block_c,block_dur,condition,countdown,datetime,endtime,list,multichar_response,project,response,response_time,session_number,start_end,starttime,subject_id,task,task_vers,trial
,,,,Fri Dec 05 2025 10:07:07 GMT-0600 (Central Standard Time),,,,O,space,782,1,,,7254,WL,C,
prac,,0,,Fri Dec 05 2025 10:07:07 GMT-0600 (Central Standard Time),,NA,b,O,b,1755,1,,,7254,WL,C,1.0
prac,,0,,Fri Dec 05 2025 10:07:07 GMT-0600 (Central Standard Time),,NA,bo,O,o,170,1,,,7254,WL,C,1.0
prac,,0,,Fri Dec 05 2025 10:07:07 GMT-0600 (Central Standard Time),,NA,boo,O,o,165,1,,,7254,WL,C,1.0
prac,,0,,Fri Dec 05 2025 10:07:07 GMT-0600 (Central Standard Time),,NA,boos,O,s,94,1,,,7254,WL,C,1.0
prac,,0,,Fri Dec 05 2025 10:07:07 GMT-0600 (Central Standard Time),,NA,boost,O,t,130,1,,,7254,WL,C,1.0
prac,,0,,Fri Dec 05 2025 10:07:07 GMT-0600 (Central Standard Time),,NA,boostenter,O,enter,1665,1,,,7254,WL,C,1.0
1,0.6340000629425049,learn,59365.999937057495,Fri Dec 05 2025 10:07:07 GMT-0600 (Central Standard Time),168119.39999997616,A,t,O,t,618,1,633.8999999761581,167485.5,7254,WL,C,1.0
1,0.81600022315979,learn,59183.99977684021,Fri Dec 05 2025 10:07:07 GMT-0600 (Central Standard Time),168301.30000001192,A,to,O,o,162,1,815.8000000119209,167485.5,7254,WL,C,1.0
1,0.9330000877380371,learn,59066.99991226196,Fri Dec 05 2025 10:07:07 GMT-0600 (Central Standard Time),168418.39999997616,A,tow,O,w,98,1,932.8999999761581,167485.5,7254,WL,C,1.0
1,1.0330002307891846,learn,58966.999769210815,Fri Dec 05 2025 10:07:07 GMT-0600 (Central Standard Time),168517.89999997616,A,towe,O,e,88,1,1032.3999999761581,167485.5,7254,WL,C,1.0
1,1.133000135421753,learn,58866.99986457825,Fri Dec 05 2025 10:07:07 GMT-0600 (Central Standard Time),168618.19999998808,A,tower,O,r,84,1,1132.699999988079,167485.5,7254,WL,C,1.0
1,2.451000213623047,learn,57548.99978637695,Fri Dec 05 2025 10:07:07 GMT-0600 (Central Standard Time),169936.19999998808,A,towerenter,O,enter,1311,1,2450.699999988079,167485.5,7254,WL,C,1.0
1,3.451000213623047,learn,56548.99978637695,Fri Dec 05 2025 10:07:07 GMT-0600 (Central Standard Time),170936.09999996424,A,w,O,w,977,1,999.5,169936.59999996424,7254,WL,C,2.0
1,3.5990002155303955,learn,56400.999784469604,Fri Dec 05 2025 10:07:07 GMT-0600 (Central Standard Time),171084.0,A,wh,O,h,129,1,1147.4000000357628,169936.59999996424,7254,WL,C,2.0
1,3.699000120162964,learn,56300.999879837036,Fri Dec 05 2025 10:07:07 GMT-0600 (Central Standard Time),171184.19999998808,A,whe,O,e,78,1,1247.6000000238419,169936.59999996424,7254,WL,C,2.0
1,3.8500001430511475,learn,56149.99985694885,Fri Dec 05 2025 10:07:07 GMT-0600 (Central Standard Time),171335.0,A,whea,O,a,136,1,1398.4000000357628,169936.59999996424,7254,WL,C,2.0
1,3.9660000801086426,learn,56033.99991989136,Fri Dec 05 2025 10:07:07 GMT-0600 (Central Standard Time),171451.0,A,wheat,O,t,97,1,1514.4000000357628,169936.59999996424,7254,WL,C,2.0
1,4.315000057220459,learn,55684.99994277954,Fri Dec 05 2025 10:07:07 GMT-0600 (Central Standard Time),171799.59999996424,A,wheatenter,O,enter,333,1,1863.0,169936.59999996424,7254,WL,C,2.0
1,4.982000112533569,learn,55017.99988746643,Fri Dec 05 2025 10:07:07 GMT-0600 (Central Standard Time),172466.59999996424,A,h,O,h,658,1,666.5999999642372,171800.0,7254,WL,C,3.0
1,5.116000175476074,learn,54883.999824523926,Fri Dec 05 2025 10:07:07 GMT-0600 (Central Standard Time),172601.30000001192,A,ho,O,o,119,1,801.3000000119209,171800.0,7254,WL,C,3.0
1,5.216000080108643,learn,54783.99991989136,Fri Dec 05 2025 10:07:07 GMT-0600 (Central Standard Time),172700.80000001192,A,hom,O,m,81,1,900.8000000119209,171800.0,7254,WL,C,3.0
1,5.281000137329102,learn,54718.9998626709,Fri Dec 05 2025 10:07:07 GMT-0600 (Central Standard Time),172766.0,A,home,O,e,51,1,966.0,171800.0,7254,WL,C,3.0
1,5.431000232696533,learn,54568.99976730347,Fri Dec 05 2025 10:07:07 GMT-0600 (Central Standard Time),172915.80000001192,A,homeenter,O,enter,132,1,1115.800000011921,171800.0,7254,WL,C,3.0
1,5.699000120162964,learn,54300.999879837036,Fri Dec 05 2025 10:07:07 GMT-0600 (Central Standard Time),173183.39999997616,A,b,O,b,246,1,267.19999998807907,172916.19999998808,7254,WL,C,4.0
1,5.815000057220459,learn,54184.99994277954,Fri Dec 05 2025 10:07:07 GMT-0600 (Central Standard Time),173299.69999998808,A,bo,O,o,96,1,383.5,172916.19999998808,7254,WL,C,4.0
1,5.9150002002716064,learn,54084.99979972839,Fri Dec 05 2025 10:07:07 GMT-0600 (Central Standard Time),173400.09999996424,A,boy,O,y,85,1,483.89999997615814,172916.19999998808,7254,WL,C,4.0
1,7.2820000648498535,learn,52717.99993515015,Fri Dec 05 2025 10:07:07 GMT-0600 (Central Standard Time),174766.5,A,boyenter,O,enter,1344,1,1850.300000011921,172916.19999998808,7254,WL,C,4.0
1,7.582000017166138,learn,52417.99998283386,Fri Dec 05 2025 10:07:07 GMT-0600 (Central Standard Time),175066.5,A,d,O,d,284,1,299.69999998807907,174766.80000001192,7254,WL,C,5.0
1,7.730000019073486,learn,52269.999980926514,Fri Dec 05 2025 10:07:07 GMT-0600 (Central Standard Time),175215.09999996424,A,do,O,o,128,1,448.2999999523163,174766.80000001192,7254,WL,C,5.0
1,7.781000137329102,learn,52218.9998626709,Fri Dec 05 2025 10:07:07 GMT-0600 (Central Standard Time),175265.59999996424,A,doc,O,c,45,1,498.7999999523163,174766.80000001192,7254,WL,C,5.0
1,7.931000232696533,learn,52068.99976730347,Fri Dec 05 2025 10:07:07 GMT-0600 (Central Standard Time),175416.09999996424,A,doct,O,t,136,1,649.2999999523163,174766.80000001192,7254,WL,C,5.0
1,8.047000169754028,learn,51952.99983024597,Fri Dec 05 2025 10:07:07 GMT-0600 (Central Standard Time),175531.69999998808,A,docto,O,o,96,1,764.8999999761581,174766.80000001192,7254,WL,C,5.0
1,8.13100004196167,learn,51868.99995803833,Fri Dec 05 2025 10:07:07 GMT-0600 (Central Standard Time),175615.80000001192,A,doctor,O,r,64,1,849.0,174766.80000001192,7254,WL,C,5.0
1,8.349000215530396,learn,51650.999784469604,Fri Dec 05 2025 10:07:07 GMT-0600 (Central Standard Time),175834.0,A,doctorenter,O,enter,202,1,1067.199999988079,174766.80000001192,7254,WL,C,5.0
1,9.897000074386597,learn,50102.9999256134,Fri Dec 05 2025 10:07:07 GMT-0600 (Central Standard Time),177381.89999997616,A,s,O,s,1538,1,1547.5999999642372,175834.30000001192,7254,WL,C,6.0
1,9.997000217437744,learn,50002.999782562256,Fri Dec 05 2025 10:07:07 GMT-0600 (Central Standard Time),177482.0,A,su,O,u,85,1,1647.699999988079,175834.30000001192,7254,WL,C,6.0
1,10.080000162124634,learn,49919.999837875366,Fri Dec 05 2025 10:07:07 GMT-0600 (Central Standard Time),177564.89999997616,A,sug,O,g,64,1,1730.5999999642372,175834.30000001192,7254,WL,C,6.0
1,10.19700002670288,learn,49802.99997329712,Fri Dec 05 2025 10:07:07 GMT-0600 (Central Standard Time),177682.30000001192,A,suga,O,a,102,1,1848.0,175834.30000001192,7254,WL,C,6.0
1,10.28000020980835,learn,49719.99979019165,Fri Dec 05 2025 10:07:07 GMT-0600 (Central Standard Time),177764.69999998808,A,sugar,O,r,61,1,1930.3999999761581,175834.30000001192,7254,WL,C,6.0
1,10.547000169754028,learn,49452.99983024597,Fri Dec 05 2025 10:07:07 GMT-0600 (Central Standard Time),178031.89999997616,A,sugarenter,O,enter,249,1,2197.599999964237,175834.30000001192,7254,WL,C,6.0
1,10.78000020980835,learn,49219.99979019165,Fri Dec 05 2025 10:07:07 GMT-0600 (Central Standard Time),178264.69999998808,A,q,O,q,219,1,232.5,178032.19999998808,7254,WL,C,7.0
1,10.880000114440918,learn,49119.99988555908,Fri Dec 05 2025 10:07:07 GMT-0600 (Central Standard Time),178364.89999997616,A,qu,O,u,89,1,332.69999998807907,178032.19999998808,7254,WL,C,7.0
1,10.997000217437744,learn,49002.999782562256,Fri Dec 05 2025 10:07:07 GMT-0600 (Central Standard Time),178482.19999998808,A,que,O,e,103,1,450.0,178032.19999998808,7254,WL,C,7.0
1,11.147000074386597,learn,48852.9999256134,Fri Dec 05 2025 10:07:07 GMT-0600 (Central Standard Time),178632.30000001192,A,quee,O,e,135,1,600.1000000238419,178032.19999998808,7254,WL,C,7.0
1,11.230000019073486,learn,48769.999980926514,Fri Dec 05 2025 10:07:07 GMT-0600 (Central Standard Time),178715.30000001192,A,queen,O,n,66,1,683.1000000238419,178032.19999998808,7254,WL,C,7.0
1,11.380000114440918,learn,48619.99988555908,Fri Dec 05 2025 10:07:07 GMT-0600 (Central Standard Time),178864.59999996424,A,queenenter,O,enter,144,1,832.3999999761581,178032.19999998808,7254,WL,C,7.0
1,17.278000116348267,learn,42721.99988365173,Fri Dec 05 2025 10:07:07 GMT-0600 (Central Standard Time),184762.5,A,c,O,c,5890,1,5897.600000023842,178864.89999997616,7254,WL,C,8.0
1,17.379000186920166,learn,42620.999813079834,Fri Dec 05 2025 10:07:07 GMT-0600 (Central Standard Time),184863.89999997616,A,ca,O,a,86,1,5999.0,178864.89999997616,7254,WL,C,8.0
1,17.47699999809265,learn,42523.00000190735,Fri Dec 05 2025 10:07:07 GMT-0600 (Central Standard Time),184962.09999996424,A,cat,O,t,81,1,6097.199999988079,178864.89999997616,7254,WL,C,8.0
1,17.629000186920166,learn,42370.999813079834,Fri Dec 05 2025 10:07:07 GMT-0600 (Central Standard Time),185113.69999998808,A,catt,O,t,134,1,6248.800000011921,178864.89999997616,7254,WL,C,8.0
1,17.74400019645691,learn,42255.99980354309,Fri Dec 05 2025 10:07:07 GMT-0600 (Central Standard Time),185229.0,A,cattl,O,l,96,1,6364.100000023842,178864.89999997616,7254,WL,C,8.0
1,17.795000076293945,learn,42204.999923706055,Fri Dec 05 2025 10:07:07 GMT-0600 (Central Standard Time),185280.0,A,cattle,O,e,37,1,6415.100000023842,178864.89999997616,7254,WL,C,8.0
1,17.89400005340576,learn,42105.99994659424,Fri Dec 05 2025 10:07:07 GMT-0600 (Central Standard Time),185378.5,A,cattleenter,O,enter,92,1,6513.600000023842,178864.89999997616,7254,WL,C,8.0
1,27.04100012779236,learn,32958.99987220764,Fri Dec 05 2025 10:07:07 GMT-0600 (Central Standard Time),194526.09999996424,A,b,O,b,9136,1,9147.199999988079,185378.89999997616,7254,WL,C,9.0
1,27.14300012588501,learn,32856.99987411499,Fri Dec 05 2025 10:07:07 GMT-0600 (Central Standard Time),194627.5,A,bo,O,o,85,1,9248.600000023842,185378.89999997616,7254,WL,C,9.0
1,27.258000135421753,learn,32741.999864578247,Fri Dec 05 2025 10:07:07 GMT-0600 (Central Standard Time),194743.09999996424,A,boy,O,y,94,1,9364.199999988079,185378.89999997616,7254,WL,C,9.0
1,27.52500009536743,learn,32474.99990463257,Fri Dec 05 2025 10:07:07 GMT-0600 (Central Standard Time),195009.5,A,boyenter,O,enter,246,1,9630.600000023842,185378.89999997616,7254,WL,C,9.0
1,31.856000185012817,learn,28143.999814987183,Fri Dec 05 2025 10:07:07 GMT-0600 (Central Standard Time),199341.19999998808,A,enter,O,enter,4321,1,4331.5,195009.69999998808,7254,WL,C,10.0
1,32.057000160217285,learn,27942.999839782715,Fri Dec 05 2025 10:07:07 GMT-0600 (Central Standard Time),199541.39999997616,A,enter,O,enter,182,1,199.80000001192093,199341.59999996424,7254,WL,C,11.0
1,32.241000175476074,learn,27758.999824523926,Fri Dec 05 2025 10:07:07 GMT-0600 (Central Standard Time),199725.89999997616,A,enter,O,enter,166,1,184.0999999642372,199541.80000001192,7254,WL,C,12.0
1,32.47200012207031,learn,27527.999877929688,Fri Dec 05 2025 10:07:07 GMT-0600 (Central Standard Time),199956.89999997616,A,enter,O,enter,212,1,230.69999998807907,199726.19999998808,7254,WL,C,13.0
1,32.873000144958496,learn,27126.999855041504,Fri Dec 05 2025 10:07:07 GMT-0600 (Central Standard Time),200358.39999997616,A,enter,O,enter,392,1,401.30000001192093,199957.09999996424,7254,WL,C,14.0
1,33.70800018310547,learn,26291.99981689453,Fri Dec 05 2025 10:07:07 GMT-0600 (Central Standard Time),201192.59999996424,A,enter,O,enter,812,1,833.8999999761581,200358.69999998808,7254,WL,C,15.0
2,0.48199987411499023,learn,59518.00012588501,Fri Dec 05 2025 10:07:07 GMT-0600 (Central Standard Time),267353.39999997616,A,c,O,c,477,1,482.0,266871.39999997616,7254,WL,C,1.0
2,0.5479998588562012,learn,59452.0001411438,Fri Dec 05 2025 10:07:07 GMT-0600 (Central Standard Time),267418.8000000119,A,ca,O,a,58,1,547.4000000357628,266871.39999997616,7254,WL,C,1.0
2,0.6139998435974121,learn,59386.00015640259,Fri Dec 05 2025 10:07:07 GMT-0600 (Central Standard Time),267485.3000000119,A,cam,O,m,55,1,613.9000000357628,266871.39999997616,7254,WL,C,1.0
2,0.747999906539917,learn,59252.00009346008,Fri Dec 05 2025 10:07:07 GMT-0600 (Central Standard Time),267619.09999996424,A,camp,O,p,127,1,747.6999999880791,266871.39999997616,7254,WL,C,1.0
2,1.4529998302459717,learn,58547.00016975403,Fri Dec 05 2025 10:07:07 GMT-0600 (Central Standard Time),268323.8000000119,A,campenter,O,enter,680,1,1452.4000000357628,266871.39999997616,7254,WL,C,1.0
2,1.8479998111724854,learn,58152.000188827515,Fri Dec 05 2025 10:07:07 GMT-0600 (Central Standard Time),268719.09999996424,A,f,O,f,384,1,395.0999999642372,268324.0,7254,WL,C,2.0
2,1.9809999465942383,learn,58019.00005340576,Fri Dec 05 2025 10:07:07 GMT-0600 (Central Standard Time),268852.59999996424,A,fl,O,l,125,1,528.5999999642372,268324.0,7254,WL,C,2.0
2,2.131999969482422,learn,57868.00003051758,Fri Dec 05 2025 10:07:07 GMT-0600 (Central Standard Time),269002.89999997616,A,fla,O,a,133,1,678.8999999761581,268324.0,7254,WL,C,2.0
2,2.2839999198913574,learn,57716.00008010864,Fri Dec 05 2025 10:07:07 GMT-0600 (Central Standard Time),269155.3000000119,A,flag,O,g,129,1,831.3000000119209,268324.0,7254,WL,C,2.0
2,2.497999906539917,learn,57502.00009346008,Fri Dec 05 2025 10:07:07 GMT-0600 (Central Standard Time),269368.89999997616,A,flagenter,O,enter,190,1,1044.8999999761581,268324.0,7254,WL,C,2.0
2,2.748999834060669,learn,57251.00016593933,Fri Dec 05 2025 10:07:07 GMT-0600 (Central Standard Time),269620.3000000119,A,l,O,l,234,1,251.20000004768372,269369.09999996424,7254,WL,C,3.0
2,2.813999891281128,learn,57186.00010871887,Fri Dec 05 2025 10:07:07 GMT-0600 (Central Standard Time),269685.59999996424,A,le,O,e,52,1,316.5,269369.09999996424,7254,WL,C,3.0
2,2.9149999618530273,learn,57085.00003814697,Fri Dec 05 2025 10:07:07 GMT-0600 (Central Standard Time),269786.0,A,let,O,t,86,1,416.9000000357628,269369.09999996424,7254,WL,C,3.0
2,3.0979998111724854,learn,56902.000188827515,Fri Dec 05 2025 10:07:07 GMT-0600 (Central Standard Time),269969.39999997616,A,lett,O,t,160,1,600.3000000119209,269369.09999996424,7254,WL,C,3.0
2,3.2649998664855957,learn,56735.000133514404,Fri Dec 05 2025 10:07:07 GMT-0600 (Central Standard Time),270136.0,A,lette,O,e,151,1,766.9000000357628,269369.09999996424,7254,WL,C,3.0
2,3.3309998512268066,learn,56669.00014877319,Fri Dec 05 2025 10:07:07 GMT-0600 (Central Standard Time),270202.3000000119,A,letter,O,r,49,1,833.2000000476837,269369.09999996424,7254,WL,C,3.0
2,3.865999937057495,learn,56134.000062942505,Fri Dec 05 2025 10:07:07 GMT-0600 (Central Standard Time),270736.6999999881,A,letterenter,O,enter,511,1,1367.6000000238419,269369.09999996424,7254,WL,C,3.0
2,4.313999891281128,learn,55686.00010871887,Fri Dec 05 2025 10:07:07 GMT-0600 (Central Standard Time),271185.0,A,c,O,c,429,1,448.10000002384186,270736.89999997616,7254,WL,C,4.0
2,4.413999795913696,learn,55586.000204086304,Fri Dec 05 2025 10:07:07 GMT-0600 (Central Standard Time),271284.8000000119,A,co,O,o,89,1,547.9000000357628,270736.89999997616,7254,WL,C,4.0
2,4.5309998989105225,learn,55469.00010108948,Fri Dec 05 2025 10:07:07 GMT-0600 (Central Standard Time),271402.39999997616,A,cor,O,r,102,1,665.5,270736.89999997616,7254,WL,C,4.0
2,4.697999954223633,learn,55302.00004577637,Fri Dec 05 2025 10:07:07 GMT-0600 (Central Standard Time),271569.09999996424,A,corn,O,n,145,1,832.1999999880791,270736.89999997616,7254,WL,C,4.0
2,5.046999931335449,learn,54953.00006866455,Fri Dec 05 2025 10:07:07 GMT-0600 (Central Standard Time),271918.59999996424,A,cornenter,O,enter,332,1,1181.699999988079,270736.89999997616,7254,WL,C,4.0
2,7.61299991607666,learn,52387.00008392334,Fri Dec 05 2025 10:07:07 GMT-0600 (Central Standard Time),274484.1999999881,A,c,O,c,2558,1,2565.300000011921,271918.89999997616,7254,WL,C,5.0
2,7.7129998207092285,learn,52287.00017929077,Fri Dec 05 2025 10:07:07 GMT-0600 (Central Standard Time),274584.1999999881,A,ca,O,a,82,1,2665.300000011921,271918.89999997616,7254,WL,C,5.0
2,7.846999883651733,learn,52153.00011634827,Fri Dec 05 2025 10:07:07 GMT-0600 (Central Standard Time),274717.8000000119,A,cat,O,t,112,1,2798.900000035763,271918.89999997616,7254,WL,C,5.0
2,7.995999813079834,learn,52004.000186920166,Fri Dec 05 2025 10:07:07 GMT-0600 (Central Standard Time),274867.5,A,catt,O,t,140,1,2948.600000023842,271918.89999997616,7254,WL,C,5.0
2,8.212999820709229,learn,51787.00017929077,Fri Dec 05 2025 10:07:07 GMT-0600 (Central Standard Time),275084.09999996424,A,cattl,O,l,209,1,3165.199999988079,271918.89999997616,7254,WL,C,5.0
2,8.361999988555908,learn,51638.00001144409,Fri Dec 05 2025 10:07:07 GMT-0600 (Central Standard Time),275233.6999999881,A,cattle,O,e,135,1,3314.800000011921,271918.89999997616,7254,WL,C,5.0
2,8.54699993133545,learn,51453.00006866455,Fri Dec 05 2025 10:07:07 GMT-0600 (Central Standard Time),275417.89999997616,A,cattleenter,O,enter,162,1,3499.0,271918.89999997616,7254,WL,C,5.0
2,10.512999773025513,learn,49487.00022697449,Fri Dec 05 2025 10:07:07 GMT-0600 (Central Standard Time),277383.8000000119,A,s,O,s,1955,1,1965.6000000238419,275418.1999999881,7254,WL,C,6.0
2,10.578999996185303,learn,49421.0000038147,Fri Dec 05 2025 10:07:07 GMT-0600 (Central Standard Time),277450.1999999881,A,sh,O,h,50,1,2032.0,275418.1999999881,7254,WL,C,6.0
2,10.67799997329712,learn,49322.00002670288,Fri Dec 05 2025 10:07:07 GMT-0600 (Central Standard Time),277549.5,A,sho,O,o,80,1,2131.300000011921,275418.1999999881,7254,WL,C,6.0
2,10.777999877929688,learn,49222.00012207031,Fri Dec 05 2025 10:07:07 GMT-0600 (Central Standard Time),277649.6999999881,A,shor,O,r,85,1,2231.5,275418.1999999881,7254,WL,C,6.0
2,10.928999900817871,learn,49071.00009918213,Fri Dec 05 2025 10:07:07 GMT-0600 (Central Standard Time),277800.6999999881,A,short,O,t,136,1,2382.5,275418.1999999881,7254,WL,C,6.0
2,11.378999948501587,learn,48621.00005149841,Fri Dec 05 2025 10:07:07 GMT-0600 (Central Standard Time),278249.89999997616,A,shor,O,backspace,444,1,2831.699999988079,275418.1999999881,7254,WL,C,6.0
2,11.460999965667725,learn,48539.000034332275,Fri Dec 05 2025 10:07:07 GMT-0600 (Central Standard Time),278332.6999999881,A,shore,O,e,75,1,2914.5,275418.1999999881,7254,WL,C,6.0
2,11.77899980545044,learn,48221.00019454956,Fri Dec 05 2025 10:07:07 GMT-0600 (Central Standard Time),278650.5,A,shoreenter,O,enter,296,1,3232.300000011921,275418.1999999881,7254,WL,C,6.0
2,12.661999940872192,learn,47338.00005912781,Fri Dec 05 2025 10:07:07 GMT-0600 (Central Standard Time),279533.09999996424,A,w,O,w,864,1,882.3999999761581,278650.6999999881,7254,WL,C,7.0
2,12.811999797821045,learn,47188.000202178955,Fri Dec 05 2025 10:07:07 GMT-0600 (Central Standard Time),279683.09999996424,A,wh,O,h,136,1,1032.3999999761581,278650.6999999881,7254,WL,C,7.0
2,13.294999837875366,learn,46705.000162124634,Fri Dec 05 2025 10:07:07 GMT-0600 (Central Standard Time),280166.1999999881,A,w,O,backspace,465,1,1515.5,278650.6999999881,7254,WL,C,7.0
2,13.428999900817871,learn,46571.00009918213,Fri Dec 05 2025 10:07:07 GMT-0600 (Central Standard Time),280300.39999997616,A,,O,backspace,114,1,1649.699999988079,278650.6999999881,7254,WL,C,7.0
2,13.561999797821045,learn,46438.000202178955,Fri Dec 05 2025 10:07:07 GMT-0600 (Central Standard Time),280433.0,A,t,O,t,119,1,1782.300000011921,278650.6999999881,7254,WL,C,7.0
2,13.694999933242798,learn,46305.0000667572,Fri Dec 05 2025 10:07:07 GMT-0600 (Central Standard Time),280566.3000000119,A,to,O,o,115,1,1915.6000000238419,278650.6999999881,7254,WL,C,7.0
2,13.777999877929688,learn,46222.00012207031,Fri Dec 05 2025 10:07:07 GMT-0600 (Central Standard Time),280649.5,A,tow,O,w,68,1,1998.800000011921,278650.6999999881,7254,WL,C,7.0
2,13.843999862670898,learn,46156.0001373291,Fri Dec 05 2025 10:07:07 GMT-0600 (Central Standard Time),280715.1999999881,A,towe,O,e,55,1,2064.5,278650.6999999881,7254,WL,C,7.0
2,13.928999900817871,learn,46071.00009918213,Fri Dec 05 2025 10:07:07 GMT-0600 (Central Standard Time),280800.09999996424,A,tower,O,r,70,1,2149.399999976158,278650.6999999881,7254,WL,C,7.0
2,14.109999895095825,learn,45890.000104904175,Fri Dec 05 2025 10:07:07 GMT-0600 (Central Standard Time),280981.5,A,towerenter,O,enter,170,1,2330.800000011921,278650.6999999881,7254,WL,C,7.0
2,14.377999782562256,learn,45622.000217437744,Fri Dec 05 2025 10:07:07 GMT-0600 (Central Standard Time),281249.0,A,w,O,w,248,1,267.19999998807907,280981.8000000119,7254,WL,C,8.0
2,14.527999877929688,learn,45472.00012207031,Fri Dec 05 2025 10:07:07 GMT-0600 (Central Standard Time),281399.09999996424,A,wh,O,h,133,1,417.2999999523163,280981.8000000119,7254,WL,C,8.0
2,14.57699990272522,learn,45423.00009727478,Fri Dec 05 2025 10:07:07 GMT-0600 (Central Standard Time),281448.0,A,whe,O,e,27,1,466.19999998807907,280981.8000000119,7254,WL,C,8.0
2,14.710999965667725,learn,45289.000034332275,Fri Dec 05 2025 10:07:07 GMT-0600 (Central Standard Time),281581.8000000119,A,whea,O,a,122,1,600.0,280981.8000000119,7254,WL,C,8.0
2,14.843999862670898,learn,45156.0001373291,Fri Dec 05 2025 10:07:07 GMT-0600 (Central Standard Time),281715.1999999881,A,wheat,O,t,119,1,733.3999999761581,280981.8000000119,7254,WL,C,8.0
2,15.276999950408936,learn,44723.000049591064,Fri Dec 05 2025 10:07:07 GMT-0600 (Central Standard Time),282148.39999997616,A,wheatenter,O,enter,414,1,1166.5999999642372,280981.8000000119,7254,WL,C,8.0
2,15.593999862670898,learn,44406.0001373291,Fri Dec 05 2025 10:07:07 GMT-0600 (Central Standard Time),282464.8000000119,A,q,O,q,304,1,316.30000001192093,282148.5,7254,WL,C,9.0
2,15.709999799728394,learn,44290.00020027161,Fri Dec 05 2025 10:07:07 GMT-0600 (Central Standard Time),282581.3000000119,A,qh,O,h,99,1,432.80000001192093,282148.5,7254,WL,C,9.0
2,15.80899977684021,learn,44191.00022315979,Fri Dec 05 2025 10:07:07 GMT-0600 (Central Standard Time),282680.3000000119,A,qhe,O,e,87,1,531.8000000119209,282148.5,7254,WL,C,9.0
2,15.977999925613403,learn,44022.0000743866,Fri Dec 05 2025 10:07:07 GMT-0600 (Central Standard Time),282848.6999999881,A,qhee,O,e,157,1,700.1999999880791,282148.5,7254,WL,C,9.0
2,16.125999927520752,learn,43874.00007247925,Fri Dec 05 2025 10:07:07 GMT-0600 (Central Standard Time),282997.5,A,qheen,O,n,131,1,849.0,282148.5,7254,WL,C,9.0
2,16.459999799728394,learn,43540.00020027161,Fri Dec 05 2025 10:07:07 GMT-0600 (Central Standard Time),283331.0,A,qhee,O,backspace,318,1,1182.5,282148.5,7254,WL,C,9.0
2,16.610999822616577,learn,43389.00017738342,Fri Dec 05 2025 10:07:07 GMT-0600 (Central Standard Time),283482.09999996424,A,qhe,O,backspace,147,1,1333.5999999642372,282148.5,7254,WL,C,9.0
2,16.777999877929688,learn,43222.00012207031,Fri Dec 05 2025 10:07:07 GMT-0600 (Central Standard Time),283648.89999997616,A,qh,O,backspace,152,1,1500.3999999761581,282148.5,7254,WL,C,9.0
2,16.926999807357788,learn,43073.00019264221,Fri Dec 05 2025 10:07:07 GMT-0600 (Central Standard Time),283798.39999997616,A,q,O,backspace,139,1,1649.8999999761581,282148.5,7254,WL,C,9.0
2,17.008999824523926,learn,42991.000175476074,Fri Dec 05 2025 10:07:07 GMT-0600 (Central Standard Time),283880.5,A,qu,O,u,61,1,1732.0,282148.5,7254,WL,C,9.0
2,17.193999767303467,learn,42806.00023269653,Fri Dec 05 2025 10:07:07 GMT-0600 (Central Standard Time),284064.8000000119,A,que,O,e,169,1,1916.300000011921,282148.5,7254,WL,C,9.0
2,17.360999822616577,learn,42639.00017738342,Fri Dec 05 2025 10:07:07 GMT-0600 (Central Standard Time),284231.6999999881,A,quee,O,e,146,1,2083.199999988079,282148.5,7254,WL,C,9.0
2,17.42799997329712,learn,42572.00002670288,Fri Dec 05 2025 10:07:07 GMT-0600 (Central Standard Time),284299.09999996424,A,queen,O,n,61,1,2150.599999964237,282148.5,7254,WL,C,9.0
2,17.64299988746643,learn,42357.00011253357,Fri Dec 05 2025 10:07:07 GMT-0600 (Central Standard Time),284514.5,A,queenenter,O,enter,201,1,2366.0,282148.5,7254,WL,C,9.0
2,17.926999807357788,learn,42073.00019264221,Fri Dec 05 2025 10:07:07 GMT-0600 (Central Standard Time),284797.8000000119,A,s,O,s,272,1,283.2000000476837,284514.59999996424,7254,WL,C,10.0
2,18.042999982833862,learn,41957.00001716614,Fri Dec 05 2025 10:07:07 GMT-0600 (Central Standard Time),284914.8000000119,A,su,O,u,109,1,400.2000000476837,284514.59999996424,7254,WL,C,10.0
2,18.293999910354614,learn,41706.000089645386,Fri Dec 05 2025 10:07:07 GMT-0600 (Central Standard Time),285165.1999999881,A,sug,O,g,230,1,650.6000000238419,284514.59999996424,7254,WL,C,10.0
2,18.527999877929688,learn,41472.00012207031,Fri Dec 05 2025 10:07:07 GMT-0600 (Central Standard Time),285398.8000000119,A,suga,O,a,213,1,884.2000000476837,284514.59999996424,7254,WL,C,10.0
2,18.625999927520752,learn,41374.00007247925,Fri Dec 05 2025 10:07:07 GMT-0600 (Central Standard Time),285497.3000000119,A,sugar,O,r,80,1,982.7000000476837,284514.59999996424,7254,WL,C,10.0
2,18.943999767303467,learn,41056.00023269653,Fri Dec 05 2025 10:07:07 GMT-0600 (Central Standard Time),285814.89999997616,A,sugarenter,O,enter,296,1,1300.300000011921,284514.59999996424,7254,WL,C,10.0
2,20.591999769210815,learn,39408.000230789185,Fri Dec 05 2025 10:07:07 GMT-0600 (Central Standard Time),287463.3000000119,A,h,O,h,1630,1,1648.1000000238419,285815.1999999881,7254,WL,C,11.0
2,20.70899987220764,learn,39291.00012779236,Fri Dec 05 2025 10:07:07 GMT-0600 (Central Standard Time),287580.09999996424,A,ho,O,o,106,1,1764.8999999761581,285815.1999999881,7254,WL,C,11.0
2,20.80899977684021,learn,39191.00022315979,Fri Dec 05 2025 10:07:07 GMT-0600 (Central Standard Time),287679.89999997616,A,hom,O,m,80,1,1864.699999988079,285815.1999999881,7254,WL,C,11.0
2,20.925999879837036,learn,39074.000120162964,Fri Dec 05 2025 10:07:07 GMT-0600 (Central Standard Time),287797.5,A,home,O,e,99,1,1982.300000011921,285815.1999999881,7254,WL,C,11.0
2,21.175999879837036,learn,38824.000120162964,Fri Dec 05 2025 10:07:07 GMT-0600 (Central Standard Time),288047.0,A,homeenter,O,enter,237,1,2231.800000011921,285815.1999999881,7254,WL,C,11.0
2,21.443999767303467,learn,38556.00023269653,Fri Dec 05 2025 10:07:07 GMT-0600 (Central Standard Time),288315.0,A,d,O,d,260,1,267.80000001192093,288047.1999999881,7254,WL,C,12.0
2,21.575999975204468,learn,38424.00002479553,Fri Dec 05 2025 10:07:07 GMT-0600 (Central Standard Time),288447.09999996424,A,do,O,o,128,1,399.89999997615814,288047.1999999881,7254,WL,C,12.0
2,21.657999992370605,learn,38342.000007629395,Fri Dec 05 2025 10:07:07 GMT-0600 (Central Standard Time),288529.09999996424,A,doc,O,c,68,1,481.89999997615814,288047.1999999881,7254,WL,C,12.0
2,21.82799983024597,learn,38172.00016975403,Fri Dec 05 2025 10:07:07 GMT-0600 (Central Standard Time),288699.59999996424,A,doct,O,t,149,1,652.3999999761581,288047.1999999881,7254,WL,C,12.0
2,21.924999952316284,learn,38075.000047683716,Fri Dec 05 2025 10:07:07 GMT-0600 (Central Standard Time),288795.8000000119,A,docto,O,o,78,1,748.6000000238419,288047.1999999881,7254,WL,C,12.0
2,22.007999897003174,learn,37992.000102996826,Fri Dec 05 2025 10:07:07 GMT-0600 (Central Standard Time),288879.09999996424,A,doctor,O,r,70,1,831.8999999761581,288047.1999999881,7254,WL,C,12.0
2,22.425999879837036,learn,37574.000120162964,Fri Dec 05 2025 10:07:07 GMT-0600 (Central Standard Time),289297.39999997616,A,doctorenter,O,enter,413,1,1250.199999988079,288047.1999999881,7254,WL,C,12.0
2,22.757999897003174,learn,37242.000102996826,Fri Dec 05 2025 10:07:07 GMT-0600 (Central Standard Time),289628.8000000119,A,b,O,b,313,1,331.2000000476837,289297.59999996424,7254,WL,C,13.0
2,22.858999967575073,learn,37141.00003242493,Fri Dec 05 2025 10:07:07 GMT-0600 (Central Standard Time),289730.1999999881,A,bo,O,o,86,1,432.60000002384186,289297.59999996424,7254,WL,C,13.0
2,23.091999769210815,learn,36908.000230789185,Fri Dec 05 2025 10:07:07 GMT-0600 (Central Standard Time),289963.09999996424,A,boy,O,y,216,1,665.5,289297.59999996424,7254,WL,C,13.0
2,23.375999927520752,learn,36624.00007247925,Fri Dec 05 2025 10:07:07 GMT-0600 (Central Standard Time),290247.09999996424,A,boyenter,O,enter,273,1,949.5,289297.59999996424,7254,WL,C,13.0
2,36.98699998855591,learn,23013.00001144409,Fri Dec 05 2025 10:07:07 GMT-0600 (Central Standard Time),303858.0,A,s,O,s,13597,1,13610.600000023842,290247.39999997616,7254,WL,C,14.0
2,37.05399990081787,learn,22946.00009918213,Fri Dec 05 2025 10:07:07 GMT-0600 (Central Standard Time),303925.1999999881,A,so,O,o,49,1,13677.800000011921,290247.39999997616,7254,WL,C,14.0
2,37.23699998855591,learn,22763.00001144409,Fri Dec 05 2025 10:07:07 GMT-0600 (Central Standard Time),304108.1999999881,A,sol,O,l,165,1,13860.800000011921,290247.39999997616,7254,WL,C,14.0
2,37.30299997329712,learn,22697.00002670288,Fri Dec 05 2025 10:07:07 GMT-0600 (Central Standard Time),304174.09999996424,A,sold,O,d,52,1,13926.699999988079,290247.39999997616,7254,WL,C,14.0
2,37.38699984550476,learn,22613.00015449524,Fri Dec 05 2025 10:07:07 GMT-0600 (Central Standard Time),304258.09999996424,A,soldi,O,i,78,1,14010.699999988079,290247.39999997616,7254,WL,C,14.0
2,37.55399990081787,learn,22446.00009918213,Fri Dec 05 2025 10:07:07 GMT-0600 (Central Standard Time),304425.1999999881,A,soldie,O,e,147,1,14177.800000011921,290247.39999997616,7254,WL,C,14.0
2,37.98699998855591,learn,22013.00001144409,Fri Dec 05 2025 10:07:07 GMT-0600 (Central Standard Time),304857.6999999881,A,soldier,O,r,429,1,14610.300000011921,290247.39999997616,7254,WL,C,14.0
2,38.23599982261658,learn,21764.000177383423,Fri Dec 05 2025 10:07:07 GMT-0600 (Central Standard Time),305107.09999996424,A,soldierenter,O,enter,234,1,14859.699999988079,290247.39999997616,7254,WL,C,14.0
2,44.0699999332428,learn,15930.000066757202,Fri Dec 05 2025 10:07:07 GMT-0600 (Central Standard Time),310940.8000000119,A,enter,O,enter,5816,1,5833.400000035763,305107.39999997616,7254,WL,C,15.0
3,0.46700000762939453,learn,59532.999992370605,Fri Dec 05 2025 10:07:07 GMT-0600 (Central Standard Time),377785.6999999881,A,c,O,c,445,1,466.89999997615814,377318.8000000119,7254,WL,C,1.0
3,0.5830001831054688,learn,59416.99981689453,Fri Dec 05 2025 10:07:07 GMT-0600 (Central Standard Time),377901.6999999881,A,ca,O,a,102,1,582.8999999761581,377318.8000000119,7254,WL,C,1.0
3,0.6820001602172852,learn,59317.999839782715,Fri Dec 05 2025 10:07:07 GMT-0600 (Central Standard Time),378000.89999997616,A,cam,O,m,84,1,682.0999999642372,377318.8000000119,7254,WL,C,1.0
3,0.8000001907348633,learn,59199.99980926514,Fri Dec 05 2025 10:07:07 GMT-0600 (Central Standard Time),378118.39999997616,A,camp,O,p,105,1,799.5999999642372,377318.8000000119,7254,WL,C,1.0
3,1.1340000629425049,learn,58865.999937057495,Fri Dec 05 2025 10:07:07 GMT-0600 (Central Standard Time),378452.59999996424,A,campenter,O,enter,321,1,1133.7999999523163,377318.8000000119,7254,WL,C,1.0
3,1.6990001201629639,learn,58300.999879837036,Fri Dec 05 2025 10:07:07 GMT-0600 (Central Standard Time),379018.0,A,f,O,f,551,1,565.1999999880791,378452.8000000119,7254,WL,C,2.0
3,1.8330001831054688,learn,58166.99981689453,Fri Dec 05 2025 10:07:07 GMT-0600 (Central Standard Time),379152.09999996424,A,fl,O,l,113,1,699.2999999523163,378452.8000000119,7254,WL,C,2.0
3,1.9660000801086426,learn,58033.99991989136,Fri Dec 05 2025 10:07:07 GMT-0600 (Central Standard Time),379284.39999997616,A,fla,O,a,114,1,831.5999999642372,378452.8000000119,7254,WL,C,2.0
3,2.0320000648498535,learn,57967.99993515015,Fri Dec 05 2025 10:07:07 GMT-0600 (Central Standard Time),379350.5,A,flag,O,g,46,1,897.6999999880791,378452.8000000119,7254,WL,C,2.0
3,2.199000120162964,learn,57800.999879837036,Fri Dec 05 2025 10:07:07 GMT-0600 (Central Standard Time),379518.0,A,flagenter,O,enter,148,1,1065.199999988079,378452.8000000119,7254,WL,C,2.0
3,2.449000120162964,learn,57550.999879837036,Fri Dec 05 2025 10:07:07 GMT-0600 (Central Standard Time),379768.09999996424,A,l,O,l,230,1,249.89999997615814,379518.1999999881,7254,WL,C,3.0
3,2.5320000648498535,learn,57467.99993515015,Fri Dec 05 2025 10:07:07 GMT-0600 (Central Standard Time),379850.5,A,le,O,e,64,1,332.30000001192093,379518.1999999881,7254,WL,C,3.0
3,2.615000009536743,learn,57384.99999046326,Fri Dec 05 2025 10:07:07 GMT-0600 (Central Standard Time),379933.89999997616,A,let,O,t,66,1,415.69999998807907,379518.1999999881,7254,WL,C,3.0
3,2.765000104904175,learn,57234.999895095825,Fri Dec 05 2025 10:07:07 GMT-0600 (Central Standard Time),380083.89999997616,A,lett,O,t,132,1,565.6999999880791,379518.1999999881,7254,WL,C,3.0
3,2.9160001277923584,learn,57083.99987220764,Fri Dec 05 2025 10:07:07 GMT-0600 (Central Standard Time),380234.3000000119,A,lette,O,e,135,1,716.1000000238419,379518.1999999881,7254,WL,C,3.0
3,2.9820001125335693,learn,57017.99988746643,Fri Dec 05 2025 10:07:07 GMT-0600 (Central Standard Time),380300.39999997616,A,letter,O,r,54,1,782.1999999880791,379518.1999999881,7254,WL,C,3.0
3,3.0990002155303955,learn,56900.999784469604,Fri Dec 05 2025 10:07:07 GMT-0600 (Central Standard Time),380417.8000000119,A,letterenter,O,enter,114,1,899.6000000238419,379518.1999999881,7254,WL,C,3.0
3,3.4820001125335693,learn,56517.99988746643,Fri Dec 05 2025 10:07:07 GMT-0600 (Central Standard Time),380801.09999996424,A,c,O,c,364,1,383.0,380418.09999996424,7254,WL,C,4.0
3,3.5810000896453857,learn,56418.999910354614,Fri Dec 05 2025 10:07:07 GMT-0600 (Central Standard Time),380899.59999996424,A,co,O,o,80,1,481.5,380418.09999996424,7254,WL,C,4.0
3,3.700000047683716,learn,56299.999952316284,Fri Dec 05 2025 10:07:07 GMT-0600 (Central Standard Time),381018.5,A,cor,O,r,98,1,600.4000000357628,380418.09999996424,7254,WL,C,4.0
3,3.8320000171661377,learn,56167.99998283386,Fri Dec 05 2025 10:07:07 GMT-0600 (Central Standard Time),381150.5,A,corn,O,n,118,1,732.4000000357628,380418.09999996424,7254,WL,C,4.0
3,4.082000017166138,learn,55917.99998283386,Fri Dec 05 2025 10:07:07 GMT-0600 (Central Standard Time),381400.89999997616,A,cornenter,O,enter,235,1,982.8000000119209,380418.09999996424,7254,WL,C,4.0
3,4.3480000495910645,learn,55651.999950408936,Fri Dec 05 2025 10:07:07 GMT-0600 (Central Standard Time),381667.1999999881,A,f,O,f,244,1,266.0,381401.1999999881,7254,WL,C,5.0
3,4.498000144958496,learn,55501.999855041504,Fri Dec 05 2025 10:07:07 GMT-0600 (Central Standard Time),381816.59999996424,A,fl,O,l,135,1,415.39999997615814,381401.1999999881,7254,WL,C,5.0
3,4.716000080108643,learn,55283.99991989136,Fri Dec 05 2025 10:07:07 GMT-0600 (Central Standard Time),382034.39999997616,A,fla,O,a,208,1,633.1999999880791,381401.1999999881,7254,WL,C,5.0
3,5.414000034332275,learn,54585.999965667725,Fri Dec 05 2025 10:07:07 GMT-0600 (Central Standard Time),382733.3000000119,A,fl,O,backspace,679,1,1332.1000000238419,381401.1999999881,7254,WL,C,5.0
3,5.565999984741211,learn,54434.00001525879,Fri Dec 05 2025 10:07:07 GMT-0600 (Central Standard Time),382885.59999996424,A,f,O,backspace,142,1,1484.3999999761581,381401.1999999881,7254,WL,C,5.0
3,5.731000185012817,learn,54268.99981498718,Fri Dec 05 2025 10:07:07 GMT-0600 (Central Standard Time),383050.09999996424,A,,O,backspace,149,1,1648.8999999761581,381401.1999999881,7254,WL,C,5.0
3,6.081000089645386,learn,53918.999910354614,Fri Dec 05 2025 10:07:07 GMT-0600 (Central Standard Time),383399.6999999881,A,n,O,n,329,1,1998.5,381401.1999999881,7254,WL,C,5.0
3,6.215000152587891,learn,53784.99984741211,Fri Dec 05 2025 10:07:07 GMT-0600 (Central Standard Time),383533.59999996424,A,na,O,a,122,1,2132.399999976158,381401.1999999881,7254,WL,C,5.0
3,6.331000089645386,learn,53668.999910354614,Fri Dec 05 2025 10:07:07 GMT-0600 (Central Standard Time),383649.39999997616,A,nai,O,i,96,1,2248.199999988079,381401.1999999881,7254,WL,C,5.0
3,6.414000034332275,learn,53585.999965667725,Fri Dec 05 2025 10:07:07 GMT-0600 (Central Standard Time),383732.6999999881,A,nail,O,l,73,1,2331.5,381401.1999999881,7254,WL,C,5.0
3,6.71399998664856,learn,53286.00001335144,Fri Dec 05 2025 10:07:07 GMT-0600 (Central Standard Time),384033.1999999881,A,nailenter,O,enter,279,1,2632.0,381401.1999999881,7254,WL,C,5.0
3,6.914000034332275,learn,53085.999965667725,Fri Dec 05 2025 10:07:07 GMT-0600 (Central Standard Time),384233.39999997616,A,c,O,c,179,1,199.89999997615814,384033.5,7254,WL,C,6.0
3,7.013000011444092,learn,52986.99998855591,Fri Dec 05 2025 10:07:07 GMT-0600 (Central Standard Time),384332.59999996424,A,ca,O,a,81,1,299.0999999642372,384033.5,7254,WL,C,6.0
3,7.130000114440918,learn,52869.99988555908,Fri Dec 05 2025 10:07:07 GMT-0600 (Central Standard Time),384449.6999999881,A,cat,O,t,102,1,416.19999998807907,384033.5,7254,WL,C,6.0
3,7.263000011444092,learn,52736.99998855591,Fri Dec 05 2025 10:07:07 GMT-0600 (Central Standard Time),384581.89999997616,A,catt,O,t,120,1,548.3999999761581,384033.5,7254,WL,C,6.0
3,7.363000154495239,learn,52636.99984550476,Fri Dec 05 2025 10:07:07 GMT-0600 (Central Standard Time),384682.09999996424,A,cattl,O,l,85,1,648.5999999642372,384033.5,7254,WL,C,6.0
3,7.463000059127808,learn,52536.99994087219,Fri Dec 05 2025 10:07:07 GMT-0600 (Central Standard Time),384782.8000000119,A,cattle,O,e,87,1,749.3000000119209,384033.5,7254,WL,C,6.0
3,7.563000202178955,learn,52436.999797821045,Fri Dec 05 2025 10:07:07 GMT-0600 (Central Standard Time),384882.8000000119,A,cattleenter,O,enter,92,1,849.3000000119209,384033.5,7254,WL,C,6.0
3,7.79800009727478,learn,52201.99990272522,Fri Dec 05 2025 10:07:07 GMT-0600 (Central Standard Time),385117.09999996424,A,s,O,s,224,1,234.0,384883.09999996424,7254,WL,C,7.0
3,7.913000106811523,learn,52086.99989318848,Fri Dec 05 2025 10:07:07 GMT-0600 (Central Standard Time),385232.3000000119,A,sh,O,h,94,1,349.2000000476837,384883.09999996424,7254,WL,C,7.0
3,7.963000059127808,learn,52036.99994087219,Fri Dec 05 2025 10:07:07 GMT-0600 (Central Standard Time),385282.6999999881,A,sho,O,o,41,1,399.60000002384186,384883.09999996424,7254,WL,C,7.0
3,8.046000003814697,learn,51953.9999961853,Fri Dec 05 2025 10:07:07 GMT-0600 (Central Standard Time),385365.59999996424,A,shor,O,r,73,1,482.5,384883.09999996424,7254,WL,C,7.0
3,8.17900013923645,learn,51820.99986076355,Fri Dec 05 2025 10:07:07 GMT-0600 (Central Standard Time),385498.59999996424,A,short,O,t,126,1,615.5,384883.09999996424,7254,WL,C,7.0
3,8.296000003814697,learn,51703.9999961853,Fri Dec 05 2025 10:07:07 GMT-0600 (Central Standard Time),385615.8000000119,A,shortenter,O,enter,103,1,732.7000000476837,384883.09999996424,7254,WL,C,7.0
3,10.129000186920166,learn,49870.999813079834,Fri Dec 05 2025 10:07:07 GMT-0600 (Central Standard Time),387448.8000000119,A,s,O,s,1820,1,1832.800000011921,385616.0,7254,WL,C,8.0
3,10.578999996185303,learn,49421.0000038147,Fri Dec 05 2025 10:07:07 GMT-0600 (Central Standard Time),387898.0,A,,O,backspace,435,1,2282.0,385616.0,7254,WL,C,8.0
3,10.73200011253357,learn,49267.99988746643,Fri Dec 05 2025 10:07:07 GMT-0600 (Central Standard Time),388051.59999996424,A,b,O,b,136,1,2435.599999964237,385616.0,7254,WL,C,8.0
3,10.861999988555908,learn,49138.00001144409,Fri Dec 05 2025 10:07:07 GMT-0600 (Central Standard Time),388181.5,A,bo,O,o,110,1,2565.5,385616.0,7254,WL,C,8.0
3,10.945000171661377,learn,49054.99982833862,Fri Dec 05 2025 10:07:07 GMT-0600 (Central Standard Time),388264.1999999881,A,bod,O,d,69,1,2648.199999988079,385616.0,7254,WL,C,8.0
3,11.078999996185303,learn,48921.0000038147,Fri Dec 05 2025 10:07:07 GMT-0600 (Central Standard Time),388398.09999996424,A,body,O,y,121,1,2782.099999964237,385616.0,7254,WL,C,8.0
3,11.313000202178955,learn,48686.999797821045,Fri Dec 05 2025 10:07:07 GMT-0600 (Central Standard Time),388632.39999997616,A,bodyenter,O,enter,222,1,3016.399999976158,385616.0,7254,WL,C,8.0
3,13.995000123977661,learn,46004.99987602234,Fri Dec 05 2025 10:07:07 GMT-0600 (Central Standard Time),391314.3000000119,A,t,O,t,2667,1,2681.600000023842,388632.6999999881,7254,WL,C,9.0
3,14.144999980926514,learn,45855.000019073486,Fri Dec 05 2025 10:07:07 GMT-0600 (Central Standard Time),391464.5,A,to,O,o,129,1,2831.800000011921,388632.6999999881,7254,WL,C,9.0
3,14.210000038146973,learn,45789.99996185303,Fri Dec 05 2025 10:07:07 GMT-0600 (Central Standard Time),391529.6999999881,A,tow,O,w,51,1,2897.0,388632.6999999881,7254,WL,C,9.0
3,14.277000188827515,learn,45722.999811172485,Fri Dec 05 2025 10:07:07 GMT-0600 (Central Standard Time),391596.6999999881,A,towe,O,e,51,1,2964.0,388632.6999999881,7254,WL,C,9.0
3,14.344000101089478,learn,45655.99989891052,Fri Dec 05 2025 10:07:07 GMT-0600 (Central Standard Time),391663.89999997616,A,tower,O,r,48,1,3031.199999988079,388632.6999999881,7254,WL,C,9.0
3,14.561000108718872,learn,45438.99989128113,Fri Dec 05 2025 10:07:07 GMT-0600 (Central Standard Time),391879.89999997616,A,towerenter,O,enter,202,1,3247.199999988079,388632.6999999881,7254,WL,C,9.0
3,14.877000093460083,learn,45122.99990653992,Fri Dec 05 2025 10:07:07 GMT-0600 (Central Standard Time),392196.8000000119,A,w,O,w,300,1,316.80000001192093,391880.0,7254,WL,C,10.0
3,15.011000156402588,learn,44988.99984359741,Fri Dec 05 2025 10:07:07 GMT-0600 (Central Standard Time),392330.3000000119,A,wh,O,h,112,1,450.30000001192093,391880.0,7254,WL,C,10.0
3,15.042999982833862,learn,44957.00001716614,Fri Dec 05 2025 10:07:07 GMT-0600 (Central Standard Time),392362.09999996424,A,whe,O,e,24,1,482.0999999642372,391880.0,7254,WL,C,10.0
3,15.16100001335144,learn,44838.99998664856,Fri Dec 05 2025 10:07:07 GMT-0600 (Central Standard Time),392480.5,A,whea,O,a,106,1,600.5,391880.0,7254,WL,C,10.0
3,15.24400019645691,learn,44755.99980354309,Fri Dec 05 2025 10:07:07 GMT-0600 (Central Standard Time),392563.09999996424,A,wheat,O,t,76,1,683.0999999642372,391880.0,7254,WL,C,10.0
3,15.42900013923645,learn,44570.99986076355,Fri Dec 05 2025 10:07:07 GMT-0600 (Central Standard Time),392747.8000000119,A,wheatenter,O,enter,177,1,867.8000000119209,391880.0,7254,WL,C,10.0
3,18.110000133514404,learn,41889.999866485596,Fri Dec 05 2025 10:07:07 GMT-0600 (Central Standard Time),395429.5,A,q,O,q,2672,1,2681.300000011921,392748.1999999881,7254,WL,C,11.0
3,18.24400019645691,learn,41755.99980354309,Fri Dec 05 2025 10:07:07 GMT-0600 (Central Standard Time),395563.59999996424,A,qu,O,u,114,1,2815.399999976158,392748.1999999881,7254,WL,C,11.0
3,18.326000213623047,learn,41673.99978637695,Fri Dec 05 2025 10:07:07 GMT-0600 (Central Standard Time),395645.8000000119,A,que,O,e,69,1,2897.600000023842,392748.1999999881,7254,WL,C,11.0
3,18.460000038146973,learn,41539.99996185303,Fri Dec 05 2025 10:07:07 GMT-0600 (Central Standard Time),395779.3000000119,A,quee,O,e,117,1,3031.100000023842,392748.1999999881,7254,WL,C,11.0
3,18.55900001525879,learn,41440.99998474121,Fri Dec 05 2025 10:07:07 GMT-0600 (Central Standard Time),395878.89999997616,A,queen,O,n,76,1,3130.699999988079,392748.1999999881,7254,WL,C,11.0
3,18.72699999809265,learn,41273.00000190735,Fri Dec 05 2025 10:07:07 GMT-0600 (Central Standard Time),396045.89999997616,A,queenenter,O,enter,147,1,3297.699999988079,392748.1999999881,7254,WL,C,11.0
3,18.877000093460083,learn,41122.99990653992,Fri Dec 05 2025 10:07:07 GMT-0600 (Central Standard Time),396196.5,A,s,O,s,133,1,150.30000001192093,396046.1999999881,7254,WL,C,12.0
3,18.993000030517578,learn,41006.99996948242,Fri Dec 05 2025 10:07:07 GMT-0600 (Central Standard Time),396312.59999996424,A,su,O,u,95,1,266.39999997615814,396046.1999999881,7254,WL,C,12.0
3,19.075000047683716,learn,40924.999952316284,Fri Dec 05 2025 10:07:07 GMT-0600 (Central Standard Time),396394.59999996424,A,sug,O,g,65,1,348.39999997615814,396046.1999999881,7254,WL,C,12.0
3,19.211000204086304,learn,40788.999795913696,Fri Dec 05 2025 10:07:07 GMT-0600 (Central Standard Time),396530.0,A,suga,O,a,115,1,483.80000001192093,396046.1999999881,7254,WL,C,12.0
3,19.276000022888184,learn,40723.99997711182,Fri Dec 05 2025 10:07:07 GMT-0600 (Central Standard Time),396595.39999997616,A,sugar,O,r,56,1,549.1999999880791,396046.1999999881,7254,WL,C,12.0
3,19.493000030517578,learn,40506.99996948242,Fri Dec 05 2025 10:07:07 GMT-0600 (Central Standard Time),396812.0,A,sugarenter,O,enter,210,1,765.8000000119209,396046.1999999881,7254,WL,C,12.0
3,19.74400019645691,learn,40255.99980354309,Fri Dec 05 2025 10:07:07 GMT-0600 (Central Standard Time),397063.09999996424,A,h,O,h,239,1,250.79999995231628,396812.3000000119,7254,WL,C,13.0
3,19.859000205993652,learn,40140.99979400635,Fri Dec 05 2025 10:07:07 GMT-0600 (Central Standard Time),397178.8000000119,A,ho,O,o,107,1,366.5,396812.3000000119,7254,WL,C,13.0
3,19.95900011062622,learn,40040.99988937378,Fri Dec 05 2025 10:07:07 GMT-0600 (Central Standard Time),397279.0,A,hom,O,m,80,1,466.69999998807907,396812.3000000119,7254,WL,C,13.0
3,20.05900001525879,learn,39940.99998474121,Fri Dec 05 2025 10:07:07 GMT-0600 (Central Standard Time),397378.09999996424,A,home,O,e,89,1,565.7999999523163,396812.3000000119,7254,WL,C,13.0
3,20.242000102996826,learn,39757.999897003174,Fri Dec 05 2025 10:07:07 GMT-0600 (Central Standard Time),397561.59999996424,A,homeenter,O,enter,169,1,749.2999999523163,396812.3000000119,7254,WL,C,13.0
3,21.06000018119812,learn,38939.99981880188,Fri Dec 05 2025 10:07:07 GMT-0600 (Central Standard Time),398379.1999999881,A,b,O,b,813,1,817.3000000119209,397561.89999997616,7254,WL,C,14.0
3,21.193000078201294,learn,38806.999921798706,Fri Dec 05 2025 10:07:07 GMT-0600 (Central Standard Time),398512.09999996424,A,bo,O,o,112,1,950.1999999880791,397561.89999997616,7254,WL,C,14.0
3,21.276000022888184,learn,38723.99997711182,Fri Dec 05 2025 10:07:07 GMT-0600 (Central Standard Time),398595.0,A,boy,O,y,65,1,1033.1000000238419,397561.89999997616,7254,WL,C,14.0
3,21.508000135421753,learn,38491.99986457825,Fri Dec 05 2025 10:07:07 GMT-0600 (Central Standard Time),398827.09999996424,A,boyenter,O,enter,215,1,1265.199999988079,397561.89999997616,7254,WL,C,14.0
3,21.759000062942505,learn,38240.999937057495,Fri Dec 05 2025 10:07:07 GMT-0600 (Central Standard Time),399078.0,A,d,O,d,240,1,250.69999998807907,398827.3000000119,7254,WL,C,15.0
3,21.874000072479248,learn,38125.99992752075,Fri Dec 05 2025 10:07:07 GMT-0600 (Central Standard Time),399193.8000000119,A,do,O,o,108,1,366.5,398827.3000000119,7254,WL,C,15.0
3,21.9760000705719,learn,38023.9999294281,Fri Dec 05 2025 10:07:07 GMT-0600 (Central Standard Time),399295.09999996424,A,doc,O,c,90,1,467.7999999523163,398827.3000000119,7254,WL,C,15.0
3,22.124000072479248,learn,37875.99992752075,Fri Dec 05 2025 10:07:07 GMT-0600 (Central Standard Time),399443.8000000119,A,doct,O,t,139,1,616.5,398827.3000000119,7254,WL,C,15.0
3,22.243000030517578,learn,37756.99996948242,Fri Dec 05 2025 10:07:07 GMT-0600 (Central Standard Time),399562.59999996424,A,docto,O,o,113,1,735.2999999523163,398827.3000000119,7254,WL,C,15.0
3,22.592000007629395,learn,37407.999992370605,Fri Dec 05 2025 10:07:07 GMT-0600 (Central Standard Time),399911.6999999881,A,doctor,O,r,337,1,1084.3999999761581,398827.3000000119,7254,WL,C,15.0
3,22.842000007629395,learn,37157.999992370605,Fri Dec 05 2025 10:07:07 GMT-0600 (Central Standard Time),400161.59999996424,A,doctorenter,O,enter,230,1,1334.2999999523163,398827.3000000119,7254,WL,C,15.0
4,0.3489999771118164,learn,59651.00002288818,Fri Dec 05 2025 10:07:07 GMT-0600 (Central Standard Time),465606.3000000119,A,c,O,c,329,1,349.2000000476837,465257.09999996424,7254,WL,C,1.0
4,0.4680001735687256,learn,59531.999826431274,Fri Dec 05 2025 10:07:07 GMT-0600 (Central Standard Time),465724.89999997616,A,ca,O,a,100,1,467.80000001192093,465257.09999996424,7254,WL,C,1.0
4,0.5829999446868896,learn,59417.00005531311,Fri Dec 05 2025 10:07:07 GMT-0600 (Central Standard Time),465840.0,A,cam,O,m,102,1,582.9000000357628,465257.09999996424,7254,WL,C,1.0
4,0.6830000877380371,learn,59316.99991226196,Fri Dec 05 2025 10:07:07 GMT-0600 (Central Standard Time),465940.09999996424,A,camp,O,p,82,1,683.0,465257.09999996424,7254,WL,C,1.0
4,1.2330000400543213,learn,58766.99995994568,Fri Dec 05 2025 10:07:07 GMT-0600 (Central Standard Time),466490.1999999881,A,campenter,O,enter,530,1,1233.1000000238419,465257.09999996424,7254,WL,C,1.0
4,1.4490001201629639,learn,58550.999879837036,Fri Dec 05 2025 10:07:07 GMT-0600 (Central Standard Time),466706.39999997616,A,f,O,f,200,1,216.0,466490.39999997616,7254,WL,C,2.0
4,1.567000150680542,learn,58432.99984931946,Fri Dec 05 2025 10:07:07 GMT-0600 (Central Standard Time),466824.39999997616,A,fl,O,l,113,1,334.0,466490.39999997616,7254,WL,C,2.0
4,1.7350001335144043,learn,58264.999866485596,Fri Dec 05 2025 10:07:07 GMT-0600 (Central Standard Time),466991.5,A,fla,O,a,148,1,501.10000002384186,466490.39999997616,7254,WL,C,2.0
4,1.7999999523162842,learn,58200.000047683716,Fri Dec 05 2025 10:07:07 GMT-0600 (Central Standard Time),467056.59999996424,A,flag,O,g,51,1,566.1999999880791,466490.39999997616,7254,WL,C,2.0
4,1.9660000801086426,learn,58033.99991989136,Fri Dec 05 2025 10:07:07 GMT-0600 (Central Standard Time),467223.09999996424,A,flagenter,O,enter,147,1,732.6999999880791,466490.39999997616,7254,WL,C,2.0
4,2.183000087738037,learn,57816.99991226196,Fri Dec 05 2025 10:07:07 GMT-0600 (Central Standard Time),467440.3000000119,A,l,O,l,203,1,217.0,467223.3000000119,7254,WL,C,3.0
4,2.249000072479248,learn,57750.99992752075,Fri Dec 05 2025 10:07:07 GMT-0600 (Central Standard Time),467506.09999996424,A,le,O,e,49,1,282.7999999523163,467223.3000000119,7254,WL,C,3.0
4,2.3350000381469727,learn,57664.99996185303,Fri Dec 05 2025 10:07:07 GMT-0600 (Central Standard Time),467592.09999996424,A,let,O,t,72,1,368.7999999523163,467223.3000000119,7254,WL,C,3.0
4,2.4839999675750732,learn,57516.00003242493,Fri Dec 05 2025 10:07:07 GMT-0600 (Central Standard Time),467740.8000000119,A,lett,O,t,130,1,517.5,467223.3000000119,7254,WL,C,3.0
4,2.6500000953674316,learn,57349.99990463257,Fri Dec 05 2025 10:07:07 GMT-0600 (Central Standard Time),467906.6999999881,A,lette,O,e,150,1,683.3999999761581,467223.3000000119,7254,WL,C,3.0
4,2.697999954223633,learn,57302.00004577637,Fri Dec 05 2025 10:07:07 GMT-0600 (Central Standard Time),467955.1999999881,A,letter,O,r,38,1,731.8999999761581,467223.3000000119,7254,WL,C,3.0
4,2.817000150680542,learn,57182.99984931946,Fri Dec 05 2025 10:07:07 GMT-0600 (Central Standard Time),468074.39999997616,A,letterenter,O,enter,105,1,851.0999999642372,467223.3000000119,7254,WL,C,3.0
4,3.199000120162964,learn,56800.999879837036,Fri Dec 05 2025 10:07:07 GMT-0600 (Central Standard Time),468456.1999999881,A,c,O,c,362,1,381.5,468074.6999999881,7254,WL,C,4.0
4,3.317000150680542,learn,56682.99984931946,Fri Dec 05 2025 10:07:07 GMT-0600 (Central Standard Time),468573.5,A,co,O,o,103,1,498.80000001192093,468074.6999999881,7254,WL,C,4.0
4,3.4160001277923584,learn,56583.99987220764,Fri Dec 05 2025 10:07:07 GMT-0600 (Central Standard Time),468673.3000000119,A,cor,O,r,87,1,598.6000000238419,468074.6999999881,7254,WL,C,4.0
4,3.5480000972747803,learn,56451.99990272522,Fri Dec 05 2025 10:07:07 GMT-0600 (Central Standard Time),468805.09999996424,A,corn,O,n,112,1,730.3999999761581,468074.6999999881,7254,WL,C,4.0
4,3.7160000801086426,learn,56283.99991989136,Fri Dec 05 2025 10:07:07 GMT-0600 (Central Standard Time),468973.1999999881,A,cornenter,O,enter,149,1,898.5,468074.6999999881,7254,WL,C,4.0
4,3.9160001277923584,learn,56083.99987220764,Fri Dec 05 2025 10:07:07 GMT-0600 (Central Standard Time),469172.8000000119,A,n,O,n,182,1,199.4000000357628,468973.39999997616,7254,WL,C,5.0
4,4.065000057220459,learn,55934.99994277954,Fri Dec 05 2025 10:07:07 GMT-0600 (Central Standard Time),469321.6999999881,A,na,O,a,133,1,348.30000001192093,468973.39999997616,7254,WL,C,5.0
4,4.164999961853027,learn,55835.00003814697,Fri Dec 05 2025 10:07:07 GMT-0600 (Central Standard Time),469422.3000000119,A,nai,O,i,88,1,448.9000000357628,468973.39999997616,7254,WL,C,5.0
4,4.265000104904175,learn,55734.999895095825,Fri Dec 05 2025 10:07:07 GMT-0600 (Central Standard Time),469521.8000000119,A,nail,O,l,83,1,548.4000000357628,468973.39999997616,7254,WL,C,5.0
4,4.582000017166138,learn,55417.99998283386,Fri Dec 05 2025 10:07:07 GMT-0600 (Central Standard Time),469839.09999996424,A,nailenter,O,enter,304,1,865.6999999880791,468973.39999997616,7254,WL,C,5.0
4,5.416000127792358,learn,54583.99987220764,Fri Dec 05 2025 10:07:07 GMT-0600 (Central Standard Time),470672.6999999881,A,c,O,c,814,1,833.3999999761581,469839.3000000119,7254,WL,C,6.0
4,5.516000032424927,learn,54483.99996757507,Fri Dec 05 2025 10:07:07 GMT-0600 (Central Standard Time),470772.5,A,ca,O,a,81,1,933.1999999880791,469839.3000000119,7254,WL,C,6.0
4,5.5980000495910645,learn,54401.999950408936,Fri Dec 05 2025 10:07:07 GMT-0600 (Central Standard Time),470854.89999997616,A,cat,O,t,69,1,1015.5999999642372,469839.3000000119,7254,WL,C,6.0
4,5.732000112533569,learn,54267.99988746643,Fri Dec 05 2025 10:07:07 GMT-0600 (Central Standard Time),470989.3000000119,A,catt,O,t,124,1,1150.0,469839.3000000119,7254,WL,C,6.0
4,5.865000009536743,learn,54134.99999046326,Fri Dec 05 2025 10:07:07 GMT-0600 (Central Standard Time),471121.89999997616,A,cattl,O,l,112,1,1282.5999999642372,469839.3000000119,7254,WL,C,6.0
4,5.998000144958496,learn,54001.999855041504,Fri Dec 05 2025 10:07:07 GMT-0600 (Central Standard Time),471254.89999997616,A,cattle,O,e,110,1,1415.5999999642372,469839.3000000119,7254,WL,C,6.0
4,6.114000082015991,learn,53885.99991798401,Fri Dec 05 2025 10:07:07 GMT-0600 (Central Standard Time),471370.8000000119,A,cattleenter,O,enter,106,1,1531.5,469839.3000000119,7254,WL,C,6.0
4,6.682000160217285,learn,53317.999839782715,Fri Dec 05 2025 10:07:07 GMT-0600 (Central Standard Time),471938.6999999881,A,b,O,b,562,1,567.6000000238419,471371.09999996424,7254,WL,C,7.0
4,6.815000057220459,learn,53184.99994277954,Fri Dec 05 2025 10:07:07 GMT-0600 (Central Standard Time),472072.1999999881,A,bo,O,o,125,1,701.1000000238419,471371.09999996424,7254,WL,C,7.0
4,6.930999994277954,learn,53069.000005722046,Fri Dec 05 2025 10:07:07 GMT-0600 (Central Standard Time),472187.5,A,bod,O,d,106,1,816.4000000357628,471371.09999996424,7254,WL,C,7.0
4,7.04800009727478,learn,52951.99990272522,Fri Dec 05 2025 10:07:07 GMT-0600 (Central Standard Time),472305.0,A,body,O,y,96,1,933.9000000357628,471371.09999996424,7254,WL,C,7.0
4,7.215000152587891,learn,52784.99984741211,Fri Dec 05 2025 10:07:07 GMT-0600 (Central Standard Time),472471.6999999881,A,bodyenter,O,enter,149,1,1100.6000000238419,471371.09999996424,7254,WL,C,7.0
4,7.430999994277954,learn,52569.000005722046,Fri Dec 05 2025 10:07:07 GMT-0600 (Central Standard Time),472688.09999996424,A,s,O,s,203,1,216.0999999642372,472472.0,7254,WL,C,8.0
4,7.531000137329102,learn,52468.9998626709,Fri Dec 05 2025 10:07:07 GMT-0600 (Central Standard Time),472788.5,A,sh,O,h,89,1,316.5,472472.0,7254,WL,C,8.0
4,7.580000162124634,learn,52419.999837875366,Fri Dec 05 2025 10:07:07 GMT-0600 (Central Standard Time),472837.1999999881,A,sho,O,o,38,1,365.19999998807907,472472.0,7254,WL,C,8.0
4,7.697000026702881,learn,52302.99997329712,Fri Dec 05 2025 10:07:07 GMT-0600 (Central Standard Time),472954.5,A,shor,O,r,99,1,482.5,472472.0,7254,WL,C,8.0
4,7.8470001220703125,learn,52152.99987792969,Fri Dec 05 2025 10:07:07 GMT-0600 (Central Standard Time),473103.8000000119,A,short,O,t,134,1,631.8000000119209,472472.0,7254,WL,C,8.0
4,7.947999954223633,learn,52052.00004577637,Fri Dec 05 2025 10:07:07 GMT-0600 (Central Standard Time),473204.6999999881,A,shortenter,O,enter,91,1,732.6999999880791,472472.0,7254,WL,C,8.0
4,8.69700002670288,learn,51302.99997329712,Fri Dec 05 2025 10:07:07 GMT-0600 (Central Standard Time),473953.5,A,t,O,t,742,1,748.5,473205.0,7254,WL,C,9.0
4,8.916000127792358,learn,51083.99987220764,Fri Dec 05 2025 10:07:07 GMT-0600 (Central Standard Time),474172.59999996424,A,to,O,o,203,1,967.5999999642372,473205.0,7254,WL,C,9.0
4,9.015000104904175,learn,50984.999895095825,Fri Dec 05 2025 10:07:07 GMT-0600 (Central Standard Time),474271.5,A,tow,O,w,87,1,1066.5,473205.0,7254,WL,C,9.0
4,9.111999988555908,learn,50888.00001144409,Fri Dec 05 2025 10:07:07 GMT-0600 (Central Standard Time),474369.5,A,towe,O,e,82,1,1164.5,473205.0,7254,WL,C,9.0
4,9.19700002670288,learn,50802.99997329712,Fri Dec 05 2025 10:07:07 GMT-0600 (Central Standard Time),474453.6999999881,A,tower,O,r,75,1,1248.699999988079,473205.0,7254,WL,C,9.0
4,9.296000003814697,learn,50703.9999961853,Fri Dec 05 2025 10:07:07 GMT-0600 (Central Standard Time),474553.09999996424,A,towerenter,O,enter,85,1,1348.0999999642372,473205.0,7254,WL,C,9.0
4,9.531000137329102,learn,50468.9998626709,Fri Dec 05 2025 10:07:07 GMT-0600 (Central Standard Time),474787.89999997616,A,w,O,w,226,1,234.5,474553.39999997616,7254,WL,C,10.0
4,9.648000001907349,learn,50351.99999809265,Fri Dec 05 2025 10:07:07 GMT-0600 (Central Standard Time),474904.8000000119,A,wh,O,h,94,1,351.4000000357628,474553.39999997616,7254,WL,C,10.0
4,9.96399998664856,learn,50036.00001335144,Fri Dec 05 2025 10:07:07 GMT-0600 (Central Standard Time),475221.5,A,whe,O,e,298,1,668.1000000238419,474553.39999997616,7254,WL,C,10.0
4,10.081000089645386,learn,49918.999910354614,Fri Dec 05 2025 10:07:07 GMT-0600 (Central Standard Time),475338.0,A,whea,O,a,100,1,784.6000000238419,474553.39999997616,7254,WL,C,10.0
4,10.17900013923645,learn,49820.99986076355,Fri Dec 05 2025 10:07:07 GMT-0600 (Central Standard Time),475436.39999997616,A,wheat,O,t,87,1,883.0,474553.39999997616,7254,WL,C,10.0
4,10.547000169754028,learn,49452.99983024597,Fri Dec 05 2025 10:07:07 GMT-0600 (Central Standard Time),475803.8000000119,A,wheatenter,O,enter,358,1,1250.4000000357628,474553.39999997616,7254,WL,C,10.0
4,10.812000036239624,learn,49187.999963760376,Fri Dec 05 2025 10:07:07 GMT-0600 (Central Standard Time),476069.39999997616,A,q,O,q,246,1,265.30000001192093,475804.09999996424,7254,WL,C,11.0
4,10.913000106811523,learn,49086.99989318848,Fri Dec 05 2025 10:07:07 GMT-0600 (Central Standard Time),476169.89999997616,A,qu,O,u,91,1,365.80000001192093,475804.09999996424,7254,WL,C,11.0
4,11.02999997138977,learn,48970.00002861023,Fri Dec 05 2025 10:07:07 GMT-0600 (Central Standard Time),476287.09999996424,A,que,O,e,102,1,483.0,475804.09999996424,7254,WL,C,11.0
4,11.17900013923645,learn,48820.99986076355,Fri Dec 05 2025 10:07:07 GMT-0600 (Central Standard Time),476436.1999999881,A,quee,O,e,139,1,632.1000000238419,475804.09999996424,7254,WL,C,11.0
4,11.26200008392334,learn,48737.99991607666,Fri Dec 05 2025 10:07:07 GMT-0600 (Central Standard Time),476519.3000000119,A,queen,O,n,61,1,715.2000000476837,475804.09999996424,7254,WL,C,11.0
4,11.462000131607056,learn,48537.999868392944,Fri Dec 05 2025 10:07:07 GMT-0600 (Central Standard Time),476718.59999996424,A,queenenter,O,enter,180,1,914.5,475804.09999996424,7254,WL,C,11.0
4,11.580000162124634,learn,48419.999837875366,Fri Dec 05 2025 10:07:07 GMT-0600 (Central Standard Time),476837.3000000119,A,s,O,s,109,1,118.40000003576279,476718.89999997616,7254,WL,C,12.0
4,11.710999965667725,learn,48289.000034332275,Fri Dec 05 2025 10:07:07 GMT-0600 (Central Standard Time),476968.39999997616,A,su,O,u,126,1,249.5,476718.89999997616,7254,WL,C,12.0
4,11.845999956130981,learn,48154.00004386902,Fri Dec 05 2025 10:07:07 GMT-0600 (Central Standard Time),477103.3000000119,A,sug,O,g,124,1,384.4000000357628,476718.89999997616,7254,WL,C,12.0
4,12.029000043869019,learn,47970.99995613098,Fri Dec 05 2025 10:07:07 GMT-0600 (Central Standard Time),477286.0,A,suga,O,a,173,1,567.1000000238419,476718.89999997616,7254,WL,C,12.0
4,12.095999956130981,learn,47904.00004386902,Fri Dec 05 2025 10:07:07 GMT-0600 (Central Standard Time),477353.09999996424,A,sugar,O,r,53,1,634.1999999880791,476718.89999997616,7254,WL,C,12.0
4,12.595999956130981,learn,47404.00004386902,Fri Dec 05 2025 10:07:07 GMT-0600 (Central Standard Time),477853.09999996424,A,sugarenter,O,enter,481,1,1134.199999988079,476718.89999997616,7254,WL,C,12.0
4,13.162000179290771,learn,46837.99982070923,Fri Dec 05 2025 10:07:07 GMT-0600 (Central Standard Time),478418.8000000119,A,h,O,h,549,1,565.4000000357628,477853.39999997616,7254,WL,C,13.0
4,13.228000164031982,learn,46771.99983596802,Fri Dec 05 2025 10:07:07 GMT-0600 (Central Standard Time),478485.1999999881,A,ho,O,o,56,1,631.8000000119209,477853.39999997616,7254,WL,C,13.0
4,13.36300015449524,learn,46636.99984550476,Fri Dec 05 2025 10:07:07 GMT-0600 (Central Standard Time),478620.39999997616,A,hom,O,m,119,1,767.0,477853.39999997616,7254,WL,C,13.0
4,13.462000131607056,learn,46537.999868392944,Fri Dec 05 2025 10:07:07 GMT-0600 (Central Standard Time),478719.1999999881,A,home,O,e,85,1,865.8000000119209,477853.39999997616,7254,WL,C,13.0
4,13.578999996185303,learn,46421.0000038147,Fri Dec 05 2025 10:07:07 GMT-0600 (Central Standard Time),478836.1999999881,A,homeenter,O,enter,106,1,982.8000000119209,477853.39999997616,7254,WL,C,13.0
4,13.84500002861023,learn,46154.99997138977,Fri Dec 05 2025 10:07:07 GMT-0600 (Central Standard Time),479102.09999996424,A,b,O,b,246,1,265.69999998807907,478836.39999997616,7254,WL,C,14.0
4,13.946000099182129,learn,46053.99990081787,Fri Dec 05 2025 10:07:07 GMT-0600 (Central Standard Time),479204.09999996424,A,bo,O,o,91,1,367.69999998807907,478836.39999997616,7254,WL,C,14.0
4,14.111999988555908,learn,45888.00001144409,Fri Dec 05 2025 10:07:07 GMT-0600 (Central Standard Time),479369.0,A,boy,O,y,146,1,532.6000000238419,478836.39999997616,7254,WL,C,14.0
4,14.611999988555908,learn,45388.00001144409,Fri Dec 05 2025 10:07:07 GMT-0600 (Central Standard Time),479869.3000000119,A,boyenter,O,enter,481,1,1032.9000000357628,478836.39999997616,7254,WL,C,14.0
4,14.812000036239624,learn,45187.999963760376,Fri Dec 05 2025 10:07:07 GMT-0600 (Central Standard Time),480068.5,A,d,O,d,181,1,199.0,479869.5,7254,WL,C,15.0
4,14.912000179290771,learn,45087.99982070923,Fri Dec 05 2025 10:07:07 GMT-0600 (Central Standard Time),480168.5,A,do,O,o,79,1,299.0,479869.5,7254,WL,C,15.0
4,15.062000036239624,learn,44937.999963760376,Fri Dec 05 2025 10:07:07 GMT-0600 (Central Standard Time),480318.5,A,doc,O,c,136,1,449.0,479869.5,7254,WL,C,15.0
4,15.32800006866455,learn,44671.99993133545,Fri Dec 05 2025 10:07:07 GMT-0600 (Central Standard Time),480585.3000000119,A,doct,O,t,241,1,715.8000000119209,479869.5,7254,WL,C,15.0
4,15.516999959945679,learn,44483.00004005432,Fri Dec 05 2025 10:07:07 GMT-0600 (Central Standard Time),480773.89999997616,A,docto,O,o,186,1,904.3999999761581,479869.5,7254,WL,C,15.0
4,15.611000061035156,learn,44388.999938964844,Fri Dec 05 2025 10:07:07 GMT-0600 (Central Standard Time),480868.1999999881,A,doctor,O,r,85,1,998.6999999880791,479869.5,7254,WL,C,15.0
4,15.779000043869019,learn,44220.99995613098,Fri Dec 05 2025 10:07:07 GMT-0600 (Central Standard Time),481035.59999996424,A,doctorenter,O,enter,151,1,1166.0999999642372,479869.5,7254,WL,C,15.0
5,0.38299989700317383,learn,60000.0,Fri Dec 05 2025 10:07:07 GMT-0600 (Central Standard Time),546148.3000000119,A,c,O,c,368,1,382.9000000357628,545765.3999999762,7254,WL,C,1.0
5,0.48199987411499023,learn,60000.0,Fri Dec 05 2025 10:07:07 GMT-0600 (Central Standard Time),546247.3000000119,A,ca,O,a,87,1,481.9000000357628,545765.3999999762,7254,WL,C,1.0
5,0.5649998188018799,learn,60000.0,Fri Dec 05 2025 10:07:07 GMT-0600 (Central Standard Time),546330.5999999642,A,cam,O,m,66,1,565.1999999880791,545765.3999999762,7254,WL,C,1.0
5,0.6489999294281006,learn,60000.0,Fri Dec 05 2025 10:07:07 GMT-0600 (Central Standard Time),546414.0999999642,A,camp,O,p,70,1,648.6999999880791,545765.3999999762,7254,WL,C,1.0
5,1.0319998264312744,learn,60000.0,Fri Dec 05 2025 10:07:07 GMT-0600 (Central Standard Time),546798.0,A,campenter,O,enter,364,1,1032.6000000238419,545765.3999999762,7254,WL,C,1.0
5,1.2829999923706055,learn,60000.0,Fri Dec 05 2025 10:07:07 GMT-0600 (Central Standard Time),547048.5999999642,A,f,O,f,230,1,250.29999995231628,546798.3000000119,7254,WL,C,2.0
5,1.3819999694824219,learn,60000.0,Fri Dec 05 2025 10:07:07 GMT-0600 (Central Standard Time),547147.3999999762,A,fl,O,l,80,1,349.0999999642372,546798.3000000119,7254,WL,C,2.0
5,1.4819998741149902,learn,60000.0,Fri Dec 05 2025 10:07:07 GMT-0600 (Central Standard Time),547248.0,A,fla,O,a,88,1,449.69999998807907,546798.3000000119,7254,WL,C,2.0
5,1.5329999923706055,learn,60000.0,Fri Dec 05 2025 10:07:07 GMT-0600 (Central Standard Time),547298.6999999881,A,flag,O,g,42,1,500.39999997615814,546798.3000000119,7254,WL,C,2.0
5,1.7319998741149902,learn,60000.0,Fri Dec 05 2025 10:07:07 GMT-0600 (Central Standard Time),547498.0,A,flagenter,O,enter,180,1,699.6999999880791,546798.3000000119,7254,WL,C,2.0
5,1.997999906539917,learn,60000.0,Fri Dec 05 2025 10:07:07 GMT-0600 (Central Standard Time),547764.0999999642,A,l,O,l,250,1,265.89999997615814,547498.1999999881,7254,WL,C,3.0
5,2.115000009536743,learn,60000.0,Fri Dec 05 2025 10:07:07 GMT-0600 (Central Standard Time),547881.0,A,le,O,e,102,1,382.80000001192093,547498.1999999881,7254,WL,C,3.0
5,2.197999954223633,learn,60000.0,Fri Dec 05 2025 10:07:07 GMT-0600 (Central Standard Time),547963.8000000119,A,let,O,t,66,1,465.60000002384186,547498.1999999881,7254,WL,C,3.0
5,2.5149998664855957,learn,60000.0,Fri Dec 05 2025 10:07:07 GMT-0600 (Central Standard Time),548280.8999999762,A,lete,O,e,302,1,782.6999999880791,547498.1999999881,7254,WL,C,3.0
5,2.56499981880188,learn,60000.0,Fri Dec 05 2025 10:07:07 GMT-0600 (Central Standard Time),548330.3999999762,A,leter,O,r,42,1,832.1999999880791,547498.1999999881,7254,WL,C,3.0
5,2.931999921798706,learn,60000.0,Fri Dec 05 2025 10:07:07 GMT-0600 (Central Standard Time),548697.5,A,lete,O,backspace,354,1,1199.300000011921,547498.1999999881,7254,WL,C,3.0
5,3.06499981880188,learn,60000.0,Fri Dec 05 2025 10:07:07 GMT-0600 (Central Standard Time),548830.5,A,let,O,backspace,112,1,1332.300000011921,547498.1999999881,7254,WL,C,3.0
5,3.2829999923706055,learn,60000.0,Fri Dec 05 2025 10:07:07 GMT-0600 (Central Standard Time),549048.5999999642,A,lett,O,t,196,1,1550.3999999761581,547498.1999999881,7254,WL,C,3.0
5,3.4819998741149902,learn,60000.0,Fri Dec 05 2025 10:07:07 GMT-0600 (Central Standard Time),549248.0,A,lette,O,e,185,1,1749.800000011921,547498.1999999881,7254,WL,C,3.0
5,3.5309998989105225,learn,60000.0,Fri Dec 05 2025 10:07:07 GMT-0600 (Central Standard Time),549296.8000000119,A,letter,O,r,28,1,1798.6000000238419,547498.1999999881,7254,WL,C,3.0
5,3.6480000019073486,learn,60000.0,Fri Dec 05 2025 10:07:07 GMT-0600 (Central Standard Time),549413.6999999881,A,letterenter,O,enter,107,1,1915.5,547498.1999999881,7254,WL,C,3.0
5,3.9489998817443848,learn,60000.0,Fri Dec 05 2025 10:07:07 GMT-0600 (Central Standard Time),549714.1999999881,A,n,O,n,296,1,300.30000001192093,549413.8999999762,7254,WL,C,4.0
5,4.063999891281128,learn,60000.0,Fri Dec 05 2025 10:07:07 GMT-0600 (Central Standard Time),549829.6999999881,A,na,O,a,106,1,415.80000001192093,549413.8999999762,7254,WL,C,4.0
5,4.181999921798706,learn,60000.0,Fri Dec 05 2025 10:07:07 GMT-0600 (Central Standard Time),549947.5,A,nai,O,i,101,1,533.6000000238419,549413.8999999762,7254,WL,C,4.0
5,4.263999938964844,learn,60000.0,Fri Dec 05 2025 10:07:07 GMT-0600 (Central Standard Time),550030.0999999642,A,nail,O,l,67,1,616.1999999880791,549413.8999999762,7254,WL,C,4.0
5,4.597999811172485,learn,60000.0,Fri Dec 05 2025 10:07:07 GMT-0600 (Central Standard Time),550363.6999999881,A,nailenter,O,enter,324,1,949.8000000119209,549413.8999999762,7254,WL,C,4.0
5,5.619999885559082,learn,60000.0,Fri Dec 05 2025 10:07:07 GMT-0600 (Central Standard Time),551385.3999999762,A,c,O,c,999,1,1021.3999999761581,550364.0,7254,WL,C,5.0
5,5.7799999713897705,learn,60000.0,Fri Dec 05 2025 10:07:07 GMT-0600 (Central Standard Time),551545.5,A,co,O,o,154,1,1181.5,550364.0,7254,WL,C,5.0
5,5.88100004196167,learn,60000.0,Fri Dec 05 2025 10:07:07 GMT-0600 (Central Standard Time),551646.5,A,cor,O,r,89,1,1282.5,550364.0,7254,WL,C,5.0
5,5.995999813079834,learn,60000.0,Fri Dec 05 2025 10:07:07 GMT-0600 (Central Standard Time),551762.0,A,corn,O,n,107,1,1398.0,550364.0,7254,WL,C,5.0
5,6.180999994277954,learn,60000.0,Fri Dec 05 2025 10:07:07 GMT-0600 (Central Standard Time),551946.3999999762,A,cornenter,O,enter,162,1,1582.3999999761581,550364.0,7254,WL,C,5.0
5,6.31499981880188,learn,60000.0,Fri Dec 05 2025 10:07:07 GMT-0600 (Central Standard Time),552080.1999999881,A,c,O,c,112,1,133.60000002384186,551946.5999999642,7254,WL,C,6.0
5,6.414000034332275,learn,60000.0,Fri Dec 05 2025 10:07:07 GMT-0600 (Central Standard Time),552179.8000000119,A,ca,O,a,90,1,233.20000004768372,551946.5999999642,7254,WL,C,6.0
5,6.5309998989105225,learn,60000.0,Fri Dec 05 2025 10:07:07 GMT-0600 (Central Standard Time),552297.0,A,cat,O,t,101,1,350.4000000357628,551946.5999999642,7254,WL,C,6.0
5,6.662999868392944,learn,60000.0,Fri Dec 05 2025 10:07:07 GMT-0600 (Central Standard Time),552428.0999999642,A,catt,O,t,112,1,481.5,551946.5999999642,7254,WL,C,6.0
5,6.730999946594238,learn,60000.0,Fri Dec 05 2025 10:07:07 GMT-0600 (Central Standard Time),552496.1999999881,A,cattl,O,l,62,1,549.6000000238419,551946.5999999642,7254,WL,C,6.0
5,6.846999883651733,learn,60000.0,Fri Dec 05 2025 10:07:07 GMT-0600 (Central Standard Time),552612.3999999762,A,cattle,O,e,106,1,665.8000000119209,551946.5999999642,7254,WL,C,6.0
5,6.947000026702881,learn,60000.0,Fri Dec 05 2025 10:07:07 GMT-0600 (Central Standard Time),552712.0999999642,A,cattleenter,O,enter,80,1,765.5,551946.5999999642,7254,WL,C,6.0
5,7.19599986076355,learn,60000.0,Fri Dec 05 2025 10:07:07 GMT-0600 (Central Standard Time),552962.0999999642,A,b,O,b,235,1,249.69999998807907,552712.3999999762,7254,WL,C,7.0
5,7.296000003814697,learn,60000.0,Fri Dec 05 2025 10:07:07 GMT-0600 (Central Standard Time),553062.0,A,bo,O,o,86,1,349.60000002384186,552712.3999999762,7254,WL,C,7.0
5,7.497999906539917,learn,60000.0,Fri Dec 05 2025 10:07:07 GMT-0600 (Central Standard Time),553263.5999999642,A,boy,O,y,181,1,551.1999999880791,552712.3999999762,7254,WL,C,7.0
5,7.662999868392944,learn,60000.0,Fri Dec 05 2025 10:07:07 GMT-0600 (Central Standard Time),553428.6999999881,A,boyenter,O,enter,153,1,716.3000000119209,552712.3999999762,7254,WL,C,7.0
5,7.879999876022339,learn,60000.0,Fri Dec 05 2025 10:07:07 GMT-0600 (Central Standard Time),553646.0,A,s,O,s,198,1,217.10000002384186,553428.8999999762,7254,WL,C,8.0
5,7.98199987411499,learn,60000.0,Fri Dec 05 2025 10:07:07 GMT-0600 (Central Standard Time),553747.1999999881,A,sh,O,h,97,1,318.30000001192093,553428.8999999762,7254,WL,C,8.0
5,8.046000003814697,learn,60000.0,Fri Dec 05 2025 10:07:07 GMT-0600 (Central Standard Time),553811.0999999642,A,sho,O,o,47,1,382.19999998807907,553428.8999999762,7254,WL,C,8.0
5,8.128999948501587,learn,60000.0,Fri Dec 05 2025 10:07:07 GMT-0600 (Central Standard Time),553894.8000000119,A,shor,O,r,72,1,465.9000000357628,553428.8999999762,7254,WL,C,8.0
5,8.29699993133545,learn,60000.0,Fri Dec 05 2025 10:07:07 GMT-0600 (Central Standard Time),554062.3999999762,A,short,O,t,145,1,633.5,553428.8999999762,7254,WL,C,8.0
5,8.44700002670288,learn,60000.0,Fri Dec 05 2025 10:07:07 GMT-0600 (Central Standard Time),554212.5,A,shortenter,O,enter,140,1,783.6000000238419,553428.8999999762,7254,WL,C,8.0
5,11.895999908447266,learn,60000.0,Fri Dec 05 2025 10:07:07 GMT-0600 (Central Standard Time),557661.8999999762,A,w,O,w,3438,1,3449.099999964237,554212.8000000119,7254,WL,C,9.0
5,11.960999965667725,learn,60000.0,Fri Dec 05 2025 10:07:07 GMT-0600 (Central Standard Time),557726.5999999642,A,wh,O,h,50,1,3513.7999999523163,554212.8000000119,7254,WL,C,9.0
5,12.027999877929688,learn,60000.0,Fri Dec 05 2025 10:07:07 GMT-0600 (Central Standard Time),557793.5999999642,A,whe,O,e,52,1,3580.7999999523163,554212.8000000119,7254,WL,C,9.0
5,12.178999900817871,learn,60000.0,Fri Dec 05 2025 10:07:07 GMT-0600 (Central Standard Time),557944.6999999881,A,whea,O,a,135,1,3731.899999976158,554212.8000000119,7254,WL,C,9.0
5,12.279000043869019,learn,60000.0,Fri Dec 05 2025 10:07:07 GMT-0600 (Central Standard Time),558044.3000000119,A,wheat,O,t,80,1,3831.5,554212.8000000119,7254,WL,C,9.0
5,12.577999830245972,learn,60000.0,Fri Dec 05 2025 10:07:07 GMT-0600 (Central Standard Time),558343.3000000119,A,wheatenter,O,enter,286,1,4130.5,554212.8000000119,7254,WL,C,9.0
5,13.328999996185303,learn,60000.0,Fri Dec 05 2025 10:07:07 GMT-0600 (Central Standard Time),559095.1999999881,A,q,O,q,741,1,751.6999999880791,558343.5,7254,WL,C,10.0
5,13.444999933242798,learn,60000.0,Fri Dec 05 2025 10:07:07 GMT-0600 (Central Standard Time),559210.3999999762,A,qu,O,u,100,1,866.8999999761581,558343.5,7254,WL,C,10.0
5,13.527999877929688,learn,60000.0,Fri Dec 05 2025 10:07:07 GMT-0600 (Central Standard Time),559293.8999999762,A,que,O,e,71,1,950.3999999761581,558343.5,7254,WL,C,10.0
5,13.678999900817871,learn,60000.0,Fri Dec 05 2025 10:07:07 GMT-0600 (Central Standard Time),559444.6999999881,A,quee,O,e,140,1,1101.199999988079,558343.5,7254,WL,C,10.0
5,13.777999877929688,learn,60000.0,Fri Dec 05 2025 10:07:07 GMT-0600 (Central Standard Time),559543.8000000119,A,queen,O,n,85,1,1200.300000011921,558343.5,7254,WL,C,10.0
5,14.260999917984009,learn,60000.0,Fri Dec 05 2025 10:07:07 GMT-0600 (Central Standard Time),560026.6999999881,A,queenenter,O,enter,466,1,1683.199999988079,558343.5,7254,WL,C,10.0
5,14.51199984550476,learn,60000.0,Fri Dec 05 2025 10:07:07 GMT-0600 (Central Standard Time),560277.8000000119,A,t,O,t,241,1,250.80000001192093,560027.0,7254,WL,C,11.0
5,14.57699990272522,learn,60000.0,Fri Dec 05 2025 10:07:07 GMT-0600 (Central Standard Time),560342.8999999762,A,to,O,o,53,1,315.89999997615814,560027.0,7254,WL,C,11.0
5,14.694000005722046,learn,60000.0,Fri Dec 05 2025 10:07:07 GMT-0600 (Central Standard Time),560459.8000000119,A,tow,O,w,100,1,432.80000001192093,560027.0,7254,WL,C,11.0
5,14.74399995803833,learn,60000.0,Fri Dec 05 2025 10:07:07 GMT-0600 (Central Standard Time),560509.3999999762,A,towe,O,e,37,1,482.39999997615814,560027.0,7254,WL,C,11.0
5,14.812000036239624,learn,60000.0,Fri Dec 05 2025 10:07:07 GMT-0600 (Central Standard Time),560577.1999999881,A,tower,O,r,54,1,550.1999999880791,560027.0,7254,WL,C,11.0
5,15.029000043869019,learn,60000.0,Fri Dec 05 2025 10:07:07 GMT-0600 (Central Standard Time),560794.8000000119,A,towerenter,O,enter,204,1,767.8000000119209,560027.0,7254,WL,C,11.0
5,16.293999910354614,learn,60000.0,Fri Dec 05 2025 10:07:07 GMT-0600 (Central Standard Time),562059.8000000119,A,s,O,s,1250,1,1264.800000011921,560795.0,7254,WL,C,12.0
5,16.40999984741211,learn,60000.0,Fri Dec 05 2025 10:07:07 GMT-0600 (Central Standard Time),562176.0999999642,A,su,O,u,98,1,1381.0999999642372,560795.0,7254,WL,C,12.0
5,16.49399995803833,learn,60000.0,Fri Dec 05 2025 10:07:07 GMT-0600 (Central Standard Time),562260.0999999642,A,sug,O,g,66,1,1465.0999999642372,560795.0,7254,WL,C,12.0
5,16.643999814987183,learn,60000.0,Fri Dec 05 2025 10:07:07 GMT-0600 (Central Standard Time),562409.3999999762,A,suga,O,a,134,1,1614.3999999761581,560795.0,7254,WL,C,12.0
5,16.710000038146973,learn,60000.0,Fri Dec 05 2025 10:07:07 GMT-0600 (Central Standard Time),562475.3000000119,A,sugar,O,r,55,1,1680.300000011921,560795.0,7254,WL,C,12.0
5,16.92799997329712,learn,60000.0,Fri Dec 05 2025 10:07:07 GMT-0600 (Central Standard Time),562693.1999999881,A,sugarenter,O,enter,199,1,1898.199999988079,560795.0,7254,WL,C,12.0
5,17.126999855041504,learn,60000.0,Fri Dec 05 2025 10:07:07 GMT-0600 (Central Standard Time),562892.5999999642,A,h,O,h,190,1,199.19999998807907,562693.3999999762,7254,WL,C,13.0
5,17.312000036239624,learn,60000.0,Fri Dec 05 2025 10:07:07 GMT-0600 (Central Standard Time),563077.3999999762,A,ho,O,o,166,1,384.0,562693.3999999762,7254,WL,C,13.0
5,17.375999927520752,learn,60000.0,Fri Dec 05 2025 10:07:07 GMT-0600 (Central Standard Time),563141.8999999762,A,hom,O,m,53,1,448.5,562693.3999999762,7254,WL,C,13.0
5,17.493000030517578,learn,60000.0,Fri Dec 05 2025 10:07:07 GMT-0600 (Central Standard Time),563258.6999999881,A,home,O,e,109,1,565.3000000119209,562693.3999999762,7254,WL,C,13.0
5,17.859999895095825,learn,60000.0,Fri Dec 05 2025 10:07:07 GMT-0600 (Central Standard Time),563626.0999999642,A,homeenter,O,enter,362,1,932.6999999880791,562693.3999999762,7254,WL,C,13.0
5,18.05999994277954,learn,60000.0,Fri Dec 05 2025 10:07:07 GMT-0600 (Central Standard Time),563825.3999999762,A,b,O,b,192,1,199.0999999642372,563626.3000000119,7254,WL,C,14.0
5,18.175999879837036,learn,60000.0,Fri Dec 05 2025 10:07:07 GMT-0600 (Central Standard Time),563941.6999999881,A,bo,O,o,107,1,315.39999997615814,563626.3000000119,7254,WL,C,14.0
5,18.359999895095825,learn,60000.0,Fri Dec 05 2025 10:07:07 GMT-0600 (Central Standard Time),564126.5999999642,A,boy,O,y,164,1,500.2999999523163,563626.3000000119,7254,WL,C,14.0
5,18.609999895095825,learn,60000.0,Fri Dec 05 2025 10:07:07 GMT-0600 (Central Standard Time),564376.5999999642,A,boyenter,O,enter,235,1,750.2999999523163,563626.3000000119,7254,WL,C,14.0
5,18.875999927520752,learn,60000.0,Fri Dec 05 2025 10:07:07 GMT-0600 (Central Standard Time),564642.0,A,d,O,d,261,1,265.0,564377.0,7254,WL,C,15.0
5,18.97599983215332,learn,60000.0,Fri Dec 05 2025 10:07:07 GMT-0600 (Central Standard Time),564742.1999999881,A,do,O,o,80,1,365.19999998807907,564377.0,7254,WL,C,15.0
5,19.075999975204468,learn,60000.0,Fri Dec 05 2025 10:07:07 GMT-0600 (Central Standard Time),564842.1999999881,A,doc,O,c,94,1,465.19999998807907,564377.0,7254,WL,C,15.0
5,19.243000030517578,learn,60000.0,Fri Dec 05 2025 10:07:07 GMT-0600 (Central Standard Time),565008.8000000119,A,doct,O,t,146,1,631.8000000119209,564377.0,7254,WL,C,15.0
5,19.342000007629395,learn,60000.0,Fri Dec 05 2025 10:07:07 GMT-0600 (Central Standard Time),565108.3000000119,A,docto,O,o,80,1,731.3000000119209,564377.0,7254,WL,C,15.0
5,19.441999912261963,learn,60000.0,Fri Dec 05 2025 10:07:07 GMT-0600 (Central Standard Time),565207.8999999762,A,doctor,O,r,84,1,830.8999999761581,564377.0,7254,WL,C,15.0
5,19.743000030517578,learn,60000.0,Fri Dec 05 2025 10:07:07 GMT-0600 (Central Standard Time),565509.5999999642,A,doctorenter,O,enter,291,1,1132.5999999642372,564377.0,7254,WL,C,15.0
6,0.5840001106262207,distr,59415.99988937378,Fri Dec 05 2025 10:07:07 GMT-0600 (Central Standard Time),642751.0999999642,B,w,O,w,571,1,583.8999999761581,642167.1999999881,7254,WL,C,1.0
6,0.6840000152587891,distr,59315.99998474121,Fri Dec 05 2025 10:07:07 GMT-0600 (Central Standard Time),642850.5,B,wh,O,h,80,1,683.3000000119209,642167.1999999881,7254,WL,C,1.0
6,0.8830001354217529,distr,59116.99986457825,Fri Dec 05 2025 10:07:07 GMT-0600 (Central Standard Time),643050.0999999642,B,why,O,y,192,1,882.8999999761581,642167.1999999881,7254,WL,C,1.0
6,1.3340001106262207,distr,58665.99988937378,Fri Dec 05 2025 10:07:07 GMT-0600 (Central Standard Time),643500.5,B,wh,O,backspace,442,1,1333.300000011921,642167.1999999881,7254,WL,C,1.0
6,1.5169999599456787,distr,58483.00004005432,Fri Dec 05 2025 10:07:07 GMT-0600 (Central Standard Time),643683.6999999881,B,w,O,backspace,168,1,1516.5,642167.1999999881,7254,WL,C,1.0
6,1.6670000553131104,distr,58332.99994468689,Fri Dec 05 2025 10:07:07 GMT-0600 (Central Standard Time),643833.3000000119,B,,O,backspace,130,1,1666.1000000238419,642167.1999999881,7254,WL,C,1.0
6,1.8010001182556152,distr,58198.999881744385,Fri Dec 05 2025 10:07:07 GMT-0600 (Central Standard Time),643967.5,B,s,O,s,114,1,1800.300000011921,642167.1999999881,7254,WL,C,1.0
6,1.8670001029968262,distr,58132.999897003174,Fri Dec 05 2025 10:07:07 GMT-0600 (Central Standard Time),644033.5999999642,B,sk,O,k,60,1,1866.3999999761581,642167.1999999881,7254,WL,C,1.0
6,2.067000150680542,distr,57932.99984931946,Fri Dec 05 2025 10:07:07 GMT-0600 (Central Standard Time),644233.3999999762,B,sky,O,y,179,1,2066.199999988079,642167.1999999881,7254,WL,C,1.0
6,2.617000102996826,distr,57382.999897003174,Fri Dec 05 2025 10:07:07 GMT-0600 (Central Standard Time),644783.5,B,skyenter,O,enter,531,1,2616.300000011921,642167.1999999881,7254,WL,C,1.0
6,2.9040000438690186,distr,57095.99995613098,Fri Dec 05 2025 10:07:07 GMT-0600 (Central Standard Time),645070.6999999881,B,d,O,d,277,1,287.0,644783.6999999881,7254,WL,C,2.0
6,3.0,distr,57000.0,Fri Dec 05 2025 10:07:07 GMT-0600 (Central Standard Time),645166.3000000119,B,do,O,o,86,1,382.60000002384186,644783.6999999881,7254,WL,C,2.0
6,3.184000015258789,distr,56815.99998474121,Fri Dec 05 2025 10:07:07 GMT-0600 (Central Standard Time),645350.3999999762,B,dol,O,l,163,1,566.6999999880791,644783.6999999881,7254,WL,C,2.0
6,3.3320000171661377,distr,56667.99998283386,Fri Dec 05 2025 10:07:07 GMT-0600 (Central Standard Time),645498.5999999642,B,doll,O,l,138,1,714.8999999761581,644783.6999999881,7254,WL,C,2.0
6,3.383000135421753,distr,56616.99986457825,Fri Dec 05 2025 10:07:07 GMT-0600 (Central Standard Time),645549.3000000119,B,dolla,O,a,41,1,765.6000000238419,644783.6999999881,7254,WL,C,2.0
6,3.4670000076293945,distr,56532.999992370605,Fri Dec 05 2025 10:07:07 GMT-0600 (Central Standard Time),645633.5999999642,B,dollar,O,r,65,1,849.8999999761581,644783.6999999881,7254,WL,C,2.0
6,3.615000009536743,distr,56384.99999046326,Fri Dec 05 2025 10:07:07 GMT-0600 (Central Standard Time),645781.8000000119,B,dollarenter,O,enter,125,1,998.1000000238419,644783.6999999881,7254,WL,C,2.0
6,3.884000062942505,distr,56115.999937057495,Fri Dec 05 2025 10:07:07 GMT-0600 (Central Standard Time),646050.5999999642,B,v,O,v,265,1,268.5999999642372,645782.0,7254,WL,C,3.0
6,4.0,distr,56000.0,Fri Dec 05 2025 10:07:07 GMT-0600 (Central Standard Time),646166.5,B,va,O,a,96,1,384.5,645782.0,7254,WL,C,3.0
6,4.1000001430511475,distr,55899.99985694885,Fri Dec 05 2025 10:07:07 GMT-0600 (Central Standard Time),646266.3000000119,B,val,O,l,95,1,484.30000001192093,645782.0,7254,WL,C,3.0
6,4.266000032424927,distr,55733.99996757507,Fri Dec 05 2025 10:07:07 GMT-0600 (Central Standard Time),646432.3999999762,B,vall,O,l,145,1,650.3999999761581,645782.0,7254,WL,C,3.0
6,4.332000017166138,distr,55667.99998283386,Fri Dec 05 2025 10:07:07 GMT-0600 (Central Standard Time),646499.0999999642,B,valle,O,e,59,1,717.0999999642372,645782.0,7254,WL,C,3.0
6,4.466000080108643,distr,55533.99991989136,Fri Dec 05 2025 10:07:07 GMT-0600 (Central Standard Time),646632.5,B,valley,O,y,112,1,850.5,645782.0,7254,WL,C,3.0
6,4.664999961853027,distr,55335.00003814697,Fri Dec 05 2025 10:07:07 GMT-0600 (Central Standard Time),646832.0999999642,B,valleyenter,O,enter,178,1,1050.0999999642372,645782.0,7254,WL,C,3.0
6,6.0320000648498535,distr,53967.99993515015,Fri Dec 05 2025 10:07:07 GMT-0600 (Central Standard Time),648198.8000000119,B,b,O,b,1355,1,1366.5,646832.3000000119,7254,WL,C,4.0
6,6.131999969482422,distr,53868.00003051758,Fri Dec 05 2025 10:07:07 GMT-0600 (Central Standard Time),648299.0,B,bu,O,u,83,1,1466.699999988079,646832.3000000119,7254,WL,C,4.0
6,6.266000032424927,distr,53733.99996757507,Fri Dec 05 2025 10:07:07 GMT-0600 (Central Standard Time),648432.3999999762,B,but,O,t,110,1,1600.0999999642372,646832.3000000119,7254,WL,C,4.0
6,6.39900016784668,distr,53600.99983215332,Fri Dec 05 2025 10:07:07 GMT-0600 (Central Standard Time),648565.5999999642,B,butt,O,t,123,1,1733.2999999523163,646832.3000000119,7254,WL,C,4.0
6,6.5320000648498535,distr,53467.99993515015,Fri Dec 05 2025 10:07:07 GMT-0600 (Central Standard Time),648698.8999999762,B,butte,O,e,126,1,1866.5999999642372,646832.3000000119,7254,WL,C,4.0
6,6.615000009536743,distr,53384.99999046326,Fri Dec 05 2025 10:07:07 GMT-0600 (Central Standard Time),648782.0999999642,B,butter,O,r,63,1,1949.7999999523163,646832.3000000119,7254,WL,C,4.0
6,6.884000062942505,distr,53115.999937057495,Fri Dec 05 2025 10:07:07 GMT-0600 (Central Standard Time),649050.5,B,butterenter,O,enter,246,1,2218.199999988079,646832.3000000119,7254,WL,C,4.0
6,11.597000122070312,distr,48402.99987792969,Fri Dec 05 2025 10:07:07 GMT-0600 (Central Standard Time),653764.3000000119,B,f,O,f,4705,1,4713.700000047684,649050.5999999642,7254,WL,C,5.0
6,12.062999963760376,distr,47937.000036239624,Fri Dec 05 2025 10:07:07 GMT-0600 (Central Standard Time),654230.0999999642,B,fo,O,o,454,1,5179.5,649050.5999999642,7254,WL,C,5.0
6,12.130000114440918,distr,47869.99988555908,Fri Dec 05 2025 10:07:07 GMT-0600 (Central Standard Time),654297.1999999881,B,for,O,r,47,1,5246.600000023842,649050.5999999642,7254,WL,C,5.0
6,12.180000066757202,distr,47819.9999332428,Fri Dec 05 2025 10:07:07 GMT-0600 (Central Standard Time),654346.3000000119,B,fore,O,e,34,1,5295.700000047684,649050.5999999642,7254,WL,C,5.0
6,12.36300015449524,distr,47636.99984550476,Fri Dec 05 2025 10:07:07 GMT-0600 (Central Standard Time),654530.1999999881,B,fores,O,s,164,1,5479.600000023842,649050.5999999642,7254,WL,C,5.0
6,12.44700002670288,distr,47552.99997329712,Fri Dec 05 2025 10:07:07 GMT-0600 (Central Standard Time),654613.8999999762,B,forest,O,t,73,1,5563.300000011921,649050.5999999642,7254,WL,C,5.0
6,12.597000122070312,distr,47402.99987792969,Fri Dec 05 2025 10:07:07 GMT-0600 (Central Standard Time),654763.5999999642,B,forestenter,O,enter,141,1,5713.0,649050.5999999642,7254,WL,C,5.0
6,12.88100004196167,distr,47118.99995803833,Fri Dec 05 2025 10:07:07 GMT-0600 (Central Standard Time),655047.3999999762,B,m,O,m,271,1,283.5999999642372,654763.8000000119,7254,WL,C,6.0
6,12.94700002670288,distr,47052.99997329712,Fri Dec 05 2025 10:07:07 GMT-0600 (Central Standard Time),655113.5999999642,B,me,O,e,50,1,349.7999999523163,654763.8000000119,7254,WL,C,6.0
6,13.046000003814697,distr,46953.9999961853,Fri Dec 05 2025 10:07:07 GMT-0600 (Central Standard Time),655212.8000000119,B,mea,O,a,90,1,449.0,654763.8000000119,7254,WL,C,6.0
6,13.130000114440918,distr,46869.99988555908,Fri Dec 05 2025 10:07:07 GMT-0600 (Central Standard Time),655296.3000000119,B,meat,O,t,70,1,532.5,654763.8000000119,7254,WL,C,6.0
6,13.246999979019165,distr,46753.000020980835,Fri Dec 05 2025 10:07:07 GMT-0600 (Central Standard Time),655413.3000000119,B,meatenter,O,enter,98,1,649.5,654763.8000000119,7254,WL,C,6.0
6,15.828999996185303,distr,44171.0000038147,Fri Dec 05 2025 10:07:07 GMT-0600 (Central Standard Time),657995.5999999642,B,m,O,m,2565,1,2582.0,655413.5999999642,7254,WL,C,7.0
6,15.879000186920166,distr,44120.999813079834,Fri Dec 05 2025 10:07:07 GMT-0600 (Central Standard Time),658045.5,B,mo,O,o,40,1,2631.900000035763,655413.5999999642,7254,WL,C,7.0
6,15.99399995803833,distr,44006.00004196167,Fri Dec 05 2025 10:07:07 GMT-0600 (Central Standard Time),658160.8999999762,B,mon,O,n,102,1,2747.300000011921,655413.5999999642,7254,WL,C,7.0
6,16.078999996185303,distr,43921.0000038147,Fri Dec 05 2025 10:07:07 GMT-0600 (Central Standard Time),658245.3000000119,B,mone,O,e,75,1,2831.7000000476837,655413.5999999642,7254,WL,C,7.0
6,16.195000171661377,distr,43804.99982833862,Fri Dec 05 2025 10:07:07 GMT-0600 (Central Standard Time),658361.6999999881,B,money,O,y,102,1,2948.100000023842,655413.5999999642,7254,WL,C,7.0
6,16.41200017929077,distr,43587.99982070923,Fri Dec 05 2025 10:07:07 GMT-0600 (Central Standard Time),658578.8000000119,B,moneyenter,O,enter,210,1,3165.2000000476837,655413.5999999642,7254,WL,C,7.0
6,17.146000146865845,distr,42853.999853134155,Fri Dec 05 2025 10:07:07 GMT-0600 (Central Standard Time),659312.3999999762,B,c,O,c,729,1,733.3999999761581,658579.0,7254,WL,C,8.0
6,17.26200008392334,distr,42737.99991607666,Fri Dec 05 2025 10:07:07 GMT-0600 (Central Standard Time),659428.3000000119,B,ch,O,h,110,1,849.3000000119209,658579.0,7254,WL,C,8.0
6,17.365000009536743,distr,42634.99999046326,Fri Dec 05 2025 10:07:07 GMT-0600 (Central Standard Time),659531.3000000119,B,chr,O,r,78,1,952.3000000119209,658579.0,7254,WL,C,8.0
6,17.462000131607056,distr,42537.999868392944,Fri Dec 05 2025 10:07:07 GMT-0600 (Central Standard Time),659628.8999999762,B,chri,O,i,79,1,1049.8999999761581,658579.0,7254,WL,C,8.0
6,17.545000076293945,distr,42454.999923706055,Fri Dec 05 2025 10:07:07 GMT-0600 (Central Standard Time),659711.3000000119,B,chris,O,s,68,1,1132.300000011921,658579.0,7254,WL,C,8.0
6,17.644999980926514,distr,42355.000019073486,Fri Dec 05 2025 10:07:07 GMT-0600 (Central Standard Time),659812.0,B,christ,O,t,83,1,1233.0,658579.0,7254,WL,C,8.0
6,17.880000114440918,distr,42119.99988555908,Fri Dec 05 2025 10:07:07 GMT-0600 (Central Standard Time),660046.5999999642,B,christm,O,m,216,1,1467.5999999642372,658579.0,7254,WL,C,8.0
6,17.996000051498413,distr,42003.99994850159,Fri Dec 05 2025 10:07:07 GMT-0600 (Central Standard Time),660162.3000000119,B,christma,O,a,108,1,1583.300000011921,658579.0,7254,WL,C,8.0
6,18.128000020980835,distr,41871.999979019165,Fri Dec 05 2025 10:07:07 GMT-0600 (Central Standard Time),660295.0999999642,B,christmas,O,s,121,1,1716.0999999642372,658579.0,7254,WL,C,8.0
6,18.42799997329712,distr,41572.00002670288,Fri Dec 05 2025 10:07:07 GMT-0600 (Central Standard Time),660595.0,B,christmasenter,O,enter,283,1,2016.0,658579.0,7254,WL,C,8.0
6,24.825999975204468,distr,35174.00002479553,Fri Dec 05 2025 10:07:07 GMT-0600 (Central Standard Time),666992.8999999762,B,v,O,v,6384,1,6397.5,660595.3999999762,7254,WL,C,9.0
6,24.909000158309937,distr,35090.99984169006,Fri Dec 05 2025 10:07:07 GMT-0600 (Central Standard Time),667076.0,B,va,O,a,65,1,6480.600000023842,660595.3999999762,7254,WL,C,9.0
6,25.044000148773193,distr,34955.99985122681,Fri Dec 05 2025 10:07:07 GMT-0600 (Central Standard Time),667210.3999999762,B,val,O,l,128,1,6615.0,660595.3999999762,7254,WL,C,9.0
6,25.243000030517578,distr,34756.99996948242,Fri Dec 05 2025 10:07:07 GMT-0600 (Central Standard Time),667409.3999999762,B,vall,O,l,177,1,6814.0,660595.3999999762,7254,WL,C,9.0
6,25.308000087738037,distr,34691.99991226196,Fri Dec 05 2025 10:07:07 GMT-0600 (Central Standard Time),667475.0,B,valle,O,e,58,1,6879.600000023842,660595.3999999762,7254,WL,C,9.0
6,25.443000078201294,distr,34556.999921798706,Fri Dec 05 2025 10:07:07 GMT-0600 (Central Standard Time),667609.8000000119,B,valley,O,y,118,1,7014.400000035763,660595.3999999762,7254,WL,C,9.0
6,25.611999988555908,distr,34388.00001144409,Fri Dec 05 2025 10:07:07 GMT-0600 (Central Standard Time),667779.0999999642,B,valleyenter,O,enter,152,1,7183.699999988079,660595.3999999762,7254,WL,C,9.0
6,31.35700011253357,distr,28642.99988746643,Fri Dec 05 2025 10:07:07 GMT-0600 (Central Standard Time),673524.1999999881,B,h,O,h,5729,1,5744.899999976158,667779.3000000119,7254,WL,C,10.0
6,31.424000024795532,distr,28575.999975204468,Fri Dec 05 2025 10:07:07 GMT-0600 (Central Standard Time),673591.0,B,ha,O,a,53,1,5811.699999988079,667779.3000000119,7254,WL,C,10.0
6,31.558000087738037,distr,28441.999912261963,Fri Dec 05 2025 10:07:07 GMT-0600 (Central Standard Time),673724.5999999642,B,hal,O,l,116,1,5945.299999952316,667779.3000000119,7254,WL,C,10.0
6,31.70900011062622,distr,28290.99988937378,Fri Dec 05 2025 10:07:07 GMT-0600 (Central Standard Time),673875.3000000119,B,hall,O,l,131,1,6096.0,667779.3000000119,7254,WL,C,10.0
6,31.924000024795532,distr,28075.999975204468,Fri Dec 05 2025 10:07:07 GMT-0600 (Central Standard Time),674090.6999999881,B,hallenter,O,enter,200,1,6311.399999976158,667779.3000000119,7254,WL,C,10.0
6,33.67400002479553,distr,26325.999975204468,Fri Dec 05 2025 10:07:07 GMT-0600 (Central Standard Time),675840.3999999762,B,enter,O,enter,1727,1,1749.3999999761581,674091.0,7254,WL,C,11.0
6,33.907999992370605,distr,26092.000007629395,Fri Dec 05 2025 10:07:07 GMT-0600 (Central Standard Time),676074.5,B,enter,O,enter,220,1,233.80000001192093,675840.6999999881,7254,WL,C,12.0
6,34.09000015258789,distr,25909.99984741211,Fri Dec 05 2025 10:07:07 GMT-0600 (Central Standard Time),676256.1999999881,B,enter,O,enter,178,1,181.39999997615814,676074.8000000119,7254,WL,C,13.0
6,34.305999994277954,distr,25694.000005722046,Fri Dec 05 2025 10:07:07 GMT-0600 (Central Standard Time),676473.0,B,enter,O,enter,213,1,216.5,676256.5,7254,WL,C,14.0
6,34.75600004196167,distr,25243.99995803833,Fri Dec 05 2025 10:07:07 GMT-0600 (Central Standard Time),676922.8000000119,B,enter,O,enter,442,1,449.60000002384186,676473.1999999881,7254,WL,C,15.0
7,1.4509999752044678,immed,58549.00002479553,Fri Dec 05 2025 10:07:07 GMT-0600 (Central Standard Time),687303.0999999642,A,t,O,t,1441,1,1450.5,685852.5999999642,7254,WL,C,1.0
7,1.6509997844696045,immed,58349.000215530396,Fri Dec 05 2025 10:07:07 GMT-0600 (Central Standard Time),687503.3000000119,A,to,O,o,190,1,1650.7000000476837,685852.5999999642,7254,WL,C,1.0
7,1.801999807357788,immed,58198.00019264221,Fri Dec 05 2025 10:07:07 GMT-0600 (Central Standard Time),687654.0,A,tow,O,w,140,1,1801.4000000357628,685852.5999999642,7254,WL,C,1.0
7,1.8659999370574951,immed,58134.000062942505,Fri Dec 05 2025 10:07:07 GMT-0600 (Central Standard Time),687718.8000000119,A,towe,O,e,52,1,1866.2000000476837,685852.5999999642,7254,WL,C,1.0
7,1.9679999351501465,immed,58032.00006484985,Fri Dec 05 2025 10:07:07 GMT-0600 (Central Standard Time),687819.8000000119,A,tower,O,r,84,1,1967.2000000476837,685852.5999999642,7254,WL,C,1.0
7,2.4679999351501465,immed,57532.00006484985,Fri Dec 05 2025 10:07:07 GMT-0600 (Central Standard Time),688319.8999999762,A,towerenter,O,enter,487,1,2467.300000011921,685852.5999999642,7254,WL,C,1.0
7,2.7179999351501465,immed,57282.00006484985,Fri Dec 05 2025 10:07:07 GMT-0600 (Central Standard Time),688570.6999999881,A,w,O,w,246,1,250.60000002384186,688320.0999999642,7254,WL,C,2.0
7,2.8499999046325684,immed,57150.00009536743,Fri Dec 05 2025 10:07:07 GMT-0600 (Central Standard Time),688702.3999999762,A,wh,O,h,119,1,382.30000001192093,688320.0999999642,7254,WL,C,2.0
7,2.8999998569488525,immed,57100.00014305115,Fri Dec 05 2025 10:07:07 GMT-0600 (Central Standard Time),688752.3999999762,A,whe,O,e,30,1,432.30000001192093,688320.0999999642,7254,WL,C,2.0
7,2.9819998741149902,immed,57018.00012588501,Fri Dec 05 2025 10:07:07 GMT-0600 (Central Standard Time),688834.8000000119,A,whea,O,a,75,1,514.7000000476837,688320.0999999642,7254,WL,C,2.0
7,3.133999824523926,immed,56866.000175476074,Fri Dec 05 2025 10:07:07 GMT-0600 (Central Standard Time),688986.3999999762,A,wheat,O,t,148,1,666.3000000119209,688320.0999999642,7254,WL,C,2.0
7,3.5839998722076416,immed,56416.00012779236,Fri Dec 05 2025 10:07:07 GMT-0600 (Central Standard Time),689436.0,A,wheatenter,O,enter,441,1,1115.9000000357628,688320.0999999642,7254,WL,C,2.0
7,5.415999889373779,immed,54584.00011062622,Fri Dec 05 2025 10:07:07 GMT-0600 (Central Standard Time),691268.3000000119,A,q,O,q,1816,1,1832.2000000476837,689436.0999999642,7254,WL,C,3.0
7,5.567999839782715,immed,54432.000160217285,Fri Dec 05 2025 10:07:07 GMT-0600 (Central Standard Time),691419.8999999762,A,qu,O,u,133,1,1983.800000011921,689436.0999999642,7254,WL,C,3.0
7,5.631999969482422,immed,54368.00003051758,Fri Dec 05 2025 10:07:07 GMT-0600 (Central Standard Time),691484.0999999642,A,que,O,e,45,1,2048.0,689436.0999999642,7254,WL,C,3.0
7,5.781999826431274,immed,54218.000173568726,Fri Dec 05 2025 10:07:07 GMT-0600 (Central Standard Time),691634.6999999881,A,quee,O,e,143,1,2198.600000023842,689436.0999999642,7254,WL,C,3.0
7,5.898999929428101,immed,54101.0000705719,Fri Dec 05 2025 10:07:07 GMT-0600 (Central Standard Time),691751.6999999881,A,queen,O,n,99,1,2315.600000023842,689436.0999999642,7254,WL,C,3.0
7,6.08299994468689,immed,53917.00005531311,Fri Dec 05 2025 10:07:07 GMT-0600 (Central Standard Time),691935.3000000119,A,queenenter,O,enter,170,1,2499.2000000476837,689436.0999999642,7254,WL,C,3.0
7,6.232999801635742,immed,53767.00019836426,Fri Dec 05 2025 10:07:07 GMT-0600 (Central Standard Time),692085.1999999881,A,s,O,s,132,1,149.69999998807907,691935.5,7254,WL,C,4.0
7,6.348999977111816,immed,53651.00002288818,Fri Dec 05 2025 10:07:07 GMT-0600 (Central Standard Time),692201.5999999642,A,su,O,u,95,1,266.0999999642372,691935.5,7254,WL,C,4.0
7,6.482999801635742,immed,53517.00019836426,Fri Dec 05 2025 10:07:07 GMT-0600 (Central Standard Time),692335.0999999642,A,sug,O,g,121,1,399.5999999642372,691935.5,7254,WL,C,4.0
7,6.665999889373779,immed,53334.00011062622,Fri Dec 05 2025 10:07:07 GMT-0600 (Central Standard Time),692518.0,A,suga,O,a,163,1,582.5,691935.5,7254,WL,C,4.0
7,6.726999998092651,immed,53273.00000190735,Fri Dec 05 2025 10:07:07 GMT-0600 (Central Standard Time),692578.8999999762,A,sugar,O,r,39,1,643.3999999761581,691935.5,7254,WL,C,4.0
7,7.001999855041504,immed,52998.000144958496,Fri Dec 05 2025 10:07:07 GMT-0600 (Central Standard Time),692854.0,A,sugarenter,O,enter,262,1,918.5,691935.5,7254,WL,C,4.0
7,7.798999786376953,immed,52201.00021362305,Fri Dec 05 2025 10:07:07 GMT-0600 (Central Standard Time),693650.8999999762,A,h,O,h,791,1,796.8000000119209,692854.0999999642,7254,WL,C,5.0
7,7.932999849319458,immed,52067.00015068054,Fri Dec 05 2025 10:07:07 GMT-0600 (Central Standard Time),693785.5,A,ho,O,o,114,1,931.4000000357628,692854.0999999642,7254,WL,C,5.0
7,8.015999794006348,immed,51984.00020599365,Fri Dec 05 2025 10:07:07 GMT-0600 (Central Standard Time),693868.5,A,hom,O,m,72,1,1014.4000000357628,692854.0999999642,7254,WL,C,5.0
7,8.097999811172485,immed,51902.000188827515,Fri Dec 05 2025 10:07:07 GMT-0600 (Central Standard Time),693950.8999999762,A,home,O,e,71,1,1096.800000011921,692854.0999999642,7254,WL,C,5.0
7,8.21399998664856,immed,51786.00001335144,Fri Dec 05 2025 10:07:07 GMT-0600 (Central Standard Time),694066.6999999881,A,homeenter,O,enter,107,1,1212.6000000238419,692854.0999999642,7254,WL,C,5.0
7,8.3989999294281,immed,51601.0000705719,Fri Dec 05 2025 10:07:07 GMT-0600 (Central Standard Time),694250.8000000119,A,b,O,b,176,1,183.80000001192093,694067.0,7254,WL,C,6.0
7,8.497999906539917,immed,51502.00009346008,Fri Dec 05 2025 10:07:07 GMT-0600 (Central Standard Time),694350.5,A,bo,O,o,87,1,283.5,694067.0,7254,WL,C,6.0
7,8.631999969482422,immed,51368.00003051758,Fri Dec 05 2025 10:07:07 GMT-0600 (Central Standard Time),694484.0,A,boy,O,y,117,1,417.0,694067.0,7254,WL,C,6.0
7,8.864999771118164,immed,51135.000228881836,Fri Dec 05 2025 10:07:07 GMT-0600 (Central Standard Time),694717.3000000119,A,boyenter,O,enter,213,1,650.3000000119209,694067.0,7254,WL,C,6.0
7,9.097999811172485,immed,50902.000188827515,Fri Dec 05 2025 10:07:07 GMT-0600 (Central Standard Time),694950.3999999762,A,d,O,d,223,1,232.89999997615814,694717.5,7254,WL,C,7.0
7,9.198999881744385,immed,50801.000118255615,Fri Dec 05 2025 10:07:07 GMT-0600 (Central Standard Time),695050.8999999762,A,do,O,o,85,1,333.39999997615814,694717.5,7254,WL,C,7.0
7,9.297999858856201,immed,50702.0001411438,Fri Dec 05 2025 10:07:07 GMT-0600 (Central Standard Time),695150.3999999762,A,doc,O,c,87,1,432.89999997615814,694717.5,7254,WL,C,7.0
7,9.464999914169312,immed,50535.00008583069,Fri Dec 05 2025 10:07:07 GMT-0600 (Central Standard Time),695317.6999999881,A,doct,O,t,148,1,600.1999999880791,694717.5,7254,WL,C,7.0
7,9.866999864578247,immed,50133.00013542175,Fri Dec 05 2025 10:07:07 GMT-0600 (Central Standard Time),695718.8999999762,A,docto,O,o,391,1,1001.3999999761581,694717.5,7254,WL,C,7.0
7,10.06499981880188,immed,49935.00018119812,Fri Dec 05 2025 10:07:07 GMT-0600 (Central Standard Time),695917.0,A,doctor,O,r,186,1,1199.5,694717.5,7254,WL,C,7.0
7,10.430999994277954,immed,49569.000005722046,Fri Dec 05 2025 10:07:07 GMT-0600 (Central Standard Time),696283.5999999642,A,doctorenter,O,enter,359,1,1566.0999999642372,694717.5,7254,WL,C,7.0
7,11.13099980354309,immed,48869.00019645691,Fri Dec 05 2025 10:07:07 GMT-0600 (Central Standard Time),696983.5999999642,A,c,O,c,687,1,699.6999999880791,696283.8999999762,7254,WL,C,8.0
7,11.23199987411499,immed,48768.00012588501,Fri Dec 05 2025 10:07:07 GMT-0600 (Central Standard Time),697084.5999999642,A,ca,O,a,84,1,800.6999999880791,696283.8999999762,7254,WL,C,8.0
7,11.262999773025513,immed,48737.00022697449,Fri Dec 05 2025 10:07:07 GMT-0600 (Central Standard Time),697115.1999999881,A,cam,O,m,23,1,831.3000000119209,696283.8999999762,7254,WL,C,8.0
7,11.348999977111816,immed,48651.00002288818,Fri Dec 05 2025 10:07:07 GMT-0600 (Central Standard Time),697201.3999999762,A,camp,O,p,66,1,917.5,696283.8999999762,7254,WL,C,8.0
7,11.730999946594238,immed,48269.00005340576,Fri Dec 05 2025 10:07:07 GMT-0600 (Central Standard Time),697583.3000000119,A,campenter,O,enter,362,1,1299.4000000357628,696283.8999999762,7254,WL,C,8.0
7,12.514999866485596,immed,47485.000133514404,Fri Dec 05 2025 10:07:07 GMT-0600 (Central Standard Time),698367.5,A,c,O,c,763,1,783.9000000357628,697583.5999999642,7254,WL,C,9.0
7,12.646999835968018,immed,47353.00016403198,Fri Dec 05 2025 10:07:07 GMT-0600 (Central Standard Time),698499.3999999762,A,co,O,o,123,1,915.8000000119209,697583.5999999642,7254,WL,C,9.0
7,12.729999780654907,immed,47270.00021934509,Fri Dec 05 2025 10:07:07 GMT-0600 (Central Standard Time),698582.1999999881,A,cor,O,r,70,1,998.6000000238419,697583.5999999642,7254,WL,C,9.0
