acc_sum,block,block_c,condition,correct,correct_response,datetime,endtime,flanker,jitter,project,response,response_test_buffer_response,response_test_target_response,response_time,response_time_test_buffer_response,response_time_test_target_response,row_sel,session_number,start_end,starttime,subject_id,target,task,task_vers,time_test_buffer,time_test_buffer_response,time_test_constants,time_test_flanker,time_test_jitter,time_test_logger,time_test_target,time_test_target_response,time_test_variables,trial
1,prac,1,con,1,m,Wed Aug 20 2025 17:36:11 GMT-0500 (Central Daylight Time),174883.19999992847,zinc,1000,I,m,,,513,,,15,2,2811.0,172072.19999992847,8052,zinc,NF,C,,,,,,,,,,1
2,prac,1,con,1,z,Wed Aug 20 2025 17:36:11 GMT-0500 (Central Daylight Time),177215.5,orange,1000,I,z,,,26,,,3,2,2326.2000000476837,174889.29999995232,8052,orange,NF,C,,,,,,,,,,2
3,prac,1,con,1,z,Wed Aug 20 2025 17:36:11 GMT-0500 (Central Daylight Time),179665.0,lime,800,I,z,,,349,,,5,2,2445.3000000715256,177219.69999992847,8052,lime,NF,C,,,,,,,,,,3
4,prac,1,inc,1,m,Wed Aug 20 2025 17:36:11 GMT-0500 (Central Daylight Time),182614.10000002384,raisin,1100,I,m,,,536,,,12,2,2944.7000000476837,179669.39999997616,8052,cobalt,NF,C,,,,,,,,,,4
5,prac,1,con,1,m,Wed Aug 20 2025 17:36:11 GMT-0500 (Central Daylight Time),185429.79999995232,bronze,800,I,m,,,711,,,9,2,2810.5,182619.29999995232,8052,bronze,NF,C,,,,,,,,,,5
6,prac,1,inc,1,z,Wed Aug 20 2025 17:36:11 GMT-0500 (Central Daylight Time),188278.89999997616,lead,1100,I,z,,,435,,,8,2,2844.2999999523163,185434.60000002384,8052,plum,NF,C,,,,,,,,,,6
6,prac,1,con,0,m,Wed Aug 20 2025 17:36:11 GMT-0500 (Central Daylight Time),190828.0,silver,1000,I,z,,,146,,,11,2,2544.5,188283.5,8052,silver,NF,C,,,,,,,,,,7
7,prac,1,con,1,z,Wed Aug 20 2025 17:36:11 GMT-0500 (Central Daylight Time),193693.89999997616,kiwi,1000,I,z,,,553,,,7,2,2861.5,190832.39999997616,8052,kiwi,NF,C,,,,,,,,,,8
8,prac,1,inc,1,m,Wed Aug 20 2025 17:36:11 GMT-0500 (Central Daylight Time),196359.5,pear,900,I,m,,,459,,,14,2,2661.100000023842,193698.39999997616,8052,iron,NF,C,,,,,,,,,,9
9,prac,1,inc,1,z,Wed Aug 20 2025 17:36:11 GMT-0500 (Central Daylight Time),199125.29999995232,copper,900,I,z,,,552,,,2,2,2761.1999999284744,196364.10000002384,8052,cherry,NF,C,,,,,,,,,,10
10,prac,1,inc,1,m,Wed Aug 20 2025 17:36:11 GMT-0500 (Central Daylight Time),201841.39999997616,cherry,900,I,m,,,514,,,10,2,2711.2000000476837,199130.19999992847,8052,copper,NF,C,,,,,,,,,,11
11,prac,1,inc,1,m,Wed Aug 20 2025 17:36:11 GMT-0500 (Central Daylight Time),204740.39999997616,plum,1100,I,m,,,496,,,16,2,2894.5,201845.89999997616,8052,lead,NF,C,,,,,,,,,,12
12,prac,1,inc,1,z,Wed Aug 20 2025 17:36:11 GMT-0500 (Central Daylight Time),207689.39999997616,cobalt,1100,I,z,,,565,,,4,2,2944.7999999523163,204744.60000002384,8052,raisin,NF,C,,,,,,,,,,13
13,prac,1,con,1,z,Wed Aug 20 2025 17:36:11 GMT-0500 (Central Daylight Time),210338.60000002384,banana,800,I,z,,,539,,,1,2,2645.3000000715256,207693.29999995232,8052,banana,NF,C,,,,,,,,,,14
14,prac,1,inc,1,z,Wed Aug 20 2025 17:36:11 GMT-0500 (Central Daylight Time),213154.5,iron,900,I,z,,,604,,,6,2,2811.399999976158,210343.10000002384,8052,pear,NF,C,,,,,,,,,,15
15,prac,1,con,1,m,Wed Aug 20 2025 17:36:11 GMT-0500 (Central Daylight Time),215803.69999992847,gold,800,I,m,,,546,,,13,2,2644.7999999523163,213158.89999997616,8052,gold,NF,C,,,,,,,,,,16
1,test,1,inc,1,m,Wed Aug 20 2025 17:36:11 GMT-0500 (Central Daylight Time),232148.5,cherry,900,I,m,m,None,496,297.0,199.0,94,2,1929.1000000238419,230219.39999997616,8052,cobalt,NF,C,227948,227948,226318,227231,226319,228248,227748,227748,228247,1
2,test,1,con,1,z,Wed Aug 20 2025 17:36:11 GMT-0500 (Central Daylight Time),234280.89999997616,cherry,1000,I,z,z,None,583,384.0,199.0,11,2,2127.2999999523163,232153.60000002384,8052,cherry,NF,C,229980,229981,228253,229264,228253,230380,229781,229781,230380,2
3,test,1,inc,1,z,Wed Aug 20 2025 17:36:11 GMT-0500 (Central Daylight Time),236363.69999992847,zinc,1000,I,z,z,None,540,340.0,200.0,39,2,2078.399999976158,234285.29999995232,8052,lime,NF,C,232113,232113,230384,231397,230385,232463,231913,231913,232463,3
4,test,1,inc,1,z,Wed Aug 20 2025 17:36:11 GMT-0500 (Central Daylight Time),238296.19999992847,bronze,800,I,z,z,None,535,335.0,200.0,5,2,1928.5,236367.69999992847,8052,banana,NF,C,234046,234046,232467,233329,232467,234395,233846,233846,234395,4
5,test,1,con,1,z,Wed Aug 20 2025 17:36:11 GMT-0500 (Central Daylight Time),240179.19999992847,plum,900,I,z,z,None,440,241.0,199.0,58,2,1878.8999999761581,238300.29999995232,8052,plum,NF,C,236028,236028,234399,235312,234400,236278,235829,235829,236278,5
6,test,1,inc,1,z,Wed Aug 20 2025 17:36:11 GMT-0500 (Central Daylight Time),242345.39999997616,lead,1100,I,z,z,None,518,318.0,200.0,40,2,2162.100000023842,240183.29999995232,8052,lime,NF,C,238111,238111,236282,237395,236283,238444,237911,237911,238444,6
7,test,1,inc,1,m,Wed Aug 20 2025 17:36:11 GMT-0500 (Central Daylight Time),244244.69999992847,pear,900,I,m,m,None,464,264.0,200.0,126,2,1894.8999999761581,242349.79999995232,8052,lead,NF,C,240077,240077,238449,239361,238449,240344,239877,239877,240344,7
8,test,1,con,1,z,Wed Aug 20 2025 17:36:11 GMT-0500 (Central Daylight Time),246110.69999992847,orange,800,I,z,z,None,529,329.0,200.0,17,2,1861.5999999046326,244249.10000002384,8052,orange,NF,C,241877,241877,240348,241160,240348,242210,241677,241677,242210,8
9,test,1,con,1,m,Wed Aug 20 2025 17:36:11 GMT-0500 (Central Daylight Time),248043.5,iron,800,I,m,m,None,589,390.0,199.0,105,2,1928.8000000715256,246114.69999992847,8052,iron,NF,C,243742,243743,242214,243026,242214,244143,243543,243543,244143,9
10,test,1,inc,1,z,Wed Aug 20 2025 17:36:11 GMT-0500 (Central Daylight Time),250125.89999997616,lead,1100,I,z,z,None,445,245.0,200.0,64,2,2078.2999999523163,248047.60000002384,8052,plum,NF,C,245976,245976,244147,245259,244147,246225,245775,245775,246225,10
11,test,1,con,1,z,Wed Aug 20 2025 17:36:11 GMT-0500 (Central Daylight Time),252208.69999992847,pear,1000,I,z,z,None,543,343.0,200.0,43,2,2078.399999976158,250130.29999995232,8052,pear,NF,C,247958,247958,246229,247242,246230,248308,247758,247758,248308,11
12,test,1,inc,1,m,Wed Aug 20 2025 17:36:11 GMT-0500 (Central Daylight Time),254141.5,pear,900,I,m,m,None,495,296.0,199.0,102,2,1928.6000000238419,252212.89999997616,8052,gold,NF,C,249941,249941,248312,249225,248312,250241,249741,249741,250241,12
13,test,1,inc,1,m,Wed Aug 20 2025 17:36:11 GMT-0500 (Central Daylight Time),256324.10000002384,plum,1100,I,m,m,None,547,348.0,199.0,104,2,2178.4000000953674,254145.69999992847,8052,gold,NF,C,252074,252074,250245,251357,250245,252423,251874,251874,252423,13
14,test,1,con,1,z,Wed Aug 20 2025 17:36:11 GMT-0500 (Central Daylight Time),258473.60000002384,cherry,1100,I,z,z,None,501,301.0,200.0,12,2,2145.5,256328.10000002384,8052,cherry,NF,C,254256,254256,252427,253540,252427,254573,254056,254056,254573,14
15,test,1,con,1,z,Wed Aug 20 2025 17:36:11 GMT-0500 (Central Daylight Time),260674.79999995232,plum,1100,I,z,z,None,568,368.0,200.0,60,2,2197.0,258477.79999995232,8052,plum,NF,C,256406,256406,254577,255689,254577,256774,256205,256205,256774,15
16,test,1,inc,1,m,Wed Aug 20 2025 17:36:11 GMT-0500 (Central Daylight Time),262822.2999999523,raisin,1100,I,m,m,None,503,304.0,199.0,96,2,2142.899999976158,260679.39999997616,8052,cobalt,NF,C,258605,258605,256778,257888,256779,258921,258405,258405,258921,16
17,test,1,inc,1,z,Wed Aug 20 2025 17:36:11 GMT-0500 (Central Daylight Time),265004.7999999523,cobalt,1100,I,z,z,None,539,339.0,200.0,24,2,2178.600000023842,262826.1999999285,8052,orange,NF,C,260754,260754,258925,260038,258926,261104,260554,260554,261104,17
18,test,1,inc,1,z,Wed Aug 20 2025 17:36:11 GMT-0500 (Central Daylight Time),267104.1999999285,silver,1000,I,z,z,None,552,352.0,200.0,7,2,2095.1999999284744,265009.0,8052,banana,NF,C,262837,262837,261108,262120,261108,263203,262637,262637,263203,18
19,test,1,con,1,m,Wed Aug 20 2025 17:36:11 GMT-0500 (Central Daylight Time),269270.10000002384,bronze,1100,I,m,m,None,530,330.0,200.0,68,2,2161.9000000953674,267108.1999999285,8052,bronze,NF,C,265036,265036,263207,264319,263207,265369,264836,264836,265369,19
20,test,1,inc,1,z,Wed Aug 20 2025 17:36:11 GMT-0500 (Central Daylight Time),271136.10000002384,bronze,800,I,z,z,None,527,327.0,200.0,29,2,1862.1000000238419,269274.0,8052,raisin,NF,C,266902,266902,265373,266186,265373,267235,266702,266702,267235,20
21,test,1,inc,1,m,Wed Aug 20 2025 17:36:11 GMT-0500 (Central Daylight Time),273185.39999997616,kiwi,1000,I,m,m,None,509,308.0,201.0,119,2,2045.2999999523163,271140.10000002384,8052,zinc,NF,C,268969,268969,267239,268252,267239,269284,268768,268768,269284,21
22,test,1,con,1,z,Wed Aug 20 2025 17:36:11 GMT-0500 (Central Daylight Time),275151.5,pear,800,I,z,z,None,627,427.0,200.0,41,2,1961.0,273190.5,8052,pear,NF,C,270819,270819,269290,270101,269290,271251,270618,270618,271251,22
23,test,1,inc,1,z,Wed Aug 20 2025 17:36:11 GMT-0500 (Central Daylight Time),277034.2999999523,iron,900,I,z,z,None,448,249.0,199.0,46,2,1877.7999999523163,275156.5,8052,pear,NF,C,272884,272884,271256,272167,271256,273133,272684,272684,273133,23
24,test,1,inc,1,z,Wed Aug 20 2025 17:36:11 GMT-0500 (Central Daylight Time),279100.39999997616,zinc,1000,I,z,z,None,530,331.0,199.0,63,2,2062.0,277038.39999997616,8052,plum,NF,C,274866,274866,273137,274150,273138,275199,274667,274667,275199,24
25,test,1,con,1,z,Wed Aug 20 2025 17:36:11 GMT-0500 (Central Daylight Time),281133.1999999285,banana,1100,I,z,z,None,389,189.0,200.0,4,2,2029.0,279104.1999999285,8052,banana,NF,C,277032,277032,275203,276316,275203,277232,276832,276832,277232,25
26,test,1,con,1,m,Wed Aug 20 2025 17:36:11 GMT-0500 (Central Daylight Time),283165.6999999285,gold,1100,I,m,m,None,396,196.0,200.0,100,2,2028.2999999523163,281137.39999997616,8052,gold,NF,C,279065,279065,277236,278349,277237,279265,278865,278865,279265,26
27,test,1,inc,1,m,Wed Aug 20 2025 17:36:11 GMT-0500 (Central Daylight Time),285066.6999999285,banana,800,I,m,m,None,550,351.0,199.0,69,2,1896.8999999761581,283169.7999999523,8052,bronze,NF,C,280798,280798,279269,280081,279269,281166,280598,280598,281166,27
28,test,1,con,1,m,Wed Aug 20 2025 17:36:11 GMT-0500 (Central Daylight Time),286848.0,cobalt,800,I,m,m,None,436,236.0,200.0,89,2,1777.1000000238419,285070.89999997616,8052,cobalt,NF,C,282697,282697,281170,281981,281170,282947,282497,282497,282947,28
29,test,1,inc,1,m,Wed Aug 20 2025 17:36:11 GMT-0500 (Central Daylight Time),288980.5,kiwi,1000,I,m,m,None,597,397.0,200.0,127,2,2128.600000023842,286851.89999997616,8052,lead,NF,C,284680,284680,282951,283963,282951,285080,284480,284480,285079,29
30,test,1,inc,1,m,Wed Aug 20 2025 17:36:11 GMT-0500 (Central Daylight Time),290830.0,banana,800,I,m,m,None,512,313.0,199.0,77,2,1845.7000000476837,288984.2999999523,8052,copper,NF,C,286613,286613,285083,285896,285084,286929,286413,286413,286929,30
31,test,1,con,1,m,Wed Aug 20 2025 17:36:11 GMT-0500 (Central Daylight Time),292896.0,cobalt,1100,I,m,m,None,419,219.0,200.0,92,2,2062.0,290834.0,8052,cobalt,NF,C,288762,288762,286933,288046,286933,288995,288562,288562,288995,31
32,test,1,inc,1,z,Wed Aug 20 2025 17:36:11 GMT-0500 (Central Daylight Time),294779.6999999285,copper,900,I,z,z,None,449,249.0,200.0,6,2,1879.8999999761581,292899.7999999523,8052,banana,NF,C,290628,290628,288999,289911,288999,290879,290428,290428,290879,32
33,test,1,con,1,m,Wed Aug 20 2025 17:36:11 GMT-0500 (Central Daylight Time),296861.39999997616,copper,900,I,m,m,None,645,446.0,199.0,74,2,2077.600000023842,294783.7999999523,8052,copper,NF,C,292511,292511,290883,291794,290883,292960,292311,292311,292960,33
34,test,1,con,1,z,Wed Aug 20 2025 17:36:11 GMT-0500 (Central Daylight Time),299077.5,raisin,1100,I,z,z,None,571,371.0,200.0,28,2,2212.0,296865.5,8052,raisin,NF,C,294794,294794,292965,294077,292965,295177,294593,294593,295177,34
35,test,1,inc,1,z,Wed Aug 20 2025 17:36:11 GMT-0500 (Central Daylight Time),300993.39999997616,gold,800,I,z,z,None,574,375.0,199.0,53,2,1912.0,299081.39999997616,8052,kiwi,NF,C,296710,296710,295180,295993,295181,297092,296509,296510,297092,35
36,test,1,inc,1,z,Wed Aug 20 2025 17:36:11 GMT-0500 (Central Daylight Time),302859.39999997616,gold,800,I,z,z,None,522,323.0,199.0,61,2,1862.0,300997.39999997616,8052,plum,NF,C,298626,298626,297096,297909,297097,298959,298426,298426,298958,36
37,test,1,inc,1,m,Wed Aug 20 2025 17:36:11 GMT-0500 (Central Daylight Time),304892.1999999285,plum,1100,I,m,m,None,389,190.0,199.0,120,2,2028.8999999761581,302863.2999999523,8052,zinc,NF,C,300791,300791,298962,300075,298963,300991,300592,300592,300991,37
38,test,1,inc,1,z,Wed Aug 20 2025 17:36:11 GMT-0500 (Central Daylight Time),306858.2999999523,copper,900,I,z,z,None,526,326.0,200.0,14,2,1962.0,304896.2999999523,8052,cherry,NF,C,302624,302624,300995,301908,300996,302957,302424,302424,302957,38
39,test,1,con,1,m,Wed Aug 20 2025 17:36:11 GMT-0500 (Central Daylight Time),309090.6999999285,iron,1000,I,m,m,None,647,448.0,199.0,107,2,2228.5999999046326,306862.10000002384,8052,iron,NF,C,304740,304741,302961,304037,302961,305190,304541,304541,305190,39
40,test,1,inc,1,z,Wed Aug 20 2025 17:36:11 GMT-0500 (Central Daylight Time),311040.10000002384,copper,900,I,z,z,None,510,310.0,200.0,22,2,1945.4000000953674,309094.6999999285,8052,orange,NF,C,306823,306823,305194,306107,305194,307139,306623,306623,307139,40
41,test,1,con,1,m,Wed Aug 20 2025 17:36:11 GMT-0500 (Central Daylight Time),313073.1999999285,copper,1000,I,m,m,None,492,292.0,200.0,75,2,2029.0999999046326,311044.10000002384,8052,copper,NF,C,308873,308873,307143,308156,307143,309172,308672,308672,309172,41
42,test,1,inc,1,z,Wed Aug 20 2025 17:36:11 GMT-0500 (Central Daylight Time),314906.0,gold,800,I,z,z,None,500,300.0,200.0,37,2,1829.2000000476837,313076.7999999523,8052,lime,NF,C,310705,310705,309176,309989,309176,311005,310505,310505,311005,42
43,test,1,inc,1,z,Wed Aug 20 2025 17:36:11 GMT-0500 (Central Daylight Time),317138.39999997616,cobalt,1100,I,z,z,None,582,383.0,199.0,8,2,2228.7000000476837,314909.6999999285,8052,banana,NF,C,312838,312838,311009,312121,311009,313237,312638,312638,313237,43
44,test,1,con,1,z,Wed Aug 20 2025 17:36:11 GMT-0500 (Central Daylight Time),319004.60000002384,lime,800,I,z,z,None,523,323.0,200.0,33,2,1862.7000000476837,317141.89999997616,8052,lime,NF,C,314770,314770,313241,314054,313241,315104,314570,314570,315104,44
45,test,1,con,1,m,Wed Aug 20 2025 17:36:11 GMT-0500 (Central Daylight Time),320970.1999999285,gold,1000,I,m,m,None,424,225.0,199.0,99,2,1961.5999999046326,319008.60000002384,8052,gold,NF,C,316836,316836,315108,316120,315108,317069,316637,316637,317069,45
46,test,1,inc,1,m,Wed Aug 20 2025 17:36:11 GMT-0500 (Central Daylight Time),322836.60000002384,cherry,900,I,m,m,None,421,222.0,199.0,78,2,1862.0,320974.60000002384,8052,copper,NF,C,318703,318703,317074,317986,317074,318936,318503,318503,318936,46
47,test,1,con,1,m,Wed Aug 20 2025 17:36:11 GMT-0500 (Central Daylight Time),324835.6999999285,lead,900,I,m,m,None,564,365.0,199.0,122,2,1995.2999999523163,322840.39999997616,8052,lead,NF,C,320568,320568,318939,319852,318940,320935,320369,320369,320935,47
48,test,1,inc,1,z,Wed Aug 20 2025 17:36:11 GMT-0500 (Central Daylight Time),326618.7999999523,bronze,800,I,z,z,None,441,241.0,200.0,21,2,1779.1999999284744,324839.60000002384,8052,orange,NF,C,322468,322468,320939,321752,320939,322718,322268,322268,322718,48
49,test,1,con,1,m,Wed Aug 20 2025 17:36:11 GMT-0500 (Central Daylight Time),328501.1999999285,bronze,800,I,m,m,None,545,345.0,200.0,65,2,1878.5999999046326,326622.60000002384,8052,bronze,NF,C,324251,324251,322722,323534,322722,324600,324051,324051,324600,49
50,test,1,inc,1,m,Wed Aug 20 2025 17:36:11 GMT-0500 (Central Daylight Time),330534.1999999285,orange,1000,I,m,m,None,494,295.0,199.0,95,2,2029.0999999046326,328505.10000002384,8052,cobalt,NF,C,326334,326334,324604,325617,324604,326633,326134,326134,326633,50
51,test,1,con,1,m,Wed Aug 20 2025 17:36:11 GMT-0500 (Central Daylight Time),332666.60000002384,bronze,900,I,m,m,None,631,432.0,199.0,66,2,2128.600000023842,330538.0,8052,bronze,NF,C,328333,328333,326637,327618,326637,328766,328133,328133,328766,51
52,test,1,con,1,z,Wed Aug 20 2025 17:36:11 GMT-0500 (Central Daylight Time),334599.5,orange,1000,I,z,z,None,385,185.0,200.0,19,2,1929.2000000476837,332670.2999999523,8052,orange,NF,C,330500,330500,328769,329782,328770,330699,330299,330299,330698,52
53,test,1,inc,1,z,Wed Aug 20 2025 17:36:11 GMT-0500 (Central Daylight Time),336582.2999999523,iron,900,I,z,z,None,544,345.0,199.0,54,2,1979.0,334603.2999999523,8052,kiwi,NF,C,332332,332332,330702,331615,330703,332681,332132,332132,332681,53
54,test,1,con,1,m,Wed Aug 20 2025 17:36:11 GMT-0500 (Central Daylight Time),338431.6999999285,gold,900,I,m,m,None,409,194.0,215.0,98,2,1845.5,336586.1999999285,8052,gold,NF,C,334331,334331,332685,333598,332685,334531,334116,334116,334531,54
55,test,1,inc,1,m,Wed Aug 20 2025 17:36:11 GMT-0500 (Central Daylight Time),340297.6999999285,cherry,900,I,m,m,None,433,233.0,200.0,70,2,1862.1999999284744,338435.5,8052,bronze,NF,C,336164,336164,334535,335447,334535,336397,335964,335964,336397,55
56,test,1,con,1,m,Wed Aug 20 2025 17:36:11 GMT-0500 (Central Daylight Time),342200.89999997616,gold,800,I,m,m,None,570,370.0,200.0,97,2,1899.1000000238419,340301.7999999523,8052,gold,NF,C,337930,337930,336401,337213,336401,338300,337730,337730,338300,56
57,test,1,con,1,m,Wed Aug 20 2025 17:36:11 GMT-0500 (Central Daylight Time),343996.7999999523,cobalt,900,I,m,m,None,355,156.0,199.0,90,2,1790.6000000238419,342206.1999999285,8052,cobalt,NF,C,339929,339929,338305,339213,338306,340096,339730,339730,340096,57
58,test,1,inc,1,z,Wed Aug 20 2025 17:36:11 GMT-0500 (Central Daylight Time),346045.60000002384,zinc,1000,I,z,z,None,511,312.0,199.0,55,2,2044.7000000476837,344000.89999997616,8052,kiwi,NF,C,341829,341829,340100,341112,340100,342145,341629,341629,342145,58
59,test,1,inc,1,m,Wed Aug 20 2025 17:36:11 GMT-0500 (Central Daylight Time),348178.39999997616,raisin,1100,I,m,m,None,499,299.0,200.0,72,2,2128.7000000476837,346049.6999999285,8052,bronze,NF,C,343978,343978,342149,343262,342149,344277,343778,343778,344277,59
60,test,1,con,1,z,Wed Aug 20 2025 17:36:11 GMT-0500 (Central Daylight Time),350327.89999997616,pear,1100,I,z,z,None,509,310.0,199.0,44,2,2145.600000023842,348182.2999999523,8052,pear,NF,C,346111,346111,344281,345394,344281,346427,345911,345911,346427,60
61,test,1,inc,1,m,Wed Aug 20 2025 17:36:11 GMT-0500 (Central Daylight Time),352393.7999999523,plum,1100,I,m,m,None,417,217.0,200.0,112,2,2061.5,350332.2999999523,8052,iron,NF,C,348260,348260,346431,347544,346432,348493,348060,348060,348493,61
62,test,1,inc,1,m,Wed Aug 20 2025 17:36:11 GMT-0500 (Central Daylight Time),354259.89999997616,pear,900,I,m,m,None,423,223.0,200.0,118,2,1862.2000000476837,352397.6999999285,8052,zinc,NF,C,350126,350126,348497,349410,348497,350359,349926,349926,350359,62
63,test,1,inc,1,z,Wed Aug 20 2025 17:36:11 GMT-0500 (Central Daylight Time),356292.6999999285,silver,1000,I,z,z,None,489,289.0,200.0,15,2,2028.7999999523163,354263.89999997616,8052,cherry,NF,C,352092,352092,350363,351375,350363,352392,351892,351892,352392,63
64,test,1,con,1,z,Wed Aug 20 2025 17:36:11 GMT-0500 (Central Daylight Time),358175.39999997616,pear,900,I,z,z,None,444,244.0,200.0,42,2,1878.8999999761581,356296.5,8052,pear,NF,C,354025,354025,352396,353308,352396,354275,353825,353825,354274,64
65,test,1,con,1,z,Wed Aug 20 2025 17:36:11 GMT-0500 (Central Daylight Time),360141.60000002384,kiwi,1000,I,z,z,None,420,221.0,199.0,51,2,1962.7000000476837,358178.89999997616,8052,kiwi,NF,C,356008,356008,354278,355291,354278,356241,355808,355808,356241,65
66,test,1,inc,1,m,Wed Aug 20 2025 17:36:11 GMT-0500 (Central Daylight Time),361957.6999999285,lime,800,I,m,m,None,478,279.0,199.0,101,2,1812.5,360145.1999999285,8052,gold,NF,C,357774,357774,356244,357057,356245,358057,357574,357574,358057,66
67,test,1,inc,1,m,Wed Aug 20 2025 17:36:11 GMT-0500 (Central Daylight Time),364290.0,kiwi,1000,I,m,m,None,799,599.0,200.0,111,2,2328.600000023842,361961.39999997616,8052,iron,NF,C,359790,359790,358060,359073,358061,360389,359590,359590,360389,67
68,test,1,inc,1,z,Wed Aug 20 2025 17:36:11 GMT-0500 (Central Daylight Time),366372.89999997616,copper,900,I,z,z,None,647,447.0,200.0,30,2,2078.899999976158,364294.0,8052,raisin,NF,C,362022,362022,360393,361306,360393,362472,361822,361822,362472,68
69,test,1,con,1,m,Wed Aug 20 2025 17:36:11 GMT-0500 (Central Daylight Time),368572.1999999285,zinc,1100,I,m,m,None,563,364.0,199.0,116,2,2194.7999999523163,366377.39999997616,8052,zinc,NF,C,364305,364305,362476,363588,362477,364671,364105,364105,364671,69
70,test,1,con,1,z,Wed Aug 20 2025 17:36:11 GMT-0500 (Central Daylight Time),370605.0,banana,900,I,z,z,None,597,397.0,200.0,2,2,2028.8999999761581,368576.10000002384,8052,banana,NF,C,366304,366304,364675,365588,364675,366704,366104,366104,366704,70
70,test,1,con,0,m,Wed Aug 20 2025 17:36:11 GMT-0500 (Central Daylight Time),372437.5,lead,800,I,z,z,None,496,296.0,200.0,121,2,1828.6000000238419,370608.89999997616,8052,lead,NF,C,368237,368237,366708,367520,366708,368537,368037,368037,368536,71
71,test,1,inc,1,m,Wed Aug 20 2025 17:36:11 GMT-0500 (Central Daylight Time),374320.2999999523,lime,800,I,m,m,None,535,335.0,200.0,117,2,1878.8999999761581,372441.39999997616,8052,zinc,NF,C,370070,370070,368540,369353,368541,370419,369870,369870,370419,72
72,test,1,inc,1,m,Wed Aug 20 2025 17:36:11 GMT-0500 (Central Daylight Time),376186.6999999285,banana,800,I,m,m,None,524,325.0,199.0,93,2,1862.0,374324.6999999285,8052,cobalt,NF,C,371952,371953,370424,371236,370424,372286,371753,371753,372286,73
73,test,1,con,1,z,Wed Aug 20 2025 17:36:11 GMT-0500 (Central Daylight Time),378185.89999997616,cherry,900,I,z,z,None,550,351.0,199.0,10,2,1995.5,376190.39999997616,8052,cherry,NF,C,373918,373918,372289,373202,372290,374285,373719,373719,374285,74
74,test,1,con,1,z,Wed Aug 20 2025 17:36:11 GMT-0500 (Central Daylight Time),379985.5,plum,800,I,z,z,None,459,259.0,200.0,57,2,1795.8999999761581,378189.60000002384,8052,plum,NF,C,375818,375818,374289,375101,374289,376085,375618,375618,376085,75
75,test,1,inc,1,m,Wed Aug 20 2025 17:36:11 GMT-0500 (Central Daylight Time),381884.7999999523,pear,900,I,m,m,None,463,264.0,199.0,110,2,1895.7999999523163,379989.0,8052,iron,NF,C,377717,377717,376088,377001,376088,377984,377518,377518,377984,76
76,test,1,inc,1,z,Wed Aug 20 2025 17:36:11 GMT-0500 (Central Daylight Time),383950.7999999523,lead,1100,I,z,z,None,419,220.0,199.0,56,2,2062.2999999523163,381888.5,8052,kiwi,NF,C,379817,379817,377988,379100,377988,380050,379617,379617,380050,77
77,test,1,con,1,z,Wed Aug 20 2025 17:36:11 GMT-0500 (Central Daylight Time),385733.5,kiwi,800,I,z,z,None,446,246.0,200.0,49,2,1779.0,383954.5,8052,kiwi,NF,C,381583,381583,380054,380866,380054,381833,381383,381383,381833,78
78,test,1,con,1,m,Wed Aug 20 2025 17:36:11 GMT-0500 (Central Daylight Time),387766.1999999285,silver,1000,I,m,m,None,495,294.0,201.0,83,2,2028.6999999284744,385737.5,8052,silver,NF,C,383567,383567,381837,382849,381837,383865,383366,383366,383865,79
79,test,1,con,1,z,Wed Aug 20 2025 17:36:11 GMT-0500 (Central Daylight Time),389715.6999999285,lime,1000,I,z,z,None,408,208.0,200.0,35,2,1945.7999999523163,387769.89999997616,8052,lime,NF,C,385598,385598,383869,384882,383869,385815,385398,385398,385815,80
80,test,1,inc,1,m,Wed Aug 20 2025 17:36:11 GMT-0500 (Central Daylight Time),391864.7999999523,plum,1100,I,m,m,None,509,310.0,199.0,128,2,2145.2999999523163,389719.5,8052,lead,NF,C,387648,387648,385819,386931,385819,387964,387448,387448,387964,81
81,test,1,inc,1,m,Wed Aug 20 2025 17:36:11 GMT-0500 (Central Daylight Time),393780.89999997616,banana,800,I,m,m,None,572,372.0,200.0,85,2,1912.2999999523163,391868.60000002384,8052,silver,NF,C,389497,389497,387968,388780,387968,389880,389297,389297,389880,82
82,test,1,con,1,m,Wed Aug 20 2025 17:36:11 GMT-0500 (Central Daylight Time),395863.5,lead,1100,I,m,m,None,436,236.0,200.0,124,2,2078.7000000476837,393784.7999999523,8052,lead,NF,C,391713,391713,389884,390996,389884,391963,391513,391513,391963,83
83,test,1,con,1,m,Wed Aug 20 2025 17:36:11 GMT-0500 (Central Daylight Time),398013.0,iron,1100,I,m,m,None,513,313.0,200.0,108,2,2145.399999976158,395867.60000002384,8052,iron,NF,C,393796,393796,391967,393079,391967,394112,393595,393595,394112,84
84,test,1,con,1,m,Wed Aug 20 2025 17:36:11 GMT-0500 (Central Daylight Time),399862.1999999285,zinc,800,I,m,m,None,504,304.0,200.0,113,2,1845.3999999761581,398016.7999999523,8052,zinc,NF,C,395645,395645,394116,394929,394116,395961,395445,395445,395961,85
85,test,1,inc,1,m,Wed Aug 20 2025 17:36:11 GMT-0500 (Central Daylight Time),402064.39999997616,raisin,1100,I,m,m,None,569,369.0,200.0,80,2,2198.7999999523163,399865.60000002384,8052,copper,NF,C,397794,397794,395965,397078,395965,398163,397594,397594,398163,86
86,test,1,con,1,z,Wed Aug 20 2025 17:36:11 GMT-0500 (Central Daylight Time),403961.0,banana,800,I,z,z,None,550,350.0,200.0,1,2,1892.8000000715256,402068.1999999285,8052,banana,NF,C,399694,399694,398167,398977,398168,400060,399494,399494,400060,87
87,test,1,inc,1,z,Wed Aug 20 2025 17:36:11 GMT-0500 (Central Daylight Time),405977.2999999523,iron,900,I,z,z,None,568,368.0,200.0,62,2,2012.3999999761581,403964.89999997616,8052,plum,NF,C,401693,401693,400064,400977,400064,402076,401493,401493,402076,88
88,test,1,inc,1,z,Wed Aug 20 2025 17:36:11 GMT-0500 (Central Daylight Time),408076.5,silver,1000,I,z,z,None,557,357.0,200.0,31,2,2095.3000000715256,405981.1999999285,8052,raisin,NF,C,403809,403809,402080,403093,402080,404176,403609,403609,404176,89
89,test,1,con,1,z,Wed Aug 20 2025 17:36:11 GMT-0500 (Central Daylight Time),409842.5,raisin,800,I,z,z,None,423,224.0,199.0,25,2,1762.3000000715256,408080.1999999285,8052,raisin,NF,C,405709,405709,404179,404992,404179,405942,405509,405509,405942,90
90,test,1,con,1,m,Wed Aug 20 2025 17:36:11 GMT-0500 (Central Daylight Time),411875.2999999523,silver,900,I,m,m,None,589,390.0,199.0,82,2,2028.7999999523163,409846.5,8052,silver,NF,C,407575,407575,405946,406858,405946,407974,407375,407375,407974,91
91,test,1,con,1,z,Wed Aug 20 2025 17:36:11 GMT-0500 (Central Daylight Time),413907.89999997616,lime,1100,I,z,z,None,390,190.0,200.0,36,2,2028.7999999523163,411879.10000002384,8052,lime,NF,C,409807,409807,407978,409091,407978,410007,409607,409607,410007,92
92,test,1,con,1,m,Wed Aug 20 2025 17:36:11 GMT-0500 (Central Daylight Time),415824.0,bronze,1000,I,m,m,None,377,177.0,200.0,67,2,1912.3000000715256,413911.6999999285,8052,bronze,NF,C,411740,411740,410011,411024,410011,411923,411540,411540,411923,93
93,test,1,con,1,m,Wed Aug 20 2025 17:36:11 GMT-0500 (Central Daylight Time),417657.0,silver,800,I,m,m,None,494,294.0,200.0,81,2,1829.1000000238419,415827.89999997616,8052,silver,NF,C,413456,413456,411927,412740,411927,413756,413256,413256,413756,94
94,test,1,inc,1,m,Wed Aug 20 2025 17:36:11 GMT-0500 (Central Daylight Time),419589.39999997616,lime,800,I,m,m,None,588,388.0,200.0,125,2,1928.1000000238419,417661.2999999523,8052,lead,NF,C,415289,415289,413760,414572,413761,415689,415089,415089,415688,95
95,test,1,inc,1,z,Wed Aug 20 2025 17:36:11 GMT-0500 (Central Daylight Time),421505.5,silver,1000,I,z,z,None,374,175.0,199.0,23,2,1912.2000000476837,419593.2999999523,8052,orange,NF,C,417422,417422,415692,416705,415692,417605,417222,417222,417605,96
96,test,1,con,1,z,Wed Aug 20 2025 17:36:11 GMT-0500 (Central Daylight Time),423455.10000002384,lime,900,I,z,z,None,511,311.0,200.0,34,2,1945.9000000953674,421509.1999999285,8052,lime,NF,C,419238,419238,417608,418521,417608,419554,419038,419038,419554,97
97,test,1,inc,1,m,Wed Aug 20 2025 17:36:11 GMT-0500 (Central Daylight Time),425622.6999999285,raisin,1100,I,m,m,None,534,334.0,200.0,88,2,2163.899999976158,423458.7999999523,8052,silver,NF,C,421387,421387,419558,420671,419558,421722,421187,421187,421722,98
98,test,1,con,1,z,Wed Aug 20 2025 17:36:11 GMT-0500 (Central Daylight Time),427620.39999997616,banana,1000,I,z,z,None,456,256.0,200.0,3,2,1993.7999999523163,425626.60000002384,8052,banana,NF,C,423453,423453,421726,422737,421726,423719,423253,423253,423719,99
99,test,1,con,1,z,Wed Aug 20 2025 17:36:11 GMT-0500 (Central Daylight Time),429669.60000002384,orange,1100,I,z,z,None,404,205.0,199.0,20,2,2044.9000000953674,427624.6999999285,8052,orange,NF,C,425552,425552,423724,424836,423724,425769,425352,425353,425769,100
100,test,1,inc,1,z,Wed Aug 20 2025 17:36:11 GMT-0500 (Central Daylight Time),431535.89999997616,gold,800,I,z,z,None,519,318.0,201.0,45,2,1862.3999999761581,429673.5,8052,pear,NF,C,427303,427303,425773,426585,425773,427635,427102,427102,427635,101
101,test,1,con,1,z,Wed Aug 20 2025 17:36:11 GMT-0500 (Central Daylight Time),433468.5,raisin,900,I,z,z,None,489,289.0,200.0,26,2,1929.0,431539.5,8052,raisin,NF,C,429268,429268,427639,428551,427639,429568,429068,429068,429568,102
102,test,1,inc,1,m,Wed Aug 20 2025 17:36:11 GMT-0500 (Central Daylight Time),435500.89999997616,orange,1000,I,m,m,None,495,296.0,199.0,79,2,2028.5,433472.39999997616,8052,copper,NF,C,431301,431301,429571,430584,429572,431600,431101,431101,431600,103
103,test,1,inc,1,z,Wed Aug 20 2025 17:36:11 GMT-0500 (Central Daylight Time),437800.1999999285,cobalt,1100,I,z,z,None,659,459.0,200.0,16,2,2295.5999999046326,435504.60000002384,8052,cherry,NF,C,433434,433434,431604,432717,431604,433899,433233,433233,433899,104
104,test,1,inc,1,m,Wed Aug 20 2025 17:36:11 GMT-0500 (Central Daylight Time),439866.1999999285,orange,1000,I,m,m,None,525,324.0,201.0,71,2,2062.2999999523163,437803.89999997616,8052,bronze,NF,C,435633,435633,433903,434916,433903,435965,435432,435432,435965,105
105,test,1,inc,1,m,Wed Aug 20 2025 17:36:11 GMT-0500 (Central Daylight Time),441882.2999999523,lime,800,I,m,m,None,673,474.0,199.0,109,2,2012.1000000238419,439870.1999999285,8052,iron,NF,C,437499,437499,435969,436782,435970,437981,437299,437299,437981,106
106,test,1,inc,1,z,Wed Aug 20 2025 17:36:11 GMT-0500 (Central Daylight Time),443949.60000002384,cobalt,1100,I,z,z,None,430,231.0,199.0,32,2,2063.3000000715256,441886.2999999523,8052,raisin,NF,C,439815,439815,437985,439098,437986,440049,439615,439615,440049,107
107,test,1,inc,1,m,Wed Aug 20 2025 17:36:11 GMT-0500 (Central Daylight Time),446098.10000002384,cherry,900,I,m,m,None,699,500.0,199.0,86,2,2144.4000000953674,443953.6999999285,8052,silver,NF,C,441681,441681,440053,440964,440053,442197,441481,441481,442197,108
108,test,1,con,1,m,Wed Aug 20 2025 17:36:11 GMT-0500 (Central Daylight Time),448030.5,zinc,900,I,m,m,None,487,287.0,200.0,114,2,1928.2000000476837,446102.2999999523,8052,zinc,NF,C,443830,443830,442201,443113,442202,444130,443630,443630,444130,109
109,test,1,con,1,z,Wed Aug 20 2025 17:36:11 GMT-0500 (Central Daylight Time),450096.5,plum,1000,I,z,z,None,526,326.0,200.0,59,2,2062.0,448034.5,8052,plum,NF,C,445863,445863,444134,445148,444134,446196,445663,445663,446196,110
110,test,1,con,1,z,Wed Aug 20 2025 17:36:11 GMT-0500 (Central Daylight Time),452129.39999997616,kiwi,1100,I,z,z,None,383,184.0,199.0,52,2,2028.7000000476837,450100.6999999285,8052,kiwi,NF,C,448029,448029,446200,447312,446200,448228,447829,447829,448228,111
111,test,1,inc,1,m,Wed Aug 20 2025 17:36:11 GMT-0500 (Central Daylight Time),454145.5,orange,1000,I,m,m,None,468,268.0,200.0,87,2,2012.3999999761581,452133.10000002384,8052,silver,NF,C,449961,449961,448232,449245,448232,450245,449761,449761,450245,112
112,test,1,con,1,m,Wed Aug 20 2025 17:36:11 GMT-0500 (Central Daylight Time),456128.0,iron,900,I,m,m,None,543,343.0,200.0,106,2,1978.7000000476837,454149.2999999523,8052,iron,NF,C,451878,451878,450248,451161,450249,452227,451678,451678,452227,113
113,test,1,con,1,m,Wed Aug 20 2025 17:36:11 GMT-0500 (Central Daylight Time),458110.7999999523,lead,1000,I,m,m,None,445,245.0,200.0,123,2,1979.0,456131.7999999523,8052,lead,NF,C,453960,453960,452231,453244,452231,454210,453760,453760,454210,114
114,test,1,con,1,m,Wed Aug 20 2025 17:36:11 GMT-0500 (Central Daylight Time),460126.7999999523,zinc,1000,I,m,m,None,469,270.0,199.0,115,2,2012.2999999523163,458114.5,8052,zinc,NF,C,455943,455943,454214,455226,454214,456226,455743,455743,456226,115
115,test,1,inc,1,z,Wed Aug 20 2025 17:36:11 GMT-0500 (Central Daylight Time),462176.0,lead,1100,I,z,z,None,402,202.0,200.0,48,2,2045.2000000476837,460130.7999999523,8052,pear,NF,C,458059,458059,456230,457342,456230,458275,457859,457859,458275,116
116,test,1,con,1,z,Wed Aug 20 2025 17:36:11 GMT-0500 (Central Daylight Time),464092.10000002384,cherry,800,I,z,z,None,581,381.0,200.0,9,2,1912.3000000715256,462179.7999999523,8052,cherry,NF,C,459808,459808,458279,459092,458279,460191,459608,459608,460191,117
117,test,1,con,1,z,Wed Aug 20 2025 17:36:11 GMT-0500 (Central Daylight Time),466058.39999997616,kiwi,900,I,z,z,None,525,325.0,200.0,50,2,1962.5,464095.89999997616,8052,kiwi,NF,C,461824,461824,460195,461108,460195,462158,461624,461624,462157,118
118,test,1,inc,1,z,Wed Aug 20 2025 17:36:11 GMT-0500 (Central Daylight Time),467857.7999999523,bronze,800,I,z,z,None,459,259.0,200.0,13,2,1795.5,466062.2999999523,8052,cherry,NF,C,463690,463690,462161,462974,462162,463957,463490,463490,463957,119
119,test,1,con,1,m,Wed Aug 20 2025 17:36:11 GMT-0500 (Central Daylight Time),469890.6999999285,cobalt,1000,I,m,m,None,499,299.0,200.0,91,2,2029.0999999046326,467861.60000002384,8052,cobalt,NF,C,465690,465690,463961,464973,463961,465990,465490,465490,465990,120
120,test,1,inc,1,z,Wed Aug 20 2025 17:36:11 GMT-0500 (Central Daylight Time),471856.60000002384,iron,900,I,z,z,None,527,327.0,200.0,38,2,1962.5,469894.10000002384,8052,lime,NF,C,467622,467622,465993,466906,465993,467956,467422,467422,467956,121
121,test,1,con,1,m,Wed Aug 20 2025 17:36:11 GMT-0500 (Central Daylight Time),473922.5,copper,1100,I,m,m,None,431,232.0,199.0,76,2,2061.899999976158,471860.60000002384,8052,copper,NF,C,469789,469789,467960,469072,467960,470022,469589,469589,470022,122
122,test,1,con,1,z,Wed Aug 20 2025 17:36:11 GMT-0500 (Central Daylight Time),475788.39999997616,raisin,1000,I,z,z,None,329,130.0,199.0,27,2,1862.2999999523163,473926.10000002384,8052,raisin,NF,C,471755,471755,470025,471038,470025,471887,471555,471555,471887,123
123,test,1,con,1,z,Wed Aug 20 2025 17:36:11 GMT-0500 (Central Daylight Time),477804.60000002384,orange,900,I,z,z,None,573,373.0,200.0,18,2,2012.5,475792.10000002384,8052,orange,NF,C,473521,473521,471891,472804,471891,473904,473321,473321,473904,124
124,test,1,con,1,m,Wed Aug 20 2025 17:36:11 GMT-0500 (Central Daylight Time),479587.2999999523,copper,800,I,m,m,None,448,248.0,200.0,73,2,1779.0,477808.2999999523,8052,copper,NF,C,475437,475437,473907,474720,473907,475686,475237,475237,475686,125
125,test,1,inc,1,m,Wed Aug 20 2025 17:36:11 GMT-0500 (Central Daylight Time),481604.7999999523,kiwi,1000,I,m,m,None,474,274.0,200.0,103,2,2014.0,479590.7999999523,8052,gold,NF,C,477419,477419,475690,476703,475690,477704,477219,477219,477704,126
126,test,1,inc,1,z,Wed Aug 20 2025 17:36:11 GMT-0500 (Central Daylight Time),483685.89999997616,zinc,1000,I,z,z,None,538,338.0,200.0,47,2,2077.2999999523163,481608.60000002384,8052,pear,NF,C,479435,479435,477708,478719,477708,479785,479235,479235,479785,127
126,test,1,con,0,m,Wed Aug 20 2025 17:36:11 GMT-0500 (Central Daylight Time),485735.60000002384,silver,1100,I,z,z,None,403,203.0,200.0,84,2,2045.8000000715256,483689.7999999523,8052,silver,NF,C,481618,481618,479789,480902,479789,481835,481418,481418,481835,128
