Number,acc_sum,block,block_c,block_cond,con_img,correct,correct_response,datetime,endtime,jitter,project,response,response_time,row_sel,session_number,start_end,starttime,subject_id,task,task_vers,trial
4,1,prac,1,A,circle.png,1,z,Mon Sep 22 2025 15:12:18 GMT-0500 (Central Daylight Time),80982.5,1400,O,z,1147,4,1,3319.899999856949,77662.60000014305,7700,NTS,A,1
9,2,prac,1,A,circle.png,1,m,Mon Sep 22 2025 15:12:18 GMT-0500 (Central Daylight Time),84048.40000009537,1500,O,m,769,8,1,3052.9000000953674,80995.5,7700,NTS,A,2
6,3,prac,1,A,circle.png,1,m,Mon Sep 22 2025 15:12:18 GMT-0500 (Central Daylight Time),88046.10000014305,1900,O,m,1304,5,1,3987.800000190735,84058.29999995232,7700,NTS,A,3
1,4,prac,1,A,circle.png,1,z,Mon Sep 22 2025 15:12:18 GMT-0500 (Central Daylight Time),90412.90000009537,1000,O,z,582,1,1,2357.7000000476837,88055.20000004768,7700,NTS,A,4
2,5,prac,1,A,circle.png,1,z,Mon Sep 22 2025 15:12:18 GMT-0500 (Central Daylight Time),93877.5,2000,O,z,669,2,1,3456.2999999523163,90421.20000004768,7700,NTS,A,5
9,6,prac,1,A,circle.png,1,m,Mon Sep 22 2025 15:12:18 GMT-0500 (Central Daylight Time),96792.60000014305,1500,O,m,627,8,1,2907.5,93885.10000014305,7700,NTS,A,6
3,7,prac,1,A,circle.png,1,z,Mon Sep 22 2025 15:12:18 GMT-0500 (Central Daylight Time),100225.90000009537,1200,O,z,1433,3,1,3424.100000143051,96801.79999995232,7700,NTS,A,7
7,8,prac,1,A,circle.png,1,m,Mon Sep 22 2025 15:12:18 GMT-0500 (Central Daylight Time),103757.79999995232,1700,O,m,1040,6,1,3525.899999856949,100231.90000009537,7700,NTS,A,8
4,9,prac,1,A,circle.png,1,z,Mon Sep 22 2025 15:12:18 GMT-0500 (Central Daylight Time),107008.29999995232,1400,O,z,1065,4,1,3242.0999999046326,103766.20000004768,7700,NTS,A,9
8,10,prac,1,A,circle.png,1,m,Mon Sep 22 2025 15:12:18 GMT-0500 (Central Daylight Time),110054.79999995232,1600,O,m,653,7,1,3038.399999856949,107016.40000009537,7700,NTS,A,10
1,11,prac,1,A,circle.png,1,z,Mon Sep 22 2025 15:12:18 GMT-0500 (Central Daylight Time),112504.70000004768,1000,O,z,651,1,1,2442.0,110062.70000004768,7700,NTS,A,11
8,12,prac,1,A,circle.png,1,m,Mon Sep 22 2025 15:12:18 GMT-0500 (Central Daylight Time),115722.29999995232,1600,O,m,844,7,1,3210.5,112511.79999995232,7700,NTS,A,12
9,1,prac,1,B,triangle.png,1,z,Mon Sep 22 2025 15:12:18 GMT-0500 (Central Daylight Time),159640.0,1400,O,z,1135,8,1,3324.2999999523163,156315.70000004768,7700,NTS,A,1
9,2,prac,1,B,triangle.png,1,z,Mon Sep 22 2025 15:12:18 GMT-0500 (Central Daylight Time),162707.79999995232,1400,O,z,884,8,1,3059.0999999046326,159648.70000004768,7700,NTS,A,2
7,3,prac,1,B,triangle.png,1,z,Mon Sep 22 2025 15:12:18 GMT-0500 (Central Daylight Time),166105.0,2000,O,z,611,6,1,3390.399999856949,162714.60000014305,7700,NTS,A,3
2,4,prac,1,B,triangle.png,1,m,Mon Sep 22 2025 15:12:18 GMT-0500 (Central Daylight Time),169720.79999995232,1700,O,m,1127,2,1,3608.7999999523163,166112.0,7700,NTS,A,4
3,5,prac,1,B,triangle.png,1,z,Mon Sep 22 2025 15:12:18 GMT-0500 (Central Daylight Time),172886.79999995232,1600,O,z,773,3,1,3158.899999856949,169727.90000009537,7700,NTS,A,5
6,5,prac,1,B,triangle.png,0,m,Mon Sep 22 2025 15:12:18 GMT-0500 (Central Daylight Time),176034.20000004768,1000,O,z,1351,5,1,3141.2000000476837,172893.0,7700,NTS,A,6
3,6,prac,1,B,triangle.png,1,z,Mon Sep 22 2025 15:12:18 GMT-0500 (Central Daylight Time),179751.10000014305,1600,O,z,1316,3,1,3708.5,176042.60000014305,7700,NTS,A,7
8,7,prac,1,B,triangle.png,1,m,Mon Sep 22 2025 15:12:18 GMT-0500 (Central Daylight Time),182518.40000009537,1200,O,m,775,7,1,2762.0,179756.40000009537,7700,NTS,A,8
1,8,prac,1,B,triangle.png,1,z,Mon Sep 22 2025 15:12:18 GMT-0500 (Central Daylight Time),186099.40000009537,1900,O,z,884,1,1,3574.9000000953674,182524.5,7700,NTS,A,9
4,9,prac,1,B,triangle.png,1,m,Mon Sep 22 2025 15:12:18 GMT-0500 (Central Daylight Time),189364.5,1500,O,m,974,4,1,3258.399999856949,186106.10000014305,7700,NTS,A,10
1,10,prac,1,B,triangle.png,1,z,Mon Sep 22 2025 15:12:18 GMT-0500 (Central Daylight Time),193080.0,1900,O,z,1037,1,1,3707.399999856949,189372.60000014305,7700,NTS,A,11
8,11,prac,1,B,triangle.png,1,m,Mon Sep 22 2025 15:12:18 GMT-0500 (Central Daylight Time),195845.60000014305,1200,O,m,783,7,1,2756.300000190735,193089.29999995232,7700,NTS,A,12
1,1,test,1,A,circle.png,1,z,Mon Sep 22 2025 15:12:18 GMT-0500 (Central Daylight Time),219736.79999995232,1000,O,z,809,1,1,1824.2999999523163,217912.5,7700,NTS,A,1
6,2,test,1,A,circle.png,1,m,Mon Sep 22 2025 15:12:18 GMT-0500 (Central Daylight Time),222453.40000009537,1900,O,m,790,5,1,2713.9000000953674,219739.5,7700,NTS,A,2
6,3,test,1,A,circle.png,1,m,Mon Sep 22 2025 15:12:18 GMT-0500 (Central Daylight Time),224951.5,1900,O,m,579,5,1,2490.5,222461.0,7700,NTS,A,3
3,4,test,1,A,circle.png,1,z,Mon Sep 22 2025 15:12:18 GMT-0500 (Central Daylight Time),226817.40000009537,1200,O,z,636,3,1,1859.1000001430511,224958.29999995232,7700,NTS,A,4
4,5,test,1,A,circle.png,1,z,Mon Sep 22 2025 15:12:18 GMT-0500 (Central Daylight Time),229099.90000009537,1400,O,z,850,4,1,2275.0,226824.90000009537,7700,NTS,A,5
3,6,test,1,A,circle.png,1,z,Mon Sep 22 2025 15:12:18 GMT-0500 (Central Daylight Time),230916.70000004768,1200,O,z,583,3,1,1808.0,229108.70000004768,7700,NTS,A,6
8,7,test,1,A,circle.png,1,m,Mon Sep 22 2025 15:12:18 GMT-0500 (Central Daylight Time),233048.79999995232,1600,O,m,504,7,1,2122.899999856949,230925.90000009537,7700,NTS,A,7
9,8,test,1,A,circle.png,1,m,Mon Sep 22 2025 15:12:18 GMT-0500 (Central Daylight Time),235065.79999995232,1500,O,m,484,8,1,2008.0,233057.79999995232,7700,NTS,A,8
3,9,test,1,A,circle.png,1,z,Mon Sep 22 2025 15:12:18 GMT-0500 (Central Daylight Time),236915.10000014305,1200,O,z,626,3,1,1841.5,235073.60000014305,7700,NTS,A,9
9,10,test,1,A,circle.png,1,m,Mon Sep 22 2025 15:12:18 GMT-0500 (Central Daylight Time),238967.20000004768,1500,O,m,518,8,1,2044.9000000953674,236922.29999995232,7700,NTS,A,10
6,11,test,1,A,circle.png,1,m,Mon Sep 22 2025 15:12:18 GMT-0500 (Central Daylight Time),241563.90000009537,1900,O,m,668,5,1,2594.100000143051,238969.79999995232,7700,NTS,A,11
1,12,test,1,A,circle.png,1,z,Mon Sep 22 2025 15:12:18 GMT-0500 (Central Daylight Time),243195.79999995232,1000,O,z,601,1,1,1627.0999999046326,241568.70000004768,7700,NTS,A,12
1,13,test,1,A,circle.png,1,z,Mon Sep 22 2025 15:12:18 GMT-0500 (Central Daylight Time),245062.90000009537,1000,O,z,849,1,1,1857.7000000476837,243205.20000004768,7700,NTS,A,13
8,14,test,1,A,circle.png,1,m,Mon Sep 22 2025 15:12:18 GMT-0500 (Central Daylight Time),247627.60000014305,1600,O,m,943,7,1,2560.9000000953674,245066.70000004768,7700,NTS,A,14
7,14,test,1,A,circle.png,0,m,Mon Sep 22 2025 15:12:18 GMT-0500 (Central Daylight Time),250445.0,1700,O,z,1092,6,1,2814.5999999046326,247630.40000009537,7700,NTS,A,15
8,15,test,1,A,circle.png,1,m,Mon Sep 22 2025 15:12:18 GMT-0500 (Central Daylight Time),253010.20000004768,1600,O,m,943,7,1,2560.2999999523163,250449.90000009537,7700,NTS,A,16
2,16,test,1,A,circle.png,1,z,Mon Sep 22 2025 15:12:18 GMT-0500 (Central Daylight Time),255875.90000009537,2000,O,z,840,2,1,2862.7000000476837,253013.20000004768,7700,NTS,A,17
2,17,test,1,A,circle.png,1,z,Mon Sep 22 2025 15:12:18 GMT-0500 (Central Daylight Time),258407.5,2000,O,z,511,2,1,2527.0,255880.5,7700,NTS,A,18
7,18,test,1,A,circle.png,1,m,Mon Sep 22 2025 15:12:18 GMT-0500 (Central Daylight Time),261291.40000009537,1700,O,m,1159,6,1,2878.2999999523163,258413.10000014305,7700,NTS,A,19
7,19,test,1,A,circle.png,1,m,Mon Sep 22 2025 15:12:18 GMT-0500 (Central Daylight Time),263457.10000014305,1700,O,m,448,6,1,2161.0,261296.10000014305,7700,NTS,A,20
2,20,test,1,A,circle.png,1,z,Mon Sep 22 2025 15:12:18 GMT-0500 (Central Daylight Time),266172.90000009537,2000,O,z,682,2,1,2710.600000143051,263462.2999999523,7700,NTS,A,21
4,20,test,1,A,circle.png,0,z,Mon Sep 22 2025 15:12:18 GMT-0500 (Central Daylight Time),268271.2000000477,1400,O,m,681,4,1,2093.2000000476837,266178.0,7700,NTS,A,22
1,21,test,1,A,circle.png,1,z,Mon Sep 22 2025 15:12:18 GMT-0500 (Central Daylight Time),270737.7000000477,1000,O,z,1438,1,1,2459.5999999046326,268278.10000014305,7700,NTS,A,23
8,22,test,1,A,circle.png,1,m,Mon Sep 22 2025 15:12:18 GMT-0500 (Central Daylight Time),273753.0,1600,O,m,1395,7,1,3009.7000000476837,270743.2999999523,7700,NTS,A,24
1,1,test,1,B,triangle.png,1,z,Mon Sep 22 2025 15:12:18 GMT-0500 (Central Daylight Time),288233.10000014305,1400,O,z,1067,9,1,2477.100000143051,285756.0,7700,NTS,A,1
8,2,test,1,B,triangle.png,1,m,Mon Sep 22 2025 15:12:18 GMT-0500 (Central Daylight Time),290649.2000000477,1200,O,m,1200,7,1,2411.4000000953674,288237.7999999523,7700,NTS,A,2
8,3,test,1,B,triangle.png,1,m,Mon Sep 22 2025 15:12:18 GMT-0500 (Central Daylight Time),292980.40000009537,1700,O,m,608,15,1,2326.600000143051,290653.7999999523,7700,NTS,A,3
6,4,test,1,B,triangle.png,1,m,Mon Sep 22 2025 15:12:18 GMT-0500 (Central Daylight Time),294749.0,1000,O,m,743,5,1,1764.5,292984.5,7700,NTS,A,4
3,5,test,1,B,triangle.png,1,z,Mon Sep 22 2025 15:12:18 GMT-0500 (Central Daylight Time),297013.2999999523,1600,O,z,634,3,1,2261.7999999523163,294751.5,7700,NTS,A,5
9,6,test,1,B,triangle.png,1,z,Mon Sep 22 2025 15:12:18 GMT-0500 (Central Daylight Time),299829.2000000477,1900,O,z,884,16,1,2811.0999999046326,297018.10000014305,7700,NTS,A,6
4,7,test,1,B,triangle.png,1,m,Mon Sep 22 2025 15:12:18 GMT-0500 (Central Daylight Time),301710.40000009537,1000,O,m,854,12,1,1876.0,299834.40000009537,7700,NTS,A,7
7,8,test,1,B,triangle.png,1,z,Mon Sep 22 2025 15:12:18 GMT-0500 (Central Daylight Time),304693.5,1600,O,z,1357,14,1,2979.7000000476837,301713.7999999523,7700,NTS,A,8
6,9,test,1,B,triangle.png,1,m,Mon Sep 22 2025 15:12:18 GMT-0500 (Central Daylight Time),306310.5,1000,O,m,599,5,1,1612.0999999046326,304698.40000009537,7700,NTS,A,9
3,10,test,1,B,triangle.png,1,z,Mon Sep 22 2025 15:12:18 GMT-0500 (Central Daylight Time),308841.7999999523,1600,O,z,910,3,1,2527.199999809265,306314.60000014305,7700,NTS,A,10
4,11,test,1,B,triangle.png,1,m,Mon Sep 22 2025 15:12:18 GMT-0500 (Central Daylight Time),311192.60000014305,1500,O,m,832,4,1,2346.100000143051,308846.5,7700,NTS,A,11
2,11,test,1,B,triangle.png,0,m,Mon Sep 22 2025 15:12:18 GMT-0500 (Central Daylight Time),313925.2000000477,1200,O,None,1516,10,1,2727.0999999046326,311198.10000014305,7700,NTS,A,12
9,12,test,1,B,triangle.png,1,z,Mon Sep 22 2025 15:12:18 GMT-0500 (Central Daylight Time),316207.2000000477,1400,O,z,857,8,1,2276.2000000476837,313931.0,7700,NTS,A,13
2,13,test,1,B,triangle.png,1,m,Mon Sep 22 2025 15:12:18 GMT-0500 (Central Daylight Time),319155.2000000477,1700,O,m,1227,2,1,2942.7999999523163,316212.40000009537,7700,NTS,A,14
2,14,test,1,B,triangle.png,1,m,Mon Sep 22 2025 15:12:18 GMT-0500 (Central Daylight Time),322188.7000000477,1700,O,m,1301,2,1,3030.9000000953674,319157.7999999523,7700,NTS,A,15
7,15,test,1,B,triangle.png,1,z,Mon Sep 22 2025 15:12:18 GMT-0500 (Central Daylight Time),324904.2999999523,2000,O,z,702,6,1,2710.0999999046326,322194.2000000477,7700,NTS,A,16
6,16,test,1,B,triangle.png,1,m,Mon Sep 22 2025 15:12:18 GMT-0500 (Central Daylight Time),327135.90000009537,1500,O,m,712,13,1,2226.9000000953674,324909.0,7700,NTS,A,17
9,17,test,1,B,triangle.png,1,z,Mon Sep 22 2025 15:12:18 GMT-0500 (Central Daylight Time),329801.7999999523,1900,O,z,736,16,1,2662.399999856949,327139.40000009537,7700,NTS,A,18
6,18,test,1,B,triangle.png,1,m,Mon Sep 22 2025 15:12:18 GMT-0500 (Central Daylight Time),332218.10000014305,1500,O,m,886,13,1,2411.5,329806.60000014305,7700,NTS,A,19
8,19,test,1,B,triangle.png,1,m,Mon Sep 22 2025 15:12:18 GMT-0500 (Central Daylight Time),333983.7000000477,1200,O,m,538,7,1,1759.9000000953674,332223.7999999523,7700,NTS,A,20
8,20,test,1,B,triangle.png,1,m,Mon Sep 22 2025 15:12:18 GMT-0500 (Central Daylight Time),336216.2000000477,1700,O,m,505,15,1,2228.2999999523163,333987.90000009537,7700,NTS,A,21
1,21,test,1,B,triangle.png,1,z,Mon Sep 22 2025 15:12:18 GMT-0500 (Central Daylight Time),338931.7000000477,1900,O,z,783,1,1,2709.2000000476837,336222.5,7700,NTS,A,22
3,22,test,1,B,triangle.png,1,z,Mon Sep 22 2025 15:12:18 GMT-0500 (Central Daylight Time),341781.10000014305,2000,O,z,825,11,1,2846.9000000953674,338934.2000000477,7700,NTS,A,23
9,23,test,1,B,triangle.png,1,z,Mon Sep 22 2025 15:12:18 GMT-0500 (Central Daylight Time),344599.60000014305,1400,O,z,1400,8,1,2812.0,341787.60000014305,7700,NTS,A,24
1,0,prac,1,C,circle.png,0,z,Mon Sep 22 2025 15:12:18 GMT-0500 (Central Daylight Time),389934.0,1700,O,None,1517,1,1,3992.5,385941.5,7700,NTS,A,1
7,0,prac,1,C,triangle.png,0,z,Mon Sep 22 2025 15:12:18 GMT-0500 (Central Daylight Time),393416.40000009537,1200,O,None,1511,6,1,3474.7999999523163,389941.60000014305,7700,NTS,A,2
4,0,prac,1,C,circle.png,0,z,Mon Sep 22 2025 15:12:18 GMT-0500 (Central Daylight Time),396114.60000014305,1000,O,m,911,4,1,2690.800000190735,393423.7999999523,7700,NTS,A,3
6,0,prac,1,C,circle.png,0,m,Mon Sep 22 2025 15:12:18 GMT-0500 (Central Daylight Time),400414.40000009537,2000,O,None,1516,5,1,4292.100000143051,396122.2999999523,7700,NTS,A,4
3,0,prac,1,C,triangle.png,0,z,Mon Sep 22 2025 15:12:18 GMT-0500 (Central Daylight Time),404212.90000009537,1500,O,None,1516,3,1,3792.2999999523163,400420.60000014305,7700,NTS,A,5
9,1,prac,1,C,circle.png,1,m,Mon Sep 22 2025 15:12:18 GMT-0500 (Central Daylight Time),408161.40000009537,1900,O,m,1253,8,1,3940.600000143051,404220.7999999523,7700,NTS,A,6
9,2,prac,1,C,circle.png,1,m,Mon Sep 22 2025 15:12:18 GMT-0500 (Central Daylight Time),411877.10000014305,1900,O,m,1039,8,1,3709.2000000476837,408167.90000009537,7700,NTS,A,7
2,2,prac,1,C,triangle.png,0,m,Mon Sep 22 2025 15:12:18 GMT-0500 (Central Daylight Time),415574.7999999523,1600,O,z,1306,2,1,3690.2999999523163,411884.5,7700,NTS,A,8
3,2,prac,1,C,triangle.png,0,z,Mon Sep 22 2025 15:12:18 GMT-0500 (Central Daylight Time),419373.60000014305,1500,O,None,1514,3,1,3792.4000000953674,415581.2000000477,7700,NTS,A,9
8,3,prac,1,C,triangle.png,1,m,Mon Sep 22 2025 15:12:18 GMT-0500 (Central Daylight Time),422506.90000009537,1400,O,m,935,7,1,3127.7999999523163,419379.10000014305,7700,NTS,A,10
1,4,prac,1,C,circle.png,1,z,Mon Sep 22 2025 15:12:18 GMT-0500 (Central Daylight Time),426272.2000000477,1700,O,z,1286,1,1,3758.0999999046326,422514.10000014305,7700,NTS,A,11
4,4,prac,1,C,circle.png,0,z,Mon Sep 22 2025 15:12:18 GMT-0500 (Central Daylight Time),429569.60000014305,1000,O,None,1516,4,1,3288.0,426281.60000014305,7700,NTS,A,12
7,0,prac,2,C,triangle.png,0,z,Mon Sep 22 2025 15:12:18 GMT-0500 (Central Daylight Time),481153.0,1200,O,None,1517,6,1,3489.5,477663.5,7700,NTS,A,1
9,1,prac,2,C,circle.png,1,m,Mon Sep 22 2025 15:12:18 GMT-0500 (Central Daylight Time),484869.10000014305,1900,O,m,1032,8,1,3708.7000000476837,481160.40000009537,7700,NTS,A,2
6,2,prac,2,C,circle.png,1,m,Mon Sep 22 2025 15:12:18 GMT-0500 (Central Daylight Time),488901.5,2000,O,m,1247,5,1,4026.2999999523163,484875.2000000477,7700,NTS,A,3
8,2,prac,2,C,triangle.png,0,m,Mon Sep 22 2025 15:12:18 GMT-0500 (Central Daylight Time),492600.2999999523,1400,O,None,1515,7,1,3687.7999999523163,488912.5,7700,NTS,A,4
9,2,prac,2,C,circle.png,0,m,Mon Sep 22 2025 15:12:18 GMT-0500 (Central Daylight Time),496533.5,1900,O,z,1264,8,1,3924.5999999046326,492608.90000009537,7700,NTS,A,5
3,2,prac,2,C,triangle.png,0,z,Mon Sep 22 2025 15:12:18 GMT-0500 (Central Daylight Time),500331.10000014305,1500,O,None,1516,3,1,3789.7000000476837,496541.40000009537,7700,NTS,A,6
8,2,prac,2,C,triangle.png,0,m,Mon Sep 22 2025 15:12:18 GMT-0500 (Central Daylight Time),503763.10000014305,1400,O,z,1234,7,1,3425.300000190735,500337.7999999523,7700,NTS,A,7
1,3,prac,2,C,circle.png,1,z,Mon Sep 22 2025 15:12:18 GMT-0500 (Central Daylight Time),507679.5,1700,O,z,1431,1,1,3909.7999999523163,503769.7000000477,7700,NTS,A,8
2,4,prac,2,C,triangle.png,1,m,Mon Sep 22 2025 15:12:18 GMT-0500 (Central Daylight Time),511410.90000009537,1600,O,m,1334,2,1,3723.600000143051,507687.2999999523,7700,NTS,A,9
7,5,prac,2,C,triangle.png,1,z,Mon Sep 22 2025 15:12:18 GMT-0500 (Central Daylight Time),514728.0,1200,O,z,1334,6,1,3309.7999999523163,511418.2000000477,7700,NTS,A,10
4,5,prac,2,C,circle.png,0,z,Mon Sep 22 2025 15:12:18 GMT-0500 (Central Daylight Time),517694.90000009537,1000,O,m,1182,4,1,2959.600000143051,514735.2999999523,7700,NTS,A,11
3,6,prac,2,C,triangle.png,1,z,Mon Sep 22 2025 15:12:18 GMT-0500 (Central Daylight Time),521475.0,1500,O,z,1492,3,1,3775.2000000476837,517699.7999999523,7700,NTS,A,12
3,1,test,1,C,circle.png,1,z,Mon Sep 22 2025 15:12:18 GMT-0500 (Central Daylight Time),556278.5,1600,O,z,1078,11,1,2690.5,553588.0,7700,NTS,A,1
1,2,test,1,C,triangle.png,1,z,Mon Sep 22 2025 15:12:18 GMT-0500 (Central Daylight Time),559179.0,1900,O,z,977,9,1,2896.399999856949,556282.600000143,7700,NTS,A,2
4,3,test,1,C,triangle.png,1,m,Mon Sep 22 2025 15:12:18 GMT-0500 (Central Daylight Time),562145.100000143,1500,O,m,1437,20,1,2962.100000143051,559183.0,7700,NTS,A,3
3,4,test,1,C,circle.png,1,z,Mon Sep 22 2025 15:12:18 GMT-0500 (Central Daylight Time),565060.100000143,1600,O,z,1285,19,1,2910.600000143051,562149.5,7700,NTS,A,4
9,5,test,1,C,circle.png,1,m,Mon Sep 22 2025 15:12:18 GMT-0500 (Central Daylight Time),567360.4000000954,1500,O,m,783,24,1,2293.7999999523163,565066.600000143,7700,NTS,A,5
4,6,test,1,C,triangle.png,1,m,Mon Sep 22 2025 15:12:18 GMT-0500 (Central Daylight Time),569908.600000143,1500,O,m,1022,12,1,2541.2000000476837,567367.4000000954,7700,NTS,A,6
2,6,test,1,C,circle.png,0,z,Mon Sep 22 2025 15:12:18 GMT-0500 (Central Daylight Time),572575.100000143,1700,O,m,942,18,1,2660.600000143051,569914.5,7700,NTS,A,7
6,7,test,1,C,circle.png,1,m,Mon Sep 22 2025 15:12:18 GMT-0500 (Central Daylight Time),575440.2000000477,1900,O,m,947,21,1,2859.5,572580.7000000477,7700,NTS,A,8
3,8,test,1,C,triangle.png,1,z,Mon Sep 22 2025 15:12:18 GMT-0500 (Central Daylight Time),578156.2000000477,1200,O,z,1484,3,1,2709.4000000953674,575446.7999999523,7700,NTS,A,9
6,9,test,1,C,triangle.png,1,m,Mon Sep 22 2025 15:12:18 GMT-0500 (Central Daylight Time),580338.4000000954,1000,O,m,1153,13,1,2175.4000000953674,578163.0,7700,NTS,A,10
7,9,test,1,C,triangle.png,0,z,Mon Sep 22 2025 15:12:18 GMT-0500 (Central Daylight Time),583571.4000000954,1700,O,None,1516,6,1,3225.0,580346.4000000954,7700,NTS,A,11
6,10,test,1,C,circle.png,1,m,Mon Sep 22 2025 15:12:18 GMT-0500 (Central Daylight Time),586719.9000000954,1900,O,m,1224,5,1,3138.600000143051,583581.2999999523,7700,NTS,A,12
1,11,test,1,C,triangle.png,1,z,Mon Sep 22 2025 15:12:18 GMT-0500 (Central Daylight Time),589918.600000143,1900,O,z,1274,17,1,3191.9000000953674,586726.7000000477,7700,NTS,A,13
4,12,test,1,C,circle.png,1,z,Mon Sep 22 2025 15:12:18 GMT-0500 (Central Daylight Time),592470.5,1400,O,z,1119,4,1,2545.899999856949,589924.600000143,7700,NTS,A,14
8,13,test,1,C,circle.png,1,m,Mon Sep 22 2025 15:12:18 GMT-0500 (Central Daylight Time),595084.600000143,1200,O,m,1392,15,1,2610.600000143051,592474.0,7700,NTS,A,15
7,13,test,1,C,triangle.png,0,z,Mon Sep 22 2025 15:12:18 GMT-0500 (Central Daylight Time),598315.5,1700,O,None,1515,22,1,3225.7000000476837,595089.7999999523,7700,NTS,A,16
8,13,test,1,C,triangle.png,0,m,Mon Sep 22 2025 15:12:18 GMT-0500 (Central Daylight Time),601449.5,1600,O,None,1516,7,1,3127.399999856949,598322.100000143,7700,NTS,A,17
9,13,test,1,C,circle.png,0,m,Mon Sep 22 2025 15:12:18 GMT-0500 (Central Daylight Time),604413.7000000477,1500,O,z,1440,8,1,2956.9000000953674,601456.7999999523,7700,NTS,A,18
1,14,test,1,C,circle.png,1,z,Mon Sep 22 2025 15:12:18 GMT-0500 (Central Daylight Time),606798.0,1000,O,z,1358,1,1,2377.7000000476837,604420.2999999523,7700,NTS,A,19
8,15,test,1,C,triangle.png,1,m,Mon Sep 22 2025 15:12:18 GMT-0500 (Central Daylight Time),609846.100000143,1600,O,m,1423,23,1,3043.5,606802.600000143,7700,NTS,A,20
9,16,test,1,C,triangle.png,1,z,Mon Sep 22 2025 15:12:18 GMT-0500 (Central Daylight Time),612613.100000143,1400,O,z,1335,16,1,2761.9000000953674,609851.2000000477,7700,NTS,A,21
2,17,test,1,C,circle.png,1,z,Mon Sep 22 2025 15:12:18 GMT-0500 (Central Daylight Time),615195.4000000954,1700,O,z,863,10,1,2577.0,612618.4000000954,7700,NTS,A,22
7,18,test,1,C,circle.png,1,m,Mon Sep 22 2025 15:12:18 GMT-0500 (Central Daylight Time),618576.7000000477,2000,O,m,1360,14,1,3377.0,615199.7000000477,7700,NTS,A,23
2,18,test,1,C,triangle.png,0,m,Mon Sep 22 2025 15:12:18 GMT-0500 (Central Daylight Time),622110.2000000477,2000,O,None,1516,2,1,3529.5,618580.7000000477,7700,NTS,A,24
7,0,test,2,C,circle.png,0,m,Mon Sep 22 2025 15:12:18 GMT-0500 (Central Daylight Time),632973.5,2000,O,None,1501,22,1,3512.2000000476837,629461.2999999523,7700,NTS,A,1
9,0,test,2,C,triangle.png,0,z,Mon Sep 22 2025 15:12:18 GMT-0500 (Central Daylight Time),635770.9000000954,1400,O,m,1367,16,1,2792.100000143051,632978.7999999523,7700,NTS,A,2
7,1,test,2,C,triangle.png,1,z,Mon Sep 22 2025 15:12:18 GMT-0500 (Central Daylight Time),638370.7000000477,1700,O,z,869,6,1,2593.5,635777.2000000477,7700,NTS,A,3
7,2,test,2,C,circle.png,1,m,Mon Sep 22 2025 15:12:18 GMT-0500 (Central Daylight Time),641618.7000000477,2000,O,m,1227,14,1,3241.7999999523163,638376.9000000954,7700,NTS,A,4
8,3,test,2,C,circle.png,1,m,Mon Sep 22 2025 15:12:18 GMT-0500 (Central Daylight Time),643870.2000000477,1200,O,m,1035,15,1,2248.2999999523163,641621.9000000954,7700,NTS,A,5
9,4,test,2,C,circle.png,1,m,Mon Sep 22 2025 15:12:18 GMT-0500 (Central Daylight Time),646417.600000143,1500,O,m,1020,8,1,2542.100000143051,643875.5,7700,NTS,A,6
8,5,test,2,C,triangle.png,1,m,Mon Sep 22 2025 15:12:18 GMT-0500 (Central Daylight Time),649066.5,1600,O,m,1018,7,1,2644.2999999523163,646422.2000000477,7700,NTS,A,7
4,5,test,2,C,circle.png,0,z,Mon Sep 22 2025 15:12:18 GMT-0500 (Central Daylight Time),651999.5,1400,O,None,1515,4,1,2927.899999856949,649071.600000143,7700,NTS,A,8
4,5,test,2,C,triangle.png,0,m,Mon Sep 22 2025 15:12:18 GMT-0500 (Central Daylight Time),655031.7000000477,1500,O,None,1514,12,1,3026.4000000953674,652005.2999999523,7700,NTS,A,9
1,6,test,2,C,triangle.png,1,z,Mon Sep 22 2025 15:12:18 GMT-0500 (Central Daylight Time),658415.4000000954,1900,O,z,1466,9,1,3376.5,655038.9000000954,7700,NTS,A,10
3,7,test,2,C,circle.png,1,z,Mon Sep 22 2025 15:12:18 GMT-0500 (Central Daylight Time),661246.9000000954,1600,O,z,1206,19,1,2828.0,658418.9000000954,7700,NTS,A,11
2,8,test,2,C,triangle.png,1,m,Mon Sep 22 2025 15:12:18 GMT-0500 (Central Daylight Time),664728.2999999523,2000,O,m,1449,2,1,3475.5999999046326,661252.7000000477,7700,NTS,A,12
4,8,test,2,C,triangle.png,0,m,Mon Sep 22 2025 15:12:18 GMT-0500 (Central Daylight Time),667660.0,1500,O,z,1397,20,1,2927.2999999523163,664732.7000000477,7700,NTS,A,13
1,9,test,2,C,triangle.png,1,z,Mon Sep 22 2025 15:12:18 GMT-0500 (Central Daylight Time),670860.5,1900,O,z,1267,17,1,3198.0999999046326,667662.4000000954,7700,NTS,A,14
8,9,test,2,C,circle.png,0,m,Mon Sep 22 2025 15:12:18 GMT-0500 (Central Daylight Time),673593.7999999523,1200,O,None,1516,23,1,2727.5,670866.2999999523,7700,NTS,A,15
6,10,test,2,C,circle.png,1,m,Mon Sep 22 2025 15:12:18 GMT-0500 (Central Daylight Time),677008.100000143,1900,O,m,1488,5,1,3407.9000000953674,673600.2000000477,7700,NTS,A,16
9,11,test,2,C,triangle.png,1,z,Mon Sep 22 2025 15:12:18 GMT-0500 (Central Daylight Time),679890.9000000954,1400,O,z,1453,24,1,2877.600000143051,677013.2999999523,7700,NTS,A,17
1,11,test,2,C,circle.png,0,z,Mon Sep 22 2025 15:12:18 GMT-0500 (Central Daylight Time),682423.2999999523,1000,O,None,1515,1,1,2525.899999856949,679897.4000000954,7700,NTS,A,18
2,11,test,2,C,circle.png,0,z,Mon Sep 22 2025 15:12:18 GMT-0500 (Central Daylight Time),685423.2999999523,1700,O,m,1283,18,1,2992.5999999046326,682430.7000000477,7700,NTS,A,19
3,11,test,2,C,circle.png,0,z,Mon Sep 22 2025 15:12:18 GMT-0500 (Central Daylight Time),688554.600000143,1600,O,None,1515,11,1,3125.600000143051,685429.0,7700,NTS,A,20
3,11,test,2,C,triangle.png,0,z,Mon Sep 22 2025 15:12:18 GMT-0500 (Central Daylight Time),691287.5,1200,O,None,1516,3,1,2726.0,688561.5,7700,NTS,A,21
6,11,test,2,C,triangle.png,0,m,Mon Sep 22 2025 15:12:18 GMT-0500 (Central Daylight Time),693819.4000000954,1000,O,None,1514,21,1,2526.600000143051,691292.7999999523,7700,NTS,A,22
2,12,test,2,C,circle.png,1,z,Mon Sep 22 2025 15:12:18 GMT-0500 (Central Daylight Time),696935.7000000477,1700,O,z,1400,10,1,3110.5999999046326,693825.100000143,7700,NTS,A,23
6,12,test,2,C,triangle.png,0,m,Mon Sep 22 2025 15:12:18 GMT-0500 (Central Daylight Time),699385.0,1000,O,z,1433,13,1,2442.5999999046326,696942.4000000954,7700,NTS,A,24
3,0,test,3,C,triangle.png,0,z,Mon Sep 22 2025 15:12:18 GMT-0500 (Central Daylight Time),704132.0,1200,O,None,1516,19,1,2724.7999999523163,701407.2000000477,7700,NTS,A,1
1,1,test,3,C,circle.png,1,z,Mon Sep 22 2025 15:12:18 GMT-0500 (Central Daylight Time),706297.9000000954,1000,O,z,1144,1,1,2158.0,704139.9000000954,7700,NTS,A,2
8,2,test,3,C,triangle.png,1,m,Mon Sep 22 2025 15:12:18 GMT-0500 (Central Daylight Time),709064.2000000477,1600,O,m,1147,23,1,2758.9000000953674,706305.2999999523,7700,NTS,A,3
9,2,test,3,C,triangle.png,0,z,Mon Sep 22 2025 15:12:18 GMT-0500 (Central Daylight Time),711996.0,1400,O,None,1516,16,1,2924.5999999046326,709071.4000000954,7700,NTS,A,4
6,2,test,3,C,circle.png,0,m,Mon Sep 22 2025 15:12:18 GMT-0500 (Central Daylight Time),715428.7999999523,1900,O,None,1517,5,1,3425.399999856949,712003.4000000954,7700,NTS,A,5
7,2,test,3,C,circle.png,0,m,Mon Sep 22 2025 15:12:18 GMT-0500 (Central Daylight Time),718877.2999999523,2000,O,z,1423,14,1,3440.899999856949,715436.4000000954,7700,NTS,A,6
7,3,test,3,C,triangle.png,1,z,Mon Sep 22 2025 15:12:18 GMT-0500 (Central Daylight Time),721909.7999999523,1700,O,z,1307,6,1,3025.699999809265,718884.100000143,7700,NTS,A,7
3,3,test,3,C,circle.png,0,z,Mon Sep 22 2025 15:12:18 GMT-0500 (Central Daylight Time),724809.0,1600,O,m,1271,11,1,2891.2999999523163,721917.7000000477,7700,NTS,A,8
2,3,test,3,C,circle.png,0,z,Mon Sep 22 2025 15:12:18 GMT-0500 (Central Daylight Time),728042.2999999523,1700,O,None,1516,10,1,3228.2999999523163,724814.0,7700,NTS,A,9
2,3,test,3,C,triangle.png,0,m,Mon Sep 22 2025 15:12:18 GMT-0500 (Central Daylight Time),731374.5,2000,O,z,1307,2,1,3323.0,728051.5,7700,NTS,A,10
4,3,test,3,C,circle.png,0,z,Mon Sep 22 2025 15:12:18 GMT-0500 (Central Daylight Time),734306.2999999523,1400,O,None,1515,20,1,2928.5999999046326,731377.7000000477,7700,NTS,A,11
3,4,test,3,C,triangle.png,1,z,Mon Sep 22 2025 15:12:18 GMT-0500 (Central Daylight Time),736639.7000000477,1200,O,z,1109,3,1,2327.4000000953674,734312.2999999523,7700,NTS,A,12
4,4,test,3,C,circle.png,0,z,Mon Sep 22 2025 15:12:18 GMT-0500 (Central Daylight Time),739572.0,1400,O,None,1516,4,1,2927.0,736645.0,7700,NTS,A,13
7,5,test,3,C,triangle.png,1,z,Mon Sep 22 2025 15:12:18 GMT-0500 (Central Daylight Time),742687.100000143,1700,O,z,1399,22,1,3108.4000000953674,739578.7000000477,7700,NTS,A,14
9,5,test,3,C,circle.png,0,m,Mon Sep 22 2025 15:12:18 GMT-0500 (Central Daylight Time),745721.100000143,1500,O,None,1516,24,1,3027.100000143051,742694.0,7700,NTS,A,15
6,6,test,3,C,triangle.png,1,m,Mon Sep 22 2025 15:12:18 GMT-0500 (Central Daylight Time),746885.2000000477,1000,O,m,143,13,1,1157.2000000476837,745728.0,7700,NTS,A,16
9,7,test,3,C,circle.png,1,m,Mon Sep 22 2025 15:12:18 GMT-0500 (Central Daylight Time),749701.7999999523,1500,O,m,1284,8,1,2811.399999856949,746890.4000000954,7700,NTS,A,17
4,7,test,3,C,triangle.png,0,m,Mon Sep 22 2025 15:12:18 GMT-0500 (Central Daylight Time),752734.600000143,1500,O,None,1517,12,1,3025.7000000476837,749708.9000000954,7700,NTS,A,18
8,7,test,3,C,circle.png,0,m,Mon Sep 22 2025 15:12:18 GMT-0500 (Central Daylight Time),755464.5,1200,O,None,1514,15,1,2723.899999856949,752740.600000143,7700,NTS,A,19
1,8,test,3,C,triangle.png,1,z,Mon Sep 22 2025 15:12:18 GMT-0500 (Central Daylight Time),758865.600000143,1900,O,z,1492,9,1,3398.100000143051,755467.5,7700,NTS,A,20
6,9,test,3,C,circle.png,1,m,Mon Sep 22 2025 15:12:18 GMT-0500 (Central Daylight Time),762162.5,1900,O,m,1376,21,1,3292.399999856949,758870.100000143,7700,NTS,A,21
8,10,test,3,C,triangle.png,1,m,Mon Sep 22 2025 15:12:18 GMT-0500 (Central Daylight Time),765179.100000143,1600,O,m,1393,7,1,3014.0,762165.100000143,7700,NTS,A,22
2,10,test,3,C,triangle.png,0,m,Mon Sep 22 2025 15:12:18 GMT-0500 (Central Daylight Time),768712.600000143,2000,O,None,1517,18,1,3529.5,765183.100000143,7700,NTS,A,23
1,11,test,3,C,circle.png,1,z,Mon Sep 22 2025 15:12:18 GMT-0500 (Central Daylight Time),771061.5,1000,O,z,1325,17,1,2342.399999856949,768719.100000143,7700,NTS,A,24
3,1,test,4,C,triangle.png,1,z,Mon Sep 22 2025 15:12:18 GMT-0500 (Central Daylight Time),781741.7000000477,1200,O,z,1367,3,1,2596.4000000953674,779145.2999999523,7700,NTS,A,1
3,2,test,4,C,circle.png,1,z,Mon Sep 22 2025 15:12:18 GMT-0500 (Central Daylight Time),784523.600000143,1600,O,z,1159,11,1,2776.100000143051,781747.5,7700,NTS,A,2
6,3,test,4,C,triangle.png,1,m,Mon Sep 22 2025 15:12:18 GMT-0500 (Central Daylight Time),786623.2999999523,1000,O,m,1073,13,1,2093.7999999523163,784529.5,7700,NTS,A,3
2,3,test,4,C,triangle.png,0,m,Mon Sep 22 2025 15:12:18 GMT-0500 (Central Daylight Time),789904.7000000477,2000,O,z,1262,18,1,3272.0,786632.7000000477,7700,NTS,A,4
1,3,test,4,C,circle.png,0,z,Mon Sep 22 2025 15:12:18 GMT-0500 (Central Daylight Time),792437.4000000954,1000,O,None,1514,1,1,2526.7000000476837,789910.7000000477,7700,NTS,A,5
1,4,test,4,C,circle.png,1,z,Mon Sep 22 2025 15:12:18 GMT-0500 (Central Daylight Time),794271.2000000477,1000,O,z,814,17,1,1828.4000000953674,792442.7999999523,7700,NTS,A,6
3,5,test,4,C,triangle.png,1,z,Mon Sep 22 2025 15:12:18 GMT-0500 (Central Daylight Time),796971.0,1200,O,z,1466,19,1,2693.899999856949,794277.100000143,7700,NTS,A,7
9,6,test,4,C,circle.png,1,m,Mon Sep 22 2025 15:12:18 GMT-0500 (Central Daylight Time),799403.100000143,1500,O,m,904,24,1,2426.300000190735,796976.7999999523,7700,NTS,A,8
6,7,test,4,C,circle.png,1,m,Mon Sep 22 2025 15:12:18 GMT-0500 (Central Daylight Time),802486.2000000477,1900,O,m,1158,5,1,3077.5,799408.7000000477,7700,NTS,A,9
6,8,test,4,C,circle.png,1,m,Mon Sep 22 2025 15:12:18 GMT-0500 (Central Daylight Time),805284.9000000954,1900,O,m,865,21,1,2794.5,802490.4000000954,7700,NTS,A,10
2,9,test,4,C,circle.png,1,z,Mon Sep 22 2025 15:12:18 GMT-0500 (Central Daylight Time),808499.2000000477,1700,O,z,1484,10,1,3209.2000000476837,805290.0,7700,NTS,A,11
9,10,test,4,C,circle.png,1,m,Mon Sep 22 2025 15:12:18 GMT-0500 (Central Daylight Time),811380.2999999523,1500,O,m,1356,8,1,2872.2999999523163,808508.0,7700,NTS,A,12
7,11,test,4,C,triangle.png,1,z,Mon Sep 22 2025 15:12:18 GMT-0500 (Central Daylight Time),814362.5,1700,O,z,1250,6,1,2979.2000000476837,811383.2999999523,7700,NTS,A,13
8,11,test,4,C,triangle.png,0,m,Mon Sep 22 2025 15:12:18 GMT-0500 (Central Daylight Time),817480.2999999523,1600,O,None,1501,23,1,3115.0999999046326,814365.2000000477,7700,NTS,A,14
4,11,test,4,C,circle.png,0,z,Mon Sep 22 2025 15:12:18 GMT-0500 (Central Daylight Time),820412.2999999523,1400,O,None,1516,4,1,2925.199999809265,817487.100000143,7700,NTS,A,15
7,11,test,4,C,circle.png,0,m,Mon Sep 22 2025 15:12:18 GMT-0500 (Central Daylight Time),823943.600000143,2000,O,None,1514,14,1,3524.800000190735,820418.7999999523,7700,NTS,A,16
8,11,test,4,C,triangle.png,0,m,Mon Sep 22 2025 15:12:18 GMT-0500 (Central Daylight Time),826976.4000000954,1600,O,z,1412,7,1,3030.2000000476837,823946.2000000477,7700,NTS,A,17
8,12,test,4,C,circle.png,1,m,Mon Sep 22 2025 15:12:18 GMT-0500 (Central Daylight Time),829592.9000000954,1200,O,m,1385,15,1,2613.100000143051,826979.7999999523,7700,NTS,A,18
9,12,test,4,C,triangle.png,0,z,Mon Sep 22 2025 15:12:18 GMT-0500 (Central Daylight Time),832509.9000000954,1400,O,None,1501,16,1,2912.5,829597.4000000954,7700,NTS,A,19
4,12,test,4,C,circle.png,0,z,Mon Sep 22 2025 15:12:18 GMT-0500 (Central Daylight Time),835374.2000000477,1400,O,m,1441,20,1,2859.7999999523163,832514.4000000954,7700,NTS,A,20
7,13,test,4,C,triangle.png,1,z,Mon Sep 22 2025 15:12:18 GMT-0500 (Central Daylight Time),838425.2000000477,1700,O,z,1323,22,1,3042.5,835382.7000000477,7700,NTS,A,21
2,14,test,4,C,triangle.png,1,m,Mon Sep 22 2025 15:12:18 GMT-0500 (Central Daylight Time),841472.5,2000,O,m,1028,2,1,3040.399999856949,838432.100000143,7700,NTS,A,22
4,15,test,4,C,triangle.png,1,m,Mon Sep 22 2025 15:12:18 GMT-0500 (Central Daylight Time),843838.7000000477,1500,O,m,831,12,1,2360.0,841478.7000000477,7700,NTS,A,23
1,16,test,4,C,triangle.png,1,z,Mon Sep 22 2025 15:12:18 GMT-0500 (Central Daylight Time),846438.5,1900,O,z,666,9,1,2592.7999999523163,843845.7000000477,7700,NTS,A,24
