block_c,block_dur,condition,countdown,datetime,endtime,list,multichar_response,project,response,response_time,session_number,start_end,starttime,subject_id,task,task_vers,trial
,,,,Wed Jun 11 2025 15:58:46 GMT-0500 (Central Daylight Time),,,,O,space,368,1,,,7164,WL,B,
prac,,0,,Wed Jun 11 2025 15:58:46 GMT-0500 (Central Daylight Time),,NA,b,O,b,4288,1,,,7164,WL,B,1.0
prac,,0,,Wed Jun 11 2025 15:58:46 GMT-0500 (Central Daylight Time),,NA,bo,O,o,187,1,,,7164,WL,B,1.0
prac,,0,,Wed Jun 11 2025 15:58:46 GMT-0500 (Central Daylight Time),,NA,boo,O,o,189,1,,,7164,WL,B,1.0
prac,,0,,Wed Jun 11 2025 15:58:46 GMT-0500 (Central Daylight Time),,NA,boos,O,s,149,1,,,7164,WL,B,1.0
prac,,0,,Wed Jun 11 2025 15:58:46 GMT-0500 (Central Daylight Time),,NA,boost,O,t,70,1,,,7164,WL,B,1.0
prac,,0,,Wed Jun 11 2025 15:58:46 GMT-0500 (Central Daylight Time),,NA,boostenter,O,enter,1284,1,,,7164,WL,B,1.0
1,5.515999794006348,learn,54484.00020599365,Wed Jun 11 2025 15:58:46 GMT-0500 (Central Daylight Time),124321.89999985695,A,s,O,s,5481,1,5514.399999856949,118807.5,7164,WL,B,1.0
1,5.613999843597412,learn,54386.00015640259,Wed Jun 11 2025 15:58:46 GMT-0500 (Central Daylight Time),124420.5,A,st,O,t,66,1,5613.0,118807.5,7164,WL,B,1.0
1,5.680999994277954,learn,54319.000005722046,Wed Jun 11 2025 15:58:46 GMT-0500 (Central Daylight Time),124487.29999995232,A,str,O,r,52,1,5679.799999952316,118807.5,7164,WL,B,1.0
1,5.832000017166138,learn,54167.99998283386,Wed Jun 11 2025 15:58:46 GMT-0500 (Central Daylight Time),124638.29999995232,A,stre,O,e,130,1,5830.799999952316,118807.5,7164,WL,B,1.0
1,6.014999866485596,learn,53985.000133514404,Wed Jun 11 2025 15:58:46 GMT-0500 (Central Daylight Time),124821.5,A,stree,O,e,141,1,6014.0,118807.5,7164,WL,B,1.0
1,6.332000017166138,learn,53667.99998283386,Wed Jun 11 2025 15:58:46 GMT-0500 (Central Daylight Time),125138.09999990463,A,street,O,t,267,1,6330.599999904633,118807.5,7164,WL,B,1.0
1,6.947000026702881,learn,53052.99997329712,Wed Jun 11 2025 15:58:46 GMT-0500 (Central Daylight Time),125753.39999985695,A,streetenter,O,enter,583,1,6945.899999856949,118807.5,7164,WL,B,1.0
1,8.830999851226807,learn,51169.00014877319,Wed Jun 11 2025 15:58:46 GMT-0500 (Central Daylight Time),127637.0,A,g,O,g,1875,1,1883.0,125754.0,7164,WL,B,2.0
1,9.04699993133545,learn,50953.00006866455,Wed Jun 11 2025 15:58:46 GMT-0500 (Central Daylight Time),127853.19999980927,A,gr,O,r,192,1,2099.199999809265,125754.0,7164,WL,B,2.0
1,9.19700002670288,learn,50802.99997329712,Wed Jun 11 2025 15:58:46 GMT-0500 (Central Daylight Time),128003.5,A,gra,O,a,115,1,2249.5,125754.0,7164,WL,B,2.0
1,9.246999979019165,learn,50753.000020980835,Wed Jun 11 2025 15:58:46 GMT-0500 (Central Daylight Time),128052.79999995232,A,gras,O,s,17,1,2298.7999999523163,125754.0,7164,WL,B,2.0
1,9.447999954223633,learn,50552.00004577637,Wed Jun 11 2025 15:58:46 GMT-0500 (Central Daylight Time),128253.69999980927,A,grass,O,s,176,1,2499.699999809265,125754.0,7164,WL,B,2.0
1,9.879999876022339,learn,50120.00012397766,Wed Jun 11 2025 15:58:46 GMT-0500 (Central Daylight Time),128685.69999980927,A,grassenter,O,enter,402,1,2931.699999809265,125754.0,7164,WL,B,2.0
1,10.879999876022339,learn,49120.00012397766,Wed Jun 11 2025 15:58:46 GMT-0500 (Central Daylight Time),129686.59999990463,A,d,O,d,983,1,1000.4000000953674,128686.19999980927,7164,WL,B,3.0
1,11.030999898910522,learn,48969.00010108948,Wed Jun 11 2025 15:58:46 GMT-0500 (Central Daylight Time),129836.69999980927,A,do,O,o,121,1,1150.5,128686.19999980927,7164,WL,B,3.0
1,11.212999820709229,learn,48787.00017929077,Wed Jun 11 2025 15:58:46 GMT-0500 (Central Daylight Time),130018.89999985695,A,doo,O,o,138,1,1332.7000000476837,128686.19999980927,7164,WL,B,3.0
1,11.379999876022339,learn,48620.00012397766,Wed Jun 11 2025 15:58:46 GMT-0500 (Central Daylight Time),130186.0,A,door,O,r,145,1,1499.8000001907349,128686.19999980927,7164,WL,B,3.0
1,11.76199984550476,learn,48238.00015449524,Wed Jun 11 2025 15:58:46 GMT-0500 (Central Daylight Time),130568.5,A,doorenter,O,enter,357,1,1882.3000001907349,128686.19999980927,7164,WL,B,3.0
1,12.396999835968018,learn,47603.00016403198,Wed Jun 11 2025 15:58:46 GMT-0500 (Central Daylight Time),131202.69999980927,A,a,O,a,611,1,633.8999998569489,130568.79999995232,7164,WL,B,4.0
1,12.546000003814697,learn,47453.9999961853,Wed Jun 11 2025 15:58:46 GMT-0500 (Central Daylight Time),131351.69999980927,A,ar,O,r,117,1,782.8999998569489,130568.79999995232,7164,WL,B,4.0
1,13.046000003814697,learn,46953.9999961853,Wed Jun 11 2025 15:58:46 GMT-0500 (Central Daylight Time),131852.39999985695,A,arm,O,m,475,1,1283.5999999046326,130568.79999995232,7164,WL,B,4.0
1,13.52899980545044,learn,46471.00019454956,Wed Jun 11 2025 15:58:46 GMT-0500 (Central Daylight Time),132334.59999990463,A,armenter,O,enter,443,1,1765.7999999523163,130568.79999995232,7164,WL,B,4.0
1,14.27899980545044,learn,45721.00019454956,Wed Jun 11 2025 15:58:46 GMT-0500 (Central Daylight Time),133085.59999990463,A,s,O,s,742,1,750.7000000476837,132334.89999985695,7164,WL,B,5.0
1,14.411999940872192,learn,45588.00005912781,Wed Jun 11 2025 15:58:46 GMT-0500 (Central Daylight Time),133218.5,A,st,O,t,99,1,883.6000001430511,132334.89999985695,7164,WL,B,5.0
1,14.561999797821045,learn,45438.000202178955,Wed Jun 11 2025 15:58:46 GMT-0500 (Central Daylight Time),133367.79999995232,A,sta,O,a,116,1,1032.9000000953674,132334.89999985695,7164,WL,B,5.0
1,14.711999893188477,learn,45288.00010681152,Wed Jun 11 2025 15:58:46 GMT-0500 (Central Daylight Time),133518.19999980927,A,star,O,r,132,1,1183.2999999523163,132334.89999985695,7164,WL,B,5.0
1,15.495999813079834,learn,44504.000186920166,Wed Jun 11 2025 15:58:46 GMT-0500 (Central Daylight Time),134301.59999990463,A,starenter,O,enter,759,1,1966.7000000476837,132334.89999985695,7164,WL,B,5.0
1,15.960999965667725,learn,44039.000034332275,Wed Jun 11 2025 15:58:46 GMT-0500 (Central Daylight Time),134767.5,A,w,O,w,455,1,465.60000014305115,134301.89999985695,7164,WL,B,6.0
1,16.27899980545044,learn,43721.00019454956,Wed Jun 11 2025 15:58:46 GMT-0500 (Central Daylight Time),135084.59999990463,A,wi,O,i,293,1,782.7000000476837,134301.89999985695,7164,WL,B,6.0
1,16.478999853134155,learn,43521.000146865845,Wed Jun 11 2025 15:58:46 GMT-0500 (Central Daylight Time),135285.29999995232,A,wif,O,f,172,1,983.4000000953674,134301.89999985695,7164,WL,B,6.0
1,16.527999877929688,learn,43472.00012207031,Wed Jun 11 2025 15:58:46 GMT-0500 (Central Daylight Time),135333.69999980927,A,wife,O,e,25,1,1031.7999999523163,134301.89999985695,7164,WL,B,6.0
1,16.74399995803833,learn,43256.00004196167,Wed Jun 11 2025 15:58:46 GMT-0500 (Central Daylight Time),135550.19999980927,A,wifeenter,O,enter,206,1,1248.2999999523163,134301.89999985695,7164,WL,B,6.0
1,17.32799983024597,learn,42672.00016975403,Wed Jun 11 2025 15:58:46 GMT-0500 (Central Daylight Time),136134.0,A,p,O,p,574,1,583.6000001430511,135550.39999985695,7164,WL,B,7.0
1,17.560999870300293,learn,42439.00012969971,Wed Jun 11 2025 15:58:46 GMT-0500 (Central Daylight Time),136367.19999980927,A,pu,O,u,203,1,816.7999999523163,135550.39999985695,7164,WL,B,7.0
1,17.72699999809265,learn,42273.00000190735,Wed Jun 11 2025 15:58:46 GMT-0500 (Central Daylight Time),136533.59999990463,A,pup,O,p,141,1,983.2000000476837,135550.39999985695,7164,WL,B,7.0
1,18.044999837875366,learn,41955.000162124634,Wed Jun 11 2025 15:58:46 GMT-0500 (Central Daylight Time),136850.79999995232,A,pupi,O,i,297,1,1300.4000000953674,135550.39999985695,7164,WL,B,7.0
1,18.32699990272522,learn,41673.00009727478,Wed Jun 11 2025 15:58:46 GMT-0500 (Central Daylight Time),137133.29999995232,A,pupil,O,l,246,1,1582.9000000953674,135550.39999985695,7164,WL,B,7.0
1,19.609999895095825,learn,40390.000104904175,Wed Jun 11 2025 15:58:46 GMT-0500 (Central Daylight Time),138415.89999985695,A,pupilenter,O,enter,1261,1,2865.5,135550.39999985695,7164,WL,B,7.0
1,33.85599994659424,learn,26144.00005340576,Wed Jun 11 2025 15:58:46 GMT-0500 (Central Daylight Time),152662.09999990463,A,l,O,l,14229,1,14245.900000095367,138416.19999980927,7164,WL,B,8.0
1,34.03999996185303,learn,25960.000038146973,Wed Jun 11 2025 15:58:46 GMT-0500 (Central Daylight Time),152845.69999980927,A,la,O,a,146,1,14429.5,138416.19999980927,7164,WL,B,8.0
1,34.58899998664856,learn,25411.00001335144,Wed Jun 11 2025 15:58:46 GMT-0500 (Central Daylight Time),153395.19999980927,A,lak,O,k,508,1,14979.0,138416.19999980927,7164,WL,B,8.0
1,34.73899984359741,learn,25261.000156402588,Wed Jun 11 2025 15:58:46 GMT-0500 (Central Daylight Time),153544.89999985695,A,lake,O,e,109,1,15128.700000047684,138416.19999980927,7164,WL,B,8.0
1,34.92199993133545,learn,25078.00006866455,Wed Jun 11 2025 15:58:46 GMT-0500 (Central Daylight Time),153727.59999990463,A,lakeenter,O,enter,161,1,15311.400000095367,138416.19999980927,7164,WL,B,8.0
1,35.72199988365173,learn,24278.000116348267,Wed Jun 11 2025 15:58:46 GMT-0500 (Central Daylight Time),154528.29999995232,A,c,O,c,782,1,800.2999999523163,153728.0,7164,WL,B,9.0
1,35.776000022888184,learn,24223.999977111816,Wed Jun 11 2025 15:58:46 GMT-0500 (Central Daylight Time),154581.79999995232,A,ca,O,a,17,1,853.7999999523163,153728.0,7164,WL,B,9.0
1,36.08799982070923,learn,23912.00017929077,Wed Jun 11 2025 15:58:46 GMT-0500 (Central Daylight Time),154894.5,A,cab,O,b,295,1,1166.5,153728.0,7164,WL,B,9.0
1,36.27199983596802,learn,23728.000164031982,Wed Jun 11 2025 15:58:46 GMT-0500 (Central Daylight Time),155077.79999995232,A,cabi,O,i,154,1,1349.7999999523163,153728.0,7164,WL,B,9.0
1,36.371999979019165,learn,23628.000020980835,Wed Jun 11 2025 15:58:46 GMT-0500 (Central Daylight Time),155177.79999995232,A,cabin,O,n,68,1,1449.7999999523163,153728.0,7164,WL,B,9.0
1,36.75399994850159,learn,23246.000051498413,Wed Jun 11 2025 15:58:46 GMT-0500 (Central Daylight Time),155560.29999995232,A,cabinenter,O,enter,359,1,1832.2999999523163,153728.0,7164,WL,B,9.0
1,48.61800003051758,learn,11381.999969482422,Wed Jun 11 2025 15:58:46 GMT-0500 (Central Daylight Time),167424.09999990463,A,p,O,p,11845,1,11863.5,155560.59999990463,7164,WL,B,10.0
1,48.75099992752075,learn,11249.000072479248,Wed Jun 11 2025 15:58:46 GMT-0500 (Central Daylight Time),167556.89999985695,A,pe,O,e,96,1,11996.299999952316,155560.59999990463,7164,WL,B,10.0
1,48.799999952316284,learn,11200.000047683716,Wed Jun 11 2025 15:58:46 GMT-0500 (Central Daylight Time),167606.29999995232,A,per,O,r,30,1,12045.700000047684,155560.59999990463,7164,WL,B,10.0
1,48.94999980926514,learn,11050.000190734863,Wed Jun 11 2025 15:58:46 GMT-0500 (Central Daylight Time),167756.5,A,peri,O,i,140,1,12195.900000095367,155560.59999990463,7164,WL,B,10.0
1,49.20099997520447,learn,10799.000024795532,Wed Jun 11 2025 15:58:46 GMT-0500 (Central Daylight Time),168006.79999995232,A,peril,O,l,229,1,12446.200000047684,155560.59999990463,7164,WL,B,10.0
1,49.68299984931946,learn,10317.000150680542,Wed Jun 11 2025 15:58:46 GMT-0500 (Central Daylight Time),168489.39999985695,A,perilenter,O,enter,459,1,12928.799999952316,155560.59999990463,7164,WL,B,10.0
1,55.08200001716614,learn,4917.999982833862,Wed Jun 11 2025 15:58:46 GMT-0500 (Central Daylight Time),173888.39999985695,A,a,O,a,5380,1,5398.700000047684,168489.69999980927,7164,WL,B,11.0
1,55.31599998474121,learn,4684.000015258789,Wed Jun 11 2025 15:58:46 GMT-0500 (Central Daylight Time),174122.0,A,ar,O,r,202,1,5632.300000190735,168489.69999980927,7164,WL,B,11.0
1,55.51599979400635,learn,4484.000205993652,Wed Jun 11 2025 15:58:46 GMT-0500 (Central Daylight Time),174321.89999985695,A,arm,O,m,168,1,5832.200000047684,168489.69999980927,7164,WL,B,11.0
1,56.19799995422363,learn,3802.000045776367,Wed Jun 11 2025 15:58:46 GMT-0500 (Central Daylight Time),175003.89999985695,A,armenter,O,enter,661,1,6514.200000047684,168489.69999980927,7164,WL,B,11.0
1,60.014999866485596,learn,-14.999866485595703,Wed Jun 11 2025 15:58:46 GMT-0500 (Central Daylight Time),178820.39999985695,A,None,O,None,3810,1,3816.2999999523163,175004.09999990463,7164,WL,B,12.0
2,1.182999849319458,learn,58817.00015068054,Wed Jun 11 2025 15:58:46 GMT-0500 (Central Daylight Time),252163.39999985695,A,s,O,s,1143,1,1182.7999999523163,250980.59999990463,7164,WL,B,1.0
2,1.3659999370574951,learn,58634.000062942505,Wed Jun 11 2025 15:58:46 GMT-0500 (Central Daylight Time),252346.39999985695,A,st,O,t,147,1,1365.7999999523163,250980.59999990463,7164,WL,B,1.0
2,1.4210000038146973,learn,58578.9999961853,Wed Jun 11 2025 15:58:46 GMT-0500 (Central Daylight Time),252401.29999995232,A,str,O,r,22,1,1420.7000000476837,250980.59999990463,7164,WL,B,1.0
2,1.5989999771118164,learn,58401.00002288818,Wed Jun 11 2025 15:58:46 GMT-0500 (Central Daylight Time),252579.19999980927,A,stre,O,e,147,1,1598.5999999046326,250980.59999990463,7164,WL,B,1.0
2,1.7990000247955322,learn,58200.99997520447,Wed Jun 11 2025 15:58:46 GMT-0500 (Central Daylight Time),252779.29999995232,A,stree,O,e,169,1,1798.7000000476837,250980.59999990463,7164,WL,B,1.0
2,1.9500000476837158,learn,58049.999952316284,Wed Jun 11 2025 15:58:46 GMT-0500 (Central Daylight Time),252929.5,A,street,O,t,110,1,1948.9000000953674,250980.59999990463,7164,WL,B,1.0
2,2.4649999141693115,learn,57535.00008583069,Wed Jun 11 2025 15:58:46 GMT-0500 (Central Daylight Time),253444.69999980927,A,streetenter,O,enter,487,1,2464.0999999046326,250980.59999990463,7164,WL,B,1.0
2,2.8489999771118164,learn,57151.00002288818,Wed Jun 11 2025 15:58:46 GMT-0500 (Central Daylight Time),253828.79999995232,A,g,O,g,369,1,383.7999999523163,253445.0,7164,WL,B,2.0
2,3.065000057220459,learn,56934.99994277954,Wed Jun 11 2025 15:58:46 GMT-0500 (Central Daylight Time),254045.29999995232,A,gr,O,r,200,1,600.2999999523163,253445.0,7164,WL,B,2.0
2,3.2319998741149902,learn,56768.00012588501,Wed Jun 11 2025 15:58:46 GMT-0500 (Central Daylight Time),254212.39999985695,A,gra,O,a,125,1,767.3999998569489,253445.0,7164,WL,B,2.0
2,3.447999954223633,learn,56552.00004577637,Wed Jun 11 2025 15:58:46 GMT-0500 (Central Daylight Time),254428.29999995232,A,gras,O,s,195,1,983.2999999523163,253445.0,7164,WL,B,2.0
2,3.631999969482422,learn,56368.00003051758,Wed Jun 11 2025 15:58:46 GMT-0500 (Central Daylight Time),254612.29999995232,A,grass,O,s,151,1,1167.2999999523163,253445.0,7164,WL,B,2.0
2,4.080999851226807,learn,55919.00014877319,Wed Jun 11 2025 15:58:46 GMT-0500 (Central Daylight Time),255061.0,A,grassenter,O,enter,412,1,1616.0,253445.0,7164,WL,B,2.0
2,4.565000057220459,learn,55434.99994277954,Wed Jun 11 2025 15:58:46 GMT-0500 (Central Daylight Time),255545.19999980927,A,d,O,d,464,1,483.7999999523163,255061.39999985695,7164,WL,B,3.0
2,4.764999866485596,learn,55235.000133514404,Wed Jun 11 2025 15:58:46 GMT-0500 (Central Daylight Time),255745.09999990463,A,do,O,o,167,1,683.7000000476837,255061.39999985695,7164,WL,B,3.0
2,4.9649999141693115,learn,55035.00008583069,Wed Jun 11 2025 15:58:46 GMT-0500 (Central Daylight Time),255945.19999980927,A,doo,O,o,160,1,883.7999999523163,255061.39999985695,7164,WL,B,3.0
2,5.115000009536743,learn,54884.99999046326,Wed Jun 11 2025 15:58:46 GMT-0500 (Central Daylight Time),256094.79999995232,A,door,O,r,121,1,1033.4000000953674,255061.39999985695,7164,WL,B,3.0
2,5.38100004196167,learn,54618.99995803833,Wed Jun 11 2025 15:58:46 GMT-0500 (Central Daylight Time),256360.5,A,doorenter,O,enter,231,1,1299.1000001430511,255061.39999985695,7164,WL,B,3.0
2,5.7820000648498535,learn,54217.99993515015,Wed Jun 11 2025 15:58:46 GMT-0500 (Central Daylight Time),256761.5,A,a,O,a,381,1,400.7000000476837,256360.79999995232,7164,WL,B,4.0
2,5.897000074386597,learn,54102.9999256134,Wed Jun 11 2025 15:58:46 GMT-0500 (Central Daylight Time),256877.29999995232,A,ar,O,r,80,1,516.5,256360.79999995232,7164,WL,B,4.0
2,6.480999946594238,learn,53519.00005340576,Wed Jun 11 2025 15:58:46 GMT-0500 (Central Daylight Time),257460.59999990463,A,arm,O,m,571,1,1099.7999999523163,256360.79999995232,7164,WL,B,4.0
2,6.829999923706055,learn,53170.000076293945,Wed Jun 11 2025 15:58:46 GMT-0500 (Central Daylight Time),257809.89999985695,A,armenter,O,enter,322,1,1449.0999999046326,256360.79999995232,7164,WL,B,4.0
2,7.5980000495910645,learn,52401.999950408936,Wed Jun 11 2025 15:58:46 GMT-0500 (Central Daylight Time),258577.5,A,s,O,s,756,1,767.3000001907349,257810.19999980927,7164,WL,B,5.0
2,7.746999979019165,learn,52253.000020980835,Wed Jun 11 2025 15:58:46 GMT-0500 (Central Daylight Time),258727.39999985695,A,st,O,t,121,1,917.2000000476837,257810.19999980927,7164,WL,B,5.0
2,7.879999876022339,learn,52120.00012397766,Wed Jun 11 2025 15:58:46 GMT-0500 (Central Daylight Time),258860.39999985695,A,sta,O,a,108,1,1050.2000000476837,257810.19999980927,7164,WL,B,5.0
2,8.02999997138977,learn,51970.00002861023,Wed Jun 11 2025 15:58:46 GMT-0500 (Central Daylight Time),259010.5,A,star,O,r,111,1,1200.3000001907349,257810.19999980927,7164,WL,B,5.0
2,8.61299991607666,learn,51387.00008392334,Wed Jun 11 2025 15:58:46 GMT-0500 (Central Daylight Time),259592.69999980927,A,starenter,O,enter,543,1,1782.5,257810.19999980927,7164,WL,B,5.0
2,9.263999938964844,learn,50736.000061035156,Wed Jun 11 2025 15:58:46 GMT-0500 (Central Daylight Time),260243.59999990463,A,w,O,w,637,1,650.7000000476837,259592.89999985695,7164,WL,B,6.0
2,9.430000066757202,learn,50569.9999332428,Wed Jun 11 2025 15:58:46 GMT-0500 (Central Daylight Time),260410.19999980927,A,wi,O,i,133,1,817.2999999523163,259592.89999985695,7164,WL,B,6.0
2,9.647000074386597,learn,50352.9999256134,Wed Jun 11 2025 15:58:46 GMT-0500 (Central Daylight Time),260627.09999990463,A,wif,O,f,175,1,1034.2000000476837,259592.89999985695,7164,WL,B,6.0
2,9.728999853134155,learn,50271.000146865845,Wed Jun 11 2025 15:58:46 GMT-0500 (Central Daylight Time),260709.29999995232,A,wife,O,e,53,1,1116.4000000953674,259592.89999985695,7164,WL,B,6.0
2,9.996000051498413,learn,50003.99994850159,Wed Jun 11 2025 15:58:46 GMT-0500 (Central Daylight Time),260975.69999980927,A,wifeenter,O,enter,250,1,1382.7999999523163,259592.89999985695,7164,WL,B,6.0
2,10.611999988555908,learn,49388.00001144409,Wed Jun 11 2025 15:58:46 GMT-0500 (Central Daylight Time),261592.39999985695,A,p,O,p,605,1,616.5,260975.89999985695,7164,WL,B,7.0
2,10.829999923706055,learn,49170.000076293945,Wed Jun 11 2025 15:58:46 GMT-0500 (Central Daylight Time),261809.69999980927,A,pu,O,u,193,1,833.7999999523163,260975.89999985695,7164,WL,B,7.0
2,11.046000003814697,learn,48953.9999961853,Wed Jun 11 2025 15:58:46 GMT-0500 (Central Daylight Time),262026.0,A,pup,O,p,185,1,1050.1000001430511,260975.89999985695,7164,WL,B,7.0
2,11.29699993133545,learn,48703.00006866455,Wed Jun 11 2025 15:58:46 GMT-0500 (Central Daylight Time),262277.09999990463,A,pupi,O,i,229,1,1301.2000000476837,260975.89999985695,7164,WL,B,7.0
2,11.713000059127808,learn,48286.99994087219,Wed Jun 11 2025 15:58:46 GMT-0500 (Central Daylight Time),262693.19999980927,A,pupil,O,l,396,1,1717.2999999523163,260975.89999985695,7164,WL,B,7.0
2,12.062000036239624,learn,47937.999963760376,Wed Jun 11 2025 15:58:46 GMT-0500 (Central Daylight Time),263041.7999999523,A,pupilenter,O,enter,312,1,2065.9000000953674,260975.89999985695,7164,WL,B,7.0
2,12.510999917984009,learn,47489.00008201599,Wed Jun 11 2025 15:58:46 GMT-0500 (Central Daylight Time),263491.5,A,c,O,c,434,1,449.40000009536743,263042.09999990463,7164,WL,B,8.0
2,12.644999980926514,learn,47355.000019073486,Wed Jun 11 2025 15:58:46 GMT-0500 (Central Daylight Time),263625.2999999523,A,ci,O,i,113,1,583.2000000476837,263042.09999990463,7164,WL,B,8.0
2,12.828999996185303,learn,47171.0000038147,Wed Jun 11 2025 15:58:46 GMT-0500 (Central Daylight Time),263809.09999990463,A,cit,O,t,162,1,767.0,263042.09999990463,7164,WL,B,8.0
2,12.978999853134155,learn,47021.000146865845,Wed Jun 11 2025 15:58:46 GMT-0500 (Central Daylight Time),263958.69999980927,A,city,O,y,121,1,916.5999999046326,263042.09999990463,7164,WL,B,8.0
2,13.444999933242798,learn,46555.0000667572,Wed Jun 11 2025 15:58:46 GMT-0500 (Central Daylight Time),264424.59999990463,A,cityenter,O,enter,425,1,1382.5,263042.09999990463,7164,WL,B,8.0
2,13.711999893188477,learn,46288.00010681152,Wed Jun 11 2025 15:58:46 GMT-0500 (Central Daylight Time),264692.09999990463,A,f,O,f,253,1,267.2999999523163,264424.7999999523,7164,WL,B,9.0
2,13.84500002861023,learn,46154.99997138977,Wed Jun 11 2025 15:58:46 GMT-0500 (Central Daylight Time),264825.0,A,fi,O,i,94,1,400.2000000476837,264424.7999999523,7164,WL,B,9.0
2,14.07800006866455,learn,45921.99993133545,Wed Jun 11 2025 15:58:46 GMT-0500 (Central Daylight Time),265057.59999990463,A,fir,O,r,196,1,632.7999999523163,264424.7999999523,7164,WL,B,9.0
2,14.128000020980835,learn,45871.999979019165,Wed Jun 11 2025 15:58:46 GMT-0500 (Central Daylight Time),265107.59999990463,A,fire,O,e,41,1,682.7999999523163,264424.7999999523,7164,WL,B,9.0
2,14.42799997329712,learn,45572.00002670288,Wed Jun 11 2025 15:58:46 GMT-0500 (Central Daylight Time),265407.59999990463,A,fireenter,O,enter,281,1,982.7999999523163,264424.7999999523,7164,WL,B,9.0
2,16.376999855041504,learn,43623.000144958496,Wed Jun 11 2025 15:58:46 GMT-0500 (Central Daylight Time),267356.89999985695,A,c,O,c,1940,1,1949.0,265407.89999985695,7164,WL,B,10.0
2,16.47699999809265,learn,43523.00000190735,Wed Jun 11 2025 15:58:46 GMT-0500 (Central Daylight Time),267456.69999980927,A,ca,O,a,78,1,2048.7999999523163,265407.89999985695,7164,WL,B,10.0
2,16.66100001335144,learn,43338.99998664856,Wed Jun 11 2025 15:58:46 GMT-0500 (Central Daylight Time),267641.0,A,cab,O,b,172,1,2233.100000143051,265407.89999985695,7164,WL,B,10.0
2,16.793999910354614,learn,43206.000089645386,Wed Jun 11 2025 15:58:46 GMT-0500 (Central Daylight Time),267774.0,A,cabi,O,i,110,1,2366.100000143051,265407.89999985695,7164,WL,B,10.0
2,16.90999984741211,learn,43090.00015258789,Wed Jun 11 2025 15:58:46 GMT-0500 (Central Daylight Time),267890.0,A,cabin,O,n,86,1,2482.100000143051,265407.89999985695,7164,WL,B,10.0
2,17.177000045776367,learn,42822.99995422363,Wed Jun 11 2025 15:58:46 GMT-0500 (Central Daylight Time),268156.59999990463,A,cabinenter,O,enter,257,1,2748.7000000476837,265407.89999985695,7164,WL,B,10.0
2,18.01099991798401,learn,41989.00008201599,Wed Jun 11 2025 15:58:46 GMT-0500 (Central Daylight Time),268990.69999980927,A,l,O,l,825,1,833.7999999523163,268156.89999985695,7164,WL,B,11.0
2,18.177000045776367,learn,41822.99995422363,Wed Jun 11 2025 15:58:46 GMT-0500 (Central Daylight Time),269157.39999985695,A,la,O,a,135,1,1000.5,268156.89999985695,7164,WL,B,11.0
2,18.34500002861023,learn,41654.99997138977,Wed Jun 11 2025 15:58:46 GMT-0500 (Central Daylight Time),269324.89999985695,A,lak,O,k,139,1,1168.0,268156.89999985695,7164,WL,B,11.0
2,18.47699999809265,learn,41523.00000190735,Wed Jun 11 2025 15:58:46 GMT-0500 (Central Daylight Time),269456.7999999523,A,lake,O,e,105,1,1299.9000000953674,268156.89999985695,7164,WL,B,11.0
2,18.64299988746643,learn,41357.00011253357,Wed Jun 11 2025 15:58:46 GMT-0500 (Central Daylight Time),269622.7999999523,A,lakeenter,O,enter,147,1,1465.9000000953674,268156.89999985695,7164,WL,B,11.0
2,19.2260000705719,learn,40773.9999294281,Wed Jun 11 2025 15:58:46 GMT-0500 (Central Daylight Time),270206.0,A,p,O,p,565,1,582.9000000953674,269623.09999990463,7164,WL,B,12.0
2,19.609999895095825,learn,40390.000104904175,Wed Jun 11 2025 15:58:46 GMT-0500 (Central Daylight Time),270589.7999999523,A,pu,O,u,366,1,966.7000000476837,269623.09999990463,7164,WL,B,12.0
2,19.89299988746643,learn,40107.00011253357,Wed Jun 11 2025 15:58:46 GMT-0500 (Central Daylight Time),270873.19999980927,A,pup,O,p,261,1,1250.0999999046326,269623.09999990463,7164,WL,B,12.0
2,20.14299988746643,learn,39857.00011253357,Wed Jun 11 2025 15:58:46 GMT-0500 (Central Daylight Time),271123.19999980927,A,pupi,O,i,208,1,1500.0999999046326,269623.09999990463,7164,WL,B,12.0
2,20.376999855041504,learn,39623.000144958496,Wed Jun 11 2025 15:58:46 GMT-0500 (Central Daylight Time),271356.59999990463,A,pupil,O,l,203,1,1733.5,269623.09999990463,7164,WL,B,12.0
2,20.691999912261963,learn,39308.00008773804,Wed Jun 11 2025 15:58:46 GMT-0500 (Central Daylight Time),271672.19999980927,A,pupilenter,O,enter,286,1,2049.0999999046326,269623.09999990463,7164,WL,B,12.0
2,21.042999982833862,learn,38957.00001716614,Wed Jun 11 2025 15:58:46 GMT-0500 (Central Daylight Time),272022.7999999523,A,p,O,p,342,1,350.2999999523163,271672.5,7164,WL,B,13.0
2,21.292999982833862,learn,38707.00001716614,Wed Jun 11 2025 15:58:46 GMT-0500 (Central Daylight Time),272273.09999990463,A,pi,O,i,214,1,600.5999999046326,271672.5,7164,WL,B,13.0
2,21.443000078201294,learn,38556.999921798706,Wed Jun 11 2025 15:58:46 GMT-0500 (Central Daylight Time),272422.89999985695,A,pip,O,p,114,1,750.3999998569489,271672.5,7164,WL,B,13.0
2,21.743000030517578,learn,38256.99996948242,Wed Jun 11 2025 15:58:46 GMT-0500 (Central Daylight Time),272722.7999999523,A,pipe,O,e,268,1,1050.2999999523163,271672.5,7164,WL,B,13.0
2,21.97499990463257,learn,38025.00009536743,Wed Jun 11 2025 15:58:46 GMT-0500 (Central Daylight Time),272955.0,A,pipeenter,O,enter,207,1,1282.5,271672.5,7164,WL,B,13.0
2,46.33399987220764,learn,13666.000127792358,Wed Jun 11 2025 15:58:46 GMT-0500 (Central Daylight Time),297313.89999985695,A,enter,O,enter,24346,1,24358.599999904633,272955.2999999523,7164,WL,B,14.0
2,60.013999938964844,learn,-13.99993896484375,Wed Jun 11 2025 15:58:46 GMT-0500 (Central Daylight Time),310993.39999985695,A,None,O,None,13673,1,13679.200000047684,297314.19999980927,7164,WL,B,15.0
3,0.7170000076293945,learn,59282.999992370605,Wed Jun 11 2025 15:58:46 GMT-0500 (Central Daylight Time),395548.5,A,s,O,s,709,1,716.7000000476837,394831.7999999523,7164,WL,B,1.0
3,0.8500001430511475,learn,59149.99985694885,Wed Jun 11 2025 15:58:46 GMT-0500 (Central Daylight Time),395682.19999980927,A,sk,O,k,108,1,850.3999998569489,394831.7999999523,7164,WL,B,1.0
3,1.065999984741211,learn,58934.00001525879,Wed Jun 11 2025 15:58:46 GMT-0500 (Central Daylight Time),395898.0,A,ski,O,i,179,1,1066.2000000476837,394831.7999999523,7164,WL,B,1.0
3,1.133000135421753,learn,58866.99986457825,Wed Jun 11 2025 15:58:46 GMT-0500 (Central Daylight Time),395964.59999990463,A,skin,O,n,58,1,1132.7999999523163,394831.7999999523,7164,WL,B,1.0
3,1.6660001277923584,learn,58333.99987220764,Wed Jun 11 2025 15:58:46 GMT-0500 (Central Daylight Time),396497.7999999523,A,skinenter,O,enter,512,1,1666.0,394831.7999999523,7164,WL,B,1.0
3,2.450000047683716,learn,57549.999952316284,Wed Jun 11 2025 15:58:46 GMT-0500 (Central Daylight Time),397282.0,A,f,O,f,772,1,783.9000000953674,396498.09999990463,7164,WL,B,2.0
3,2.567000150680542,learn,57432.99984931946,Wed Jun 11 2025 15:58:46 GMT-0500 (Central Daylight Time),397398.69999980927,A,fi,O,i,82,1,900.5999999046326,396498.09999990463,7164,WL,B,2.0
3,2.7339999675750732,learn,57266.00003242493,Wed Jun 11 2025 15:58:46 GMT-0500 (Central Daylight Time),397565.59999990463,A,fir,O,r,145,1,1067.5,396498.09999990463,7164,WL,B,2.0
3,2.815999984741211,learn,57184.00001525879,Wed Jun 11 2025 15:58:46 GMT-0500 (Central Daylight Time),397647.59999990463,A,fire,O,e,51,1,1149.5,396498.09999990463,7164,WL,B,2.0
3,3.0320000648498535,learn,56967.99993515015,Wed Jun 11 2025 15:58:46 GMT-0500 (Central Daylight Time),397864.09999990463,A,fireenter,O,enter,192,1,1366.0,396498.09999990463,7164,WL,B,2.0
3,3.365999937057495,learn,56634.000062942505,Wed Jun 11 2025 15:58:46 GMT-0500 (Central Daylight Time),398198.09999990463,A,c,O,c,326,1,333.7000000476837,397864.39999985695,7164,WL,B,3.0
3,3.499000072479248,learn,56500.99992752075,Wed Jun 11 2025 15:58:46 GMT-0500 (Central Daylight Time),398331.09999990463,A,cl,O,l,101,1,466.7000000476837,397864.39999985695,7164,WL,B,3.0
3,3.7160000801086426,learn,56283.99991989136,Wed Jun 11 2025 15:58:46 GMT-0500 (Central Daylight Time),398548.09999990463,A,clo,O,o,191,1,683.7000000476837,397864.39999985695,7164,WL,B,3.0
3,3.9000000953674316,learn,56099.99990463257,Wed Jun 11 2025 15:58:46 GMT-0500 (Central Daylight Time),398731.5,A,cloc,O,c,155,1,867.1000001430511,397864.39999985695,7164,WL,B,3.0
3,4.0329999923706055,learn,55967.000007629395,Wed Jun 11 2025 15:58:46 GMT-0500 (Central Daylight Time),398864.5,A,clock,O,k,102,1,1000.1000001430511,397864.39999985695,7164,WL,B,3.0
3,4.5320000648498535,learn,55467.99993515015,Wed Jun 11 2025 15:58:46 GMT-0500 (Central Daylight Time),399363.59999990463,A,clockenter,O,enter,468,1,1499.2000000476837,397864.39999985695,7164,WL,B,3.0
3,4.883000135421753,learn,55116.99986457825,Wed Jun 11 2025 15:58:46 GMT-0500 (Central Daylight Time),399714.5,A,p,O,p,338,1,350.60000014305115,399363.89999985695,7164,WL,B,4.0
3,5.115999937057495,learn,54884.000062942505,Wed Jun 11 2025 15:58:46 GMT-0500 (Central Daylight Time),399947.69999980927,A,pu,O,u,200,1,583.7999999523163,399363.89999985695,7164,WL,B,4.0
3,5.299000024795532,learn,54700.99997520447,Wed Jun 11 2025 15:58:46 GMT-0500 (Central Daylight Time),400130.59999990463,A,pup,O,p,155,1,766.7000000476837,399363.89999985695,7164,WL,B,4.0
3,5.5320000648498535,learn,54467.99993515015,Wed Jun 11 2025 15:58:46 GMT-0500 (Central Daylight Time),400364.19999980927,A,pupi,O,i,208,1,1000.2999999523163,399363.89999985695,7164,WL,B,4.0
3,5.749000072479248,learn,54250.99992752075,Wed Jun 11 2025 15:58:46 GMT-0500 (Central Daylight Time),400581.2999999523,A,pupil,O,l,191,1,1217.4000000953674,399363.89999985695,7164,WL,B,4.0
3,6.29800009727478,learn,53701.99990272522,Wed Jun 11 2025 15:58:46 GMT-0500 (Central Daylight Time),401129.69999980927,A,pupilenter,O,enter,509,1,1765.7999999523163,399363.89999985695,7164,WL,B,4.0
3,6.732000112533569,learn,53267.99988746643,Wed Jun 11 2025 15:58:46 GMT-0500 (Central Daylight Time),401564.09999990463,A,p,O,p,412,1,434.09999990463257,401130.0,7164,WL,B,5.0
3,6.949000120162964,learn,53050.999879837036,Wed Jun 11 2025 15:58:46 GMT-0500 (Central Daylight Time),401781.09999990463,A,pi,O,i,194,1,651.0999999046326,401130.0,7164,WL,B,5.0
3,7.115000009536743,learn,52884.99999046326,Wed Jun 11 2025 15:58:46 GMT-0500 (Central Daylight Time),401947.09999990463,A,pip,O,p,133,1,817.0999999046326,401130.0,7164,WL,B,5.0
3,7.365999937057495,learn,52634.000062942505,Wed Jun 11 2025 15:58:46 GMT-0500 (Central Daylight Time),402197.7999999523,A,pipe,O,e,225,1,1067.7999999523163,401130.0,7164,WL,B,5.0
3,7.63100004196167,learn,52368.99995803833,Wed Jun 11 2025 15:58:46 GMT-0500 (Central Daylight Time),402462.59999990463,A,pipeenter,O,enter,236,1,1332.5999999046326,401130.0,7164,WL,B,5.0
3,7.914999961853027,learn,52085.00003814697,Wed Jun 11 2025 15:58:46 GMT-0500 (Central Daylight Time),402746.89999985695,A,c,O,c,264,1,284.09999990463257,402462.7999999523,7164,WL,B,6.0
3,8.098000049591064,learn,51901.999950408936,Wed Jun 11 2025 15:58:46 GMT-0500 (Central Daylight Time),402930.09999990463,A,ci,O,i,152,1,467.2999999523163,402462.7999999523,7164,WL,B,6.0
3,8.365000009536743,learn,51634.99999046326,Wed Jun 11 2025 15:58:46 GMT-0500 (Central Daylight Time),403197.0,A,cit,O,t,232,1,734.2000000476837,402462.7999999523,7164,WL,B,6.0
3,8.430999994277954,learn,51569.000005722046,Wed Jun 11 2025 15:58:46 GMT-0500 (Central Daylight Time),403262.89999985695,A,city,O,y,35,1,800.0999999046326,402462.7999999523,7164,WL,B,6.0
3,8.781000137329102,learn,51218.9998626709,Wed Jun 11 2025 15:58:46 GMT-0500 (Central Daylight Time),403613.19999980927,A,cityenter,O,enter,332,1,1150.3999998569489,402462.7999999523,7164,WL,B,6.0
3,9.248000144958496,learn,50751.999855041504,Wed Jun 11 2025 15:58:46 GMT-0500 (Central Daylight Time),404079.89999985695,A,w,O,w,448,1,466.5,403613.39999985695,7164,WL,B,7.0
3,9.364000082015991,learn,50635.99991798401,Wed Jun 11 2025 15:58:46 GMT-0500 (Central Daylight Time),404195.39999985695,A,wi,O,i,83,1,582.0,403613.39999985695,7164,WL,B,7.0
3,9.46399998664856,learn,50536.00001335144,Wed Jun 11 2025 15:58:46 GMT-0500 (Central Daylight Time),404295.89999985695,A,win,O,n,78,1,682.5,403613.39999985695,7164,WL,B,7.0
3,9.614000082015991,learn,50385.99991798401,Wed Jun 11 2025 15:58:46 GMT-0500 (Central Daylight Time),404446.2999999523,A,wind,O,d,121,1,832.9000000953674,403613.39999985695,7164,WL,B,7.0
3,9.763999938964844,learn,50236.000061035156,Wed Jun 11 2025 15:58:46 GMT-0500 (Central Daylight Time),404595.69999980927,A,windo,O,o,119,1,982.2999999523163,403613.39999985695,7164,WL,B,7.0
3,9.930999994277954,learn,50069.000005722046,Wed Jun 11 2025 15:58:46 GMT-0500 (Central Daylight Time),404762.89999985695,A,window,O,w,139,1,1149.5,403613.39999985695,7164,WL,B,7.0
3,10.312999963760376,learn,49687.000036239624,Wed Jun 11 2025 15:58:46 GMT-0500 (Central Daylight Time),405145.0,A,windowenter,O,enter,344,1,1531.6000001430511,403613.39999985695,7164,WL,B,7.0
3,10.88100004196167,learn,49118.99995803833,Wed Jun 11 2025 15:58:46 GMT-0500 (Central Daylight Time),405712.5,A,w,O,w,549,1,567.2000000476837,405145.2999999523,7164,WL,B,8.0
3,11.04699993133545,learn,48953.00006866455,Wed Jun 11 2025 15:58:46 GMT-0500 (Central Daylight Time),405879.09999990463,A,wi,O,i,131,1,733.7999999523163,405145.2999999523,7164,WL,B,8.0
3,11.21399998664856,learn,48786.00001335144,Wed Jun 11 2025 15:58:46 GMT-0500 (Central Daylight Time),406045.59999990463,A,wif,O,f,132,1,900.2999999523163,405145.2999999523,7164,WL,B,8.0
3,11.296000003814697,learn,48703.9999961853,Wed Jun 11 2025 15:58:46 GMT-0500 (Central Daylight Time),406128.19999980927,A,wife,O,e,58,1,982.8999998569489,405145.2999999523,7164,WL,B,8.0
3,11.595999956130981,learn,48404.00004386902,Wed Jun 11 2025 15:58:46 GMT-0500 (Central Daylight Time),406427.89999985695,A,wifeenter,O,enter,291,1,1282.5999999046326,405145.2999999523,7164,WL,B,8.0
3,12.897000074386597,learn,47102.9999256134,Wed Jun 11 2025 15:58:46 GMT-0500 (Central Daylight Time),407728.7999999523,A,c,O,c,1282,1,1300.7000000476837,406428.09999990463,7164,WL,B,9.0
3,12.980000019073486,learn,47019.999980926514,Wed Jun 11 2025 15:58:46 GMT-0500 (Central Daylight Time),407811.59999990463,A,ca,O,a,56,1,1383.5,406428.09999990463,7164,WL,B,9.0
3,13.11299991607666,learn,46887.00008392334,Wed Jun 11 2025 15:58:46 GMT-0500 (Central Daylight Time),407945.09999990463,A,cab,O,b,114,1,1517.0,406428.09999990463,7164,WL,B,9.0
3,13.312999963760376,learn,46687.000036239624,Wed Jun 11 2025 15:58:46 GMT-0500 (Central Daylight Time),408145.09999990463,A,cabi,O,i,163,1,1717.0,406428.09999990463,7164,WL,B,9.0
3,13.378999948501587,learn,46621.00005149841,Wed Jun 11 2025 15:58:46 GMT-0500 (Central Daylight Time),408211.0,A,cabin,O,n,34,1,1782.9000000953674,406428.09999990463,7164,WL,B,9.0
3,13.779000043869019,learn,46220.99995613098,Wed Jun 11 2025 15:58:46 GMT-0500 (Central Daylight Time),408610.59999990463,A,cabinenter,O,enter,381,1,2182.5,406428.09999990463,7164,WL,B,9.0
3,14.213000059127808,learn,45786.99994087219,Wed Jun 11 2025 15:58:46 GMT-0500 (Central Daylight Time),409045.2999999523,A,l,O,l,428,1,434.40000009536743,408610.89999985695,7164,WL,B,10.0
3,14.397000074386597,learn,45602.9999256134,Wed Jun 11 2025 15:58:46 GMT-0500 (Central Daylight Time),409229.09999990463,A,la,O,a,158,1,618.2000000476837,408610.89999985695,7164,WL,B,10.0
3,14.562999963760376,learn,45437.000036239624,Wed Jun 11 2025 15:58:46 GMT-0500 (Central Daylight Time),409394.7999999523,A,lak,O,k,127,1,783.9000000953674,408610.89999985695,7164,WL,B,10.0
3,14.712000131607056,learn,45287.999868392944,Wed Jun 11 2025 15:58:46 GMT-0500 (Central Daylight Time),409544.2999999523,A,lake,O,e,125,1,933.4000000953674,408610.89999985695,7164,WL,B,10.0
3,14.995000123977661,learn,45004.99987602234,Wed Jun 11 2025 15:58:46 GMT-0500 (Central Daylight Time),409826.7999999523,A,lakeenter,O,enter,252,1,1215.9000000953674,408610.89999985695,7164,WL,B,10.0
3,17.894999980926514,learn,42105.000019073486,Wed Jun 11 2025 15:58:46 GMT-0500 (Central Daylight Time),412726.7999999523,A,s,O,s,2891,1,2899.7000000476837,409827.09999990463,7164,WL,B,11.0
3,18.045000076293945,learn,41954.999923706055,Wed Jun 11 2025 15:58:46 GMT-0500 (Central Daylight Time),412876.5,A,st,O,t,127,1,3049.4000000953674,409827.09999990463,7164,WL,B,11.0
3,18.094000101089478,learn,41905.99989891052,Wed Jun 11 2025 15:58:46 GMT-0500 (Central Daylight Time),412925.59999990463,A,str,O,r,20,1,3098.5,409827.09999990463,7164,WL,B,11.0
3,18.24500012397766,learn,41754.99987602234,Wed Jun 11 2025 15:58:46 GMT-0500 (Central Daylight Time),413076.5,A,stre,O,e,126,1,3249.4000000953674,409827.09999990463,7164,WL,B,11.0
3,18.41100001335144,learn,41588.99998664856,Wed Jun 11 2025 15:58:46 GMT-0500 (Central Daylight Time),413242.89999985695,A,stree,O,e,128,1,3415.7999999523163,409827.09999990463,7164,WL,B,11.0
3,18.545000076293945,learn,41454.999923706055,Wed Jun 11 2025 15:58:46 GMT-0500 (Central Daylight Time),413376.69999980927,A,street,O,t,105,1,3549.5999999046326,409827.09999990463,7164,WL,B,11.0
3,18.91000008583069,learn,41089.99991416931,Wed Jun 11 2025 15:58:46 GMT-0500 (Central Daylight Time),413742.19999980927,A,streetenter,O,enter,329,1,3915.0999999046326,409827.09999990463,7164,WL,B,11.0
3,19.544000148773193,learn,40455.99985122681,Wed Jun 11 2025 15:58:46 GMT-0500 (Central Daylight Time),414376.2999999523,A,g,O,g,616,1,633.7999999523163,413742.5,7164,WL,B,12.0
3,19.74399995803833,learn,40256.00004196167,Wed Jun 11 2025 15:58:46 GMT-0500 (Central Daylight Time),414576.0,A,gr,O,r,165,1,833.5,413742.5,7164,WL,B,12.0
3,19.91100001335144,learn,40088.99998664856,Wed Jun 11 2025 15:58:46 GMT-0500 (Central Daylight Time),414742.89999985695,A,gra,O,a,136,1,1000.3999998569489,413742.5,7164,WL,B,12.0
3,20.026999950408936,learn,39973.000049591064,Wed Jun 11 2025 15:58:46 GMT-0500 (Central Daylight Time),414858.7999999523,A,gras,O,s,75,1,1116.2999999523163,413742.5,7164,WL,B,12.0
3,20.276999950408936,learn,39723.000049591064,Wed Jun 11 2025 15:58:46 GMT-0500 (Central Daylight Time),415109.19999980927,A,grass,O,s,236,1,1366.6999998092651,413742.5,7164,WL,B,12.0
3,20.743000030517578,learn,39256.99996948242,Wed Jun 11 2025 15:58:46 GMT-0500 (Central Daylight Time),415574.89999985695,A,grassenter,O,enter,436,1,1832.3999998569489,413742.5,7164,WL,B,12.0
3,21.444000005722046,learn,38555.999994277954,Wed Jun 11 2025 15:58:46 GMT-0500 (Central Daylight Time),416275.7999999523,A,d,O,d,687,1,700.5,415575.2999999523,7164,WL,B,13.0
3,21.611000061035156,learn,38388.999938964844,Wed Jun 11 2025 15:58:46 GMT-0500 (Central Daylight Time),416442.39999985695,A,do,O,o,125,1,867.0999999046326,415575.2999999523,7164,WL,B,13.0
3,21.794000148773193,learn,38205.99985122681,Wed Jun 11 2025 15:58:46 GMT-0500 (Central Daylight Time),416625.59999990463,A,doo,O,o,148,1,1050.2999999523163,415575.2999999523,7164,WL,B,13.0
3,22.01099991798401,learn,37989.00008201599,Wed Jun 11 2025 15:58:46 GMT-0500 (Central Daylight Time),416842.09999990463,A,door,O,r,177,1,1266.7999999523163,415575.2999999523,7164,WL,B,13.0
3,22.243000030517578,learn,37756.99996948242,Wed Jun 11 2025 15:58:46 GMT-0500 (Central Daylight Time),417074.39999985695,A,doorenter,O,enter,200,1,1499.0999999046326,415575.2999999523,7164,WL,B,13.0
3,22.877000093460083,learn,37122.99990653992,Wed Jun 11 2025 15:58:46 GMT-0500 (Central Daylight Time),417708.59999990463,A,s,O,s,620,1,634.0,417074.59999990463,7164,WL,B,14.0
3,22.99399995803833,learn,37006.00004196167,Wed Jun 11 2025 15:58:46 GMT-0500 (Central Daylight Time),417825.19999980927,A,st,O,t,86,1,750.5999999046326,417074.59999990463,7164,WL,B,14.0
3,23.16100001335144,learn,36838.99998664856,Wed Jun 11 2025 15:58:46 GMT-0500 (Central Daylight Time),417991.89999985695,A,sta,O,a,141,1,917.2999999523163,417074.59999990463,7164,WL,B,14.0
3,23.294000148773193,learn,36705.99985122681,Wed Jun 11 2025 15:58:46 GMT-0500 (Central Daylight Time),418125.5,A,star,O,r,108,1,1050.9000000953674,417074.59999990463,7164,WL,B,14.0
3,23.89300012588501,learn,36106.99987411499,Wed Jun 11 2025 15:58:46 GMT-0500 (Central Daylight Time),418723.7999999523,A,starenter,O,enter,575,1,1649.2000000476837,417074.59999990463,7164,WL,B,14.0
3,24.509999990463257,learn,35490.00000953674,Wed Jun 11 2025 15:58:46 GMT-0500 (Central Daylight Time),419341.19999980927,A,a,O,a,610,1,617.0,418724.19999980927,7164,WL,B,15.0
3,24.8270001411438,learn,35172.9998588562,Wed Jun 11 2025 15:58:46 GMT-0500 (Central Daylight Time),419658.0,A,ar,O,r,277,1,933.8000001907349,418724.19999980927,7164,WL,B,15.0
3,24.993000030517578,learn,35006.99996948242,Wed Jun 11 2025 15:58:46 GMT-0500 (Central Daylight Time),419824.5,A,arm,O,m,127,1,1100.3000001907349,418724.19999980927,7164,WL,B,15.0
3,25.625,learn,34375.0,Wed Jun 11 2025 15:58:46 GMT-0500 (Central Daylight Time),420456.59999990463,A,armenter,O,enter,601,1,1732.4000000953674,418724.19999980927,7164,WL,B,15.0
4,0.8330001831054688,learn,59166.99981689453,Wed Jun 11 2025 15:58:46 GMT-0500 (Central Daylight Time),493800.2999999523,A,p,O,p,805,1,833.2000000476837,492967.09999990463,7164,WL,B,1.0
4,1.067000150680542,learn,58932.99984931946,Wed Jun 11 2025 15:58:46 GMT-0500 (Central Daylight Time),494033.5,A,pi,O,i,201,1,1066.4000000953674,492967.09999990463,7164,WL,B,1.0
4,1.3340001106262207,learn,58665.99988937378,Wed Jun 11 2025 15:58:46 GMT-0500 (Central Daylight Time),494300.5,A,pip,O,p,233,1,1333.4000000953674,492967.09999990463,7164,WL,B,1.0
4,1.5170001983642578,learn,58482.99980163574,Wed Jun 11 2025 15:58:46 GMT-0500 (Central Daylight Time),494483.69999980927,A,pipe,O,e,142,1,1516.5999999046326,492967.09999990463,7164,WL,B,1.0
4,1.9650001525878906,learn,58034.99984741211,Wed Jun 11 2025 15:58:46 GMT-0500 (Central Daylight Time),494932.19999980927,A,pipeenter,O,enter,414,1,1965.0999999046326,492967.09999990463,7164,WL,B,1.0
4,2.366000175476074,learn,57633.999824523926,Wed Jun 11 2025 15:58:46 GMT-0500 (Central Daylight Time),495333.19999980927,A,s,O,s,386,1,400.69999980926514,494932.5,7164,WL,B,2.0
4,2.5330002307891846,learn,57466.999769210815,Wed Jun 11 2025 15:58:46 GMT-0500 (Central Daylight Time),495500.0,A,sk,O,k,125,1,567.5,494932.5,7164,WL,B,2.0
4,2.7330000400543213,learn,57266.99995994568,Wed Jun 11 2025 15:58:46 GMT-0500 (Central Daylight Time),495699.69999980927,A,ski,O,i,167,1,767.1999998092651,494932.5,7164,WL,B,2.0
4,2.815000057220459,learn,57184.99994277954,Wed Jun 11 2025 15:58:46 GMT-0500 (Central Daylight Time),495781.69999980927,A,skin,O,n,54,1,849.1999998092651,494932.5,7164,WL,B,2.0
4,3.182000160217285,learn,56817.999839782715,Wed Jun 11 2025 15:58:46 GMT-0500 (Central Daylight Time),496148.5,A,skinenter,O,enter,349,1,1216.0,494932.5,7164,WL,B,2.0
4,3.633000135421753,learn,56366.99986457825,Wed Jun 11 2025 15:58:46 GMT-0500 (Central Daylight Time),496599.5,A,f,O,f,433,1,450.7000000476837,496148.7999999523,7164,WL,B,3.0
4,3.749000072479248,learn,56250.99992752075,Wed Jun 11 2025 15:58:46 GMT-0500 (Central Daylight Time),496715.39999985695,A,fi,O,i,75,1,566.5999999046326,496148.7999999523,7164,WL,B,3.0
4,3.999000072479248,learn,56000.99992752075,Wed Jun 11 2025 15:58:46 GMT-0500 (Central Daylight Time),496965.7999999523,A,fir,O,r,226,1,817.0,496148.7999999523,7164,WL,B,3.0
4,4.082000017166138,learn,55917.99998283386,Wed Jun 11 2025 15:58:46 GMT-0500 (Central Daylight Time),497048.39999985695,A,fire,O,e,43,1,899.5999999046326,496148.7999999523,7164,WL,B,3.0
4,4.29800009727478,learn,55701.99990272522,Wed Jun 11 2025 15:58:46 GMT-0500 (Central Daylight Time),497264.7999999523,A,fireenter,O,enter,192,1,1116.0,496148.7999999523,7164,WL,B,3.0
4,5.215000152587891,learn,54784.99984741211,Wed Jun 11 2025 15:58:46 GMT-0500 (Central Daylight Time),498181.69999980927,A,c,O,c,909,1,916.6999998092651,497265.0,7164,WL,B,4.0
4,5.29800009727478,learn,54701.99990272522,Wed Jun 11 2025 15:58:46 GMT-0500 (Central Daylight Time),498264.39999985695,A,cl,O,l,53,1,999.3999998569489,497265.0,7164,WL,B,4.0
4,5.515000104904175,learn,54484.999895095825,Wed Jun 11 2025 15:58:46 GMT-0500 (Central Daylight Time),498482.19999980927,A,clo,O,o,193,1,1217.1999998092651,497265.0,7164,WL,B,4.0
4,5.6650002002716064,learn,54334.99979972839,Wed Jun 11 2025 15:58:46 GMT-0500 (Central Daylight Time),498632.09999990463,A,cloc,O,c,121,1,1367.0999999046326,497265.0,7164,WL,B,4.0
4,5.765000104904175,learn,54234.999895095825,Wed Jun 11 2025 15:58:46 GMT-0500 (Central Daylight Time),498731.89999985695,A,clock,O,k,58,1,1466.8999998569489,497265.0,7164,WL,B,4.0
4,6.047000169754028,learn,53952.99983024597,Wed Jun 11 2025 15:58:46 GMT-0500 (Central Daylight Time),499014.19999980927,A,clockenter,O,enter,249,1,1749.1999998092651,497265.0,7164,WL,B,4.0
4,6.38100004196167,learn,53618.99995803833,Wed Jun 11 2025 15:58:46 GMT-0500 (Central Daylight Time),499347.7999999523,A,p,O,p,311,1,333.2999999523163,499014.5,7164,WL,B,5.0
4,6.5980000495910645,learn,53401.999950408936,Wed Jun 11 2025 15:58:46 GMT-0500 (Central Daylight Time),499564.89999985695,A,pu,O,u,190,1,550.3999998569489,499014.5,7164,WL,B,5.0
4,6.765000104904175,learn,53234.999895095825,Wed Jun 11 2025 15:58:46 GMT-0500 (Central Daylight Time),499731.2999999523,A,pup,O,p,124,1,716.7999999523163,499014.5,7164,WL,B,5.0
4,7.031000137329102,learn,52968.9998626709,Wed Jun 11 2025 15:58:46 GMT-0500 (Central Daylight Time),499998.0,A,pupi,O,i,245,1,983.5,499014.5,7164,WL,B,5.0
4,7.248000144958496,learn,52751.999855041504,Wed Jun 11 2025 15:58:46 GMT-0500 (Central Daylight Time),500214.59999990463,A,pupil,O,l,195,1,1200.0999999046326,499014.5,7164,WL,B,5.0
4,7.697000026702881,learn,52302.99997329712,Wed Jun 11 2025 15:58:46 GMT-0500 (Central Daylight Time),500663.69999980927,A,pupilenter,O,enter,416,1,1649.1999998092651,499014.5,7164,WL,B,5.0
4,8.164000034332275,learn,51835.999965667725,Wed Jun 11 2025 15:58:46 GMT-0500 (Central Daylight Time),501131.19999980927,A,p,O,p,454,1,467.19999980926514,500664.0,7164,WL,B,6.0
4,8.414000034332275,learn,51585.999965667725,Wed Jun 11 2025 15:58:46 GMT-0500 (Central Daylight Time),501381.0,A,pi,O,i,210,1,717.0,500664.0,7164,WL,B,6.0
4,8.648000001907349,learn,51351.99999809265,Wed Jun 11 2025 15:58:46 GMT-0500 (Central Daylight Time),501614.39999985695,A,pip,O,p,198,1,950.3999998569489,500664.0,7164,WL,B,6.0
4,8.914000034332275,learn,51085.999965667725,Wed Jun 11 2025 15:58:46 GMT-0500 (Central Daylight Time),501881.09999990463,A,pipe,O,e,228,1,1217.0999999046326,500664.0,7164,WL,B,6.0
4,9.163000106811523,learn,50836.99989318848,Wed Jun 11 2025 15:58:46 GMT-0500 (Central Daylight Time),502129.89999985695,A,pipeenter,O,enter,218,1,1465.8999998569489,500664.0,7164,WL,B,6.0
4,9.397000074386597,learn,50602.9999256134,Wed Jun 11 2025 15:58:46 GMT-0500 (Central Daylight Time),502363.69999980927,A,w,O,w,212,1,233.59999990463257,502130.09999990463,7164,WL,B,7.0
4,9.53000020980835,learn,50469.99979019165,Wed Jun 11 2025 15:58:46 GMT-0500 (Central Daylight Time),502496.5,A,wi,O,i,108,1,366.40000009536743,502130.09999990463,7164,WL,B,7.0
4,9.664000034332275,learn,50335.999965667725,Wed Jun 11 2025 15:58:46 GMT-0500 (Central Daylight Time),502630.69999980927,A,win,O,n,111,1,500.59999990463257,502130.09999990463,7164,WL,B,7.0
4,9.880000114440918,learn,50119.99988555908,Wed Jun 11 2025 15:58:46 GMT-0500 (Central Daylight Time),502847.2999999523,A,wind,O,d,190,1,717.2000000476837,502130.09999990463,7164,WL,B,7.0
4,10.014000177383423,learn,49985.99982261658,Wed Jun 11 2025 15:58:46 GMT-0500 (Central Daylight Time),502980.59999990463,A,windo,O,o,105,1,850.5,502130.09999990463,7164,WL,B,7.0
4,10.231000185012817,learn,49768.99981498718,Wed Jun 11 2025 15:58:46 GMT-0500 (Central Daylight Time),503197.5,A,window,O,w,175,1,1067.4000000953674,502130.09999990463,7164,WL,B,7.0
4,11.147000074386597,learn,48852.9999256134,Wed Jun 11 2025 15:58:46 GMT-0500 (Central Daylight Time),504113.5,A,windo,O,backspace,879,1,1983.4000000953674,502130.09999990463,7164,WL,B,7.0
4,11.662000179290771,learn,48337.99982070923,Wed Jun 11 2025 15:58:46 GMT-0500 (Central Daylight Time),504629.0,A,windoenter,O,enter,480,1,2498.9000000953674,502130.09999990463,7164,WL,B,7.0
4,13.528000116348267,learn,46471.99988365173,Wed Jun 11 2025 15:58:46 GMT-0500 (Central Daylight Time),506495.0,A,c,O,c,1855,1,1865.8000001907349,504629.19999980927,7164,WL,B,8.0
4,13.645000219345093,learn,46354.99978065491,Wed Jun 11 2025 15:58:46 GMT-0500 (Central Daylight Time),506611.69999980927,A,ci,O,i,101,1,1982.5,504629.19999980927,7164,WL,B,8.0
4,13.912000179290771,learn,46087.99982070923,Wed Jun 11 2025 15:58:46 GMT-0500 (Central Daylight Time),506879.2999999523,A,cit,O,t,250,1,2250.100000143051,504629.19999980927,7164,WL,B,8.0
4,13.961000204086304,learn,46038.999795913696,Wed Jun 11 2025 15:58:46 GMT-0500 (Central Daylight Time),506928.19999980927,A,city,O,y,31,1,2299.0,504629.19999980927,7164,WL,B,8.0
4,14.211000204086304,learn,45788.999795913696,Wed Jun 11 2025 15:58:46 GMT-0500 (Central Daylight Time),507178.2999999523,A,cityenter,O,enter,228,1,2549.100000143051,504629.19999980927,7164,WL,B,8.0
4,19.127000093460083,learn,40872.99990653992,Wed Jun 11 2025 15:58:46 GMT-0500 (Central Daylight Time),512094.19999980927,A,c,O,c,4899,1,4915.699999809265,507178.5,7164,WL,B,9.0
4,19.20800018310547,learn,40791.99981689453,Wed Jun 11 2025 15:58:46 GMT-0500 (Central Daylight Time),512175.2999999523,A,ca,O,a,52,1,4996.799999952316,507178.5,7164,WL,B,9.0
4,19.41100001335144,learn,40588.99998664856,Wed Jun 11 2025 15:58:46 GMT-0500 (Central Daylight Time),512377.39999985695,A,cab,O,b,174,1,5198.899999856949,507178.5,7164,WL,B,9.0
4,19.627000093460083,learn,40372.99990653992,Wed Jun 11 2025 15:58:46 GMT-0500 (Central Daylight Time),512594.2999999523,A,cabi,O,i,177,1,5415.799999952316,507178.5,7164,WL,B,9.0
4,19.693000078201294,learn,40306.999921798706,Wed Jun 11 2025 15:58:46 GMT-0500 (Central Daylight Time),512659.69999980927,A,cabin,O,n,43,1,5481.199999809265,507178.5,7164,WL,B,9.0
4,19.993000030517578,learn,40006.99996948242,Wed Jun 11 2025 15:58:46 GMT-0500 (Central Daylight Time),512959.59999990463,A,cabinenter,O,enter,277,1,5781.099999904633,507178.5,7164,WL,B,9.0
4,20.39400005340576,learn,39605.99994659424,Wed Jun 11 2025 15:58:46 GMT-0500 (Central Daylight Time),513360.39999985695,A,l,O,l,390,1,400.39999985694885,512960.0,7164,WL,B,10.0
4,20.56000018119812,learn,39439.99981880188,Wed Jun 11 2025 15:58:46 GMT-0500 (Central Daylight Time),513527.2999999523,A,la,O,a,138,1,567.2999999523163,512960.0,7164,WL,B,10.0
4,20.81000018119812,learn,39189.99981880188,Wed Jun 11 2025 15:58:46 GMT-0500 (Central Daylight Time),513776.89999985695,A,lak,O,k,223,1,816.8999998569489,512960.0,7164,WL,B,10.0
4,20.993000030517578,learn,39006.99996948242,Wed Jun 11 2025 15:58:46 GMT-0500 (Central Daylight Time),513960.0,A,lake,O,e,154,1,1000.0,512960.0,7164,WL,B,10.0
4,21.259000062942505,learn,38740.999937057495,Wed Jun 11 2025 15:58:46 GMT-0500 (Central Daylight Time),514225.89999985695,A,lakeenter,O,enter,226,1,1265.8999998569489,512960.0,7164,WL,B,10.0
4,24.276000022888184,learn,35723.99997711182,Wed Jun 11 2025 15:58:46 GMT-0500 (Central Daylight Time),517242.5,A,s,O,s,3004,1,3016.300000190735,514226.19999980927,7164,WL,B,11.0
4,24.409000158309937,learn,35590.99984169006,Wed Jun 11 2025 15:58:46 GMT-0500 (Central Daylight Time),517375.89999985695,A,st,O,t,107,1,3149.7000000476837,514226.19999980927,7164,WL,B,11.0
4,24.462000131607056,learn,35537.999868392944,Wed Jun 11 2025 15:58:46 GMT-0500 (Central Daylight Time),517428.5,A,str,O,r,18,1,3202.300000190735,514226.19999980927,7164,WL,B,11.0
4,24.609000205993652,learn,35390.99979400635,Wed Jun 11 2025 15:58:46 GMT-0500 (Central Daylight Time),517575.39999985695,A,stre,O,e,120,1,3349.2000000476837,514226.19999980927,7164,WL,B,11.0
4,24.77500009536743,learn,35224.99990463257,Wed Jun 11 2025 15:58:46 GMT-0500 (Central Daylight Time),517742.0,A,stree,O,e,143,1,3515.800000190735,514226.19999980927,7164,WL,B,11.0
4,24.87600016593933,learn,35123.99983406067,Wed Jun 11 2025 15:58:46 GMT-0500 (Central Daylight Time),517842.39999985695,A,street,O,t,62,1,3616.2000000476837,514226.19999980927,7164,WL,B,11.0
4,25.224000215530396,learn,34775.999784469604,Wed Jun 11 2025 15:58:46 GMT-0500 (Central Daylight Time),518191.19999980927,A,streetenter,O,enter,311,1,3965.0,514226.19999980927,7164,WL,B,11.0
4,26.02500009536743,learn,33974.99990463257,Wed Jun 11 2025 15:58:46 GMT-0500 (Central Daylight Time),518991.89999985695,A,s,O,s,782,1,800.3999998569489,518191.5,7164,WL,B,12.0
4,26.10800004005432,learn,33891.99995994568,Wed Jun 11 2025 15:58:46 GMT-0500 (Central Daylight Time),519074.5,A,sg,O,g,50,1,883.0,518191.5,7164,WL,B,12.0
4,26.35700011253357,learn,33642.99988746643,Wed Jun 11 2025 15:58:46 GMT-0500 (Central Daylight Time),519323.89999985695,A,sgr,O,r,236,1,1132.3999998569489,518191.5,7164,WL,B,12.0
4,26.507000207901,learn,33492.999792099,Wed Jun 11 2025 15:58:46 GMT-0500 (Central Daylight Time),519473.89999985695,A,sgra,O,a,136,1,1282.3999998569489,518191.5,7164,WL,B,12.0
4,26.874000072479248,learn,33125.99992752075,Wed Jun 11 2025 15:58:46 GMT-0500 (Central Daylight Time),519840.59999990463,A,sgras,O,s,354,1,1649.0999999046326,518191.5,7164,WL,B,12.0
4,27.057000160217285,learn,32942.999839782715,Wed Jun 11 2025 15:58:46 GMT-0500 (Central Daylight Time),520023.89999985695,A,sgrass,O,s,172,1,1832.3999998569489,518191.5,7164,WL,B,12.0
4,27.707000017166138,learn,32292.999982833862,Wed Jun 11 2025 15:58:46 GMT-0500 (Central Daylight Time),520673.7999999523,A,sgrassenter,O,enter,637,1,2482.2999999523163,518191.5,7164,WL,B,12.0
4,30.44000005722046,learn,29559.99994277954,Wed Jun 11 2025 15:58:46 GMT-0500 (Central Daylight Time),523406.89999985695,A,d,O,d,2725,1,2732.899999856949,520674.0,7164,WL,B,13.0
4,30.573000192642212,learn,29426.999807357788,Wed Jun 11 2025 15:58:46 GMT-0500 (Central Daylight Time),523539.89999985695,A,do,O,o,107,1,2865.899999856949,520674.0,7164,WL,B,13.0
4,30.77400016784668,learn,29225.99983215332,Wed Jun 11 2025 15:58:46 GMT-0500 (Central Daylight Time),523740.39999985695,A,doo,O,o,178,1,3066.399999856949,520674.0,7164,WL,B,13.0
4,30.974000215530396,learn,29025.999784469604,Wed Jun 11 2025 15:58:46 GMT-0500 (Central Daylight Time),523941.0,A,door,O,r,175,1,3267.0,520674.0,7164,WL,B,13.0
4,31.17300009727478,learn,28826.99990272522,Wed Jun 11 2025 15:58:46 GMT-0500 (Central Daylight Time),524139.2999999523,A,doorenter,O,enter,173,1,3465.2999999523163,520674.0,7164,WL,B,13.0
4,31.60700011253357,learn,28392.99988746643,Wed Jun 11 2025 15:58:46 GMT-0500 (Central Daylight Time),524573.6999998093,A,s,O,s,428,1,434.09999990463257,524139.59999990463,7164,WL,B,14.0
4,31.73900008201599,learn,28260.99991798401,Wed Jun 11 2025 15:58:46 GMT-0500 (Central Daylight Time),524706.0999999046,A,st,O,t,101,1,566.5,524139.59999990463,7164,WL,B,14.0
4,31.889000177383423,learn,28110.999822616577,Wed Jun 11 2025 15:58:46 GMT-0500 (Central Daylight Time),524856.2999999523,A,sta,O,a,127,1,716.7000000476837,524139.59999990463,7164,WL,B,14.0
4,32.02300000190735,learn,27976.99999809265,Wed Jun 11 2025 15:58:46 GMT-0500 (Central Daylight Time),524990.0999999046,A,star,O,r,99,1,850.5,524139.59999990463,7164,WL,B,14.0
4,32.5220000743866,learn,27477.999925613403,Wed Jun 11 2025 15:58:46 GMT-0500 (Central Daylight Time),525488.7999999523,A,starenter,O,enter,459,1,1349.2000000476837,524139.59999990463,7164,WL,B,14.0
4,32.790000200271606,learn,27209.999799728394,Wed Jun 11 2025 15:58:46 GMT-0500 (Central Daylight Time),525757.0,A,a,O,a,261,1,268.0,525489.0,7164,WL,B,15.0
4,32.956000089645386,learn,27043.999910354614,Wed Jun 11 2025 15:58:46 GMT-0500 (Central Daylight Time),525923.0999999046,A,ar,O,r,126,1,434.09999990463257,525489.0,7164,WL,B,15.0
4,33.42300009727478,learn,26576.99990272522,Wed Jun 11 2025 15:58:46 GMT-0500 (Central Daylight Time),526389.7999999523,A,arm,O,m,440,1,900.7999999523163,525489.0,7164,WL,B,15.0
4,33.705000162124634,learn,26294.999837875366,Wed Jun 11 2025 15:58:46 GMT-0500 (Central Daylight Time),526671.899999857,A,armenter,O,enter,245,1,1182.8999998569489,525489.0,7164,WL,B,15.0
5,0.9839999675750732,learn,60000.0,Wed Jun 11 2025 15:58:46 GMT-0500 (Central Daylight Time),599565.6999998093,A,s,O,s,950,1,983.0,598582.6999998093,7164,WL,B,1.0
5,1.1159999370574951,learn,60000.0,Wed Jun 11 2025 15:58:46 GMT-0500 (Central Daylight Time),599698.0,A,sk,O,k,96,1,1115.3000001907349,598582.6999998093,7164,WL,B,1.0
5,1.3339998722076416,learn,60000.0,Wed Jun 11 2025 15:58:46 GMT-0500 (Central Daylight Time),599915.5,A,ski,O,i,188,1,1332.8000001907349,598582.6999998093,7164,WL,B,1.0
5,1.4159998893737793,learn,60000.0,Wed Jun 11 2025 15:58:46 GMT-0500 (Central Daylight Time),599997.899999857,A,skin,O,n,51,1,1415.2000000476837,598582.6999998093,7164,WL,B,1.0
5,1.7159998416900635,learn,60000.0,Wed Jun 11 2025 15:58:46 GMT-0500 (Central Daylight Time),600297.5,A,skinenter,O,enter,269,1,1714.8000001907349,598582.6999998093,7164,WL,B,1.0
5,2.5160000324249268,learn,60000.0,Wed Jun 11 2025 15:58:46 GMT-0500 (Central Daylight Time),601098.5,A,f,O,f,788,1,800.6000001430511,600297.899999857,7164,WL,B,2.0
5,2.6659998893737793,learn,60000.0,Wed Jun 11 2025 15:58:46 GMT-0500 (Central Daylight Time),601248.2999999523,A,fi,O,i,118,1,950.4000000953674,600297.899999857,7164,WL,B,2.0
5,2.8329999446868896,learn,60000.0,Wed Jun 11 2025 15:58:46 GMT-0500 (Central Daylight Time),601414.899999857,A,fir,O,r,142,1,1117.0,600297.899999857,7164,WL,B,2.0
5,2.9159998893737793,learn,60000.0,Wed Jun 11 2025 15:58:46 GMT-0500 (Central Daylight Time),601497.2999999523,A,fire,O,e,51,1,1199.4000000953674,600297.899999857,7164,WL,B,2.0
5,3.0820000171661377,learn,60000.0,Wed Jun 11 2025 15:58:46 GMT-0500 (Central Daylight Time),601663.899999857,A,fireenter,O,enter,146,1,1366.0,600297.899999857,7164,WL,B,2.0
5,3.4659998416900635,learn,60000.0,Wed Jun 11 2025 15:58:46 GMT-0500 (Central Daylight Time),602048.0999999046,A,c,O,c,374,1,384.0,601664.0999999046,7164,WL,B,3.0
5,3.5989999771118164,learn,60000.0,Wed Jun 11 2025 15:58:46 GMT-0500 (Central Daylight Time),602180.899999857,A,cl,O,l,108,1,516.7999999523163,601664.0999999046,7164,WL,B,3.0
5,3.799999952316284,learn,60000.0,Wed Jun 11 2025 15:58:46 GMT-0500 (Central Daylight Time),602381.6999998093,A,clo,O,o,180,1,717.5999999046326,601664.0999999046,7164,WL,B,3.0
5,3.950000047683716,learn,60000.0,Wed Jun 11 2025 15:58:46 GMT-0500 (Central Daylight Time),602531.2999999523,A,cloc,O,c,111,1,867.2000000476837,601664.0999999046,7164,WL,B,3.0
5,4.065999984741211,learn,60000.0,Wed Jun 11 2025 15:58:46 GMT-0500 (Central Daylight Time),602647.899999857,A,clock,O,k,90,1,983.7999999523163,601664.0999999046,7164,WL,B,3.0
5,4.332000017166138,learn,60000.0,Wed Jun 11 2025 15:58:46 GMT-0500 (Central Daylight Time),602913.6999998093,A,clockenter,O,enter,226,1,1249.5999999046326,601664.0999999046,7164,WL,B,3.0
5,4.7159998416900635,learn,60000.0,Wed Jun 11 2025 15:58:46 GMT-0500 (Central Daylight Time),603298.0,A,p,O,p,371,1,384.0,602914.0,7164,WL,B,4.0
5,4.898999929428101,learn,60000.0,Wed Jun 11 2025 15:58:46 GMT-0500 (Central Daylight Time),603480.6999998093,A,pi,O,i,150,1,566.6999998092651,602914.0,7164,WL,B,4.0
5,5.065999984741211,learn,60000.0,Wed Jun 11 2025 15:58:46 GMT-0500 (Central Daylight Time),603647.5999999046,A,pip,O,p,130,1,733.5999999046326,602914.0,7164,WL,B,4.0
5,5.266000032424927,learn,60000.0,Wed Jun 11 2025 15:58:46 GMT-0500 (Central Daylight Time),603847.5999999046,A,pipe,O,e,168,1,933.5999999046326,602914.0,7164,WL,B,4.0
5,5.430999994277954,learn,60000.0,Wed Jun 11 2025 15:58:46 GMT-0500 (Central Daylight Time),604013.0999999046,A,pipeenter,O,enter,138,1,1099.0999999046326,602914.0,7164,WL,B,4.0
5,5.832000017166138,learn,60000.0,Wed Jun 11 2025 15:58:46 GMT-0500 (Central Daylight Time),604414.0,A,p,O,p,385,1,400.80000019073486,604013.1999998093,7164,WL,B,5.0
5,6.098999977111816,learn,60000.0,Wed Jun 11 2025 15:58:46 GMT-0500 (Central Daylight Time),604680.7999999523,A,pu,O,u,228,1,667.6000001430511,604013.1999998093,7164,WL,B,5.0
5,6.365999937057495,learn,60000.0,Wed Jun 11 2025 15:58:46 GMT-0500 (Central Daylight Time),604947.5,A,pup,O,p,233,1,934.3000001907349,604013.1999998093,7164,WL,B,5.0
5,6.598999977111816,learn,60000.0,Wed Jun 11 2025 15:58:46 GMT-0500 (Central Daylight Time),605180.5,A,pupi,O,i,201,1,1167.3000001907349,604013.1999998093,7164,WL,B,5.0
5,6.8480000495910645,learn,60000.0,Wed Jun 11 2025 15:58:46 GMT-0500 (Central Daylight Time),605430.0,A,pupil,O,l,223,1,1416.8000001907349,604013.1999998093,7164,WL,B,5.0
5,7.21399998664856,learn,60000.0,Wed Jun 11 2025 15:58:46 GMT-0500 (Central Daylight Time),605795.7999999523,A,pupilenter,O,enter,338,1,1782.6000001430511,604013.1999998093,7164,WL,B,5.0
5,7.5980000495910645,learn,60000.0,Wed Jun 11 2025 15:58:46 GMT-0500 (Central Daylight Time),606180.0999999046,A,c,O,c,362,1,384.0,605796.0999999046,7164,WL,B,6.0
5,7.646999835968018,learn,60000.0,Wed Jun 11 2025 15:58:46 GMT-0500 (Central Daylight Time),606229.399999857,A,ca,O,a,30,1,433.2999999523163,605796.0999999046,7164,WL,B,6.0
5,7.815999984741211,learn,60000.0,Wed Jun 11 2025 15:58:46 GMT-0500 (Central Daylight Time),606397.7999999523,A,cab,O,b,153,1,601.7000000476837,605796.0999999046,7164,WL,B,6.0
5,7.997999906539917,learn,60000.0,Wed Jun 11 2025 15:58:46 GMT-0500 (Central Daylight Time),606579.6999998093,A,cabi,O,i,151,1,783.5999999046326,605796.0999999046,7164,WL,B,6.0
5,8.060999870300293,learn,60000.0,Wed Jun 11 2025 15:58:46 GMT-0500 (Central Daylight Time),606642.5999999046,A,cabin,O,n,25,1,846.5,605796.0999999046,7164,WL,B,6.0
5,8.313999891281128,learn,60000.0,Wed Jun 11 2025 15:58:46 GMT-0500 (Central Daylight Time),606895.2999999523,A,cabinenter,O,enter,227,1,1099.2000000476837,605796.0999999046,7164,WL,B,6.0
5,9.014999866485596,learn,60000.0,Wed Jun 11 2025 15:58:46 GMT-0500 (Central Daylight Time),607596.7999999523,A,l,O,l,695,1,701.2999999523163,606895.5,7164,WL,B,7.0
5,9.180999994277954,learn,60000.0,Wed Jun 11 2025 15:58:46 GMT-0500 (Central Daylight Time),607762.7999999523,A,la,O,a,126,1,867.2999999523163,606895.5,7164,WL,B,7.0
5,9.697999954223633,learn,60000.0,Wed Jun 11 2025 15:58:46 GMT-0500 (Central Daylight Time),608279.399999857,A,lak,O,k,488,1,1383.8999998569489,606895.5,7164,WL,B,7.0
5,9.879999876022339,learn,60000.0,Wed Jun 11 2025 15:58:46 GMT-0500 (Central Daylight Time),608462.0999999046,A,lake,O,e,156,1,1566.5999999046326,606895.5,7164,WL,B,7.0
5,10.063999891281128,learn,60000.0,Wed Jun 11 2025 15:58:46 GMT-0500 (Central Daylight Time),608646.0999999046,A,lakeenter,O,enter,153,1,1750.5999999046326,606895.5,7164,WL,B,7.0
5,10.379999876022339,learn,60000.0,Wed Jun 11 2025 15:58:46 GMT-0500 (Central Daylight Time),608961.7999999523,A,w,O,w,295,1,315.40000009536743,608646.399999857,7164,WL,B,8.0
5,10.496999979019165,learn,60000.0,Wed Jun 11 2025 15:58:46 GMT-0500 (Central Daylight Time),609079.2999999523,A,wi,O,i,93,1,432.90000009536743,608646.399999857,7164,WL,B,8.0
5,10.596999883651733,learn,60000.0,Wed Jun 11 2025 15:58:46 GMT-0500 (Central Daylight Time),609178.2999999523,A,win,O,n,66,1,531.9000000953674,608646.399999857,7164,WL,B,8.0
5,10.730000019073486,learn,60000.0,Wed Jun 11 2025 15:58:46 GMT-0500 (Central Daylight Time),609311.899999857,A,wind,O,d,120,1,665.5,608646.399999857,7164,WL,B,8.0
5,10.846999883651733,learn,60000.0,Wed Jun 11 2025 15:58:46 GMT-0500 (Central Daylight Time),609429.0999999046,A,windo,O,o,85,1,782.7000000476837,608646.399999857,7164,WL,B,8.0
5,11.013000011444092,learn,60000.0,Wed Jun 11 2025 15:58:46 GMT-0500 (Central Daylight Time),609594.899999857,A,window,O,w,133,1,948.5,608646.399999857,7164,WL,B,8.0
5,11.230000019073486,learn,60000.0,Wed Jun 11 2025 15:58:46 GMT-0500 (Central Daylight Time),609811.1999998093,A,windowenter,O,enter,195,1,1164.7999999523163,608646.399999857,7164,WL,B,8.0
5,11.713000059127808,learn,60000.0,Wed Jun 11 2025 15:58:46 GMT-0500 (Central Daylight Time),610295.1999998093,A,c,O,c,467,1,483.69999980926514,609811.5,7164,WL,B,9.0
5,11.914000034332275,learn,60000.0,Wed Jun 11 2025 15:58:46 GMT-0500 (Central Daylight Time),610495.5999999046,A,ci,O,i,164,1,684.0999999046326,609811.5,7164,WL,B,9.0
5,12.129999876022339,learn,60000.0,Wed Jun 11 2025 15:58:46 GMT-0500 (Central Daylight Time),610712.0999999046,A,cit,O,t,178,1,900.5999999046326,609811.5,7164,WL,B,9.0
5,12.178999900817871,learn,60000.0,Wed Jun 11 2025 15:58:46 GMT-0500 (Central Daylight Time),610760.899999857,A,city,O,y,16,1,949.3999998569489,609811.5,7164,WL,B,9.0
5,12.345999956130981,learn,60000.0,Wed Jun 11 2025 15:58:46 GMT-0500 (Central Daylight Time),610927.2999999523,A,cityenter,O,enter,143,1,1115.7999999523163,609811.5,7164,WL,B,9.0
5,12.661999940872192,learn,60000.0,Wed Jun 11 2025 15:58:46 GMT-0500 (Central Daylight Time),611243.7999999523,A,w,O,w,310,1,316.2000000476837,610927.5999999046,7164,WL,B,10.0
5,12.845999956130981,learn,60000.0,Wed Jun 11 2025 15:58:46 GMT-0500 (Central Daylight Time),611427.399999857,A,wi,O,i,167,1,499.7999999523163,610927.5999999046,7164,WL,B,10.0
5,13.046000003814697,learn,60000.0,Wed Jun 11 2025 15:58:46 GMT-0500 (Central Daylight Time),611627.2999999523,A,wif,O,f,184,1,699.7000000476837,610927.5999999046,7164,WL,B,10.0
5,13.144999980926514,learn,60000.0,Wed Jun 11 2025 15:58:46 GMT-0500 (Central Daylight Time),611727.1999998093,A,wife,O,e,80,1,799.5999999046326,610927.5999999046,7164,WL,B,10.0
5,13.394999980926514,learn,60000.0,Wed Jun 11 2025 15:58:46 GMT-0500 (Central Daylight Time),611977.0,A,wifeenter,O,enter,229,1,1049.4000000953674,610927.5999999046,7164,WL,B,10.0
5,15.263000011444092,learn,60000.0,Wed Jun 11 2025 15:58:46 GMT-0500 (Central Daylight Time),613844.5,A,s,O,s,1845,1,1867.2000000476837,611977.2999999523,7164,WL,B,11.0
5,16.079999923706055,learn,60000.0,Wed Jun 11 2025 15:58:46 GMT-0500 (Central Daylight Time),614661.399999857,A,st,O,t,794,1,2684.0999999046326,611977.2999999523,7164,WL,B,11.0
5,16.17799997329712,learn,60000.0,Wed Jun 11 2025 15:58:46 GMT-0500 (Central Daylight Time),614760.0,A,str,O,r,70,1,2782.7000000476837,611977.2999999523,7164,WL,B,11.0
5,16.611999988555908,learn,60000.0,Wed Jun 11 2025 15:58:46 GMT-0500 (Central Daylight Time),615193.899999857,A,stre,O,e,414,1,3216.5999999046326,611977.2999999523,7164,WL,B,11.0
5,16.77900004386902,learn,60000.0,Wed Jun 11 2025 15:58:46 GMT-0500 (Central Daylight Time),615360.399999857,A,stree,O,e,140,1,3383.0999999046326,611977.2999999523,7164,WL,B,11.0
5,16.860999822616577,learn,60000.0,Wed Jun 11 2025 15:58:46 GMT-0500 (Central Daylight Time),615443.1999998093,A,street,O,t,50,1,3465.899999856949,611977.2999999523,7164,WL,B,11.0
5,17.41100001335144,learn,60000.0,Wed Jun 11 2025 15:58:46 GMT-0500 (Central Daylight Time),615992.399999857,A,streetenter,O,enter,530,1,4015.0999999046326,611977.2999999523,7164,WL,B,11.0
5,17.69599986076355,learn,60000.0,Wed Jun 11 2025 15:58:46 GMT-0500 (Central Daylight Time),616277.399999857,A,g,O,g,278,1,284.7000000476837,615992.6999998093,7164,WL,B,12.0
5,17.92799997329712,learn,60000.0,Wed Jun 11 2025 15:58:46 GMT-0500 (Central Daylight Time),616509.899999857,A,gr,O,r,203,1,517.2000000476837,615992.6999998093,7164,WL,B,12.0
5,18.09500002861023,learn,60000.0,Wed Jun 11 2025 15:58:46 GMT-0500 (Central Daylight Time),616676.6999998093,A,gra,O,a,126,1,684.0,615992.6999998093,7164,WL,B,12.0
5,18.34500002861023,learn,60000.0,Wed Jun 11 2025 15:58:46 GMT-0500 (Central Daylight Time),616926.2999999523,A,gras,O,s,221,1,933.6000001430511,615992.6999998093,7164,WL,B,12.0
5,18.543999910354614,learn,60000.0,Wed Jun 11 2025 15:58:46 GMT-0500 (Central Daylight Time),617125.899999857,A,grass,O,s,172,1,1133.2000000476837,615992.6999998093,7164,WL,B,12.0
5,18.89400005340576,learn,60000.0,Wed Jun 11 2025 15:58:46 GMT-0500 (Central Daylight Time),617475.2999999523,A,grassenter,O,enter,322,1,1482.6000001430511,615992.6999998093,7164,WL,B,12.0
5,19.378000020980835,learn,60000.0,Wed Jun 11 2025 15:58:46 GMT-0500 (Central Daylight Time),617959.5999999046,A,d,O,d,466,1,484.0,617475.5999999046,7164,WL,B,13.0
5,19.543999910354614,learn,60000.0,Wed Jun 11 2025 15:58:46 GMT-0500 (Central Daylight Time),618126.1999998093,A,do,O,o,132,1,650.5999999046326,617475.5999999046,7164,WL,B,13.0
5,19.73799991607666,learn,60000.0,Wed Jun 11 2025 15:58:46 GMT-0500 (Central Daylight Time),618319.6999998093,A,doo,O,o,167,1,844.0999999046326,617475.5999999046,7164,WL,B,13.0
5,19.91100001335144,learn,60000.0,Wed Jun 11 2025 15:58:46 GMT-0500 (Central Daylight Time),618492.899999857,A,door,O,r,155,1,1017.2999999523163,617475.5999999046,7164,WL,B,13.0
5,20.109999895095825,learn,60000.0,Wed Jun 11 2025 15:58:46 GMT-0500 (Central Daylight Time),618691.5999999046,A,doorenter,O,enter,161,1,1216.0,617475.5999999046,7164,WL,B,13.0
5,20.460999965667725,learn,60000.0,Wed Jun 11 2025 15:58:46 GMT-0500 (Central Daylight Time),619042.5,A,a,O,a,339,1,350.60000014305115,618691.899999857,7164,WL,B,14.0
5,20.710999965667725,learn,60000.0,Wed Jun 11 2025 15:58:46 GMT-0500 (Central Daylight Time),619292.399999857,A,ar,O,r,217,1,600.5,618691.899999857,7164,WL,B,14.0
5,21.126999855041504,learn,60000.0,Wed Jun 11 2025 15:58:46 GMT-0500 (Central Daylight Time),619709.0999999046,A,arm,O,m,383,1,1017.2000000476837,618691.899999857,7164,WL,B,14.0
5,21.442999839782715,learn,60000.0,Wed Jun 11 2025 15:58:46 GMT-0500 (Central Daylight Time),620024.5999999046,A,armenter,O,enter,277,1,1332.7000000476837,618691.899999857,7164,WL,B,14.0
5,21.759999990463257,learn,60000.0,Wed Jun 11 2025 15:58:46 GMT-0500 (Central Daylight Time),620342.0999999046,A,s,O,s,302,1,317.2000000476837,620024.899999857,7164,WL,B,15.0
5,21.876999855041504,learn,60000.0,Wed Jun 11 2025 15:58:46 GMT-0500 (Central Daylight Time),620458.5999999046,A,st,O,t,85,1,433.7000000476837,620024.899999857,7164,WL,B,15.0
5,22.043999910354614,learn,60000.0,Wed Jun 11 2025 15:58:46 GMT-0500 (Central Daylight Time),620625.399999857,A,sta,O,a,127,1,600.5,620024.899999857,7164,WL,B,15.0
5,22.15999984741211,learn,60000.0,Wed Jun 11 2025 15:58:46 GMT-0500 (Central Daylight Time),620741.399999857,A,star,O,r,91,1,716.5,620024.899999857,7164,WL,B,15.0
5,22.64199995994568,learn,60000.0,Wed Jun 11 2025 15:58:46 GMT-0500 (Central Daylight Time),621224.1999998093,A,starenter,O,enter,447,1,1199.2999999523163,620024.899999857,7164,WL,B,15.0
6,0.75,distr,59250.0,Wed Jun 11 2025 15:58:46 GMT-0500 (Central Daylight Time),701665.5,B,b,O,b,714,1,749.7000000476837,700915.7999999523,7164,WL,B,1.0
6,0.8320000171661377,distr,59167.99998283386,Wed Jun 11 2025 15:58:46 GMT-0500 (Central Daylight Time),701747.6999998093,B,bu,O,u,56,1,831.8999998569489,700915.7999999523,7164,WL,B,1.0
6,0.9160001277923584,distr,59083.99987220764,Wed Jun 11 2025 15:58:46 GMT-0500 (Central Daylight Time),701831.0,B,bui,O,i,69,1,915.2000000476837,700915.7999999523,7164,WL,B,1.0
6,1.2330000400543213,distr,58766.99995994568,Wed Jun 11 2025 15:58:46 GMT-0500 (Central Daylight Time),702148.399999857,B,buil,O,l,290,1,1232.5999999046326,700915.7999999523,7164,WL,B,1.0
6,1.4000000953674316,distr,58599.99990463257,Wed Jun 11 2025 15:58:46 GMT-0500 (Central Daylight Time),702315.399999857,B,build,O,d,127,1,1399.5999999046326,700915.7999999523,7164,WL,B,1.0
6,1.499000072479248,distr,58500.99992752075,Wed Jun 11 2025 15:58:46 GMT-0500 (Central Daylight Time),702414.1999998093,B,buildi,O,i,75,1,1498.3999998569489,700915.7999999523,7164,WL,B,1.0
6,1.565999984741211,distr,58434.00001525879,Wed Jun 11 2025 15:58:46 GMT-0500 (Central Daylight Time),702480.7999999523,B,buildin,O,n,51,1,1565.0,700915.7999999523,7164,WL,B,1.0
6,1.7320001125335693,distr,58267.99988746643,Wed Jun 11 2025 15:58:46 GMT-0500 (Central Daylight Time),702647.6999998093,B,building,O,g,131,1,1731.8999998569489,700915.7999999523,7164,WL,B,1.0
6,2.365000009536743,distr,57634.99999046326,Wed Jun 11 2025 15:58:46 GMT-0500 (Central Daylight Time),703280.5,B,buildingenter,O,enter,609,1,2364.7000000476837,700915.7999999523,7164,WL,B,1.0
6,3.866000175476074,distr,56133.999824523926,Wed Jun 11 2025 15:58:46 GMT-0500 (Central Daylight Time),704781.5,B,f,O,f,1493,1,1500.8000001907349,703280.6999998093,7164,WL,B,2.0
6,3.949000120162964,distr,56050.999879837036,Wed Jun 11 2025 15:58:46 GMT-0500 (Central Daylight Time),704863.7999999523,B,fr,O,r,45,1,1583.1000001430511,703280.6999998093,7164,WL,B,2.0
6,4.098999977111816,distr,55901.00002288818,Wed Jun 11 2025 15:58:46 GMT-0500 (Central Daylight Time),705014.399999857,B,fri,O,i,135,1,1733.7000000476837,703280.6999998093,7164,WL,B,2.0
6,4.216000080108643,distr,55783.99991989136,Wed Jun 11 2025 15:58:46 GMT-0500 (Central Daylight Time),705130.899999857,B,frie,O,e,89,1,1850.2000000476837,703280.6999998093,7164,WL,B,2.0
6,4.398000001907349,distr,55601.99999809265,Wed Jun 11 2025 15:58:46 GMT-0500 (Central Daylight Time),705313.399999857,B,frien,O,n,146,1,2032.7000000476837,703280.6999998093,7164,WL,B,2.0
6,4.565999984741211,distr,55434.00001525879,Wed Jun 11 2025 15:58:46 GMT-0500 (Central Daylight Time),705480.6999998093,B,friend,O,d,145,1,2200.0,703280.6999998093,7164,WL,B,2.0
6,4.930999994277954,distr,55069.000005722046,Wed Jun 11 2025 15:58:46 GMT-0500 (Central Daylight Time),705846.2999999523,B,friendenter,O,enter,329,1,2565.600000143051,703280.6999998093,7164,WL,B,2.0
6,8.13100004196167,distr,51868.99995803833,Wed Jun 11 2025 15:58:46 GMT-0500 (Central Daylight Time),709046.2999999523,B,a,O,a,3183,1,3199.7000000476837,705846.5999999046,7164,WL,B,3.0
6,8.414000034332275,distr,51585.999965667725,Wed Jun 11 2025 15:58:46 GMT-0500 (Central Daylight Time),709329.5,B,ar,O,r,252,1,3482.9000000953674,705846.5999999046,7164,WL,B,3.0
6,8.614000082015991,distr,51385.99991798401,Wed Jun 11 2025 15:58:46 GMT-0500 (Central Daylight Time),709529.6999998093,B,arm,O,m,162,1,3683.0999999046326,705846.5999999046,7164,WL,B,3.0
6,8.88100004196167,distr,51118.99995803833,Wed Jun 11 2025 15:58:46 GMT-0500 (Central Daylight Time),709796.0999999046,B,army,O,y,232,1,3949.5,705846.5999999046,7164,WL,B,3.0
6,9.146000146865845,distr,50853.999853134155,Wed Jun 11 2025 15:58:46 GMT-0500 (Central Daylight Time),710061.5999999046,B,armyenter,O,enter,238,1,4215.0,705846.5999999046,7164,WL,B,3.0
6,9.430000066757202,distr,50569.9999332428,Wed Jun 11 2025 15:58:46 GMT-0500 (Central Daylight Time),710345.2999999523,B,s,O,s,265,1,283.5,710061.7999999523,7164,WL,B,4.0
6,9.69700002670288,distr,50302.99997329712,Wed Jun 11 2025 15:58:46 GMT-0500 (Central Daylight Time),710611.7999999523,B,st,O,t,252,1,550.0,710061.7999999523,7164,WL,B,4.0
6,9.898000001907349,distr,50101.99999809265,Wed Jun 11 2025 15:58:46 GMT-0500 (Central Daylight Time),710813.0999999046,B,sto,O,o,192,1,751.2999999523163,710061.7999999523,7164,WL,B,4.0
6,10.180000066757202,distr,49819.9999332428,Wed Jun 11 2025 15:58:46 GMT-0500 (Central Daylight Time),711095.0999999046,B,stom,O,m,255,1,1033.2999999523163,710061.7999999523,7164,WL,B,4.0
6,11.029000043869019,distr,48970.99995613098,Wed Jun 11 2025 15:58:46 GMT-0500 (Central Daylight Time),711944.2999999523,B,stomenter,O,enter,812,1,1882.5,710061.7999999523,7164,WL,B,4.0
6,12.996000051498413,distr,47003.99994850159,Wed Jun 11 2025 15:58:46 GMT-0500 (Central Daylight Time),713911.1999998093,B,v,O,v,1957,1,1966.5999999046326,711944.5999999046,7164,WL,B,5.0
6,13.09500002861023,distr,46904.99997138977,Wed Jun 11 2025 15:58:46 GMT-0500 (Central Daylight Time),714010.5999999046,B,vi,O,i,60,1,2066.0,711944.5999999046,7164,WL,B,5.0
6,13.328999996185303,distr,46671.0000038147,Wed Jun 11 2025 15:58:46 GMT-0500 (Central Daylight Time),714244.399999857,B,vil,O,l,204,1,2299.7999999523163,711944.5999999046,7164,WL,B,5.0
6,13.496000051498413,distr,46503.99994850159,Wed Jun 11 2025 15:58:46 GMT-0500 (Central Daylight Time),714411.0,B,vill,O,l,128,1,2466.4000000953674,711944.5999999046,7164,WL,B,5.0
6,13.611999988555908,distr,46388.00001144409,Wed Jun 11 2025 15:58:46 GMT-0500 (Central Daylight Time),714527.0,B,villi,O,i,92,1,2582.4000000953674,711944.5999999046,7164,WL,B,5.0
6,13.796000003814697,distr,46203.9999961853,Wed Jun 11 2025 15:58:46 GMT-0500 (Central Daylight Time),714711.0999999046,B,villia,O,a,165,1,2766.5,711944.5999999046,7164,WL,B,5.0
6,14.046000003814697,distr,45953.9999961853,Wed Jun 11 2025 15:58:46 GMT-0500 (Central Daylight Time),714961.0,B,villiag,O,g,212,1,3016.4000000953674,711944.5999999046,7164,WL,B,5.0
6,14.26200008392334,distr,45737.99991607666,Wed Jun 11 2025 15:58:46 GMT-0500 (Central Daylight Time),715177.5,B,villiage,O,e,177,1,3232.9000000953674,711944.5999999046,7164,WL,B,5.0
6,15.078999996185303,distr,44921.0000038147,Wed Jun 11 2025 15:58:46 GMT-0500 (Central Daylight Time),715994.0999999046,B,villiag,O,backspace,778,1,4049.5,711944.5999999046,7164,WL,B,5.0
6,15.246000051498413,distr,44753.99994850159,Wed Jun 11 2025 15:58:46 GMT-0500 (Central Daylight Time),716160.899999857,B,villia,O,backspace,128,1,4216.299999952316,711944.5999999046,7164,WL,B,5.0
6,15.379000186920166,distr,44620.999813079834,Wed Jun 11 2025 15:58:46 GMT-0500 (Central Daylight Time),716293.7999999523,B,villi,O,backspace,98,1,4349.200000047684,711944.5999999046,7164,WL,B,5.0
6,15.529000043869019,distr,44470.99995613098,Wed Jun 11 2025 15:58:46 GMT-0500 (Central Daylight Time),716443.7999999523,B,vill,O,backspace,111,1,4499.200000047684,711944.5999999046,7164,WL,B,5.0
6,15.662000179290771,distr,44337.99982070923,Wed Jun 11 2025 15:58:46 GMT-0500 (Central Daylight Time),716577.1999998093,B,vil,O,backspace,106,1,4632.599999904633,711944.5999999046,7164,WL,B,5.0
6,16.67900013923645,distr,43320.99986076355,Wed Jun 11 2025 15:58:46 GMT-0500 (Central Daylight Time),717593.5,B,vill,O,l,985,1,5648.900000095367,711944.5999999046,7164,WL,B,5.0
6,16.795000076293945,distr,43204.999923706055,Wed Jun 11 2025 15:58:46 GMT-0500 (Central Daylight Time),717709.399999857,B,villa,O,a,88,1,5764.799999952316,711944.5999999046,7164,WL,B,5.0
6,17.02900004386902,distr,42970.99995613098,Wed Jun 11 2025 15:58:46 GMT-0500 (Central Daylight Time),717943.399999857,B,villag,O,g,205,1,5998.799999952316,711944.5999999046,7164,WL,B,5.0
6,17.144999980926514,distr,42855.000019073486,Wed Jun 11 2025 15:58:46 GMT-0500 (Central Daylight Time),718059.7999999523,B,village,O,e,87,1,6115.200000047684,711944.5999999046,7164,WL,B,5.0
6,17.561000108718872,distr,42438.99989128113,Wed Jun 11 2025 15:58:46 GMT-0500 (Central Daylight Time),718475.5999999046,B,villageenter,O,enter,383,1,6531.0,711944.5999999046,7164,WL,B,5.0
6,20.42799997329712,distr,39572.00002670288,Wed Jun 11 2025 15:58:46 GMT-0500 (Central Daylight Time),721342.2999999523,B,c,O,c,2860,1,2866.4000000953674,718475.899999857,7164,WL,B,6.0
6,20.508000135421753,distr,39491.99986457825,Wed Jun 11 2025 15:58:46 GMT-0500 (Central Daylight Time),721422.2999999523,B,ce,O,e,53,1,2946.4000000953674,718475.899999857,7164,WL,B,6.0
6,20.694000005722046,distr,39305.999994277954,Wed Jun 11 2025 15:58:46 GMT-0500 (Central Daylight Time),721608.1999998093,B,cel,O,l,159,1,3132.2999999523163,718475.899999857,7164,WL,B,6.0
6,20.89400005340576,distr,39105.99994659424,Wed Jun 11 2025 15:58:46 GMT-0500 (Central Daylight Time),721808.7999999523,B,cell,O,l,175,1,3332.9000000953674,718475.899999857,7164,WL,B,6.0
6,21.2260000705719,distr,38773.9999294281,Wed Jun 11 2025 15:58:46 GMT-0500 (Central Daylight Time),722141.0,B,cellenter,O,enter,298,1,3665.100000143051,718475.899999857,7164,WL,B,6.0
6,23.210999965667725,distr,36789.000034332275,Wed Jun 11 2025 15:58:46 GMT-0500 (Central Daylight Time),724125.2999999523,B,b,O,b,1977,1,1984.1000001430511,722141.1999998093,7164,WL,B,7.0
6,23.360000133514404,distr,36639.999866485596,Wed Jun 11 2025 15:58:46 GMT-0500 (Central Daylight Time),724274.899999857,B,ba,O,a,115,1,2133.7000000476837,722141.1999998093,7164,WL,B,7.0
6,23.493000030517578,distr,36506.99996948242,Wed Jun 11 2025 15:58:46 GMT-0500 (Central Daylight Time),724407.5,B,bab,O,b,109,1,2266.300000190735,722141.1999998093,7164,WL,B,7.0
6,23.87600016593933,distr,36123.99983406067,Wed Jun 11 2025 15:58:46 GMT-0500 (Central Daylight Time),724791.0,B,baby,O,y,347,1,2649.800000190735,722141.1999998093,7164,WL,B,7.0
6,24.092000007629395,distr,35907.999992370605,Wed Jun 11 2025 15:58:46 GMT-0500 (Central Daylight Time),725006.5999999046,B,babyenter,O,enter,178,1,2865.4000000953674,722141.1999998093,7164,WL,B,7.0
6,26.358999967575073,distr,33641.00003242493,Wed Jun 11 2025 15:58:46 GMT-0500 (Central Daylight Time),727273.899999857,B,o,O,o,2246,1,2267.0,725006.899999857,7164,WL,B,8.0
6,26.625,distr,33375.0,Wed Jun 11 2025 15:58:46 GMT-0500 (Central Daylight Time),727540.1999998093,B,oc,O,c,228,1,2533.2999999523163,725006.899999857,7164,WL,B,8.0
6,26.842000007629395,distr,33157.999992370605,Wed Jun 11 2025 15:58:46 GMT-0500 (Central Daylight Time),727757.1999998093,B,oce,O,e,184,1,2750.2999999523163,725006.899999857,7164,WL,B,8.0
6,27.14199995994568,distr,32858.00004005432,Wed Jun 11 2025 15:58:46 GMT-0500 (Central Daylight Time),728056.5,B,ocea,O,a,273,1,3049.600000143051,725006.899999857,7164,WL,B,8.0
6,27.442000150680542,distr,32557.999849319458,Wed Jun 11 2025 15:58:46 GMT-0500 (Central Daylight Time),728356.5999999046,B,ocean,O,n,272,1,3349.7000000476837,725006.899999857,7164,WL,B,8.0
6,27.69099998474121,distr,32309.00001525879,Wed Jun 11 2025 15:58:46 GMT-0500 (Central Daylight Time),728605.5,B,oceanenter,O,enter,226,1,3598.600000143051,725006.899999857,7164,WL,B,8.0
6,28.10800004005432,distr,31891.99995994568,Wed Jun 11 2025 15:58:46 GMT-0500 (Central Daylight Time),729022.7999999523,B,l,O,l,401,1,417.10000014305115,728605.6999998093,7164,WL,B,9.0
6,28.375,distr,31625.0,Wed Jun 11 2025 15:58:46 GMT-0500 (Central Daylight Time),729289.6999998093,B,li,O,i,235,1,684.0,728605.6999998093,7164,WL,B,9.0
6,28.60800004005432,distr,31391.99995994568,Wed Jun 11 2025 15:58:46 GMT-0500 (Central Daylight Time),729523.0,B,lip,O,p,201,1,917.3000001907349,728605.6999998093,7164,WL,B,9.0
6,29.140000104904175,distr,30859.999895095825,Wed Jun 11 2025 15:58:46 GMT-0500 (Central Daylight Time),730055.0999999046,B,lipenter,O,enter,498,1,1449.4000000953674,728605.6999998093,7164,WL,B,9.0
6,32.723000049591064,distr,27276.999950408936,Wed Jun 11 2025 15:58:46 GMT-0500 (Central Daylight Time),733637.899999857,B,r,O,r,3576,1,3582.5,730055.399999857,7164,WL,B,10.0
6,32.873000144958496,distr,27126.999855041504,Wed Jun 11 2025 15:58:46 GMT-0500 (Central Daylight Time),733787.399999857,B,ro,O,o,118,1,3732.0,730055.399999857,7164,WL,B,10.0
6,33.140000104904175,distr,26859.999895095825,Wed Jun 11 2025 15:58:46 GMT-0500 (Central Daylight Time),734054.5999999046,B,roc,O,c,243,1,3999.2000000476837,730055.399999857,7164,WL,B,10.0
6,33.28999996185303,distr,26710.000038146973,Wed Jun 11 2025 15:58:46 GMT-0500 (Central Daylight Time),734204.399999857,B,rock,O,k,108,1,4149.0,730055.399999857,7164,WL,B,10.0
6,33.90499997138977,distr,26095.00002861023,Wed Jun 11 2025 15:58:46 GMT-0500 (Central Daylight Time),734820.0,B,rockenter,O,enter,593,1,4764.600000143051,730055.399999857,7164,WL,B,10.0
6,41.937000036239624,distr,18062.999963760376,Wed Jun 11 2025 15:58:46 GMT-0500 (Central Daylight Time),742851.7999999523,B,l,O,l,8010,1,8031.600000143051,734820.1999998093,7164,WL,B,11.0
6,42.23699998855591,distr,17763.00001144409,Wed Jun 11 2025 15:58:46 GMT-0500 (Central Daylight Time),743151.7999999523,B,li,O,i,263,1,8331.600000143051,734820.1999998093,7164,WL,B,11.0
6,42.30299997329712,distr,17697.00002670288,Wed Jun 11 2025 15:58:46 GMT-0500 (Central Daylight Time),743217.5999999046,B,lip,O,p,35,1,8397.400000095367,734820.1999998093,7164,WL,B,11.0
6,42.55200004577637,distr,17447.999954223633,Wed Jun 11 2025 15:58:46 GMT-0500 (Central Daylight Time),743467.0999999046,B,lipenter,O,enter,220,1,8646.900000095367,734820.1999998093,7164,WL,B,11.0
6,60.01400017738342,distr,-14.000177383422852,Wed Jun 11 2025 15:58:46 GMT-0500 (Central Daylight Time),760928.2999999523,B,None,O,None,17455,1,17461.0,743467.2999999523,7164,WL,B,12.0
7,2.183000087738037,immed,57816.99991226196,Wed Jun 11 2025 15:58:46 GMT-0500 (Central Daylight Time),777789.5999999046,A,s,O,s,2161,1,2181.0999999046326,775608.5,7164,WL,B,1.0
7,2.316999912261963,immed,57683.00008773804,Wed Jun 11 2025 15:58:46 GMT-0500 (Central Daylight Time),777923.6999998093,A,st,O,t,103,1,2315.199999809265,775608.5,7164,WL,B,1.0
7,2.367000102996826,immed,57632.999897003174,Wed Jun 11 2025 15:58:46 GMT-0500 (Central Daylight Time),777974.5,A,str,O,r,15,1,2366.0,775608.5,7164,WL,B,1.0
7,2.5169999599456787,immed,57483.00004005432,Wed Jun 11 2025 15:58:46 GMT-0500 (Central Daylight Time),778123.7999999523,A,stre,O,e,122,1,2515.2999999523163,775608.5,7164,WL,B,1.0
7,2.700000047683716,immed,57299.999952316284,Wed Jun 11 2025 15:58:46 GMT-0500 (Central Daylight Time),778306.7999999523,A,stree,O,e,152,1,2698.2999999523163,775608.5,7164,WL,B,1.0
7,2.8329999446868896,immed,57167.00005531311,Wed Jun 11 2025 15:58:46 GMT-0500 (Central Daylight Time),778440.0999999046,A,street,O,t,101,1,2831.5999999046326,775608.5,7164,WL,B,1.0
7,3.315000057220459,immed,56684.99994277954,Wed Jun 11 2025 15:58:46 GMT-0500 (Central Daylight Time),778922.399999857,A,streetenter,O,enter,445,1,3313.899999856949,775608.5,7164,WL,B,1.0
7,3.865999937057495,immed,56134.000062942505,Wed Jun 11 2025 15:58:46 GMT-0500 (Central Daylight Time),779473.0,A,g,O,g,532,1,550.4000000953674,778922.5999999046,7164,WL,B,2.0
7,4.065000057220459,immed,55934.99994277954,Wed Jun 11 2025 15:58:46 GMT-0500 (Central Daylight Time),779672.0,A,gr,O,r,170,1,749.4000000953674,778922.5999999046,7164,WL,B,2.0
7,4.164999961853027,immed,55835.00003814697,Wed Jun 11 2025 15:58:46 GMT-0500 (Central Daylight Time),779772.2999999523,A,gra,O,a,92,1,849.7000000476837,778922.5999999046,7164,WL,B,2.0
7,4.266000032424927,immed,55733.99996757507,Wed Jun 11 2025 15:58:46 GMT-0500 (Central Daylight Time),779873.0,A,gras,O,s,76,1,950.4000000953674,778922.5999999046,7164,WL,B,2.0
7,4.48199987411499,immed,55518.00012588501,Wed Jun 11 2025 15:58:46 GMT-0500 (Central Daylight Time),780089.5999999046,A,grass,O,s,185,1,1167.0,778922.5999999046,7164,WL,B,2.0
7,4.88100004196167,immed,55118.99995803833,Wed Jun 11 2025 15:58:46 GMT-0500 (Central Daylight Time),780488.399999857,A,grassenter,O,enter,369,1,1565.7999999523163,778922.5999999046,7164,WL,B,2.0
7,5.381999969482422,immed,54618.00003051758,Wed Jun 11 2025 15:58:46 GMT-0500 (Central Daylight Time),780989.2999999523,A,d,O,d,486,1,500.60000014305115,780488.6999998093,7164,WL,B,3.0
7,5.565000057220459,immed,54434.99994277954,Wed Jun 11 2025 15:58:46 GMT-0500 (Central Daylight Time),781172.5999999046,A,do,O,o,151,1,683.9000000953674,780488.6999998093,7164,WL,B,3.0
7,5.765000104904175,immed,54234.999895095825,Wed Jun 11 2025 15:58:46 GMT-0500 (Central Daylight Time),781372.0999999046,A,doo,O,o,159,1,883.4000000953674,780488.6999998093,7164,WL,B,3.0
7,5.98199987411499,immed,54018.00012588501,Wed Jun 11 2025 15:58:46 GMT-0500 (Central Daylight Time),781588.6999998093,A,door,O,r,176,1,1100.0,780488.6999998093,7164,WL,B,3.0
7,6.263999938964844,immed,53736.000061035156,Wed Jun 11 2025 15:58:46 GMT-0500 (Central Daylight Time),781871.2999999523,A,doorenter,O,enter,254,1,1382.6000001430511,780488.6999998093,7164,WL,B,3.0
7,6.8480000495910645,immed,53151.999950408936,Wed Jun 11 2025 15:58:46 GMT-0500 (Central Daylight Time),782455.5,A,a,O,a,575,1,583.9000000953674,781871.5999999046,7164,WL,B,4.0
7,7.131999969482422,immed,52868.00003051758,Wed Jun 11 2025 15:58:46 GMT-0500 (Central Daylight Time),782738.7999999523,A,ar,O,r,252,1,867.2000000476837,781871.5999999046,7164,WL,B,4.0
7,7.315000057220459,immed,52684.99994277954,Wed Jun 11 2025 15:58:46 GMT-0500 (Central Daylight Time),782922.0999999046,A,arm,O,m,143,1,1050.5,781871.5999999046,7164,WL,B,4.0
7,7.629999876022339,immed,52370.00012397766,Wed Jun 11 2025 15:58:46 GMT-0500 (Central Daylight Time),783237.5999999046,A,armenter,O,enter,282,1,1366.0,781871.5999999046,7164,WL,B,4.0
7,8.181999921798706,immed,51818.000078201294,Wed Jun 11 2025 15:58:46 GMT-0500 (Central Daylight Time),783789.0,A,s,O,s,544,1,551.2000000476837,783237.7999999523,7164,WL,B,5.0
7,8.331000089645386,immed,51668.999910354614,Wed Jun 11 2025 15:58:46 GMT-0500 (Central Daylight Time),783938.2999999523,A,st,O,t,110,1,700.5,783237.7999999523,7164,WL,B,5.0
7,8.46399998664856,immed,51536.00001335144,Wed Jun 11 2025 15:58:46 GMT-0500 (Central Daylight Time),784071.0,A,sta,O,a,105,1,833.2000000476837,783237.7999999523,7164,WL,B,5.0
7,8.598000049591064,immed,51401.999950408936,Wed Jun 11 2025 15:58:46 GMT-0500 (Central Daylight Time),784204.6999998093,A,star,O,r,109,1,966.8999998569489,783237.7999999523,7164,WL,B,5.0
7,9.079999923706055,immed,50920.000076293945,Wed Jun 11 2025 15:58:46 GMT-0500 (Central Daylight Time),784687.0999999046,A,starenter,O,enter,447,1,1449.2999999523163,783237.7999999523,7164,WL,B,5.0
7,9.46399998664856,immed,50536.00001335144,Wed Jun 11 2025 15:58:46 GMT-0500 (Central Daylight Time),785071.1999998093,A,w,O,w,367,1,383.89999985694885,784687.2999999523,7164,WL,B,6.0
7,9.648000001907349,immed,50351.99999809265,Wed Jun 11 2025 15:58:46 GMT-0500 (Central Daylight Time),785254.6999998093,A,wi,O,i,152,1,567.3999998569489,784687.2999999523,7164,WL,B,6.0
7,9.848000049591064,immed,50151.999950408936,Wed Jun 11 2025 15:58:46 GMT-0500 (Central Daylight Time),785454.6999998093,A,wif,O,f,166,1,767.3999998569489,784687.2999999523,7164,WL,B,6.0
7,9.914000034332275,immed,50085.999965667725,Wed Jun 11 2025 15:58:46 GMT-0500 (Central Daylight Time),785521.399999857,A,wife,O,e,36,1,834.0999999046326,784687.2999999523,7164,WL,B,6.0
7,10.614000082015991,immed,49385.99991798401,Wed Jun 11 2025 15:58:46 GMT-0500 (Central Daylight Time),786221.0,A,wif,O,backspace,667,1,1533.7000000476837,784687.2999999523,7164,WL,B,6.0
7,11.44700002670288,immed,48552.99997329712,Wed Jun 11 2025 15:58:46 GMT-0500 (Central Daylight Time),787054.0999999046,A,wife,O,e,800,1,2366.7999999523163,784687.2999999523,7164,WL,B,6.0
7,12.029000043869019,immed,47970.99995613098,Wed Jun 11 2025 15:58:46 GMT-0500 (Central Daylight Time),787636.0999999046,A,wifeenter,O,enter,549,1,2948.7999999523163,784687.2999999523,7164,WL,B,6.0
7,14.246000051498413,immed,45753.99994850159,Wed Jun 11 2025 15:58:46 GMT-0500 (Central Daylight Time),789853.2999999523,A,w,O,w,2203,1,2216.9000000953674,787636.399999857,7164,WL,B,7.0
7,14.378999948501587,immed,45621.00005149841,Wed Jun 11 2025 15:58:46 GMT-0500 (Central Daylight Time),789985.899999857,A,wi,O,i,101,1,2349.5,787636.399999857,7164,WL,B,7.0
7,14.496000051498413,immed,45503.99994850159,Wed Jun 11 2025 15:58:46 GMT-0500 (Central Daylight Time),790102.6999998093,A,win,O,n,91,1,2466.2999999523163,787636.399999857,7164,WL,B,7.0
7,14.628999948501587,immed,45371.00005149841,Wed Jun 11 2025 15:58:46 GMT-0500 (Central Daylight Time),790236.0999999046,A,wind,O,d,96,1,2599.7000000476837,787636.399999857,7164,WL,B,7.0
7,14.779000043869019,immed,45220.99995613098,Wed Jun 11 2025 15:58:46 GMT-0500 (Central Daylight Time),790385.6999998093,A,windo,O,o,109,1,2749.2999999523163,787636.399999857,7164,WL,B,7.0
7,14.944999933242798,immed,45055.0000667572,Wed Jun 11 2025 15:58:46 GMT-0500 (Central Daylight Time),790552.6999998093,A,window,O,w,131,1,2916.2999999523163,787636.399999857,7164,WL,B,7.0
7,15.17799997329712,immed,44822.00002670288,Wed Jun 11 2025 15:58:46 GMT-0500 (Central Daylight Time),790785.0,A,windowenter,O,enter,204,1,3148.600000143051,787636.399999857,7164,WL,B,7.0
7,15.696000099182129,immed,44303.99990081787,Wed Jun 11 2025 15:58:46 GMT-0500 (Central Daylight Time),791303.0,A,c,O,c,501,1,517.8000001907349,790785.1999998093,7164,WL,B,8.0
7,15.861999988555908,immed,44138.00001144409,Wed Jun 11 2025 15:58:46 GMT-0500 (Central Daylight Time),791469.1999998093,A,co,O,o,134,1,684.0,790785.1999998093,7164,WL,B,8.0
7,16.661999940872192,immed,43338.00005912781,Wed Jun 11 2025 15:58:46 GMT-0500 (Central Daylight Time),792269.2999999523,A,c,O,backspace,776,1,1484.1000001430511,790785.1999998093,7164,WL,B,8.0
7,17.312000036239624,immed,42687.999963760376,Wed Jun 11 2025 15:58:46 GMT-0500 (Central Daylight Time),792918.7999999523,A,ci,O,i,626,1,2133.600000143051,790785.1999998093,7164,WL,B,8.0
7,17.57800006866455,immed,42421.99993133545,Wed Jun 11 2025 15:58:46 GMT-0500 (Central Daylight Time),793185.2999999523,A,cit,O,t,237,1,2400.100000143051,790785.1999998093,7164,WL,B,8.0
7,17.64400005340576,immed,42355.99994659424,Wed Jun 11 2025 15:58:46 GMT-0500 (Central Daylight Time),793251.0999999046,A,city,O,y,37,1,2465.9000000953674,790785.1999998093,7164,WL,B,8.0
7,17.844000101089478,immed,42155.99989891052,Wed Jun 11 2025 15:58:46 GMT-0500 (Central Daylight Time),793450.899999857,A,cityenter,O,enter,180,1,2665.7000000476837,790785.1999998093,7164,WL,B,8.0
7,18.628000020980835,immed,41371.999979019165,Wed Jun 11 2025 15:58:46 GMT-0500 (Central Daylight Time),794235.0,A,p,O,p,762,1,783.8000001907349,793451.1999998093,7164,WL,B,9.0
7,18.84500002861023,immed,41154.99997138977,Wed Jun 11 2025 15:58:46 GMT-0500 (Central Daylight Time),794451.7999999523,A,pu,O,u,179,1,1000.6000001430511,793451.1999998093,7164,WL,B,9.0
7,19.111000061035156,immed,40888.999938964844,Wed Jun 11 2025 15:58:46 GMT-0500 (Central Daylight Time),794718.2999999523,A,pup,O,p,230,1,1267.1000001430511,793451.1999998093,7164,WL,B,9.0
7,19.41100001335144,immed,40588.99998664856,Wed Jun 11 2025 15:58:46 GMT-0500 (Central Daylight Time),795018.0,A,pupi,O,i,269,1,1566.8000001907349,793451.1999998093,7164,WL,B,9.0
7,19.66100001335144,immed,40338.99998664856,Wed Jun 11 2025 15:58:46 GMT-0500 (Central Daylight Time),795268.0999999046,A,pupil,O,l,215,1,1816.9000000953674,793451.1999998093,7164,WL,B,9.0
7,20.792999982833862,immed,39207.00001716614,Wed Jun 11 2025 15:58:46 GMT-0500 (Central Daylight Time),796400.0,A,pupilenter,O,enter,1094,1,2948.800000190735,793451.1999998093,7164,WL,B,9.0
7,21.80900001525879,immed,38190.99998474121,Wed Jun 11 2025 15:58:46 GMT-0500 (Central Daylight Time),797416.399999857,A,c,O,c,1005,1,1016.2000000476837,796400.1999998093,7164,WL,B,10.0
7,21.875999927520752,immed,38124.00007247925,Wed Jun 11 2025 15:58:46 GMT-0500 (Central Daylight Time),797482.899999857,A,ca,O,a,51,1,1082.7000000476837,796400.1999998093,7164,WL,B,10.0
7,22.009999990463257,immed,37990.00000953674,Wed Jun 11 2025 15:58:46 GMT-0500 (Central Daylight Time),797617.2999999523,A,cab,O,b,113,1,1217.1000001430511,796400.1999998093,7164,WL,B,10.0
7,22.177000045776367,immed,37822.99995422363,Wed Jun 11 2025 15:58:46 GMT-0500 (Central Daylight Time),797783.7999999523,A,cabi,O,i,138,1,1383.6000001430511,796400.1999998093,7164,WL,B,10.0
7,22.24399995803833,immed,37756.00004196167,Wed Jun 11 2025 15:58:46 GMT-0500 (Central Daylight Time),797851.1999998093,A,cabin,O,n,34,1,1451.0,796400.1999998093,7164,WL,B,10.0
7,22.592000007629395,immed,37407.999992370605,Wed Jun 11 2025 15:58:46 GMT-0500 (Central Daylight Time),798199.399999857,A,cabinenter,O,enter,324,1,1799.2000000476837,796400.1999998093,7164,WL,B,10.0
7,23.158999919891357,immed,36841.00008010864,Wed Jun 11 2025 15:58:46 GMT-0500 (Central Daylight Time),798766.2999999523,A,l,O,l,559,1,566.7000000476837,798199.5999999046,7164,WL,B,11.0
7,23.325999975204468,immed,36674.00002479553,Wed Jun 11 2025 15:58:46 GMT-0500 (Central Daylight Time),798933.0999999046,A,la,O,a,145,1,733.5,798199.5999999046,7164,WL,B,11.0
7,23.4760000705719,immed,36523.9999294281,Wed Jun 11 2025 15:58:46 GMT-0500 (Central Daylight Time),799083.5,A,lak,O,k,110,1,883.9000000953674,798199.5999999046,7164,WL,B,11.0
7,23.64299988746643,immed,36357.00011253357,Wed Jun 11 2025 15:58:46 GMT-0500 (Central Daylight Time),799250.0999999046,A,lake,O,e,128,1,1050.5,798199.5999999046,7164,WL,B,11.0
7,24.075000047683716,immed,35924.999952316284,Wed Jun 11 2025 15:58:46 GMT-0500 (Central Daylight Time),799682.2999999523,A,lakeenter,O,enter,392,1,1482.7000000476837,798199.5999999046,7164,WL,B,11.0
7,25.89199995994568,immed,34108.00004005432,Wed Jun 11 2025 15:58:46 GMT-0500 (Central Daylight Time),801499.0,A,p,O,p,1804,1,1816.5,799682.5,7164,WL,B,12.0
7,26.058000087738037,immed,33941.99991226196,Wed Jun 11 2025 15:58:46 GMT-0500 (Central Daylight Time),801665.5999999046,A,pi,O,i,136,1,1983.0999999046326,799682.5,7164,WL,B,12.0
7,26.259000062942505,immed,33740.999937057495,Wed Jun 11 2025 15:58:46 GMT-0500 (Central Daylight Time),801865.7999999523,A,pip,O,p,170,1,2183.2999999523163,799682.5,7164,WL,B,12.0
7,26.52500009536743,immed,33474.99990463257,Wed Jun 11 2025 15:58:46 GMT-0500 (Central Daylight Time),802132.2999999523,A,pipe,O,e,226,1,2449.7999999523163,799682.5,7164,WL,B,12.0
7,27.374000072479248,immed,32625.999927520752,Wed Jun 11 2025 15:58:46 GMT-0500 (Central Daylight Time),802981.0999999046,A,pipeenter,O,enter,823,1,3298.5999999046326,799682.5,7164,WL,B,12.0
7,28.47499990463257,immed,31525.00009536743,Wed Jun 11 2025 15:58:46 GMT-0500 (Central Daylight Time),804082.0,A,s,O,s,1081,1,1100.7000000476837,802981.2999999523,7164,WL,B,13.0
7,28.591000080108643,immed,31408.999919891357,Wed Jun 11 2025 15:58:46 GMT-0500 (Central Daylight Time),804197.6999998093,A,sk,O,k,80,1,1216.3999998569489,802981.2999999523,7164,WL,B,13.0
7,28.825000047683716,immed,31174.999952316284,Wed Jun 11 2025 15:58:46 GMT-0500 (Central Daylight Time),804431.6999998093,A,ski,O,i,205,1,1450.3999998569489,802981.2999999523,7164,WL,B,13.0
7,28.874000072479248,immed,31125.999927520752,Wed Jun 11 2025 15:58:46 GMT-0500 (Central Daylight Time),804481.1999998093,A,skin,O,n,21,1,1499.8999998569489,802981.2999999523,7164,WL,B,13.0
7,29.207000017166138,immed,30792.999982833862,Wed Jun 11 2025 15:58:46 GMT-0500 (Central Daylight Time),804813.899999857,A,skinenter,O,enter,319,1,1832.5999999046326,802981.2999999523,7164,WL,B,13.0
7,29.723999977111816,immed,30276.000022888184,Wed Jun 11 2025 15:58:46 GMT-0500 (Central Daylight Time),805331.399999857,A,f,O,f,496,1,517.2999999523163,804814.0999999046,7164,WL,B,14.0
7,29.806999921798706,immed,30193.000078201294,Wed Jun 11 2025 15:58:46 GMT-0500 (Central Daylight Time),805413.5999999046,A,fi,O,i,55,1,599.5,804814.0999999046,7164,WL,B,14.0
7,30.073999881744385,immed,29926.000118255615,Wed Jun 11 2025 15:58:46 GMT-0500 (Central Daylight Time),805681.1999998093,A,fir,O,r,244,1,867.0999999046326,804814.0999999046,7164,WL,B,14.0
7,30.157000064849854,immed,29842.999935150146,Wed Jun 11 2025 15:58:46 GMT-0500 (Central Daylight Time),805763.7999999523,A,fire,O,e,57,1,949.7000000476837,804814.0999999046,7164,WL,B,14.0
7,30.35599994659424,immed,29644.00005340576,Wed Jun 11 2025 15:58:46 GMT-0500 (Central Daylight Time),805963.5999999046,A,fireenter,O,enter,185,1,1149.5,804814.0999999046,7164,WL,B,14.0
7,60.013999938964844,immed,-13.99993896484375,Wed Jun 11 2025 15:58:46 GMT-0500 (Central Daylight Time),835621.5,A,None,O,None,29652,1,29657.700000047684,805963.7999999523,7164,WL,B,15.0
