acc_sum,block,block_c,condition,correct,correct_response,datetime,endtime,flanker,jitter,project,response,response_test_buffer_response,response_test_target_response,response_time,response_time_test_buffer_response,response_time_test_target_response,row_sel,session_number,start_end,starttime,subject_id,target,task,task_vers,time_test_buffer,time_test_buffer_response,time_test_constants,time_test_flanker,time_test_jitter,time_test_logger,time_test_target,time_test_target_response,time_test_variables,trial
1,prac,1,con,1,z,Tue Jan 06 2026 11:03:31 GMT-0600 (Central Standard Time),188673.20000004768,banana,800,I,z,,,593,,,1,1,2696.7000000476837,185976.5,7729,banana,NF,C,,,,,,,,,,1
1,prac,1,con,0,z,Tue Jan 06 2026 11:03:31 GMT-0600 (Central Standard Time),193769.80000007153,orange,1000,I,None,,,1815,,,3,1,5090.100000023842,188679.70000004768,7729,orange,NF,C,,,,,,,,,,2
1,prac,1,con,0,m,Tue Jan 06 2026 11:03:31 GMT-0600 (Central Standard Time),198851.60000002384,zinc,1000,I,None,,,1800,,,15,1,5073.600000023842,193778.0,7729,zinc,NF,C,,,,,,,,,,3
1,prac,1,inc,0,z,Tue Jan 06 2026 11:03:31 GMT-0600 (Central Standard Time),204017.5,lead,1100,I,None,,,1799,,,8,1,5158.199999928474,198859.30000007153,7729,plum,NF,C,,,,,,,,,,4
1,prac,1,inc,0,z,Tue Jan 06 2026 11:03:31 GMT-0600 (Central Standard Time),209183.10000002384,cobalt,1100,I,None,,,1799,,,4,1,5157.799999952316,204025.30000007153,7729,raisin,NF,C,,,,,,,,,,5
1,prac,1,inc,0,z,Tue Jan 06 2026 11:03:31 GMT-0600 (Central Standard Time),214131.40000009537,copper,900,I,None,,,1800,,,2,1,4941.700000047684,209189.70000004768,7729,cherry,NF,C,,,,,,,,,,6
1,prac,1,inc,0,m,Tue Jan 06 2026 11:03:31 GMT-0600 (Central Standard Time),219295.20000004768,raisin,1100,I,None,,,1800,,,12,1,5157.600000023842,214137.60000002384,7729,cobalt,NF,C,,,,,,,,,,7
2,prac,1,con,1,z,Tue Jan 06 2026 11:03:31 GMT-0600 (Central Standard Time),222327.40000009537,lime,800,I,z,,,939,,,5,1,3027.3000000715256,219300.10000002384,7729,lime,NF,C,,,,,,,,,,8
3,prac,1,con,1,m,Tue Jan 06 2026 11:03:31 GMT-0600 (Central Standard Time),225144.60000002384,silver,1000,I,m,,,505,,,11,1,2814.0,222330.60000002384,7729,silver,NF,C,,,,,,,,,,9
4,prac,1,con,1,m,Tue Jan 06 2026 11:03:31 GMT-0600 (Central Standard Time),227709.80000007153,gold,800,I,m,,,449,,,13,1,2559.100000023842,225150.70000004768,7729,gold,NF,C,,,,,,,,,,10
5,prac,1,con,1,m,Tue Jan 06 2026 11:03:31 GMT-0600 (Central Standard Time),230524.80000007153,bronze,800,I,m,,,716,,,9,1,2810.0,227714.80000007153,7729,bronze,NF,C,,,,,,,,,,11
6,prac,1,inc,1,m,Tue Jan 06 2026 11:03:31 GMT-0600 (Central Standard Time),233506.10000002384,cherry,900,I,m,,,767,,,10,1,2975.7999999523163,230530.30000007153,7729,copper,NF,C,,,,,,,,,,12
7,prac,1,con,1,z,Tue Jan 06 2026 11:03:31 GMT-0600 (Central Standard Time),236641.10000002384,kiwi,1000,I,z,,,831,,,7,1,3131.7999999523163,233509.30000007153,7729,kiwi,NF,C,,,,,,,,,,13
8,prac,1,inc,1,m,Tue Jan 06 2026 11:03:31 GMT-0600 (Central Standard Time),239738.60000002384,plum,1100,I,m,,,700,,,16,1,3091.6999999284744,236646.90000009537,7729,lead,NF,C,,,,,,,,,,14
9,prac,1,inc,1,z,Tue Jan 06 2026 11:03:31 GMT-0600 (Central Standard Time),242689.0,iron,900,I,z,,,738,,,6,1,2946.7999999523163,239742.20000004768,7729,pear,NF,C,,,,,,,,,,15
10,prac,1,inc,1,m,Tue Jan 06 2026 11:03:31 GMT-0600 (Central Standard Time),245387.80000007153,pear,900,I,m,,,486,,,14,1,2692.899999976158,242694.90000009537,7729,iron,NF,C,,,,,,,,,,16
0,prac,2,inc,0,z,Tue Jan 06 2026 11:03:31 GMT-0600 (Central Standard Time),275328.60000002384,iron,900,I,None,,,1814,,,6,1,4975.5,270353.10000002384,7729,pear,NF,C,,,,,,,,,,1
1,prac,2,inc,1,z,Tue Jan 06 2026 11:03:31 GMT-0600 (Central Standard Time),278895.3000000715,cobalt,1100,I,z,,,1164,,,4,1,3559.7000000476837,275335.60000002384,7729,raisin,NF,C,,,,,,,,,,2
2,prac,2,con,1,z,Tue Jan 06 2026 11:03:31 GMT-0600 (Central Standard Time),281658.0,banana,800,I,z,,,661,,,1,1,2757.5,278900.5,7729,banana,NF,C,,,,,,,,,,3
3,prac,2,inc,1,z,Tue Jan 06 2026 11:03:31 GMT-0600 (Central Standard Time),284790.8000000715,lead,1100,I,z,,,721,,,8,1,3127.3000000715256,281663.5,7729,plum,NF,C,,,,,,,,,,4
4,prac,2,inc,1,m,Tue Jan 06 2026 11:03:31 GMT-0600 (Central Standard Time),287640.7000000477,pear,900,I,m,,,636,,,14,1,2846.2000000476837,284794.5,7729,iron,NF,C,,,,,,,,,,5
5,prac,2,con,1,z,Tue Jan 06 2026 11:03:31 GMT-0600 (Central Standard Time),290589.8000000715,orange,1000,I,z,,,634,,,3,1,2943.899999976158,287645.90000009537,7729,orange,NF,C,,,,,,,,,,6
6,prac,2,inc,1,m,Tue Jan 06 2026 11:03:31 GMT-0600 (Central Standard Time),293489.8000000715,raisin,1100,I,m,,,496,,,12,1,2893.0,290596.8000000715,7729,cobalt,NF,C,,,,,,,,,,7
7,prac,2,con,1,z,Tue Jan 06 2026 11:03:31 GMT-0600 (Central Standard Time),296137.7000000477,lime,800,I,z,,,535,,,5,1,2640.399999976158,293497.3000000715,7729,lime,NF,C,,,,,,,,,,8
8,prac,2,con,1,m,Tue Jan 06 2026 11:03:31 GMT-0600 (Central Standard Time),298787.0,gold,800,I,m,,,543,,,13,1,2645.399999976158,296141.60000002384,7729,gold,NF,C,,,,,,,,,,9
9,prac,2,inc,1,m,Tue Jan 06 2026 11:03:31 GMT-0600 (Central Standard Time),301818.8000000715,plum,1100,I,m,,,626,,,16,1,3025.5,298793.3000000715,7729,lead,NF,C,,,,,,,,,,10
9,prac,2,con,0,m,Tue Jan 06 2026 11:03:31 GMT-0600 (Central Standard Time),304552.7000000477,zinc,1000,I,z,,,437,,,15,1,2726.2999999523163,301826.40000009537,7729,zinc,NF,C,,,,,,,,,,11
9,prac,2,con,0,z,Tue Jan 06 2026 11:03:31 GMT-0600 (Central Standard Time),307186.90000009537,kiwi,1000,I,m,,,362,,,7,1,2625.5,304561.40000009537,7729,kiwi,NF,C,,,,,,,,,,12
10,prac,2,con,1,m,Tue Jan 06 2026 11:03:31 GMT-0600 (Central Standard Time),310033.5,bronze,800,I,m,,,735,,,9,1,2840.399999976158,307193.10000002384,7729,bronze,NF,C,,,,,,,,,,13
11,prac,2,inc,1,z,Tue Jan 06 2026 11:03:31 GMT-0600 (Central Standard Time),312766.2000000477,copper,900,I,z,,,518,,,2,1,2728.2999999523163,310037.90000009537,7729,cherry,NF,C,,,,,,,,,,14
12,prac,2,con,1,m,Tue Jan 06 2026 11:03:31 GMT-0600 (Central Standard Time),315881.40000009537,silver,1000,I,m,,,803,,,11,1,3108.2000000476837,312773.2000000477,7729,silver,NF,C,,,,,,,,,,15
13,prac,2,inc,1,m,Tue Jan 06 2026 11:03:31 GMT-0600 (Central Standard Time),318631.40000009537,cherry,900,I,m,,,547,,,10,1,2744.2000000476837,315887.2000000477,7729,copper,NF,C,,,,,,,,,,16
1,test,1,inc,1,m,Tue Jan 06 2026 11:03:31 GMT-0600 (Central Standard Time),338757.0,kiwi,1000,I,m,m,None,543,344.0,199.0,111,1,2077.399999976158,336679.60000002384,7729,iron,NF,C,330519,330519,328791,329802,328791,330868,330319,330319,330868,1
2,test,1,con,1,z,Tue Jan 06 2026 11:03:31 GMT-0600 (Central Standard Time),341206.90000009537,plum,1100,I,z,z,None,808,609.0,199.0,60,1,2446.3000000715256,338760.60000002384,7729,plum,NF,C,332701,332701,330872,331985,330872,333318,332502,332502,333318,2
3,test,1,con,1,m,Tue Jan 06 2026 11:03:31 GMT-0600 (Central Standard Time),343239.3000000715,lead,1000,I,m,m,None,499,299.0,200.0,123,1,2028.3000000715256,341211.0,7729,lead,NF,C,335051,335051,333322,334334,333322,335350,334851,334851,335350,3
4,test,1,inc,1,z,Tue Jan 06 2026 11:03:31 GMT-0600 (Central Standard Time),345397.3000000715,cobalt,1100,I,z,z,None,520,317.0,203.0,24,1,2154.3000000715256,343243.0,7729,orange,NF,C,337171,337171,335354,336466,335354,337508,336968,336968,337508,4
5,test,1,con,1,m,Tue Jan 06 2026 11:03:31 GMT-0600 (Central Standard Time),347755.3000000715,silver,1000,I,m,m,None,827,628.0,199.0,83,1,2355.2000000476837,345400.10000002384,7729,silver,NF,C,339233,339233,337511,338518,337511,339866,339033,339033,339866,5
6,test,1,con,1,z,Tue Jan 06 2026 11:03:31 GMT-0600 (Central Standard Time),349770.5,banana,1000,I,z,z,None,477,263.0,214.0,3,1,2011.7999999523163,347758.7000000477,7729,banana,NF,C,341615,341615,339870,340883,339870,341882,341400,341400,341882,6
7,test,1,con,1,z,Tue Jan 06 2026 11:03:31 GMT-0600 (Central Standard Time),351704.7000000477,pear,900,I,z,z,None,483,283.0,200.0,42,1,1930.3999999761581,349774.3000000715,7729,pear,NF,C,343515,343515,341885,342799,341886,343816,343314,343314,343816,7
8,test,1,con,1,z,Tue Jan 06 2026 11:03:31 GMT-0600 (Central Standard Time),353569.3000000715,pear,800,I,z,z,None,528,314.0,214.0,41,1,1859.7000000476837,351709.60000002384,7729,pear,NF,C,345364,345364,343821,344633,343821,345680,345149,345149,345680,8
8,test,1,con,0,z,Tue Jan 06 2026 11:03:31 GMT-0600 (Central Standard Time),355418.3000000715,cherry,800,I,m,m,None,511,296.0,215.0,9,1,1845.2000000476837,353573.10000002384,7729,cherry,NF,C,347230,347230,345684,346498,345684,347529,347015,347015,347529,9
9,test,1,inc,1,z,Tue Jan 06 2026 11:03:31 GMT-0600 (Central Standard Time),357769.60000002384,copper,900,I,z,z,None,916,716.0,200.0,22,1,2347.600000023842,355422.0,7729,orange,NF,C,349164,349164,347533,348447,347533,349881,348963,348963,349881,10
10,test,1,con,1,m,Tue Jan 06 2026 11:03:31 GMT-0600 (Central Standard Time),360050.2000000477,iron,900,I,m,m,None,836,637.0,199.0,106,1,2277.600000023842,357772.60000002384,7729,iron,NF,C,351512,351512,349884,350796,349884,352161,351313,351313,352161,11
10,test,1,inc,0,m,Tue Jan 06 2026 11:03:31 GMT-0600 (Central Standard Time),362217.3000000715,plum,1100,I,z,z,None,533,331.0,202.0,112,1,2162.5,360054.8000000715,7729,iron,NF,C,353997,353997,352166,353280,352166,354328,353794,353794,354328,12
10,test,1,con,0,m,Tue Jan 06 2026 11:03:31 GMT-0600 (Central Standard Time),364466.40000009537,silver,1100,I,z,z,None,617,416.0,201.0,84,1,2246.0,362220.40000009537,7729,silver,NF,C,356161,356161,354331,355446,354332,356578,355960,355960,356577,13
11,test,1,inc,1,z,Tue Jan 06 2026 11:03:31 GMT-0600 (Central Standard Time),366715.10000002384,bronze,800,I,z,z,None,919,719.0,200.0,29,1,2244.600000023842,364470.5,7729,raisin,NF,C,358095,358095,356582,357393,356582,358826,357895,357895,358826,14
11,test,1,con,0,z,Tue Jan 06 2026 11:03:31 GMT-0600 (Central Standard Time),369249.40000009537,pear,1000,I,m,m,None,1000,799.0,201.0,43,1,2529.8000000715256,366719.60000002384,7729,pear,NF,C,360561,360561,358831,359844,358831,361361,360359,360359,361360,15
12,test,1,con,1,z,Tue Jan 06 2026 11:03:31 GMT-0600 (Central Standard Time),371996.7000000477,cherry,1100,I,z,z,None,1103,900.0,203.0,12,1,2740.7000000476837,369256.0,7729,cherry,NF,C,363194,363194,361367,362475,361367,364108,362991,362991,364108,16
13,test,1,inc,1,z,Tue Jan 06 2026 11:03:31 GMT-0600 (Central Standard Time),374329.10000002384,cobalt,1100,I,z,z,None,703,488.0,215.0,16,1,2326.2999999523163,372002.8000000715,7729,cherry,NF,C,365941,365941,364114,365223,364114,366440,365725,365725,366440,17
14,test,1,con,1,z,Tue Jan 06 2026 11:03:31 GMT-0600 (Central Standard Time),376462.3000000715,cherry,1000,I,z,z,None,584,384.0,200.0,11,1,2130.3000000715256,374332.0,7729,cherry,NF,C,368174,368174,366443,367458,366443,368573,367974,367974,368573,18
14,test,1,con,0,m,Tue Jan 06 2026 11:03:31 GMT-0600 (Central Standard Time),378361.5,copper,800,I,z,z,None,563,364.0,199.0,73,1,1893.8999999761581,376467.60000002384,7729,copper,NF,C,370106,370106,368579,369390,368579,370473,369907,369907,370473,19
15,test,1,con,1,z,Tue Jan 06 2026 11:03:31 GMT-0600 (Central Standard Time),381112.2000000477,raisin,1100,I,z,z,None,1117,917.0,200.0,28,1,2745.7999999523163,378366.40000009537,7729,raisin,NF,C,372306,372306,370477,371589,370478,373223,372105,372105,373223,20
16,test,1,inc,1,m,Tue Jan 06 2026 11:03:31 GMT-0600 (Central Standard Time),383093.90000009537,cherry,900,I,m,m,None,535,336.0,199.0,86,1,1976.9000000953674,381117.0,7729,silver,NF,C,374854,374854,373228,374138,373228,375205,374655,374655,375205,21
17,test,1,inc,1,m,Tue Jan 06 2026 11:03:31 GMT-0600 (Central Standard Time),385509.5,orange,1000,I,m,m,None,877,678.0,199.0,79,1,2412.6999999284744,383096.8000000715,7729,copper,NF,C,376936,376936,375208,376221,375208,377621,376737,376737,377621,22
18,test,1,con,1,z,Tue Jan 06 2026 11:03:31 GMT-0600 (Central Standard Time),387608.2000000477,banana,900,I,z,z,None,671,472.0,199.0,2,1,2094.2999999523163,385513.90000009537,7729,banana,NF,C,379237,379237,377625,378537,377625,379719,379038,379038,379719,23
19,test,1,inc,1,m,Tue Jan 06 2026 11:03:31 GMT-0600 (Central Standard Time),389591.60000002384,cherry,900,I,m,m,None,549,350.0,199.0,94,1,1979.7999999523163,387611.8000000715,7729,cobalt,NF,C,381352,381352,379723,380636,379723,381703,381153,381153,381703,24
20,test,1,inc,1,m,Tue Jan 06 2026 11:03:31 GMT-0600 (Central Standard Time),391608.0,lime,800,I,m,m,None,666,466.0,200.0,125,1,2008.8999999761581,389599.10000002384,7729,lead,NF,C,383236,383236,381710,382519,381710,383719,383035,383035,383719,25
21,test,1,con,1,m,Tue Jan 06 2026 11:03:31 GMT-0600 (Central Standard Time),393689.3000000715,lead,800,I,m,m,None,741,540.0,201.0,121,1,2074.0,391615.3000000715,7729,lead,NF,C,385252,385252,383726,384535,383727,385800,385051,385051,385800,26
21,test,1,inc,0,z,Tue Jan 06 2026 11:03:31 GMT-0600 (Central Standard Time),395738.8000000715,zinc,1000,I,m,m,None,503,288.0,215.0,47,1,2043.1000000238419,393695.7000000477,7729,pear,NF,C,387550,387550,385807,386817,385807,387850,387334,387335,387850,27
22,test,1,inc,1,m,Tue Jan 06 2026 11:03:31 GMT-0600 (Central Standard Time),397655.7000000477,lime,800,I,m,m,None,582,382.0,200.0,109,1,1908.1000000238419,395747.60000002384,7729,iron,NF,C,389384,389384,387859,388667,387859,389767,389184,389184,389767,28
23,test,1,inc,1,m,Tue Jan 06 2026 11:03:31 GMT-0600 (Central Standard Time),400071.40000009537,raisin,1100,I,m,m,None,782,583.0,199.0,88,1,2408.2000000476837,397663.2000000477,7729,silver,NF,C,391599,391599,389774,390883,389774,392182,391399,391399,392182,29
24,test,1,con,1,z,Tue Jan 06 2026 11:03:31 GMT-0600 (Central Standard Time),401870.0,kiwi,800,I,z,z,None,452,251.0,201.0,49,1,1793.0999999046326,400076.90000009537,7729,kiwi,NF,C,393715,393715,392188,392999,392188,393981,393514,393514,393981,30
25,test,1,inc,1,z,Tue Jan 06 2026 11:03:31 GMT-0600 (Central Standard Time),403886.5,copper,900,I,z,z,None,566,367.0,199.0,14,1,2009.8999999761581,401876.60000002384,7729,cherry,NF,C,395615,395615,393988,394898,393988,395998,395415,395415,395997,31
26,test,1,con,1,z,Tue Jan 06 2026 11:03:31 GMT-0600 (Central Standard Time),405736.3000000715,banana,800,I,z,z,None,521,307.0,214.0,1,1,1842.1000000238419,403894.2000000477,7729,banana,NF,C,397531,397531,396005,396814,396005,397847,397316,397316,397847,32
27,test,1,con,1,m,Tue Jan 06 2026 11:03:31 GMT-0600 (Central Standard Time),407768.0,bronze,1000,I,m,m,None,489,273.0,216.0,67,1,2021.6999999284744,405746.3000000715,7729,bronze,NF,C,399597,399597,397857,398864,397858,399879,399381,399381,399879,33
28,test,1,inc,1,z,Tue Jan 06 2026 11:03:31 GMT-0600 (Central Standard Time),409918.5,silver,1000,I,z,z,None,622,423.0,199.0,15,1,2143.5,407775.0,7729,cherry,NF,C,401598,401598,399886,400897,399886,402030,401398,401398,402029,34
28,test,1,inc,0,z,Tue Jan 06 2026 11:03:31 GMT-0600 (Central Standard Time),411717.5,bronze,800,I,m,m,None,449,249.0,200.0,5,1,1792.1999999284744,409925.3000000715,7729,banana,NF,C,403564,403565,402036,402846,402037,403829,403364,403364,403829,35
29,test,1,con,1,m,Tue Jan 06 2026 11:03:31 GMT-0600 (Central Standard Time),414016.3000000715,zinc,1000,I,m,m,None,756,557.0,199.0,115,1,2291.899999976158,411724.40000009537,7729,zinc,NF,C,405561,405561,403835,404845,403836,406127,405362,405362,406127,36
30,test,1,con,1,z,Tue Jan 06 2026 11:03:31 GMT-0600 (Central Standard Time),416182.60000002384,lime,900,I,z,z,None,732,517.0,215.0,34,1,2159.2999999523163,414023.3000000715,7729,lime,NF,C,407761,407761,406134,407044,406135,408294,407545,407545,408294,37
31,test,1,con,1,m,Tue Jan 06 2026 11:03:31 GMT-0600 (Central Standard Time),418446.8000000715,iron,1000,I,m,m,None,721,522.0,199.0,107,1,2258.100000023842,416188.7000000477,7729,iron,NF,C,410027,410027,408300,409310,408300,410558,409827,409827,410558,38
32,test,1,con,1,m,Tue Jan 06 2026 11:03:31 GMT-0600 (Central Standard Time),420664.0,copper,900,I,m,m,None,772,572.0,200.0,74,1,2214.2999999523163,418449.7000000477,7729,copper,NF,C,412193,412193,410561,411478,410561,412775,411993,411993,412775,39
33,test,1,inc,1,z,Tue Jan 06 2026 11:03:31 GMT-0600 (Central Standard Time),422914.2000000477,lead,1100,I,z,z,None,620,421.0,199.0,64,1,2247.5,420666.7000000477,7729,plum,NF,C,414592,414592,412778,413892,412778,415025,414393,414393,415025,40
34,test,1,con,1,m,Tue Jan 06 2026 11:03:31 GMT-0600 (Central Standard Time),424963.8000000715,gold,1000,I,m,m,None,503,304.0,199.0,99,1,2045.2000000476837,422918.60000002384,7729,gold,NF,C,416758,416758,415030,416042,415030,417075,416559,416559,417075,41
35,test,1,inc,1,z,Tue Jan 06 2026 11:03:31 GMT-0600 (Central Standard Time),426863.7000000477,bronze,800,I,z,z,None,579,367.0,212.0,13,1,1895.3999999761581,424968.3000000715,7729,cherry,NF,C,418607,418607,417079,417891,417080,418975,418395,418395,418975,42
35,test,1,con,0,z,Tue Jan 06 2026 11:03:31 GMT-0600 (Central Standard Time),428613.0,plum,800,I,m,m,None,408,193.0,215.0,57,1,1744.5,426868.5,7729,plum,NF,C,420524,420524,418980,419790,418980,420724,420308,420308,420724,43
36,test,1,inc,1,m,Tue Jan 06 2026 11:03:31 GMT-0600 (Central Standard Time),430778.40000009537,kiwi,1000,I,m,m,None,621,420.0,201.0,103,1,2160.100000023842,428618.3000000715,7729,gold,NF,C,422458,422458,420729,421740,420730,422890,422256,422256,422889,44
36,test,1,inc,0,m,Tue Jan 06 2026 11:03:31 GMT-0600 (Central Standard Time),432794.5,orange,1000,I,z,z,None,471,271.0,200.0,71,1,2011.2999999523163,430783.2000000477,7729,bronze,NF,C,424623,424623,422894,423906,422895,424906,424423,424423,424906,45
37,test,1,con,1,z,Tue Jan 06 2026 11:03:31 GMT-0600 (Central Standard Time),434876.3000000715,orange,900,I,z,z,None,635,435.0,200.0,18,1,2076.8000000715256,432799.5,7729,orange,NF,C,426539,426539,424911,425822,424911,426987,426338,426338,426987,46
38,test,1,con,1,z,Tue Jan 06 2026 11:03:31 GMT-0600 (Central Standard Time),436876.60000002384,orange,800,I,z,z,None,653,453.0,200.0,17,1,1994.5,434882.10000002384,7729,orange,NF,C,428521,428521,426993,427807,426994,428988,428320,428320,428988,47
39,test,1,con,1,z,Tue Jan 06 2026 11:03:31 GMT-0600 (Central Standard Time),439176.0,lime,1000,I,z,z,None,765,566.0,199.0,35,1,2294.6999999284744,436881.3000000715,7729,lime,NF,C,430720,430720,428992,430003,428993,431287,430521,430521,431287,48
40,test,1,inc,1,m,Tue Jan 06 2026 11:03:31 GMT-0600 (Central Standard Time),441091.2000000477,banana,800,I,m,m,None,578,379.0,199.0,77,1,1910.5,439180.7000000477,7729,copper,NF,C,432819,432819,431292,432104,431292,433202,432620,432620,433202,49
41,test,1,inc,1,z,Tue Jan 06 2026 11:03:31 GMT-0600 (Central Standard Time),443074.2000000477,gold,800,I,z,z,None,637,437.0,200.0,61,1,1977.5,441096.7000000477,7729,plum,NF,C,434736,434736,433208,434019,433208,435185,434535,434535,435185,50
42,test,1,con,1,m,Tue Jan 06 2026 11:03:31 GMT-0600 (Central Standard Time),445340.2000000477,bronze,1100,I,m,m,None,626,424.0,202.0,68,1,2261.0,443079.2000000477,7729,bronze,NF,C,437021,437021,435190,436303,435191,437451,436818,436818,437451,51
42,test,1,con,0,m,Tue Jan 06 2026 11:03:31 GMT-0600 (Central Standard Time),447305.8000000715,silver,900,I,z,z,None,520,321.0,199.0,82,1,1962.3999999761581,445343.40000009537,7729,silver,NF,C,439085,439085,437454,438368,437455,439417,438885,438885,439417,52
43,test,1,con,1,m,Tue Jan 06 2026 11:03:31 GMT-0600 (Central Standard Time),449322.90000009537,zinc,800,I,m,m,None,670,454.0,216.0,113,1,2013.3000000715256,447309.60000002384,7729,zinc,NF,C,440968,440968,439421,440233,439421,441434,440751,440751,441434,53
44,test,1,con,1,m,Tue Jan 06 2026 11:03:31 GMT-0600 (Central Standard Time),451271.3000000715,bronze,800,I,m,m,None,605,406.0,199.0,65,1,1945.3000000715256,449326.0,7729,bronze,NF,C,442968,442968,441437,442250,441437,443382,442768,442768,443382,54
45,test,1,inc,1,z,Tue Jan 06 2026 11:03:31 GMT-0600 (Central Standard Time),453405.3000000715,iron,900,I,z,z,None,686,486.0,200.0,46,1,2131.399999976158,451273.90000009537,7729,pear,NF,C,445016,445016,443385,444300,443385,445516,444816,444816,445516,55
46,test,1,inc,1,m,Tue Jan 06 2026 11:03:31 GMT-0600 (Central Standard Time),455687.40000009537,banana,800,I,m,m,None,940,741.0,199.0,93,1,2278.4000000953674,453409.0,7729,cobalt,NF,C,447049,447049,445520,446332,445520,447798,446849,446849,447798,56
47,test,1,con,1,z,Tue Jan 06 2026 11:03:31 GMT-0600 (Central Standard Time),458036.2000000477,banana,1100,I,z,z,None,718,518.0,200.0,4,1,2345.7000000476837,455690.5,7729,banana,NF,C,449615,449615,447802,448914,447802,450147,449415,449415,450147,57
48,test,1,con,1,z,Tue Jan 06 2026 11:03:31 GMT-0600 (Central Standard Time),460085.3000000715,cherry,900,I,z,z,None,605,393.0,212.0,10,1,2045.8999999761581,458039.40000009537,7729,cherry,NF,C,451795,451796,450150,451065,450151,452196,451583,451583,452196,58
49,test,1,con,1,z,Tue Jan 06 2026 11:03:31 GMT-0600 (Central Standard Time),462852.90000009537,lime,800,I,z,z,None,1432,1217.0,215.0,33,1,2765.0,460087.90000009537,7729,lime,NF,C,453745,453745,452199,453014,452199,454964,453530,453530,454964,59
50,test,1,con,1,m,Tue Jan 06 2026 11:03:31 GMT-0600 (Central Standard Time),464883.8000000715,copper,1000,I,m,m,None,484,285.0,199.0,75,1,2028.3000000715256,462855.5,7729,copper,NF,C,456697,456697,454967,455978,454967,456995,456497,456497,456995,60
51,test,1,inc,1,m,Tue Jan 06 2026 11:03:31 GMT-0600 (Central Standard Time),466883.10000002384,cherry,900,I,m,m,None,558,359.0,199.0,70,1,1994.3999999761581,464888.7000000477,7729,bronze,NF,C,458630,458630,457000,457912,457000,458994,458429,458429,458994,61
52,test,1,con,1,z,Tue Jan 06 2026 11:03:31 GMT-0600 (Central Standard Time),469048.60000002384,orange,1000,I,z,z,None,633,433.0,200.0,19,1,2162.7999999523163,466885.8000000715,7729,orange,NF,C,460711,460711,458997,460010,458997,461160,460511,460511,461160,62
53,test,1,inc,1,m,Tue Jan 06 2026 11:03:31 GMT-0600 (Central Standard Time),471215.10000002384,orange,1000,I,m,m,None,641,441.0,200.0,87,1,2163.6999999284744,469051.40000009537,7729,silver,NF,C,462878,462878,461162,462176,461163,463326,462678,462678,463326,63
54,test,1,con,1,m,Tue Jan 06 2026 11:03:31 GMT-0600 (Central Standard Time),473131.0,cobalt,900,I,m,m,None,478,278.0,200.0,90,1,1913.0999999046326,471217.90000009537,7729,cobalt,NF,C,464960,464960,463329,464244,463329,465242,464759,464759,465242,64
55,test,1,inc,1,z,Tue Jan 06 2026 11:03:31 GMT-0600 (Central Standard Time),475431.3000000715,silver,1000,I,z,z,None,759,558.0,201.0,7,1,2296.600000023842,473134.7000000477,7729,banana,NF,C,466976,466976,465246,466260,465246,467542,466775,466775,467542,65
55,test,1,inc,0,m,Tue Jan 06 2026 11:03:31 GMT-0600 (Central Standard Time),477480.3000000715,raisin,1100,I,z,z,None,416,215.0,201.0,80,1,2044.1000000238419,475436.2000000477,7729,copper,NF,C,469376,469376,467547,468658,467547,469591,469175,469175,469591,66
56,test,1,con,1,m,Tue Jan 06 2026 11:03:31 GMT-0600 (Central Standard Time),479663.0,copper,1100,I,m,m,None,549,350.0,199.0,76,1,2178.5,477484.5,7729,copper,NF,C,471408,471408,469596,470707,469596,471774,471208,471208,471774,67
57,test,1,con,1,m,Tue Jan 06 2026 11:03:31 GMT-0600 (Central Standard Time),481595.8000000715,gold,800,I,m,m,None,587,386.0,201.0,97,1,1929.7000000476837,479666.10000002384,7729,gold,NF,C,473308,473308,471777,472590,471777,473707,473107,473107,473707,68
58,test,1,inc,1,m,Tue Jan 06 2026 11:03:31 GMT-0600 (Central Standard Time),483895.2000000477,raisin,1100,I,m,m,None,657,457.0,200.0,72,1,2296.0,481599.2000000477,7729,bronze,NF,C,475540,475540,473710,474824,473711,476006,475340,475340,476006,69
59,test,1,inc,1,z,Tue Jan 06 2026 11:03:31 GMT-0600 (Central Standard Time),485910.8000000715,zinc,1000,I,z,z,None,466,266.0,200.0,63,1,2010.6000000238419,483900.2000000477,7729,plum,NF,C,477739,477739,476011,477023,476011,478022,477539,477539,478022,70
60,test,1,inc,1,m,Tue Jan 06 2026 11:03:31 GMT-0600 (Central Standard Time),487879.40000009537,banana,800,I,m,m,None,642,442.0,200.0,85,1,1963.5,485915.90000009537,7729,silver,NF,C,479540,479540,478027,478828,478027,479990,479339,479339,479990,71
61,test,1,inc,1,z,Tue Jan 06 2026 11:03:31 GMT-0600 (Central Standard Time),490092.60000002384,zinc,1000,I,z,z,None,668,468.0,200.0,39,1,2207.899999976158,487884.7000000477,7729,lime,NF,C,481721,481721,479996,481005,479996,482204,481521,481521,482204,72
61,test,1,inc,0,z,Tue Jan 06 2026 11:03:31 GMT-0600 (Central Standard Time),492191.60000002384,lead,1100,I,m,m,None,464,265.0,199.0,48,1,2096.2999999523163,490095.3000000715,7729,pear,NF,C,484037,484037,482206,483320,482207,484303,483837,483837,484303,73
62,test,1,inc,1,z,Tue Jan 06 2026 11:03:31 GMT-0600 (Central Standard Time),494508.90000009537,cobalt,1100,I,z,z,None,677,477.0,200.0,32,1,2312.9000000953674,492196.0,7729,raisin,NF,C,486136,486136,484307,485420,484307,486620,485936,485936,486620,74
63,test,1,inc,1,m,Tue Jan 06 2026 11:03:31 GMT-0600 (Central Standard Time),496607.0,pear,900,I,m,m,None,656,457.0,199.0,118,1,2094.5,494512.5,7729,zinc,NF,C,488252,488252,486624,487536,486624,488718,488053,488053,488718,75
64,test,1,inc,1,m,Tue Jan 06 2026 11:03:31 GMT-0600 (Central Standard Time),498990.0,raisin,1100,I,m,m,None,734,533.0,201.0,96,1,2378.399999976158,496611.60000002384,7729,cobalt,NF,C,490553,490553,488723,489836,488723,491101,490351,490351,491101,76
65,test,1,con,1,z,Tue Jan 06 2026 11:03:31 GMT-0600 (Central Standard Time),500706.90000009537,raisin,800,I,z,z,None,368,153.0,215.0,25,1,1711.3000000715256,498995.60000002384,7729,raisin,NF,C,492653,492653,491107,491918,491107,492818,492436,492436,492818,77
65,test,1,inc,0,m,Tue Jan 06 2026 11:03:31 GMT-0600 (Central Standard Time),503220.60000002384,kiwi,1000,I,z,z,None,975,775.0,200.0,119,1,2509.899999976158,500710.7000000477,7729,zinc,NF,C,494550,494550,492822,493834,492822,495332,494350,494350,495332,78
66,test,1,inc,1,m,Tue Jan 06 2026 11:03:31 GMT-0600 (Central Standard Time),505304.10000002384,banana,800,I,m,m,None,748,549.0,199.0,69,1,2080.1999999284744,503223.90000009537,7729,bronze,NF,C,496866,496866,495335,496150,495335,497415,496667,496667,497415,79
67,test,1,inc,1,z,Tue Jan 06 2026 11:03:31 GMT-0600 (Central Standard Time),507403.8000000715,gold,800,I,z,z,None,775,560.0,215.0,53,1,2095.5,505308.3000000715,7729,kiwi,NF,C,498950,498950,497419,498232,497420,499515,498734,498734,499515,80
68,test,1,inc,1,z,Tue Jan 06 2026 11:03:31 GMT-0600 (Central Standard Time),509554.10000002384,zinc,1000,I,z,z,None,616,416.0,200.0,55,1,2146.6999999284744,507407.40000009537,7729,kiwi,NF,C,501249,501249,499518,500532,499519,501665,501049,501049,501665,81
69,test,1,inc,1,z,Tue Jan 06 2026 11:03:31 GMT-0600 (Central Standard Time),511669.3000000715,copper,900,I,z,z,None,668,469.0,199.0,30,1,2109.399999976158,509559.90000009537,7729,raisin,NF,C,503297,503297,501671,502580,501671,503780,503097,503097,503780,82
70,test,1,inc,1,z,Tue Jan 06 2026 11:03:31 GMT-0600 (Central Standard Time),514084.60000002384,cobalt,1100,I,z,z,None,780,568.0,212.0,8,1,2410.6999999284744,511673.90000009537,7729,banana,NF,C,505614,505614,503785,504896,503785,506196,505401,505401,506196,83
71,test,1,inc,1,m,Tue Jan 06 2026 11:03:31 GMT-0600 (Central Standard Time),516151.10000002384,orange,1000,I,m,m,None,525,325.0,200.0,95,1,2058.2999999523163,514092.8000000715,7729,cobalt,NF,C,507929,507929,506204,507213,506204,508262,507729,507729,508262,84
72,test,1,inc,1,z,Tue Jan 06 2026 11:03:31 GMT-0600 (Central Standard Time),518249.90000009537,iron,900,I,z,z,None,654,455.0,199.0,62,1,2094.7000000476837,516155.2000000477,7729,plum,NF,C,509895,509895,508266,509181,508267,510361,509695,509695,510361,85
73,test,1,con,1,m,Tue Jan 06 2026 11:03:31 GMT-0600 (Central Standard Time),520832.3000000715,silver,800,I,m,m,None,1248,1048.0,200.0,81,1,2576.100000023842,518256.2000000477,7729,silver,NF,C,511894,511894,510367,511180,510368,512943,511694,511694,512943,86
74,test,1,inc,1,z,Tue Jan 06 2026 11:03:31 GMT-0600 (Central Standard Time),522982.10000002384,iron,900,I,z,z,None,708,509.0,199.0,54,1,2143.2999999523163,520838.8000000715,7729,kiwi,NF,C,514576,514576,512950,513860,512950,515093,514377,514377,515093,87
75,test,1,con,1,m,Tue Jan 06 2026 11:03:31 GMT-0600 (Central Standard Time),525281.8000000715,iron,1100,I,m,m,None,655,456.0,199.0,108,1,2294.3000000715256,522987.5,7729,iron,NF,C,516926,516926,515098,516211,515099,517393,516726,516726,517393,88
76,test,1,inc,1,m,Tue Jan 06 2026 11:03:31 GMT-0600 (Central Standard Time),527647.0,plum,1100,I,m,m,None,716,517.0,199.0,120,1,2358.7999999523163,525288.2000000477,7729,zinc,NF,C,519225,519225,517399,518509,517399,519758,519026,519026,519758,89
77,test,1,inc,1,m,Tue Jan 06 2026 11:03:31 GMT-0600 (Central Standard Time),529797.0,pear,900,I,m,m,None,702,503.0,199.0,110,1,2144.0,527653.0,7729,iron,NF,C,521391,521391,519764,520675,519764,521908,521192,521192,521908,90
78,test,1,inc,1,z,Tue Jan 06 2026 11:03:31 GMT-0600 (Central Standard Time),531795.4000000954,gold,800,I,z,z,None,653,453.0,200.0,37,1,1993.6000000238419,529801.8000000715,7729,lime,NF,C,523441,523441,521913,522725,521913,523906,523241,523241,523906,91
79,test,1,inc,1,m,Tue Jan 06 2026 11:03:31 GMT-0600 (Central Standard Time),534095.4000000954,plum,1100,I,m,m,None,657,456.0,201.0,104,1,2293.9000000953674,531801.5,7729,gold,NF,C,525742,525742,523913,525024,523913,526207,525540,525540,526206,92
80,test,1,con,1,z,Tue Jan 06 2026 11:03:31 GMT-0600 (Central Standard Time),536294.2000000477,raisin,1000,I,z,z,None,650,451.0,199.0,27,1,2194.7999999523163,534099.4000000954,7729,raisin,NF,C,527939,527939,526210,527223,526211,528405,527740,527740,528405,93
81,test,1,inc,1,z,Tue Jan 06 2026 11:03:31 GMT-0600 (Central Standard Time),538360.2000000477,gold,800,I,z,z,None,731,532.0,199.0,45,1,2059.2000000476837,536301.0,7729,pear,NF,C,529938,529939,528412,529222,528412,530471,529739,529739,530471,94
82,test,1,con,1,m,Tue Jan 06 2026 11:03:31 GMT-0600 (Central Standard Time),540492.5,bronze,900,I,m,m,None,684,485.0,199.0,66,1,2128.399999976158,538364.1000000238,7729,bronze,NF,C,532104,532104,530475,531388,530475,532604,531905,531905,532604,95
83,test,1,inc,1,z,Tue Jan 06 2026 11:03:31 GMT-0600 (Central Standard Time),542576.3000000715,iron,900,I,z,z,None,649,450.0,199.0,38,1,2080.899999976158,540495.4000000954,7729,lime,NF,C,534237,534237,532606,533521,532607,534687,534038,534038,534687,96
84,test,1,con,1,m,Tue Jan 06 2026 11:03:31 GMT-0600 (Central Standard Time),545292.9000000954,zinc,900,I,m,m,None,1279,1080.0,199.0,114,1,2710.7000000476837,542582.2000000477,7729,zinc,NF,C,536319,536319,534693,535605,534693,537404,536120,536120,537404,97
85,test,1,con,1,m,Tue Jan 06 2026 11:03:31 GMT-0600 (Central Standard Time),547725.7000000477,iron,800,I,m,m,None,1084,869.0,215.0,105,1,2429.2999999523163,545296.4000000954,7729,iron,NF,C,538952,538952,537407,538220,537408,539837,538737,538737,539837,98
86,test,1,con,1,z,Tue Jan 06 2026 11:03:31 GMT-0600 (Central Standard Time),550139.6000000238,pear,1100,I,z,z,None,785,569.0,216.0,44,1,2408.899999976158,547730.7000000477,7729,pear,NF,C,541669,541669,539842,540951,539842,542251,541453,541453,542251,99
87,test,1,inc,1,m,Tue Jan 06 2026 11:03:31 GMT-0600 (Central Standard Time),552289.2000000477,pear,900,I,m,m,None,714,514.0,200.0,126,1,2143.399999976158,550145.8000000715,7729,lead,NF,C,543884,543884,542257,543169,542257,544400,543684,543684,544400,100
88,test,1,inc,1,z,Tue Jan 06 2026 11:03:31 GMT-0600 (Central Standard Time),554438.2000000477,silver,1000,I,z,z,None,607,408.0,199.0,31,1,2144.100000023842,552294.1000000238,7729,raisin,NF,C,546134,546134,544405,545417,544405,546549,545934,545934,546549,101
89,test,1,inc,1,m,Tue Jan 06 2026 11:03:31 GMT-0600 (Central Standard Time),556456.1000000238,lime,800,I,m,m,None,675,474.0,201.0,117,1,2010.6000000238419,554445.5,7729,zinc,NF,C,548084,548084,546557,547366,546557,548567,547883,547883,548567,102
90,test,1,con,1,m,Tue Jan 06 2026 11:03:31 GMT-0600 (Central Standard Time),558921.0,cobalt,1100,I,m,m,None,823,608.0,215.0,92,1,2461.399999976158,556459.6000000238,7729,cobalt,NF,C,550415,550415,548571,549682,548571,551032,550200,550200,551032,103
91,test,1,inc,1,m,Tue Jan 06 2026 11:03:31 GMT-0600 (Central Standard Time),561052.6000000238,lime,800,I,m,m,None,792,593.0,199.0,101,1,2128.600000023842,558924.0,7729,gold,NF,C,552565,552565,551035,551849,551035,553164,552366,552366,553164,104
92,test,1,con,1,z,Tue Jan 06 2026 11:03:31 GMT-0600 (Central Standard Time),563054.5,raisin,900,I,z,z,None,568,367.0,201.0,26,1,1995.0999999046326,561059.4000000954,7729,raisin,NF,C,554783,554783,553170,554081,553171,555166,554582,554582,555164,105
93,test,1,con,1,m,Tue Jan 06 2026 11:03:31 GMT-0600 (Central Standard Time),565351.3000000715,zinc,1100,I,m,m,None,663,464.0,199.0,116,1,2292.100000023842,563059.2000000477,7729,zinc,NF,C,556997,556997,555170,556280,555170,557462,556797,556797,557462,106
94,test,1,inc,1,m,Tue Jan 06 2026 11:03:31 GMT-0600 (Central Standard Time),567667.3000000715,plum,1100,I,m,m,None,669,470.0,199.0,128,1,2312.8000000715256,565354.5,7729,lead,NF,C,559295,559295,557466,558579,557466,559778,559096,559096,559778,107
95,test,1,inc,1,z,Tue Jan 06 2026 11:03:31 GMT-0600 (Central Standard Time),569850.5,silver,1000,I,z,z,None,646,447.0,199.0,23,1,2179.5,567671.0,7729,orange,NF,C,561513,561513,559782,560796,559782,561962,561314,561314,561962,108
96,test,1,con,1,z,Tue Jan 06 2026 11:03:31 GMT-0600 (Central Standard Time),572083.4000000954,orange,1100,I,z,z,None,585,386.0,199.0,20,1,2228.2000000476837,569855.2000000477,7729,orange,NF,C,563795,563795,561966,563079,561966,564194,563595,563595,564194,109
97,test,1,con,1,z,Tue Jan 06 2026 11:03:31 GMT-0600 (Central Standard Time),574617.0,kiwi,1100,I,z,z,None,901,701.0,200.0,52,1,2529.2999999523163,572087.7000000477,7729,kiwi,NF,C,566027,566027,564199,565311,564199,566728,565827,565827,566728,110
98,test,1,con,1,m,Tue Jan 06 2026 11:03:31 GMT-0600 (Central Standard Time),576847.8000000715,lead,1100,I,m,m,None,597,381.0,216.0,124,1,2227.8000000715256,574620.0,7729,lead,NF,C,568577,568577,566731,567843,566731,568959,568360,568361,568959,111
98,test,1,con,0,m,Tue Jan 06 2026 11:03:31 GMT-0600 (Central Standard Time),578815.5,gold,900,I,z,z,None,548,349.0,199.0,98,1,1964.0999999046326,576851.4000000954,7729,gold,NF,C,570577,570577,568962,569876,568963,570927,570378,570378,570927,112
99,test,1,inc,1,z,Tue Jan 06 2026 11:03:31 GMT-0600 (Central Standard Time),581096.9000000954,lead,1100,I,z,z,None,634,422.0,212.0,56,1,2277.600000023842,578819.3000000715,7729,kiwi,NF,C,572775,572775,570930,572043,570931,573208,572562,572562,573208,113
100,test,1,con,1,m,Tue Jan 06 2026 11:03:31 GMT-0600 (Central Standard Time),583178.7000000477,cobalt,800,I,m,m,None,736,537.0,199.0,89,1,2079.2000000476837,581099.5,7729,cobalt,NF,C,574740,574740,573211,574026,573211,575290,574541,574541,575290,114
101,test,1,con,1,m,Tue Jan 06 2026 11:03:31 GMT-0600 (Central Standard Time),585345.8000000715,lead,900,I,m,m,None,720,505.0,215.0,122,1,2164.3000000715256,583181.5,7729,lead,NF,C,576941,576941,575293,576207,575293,577457,576725,576725,577457,115
101,test,1,inc,0,m,Tue Jan 06 2026 11:03:31 GMT-0600 (Central Standard Time),587460.6000000238,kiwi,1000,I,z,z,None,589,375.0,214.0,127,1,2110.600000023842,585350.0,7729,lead,NF,C,579190,579190,577461,578473,577461,579572,578975,578975,579572,116
102,test,1,inc,1,m,Tue Jan 06 2026 11:03:31 GMT-0600 (Central Standard Time),589660.6000000238,pear,900,I,m,m,None,752,553.0,199.0,102,1,2196.2999999523163,587464.3000000715,7729,gold,NF,C,581205,581205,579575,580489,579576,581772,581006,581006,581772,117
103,test,1,con,1,z,Tue Jan 06 2026 11:03:31 GMT-0600 (Central Standard Time),591727.8000000715,plum,900,I,z,z,None,632,416.0,216.0,58,1,2064.399999976158,589663.4000000954,7729,plum,NF,C,583422,583422,581774,582689,581775,583839,583206,583206,583839,118
104,test,1,con,1,m,Tue Jan 06 2026 11:03:31 GMT-0600 (Central Standard Time),593959.7000000477,cobalt,1000,I,m,m,None,691,492.0,199.0,91,1,2225.899999976158,591733.8000000715,7729,cobalt,NF,C,585571,585571,583845,584855,583845,586071,585372,585372,586071,119
104,test,1,inc,0,m,Tue Jan 06 2026 11:03:31 GMT-0600 (Central Standard Time),597391.5,cherry,900,I,None,None,None,1799,1799.0,200.0,78,1,3428.1999999284744,593963.3000000715,7729,copper,NF,C,587704,587704,586074,586987,586075,589503,587504,587504,589503,120
105,test,1,inc,1,z,Tue Jan 06 2026 11:03:31 GMT-0600 (Central Standard Time),600473.9000000954,lead,1100,I,z,z,None,1445,1244.0,201.0,40,1,3079.5,597394.4000000954,7729,lime,NF,C,591337,591337,589505,590620,589506,592585,591136,591136,592585,121
106,test,1,con,1,z,Tue Jan 06 2026 11:03:31 GMT-0600 (Central Standard Time),602507.0,kiwi,900,I,z,z,None,586,372.0,214.0,50,1,2030.0,600477.0,7729,kiwi,NF,C,594234,594234,592588,593502,592588,594618,594020,594020,594618,122
107,test,1,con,1,z,Tue Jan 06 2026 11:03:31 GMT-0600 (Central Standard Time),604659.5,kiwi,1000,I,z,z,None,621,406.0,215.0,51,1,2149.2999999523163,602510.2000000477,7729,kiwi,NF,C,596351,596351,594621,595635,594621,596771,596136,596136,596771,123
108,test,1,con,1,z,Tue Jan 06 2026 11:03:31 GMT-0600 (Central Standard Time),607056.2000000477,lime,1100,I,z,z,None,756,557.0,199.0,36,1,2394.2000000476837,604662.0,7729,lime,NF,C,598600,598600,596773,597884,596773,599167,598401,598401,599167,124
109,test,1,con,1,z,Tue Jan 06 2026 11:03:31 GMT-0600 (Central Standard Time),610222.3000000715,plum,1000,I,z,z,None,1625,1425.0,200.0,59,1,3161.5,607060.8000000715,7729,plum,NF,C,600901,600901,599172,600184,599172,602333,600700,600700,602333,125
110,test,1,inc,1,z,Tue Jan 06 2026 11:03:31 GMT-0600 (Central Standard Time),612486.4000000954,copper,900,I,z,z,None,824,610.0,214.0,6,1,2259.2000000476837,610227.2000000477,7729,banana,NF,C,603981,603981,602338,603249,602339,604597,603767,603767,604597,126
111,test,1,inc,1,z,Tue Jan 06 2026 11:03:31 GMT-0600 (Central Standard Time),614535.0,bronze,800,I,z,z,None,713,513.0,200.0,21,1,2045.0,612490.0,7729,orange,NF,C,606132,606132,604601,605417,604601,606646,605930,605931,606646,127
112,test,1,con,1,m,Tue Jan 06 2026 11:03:31 GMT-0600 (Central Standard Time),616568.6000000238,gold,1100,I,m,m,None,414,199.0,215.0,100,1,2029.2999999523163,614539.3000000715,7729,gold,NF,C,608480,608480,606650,607763,606651,608680,608265,608265,608680,128
