acc_sum,block,block_c,change,condition,correct,correct_response,datetime,endtime,face,project,response,response_time,row_sel,session_number,start_end,starttime,subject_id,task,task_vers,trial
0,prac,1,,1-Back,,,Wed Mar 25 2026 11:39:53 GMT-0500 (Central Daylight Time),,097_m_f_n_a.png,I,space,6278,1,1,,,8103,NNB,B,0
1,prac,1,0.0,1-Back,1.0,m,Wed Mar 25 2026 11:39:53 GMT-0500 (Central Daylight Time),212613.70000004768,152_y_f_n_a.png,I,m,976,2,1,1835.8000001907349,210777.89999985695,8103,NNB,B,1
2,prac,1,1.0,1-Back,1.0,z,Wed Mar 25 2026 11:39:53 GMT-0500 (Central Daylight Time),214712.89999985695,152_y_f_n_a.png,I,z,1327,3,1,2094.899999856949,212618.0,8103,NNB,B,2
3,prac,1,0.0,1-Back,1.0,m,Wed Mar 25 2026 11:39:53 GMT-0500 (Central Daylight Time),216345.70000004768,176_o_m_n_a.png,I,m,765,4,1,1625.2000000476837,214720.5,8103,NNB,B,3
4,prac,1,0.0,1-Back,1.0,m,Wed Mar 25 2026 11:39:53 GMT-0500 (Central Daylight Time),218161.70000004768,126_m_m_n_a.png,I,m,1035,5,1,1812.5,216349.20000004768,8103,NNB,B,4
5,prac,1,1.0,1-Back,1.0,z,Wed Mar 25 2026 11:39:53 GMT-0500 (Central Daylight Time),219794.5,126_m_m_n_a.png,I,z,856,6,1,1625.4000000953674,218169.09999990463,8103,NNB,B,5
5,prac,1,0.0,1-Back,0.0,m,Wed Mar 25 2026 11:39:53 GMT-0500 (Central Daylight Time),222676.89999985695,086_o_f_n_a.png,I,None,2015,7,1,2878.399999856949,219798.5,8103,NNB,B,6
6,prac,1,0.0,1-Back,1.0,m,Wed Mar 25 2026 11:39:53 GMT-0500 (Central Daylight Time),224726.29999995232,178_m_m_n_a.png,I,m,1171,8,1,2042.4000000953674,222683.89999985695,8103,NNB,B,7
7,prac,1,0.0,1-Back,1.0,m,Wed Mar 25 2026 11:39:53 GMT-0500 (Central Daylight Time),226408.89999985695,097_m_f_n_a.png,I,m,903,9,1,1679.0999999046326,224729.79999995232,8103,NNB,B,8
8,prac,1,1.0,1-Back,1.0,z,Wed Mar 25 2026 11:39:53 GMT-0500 (Central Daylight Time),227859.59999990463,097_m_f_n_a.png,I,z,658,10,1,1437.0999999046326,226422.5,8103,NNB,B,9
9,prac,1,0.0,1-Back,1.0,m,Wed Mar 25 2026 11:39:53 GMT-0500 (Central Daylight Time),229391.70000004768,176_o_m_n_a.png,I,m,761,11,1,1528.1000001430511,227863.59999990463,8103,NNB,B,10
10,prac,1,0.0,1-Back,1.0,m,Wed Mar 25 2026 11:39:53 GMT-0500 (Central Daylight Time),231024.39999985695,173_y_f_n_a.png,I,m,770,12,1,1624.7999999523163,229399.59999990463,8103,NNB,B,11
0,test,1,0.0,1-Back,,,Wed Mar 25 2026 11:39:53 GMT-0500 (Central Daylight Time),231024.39999985695,152_y_f_n_a.png,I,space,3199,1,1,1624.7999999523163,229399.59999990463,8103,NNB,B,0
1,test,1,0.0,1-Back,1.0,m,Wed Mar 25 2026 11:39:53 GMT-0500 (Central Daylight Time),242837.39999985695,029_m_f_n_a.png,I,m,628,2,1,1644.5,241192.89999985695,8103,NNB,B,1
2,test,1,0.0,1-Back,1.0,m,Wed Mar 25 2026 11:39:53 GMT-0500 (Central Daylight Time),244587.70000004768,173_y_f_n_a.png,I,m,731,3,1,1747.8000001907349,242839.89999985695,8103,NNB,B,2
3,test,1,1.0,1-Back,1.0,z,Wed Mar 25 2026 11:39:53 GMT-0500 (Central Daylight Time),246086.39999985695,173_y_f_n_a.png,I,z,477,4,1,1494.1999998092651,244592.20000004768,8103,NNB,B,3
4,test,1,0.0,1-Back,1.0,m,Wed Mar 25 2026 11:39:53 GMT-0500 (Central Daylight Time),248002.09999990463,029_m_f_n_a.png,I,m,899,5,1,1913.0999999046326,246089.0,8103,NNB,B,4
5,test,1,0.0,1-Back,1.0,m,Wed Mar 25 2026 11:39:53 GMT-0500 (Central Daylight Time),249848.5,176_o_m_n_a.png,I,m,829,6,1,1841.1000001430511,248007.39999985695,8103,NNB,B,5
6,test,1,1.0,1-Back,1.0,z,Wed Mar 25 2026 11:39:53 GMT-0500 (Central Daylight Time),251567.89999985695,176_o_m_n_a.png,I,z,685,7,1,1716.7999999523163,249851.09999990463,8103,NNB,B,6
7,test,1,0.0,1-Back,1.0,m,Wed Mar 25 2026 11:39:53 GMT-0500 (Central Daylight Time),253417.39999985695,126_m_m_n_a.png,I,m,824,8,1,1843.5999999046326,251573.79999995232,8103,NNB,B,7
8,test,1,0.0,1-Back,1.0,m,Wed Mar 25 2026 11:39:53 GMT-0500 (Central Daylight Time),255283.39999985695,086_o_f_n_a.png,I,m,840,9,1,1863.1999998092651,253420.20000004768,8103,NNB,B,8
9,test,1,0.0,1-Back,1.0,m,Wed Mar 25 2026 11:39:53 GMT-0500 (Central Daylight Time),257116.09999990463,126_m_m_n_a.png,I,m,813,10,1,1828.0,255288.09999990463,8103,NNB,B,9
10,test,1,0.0,1-Back,1.0,m,Wed Mar 25 2026 11:39:53 GMT-0500 (Central Daylight Time),258849.09999990463,153_y_m_n_a.png,I,m,708,11,1,1730.7000000476837,257118.39999985695,8103,NNB,B,10
11,test,1,1.0,1-Back,1.0,z,Wed Mar 25 2026 11:39:53 GMT-0500 (Central Daylight Time),260631.79999995232,153_y_m_n_a.png,I,z,751,12,1,1779.2000000476837,258852.59999990463,8103,NNB,B,11
12,test,1,0.0,1-Back,1.0,m,Wed Mar 25 2026 11:39:53 GMT-0500 (Central Daylight Time),262897.39999985695,110_o_f_n_a.png,I,m,1249,13,1,2263.0,260634.39999985695,8103,NNB,B,12
12,test,1,1.0,1-Back,0.0,z,Wed Mar 25 2026 11:39:53 GMT-0500 (Central Daylight Time),264580.5,110_o_f_n_a.png,I,m,655,14,1,1676.7000000476837,262903.7999999523,8103,NNB,B,13
13,test,1,0.0,1-Back,1.0,m,Wed Mar 25 2026 11:39:53 GMT-0500 (Central Daylight Time),266530.0,013_y_m_n_a.png,I,m,924,15,1,1947.0,264583.0,8103,NNB,B,14
14,test,1,0.0,1-Back,1.0,m,Wed Mar 25 2026 11:39:53 GMT-0500 (Central Daylight Time),268279.2999999523,097_m_f_n_a.png,I,m,726,16,1,1743.4000000953674,266535.89999985695,8103,NNB,B,15
15,test,1,0.0,1-Back,1.0,m,Wed Mar 25 2026 11:39:53 GMT-0500 (Central Daylight Time),270162.2000000477,065_o_m_n_a.png,I,m,857,17,1,1880.5,268281.7000000477,8103,NNB,B,16
16,test,1,0.0,1-Back,1.0,m,Wed Mar 25 2026 11:39:53 GMT-0500 (Central Daylight Time),272178.2000000477,097_m_f_n_a.png,I,m,981,18,1,2011.8000001907349,270166.39999985695,8103,NNB,B,17
0,test,2,0.0,1-Back,,,Wed Mar 25 2026 11:39:53 GMT-0500 (Central Daylight Time),272178.2000000477,126_m_m_n_a.png,I,space,1919,1,1,2011.8000001907349,270166.39999985695,8103,NNB,B,0
1,test,2,0.0,1-Back,1.0,m,Wed Mar 25 2026 11:39:53 GMT-0500 (Central Daylight Time),278209.39999985695,029_m_f_n_a.png,I,m,1066,2,1,2077.0999999046326,276132.2999999523,8103,NNB,B,1
2,test,2,1.0,1-Back,1.0,z,Wed Mar 25 2026 11:39:53 GMT-0500 (Central Daylight Time),279758.89999985695,029_m_f_n_a.png,I,z,526,3,1,1547.1999998092651,278211.7000000477,8103,NNB,B,2
3,test,2,0.0,1-Back,1.0,m,Wed Mar 25 2026 11:39:53 GMT-0500 (Central Daylight Time),281508.5,126_m_m_n_a.png,I,m,729,4,1,1742.7000000476837,279765.7999999523,8103,NNB,B,3
4,test,2,0.0,1-Back,1.0,m,Wed Mar 25 2026 11:39:53 GMT-0500 (Central Daylight Time),283357.89999985695,153_y_m_n_a.png,I,m,820,5,1,1846.6999998092651,281511.2000000477,8103,NNB,B,4
5,test,2,0.0,1-Back,1.0,m,Wed Mar 25 2026 11:39:53 GMT-0500 (Central Daylight Time),285223.89999985695,152_y_f_n_a.png,I,m,843,6,1,1861.5,283362.39999985695,8103,NNB,B,5
6,test,2,1.0,1-Back,1.0,z,Wed Mar 25 2026 11:39:53 GMT-0500 (Central Daylight Time),286940.09999990463,152_y_f_n_a.png,I,z,696,7,1,1713.7999999523163,285226.2999999523,8103,NNB,B,6
7,test,2,0.0,1-Back,1.0,m,Wed Mar 25 2026 11:39:53 GMT-0500 (Central Daylight Time),288656.39999985695,153_y_m_n_a.png,I,m,692,8,1,1710.8999998569489,286945.5,8103,NNB,B,7
8,test,2,0.0,1-Back,1.0,m,Wed Mar 25 2026 11:39:53 GMT-0500 (Central Daylight Time),290688.7999999523,110_o_f_n_a.png,I,m,1008,9,1,2029.9000000953674,288658.89999985695,8103,NNB,B,8
9,test,2,0.0,1-Back,1.0,m,Wed Mar 25 2026 11:39:53 GMT-0500 (Central Daylight Time),292405.09999990463,178_m_m_n_a.png,I,m,696,10,1,1712.7000000476837,290692.39999985695,8103,NNB,B,9
10,test,2,1.0,1-Back,1.0,z,Wed Mar 25 2026 11:39:53 GMT-0500 (Central Daylight Time),293904.7999999523,178_m_m_n_a.png,I,z,467,11,1,1497.0,292407.7999999523,8103,NNB,B,10
11,test,2,0.0,1-Back,1.0,m,Wed Mar 25 2026 11:39:53 GMT-0500 (Central Daylight Time),295770.89999985695,110_o_f_n_a.png,I,m,840,12,1,1860.0,293910.89999985695,8103,NNB,B,11
12,test,2,0.0,1-Back,1.0,m,Wed Mar 25 2026 11:39:53 GMT-0500 (Central Daylight Time),297553.59999990463,086_o_f_n_a.png,I,m,757,13,1,1780.2999999523163,295773.2999999523,8103,NNB,B,12
13,test,2,0.0,1-Back,1.0,m,Wed Mar 25 2026 11:39:53 GMT-0500 (Central Daylight Time),299370.2000000477,176_o_m_n_a.png,I,m,783,14,1,1811.0,297559.2000000477,8103,NNB,B,13
14,test,2,0.0,1-Back,1.0,m,Wed Mar 25 2026 11:39:53 GMT-0500 (Central Daylight Time),301202.2000000477,065_o_m_n_a.png,I,m,815,15,1,1829.7000000476837,299372.5,8103,NNB,B,14
15,test,2,1.0,1-Back,1.0,z,Wed Mar 25 2026 11:39:53 GMT-0500 (Central Daylight Time),303051.89999985695,065_o_m_n_a.png,I,z,813,16,1,1844.5999999046326,301207.2999999523,8103,NNB,B,15
16,test,2,0.0,1-Back,1.0,m,Wed Mar 25 2026 11:39:53 GMT-0500 (Central Daylight Time),305134.59999990463,013_y_m_n_a.png,I,m,1052,17,1,2080.0999999046326,303054.5,8103,NNB,B,16
17,test,2,1.0,1-Back,1.0,z,Wed Mar 25 2026 11:39:53 GMT-0500 (Central Daylight Time),307017.2999999523,013_y_m_n_a.png,I,z,858,18,1,1876.9000000953674,305140.39999985695,8103,NNB,B,17
0,test,3,1.0,1-Back,,,Wed Mar 25 2026 11:39:53 GMT-0500 (Central Daylight Time),307017.2999999523,173_y_f_n_a.png,I,space,1807,1,1,1876.9000000953674,305140.39999985695,8103,NNB,B,0
1,test,3,0.0,1-Back,1.0,m,Wed Mar 25 2026 11:39:53 GMT-0500 (Central Daylight Time),313298.59999990463,065_o_m_n_a.png,I,m,1357,1,1,2377.2999999523163,310921.2999999523,8103,NNB,B,1
2,test,3,1.0,1-Back,1.0,z,Wed Mar 25 2026 11:39:53 GMT-0500 (Central Daylight Time),314998.09999990463,065_o_m_n_a.png,I,z,678,1,1,1696.7999999523163,313301.2999999523,8103,NNB,B,2
3,test,3,0.0,1-Back,1.0,m,Wed Mar 25 2026 11:39:53 GMT-0500 (Central Daylight Time),316664.2999999523,097_m_f_n_a.png,I,m,634,1,1,1660.7999999523163,315003.5,8103,NNB,B,3
4,test,3,1.0,1-Back,1.0,z,Wed Mar 25 2026 11:39:53 GMT-0500 (Central Daylight Time),318163.7999999523,097_m_f_n_a.png,I,z,472,1,1,1496.9000000953674,316666.89999985695,8103,NNB,B,4
5,test,3,0.0,1-Back,1.0,m,Wed Mar 25 2026 11:39:53 GMT-0500 (Central Daylight Time),320046.39999985695,110_o_f_n_a.png,I,m,853,1,1,1878.0,318168.39999985695,8103,NNB,B,5
6,test,3,0.0,1-Back,1.0,m,Wed Mar 25 2026 11:39:53 GMT-0500 (Central Daylight Time),321796.0,153_y_m_n_a.png,I,m,729,1,1,1747.4000000953674,320048.59999990463,8103,NNB,B,6
7,test,3,0.0,1-Back,1.0,m,Wed Mar 25 2026 11:39:53 GMT-0500 (Central Daylight Time),323662.0,110_o_f_n_a.png,I,m,837,1,1,1860.7999999523163,321801.2000000477,8103,NNB,B,7
8,test,3,0.0,1-Back,1.0,m,Wed Mar 25 2026 11:39:53 GMT-0500 (Central Daylight Time),325444.89999985695,013_y_m_n_a.png,I,m,764,1,1,1780.3999998569489,323664.5,8103,NNB,B,8
9,test,3,1.0,1-Back,1.0,z,Wed Mar 25 2026 11:39:53 GMT-0500 (Central Daylight Time),326961.2000000477,013_y_m_n_a.png,I,z,483,1,1,1511.4000000953674,325449.7999999523,8103,NNB,B,9
10,test,3,0.0,1-Back,1.0,m,Wed Mar 25 2026 11:39:53 GMT-0500 (Central Daylight Time),328993.2999999523,029_m_f_n_a.png,I,m,1015,1,1,2029.4000000953674,326963.89999985695,8103,NNB,B,10
11,test,3,0.0,1-Back,1.0,m,Wed Mar 25 2026 11:39:53 GMT-0500 (Central Daylight Time),330593.09999990463,152_y_f_n_a.png,I,m,583,1,1,1593.7999999523163,328999.2999999523,8103,NNB,B,11
12,test,3,1.0,1-Back,1.0,z,Wed Mar 25 2026 11:39:53 GMT-0500 (Central Daylight Time),332009.39999985695,152_y_f_n_a.png,I,z,391,1,1,1413.5999999046326,330595.7999999523,8103,NNB,B,12
13,test,3,0.0,1-Back,1.0,m,Wed Mar 25 2026 11:39:53 GMT-0500 (Central Daylight Time),334225.59999990463,029_m_f_n_a.png,I,m,1184,1,1,2210.7999999523163,332014.7999999523,8103,NNB,B,13
14,test,3,0.0,1-Back,1.0,m,Wed Mar 25 2026 11:39:53 GMT-0500 (Central Daylight Time),335908.09999990463,126_m_m_n_a.png,I,m,654,1,1,1680.0,334228.09999990463,8103,NNB,B,14
15,test,3,1.0,1-Back,1.0,z,Wed Mar 25 2026 11:39:53 GMT-0500 (Central Daylight Time),337574.39999985695,126_m_m_n_a.png,I,z,636,1,1,1661.2999999523163,335913.09999990463,8103,NNB,B,15
16,test,3,0.0,1-Back,1.0,m,Wed Mar 25 2026 11:39:53 GMT-0500 (Central Daylight Time),339357.39999985695,086_o_f_n_a.png,I,m,754,1,1,1780.5,337576.89999985695,8103,NNB,B,16
17,test,3,1.0,1-Back,1.0,z,Wed Mar 25 2026 11:39:53 GMT-0500 (Central Daylight Time),340840.09999990463,086_o_f_n_a.png,I,z,460,1,1,1478.3999998569489,339361.7000000477,8103,NNB,B,17
0,test,4,1.0,1-Back,,,Wed Mar 25 2026 11:39:53 GMT-0500 (Central Daylight Time),340840.09999990463,097_m_f_n_a.png,I,space,1377,1,1,1478.3999998569489,339361.7000000477,8103,NNB,B,0
1,test,4,0.0,1-Back,1.0,m,Wed Mar 25 2026 11:39:53 GMT-0500 (Central Daylight Time),346772.89999985695,065_o_m_n_a.png,I,m,1430,2,1,2450.0,344322.89999985695,8103,NNB,B,1
2,test,4,0.0,1-Back,1.0,m,Wed Mar 25 2026 11:39:53 GMT-0500 (Central Daylight Time),348470.89999985695,097_m_f_n_a.png,I,m,667,3,1,1695.3999998569489,346775.5,8103,NNB,B,2
3,test,4,0.0,1-Back,1.0,m,Wed Mar 25 2026 11:39:53 GMT-0500 (Central Daylight Time),350087.2000000477,110_o_f_n_a.png,I,m,593,4,1,1609.3000001907349,348477.89999985695,8103,NNB,B,3
4,test,4,1.0,1-Back,1.0,z,Wed Mar 25 2026 11:39:53 GMT-0500 (Central Daylight Time),351886.59999990463,110_o_f_n_a.png,I,z,777,5,1,1797.0,350089.59999990463,8103,NNB,B,4
5,test,4,0.0,1-Back,1.0,m,Wed Mar 25 2026 11:39:53 GMT-0500 (Central Daylight Time),354002.5,152_y_f_n_a.png,I,m,1090,6,1,2110.4000000953674,351892.09999990463,8103,NNB,B,5
6,test,4,0.0,1-Back,1.0,m,Wed Mar 25 2026 11:39:53 GMT-0500 (Central Daylight Time),355702.0,153_y_m_n_a.png,I,m,678,7,1,1696.7999999523163,354005.2000000477,8103,NNB,B,6
7,test,4,1.0,1-Back,1.0,z,Wed Mar 25 2026 11:39:53 GMT-0500 (Central Daylight Time),357368.2999999523,153_y_m_n_a.png,I,z,643,8,1,1660.2999999523163,355708.0,8103,NNB,B,7
8,test,4,0.0,1-Back,1.0,m,Wed Mar 25 2026 11:39:53 GMT-0500 (Central Daylight Time),359300.7999999523,152_y_f_n_a.png,I,m,912,9,1,1930.0,357370.7999999523,8103,NNB,B,8
9,test,4,0.0,1-Back,1.0,m,Wed Mar 25 2026 11:39:53 GMT-0500 (Central Daylight Time),361200.7000000477,178_m_m_n_a.png,I,m,875,10,1,1895.3000001907349,359305.39999985695,8103,NNB,B,9
10,test,4,1.0,1-Back,1.0,z,Wed Mar 25 2026 11:39:53 GMT-0500 (Central Daylight Time),362683.2000000477,178_m_m_n_a.png,I,z,464,11,1,1480.0,361203.2000000477,8103,NNB,B,10
11,test,4,0.0,1-Back,1.0,m,Wed Mar 25 2026 11:39:53 GMT-0500 (Central Daylight Time),364349.5,086_o_f_n_a.png,I,m,637,12,1,1659.2999999523163,362690.2000000477,8103,NNB,B,11
12,test,4,0.0,1-Back,1.0,m,Wed Mar 25 2026 11:39:53 GMT-0500 (Central Daylight Time),366048.89999985695,176_o_m_n_a.png,I,m,676,13,1,1696.0999999046326,364352.7999999523,8103,NNB,B,12
13,test,4,0.0,1-Back,1.0,m,Wed Mar 25 2026 11:39:53 GMT-0500 (Central Daylight Time),367908.7999999523,086_o_f_n_a.png,I,m,844,14,1,1855.7000000476837,366053.09999990463,8103,NNB,B,13
14,test,4,0.0,1-Back,1.0,m,Wed Mar 25 2026 11:39:53 GMT-0500 (Central Daylight Time),369647.7999999523,173_y_f_n_a.png,I,m,726,15,1,1736.0999999046326,367911.7000000477,8103,NNB,B,14
15,test,4,1.0,1-Back,1.0,z,Wed Mar 25 2026 11:39:53 GMT-0500 (Central Daylight Time),371114.0,173_y_f_n_a.png,I,z,440,16,1,1462.4000000953674,369651.59999990463,8103,NNB,B,15
16,test,4,0.0,1-Back,1.0,m,Wed Mar 25 2026 11:39:53 GMT-0500 (Central Daylight Time),372763.2999999523,029_m_f_n_a.png,I,m,630,17,1,1646.9000000953674,371116.39999985695,8103,NNB,B,16
17,test,4,1.0,1-Back,1.0,z,Wed Mar 25 2026 11:39:53 GMT-0500 (Central Daylight Time),374529.5,029_m_f_n_a.png,I,z,741,18,1,1759.6000001430511,372769.89999985695,8103,NNB,B,17
0,test,5,1.0,1-Back,,,Wed Mar 25 2026 11:39:53 GMT-0500 (Central Daylight Time),374529.5,176_o_m_n_a.png,I,space,1215,1,1,1759.6000001430511,372769.89999985695,8103,NNB,B,0
1,test,5,1.0,1-Back,1.0,z,Wed Mar 25 2026 11:39:53 GMT-0500 (Central Daylight Time),379644.5,176_o_m_n_a.png,I,z,856,2,1,1878.5,377766.0,8103,NNB,B,1
2,test,5,0.0,1-Back,1.0,m,Wed Mar 25 2026 11:39:53 GMT-0500 (Central Daylight Time),381377.59999990463,152_y_f_n_a.png,I,m,700,3,1,1730.5999999046326,379647.0,8103,NNB,B,2
3,test,5,0.0,1-Back,1.0,m,Wed Mar 25 2026 11:39:53 GMT-0500 (Central Daylight Time),382993.39999985695,153_y_m_n_a.png,I,m,599,4,1,1609.3999998569489,381384.0,8103,NNB,B,3
4,test,5,0.0,1-Back,1.0,m,Wed Mar 25 2026 11:39:53 GMT-0500 (Central Daylight Time),385059.39999985695,152_y_f_n_a.png,I,m,1039,5,1,2063.199999809265,382996.2000000477,8103,NNB,B,4
5,test,5,0.0,1-Back,1.0,m,Wed Mar 25 2026 11:39:53 GMT-0500 (Central Daylight Time),386859.09999990463,126_m_m_n_a.png,I,m,781,6,1,1794.8999998569489,385064.2000000477,8103,NNB,B,5
6,test,5,1.0,1-Back,1.0,z,Wed Mar 25 2026 11:39:53 GMT-0500 (Central Daylight Time),388591.7999999523,126_m_m_n_a.png,I,z,709,7,1,1730.2999999523163,386861.5,8103,NNB,B,6
6,test,5,0.0,1-Back,0.0,m,Wed Mar 25 2026 11:39:53 GMT-0500 (Central Daylight Time),390642.09999990463,173_y_f_n_a.png,I,z,1017,8,1,2043.8999998569489,388598.2000000477,8103,NNB,B,7
7,test,5,0.0,1-Back,1.0,m,Wed Mar 25 2026 11:39:53 GMT-0500 (Central Daylight Time),392874.7999999523,013_y_m_n_a.png,I,m,1216,9,1,2230.0999999046326,390644.7000000477,8103,NNB,B,8
8,test,5,0.0,1-Back,1.0,m,Wed Mar 25 2026 11:39:53 GMT-0500 (Central Daylight Time),395789.7999999523,173_y_f_n_a.png,I,m,1887,10,1,2909.4000000953674,392880.39999985695,8103,NNB,B,9
9,test,5,0.0,1-Back,1.0,m,Wed Mar 25 2026 11:39:53 GMT-0500 (Central Daylight Time),397522.2000000477,086_o_f_n_a.png,I,m,707,11,1,1729.8000001907349,395792.39999985695,8103,NNB,B,10
10,test,5,1.0,1-Back,1.0,z,Wed Mar 25 2026 11:39:53 GMT-0500 (Central Daylight Time),399388.39999985695,086_o_f_n_a.png,I,z,838,12,1,1860.0,397528.39999985695,8103,NNB,B,11
11,test,5,0.0,1-Back,1.0,m,Wed Mar 25 2026 11:39:53 GMT-0500 (Central Daylight Time),401837.7000000477,065_o_m_n_a.png,I,m,1429,13,1,2446.7000000476837,399391.0,8103,NNB,B,12
12,test,5,0.0,1-Back,1.0,m,Wed Mar 25 2026 11:39:53 GMT-0500 (Central Daylight Time),403553.7000000477,097_m_f_n_a.png,I,m,699,14,1,1711.3000001907349,401842.39999985695,8103,NNB,B,13
13,test,5,1.0,1-Back,1.0,z,Wed Mar 25 2026 11:39:53 GMT-0500 (Central Daylight Time),405186.5,097_m_f_n_a.png,I,z,607,15,1,1630.5,403556.0,8103,NNB,B,14
14,test,5,0.0,1-Back,1.0,m,Wed Mar 25 2026 11:39:53 GMT-0500 (Central Daylight Time),407185.7999999523,065_o_m_n_a.png,I,m,975,16,1,1995.7000000476837,405190.09999990463,8103,NNB,B,15
15,test,5,0.0,1-Back,1.0,m,Wed Mar 25 2026 11:39:53 GMT-0500 (Central Daylight Time),408802.0,029_m_f_n_a.png,I,m,599,17,1,1613.6000001430511,407188.39999985695,8103,NNB,B,16
16,test,5,0.0,1-Back,1.0,m,Wed Mar 25 2026 11:39:53 GMT-0500 (Central Daylight Time),410434.7000000477,178_m_m_n_a.png,I,m,606,18,1,1627.9000000953674,408806.7999999523,8103,NNB,B,17
0,prac,1,0.0,2-Back,,,Wed Mar 25 2026 11:39:53 GMT-0500 (Central Daylight Time),410434.7000000477,013_y_m_n_a.png,I,space,4788,1,1,1627.9000000953674,408806.7999999523,8103,NNB,B,0
0,prac,1,0.0,2-Back,,,Wed Mar 25 2026 11:39:53 GMT-0500 (Central Daylight Time),410434.7000000477,029_m_f_n_a.png,I,space,4788,2,1,1627.9000000953674,408806.7999999523,8103,NNB,B,0
1,prac,1,1.0,2-Back,1.0,m,Wed Mar 25 2026 11:39:53 GMT-0500 (Central Daylight Time),509637.39999985695,065_o_m_n_a.png,I,m,1566,3,1,2428.7999999523163,507208.59999990463,8103,NNB,B,1
2,prac,1,0.0,2-Back,1.0,m,Wed Mar 25 2026 11:39:53 GMT-0500 (Central Daylight Time),511852.89999985695,086_o_f_n_a.png,I,m,1323,4,1,2207.0,509645.89999985695,8103,NNB,B,2
3,prac,1,0.0,2-Back,1.0,z,Wed Mar 25 2026 11:39:53 GMT-0500 (Central Daylight Time),513869.2999999523,065_o_m_n_a.png,I,z,1241,5,1,2012.9000000953674,511856.39999985695,8103,NNB,B,3
4,prac,1,1.0,2-Back,1.0,z,Wed Mar 25 2026 11:39:53 GMT-0500 (Central Daylight Time),516535.09999990463,086_o_f_n_a.png,I,z,1875,6,1,2657.7000000476837,513877.39999985695,8103,NNB,B,4
5,prac,1,0.0,2-Back,1.0,m,Wed Mar 25 2026 11:39:53 GMT-0500 (Central Daylight Time),518801.2000000477,178_m_m_n_a.png,I,m,1406,7,1,2262.4000000953674,516538.7999999523,8103,NNB,B,5
6,prac,1,0.0,2-Back,1.0,m,Wed Mar 25 2026 11:39:53 GMT-0500 (Central Daylight Time),521200.39999985695,176_o_m_n_a.png,I,m,1514,8,1,2390.199999809265,518810.2000000477,8103,NNB,B,6
7,prac,1,0.0,2-Back,1.0,m,Wed Mar 25 2026 11:39:53 GMT-0500 (Central Daylight Time),522899.89999985695,173_y_f_n_a.png,I,m,826,9,1,1696.0,521203.89999985695,8103,NNB,B,7
8,prac,1,1.0,2-Back,1.0,z,Wed Mar 25 2026 11:39:53 GMT-0500 (Central Daylight Time),524516.0999999046,176_o_m_n_a.png,I,z,828,10,1,1607.3999998569489,522908.7000000477,8103,NNB,B,8
9,prac,1,0.0,2-Back,1.0,m,Wed Mar 25 2026 11:39:53 GMT-0500 (Central Daylight Time),526715.2000000477,152_y_f_n_a.png,I,m,1347,11,1,2195.7000000476837,524519.5,8103,NNB,B,9
9,prac,1,0.0,2-Back,0.0,m,Wed Mar 25 2026 11:39:53 GMT-0500 (Central Daylight Time),529497.5,178_m_m_n_a.png,I,None,2007,12,1,2774.0,526723.5,8103,NNB,B,10
0,test,1,0.0,2-Back,,,Wed Mar 25 2026 11:39:53 GMT-0500 (Central Daylight Time),529497.5,153_y_m_n_a.png,I,space,1727,1,1,2774.0,526723.5,8103,NNB,B,0
0,test,1,0.0,2-Back,,,Wed Mar 25 2026 11:39:53 GMT-0500 (Central Daylight Time),529497.5,153_y_m_n_a.png,I,space,1727,2,1,2774.0,526723.5,8103,NNB,B,0
1,test,1,0.0,2-Back,1.0,m,Wed Mar 25 2026 11:39:53 GMT-0500 (Central Daylight Time),546292.7000000477,086_o_f_n_a.png,I,m,829,3,1,1846.8000001907349,544445.899999857,8103,NNB,B,1
2,test,1,0.0,2-Back,1.0,m,Wed Mar 25 2026 11:39:53 GMT-0500 (Central Daylight Time),548408.7000000477,126_m_m_n_a.png,I,m,1084,4,1,2109.4000000953674,546299.2999999523,8103,NNB,B,2
3,test,1,1.0,2-Back,1.0,z,Wed Mar 25 2026 11:39:53 GMT-0500 (Central Daylight Time),550307.899999857,086_o_f_n_a.png,I,z,881,5,1,1896.6999998092651,548411.2000000477,8103,NNB,B,3
4,test,1,0.0,2-Back,1.0,m,Wed Mar 25 2026 11:39:53 GMT-0500 (Central Daylight Time),552707.0,152_y_f_n_a.png,I,m,1381,6,1,2395.100000143051,550311.899999857,8103,NNB,B,4
4,test,1,0.0,2-Back,0.0,m,Wed Mar 25 2026 11:39:53 GMT-0500 (Central Daylight Time),555256.399999857,126_m_m_n_a.png,I,z,1517,7,1,2547.0999999046326,552709.2999999523,8103,NNB,B,5
5,test,1,1.0,2-Back,1.0,z,Wed Mar 25 2026 11:39:53 GMT-0500 (Central Daylight Time),557889.0,152_y_f_n_a.png,I,z,1608,8,1,2628.4000000953674,555260.5999999046,8103,NNB,B,6
6,test,1,0.0,2-Back,1.0,m,Wed Mar 25 2026 11:39:53 GMT-0500 (Central Daylight Time),560106.2000000477,013_y_m_n_a.png,I,m,1192,9,1,2214.7000000476837,557891.5,8103,NNB,B,7
7,test,1,0.0,2-Back,1.0,m,Wed Mar 25 2026 11:39:53 GMT-0500 (Central Daylight Time),562037.5999999046,110_o_f_n_a.png,I,m,903,10,1,1927.3999998569489,560110.2000000477,8103,NNB,B,8
7,test,1,1.0,2-Back,0.0,z,Wed Mar 25 2026 11:39:53 GMT-0500 (Central Daylight Time),565070.2000000477,013_y_m_n_a.png,I,None,2016,11,1,3030.100000143051,562040.0999999046,8103,NNB,B,9
8,test,1,0.0,2-Back,1.0,m,Wed Mar 25 2026 11:39:53 GMT-0500 (Central Daylight Time),567719.0999999046,029_m_f_n_a.png,I,m,1618,12,1,2643.2000000476837,565075.899999857,8103,NNB,B,10
9,test,1,0.0,2-Back,1.0,m,Wed Mar 25 2026 11:39:53 GMT-0500 (Central Daylight Time),569818.399999857,029_m_f_n_a.png,I,m,1073,13,1,2096.7999999523163,567721.5999999046,8103,NNB,B,11
10,test,1,0.0,2-Back,1.0,m,Wed Mar 25 2026 11:39:53 GMT-0500 (Central Daylight Time),572001.2000000477,065_o_m_n_a.png,I,m,1150,14,1,2175.9000000953674,569825.2999999523,8103,NNB,B,12
11,test,1,0.0,2-Back,1.0,m,Wed Mar 25 2026 11:39:53 GMT-0500 (Central Daylight Time),574617.2000000477,110_o_f_n_a.png,I,m,1592,15,1,2613.7000000476837,572003.5,8103,NNB,B,13
12,test,1,1.0,2-Back,1.0,z,Wed Mar 25 2026 11:39:53 GMT-0500 (Central Daylight Time),576533.2000000477,065_o_m_n_a.png,I,z,888,16,1,1911.4000000953674,574621.7999999523,8103,NNB,B,14
12,test,1,0.0,2-Back,0.0,m,Wed Mar 25 2026 11:39:53 GMT-0500 (Central Daylight Time),579565.5,097_m_f_n_a.png,I,None,2015,17,1,3029.5,576536.0,8103,NNB,B,15
13,test,1,0.0,2-Back,1.0,m,Wed Mar 25 2026 11:39:53 GMT-0500 (Central Daylight Time),581531.5,178_m_m_n_a.png,I,m,947,18,1,1961.7000000476837,579569.7999999523,8103,NNB,B,16
0,test,2,0.0,2-Back,,,Wed Mar 25 2026 11:39:53 GMT-0500 (Central Daylight Time),581531.5,178_m_m_n_a.png,I,space,3533,1,1,1961.7000000476837,579569.7999999523,8103,NNB,B,0
0,test,2,0.0,2-Back,,,Wed Mar 25 2026 11:39:53 GMT-0500 (Central Daylight Time),581531.5,173_y_f_n_a.png,I,space,3533,2,1,1961.7000000476837,579569.7999999523,8103,NNB,B,0
1,test,2,1.0,2-Back,1.0,z,Wed Mar 25 2026 11:39:53 GMT-0500 (Central Daylight Time),591994.5999999046,178_m_m_n_a.png,I,z,765,3,1,1780.2000000476837,590214.399999857,8103,NNB,B,1
2,test,2,0.0,2-Back,1.0,m,Wed Mar 25 2026 11:39:53 GMT-0500 (Central Daylight Time),593994.2999999523,097_m_f_n_a.png,I,m,973,4,1,1995.2999999523163,591999.0,8103,NNB,B,2
2,test,2,0.0,2-Back,0.0,m,Wed Mar 25 2026 11:39:53 GMT-0500 (Central Daylight Time),596377.0999999046,173_y_f_n_a.png,I,z,1350,5,1,2380.399999856949,593996.7000000477,8103,NNB,B,3
3,test,2,0.0,2-Back,1.0,m,Wed Mar 25 2026 11:39:53 GMT-0500 (Central Daylight Time),598276.2000000477,065_o_m_n_a.png,I,m,871,6,1,1894.3000001907349,596381.899999857,8103,NNB,B,4
4,test,2,0.0,2-Back,1.0,m,Wed Mar 25 2026 11:39:53 GMT-0500 (Central Daylight Time),600258.7999999523,152_y_f_n_a.png,I,m,965,7,1,1980.0999999046326,598278.7000000477,8103,NNB,B,5
5,test,2,1.0,2-Back,1.0,z,Wed Mar 25 2026 11:39:53 GMT-0500 (Central Daylight Time),602408.0999999046,065_o_m_n_a.png,I,z,1117,8,1,2143.7999999523163,600264.2999999523,8103,NNB,B,6
6,test,2,0.0,2-Back,1.0,m,Wed Mar 25 2026 11:39:53 GMT-0500 (Central Daylight Time),604724.399999857,013_y_m_n_a.png,I,m,1167,9,1,2313.7999999523163,602410.5999999046,8103,NNB,B,7
7,test,2,0.0,2-Back,1.0,m,Wed Mar 25 2026 11:39:53 GMT-0500 (Central Daylight Time),606806.7999999523,013_y_m_n_a.png,I,m,1061,10,1,2075.0,604731.7999999523,8103,NNB,B,8
8,test,2,0.0,2-Back,1.0,m,Wed Mar 25 2026 11:39:53 GMT-0500 (Central Daylight Time),609139.5999999046,029_m_f_n_a.png,I,m,1313,11,1,2330.5,606809.0999999046,8103,NNB,B,9
9,test,2,0.0,2-Back,1.0,m,Wed Mar 25 2026 11:39:53 GMT-0500 (Central Daylight Time),612072.0999999046,173_y_f_n_a.png,I,m,1901,12,1,2926.399999856949,609145.7000000477,8103,NNB,B,10
10,test,2,1.0,2-Back,1.0,z,Wed Mar 25 2026 11:39:53 GMT-0500 (Central Daylight Time),613738.2000000477,029_m_f_n_a.png,I,z,642,13,1,1663.8000001907349,612074.399999857,8103,NNB,B,11
11,test,2,0.0,2-Back,1.0,m,Wed Mar 25 2026 11:39:53 GMT-0500 (Central Daylight Time),615937.399999857,176_o_m_n_a.png,I,m,1182,14,1,2192.5,613744.899999857,8103,NNB,B,12
12,test,2,0.0,2-Back,1.0,m,Wed Mar 25 2026 11:39:53 GMT-0500 (Central Daylight Time),618203.399999857,176_o_m_n_a.png,I,m,1248,15,1,2263.5999999046326,615939.7999999523,8103,NNB,B,13
13,test,2,0.0,2-Back,1.0,m,Wed Mar 25 2026 11:39:53 GMT-0500 (Central Daylight Time),620519.2999999523,110_o_f_n_a.png,I,m,1285,16,1,2311.2999999523163,618208.0,8103,NNB,B,14
14,test,2,0.0,2-Back,1.0,m,Wed Mar 25 2026 11:39:53 GMT-0500 (Central Daylight Time),622735.2999999523,126_m_m_n_a.png,I,m,1194,17,1,2213.0999999046326,620522.2000000477,8103,NNB,B,15
15,test,2,1.0,2-Back,1.0,z,Wed Mar 25 2026 11:39:53 GMT-0500 (Central Daylight Time),624501.399999857,110_o_f_n_a.png,I,z,745,18,1,1761.7999999523163,622739.5999999046,8103,NNB,B,16
0,test,3,1.0,2-Back,,,Wed Mar 25 2026 11:39:53 GMT-0500 (Central Daylight Time),624501.399999857,153_y_m_n_a.png,I,space,2364,1,1,1761.7999999523163,622739.5999999046,8103,NNB,B,0
0,test,3,1.0,2-Back,,,Wed Mar 25 2026 11:39:53 GMT-0500 (Central Daylight Time),624501.399999857,153_y_m_n_a.png,I,space,2364,2,1,1761.7999999523163,622739.5999999046,8103,NNB,B,0
1,test,3,0.0,2-Back,1.0,m,Wed Mar 25 2026 11:39:53 GMT-0500 (Central Daylight Time),633865.0999999046,110_o_f_n_a.png,I,m,858,3,1,1880.0,631985.0999999046,8103,NNB,B,1
2,test,3,0.0,2-Back,1.0,m,Wed Mar 25 2026 11:39:53 GMT-0500 (Central Daylight Time),635881.2000000477,178_m_m_n_a.png,I,m,984,4,1,2012.4000000953674,633868.7999999523,8103,NNB,B,2
3,test,3,1.0,2-Back,1.0,z,Wed Mar 25 2026 11:39:53 GMT-0500 (Central Daylight Time),637713.899999857,110_o_f_n_a.png,I,z,816,5,1,1830.1999998092651,635883.7000000477,8103,NNB,B,3
4,test,3,0.0,2-Back,1.0,m,Wed Mar 25 2026 11:39:53 GMT-0500 (Central Daylight Time),640096.5999999046,013_y_m_n_a.png,I,m,1359,6,1,2375.7999999523163,637720.7999999523,8103,NNB,B,4
4,test,3,0.0,2-Back,0.0,m,Wed Mar 25 2026 11:39:53 GMT-0500 (Central Daylight Time),643129.0,178_m_m_n_a.png,I,None,2016,7,1,3029.7999999523163,640099.2000000477,8103,NNB,B,5
5,test,3,1.0,2-Back,1.0,z,Wed Mar 25 2026 11:39:53 GMT-0500 (Central Daylight Time),644978.0999999046,013_y_m_n_a.png,I,z,832,8,1,1844.2000000476837,643133.899999857,8103,NNB,B,6
6,test,3,0.0,2-Back,1.0,m,Wed Mar 25 2026 11:39:53 GMT-0500 (Central Daylight Time),647212.0,173_y_f_n_a.png,I,m,1207,9,1,2231.5,644980.5,8103,NNB,B,7
6,test,3,0.0,2-Back,0.0,m,Wed Mar 25 2026 11:39:53 GMT-0500 (Central Daylight Time),649393.899999857,126_m_m_n_a.png,I,z,1157,10,1,2177.5999999046326,647216.2999999523,8103,NNB,B,8
7,test,3,1.0,2-Back,1.0,z,Wed Mar 25 2026 11:39:53 GMT-0500 (Central Daylight Time),651276.399999857,173_y_f_n_a.png,I,z,863,11,1,1880.1999998092651,649396.2000000477,8103,NNB,B,9
8,test,3,1.0,2-Back,1.0,z,Wed Mar 25 2026 11:39:53 GMT-0500 (Central Daylight Time),653309.0999999046,126_m_m_n_a.png,I,z,1013,12,1,2027.8999998569489,651281.2000000477,8103,NNB,B,10
9,test,3,0.0,2-Back,1.0,m,Wed Mar 25 2026 11:39:53 GMT-0500 (Central Daylight Time),655241.7000000477,110_o_f_n_a.png,I,m,907,13,1,1930.2000000476837,653311.5,8103,NNB,B,11
10,test,3,0.0,2-Back,1.0,m,Wed Mar 25 2026 11:39:53 GMT-0500 (Central Daylight Time),657292.399999857,097_m_f_n_a.png,I,m,1030,14,1,2046.5999999046326,655245.7999999523,8103,NNB,B,12
11,test,3,0.0,2-Back,1.0,m,Wed Mar 25 2026 11:39:53 GMT-0500 (Central Daylight Time),659275.0,065_o_m_n_a.png,I,m,965,15,1,1980.2000000476837,657294.7999999523,8103,NNB,B,13
12,test,3,1.0,2-Back,1.0,z,Wed Mar 25 2026 11:39:53 GMT-0500 (Central Daylight Time),661323.0999999046,097_m_f_n_a.png,I,z,1031,16,1,2043.7000000476837,659279.399999857,8103,NNB,B,14
13,test,3,0.0,2-Back,1.0,m,Wed Mar 25 2026 11:39:53 GMT-0500 (Central Daylight Time),663473.0,086_o_f_n_a.png,I,m,1133,17,1,2147.4000000953674,661325.5999999046,8103,NNB,B,15
14,test,3,0.0,2-Back,1.0,m,Wed Mar 25 2026 11:39:53 GMT-0500 (Central Daylight Time),666105.2000000477,086_o_f_n_a.png,I,m,1599,18,1,2628.2000000476837,663477.0,8103,NNB,B,16
0,test,4,0.0,2-Back,,,Wed Mar 25 2026 11:39:53 GMT-0500 (Central Daylight Time),666105.2000000477,176_o_m_n_a.png,I,space,6951,1,1,2628.2000000476837,663477.0,8103,NNB,B,0
0,test,4,0.0,2-Back,,,Wed Mar 25 2026 11:39:53 GMT-0500 (Central Daylight Time),666105.2000000477,152_y_f_n_a.png,I,space,6951,2,1,2628.2000000476837,663477.0,8103,NNB,B,0
1,test,4,1.0,2-Back,1.0,z,Wed Mar 25 2026 11:39:53 GMT-0500 (Central Daylight Time),679800.7999999523,176_o_m_n_a.png,I,z,484,3,1,1511.4000000953674,678289.399999857,8103,NNB,B,1
2,test,4,1.0,2-Back,1.0,z,Wed Mar 25 2026 11:39:53 GMT-0500 (Central Daylight Time),682284.5,152_y_f_n_a.png,I,z,1465,4,1,2478.9000000953674,679805.5999999046,8103,NNB,B,2
3,test,4,0.0,2-Back,1.0,m,Wed Mar 25 2026 11:39:53 GMT-0500 (Central Daylight Time),684282.5,110_o_f_n_a.png,I,m,982,5,1,1995.6000001430511,682286.899999857,8103,NNB,B,3
3,test,4,0.0,2-Back,0.0,m,Wed Mar 25 2026 11:39:53 GMT-0500 (Central Daylight Time),687315.2000000477,110_o_f_n_a.png,I,None,2016,6,1,3028.300000190735,684286.899999857,8103,NNB,B,4
4,test,4,0.0,2-Back,1.0,m,Wed Mar 25 2026 11:39:53 GMT-0500 (Central Daylight Time),689614.5999999046,029_m_f_n_a.png,I,m,1277,7,1,2296.899999856949,687317.7000000477,8103,NNB,B,5
5,test,4,0.0,2-Back,1.0,m,Wed Mar 25 2026 11:39:53 GMT-0500 (Central Daylight Time),691464.0999999046,013_y_m_n_a.png,I,m,818,8,1,1844.0,689620.0999999046,8103,NNB,B,6
6,test,4,1.0,2-Back,1.0,z,Wed Mar 25 2026 11:39:53 GMT-0500 (Central Daylight Time),693196.5,029_m_f_n_a.png,I,z,714,9,1,1730.1000001430511,691466.399999857,8103,NNB,B,7
6,test,4,0.0,2-Back,0.0,m,Wed Mar 25 2026 11:39:53 GMT-0500 (Central Daylight Time),696229.0999999046,126_m_m_n_a.png,I,None,2016,10,1,3028.2000000476837,693200.899999857,8103,NNB,B,8
6,test,4,0.0,2-Back,0.0,m,Wed Mar 25 2026 11:39:53 GMT-0500 (Central Daylight Time),698229.399999857,013_y_m_n_a.png,I,z,972,11,1,1997.8999998569489,696231.5,8103,NNB,B,9
7,test,4,0.0,2-Back,1.0,m,Wed Mar 25 2026 11:39:53 GMT-0500 (Central Daylight Time),700194.2000000477,086_o_f_n_a.png,I,m,948,12,1,1959.4000000953674,698234.7999999523,8103,NNB,B,10
8,test,4,0.0,2-Back,1.0,m,Wed Mar 25 2026 11:39:53 GMT-0500 (Central Daylight Time),702377.0999999046,153_y_m_n_a.png,I,m,1159,13,1,2180.399999856949,700196.7000000477,8103,NNB,B,11
9,test,4,1.0,2-Back,1.0,z,Wed Mar 25 2026 11:39:53 GMT-0500 (Central Daylight Time),704342.899999857,086_o_f_n_a.png,I,z,935,14,1,1959.8999998569489,702383.0,8103,NNB,B,12
9,test,4,1.0,2-Back,0.0,z,Wed Mar 25 2026 11:39:53 GMT-0500 (Central Daylight Time),707242.2999999523,153_y_m_n_a.png,I,m,1875,15,1,2896.9000000953674,704345.399999857,8103,NNB,B,13
10,test,4,0.0,2-Back,1.0,m,Wed Mar 25 2026 11:39:53 GMT-0500 (Central Daylight Time),710241.5,178_m_m_n_a.png,I,m,1966,16,1,2995.100000143051,707246.399999857,8103,NNB,B,14
11,test,4,0.0,2-Back,1.0,m,Wed Mar 25 2026 11:39:53 GMT-0500 (Central Daylight Time),712307.2999999523,097_m_f_n_a.png,I,m,1047,17,1,2063.2999999523163,710244.0,8103,NNB,B,15
12,test,4,1.0,2-Back,1.0,z,Wed Mar 25 2026 11:39:53 GMT-0500 (Central Daylight Time),714639.7999999523,178_m_m_n_a.png,I,z,1302,18,1,2329.0,712310.7999999523,8103,NNB,B,16
0,test,5,1.0,2-Back,,,Wed Mar 25 2026 11:39:53 GMT-0500 (Central Daylight Time),714639.7999999523,153_y_m_n_a.png,I,space,1394,1,1,2329.0,712310.7999999523,8103,NNB,B,0
0,test,5,1.0,2-Back,,,Wed Mar 25 2026 11:39:53 GMT-0500 (Central Daylight Time),714639.7999999523,097_m_f_n_a.png,I,space,1394,2,1,2329.0,712310.7999999523,8103,NNB,B,0
1,test,5,1.0,2-Back,1.0,z,Wed Mar 25 2026 11:39:53 GMT-0500 (Central Daylight Time),723037.2999999523,153_y_m_n_a.png,I,z,929,3,1,1946.7999999523163,721090.5,8103,NNB,B,1
2,test,5,1.0,2-Back,1.0,z,Wed Mar 25 2026 11:39:53 GMT-0500 (Central Daylight Time),724803.399999857,097_m_f_n_a.png,I,z,740,4,1,1762.1999998092651,723041.2000000477,8103,NNB,B,2
3,test,5,0.0,2-Back,1.0,m,Wed Mar 25 2026 11:39:53 GMT-0500 (Central Daylight Time),727019.2999999523,086_o_f_n_a.png,I,m,1189,5,1,2213.5,724805.7999999523,8103,NNB,B,3
4,test,5,0.0,2-Back,1.0,m,Wed Mar 25 2026 11:39:53 GMT-0500 (Central Daylight Time),729801.7999999523,153_y_m_n_a.png,I,m,1750,6,1,2775.9000000953674,727025.899999857,8103,NNB,B,4
5,test,5,0.0,2-Back,1.0,m,Wed Mar 25 2026 11:39:53 GMT-0500 (Central Daylight Time),732034.5,173_y_f_n_a.png,I,m,1206,7,1,2230.2000000476837,729804.2999999523,8103,NNB,B,5
5,test,5,0.0,2-Back,0.0,m,Wed Mar 25 2026 11:39:53 GMT-0500 (Central Daylight Time),733934.0999999046,086_o_f_n_a.png,I,z,870,8,1,1895.3999998569489,732038.7000000477,8103,NNB,B,6
5,test,5,1.0,2-Back,0.0,z,Wed Mar 25 2026 11:39:53 GMT-0500 (Central Daylight Time),736616.5999999046,173_y_f_n_a.png,I,m,1650,9,1,2680.0999999046326,733936.5,8103,NNB,B,7
6,test,5,0.0,2-Back,1.0,m,Wed Mar 25 2026 11:39:53 GMT-0500 (Central Daylight Time),738765.899999857,065_o_m_n_a.png,I,m,1129,10,1,2145.699999809265,736620.2000000477,8103,NNB,B,8
7,test,5,0.0,2-Back,1.0,m,Wed Mar 25 2026 11:39:53 GMT-0500 (Central Daylight Time),740865.2999999523,029_m_f_n_a.png,I,m,1066,11,1,2097.0999999046326,738768.2000000477,8103,NNB,B,9
8,test,5,0.0,2-Back,1.0,m,Wed Mar 25 2026 11:39:53 GMT-0500 (Central Daylight Time),742864.399999857,126_m_m_n_a.png,I,m,967,12,1,1995.0,740869.399999857,8103,NNB,B,10
9,test,5,0.0,2-Back,1.0,m,Wed Mar 25 2026 11:39:53 GMT-0500 (Central Daylight Time),745155.0999999046,065_o_m_n_a.png,I,m,1274,13,1,2288.2000000476837,742866.899999857,8103,NNB,B,11
10,test,5,1.0,2-Back,1.0,z,Wed Mar 25 2026 11:39:53 GMT-0500 (Central Daylight Time),747130.0999999046,126_m_m_n_a.png,I,z,958,14,1,1968.5999999046326,745161.5,8103,NNB,B,12
11,test,5,0.0,2-Back,1.0,m,Wed Mar 25 2026 11:39:53 GMT-0500 (Central Daylight Time),749329.2000000477,152_y_f_n_a.png,I,m,1166,15,1,2196.7000000476837,747132.5,8103,NNB,B,13
12,test,5,0.0,2-Back,1.0,m,Wed Mar 25 2026 11:39:53 GMT-0500 (Central Daylight Time),751228.7000000477,176_o_m_n_a.png,I,m,880,16,1,1894.8000001907349,749333.899999857,8103,NNB,B,14
13,test,5,0.0,2-Back,1.0,m,Wed Mar 25 2026 11:39:53 GMT-0500 (Central Daylight Time),753677.7999999523,029_m_f_n_a.png,I,m,1429,17,1,2446.5999999046326,751231.2000000477,8103,NNB,B,15
14,test,5,1.0,2-Back,1.0,z,Wed Mar 25 2026 11:39:53 GMT-0500 (Central Daylight Time),755310.7000000477,176_o_m_n_a.png,I,z,611,18,1,1628.5,753682.2000000477,8103,NNB,B,16
