acc_sum,block,block_c,block_cond,con_img,correct,correct_response,datetime,endtime,face,jitter,line,project,response,response_time,row_sel,session_number,start_end,starttime,subject_id,task,task_vers,trial
1,prac,1,A,haborder.png,1,m,Fri Jul 18 2025 14:19:44 GMT-0500 (Central Daylight Time),40255.200000047684,CFD-WM-004-005-HC.jpg,1400,solid,I,m,1102,7,2,3299.8000000715256,36955.39999997616,8038,ATS,A,1
2,prac,1,A,haborder.png,1,z,Fri Jul 18 2025 14:19:44 GMT-0500 (Central Daylight Time),42739.5,CFD-BF-039-039-A.jpg,1200,solid,I,z,501,6,2,5784.100000023842,36955.39999997616,8038,ATS,A,2
3,prac,1,A,haborder.png,1,m,Fri Jul 18 2025 14:19:44 GMT-0500 (Central Daylight Time),45838.200000047684,CFD-WM-006-013-HC.jpg,1700,solid,I,m,618,9,2,8882.800000071526,36955.39999997616,8038,ATS,A,3
4,prac,1,A,haborder.png,1,z,Fri Jul 18 2025 14:19:44 GMT-0500 (Central Daylight Time),48236.300000071526,CFD-WF-019-015-A.jpg,1000,solid,I,z,599,12,2,11280.900000095367,36955.39999997616,8038,ATS,A,4
5,prac,1,A,haborder.png,1,z,Fri Jul 18 2025 14:19:44 GMT-0500 (Central Daylight Time),51318.5,CFD-BM-005-010-A.jpg,1600,solid,I,z,686,2,2,14363.100000023842,36955.39999997616,8038,ATS,A,5
6,prac,1,A,haborder.png,1,m,Fri Jul 18 2025 14:19:44 GMT-0500 (Central Daylight Time),54502.200000047684,CFD-BM-029-026-HC.jpg,1500,solid,I,m,904,3,2,17546.800000071526,36955.39999997616,8038,ATS,A,6
7,prac,1,A,haborder.png,1,z,Fri Jul 18 2025 14:19:44 GMT-0500 (Central Daylight Time),57965.60000002384,CFD-WM-013-015-A.jpg,1900,solid,I,z,780,8,2,21010.200000047684,36955.39999997616,8038,ATS,A,7
8,prac,1,A,haborder.png,1,m,Fri Jul 18 2025 14:19:44 GMT-0500 (Central Daylight Time),61432.800000071526,CFD-BF-028-020-HC.jpg,2000,solid,I,m,678,5,2,24477.400000095367,36955.39999997616,8038,ATS,A,8
9,prac,1,A,haborder.png,1,z,Fri Jul 18 2025 14:19:44 GMT-0500 (Central Daylight Time),63814.10000002384,CFD-BF-023-013-A.jpg,1000,solid,I,z,588,4,2,26858.700000047684,36955.39999997616,8038,ATS,A,9
10,prac,1,A,haborder.png,1,m,Fri Jul 18 2025 14:19:44 GMT-0500 (Central Daylight Time),66878.70000004768,CFD-BM-017-052-HC.jpg,1700,solid,I,m,580,1,2,29923.300000071526,36955.39999997616,8038,ATS,A,10
11,prac,1,A,haborder.png,1,m,Fri Jul 18 2025 14:19:44 GMT-0500 (Central Daylight Time),69780.10000002384,CFD-WF-017-016-HC.jpg,1500,solid,I,m,609,11,2,32824.700000047684,36955.39999997616,8038,ATS,A,11
12,prac,1,A,haborder.png,1,z,Fri Jul 18 2025 14:19:44 GMT-0500 (Central Daylight Time),72896.10000002384,CFD-WF-003-014-A.jpg,1600,solid,I,z,728,10,2,35940.700000047684,36955.39999997616,8038,ATS,A,12
1,prac,1,B,mfborder.png,1,m,Fri Jul 18 2025 14:19:44 GMT-0500 (Central Daylight Time),92272.70000004768,CFD-BM-005-010-A.jpg,2000,dash,I,m,842,5,2,3633.600000023842,88639.10000002384,8038,ATS,A,1
2,prac,1,B,mfborder.png,1,z,Fri Jul 18 2025 14:19:44 GMT-0500 (Central Daylight Time),94838.80000007153,CFD-WF-017-016-HC.jpg,1000,dash,I,z,795,12,2,6199.700000047684,88639.10000002384,8038,ATS,A,2
3,prac,1,B,mfborder.png,1,m,Fri Jul 18 2025 14:19:44 GMT-0500 (Central Daylight Time),97972.0,CFD-BM-010-019-A.jpg,1600,dash,I,m,733,2,2,9332.899999976158,88639.10000002384,8038,ATS,A,3
4,prac,1,B,mfborder.png,1,z,Fri Jul 18 2025 14:19:44 GMT-0500 (Central Daylight Time),100553.60000002384,CFD-BF-023-013-A.jpg,1000,dash,I,z,768,4,2,11914.5,88639.10000002384,8038,ATS,A,4
5,prac,1,B,mfborder.png,1,z,Fri Jul 18 2025 14:19:44 GMT-0500 (Central Daylight Time),103286.39999997616,CFD-BF-028-020-HC.jpg,1400,dash,I,z,554,7,2,14647.299999952316,88639.10000002384,8038,ATS,A,5
6,prac,1,B,mfborder.png,1,z,Fri Jul 18 2025 14:19:44 GMT-0500 (Central Daylight Time),106518.0,CFD-WF-002-008-HC.jpg,1900,dash,I,z,534,8,2,17878.899999976158,88639.10000002384,8038,ATS,A,6
7,prac,1,B,mfborder.png,1,z,Fri Jul 18 2025 14:19:44 GMT-0500 (Central Daylight Time),109317.70000004768,CFD-BF-010-005-HC.jpg,1500,dash,I,z,506,3,2,20678.600000023842,88639.10000002384,8038,ATS,A,7
8,prac,1,B,mfborder.png,1,m,Fri Jul 18 2025 14:19:44 GMT-0500 (Central Daylight Time),111766.20000004768,CFD-WM-019-013-A.jpg,1200,dash,I,m,465,6,2,23127.100000023842,88639.10000002384,8038,ATS,A,8
9,prac,1,B,mfborder.png,1,z,Fri Jul 18 2025 14:19:44 GMT-0500 (Central Daylight Time),114934.39999997616,CFD-WF-003-014-A.jpg,1500,dash,I,z,856,11,2,26295.299999952316,88639.10000002384,8038,ATS,A,9
10,prac,1,B,mfborder.png,1,m,Fri Jul 18 2025 14:19:44 GMT-0500 (Central Daylight Time),118311.5,CFD-BM-029-026-HC.jpg,1700,dash,I,m,883,1,2,29672.399999976158,88639.10000002384,8038,ATS,A,10
11,prac,1,B,mfborder.png,1,m,Fri Jul 18 2025 14:19:44 GMT-0500 (Central Daylight Time),121346.0,CFD-WM-013-015-A.jpg,1700,dash,I,m,542,9,2,32706.899999976158,88639.10000002384,8038,ATS,A,11
12,prac,1,B,mfborder.png,1,m,Fri Jul 18 2025 14:19:44 GMT-0500 (Central Daylight Time),124245.20000004768,CFD-WM-006-013-HC.jpg,1600,dash,I,m,517,10,2,35606.10000002384,88639.10000002384,8038,ATS,A,12
1,test,1,A,haborder.png,1,z,Fri Jul 18 2025 14:19:44 GMT-0500 (Central Daylight Time),140140.30000007153,CFD-BM-005-010-A.jpg,1600,solid,I,z,577,2,2,2216.9000000953674,137923.39999997616,8038,ATS,A,1
2,test,1,A,haborder.png,1,m,Fri Jul 18 2025 14:19:44 GMT-0500 (Central Daylight Time),142255.89999997616,CFD-BM-029-026-HC.jpg,1500,solid,I,m,595,3,2,4332.5,137923.39999997616,8038,ATS,A,2
3,test,1,A,haborder.png,1,m,Fri Jul 18 2025 14:19:44 GMT-0500 (Central Daylight Time),144372.20000004768,CFD-WF-017-016-HC.jpg,1500,solid,I,m,584,11,2,6448.800000071526,137923.39999997616,8038,ATS,A,3
4,test,1,A,haborder.png,1,z,Fri Jul 18 2025 14:19:44 GMT-0500 (Central Daylight Time),146021.5,CFD-BF-023-013-A.jpg,1000,solid,I,z,623,4,2,8098.100000023842,137923.39999997616,8038,ATS,A,4
5,test,1,A,haborder.png,1,m,Fri Jul 18 2025 14:19:44 GMT-0500 (Central Daylight Time),148288.89999997616,CFD-WM-006-013-HC.jpg,1700,solid,I,m,549,9,2,10365.5,137923.39999997616,8038,ATS,A,5
6,test,1,A,haborder.png,1,z,Fri Jul 18 2025 14:19:44 GMT-0500 (Central Daylight Time),150736.70000004768,CFD-WM-013-015-A.jpg,1900,solid,I,z,519,8,2,12813.300000071526,137923.39999997616,8038,ATS,A,6
7,test,1,A,haborder.png,1,m,Fri Jul 18 2025 14:19:44 GMT-0500 (Central Daylight Time),152819.80000007153,CFD-WF-017-016-HC.jpg,1500,solid,I,m,558,11,2,14896.400000095367,137923.39999997616,8038,ATS,A,7
8,test,1,A,haborder.png,1,m,Fri Jul 18 2025 14:19:44 GMT-0500 (Central Daylight Time),154818.30000007153,CFD-WM-004-005-HC.jpg,1400,solid,I,m,574,7,2,16894.900000095367,137923.39999997616,8038,ATS,A,8
9,test,1,A,haborder.png,1,z,Fri Jul 18 2025 14:19:44 GMT-0500 (Central Daylight Time),156617.89999997616,CFD-BF-039-039-A.jpg,1200,solid,I,z,567,6,2,18694.5,137923.39999997616,8038,ATS,A,9
10,test,1,A,haborder.png,1,z,Fri Jul 18 2025 14:19:44 GMT-0500 (Central Daylight Time),158349.70000004768,CFD-BF-039-039-A.jpg,1200,solid,I,z,505,6,2,20426.300000071526,137923.39999997616,8038,ATS,A,10
11,test,1,A,haborder.png,1,m,Fri Jul 18 2025 14:19:44 GMT-0500 (Central Daylight Time),161065.70000004768,CFD-BF-028-020-HC.jpg,2000,solid,I,m,692,5,2,23142.300000071526,137923.39999997616,8038,ATS,A,11
12,test,1,A,haborder.png,1,z,Fri Jul 18 2025 14:19:44 GMT-0500 (Central Daylight Time),163431.5,CFD-WF-003-014-A.jpg,1600,solid,I,z,744,10,2,25508.100000023842,137923.39999997616,8038,ATS,A,12
13,test,1,A,haborder.png,1,z,Fri Jul 18 2025 14:19:44 GMT-0500 (Central Daylight Time),165649.30000007153,CFD-BM-005-010-A.jpg,1600,solid,I,z,587,2,2,27725.900000095367,137923.39999997616,8038,ATS,A,13
14,test,1,A,haborder.png,1,m,Fri Jul 18 2025 14:19:44 GMT-0500 (Central Daylight Time),167997.10000002384,CFD-BM-017-052-HC.jpg,1700,solid,I,m,622,1,2,30073.700000047684,137923.39999997616,8038,ATS,A,14
15,test,1,A,haborder.png,1,z,Fri Jul 18 2025 14:19:44 GMT-0500 (Central Daylight Time),169637.20000004768,CFD-BF-023-013-A.jpg,1000,solid,I,z,616,4,2,31713.800000071526,137923.39999997616,8038,ATS,A,15
16,test,1,A,haborder.png,1,m,Fri Jul 18 2025 14:19:44 GMT-0500 (Central Daylight Time),172330.20000004768,CFD-BF-028-020-HC.jpg,2000,solid,I,m,668,5,2,34406.800000071526,137923.39999997616,8038,ATS,A,16
17,test,1,A,haborder.png,1,z,Fri Jul 18 2025 14:19:44 GMT-0500 (Central Daylight Time),174012.0,CFD-WF-019-015-A.jpg,1000,solid,I,z,650,12,2,36088.60000002384,137923.39999997616,8038,ATS,A,17
18,test,1,A,haborder.png,1,m,Fri Jul 18 2025 14:19:44 GMT-0500 (Central Daylight Time),176012.0,CFD-WM-004-005-HC.jpg,1400,solid,I,m,566,7,2,38088.60000002384,137923.39999997616,8038,ATS,A,18
19,test,1,A,haborder.png,1,z,Fri Jul 18 2025 14:19:44 GMT-0500 (Central Daylight Time),178628.60000002384,CFD-WM-013-015-A.jpg,1900,solid,I,z,693,8,2,40705.200000047684,137923.39999997616,8038,ATS,A,19
20,test,1,A,haborder.png,1,z,Fri Jul 18 2025 14:19:44 GMT-0500 (Central Daylight Time),180294.10000002384,CFD-WF-019-015-A.jpg,1000,solid,I,z,631,12,2,42370.700000047684,137923.39999997616,8038,ATS,A,20
21,test,1,A,haborder.png,1,m,Fri Jul 18 2025 14:19:44 GMT-0500 (Central Daylight Time),182542.60000002384,CFD-BM-029-026-HC.jpg,1500,solid,I,m,721,3,2,44619.200000047684,137923.39999997616,8038,ATS,A,21
22,test,1,A,haborder.png,1,m,Fri Jul 18 2025 14:19:44 GMT-0500 (Central Daylight Time),184842.20000004768,CFD-BM-017-052-HC.jpg,1700,solid,I,m,566,1,2,46918.800000071526,137923.39999997616,8038,ATS,A,22
23,test,1,A,haborder.png,1,z,Fri Jul 18 2025 14:19:44 GMT-0500 (Central Daylight Time),187022.80000007153,CFD-WF-003-014-A.jpg,1600,solid,I,z,553,10,2,49099.40000009537,137923.39999997616,8038,ATS,A,23
24,test,1,A,haborder.png,1,m,Fri Jul 18 2025 14:19:44 GMT-0500 (Central Daylight Time),189459.0,CFD-WM-006-013-HC.jpg,1700,solid,I,m,701,9,2,51535.60000002384,137923.39999997616,8038,ATS,A,24
1,test,1,B,mfborder.png,1,z,Fri Jul 18 2025 14:19:44 GMT-0500 (Central Daylight Time),199970.10000002384,CFD-BF-028-020-HC.jpg,1400,dash,I,z,736,7,2,2164.5,197805.60000002384,8038,ATS,A,1
2,test,1,B,mfborder.png,1,m,Fri Jul 18 2025 14:19:44 GMT-0500 (Central Daylight Time),202286.70000004768,CFD-WM-013-015-A.jpg,1700,dash,I,m,598,9,2,4481.100000023842,197805.60000002384,8038,ATS,A,2
2,test,1,B,mfborder.png,0,z,Fri Jul 18 2025 14:19:44 GMT-0500 (Central Daylight Time),204169.20000004768,CFD-BF-023-013-A.jpg,1000,dash,I,m,851,4,2,6363.600000023842,197805.60000002384,8038,ATS,A,3
3,test,1,B,mfborder.png,1,m,Fri Jul 18 2025 14:19:44 GMT-0500 (Central Daylight Time),207034.89999997616,CFD-BM-005-010-A.jpg,2000,dash,I,m,828,5,2,9229.299999952316,197805.60000002384,8038,ATS,A,4
4,test,1,B,mfborder.png,1,z,Fri Jul 18 2025 14:19:44 GMT-0500 (Central Daylight Time),209088.39999997616,CFD-WF-003-014-A.jpg,1500,dash,I,z,522,11,2,11282.799999952316,197805.60000002384,8038,ATS,A,5
5,test,1,B,mfborder.png,1,z,Fri Jul 18 2025 14:19:44 GMT-0500 (Central Daylight Time),211068.5,CFD-WF-003-014-A.jpg,1500,dash,I,z,443,11,2,13262.899999976158,197805.60000002384,8038,ATS,A,6
6,test,1,B,mfborder.png,1,z,Fri Jul 18 2025 14:19:44 GMT-0500 (Central Daylight Time),212683.80000007153,CFD-WF-017-016-HC.jpg,1000,dash,I,z,592,12,2,14878.200000047684,197805.60000002384,8038,ATS,A,7
7,test,1,B,mfborder.png,1,z,Fri Jul 18 2025 14:19:44 GMT-0500 (Central Daylight Time),214198.80000007153,CFD-WF-017-016-HC.jpg,1000,dash,I,z,495,12,2,16393.200000047684,197805.60000002384,8038,ATS,A,8
8,test,1,B,mfborder.png,1,m,Fri Jul 18 2025 14:19:44 GMT-0500 (Central Daylight Time),216448.0,CFD-BM-010-019-A.jpg,1600,dash,I,m,626,2,2,18642.399999976158,197805.60000002384,8038,ATS,A,9
9,test,1,B,mfborder.png,1,z,Fri Jul 18 2025 14:19:44 GMT-0500 (Central Daylight Time),218831.30000007153,CFD-BF-010-005-HC.jpg,1500,dash,I,z,853,3,2,21025.700000047684,197805.60000002384,8038,ATS,A,10
10,test,1,B,mfborder.png,1,m,Fri Jul 18 2025 14:19:44 GMT-0500 (Central Daylight Time),221031.30000007153,CFD-WM-006-013-HC.jpg,1600,dash,I,m,573,10,2,23225.700000047684,197805.60000002384,8038,ATS,A,11
11,test,1,B,mfborder.png,1,m,Fri Jul 18 2025 14:19:44 GMT-0500 (Central Daylight Time),223613.39999997616,CFD-BM-005-010-A.jpg,2000,dash,I,m,556,5,2,25807.799999952316,197805.60000002384,8038,ATS,A,12
12,test,1,B,mfborder.png,1,m,Fri Jul 18 2025 14:19:44 GMT-0500 (Central Daylight Time),225713.10000002384,CFD-WM-019-013-A.jpg,1200,dash,I,m,878,6,2,27907.5,197805.60000002384,8038,ATS,A,13
13,test,1,B,mfborder.png,1,z,Fri Jul 18 2025 14:19:44 GMT-0500 (Central Daylight Time),228028.5,CFD-BF-028-020-HC.jpg,1400,dash,I,z,889,7,2,30222.899999976158,197805.60000002384,8038,ATS,A,14
14,test,1,B,mfborder.png,1,m,Fri Jul 18 2025 14:19:44 GMT-0500 (Central Daylight Time),230328.60000002384,CFD-WM-013-015-A.jpg,1700,dash,I,m,578,9,2,32523.0,197805.60000002384,8038,ATS,A,15
15,test,1,B,mfborder.png,1,z,Fri Jul 18 2025 14:19:44 GMT-0500 (Central Daylight Time),232260.0,CFD-BF-010-005-HC.jpg,1500,dash,I,z,406,3,2,34454.39999997616,197805.60000002384,8038,ATS,A,16
16,test,1,B,mfborder.png,1,m,Fri Jul 18 2025 14:19:44 GMT-0500 (Central Daylight Time),234575.10000002384,CFD-BM-029-026-HC.jpg,1700,dash,I,m,596,1,2,36769.5,197805.60000002384,8038,ATS,A,17
17,test,1,B,mfborder.png,1,m,Fri Jul 18 2025 14:19:44 GMT-0500 (Central Daylight Time),236807.0,CFD-WM-006-013-HC.jpg,1600,dash,I,m,603,10,2,39001.39999997616,197805.60000002384,8038,ATS,A,18
18,test,1,B,mfborder.png,1,m,Fri Jul 18 2025 14:19:44 GMT-0500 (Central Daylight Time),238559.10000002384,CFD-WM-019-013-A.jpg,1200,dash,I,m,518,6,2,40753.5,197805.60000002384,8038,ATS,A,19
19,test,1,B,mfborder.png,1,z,Fri Jul 18 2025 14:19:44 GMT-0500 (Central Daylight Time),241042.60000002384,CFD-WF-002-008-HC.jpg,1900,dash,I,z,550,8,2,43237.0,197805.60000002384,8038,ATS,A,20
20,test,1,B,mfborder.png,1,z,Fri Jul 18 2025 14:19:44 GMT-0500 (Central Daylight Time),243473.80000007153,CFD-WF-002-008-HC.jpg,1900,dash,I,z,510,8,2,45668.200000047684,197805.60000002384,8038,ATS,A,21
21,test,1,B,mfborder.png,1,m,Fri Jul 18 2025 14:19:44 GMT-0500 (Central Daylight Time),245921.80000007153,CFD-BM-029-026-HC.jpg,1700,dash,I,m,719,1,2,48116.200000047684,197805.60000002384,8038,ATS,A,22
22,test,1,B,mfborder.png,1,m,Fri Jul 18 2025 14:19:44 GMT-0500 (Central Daylight Time),248037.70000004768,CFD-BM-010-019-A.jpg,1600,dash,I,m,490,2,2,50232.10000002384,197805.60000002384,8038,ATS,A,23
23,test,1,B,mfborder.png,1,z,Fri Jul 18 2025 14:19:44 GMT-0500 (Central Daylight Time),249669.80000007153,CFD-BF-023-013-A.jpg,1000,dash,I,z,605,4,2,51864.200000047684,197805.60000002384,8038,ATS,A,24
1,prac,1,C,mfborder.png,1,z,Fri Jul 18 2025 14:19:44 GMT-0500 (Central Daylight Time),275666.2000000477,CFD-BF-028-020-HC.jpg,1000,dash,I,z,894,3,2,2685.100000023842,272981.10000002384,8038,ATS,A,1
2,prac,1,C,mfborder.png,1,z,Fri Jul 18 2025 14:19:44 GMT-0500 (Central Daylight Time),278813.10000002384,CFD-WF-019-015-A.jpg,1500,solid,I,z,856,2,2,5832.0,272981.10000002384,8038,ATS,A,2
3,prac,1,C,mfborder.png,1,z,Fri Jul 18 2025 14:19:44 GMT-0500 (Central Daylight Time),281993.89999997616,CFD-WF-017-016-HC.jpg,1600,dash,I,z,792,1,2,9012.799999952316,272981.10000002384,8038,ATS,A,3
4,prac,1,C,haborder.png,1,m,Fri Jul 18 2025 14:19:44 GMT-0500 (Central Daylight Time),285444.2000000477,CFD-BM-029-026-HC.jpg,1500,solid,I,m,1149,10,2,12463.100000023842,272981.10000002384,8038,ATS,A,4
5,prac,1,C,haborder.png,1,z,Fri Jul 18 2025 14:19:44 GMT-0500 (Central Daylight Time),288678.0,CFD-WF-003-014-A.jpg,1600,dash,I,z,816,9,2,15696.899999976158,272981.10000002384,8038,ATS,A,5
6,prac,1,C,haborder.png,1,m,Fri Jul 18 2025 14:19:44 GMT-0500 (Central Daylight Time),291490.60000002384,CFD-WM-004-005-HC.jpg,1400,solid,I,m,614,12,2,18509.5,272981.10000002384,8038,ATS,A,6
7,prac,1,C,haborder.png,1,z,Fri Jul 18 2025 14:19:44 GMT-0500 (Central Daylight Time),295175.2000000477,CFD-BF-023-013-A.jpg,1900,dash,I,z,988,7,2,22194.100000023842,272981.10000002384,8038,ATS,A,7
8,prac,1,C,haborder.png,1,z,Fri Jul 18 2025 14:19:44 GMT-0500 (Central Daylight Time),298391.5,CFD-BF-039-039-A.jpg,1700,solid,I,z,722,8,2,25410.399999976158,272981.10000002384,8038,ATS,A,8
9,prac,1,C,mfborder.png,1,m,Fri Jul 18 2025 14:19:44 GMT-0500 (Central Daylight Time),301306.7000000477,CFD-BM-005-010-A.jpg,1200,dash,I,m,925,5,2,28325.600000023842,272981.10000002384,8038,ATS,A,9
10,prac,1,C,mfborder.png,1,m,Fri Jul 18 2025 14:19:44 GMT-0500 (Central Daylight Time),304853.3000000715,CFD-BM-017-052-HC.jpg,2000,solid,I,m,751,4,2,31872.200000047684,272981.10000002384,8038,ATS,A,10
11,prac,1,C,haborder.png,1,m,Fri Jul 18 2025 14:19:44 GMT-0500 (Central Daylight Time),307369.39999997616,CFD-WM-004-005-HC.jpg,1000,dash,I,m,716,11,2,34388.299999952316,272981.10000002384,8038,ATS,A,11
12,prac,1,C,mfborder.png,1,m,Fri Jul 18 2025 14:19:44 GMT-0500 (Central Daylight Time),310703.5,CFD-WM-013-015-A.jpg,1700,solid,I,m,852,6,2,37722.39999997616,272981.10000002384,8038,ATS,A,12
1,test,1,C,mfborder.png,1,m,Fri Jul 18 2025 14:19:44 GMT-0500 (Central Daylight Time),319549.60000002384,CFD-WM-006-013-HC.jpg,1000,dash,I,m,894,4,2,1933.7000000476837,317615.89999997616,8038,ATS,A,1
2,test,1,C,mfborder.png,1,z,Fri Jul 18 2025 14:19:44 GMT-0500 (Central Daylight Time),322198.39999997616,CFD-WF-003-014-A.jpg,1500,dash,I,z,1110,3,2,4582.5,317615.89999997616,8038,ATS,A,2
3,test,1,C,mfborder.png,1,m,Fri Jul 18 2025 14:19:44 GMT-0500 (Central Daylight Time),325031.39999997616,CFD-WM-019-013-A.jpg,2000,dash,I,m,817,5,2,7415.5,317615.89999997616,8038,ATS,A,3
4,test,1,C,haborder.png,1,z,Fri Jul 18 2025 14:19:44 GMT-0500 (Central Daylight Time),327713.3000000715,CFD-BM-005-010-A.jpg,1900,solid,I,z,750,8,2,10097.400000095367,317615.89999997616,8038,ATS,A,4
5,test,1,C,mfborder.png,1,m,Fri Jul 18 2025 14:19:44 GMT-0500 (Central Daylight Time),329646.2000000477,CFD-BM-029-026-HC.jpg,1200,dash,I,m,700,6,2,12030.300000071526,317615.89999997616,8038,ATS,A,5
6,test,1,C,haborder.png,1,m,Fri Jul 18 2025 14:19:44 GMT-0500 (Central Daylight Time),332096.2000000477,CFD-BF-028-020-HC.jpg,1600,solid,I,m,833,10,2,14480.300000071526,317615.89999997616,8038,ATS,A,6
7,test,1,C,haborder.png,1,z,Fri Jul 18 2025 14:19:44 GMT-0500 (Central Daylight Time),334661.0,CFD-WM-013-015-A.jpg,1400,solid,I,z,1136,7,2,17045.100000023842,317615.89999997616,8038,ATS,A,7
8,test,1,C,mfborder.png,1,z,Fri Jul 18 2025 14:19:44 GMT-0500 (Central Daylight Time),337493.5,CFD-BF-023-013-A.jpg,1600,dash,I,z,1206,2,2,19877.600000023842,317615.89999997616,8038,ATS,A,8
8,test,1,C,haborder.png,0,z,Fri Jul 18 2025 14:19:44 GMT-0500 (Central Daylight Time),339859.2000000477,CFD-WM-013-015-A.jpg,1400,solid,I,m,933,7,2,22243.300000071526,317615.89999997616,8038,ATS,A,9
9,test,1,C,haborder.png,1,m,Fri Jul 18 2025 14:19:44 GMT-0500 (Central Daylight Time),342259.10000002384,CFD-BF-028-020-HC.jpg,1600,solid,I,m,767,10,2,24643.200000047684,317615.89999997616,8038,ATS,A,10
10,test,1,C,haborder.png,1,m,Fri Jul 18 2025 14:19:44 GMT-0500 (Central Daylight Time),344013.0,CFD-WF-017-016-HC.jpg,1000,solid,I,m,720,12,2,26397.100000023842,317615.89999997616,8038,ATS,A,11
11,test,1,C,mfborder.png,1,z,Fri Jul 18 2025 14:19:44 GMT-0500 (Central Daylight Time),346274.60000002384,CFD-WF-003-014-A.jpg,1500,dash,I,z,735,3,2,28658.700000047684,317615.89999997616,8038,ATS,A,12
12,test,1,C,haborder.png,1,m,Fri Jul 18 2025 14:19:44 GMT-0500 (Central Daylight Time),348656.10000002384,CFD-WF-002-008-HC.jpg,1500,solid,I,m,860,11,2,31040.200000047684,317615.89999997616,8038,ATS,A,13
12,test,1,C,mfborder.png,0,m,Fri Jul 18 2025 14:19:44 GMT-0500 (Central Daylight Time),351038.89999997616,CFD-BM-029-026-HC.jpg,1200,dash,I,z,1152,6,2,33423.0,317615.89999997616,8038,ATS,A,14
13,test,1,C,mfborder.png,1,m,Fri Jul 18 2025 14:19:44 GMT-0500 (Central Daylight Time),352738.89999997616,CFD-WM-006-013-HC.jpg,1000,dash,I,m,677,4,2,35123.0,317615.89999997616,8038,ATS,A,15
14,test,1,C,haborder.png,1,m,Fri Jul 18 2025 14:19:44 GMT-0500 (Central Daylight Time),354971.3000000715,CFD-WF-002-008-HC.jpg,1500,solid,I,m,701,11,2,37355.40000009537,317615.89999997616,8038,ATS,A,16
15,test,1,C,mfborder.png,1,m,Fri Jul 18 2025 14:19:44 GMT-0500 (Central Daylight Time),357589.3000000715,CFD-WM-019-013-A.jpg,2000,dash,I,m,584,5,2,39973.40000009537,317615.89999997616,8038,ATS,A,17
16,test,1,C,mfborder.png,1,z,Fri Jul 18 2025 14:19:44 GMT-0500 (Central Daylight Time),359906.5,CFD-BF-023-013-A.jpg,1600,dash,I,z,686,2,2,42290.60000002384,317615.89999997616,8038,ATS,A,18
17,test,1,C,haborder.png,1,z,Fri Jul 18 2025 14:19:44 GMT-0500 (Central Daylight Time),363085.3000000715,CFD-BM-010-019-A.jpg,1700,solid,I,z,1439,9,2,45469.40000009537,317615.89999997616,8038,ATS,A,19
18,test,1,C,haborder.png,1,z,Fri Jul 18 2025 14:19:44 GMT-0500 (Central Daylight Time),365717.10000002384,CFD-BM-005-010-A.jpg,1900,solid,I,z,706,8,2,48101.200000047684,317615.89999997616,8038,ATS,A,20
19,test,1,C,haborder.png,1,z,Fri Jul 18 2025 14:19:44 GMT-0500 (Central Daylight Time),368149.10000002384,CFD-BM-010-019-A.jpg,1700,solid,I,z,715,9,2,50533.200000047684,317615.89999997616,8038,ATS,A,21
20,test,1,C,mfborder.png,1,z,Fri Jul 18 2025 14:19:44 GMT-0500 (Central Daylight Time),370684.60000002384,CFD-BF-010-005-HC.jpg,1700,dash,I,z,809,1,2,53068.700000047684,317615.89999997616,8038,ATS,A,22
21,test,1,C,mfborder.png,1,z,Fri Jul 18 2025 14:19:44 GMT-0500 (Central Daylight Time),373049.8000000715,CFD-BF-010-005-HC.jpg,1700,dash,I,z,634,1,2,55433.90000009537,317615.89999997616,8038,ATS,A,23
22,test,1,C,haborder.png,1,m,Fri Jul 18 2025 14:19:44 GMT-0500 (Central Daylight Time),374832.89999997616,CFD-WF-017-016-HC.jpg,1000,solid,I,m,755,12,2,57217.0,317615.89999997616,8038,ATS,A,24
1,test,2,C,haborder.png,1,m,Fri Jul 18 2025 14:19:44 GMT-0500 (Central Daylight Time),378249.2000000477,CFD-WM-004-005-HC.jpg,1000,solid,I,m,748,12,2,1784.0,376465.2000000477,8038,ATS,A,1
2,test,2,C,haborder.png,1,z,Fri Jul 18 2025 14:19:44 GMT-0500 (Central Daylight Time),381112.60000002384,CFD-BF-039-039-A.jpg,1900,solid,I,z,944,8,2,4647.399999976158,376465.2000000477,8038,ATS,A,2
2,test,2,C,mfborder.png,0,m,Fri Jul 18 2025 14:19:44 GMT-0500 (Central Daylight Time),383295.7000000477,CFD-WM-013-015-A.jpg,1200,dash,I,z,954,6,2,6830.5,376465.2000000477,8038,ATS,A,3
3,test,2,C,mfborder.png,1,z,Fri Jul 18 2025 14:19:44 GMT-0500 (Central Daylight Time),385962.10000002384,CFD-WF-017-016-HC.jpg,1700,dash,I,z,935,1,2,9496.899999976158,376465.2000000477,8038,ATS,A,4
4,test,2,C,mfborder.png,1,z,Fri Jul 18 2025 14:19:44 GMT-0500 (Central Daylight Time),388395.8000000715,CFD-BF-028-020-HC.jpg,1500,dash,I,z,901,3,2,11930.600000023842,376465.2000000477,8038,ATS,A,5
5,test,2,C,haborder.png,1,m,Fri Jul 18 2025 14:19:44 GMT-0500 (Central Daylight Time),390710.5,CFD-BM-029-026-HC.jpg,1600,solid,I,m,684,10,2,14245.299999952316,376465.2000000477,8038,ATS,A,6
6,test,2,C,haborder.png,1,z,Fri Jul 18 2025 14:19:44 GMT-0500 (Central Daylight Time),392975.3000000715,CFD-BF-023-013-A.jpg,1400,solid,I,z,843,7,2,16510.100000023842,376465.2000000477,8038,ATS,A,7
7,test,2,C,haborder.png,1,m,Fri Jul 18 2025 14:19:44 GMT-0500 (Central Daylight Time),394709.2000000477,CFD-WM-004-005-HC.jpg,1000,solid,I,m,707,12,2,18244.0,376465.2000000477,8038,ATS,A,8
8,test,2,C,haborder.png,1,z,Fri Jul 18 2025 14:19:44 GMT-0500 (Central Daylight Time),397444.39999997616,CFD-BF-039-039-A.jpg,1900,solid,I,z,804,8,2,20979.199999928474,376465.2000000477,8038,ATS,A,9
9,test,2,C,haborder.png,1,m,Fri Jul 18 2025 14:19:44 GMT-0500 (Central Daylight Time),399623.5,CFD-WM-004-005-HC.jpg,1500,solid,I,m,655,11,2,23158.299999952316,376465.2000000477,8038,ATS,A,10
10,test,2,C,mfborder.png,1,m,Fri Jul 18 2025 14:19:44 GMT-0500 (Central Daylight Time),401889.60000002384,CFD-BM-017-052-HC.jpg,1000,dash,I,m,1235,4,2,25424.399999976158,376465.2000000477,8038,ATS,A,11
11,test,2,C,haborder.png,1,m,Fri Jul 18 2025 14:19:44 GMT-0500 (Central Daylight Time),404222.60000002384,CFD-WM-004-005-HC.jpg,1500,solid,I,m,799,11,2,27757.399999976158,376465.2000000477,8038,ATS,A,12
12,test,2,C,mfborder.png,1,m,Fri Jul 18 2025 14:19:44 GMT-0500 (Central Daylight Time),407086.7000000477,CFD-BM-005-010-A.jpg,2000,dash,I,m,835,5,2,30621.5,376465.2000000477,8038,ATS,A,13
13,test,2,C,mfborder.png,1,m,Fri Jul 18 2025 14:19:44 GMT-0500 (Central Daylight Time),408872.0,CFD-WM-013-015-A.jpg,1200,dash,I,m,560,6,2,32406.799999952316,376465.2000000477,8038,ATS,A,14
14,test,2,C,mfborder.png,1,z,Fri Jul 18 2025 14:19:44 GMT-0500 (Central Daylight Time),411103.60000002384,CFD-WF-019-015-A.jpg,1600,dash,I,z,615,2,2,34638.39999997616,376465.2000000477,8038,ATS,A,15
15,test,2,C,haborder.png,1,z,Fri Jul 18 2025 14:19:44 GMT-0500 (Central Daylight Time),413353.0,CFD-BF-023-013-A.jpg,1400,solid,I,z,820,7,2,36887.799999952316,376465.2000000477,8038,ATS,A,16
16,test,2,C,mfborder.png,1,z,Fri Jul 18 2025 14:19:44 GMT-0500 (Central Daylight Time),416168.2000000477,CFD-WF-017-016-HC.jpg,1700,dash,I,z,1086,1,2,39703.0,376465.2000000477,8038,ATS,A,17
17,test,2,C,haborder.png,1,z,Fri Jul 18 2025 14:19:44 GMT-0500 (Central Daylight Time),418767.39999997616,CFD-WF-003-014-A.jpg,1700,solid,I,z,877,9,2,42302.199999928474,376465.2000000477,8038,ATS,A,18
18,test,2,C,mfborder.png,1,m,Fri Jul 18 2025 14:19:44 GMT-0500 (Central Daylight Time),421317.3000000715,CFD-BM-005-010-A.jpg,2000,dash,I,m,510,5,2,44852.10000002384,376465.2000000477,8038,ATS,A,19
19,test,2,C,haborder.png,1,m,Fri Jul 18 2025 14:19:44 GMT-0500 (Central Daylight Time),423750.2000000477,CFD-BM-029-026-HC.jpg,1600,solid,I,m,800,10,2,47285.0,376465.2000000477,8038,ATS,A,20
20,test,2,C,mfborder.png,1,m,Fri Jul 18 2025 14:19:44 GMT-0500 (Central Daylight Time),425614.3000000715,CFD-BM-017-052-HC.jpg,1000,dash,I,m,843,4,2,49149.10000002384,376465.2000000477,8038,ATS,A,21
21,test,2,C,haborder.png,1,z,Fri Jul 18 2025 14:19:44 GMT-0500 (Central Daylight Time),428196.60000002384,CFD-WF-003-014-A.jpg,1700,solid,I,z,857,9,2,51731.39999997616,376465.2000000477,8038,ATS,A,22
22,test,2,C,mfborder.png,1,z,Fri Jul 18 2025 14:19:44 GMT-0500 (Central Daylight Time),430547.60000002384,CFD-WF-019-015-A.jpg,1600,dash,I,z,717,2,2,54082.39999997616,376465.2000000477,8038,ATS,A,23
23,test,2,C,mfborder.png,1,z,Fri Jul 18 2025 14:19:44 GMT-0500 (Central Daylight Time),432695.8000000715,CFD-BF-028-020-HC.jpg,1500,dash,I,z,628,3,2,56230.60000002384,376465.2000000477,8038,ATS,A,24
1,test,3,C,haborder.png,1,m,Fri Jul 18 2025 14:19:44 GMT-0500 (Central Daylight Time),436045.7000000477,CFD-WF-017-016-HC.jpg,1000,solid,I,m,690,12,2,1716.2000000476837,434329.5,8038,ATS,A,1
2,test,3,C,haborder.png,1,z,Fri Jul 18 2025 14:19:44 GMT-0500 (Central Daylight Time),438177.89999997616,CFD-WM-013-015-A.jpg,1400,solid,I,z,709,7,2,3848.399999976158,434329.5,8038,ATS,A,2
3,test,3,C,haborder.png,1,m,Fri Jul 18 2025 14:19:44 GMT-0500 (Central Daylight Time),440460.7000000477,CFD-WF-002-008-HC.jpg,1500,solid,I,m,757,11,2,6131.200000047684,434329.5,8038,ATS,A,3
4,test,3,C,haborder.png,1,z,Fri Jul 18 2025 14:19:44 GMT-0500 (Central Daylight Time),442527.7000000477,CFD-WM-013-015-A.jpg,1400,solid,I,z,648,7,2,8198.200000047684,434329.5,8038,ATS,A,4
5,test,3,C,mfborder.png,1,z,Fri Jul 18 2025 14:19:44 GMT-0500 (Central Daylight Time),444750.3000000715,CFD-BF-023-013-A.jpg,1600,dash,I,z,589,2,2,10420.800000071526,434329.5,8038,ATS,A,5
6,test,3,C,haborder.png,1,z,Fri Jul 18 2025 14:19:44 GMT-0500 (Central Daylight Time),447509.60000002384,CFD-BM-005-010-A.jpg,1900,solid,I,z,834,8,2,13180.100000023842,434329.5,8038,ATS,A,6
7,test,3,C,haborder.png,1,z,Fri Jul 18 2025 14:19:44 GMT-0500 (Central Daylight Time),450089.0,CFD-BM-010-019-A.jpg,1700,solid,I,z,857,9,2,15759.5,434329.5,8038,ATS,A,7
8,test,3,C,haborder.png,1,m,Fri Jul 18 2025 14:19:44 GMT-0500 (Central Daylight Time),452306.89999997616,CFD-WF-002-008-HC.jpg,1500,solid,I,m,684,11,2,17977.399999976158,434329.5,8038,ATS,A,8
9,test,3,C,haborder.png,1,z,Fri Jul 18 2025 14:19:44 GMT-0500 (Central Daylight Time),454839.60000002384,CFD-BM-010-019-A.jpg,1700,solid,I,z,808,9,2,20510.100000023842,434329.5,8038,ATS,A,9
10,test,3,C,haborder.png,1,m,Fri Jul 18 2025 14:19:44 GMT-0500 (Central Daylight Time),457622.60000002384,CFD-BF-028-020-HC.jpg,1600,solid,I,m,1157,10,2,23293.100000023842,434329.5,8038,ATS,A,10
11,test,3,C,mfborder.png,1,z,Fri Jul 18 2025 14:19:44 GMT-0500 (Central Daylight Time),460072.2000000477,CFD-WF-003-014-A.jpg,1500,dash,I,z,913,3,2,25742.700000047684,434329.5,8038,ATS,A,11
12,test,3,C,mfborder.png,1,z,Fri Jul 18 2025 14:19:44 GMT-0500 (Central Daylight Time),462470.8000000715,CFD-BF-010-005-HC.jpg,1700,dash,I,z,667,1,2,28141.300000071526,434329.5,8038,ATS,A,12
13,test,3,C,haborder.png,1,m,Fri Jul 18 2025 14:19:44 GMT-0500 (Central Daylight Time),464886.5,CFD-BF-028-020-HC.jpg,1600,solid,I,m,790,10,2,30557.0,434329.5,8038,ATS,A,13
14,test,3,C,mfborder.png,1,m,Fri Jul 18 2025 14:19:44 GMT-0500 (Central Daylight Time),467733.89999997616,CFD-WM-019-013-A.jpg,2000,dash,I,m,820,5,2,33404.39999997616,434329.5,8038,ATS,A,14
15,test,3,C,haborder.png,1,z,Fri Jul 18 2025 14:19:44 GMT-0500 (Central Daylight Time),470517.7000000477,CFD-BM-005-010-A.jpg,1900,solid,I,z,855,8,2,36188.200000047684,434329.5,8038,ATS,A,15
16,test,3,C,mfborder.png,1,z,Fri Jul 18 2025 14:19:44 GMT-0500 (Central Daylight Time),472834.89999997616,CFD-WF-003-014-A.jpg,1500,dash,I,z,784,3,2,38505.39999997616,434329.5,8038,ATS,A,16
17,test,3,C,mfborder.png,1,m,Fri Jul 18 2025 14:19:44 GMT-0500 (Central Daylight Time),475183.7000000477,CFD-BM-029-026-HC.jpg,1200,dash,I,m,1116,6,2,40854.200000047684,434329.5,8038,ATS,A,17
18,test,3,C,mfborder.png,1,m,Fri Jul 18 2025 14:19:44 GMT-0500 (Central Daylight Time),476865.8000000715,CFD-WM-006-013-HC.jpg,1000,dash,I,m,660,4,2,42536.300000071526,434329.5,8038,ATS,A,18
19,test,3,C,mfborder.png,1,z,Fri Jul 18 2025 14:19:44 GMT-0500 (Central Daylight Time),479299.2000000477,CFD-BF-023-013-A.jpg,1600,dash,I,z,801,2,2,44969.700000047684,434329.5,8038,ATS,A,19
20,test,3,C,mfborder.png,1,z,Fri Jul 18 2025 14:19:44 GMT-0500 (Central Daylight Time),481848.0,CFD-BF-010-005-HC.jpg,1700,dash,I,z,821,1,2,47518.5,434329.5,8038,ATS,A,20
21,test,3,C,mfborder.png,1,m,Fri Jul 18 2025 14:19:44 GMT-0500 (Central Daylight Time),483630.60000002384,CFD-WM-006-013-HC.jpg,1000,dash,I,m,744,4,2,49301.10000002384,434329.5,8038,ATS,A,21
22,test,3,C,haborder.png,1,m,Fri Jul 18 2025 14:19:44 GMT-0500 (Central Daylight Time),485580.3000000715,CFD-WF-017-016-HC.jpg,1000,solid,I,m,918,12,2,51250.800000071526,434329.5,8038,ATS,A,22
23,test,3,C,mfborder.png,1,m,Fri Jul 18 2025 14:19:44 GMT-0500 (Central Daylight Time),488463.5,CFD-WM-019-013-A.jpg,2000,dash,I,m,856,5,2,54134.0,434329.5,8038,ATS,A,23
24,test,3,C,mfborder.png,1,m,Fri Jul 18 2025 14:19:44 GMT-0500 (Central Daylight Time),490328.10000002384,CFD-BM-029-026-HC.jpg,1200,dash,I,m,637,6,2,55998.60000002384,434329.5,8038,ATS,A,24
1,test,4,C,mfborder.png,1,m,Fri Jul 18 2025 14:19:44 GMT-0500 (Central Daylight Time),494909.3000000715,CFD-BM-005-010-A.jpg,2000,dash,I,m,749,5,2,2781.600000023842,492127.7000000477,8038,ATS,A,1
2,test,4,C,haborder.png,1,z,Fri Jul 18 2025 14:19:44 GMT-0500 (Central Daylight Time),497643.10000002384,CFD-BF-039-039-A.jpg,1900,solid,I,z,802,8,2,5515.399999976158,492127.7000000477,8038,ATS,A,2
3,test,4,C,mfborder.png,1,z,Fri Jul 18 2025 14:19:44 GMT-0500 (Central Daylight Time),499875.0,CFD-WF-019-015-A.jpg,1600,dash,I,z,601,2,2,7747.299999952316,492127.7000000477,8038,ATS,A,3
4,test,4,C,haborder.png,1,m,Fri Jul 18 2025 14:19:44 GMT-0500 (Central Daylight Time),501543.2000000477,CFD-WM-004-005-HC.jpg,1000,solid,I,m,640,12,2,9415.5,492127.7000000477,8038,ATS,A,4
5,test,4,C,haborder.png,1,z,Fri Jul 18 2025 14:19:44 GMT-0500 (Central Daylight Time),503723.89999997616,CFD-BF-023-013-A.jpg,1400,solid,I,z,758,7,2,11596.199999928474,492127.7000000477,8038,ATS,A,5
6,test,4,C,mfborder.png,1,m,Fri Jul 18 2025 14:19:44 GMT-0500 (Central Daylight Time),505506.39999997616,CFD-WM-013-015-A.jpg,1200,dash,I,m,558,6,2,13378.699999928474,492127.7000000477,8038,ATS,A,6
7,test,4,C,haborder.png,1,m,Fri Jul 18 2025 14:19:44 GMT-0500 (Central Daylight Time),508206.0,CFD-BM-029-026-HC.jpg,1600,solid,I,m,1072,10,2,16078.299999952316,492127.7000000477,8038,ATS,A,7
8,test,4,C,haborder.png,1,m,Fri Jul 18 2025 14:19:44 GMT-0500 (Central Daylight Time),509822.3000000715,CFD-WM-004-005-HC.jpg,1000,solid,I,m,583,12,2,17694.600000023842,492127.7000000477,8038,ATS,A,8
9,test,4,C,haborder.png,1,z,Fri Jul 18 2025 14:19:44 GMT-0500 (Central Daylight Time),512605.7000000477,CFD-BF-039-039-A.jpg,1900,solid,I,z,858,8,2,20478.0,492127.7000000477,8038,ATS,A,9
10,test,4,C,haborder.png,1,m,Fri Jul 18 2025 14:19:44 GMT-0500 (Central Daylight Time),514920.60000002384,CFD-BM-029-026-HC.jpg,1600,solid,I,m,693,10,2,22792.899999976158,492127.7000000477,8038,ATS,A,10
11,test,4,C,mfborder.png,1,m,Fri Jul 18 2025 14:19:44 GMT-0500 (Central Daylight Time),517735.89999997616,CFD-BM-005-010-A.jpg,2000,dash,I,m,798,5,2,25608.199999928474,492127.7000000477,8038,ATS,A,11
12,test,4,C,haborder.png,1,m,Fri Jul 18 2025 14:19:44 GMT-0500 (Central Daylight Time),519868.89999997616,CFD-WM-004-005-HC.jpg,1500,solid,I,m,607,11,2,27741.199999928474,492127.7000000477,8038,ATS,A,12
13,test,4,C,mfborder.png,1,z,Fri Jul 18 2025 14:19:44 GMT-0500 (Central Daylight Time),522551.39999997616,CFD-WF-017-016-HC.jpg,1700,dash,I,z,952,1,2,30423.699999928474,492127.7000000477,8038,ATS,A,13
14,test,4,C,mfborder.png,1,m,Fri Jul 18 2025 14:19:44 GMT-0500 (Central Daylight Time),524583.8000000715,CFD-WM-013-015-A.jpg,1200,dash,I,m,813,6,2,32456.100000023842,492127.7000000477,8038,ATS,A,14
15,test,4,C,haborder.png,1,z,Fri Jul 18 2025 14:19:44 GMT-0500 (Central Daylight Time),527499.3000000715,CFD-WF-003-014-A.jpg,1700,solid,I,z,1190,9,2,35371.60000002384,492127.7000000477,8038,ATS,A,15
16,test,4,C,haborder.png,1,z,Fri Jul 18 2025 14:19:44 GMT-0500 (Central Daylight Time),530015.6000000238,CFD-WF-003-014-A.jpg,1700,solid,I,z,788,9,2,37887.89999997616,492127.7000000477,8038,ATS,A,16
17,test,4,C,haborder.png,1,z,Fri Jul 18 2025 14:19:44 GMT-0500 (Central Daylight Time),532064.6000000238,CFD-BF-023-013-A.jpg,1400,solid,I,z,628,7,2,39936.89999997616,492127.7000000477,8038,ATS,A,17
18,test,4,C,mfborder.png,1,z,Fri Jul 18 2025 14:19:44 GMT-0500 (Central Daylight Time),534549.8999999762,CFD-WF-019-015-A.jpg,1600,dash,I,z,857,2,2,42422.199999928474,492127.7000000477,8038,ATS,A,18
19,test,4,C,mfborder.png,1,z,Fri Jul 18 2025 14:19:44 GMT-0500 (Central Daylight Time),536912.6000000238,CFD-WF-017-016-HC.jpg,1700,dash,I,z,644,1,2,44784.89999997616,492127.7000000477,8038,ATS,A,19
20,test,4,C,mfborder.png,1,m,Fri Jul 18 2025 14:19:44 GMT-0500 (Central Daylight Time),538729.3000000715,CFD-BM-017-052-HC.jpg,1000,dash,I,m,793,4,2,46601.60000002384,492127.7000000477,8038,ATS,A,20
21,test,4,C,mfborder.png,1,z,Fri Jul 18 2025 14:19:44 GMT-0500 (Central Daylight Time),541079.0,CFD-BF-028-020-HC.jpg,1500,dash,I,z,823,3,2,48951.299999952316,492127.7000000477,8038,ATS,A,21
22,test,4,C,mfborder.png,1,z,Fri Jul 18 2025 14:19:44 GMT-0500 (Central Daylight Time),543128.8000000715,CFD-BF-028-020-HC.jpg,1500,dash,I,z,520,3,2,51001.10000002384,492127.7000000477,8038,ATS,A,22
23,test,4,C,mfborder.png,1,m,Fri Jul 18 2025 14:19:44 GMT-0500 (Central Daylight Time),544810.0,CFD-BM-017-052-HC.jpg,1000,dash,I,m,659,4,2,52682.299999952316,492127.7000000477,8038,ATS,A,23
24,test,4,C,haborder.png,1,m,Fri Jul 18 2025 14:19:44 GMT-0500 (Central Daylight Time),546910.5,CFD-WM-004-005-HC.jpg,1500,solid,I,m,566,11,2,54782.799999952316,492127.7000000477,8038,ATS,A,24
