acc_sum,block,block_c,block_cond,con_img,correct,correct_response,datetime,endtime,face,jitter,line,project,response,response_time,row_sel,session_number,start_end,starttime,subject_id,task,task_vers,trial
1,prac,1,A,haborder.png,1,z,Fri Dec 12 2025 15:41:00 GMT-0600 (Central Standard Time),67881.40000000596,CFD-WM-036-018-A.jpg,1900,solid,I,z,1316,8,3,4016.7000000178814,63864.69999998808,8038,ATS,C,1
2,prac,1,A,haborder.png,1,z,Fri Dec 12 2025 15:41:00 GMT-0600 (Central Standard Time),70312.69999998808,CFD-BF-031-020-A.jpg,1000,solid,I,z,640,4,3,6448.0,63864.69999998808,8038,ATS,C,2
3,prac,1,A,haborder.png,1,z,Fri Dec 12 2025 15:41:00 GMT-0600 (Central Standard Time),73458.19999998808,CFD-WF-037-016-A.jpg,1600,solid,I,z,673,10,3,9593.5,63864.69999998808,8038,ATS,C,3
4,prac,1,A,haborder.png,1,m,Fri Dec 12 2025 15:41:00 GMT-0600 (Central Standard Time),76310.90000000596,CFD-WF-013-009-HC.jpg,1500,solid,I,m,559,11,3,12446.200000017881,63864.69999998808,8038,ATS,C,4
5,prac,1,A,haborder.png,1,z,Fri Dec 12 2025 15:41:00 GMT-0600 (Central Standard Time),79393.40000000596,CFD-BM-043-014-A.jpg,1600,solid,I,z,699,2,3,15528.700000017881,63864.69999998808,8038,ATS,C,5
6,prac,1,A,haborder.png,1,m,Fri Dec 12 2025 15:41:00 GMT-0600 (Central Standard Time),82242.59999999404,CFD-BM-022-004-HC.jpg,1500,solid,I,m,555,3,3,18377.90000000596,63864.69999998808,8038,ATS,C,6
7,prac,1,A,haborder.png,1,m,Fri Dec 12 2025 15:41:00 GMT-0600 (Central Standard Time),85441.40000000596,CFD-WM-035-036-HC.jpg,1700,solid,I,m,715,9,3,21576.70000001788,63864.69999998808,8038,ATS,C,7
8,prac,1,A,haborder.png,1,z,Fri Dec 12 2025 15:41:00 GMT-0600 (Central Standard Time),88090.59999999404,CFD-BF-002-018-A.jpg,1200,solid,I,z,664,6,3,24225.90000000596,63864.69999998808,8038,ATS,C,8
9,prac,1,A,haborder.png,1,z,Fri Dec 12 2025 15:41:00 GMT-0600 (Central Standard Time),90456.59999999404,CFD-WF-023-013-A.jpg,1000,solid,I,z,567,12,3,26591.90000000596,63864.69999998808,8038,ATS,C,9
10,prac,1,A,haborder.png,1,m,Fri Dec 12 2025 15:41:00 GMT-0600 (Central Standard Time),93638.79999998212,CFD-BM-034-035-HC.jpg,1700,solid,I,m,684,1,3,29774.09999999404,63864.69999998808,8038,ATS,C,10
11,prac,1,A,haborder.png,1,m,Fri Dec 12 2025 15:41:00 GMT-0600 (Central Standard Time),96321.29999998212,CFD-WM-028-005-HC.jpg,1400,solid,I,m,491,7,3,32456.59999999404,63864.69999998808,8038,ATS,C,11
12,prac,1,A,haborder.png,1,m,Fri Dec 12 2025 15:41:00 GMT-0600 (Central Standard Time),99703.59999999404,CFD-BF-019-004-HC.jpg,2000,solid,I,m,592,5,3,35838.90000000596,63864.69999998808,8038,ATS,C,12
1,prac,1,B,mfborder.png,1,m,Fri Dec 12 2025 15:41:00 GMT-0600 (Central Standard Time),128128.09999999404,CFD-BM-021-026-A.jpg,1600,2,I,m,649,dash,3,3032.4000000059605,125095.69999998808,8038,ATS,C,1
2,prac,1,B,mfborder.png,1,z,Fri Dec 12 2025 15:41:00 GMT-0600 (Central Standard Time),131010.29999998212,CFD-BF-042-031-HC.jpg,1500,3,I,z,597,dash,3,5914.5999999940395,125095.69999998808,8038,ATS,C,2
3,prac,1,B,mfborder.png,1,m,Fri Dec 12 2025 15:41:00 GMT-0600 (Central Standard Time),134376.09999999404,CFD-BM-043-014-A.jpg,2000,5,I,m,575,dash,3,9280.40000000596,125095.69999998808,8038,ATS,C,3
4,prac,1,B,mfborder.png,1,z,Fri Dec 12 2025 15:41:00 GMT-0600 (Central Standard Time),136708.79999998212,CFD-WF-013-009-HC.jpg,1000,12,I,z,544,dash,3,11613.09999999404,125095.69999998808,8038,ATS,C,4
5,prac,1,B,mfborder.png,1,m,Fri Dec 12 2025 15:41:00 GMT-0600 (Central Standard Time),139690.90000000596,CFD-WM-034-040-A.jpg,1200,6,I,m,989,dash,3,14595.200000017881,125095.69999998808,8038,ATS,C,5
6,prac,1,B,mfborder.png,1,z,Fri Dec 12 2025 15:41:00 GMT-0600 (Central Standard Time),142540.29999998212,CFD-BF-019-004-HC.jpg,1400,7,I,z,662,dash,3,17444.59999999404,125095.69999998808,8038,ATS,C,6
7,prac,1,B,mfborder.png,1,z,Fri Dec 12 2025 15:41:00 GMT-0600 (Central Standard Time),145755.90000000596,CFD-WF-037-016-A.jpg,1500,11,I,z,843,dash,3,20660.20000001788,125095.69999998808,8038,ATS,C,7
8,prac,1,B,mfborder.png,1,z,Fri Dec 12 2025 15:41:00 GMT-0600 (Central Standard Time),148088.69999998808,CFD-BF-031-020-A.jpg,1000,4,I,z,533,dash,3,22993.0,125095.69999998808,8038,ATS,C,8
9,prac,1,B,mfborder.png,1,m,Fri Dec 12 2025 15:41:00 GMT-0600 (Central Standard Time),151104.19999998808,CFD-WM-036-018-A.jpg,1700,9,I,m,517,dash,3,26008.5,125095.69999998808,8038,ATS,C,9
10,prac,1,B,mfborder.png,1,z,Fri Dec 12 2025 15:41:00 GMT-0600 (Central Standard Time),154419.69999998808,CFD-WF-001-010-HC.jpg,1900,8,I,z,621,dash,3,29324.0,125095.69999998808,8038,ATS,C,10
11,prac,1,B,mfborder.png,1,m,Fri Dec 12 2025 15:41:00 GMT-0600 (Central Standard Time),157735.59999999404,CFD-WM-035-036-HC.jpg,1600,10,I,m,926,dash,3,32639.90000000596,125095.69999998808,8038,ATS,C,11
12,prac,1,B,mfborder.png,1,m,Fri Dec 12 2025 15:41:00 GMT-0600 (Central Standard Time),160768.09999999404,CFD-BM-022-004-HC.jpg,1700,1,I,m,533,dash,3,35672.40000000596,125095.69999998808,8038,ATS,C,12
1,test,1,A,haborder.png,1,m,Fri Dec 12 2025 15:41:00 GMT-0600 (Central Standard Time),179628.40000000596,CFD-BM-034-035-HC.jpg,1700,solid,I,m,530,1,3,2249.2000000178814,177379.19999998808,8038,ATS,C,1
2,test,1,A,haborder.png,1,m,Fri Dec 12 2025 15:41:00 GMT-0600 (Central Standard Time),182277.5,CFD-BF-019-004-HC.jpg,2000,solid,I,m,628,5,3,4898.300000011921,177379.19999998808,8038,ATS,C,2
3,test,1,A,haborder.png,1,z,Fri Dec 12 2025 15:41:00 GMT-0600 (Central Standard Time),183827.40000000596,CFD-WF-023-013-A.jpg,1000,solid,I,z,524,12,3,6448.200000017881,177379.19999998808,8038,ATS,C,3
4,test,1,A,haborder.png,1,m,Fri Dec 12 2025 15:41:00 GMT-0600 (Central Standard Time),185960.09999999404,CFD-BM-022-004-HC.jpg,1500,solid,I,m,610,3,3,8580.90000000596,177379.19999998808,8038,ATS,C,4
5,test,1,A,haborder.png,1,m,Fri Dec 12 2025 15:41:00 GMT-0600 (Central Standard Time),188076.09999999404,CFD-WF-013-009-HC.jpg,1500,solid,I,m,589,11,3,10696.90000000596,177379.19999998808,8038,ATS,C,5
6,test,1,A,haborder.png,1,m,Fri Dec 12 2025 15:41:00 GMT-0600 (Central Standard Time),190075.19999998808,CFD-WF-013-009-HC.jpg,1500,solid,I,m,473,11,3,12696.0,177379.19999998808,8038,ATS,C,6
7,test,1,A,haborder.png,1,m,Fri Dec 12 2025 15:41:00 GMT-0600 (Central Standard Time),192108.0,CFD-BM-022-004-HC.jpg,1500,solid,I,m,514,3,3,14728.800000011921,177379.19999998808,8038,ATS,C,7
8,test,1,A,haborder.png,1,z,Fri Dec 12 2025 15:41:00 GMT-0600 (Central Standard Time),193724.0,CFD-BF-031-020-A.jpg,1000,solid,I,z,589,4,3,16344.800000011921,177379.19999998808,8038,ATS,C,8
9,test,1,A,haborder.png,1,m,Fri Dec 12 2025 15:41:00 GMT-0600 (Central Standard Time),196156.69999998808,CFD-BM-034-035-HC.jpg,1700,solid,I,m,713,1,3,18777.5,177379.19999998808,8038,ATS,C,9
10,test,1,A,haborder.png,1,z,Fri Dec 12 2025 15:41:00 GMT-0600 (Central Standard Time),198456.0,CFD-BM-043-014-A.jpg,1600,solid,I,z,668,2,3,21076.80000001192,177379.19999998808,8038,ATS,C,10
11,test,1,A,haborder.png,1,z,Fri Dec 12 2025 15:41:00 GMT-0600 (Central Standard Time),200255.29999998212,CFD-BF-002-018-A.jpg,1200,solid,I,z,576,6,3,22876.09999999404,177379.19999998808,8038,ATS,C,11
12,test,1,A,haborder.png,1,m,Fri Dec 12 2025 15:41:00 GMT-0600 (Central Standard Time),202321.59999999404,CFD-WM-028-005-HC.jpg,1400,solid,I,m,649,7,3,24942.40000000596,177379.19999998808,8038,ATS,C,12
13,test,1,A,haborder.png,1,z,Fri Dec 12 2025 15:41:00 GMT-0600 (Central Standard Time),204137.69999998808,CFD-BF-002-018-A.jpg,1200,solid,I,z,590,6,3,26758.5,177379.19999998808,8038,ATS,C,13
14,test,1,A,haborder.png,1,z,Fri Dec 12 2025 15:41:00 GMT-0600 (Central Standard Time),205703.79999998212,CFD-BF-031-020-A.jpg,1000,solid,I,z,534,4,3,28324.59999999404,177379.19999998808,8038,ATS,C,14
15,test,1,A,haborder.png,1,z,Fri Dec 12 2025 15:41:00 GMT-0600 (Central Standard Time),207969.69999998808,CFD-WF-037-016-A.jpg,1600,solid,I,z,634,10,3,30590.5,177379.19999998808,8038,ATS,C,15
16,test,1,A,haborder.png,1,m,Fri Dec 12 2025 15:41:00 GMT-0600 (Central Standard Time),210770.0,CFD-BF-019-004-HC.jpg,2000,solid,I,m,767,5,3,33390.80000001192,177379.19999998808,8038,ATS,C,16
17,test,1,A,haborder.png,1,z,Fri Dec 12 2025 15:41:00 GMT-0600 (Central Standard Time),213268.0,CFD-WM-036-018-A.jpg,1900,solid,I,z,580,8,3,35888.80000001192,177379.19999998808,8038,ATS,C,17
18,test,1,A,haborder.png,1,z,Fri Dec 12 2025 15:41:00 GMT-0600 (Central Standard Time),214936.19999998808,CFD-WF-023-013-A.jpg,1000,solid,I,z,644,12,3,37557.0,177379.19999998808,8038,ATS,C,18
19,test,1,A,haborder.png,1,z,Fri Dec 12 2025 15:41:00 GMT-0600 (Central Standard Time),217200.29999998212,CFD-BM-043-014-A.jpg,1600,solid,I,z,643,2,3,39821.09999999404,177379.19999998808,8038,ATS,C,19
20,test,1,A,haborder.png,1,z,Fri Dec 12 2025 15:41:00 GMT-0600 (Central Standard Time),219416.29999998212,CFD-WF-037-016-A.jpg,1600,solid,I,z,584,10,3,42037.09999999404,177379.19999998808,8038,ATS,C,20
21,test,1,A,haborder.png,1,m,Fri Dec 12 2025 15:41:00 GMT-0600 (Central Standard Time),221448.90000000596,CFD-WM-028-005-HC.jpg,1400,solid,I,m,600,7,3,44069.70000001788,177379.19999998808,8038,ATS,C,21
22,test,1,A,haborder.png,1,m,Fri Dec 12 2025 15:41:00 GMT-0600 (Central Standard Time),223764.90000000596,CFD-WM-035-036-HC.jpg,1700,solid,I,m,589,9,3,46385.70000001788,177379.19999998808,8038,ATS,C,22
23,test,1,A,haborder.png,1,z,Fri Dec 12 2025 15:41:00 GMT-0600 (Central Standard Time),226497.40000000596,CFD-WM-036-018-A.jpg,1900,solid,I,z,816,8,3,49118.20000001788,177379.19999998808,8038,ATS,C,23
24,test,1,A,haborder.png,1,m,Fri Dec 12 2025 15:41:00 GMT-0600 (Central Standard Time),228929.90000000596,CFD-WM-035-036-HC.jpg,1700,solid,I,m,700,9,3,51550.70000001788,177379.19999998808,8038,ATS,C,24
1,test,1,B,mfborder.png,1,z,Fri Dec 12 2025 15:41:00 GMT-0600 (Central Standard Time),243542.09999999404,CFD-BF-031-020-A.jpg,1000,dash,I,z,820,4,3,1849.699999988079,241692.40000000596,8038,ATS,C,1
2,test,1,B,mfborder.png,1,z,Fri Dec 12 2025 15:41:00 GMT-0600 (Central Standard Time),245091.5,CFD-WF-013-009-HC.jpg,1000,dash,I,z,531,12,3,3399.0999999940395,241692.40000000596,8038,ATS,C,2
3,test,1,B,mfborder.png,1,m,Fri Dec 12 2025 15:41:00 GMT-0600 (Central Standard Time),247340.69999998808,CFD-WM-035-036-HC.jpg,1600,dash,I,m,621,10,3,5648.299999982119,241692.40000000596,8038,ATS,C,3
4,test,1,B,mfborder.png,1,z,Fri Dec 12 2025 15:41:00 GMT-0600 (Central Standard Time),249490.0,CFD-BF-042-031-HC.jpg,1500,dash,I,z,633,3,3,7797.5999999940395,241692.40000000596,8038,ATS,C,4
5,test,1,B,mfborder.png,1,z,Fri Dec 12 2025 15:41:00 GMT-0600 (Central Standard Time),251739.40000000596,CFD-BF-019-004-HC.jpg,1400,dash,I,z,831,7,3,10047.0,241692.40000000596,8038,ATS,C,5
6,test,1,B,mfborder.png,1,m,Fri Dec 12 2025 15:41:00 GMT-0600 (Central Standard Time),253988.79999998212,CFD-BM-022-004-HC.jpg,1700,dash,I,m,529,1,3,12296.399999976158,241692.40000000596,8038,ATS,C,6
7,test,1,B,mfborder.png,1,z,Fri Dec 12 2025 15:41:00 GMT-0600 (Central Standard Time),256138.0,CFD-BF-042-031-HC.jpg,1500,dash,I,z,616,3,3,14445.59999999404,241692.40000000596,8038,ATS,C,7
8,test,1,B,mfborder.png,1,m,Fri Dec 12 2025 15:41:00 GMT-0600 (Central Standard Time),258553.69999998808,CFD-BM-021-026-A.jpg,1600,dash,I,m,799,2,3,16861.29999998212,241692.40000000596,8038,ATS,C,8
9,test,1,B,mfborder.png,1,m,Fri Dec 12 2025 15:41:00 GMT-0600 (Central Standard Time),261019.90000000596,CFD-WM-036-018-A.jpg,1700,dash,I,m,748,9,3,19327.5,241692.40000000596,8038,ATS,C,9
10,test,1,B,mfborder.png,1,z,Fri Dec 12 2025 15:41:00 GMT-0600 (Central Standard Time),262620.1999999881,CFD-BF-031-020-A.jpg,1000,dash,I,z,555,4,3,20927.79999998212,241692.40000000596,8038,ATS,C,10
11,test,1,B,mfborder.png,1,m,Fri Dec 12 2025 15:41:00 GMT-0600 (Central Standard Time),264418.59999999404,CFD-WM-034-040-A.jpg,1200,dash,I,m,581,6,3,22726.19999998808,241692.40000000596,8038,ATS,C,11
12,test,1,B,mfborder.png,1,m,Fri Dec 12 2025 15:41:00 GMT-0600 (Central Standard Time),266668.09999999404,CFD-WM-036-018-A.jpg,1700,dash,I,m,523,9,3,24975.69999998808,241692.40000000596,8038,ATS,C,12
13,test,1,B,mfborder.png,1,m,Fri Dec 12 2025 15:41:00 GMT-0600 (Central Standard Time),269334.0,CFD-BM-043-014-A.jpg,2000,dash,I,m,637,5,3,27641.59999999404,241692.40000000596,8038,ATS,C,13
14,test,1,B,mfborder.png,1,z,Fri Dec 12 2025 15:41:00 GMT-0600 (Central Standard Time),271433.1999999881,CFD-WF-037-016-A.jpg,1500,dash,I,z,567,11,3,29740.79999998212,241692.40000000596,8038,ATS,C,14
15,test,1,B,mfborder.png,1,m,Fri Dec 12 2025 15:41:00 GMT-0600 (Central Standard Time),273582.2999999821,CFD-WM-035-036-HC.jpg,1600,dash,I,m,527,10,3,31889.899999976158,241692.40000000596,8038,ATS,C,15
16,test,1,B,mfborder.png,1,z,Fri Dec 12 2025 15:41:00 GMT-0600 (Central Standard Time),276081.7999999821,CFD-WF-001-010-HC.jpg,1900,dash,I,z,561,8,3,34389.39999997616,241692.40000000596,8038,ATS,C,16
17,test,1,B,mfborder.png,1,m,Fri Dec 12 2025 15:41:00 GMT-0600 (Central Standard Time),278014.6999999881,CFD-WM-034-040-A.jpg,1200,dash,I,m,703,6,3,36322.29999998212,241692.40000000596,8038,ATS,C,17
18,test,1,B,mfborder.png,1,z,Fri Dec 12 2025 15:41:00 GMT-0600 (Central Standard Time),280013.7999999821,CFD-BF-019-004-HC.jpg,1400,dash,I,z,579,7,3,38321.39999997616,241692.40000000596,8038,ATS,C,18
19,test,1,B,mfborder.png,1,m,Fri Dec 12 2025 15:41:00 GMT-0600 (Central Standard Time),282263.09999999404,CFD-BM-021-026-A.jpg,1600,dash,I,m,628,2,3,40570.69999998808,241692.40000000596,8038,ATS,C,19
20,test,1,B,mfborder.png,1,z,Fri Dec 12 2025 15:41:00 GMT-0600 (Central Standard Time),284712.40000000596,CFD-WF-001-010-HC.jpg,1900,dash,I,z,525,8,3,43020.0,241692.40000000596,8038,ATS,C,20
21,test,1,B,mfborder.png,1,m,Fri Dec 12 2025 15:41:00 GMT-0600 (Central Standard Time),287311.6999999881,CFD-BM-043-014-A.jpg,2000,dash,I,m,568,5,3,45619.29999998212,241692.40000000596,8038,ATS,C,21
22,test,1,B,mfborder.png,1,z,Fri Dec 12 2025 15:41:00 GMT-0600 (Central Standard Time),288994.40000000596,CFD-WF-013-009-HC.jpg,1000,dash,I,z,657,12,3,47302.0,241692.40000000596,8038,ATS,C,22
23,test,1,B,mfborder.png,1,m,Fri Dec 12 2025 15:41:00 GMT-0600 (Central Standard Time),291277.0,CFD-BM-022-004-HC.jpg,1700,dash,I,m,563,1,3,49584.59999999404,241692.40000000596,8038,ATS,C,23
24,test,1,B,mfborder.png,1,z,Fri Dec 12 2025 15:41:00 GMT-0600 (Central Standard Time),293376.1999999881,CFD-WF-037-016-A.jpg,1500,dash,I,z,575,11,3,51683.79999998212,241692.40000000596,8038,ATS,C,24
0,prac,1,C,mfborder.png,0,z,Fri Dec 12 2025 15:41:00 GMT-0600 (Central Standard Time),342261.09999999404,CFD-BF-019-004-HC.jpg,1000,dash,I,None,1516,11,3,3298.5,338962.59999999404,8038,ATS,C,1
1,prac,1,C,haborder.png,1,z,Fri Dec 12 2025 15:41:00 GMT-0600 (Central Standard Time),345478.0,CFD-WF-037-016-A.jpg,1600,dash,I,z,819,11,3,6515.4000000059605,338962.59999999404,8038,ATS,C,2
2,prac,1,C,haborder.png,1,z,Fri Dec 12 2025 15:41:00 GMT-0600 (Central Standard Time),348659.09999999404,CFD-BF-002-018-A.jpg,1700,solid,I,z,696,11,3,9696.5,338962.59999999404,8038,ATS,C,3
3,prac,1,C,mfborder.png,1,m,Fri Dec 12 2025 15:41:00 GMT-0600 (Central Standard Time),351308.0,CFD-BM-043-014-A.jpg,1200,dash,I,m,661,11,3,12345.40000000596,338962.59999999404,8038,ATS,C,4
4,prac,1,C,mfborder.png,1,z,Fri Dec 12 2025 15:41:00 GMT-0600 (Central Standard Time),354374.1999999881,CFD-WF-013-009-HC.jpg,1600,dash,I,z,668,11,3,15411.59999999404,338962.59999999404,8038,ATS,C,5
5,prac,1,C,haborder.png,1,m,Fri Dec 12 2025 15:41:00 GMT-0600 (Central Standard Time),356923.09999999404,CFD-WM-028-005-HC.jpg,1000,dash,I,m,779,11,3,17960.5,338962.59999999404,8038,ATS,C,6
6,prac,1,C,mfborder.png,1,z,Fri Dec 12 2025 15:41:00 GMT-0600 (Central Standard Time),360421.90000000596,CFD-WF-023-013-A.jpg,1500,solid,I,z,1202,11,3,21459.30000001192,338962.59999999404,8038,ATS,C,7
7,prac,1,C,haborder.png,1,z,Fri Dec 12 2025 15:41:00 GMT-0600 (Central Standard Time),363720.7999999821,CFD-BF-031-020-A.jpg,1900,dash,I,z,607,11,3,24758.19999998808,338962.59999999404,8038,ATS,C,8
8,prac,1,C,haborder.png,1,m,Fri Dec 12 2025 15:41:00 GMT-0600 (Central Standard Time),366603.40000000596,CFD-BM-022-004-HC.jpg,1500,solid,I,m,596,11,3,27640.80000001192,338962.59999999404,8038,ATS,C,9
9,prac,1,C,mfborder.png,1,m,Fri Dec 12 2025 15:41:00 GMT-0600 (Central Standard Time),369919.09999999404,CFD-BM-034-035-HC.jpg,2000,solid,I,m,525,11,3,30956.5,338962.59999999404,8038,ATS,C,10
10,prac,1,C,haborder.png,1,m,Fri Dec 12 2025 15:41:00 GMT-0600 (Central Standard Time),372968.09999999404,CFD-WM-028-005-HC.jpg,1400,solid,I,m,850,11,3,34005.5,338962.59999999404,8038,ATS,C,11
10,prac,1,C,mfborder.png,0,m,Fri Dec 12 2025 15:41:00 GMT-0600 (Central Standard Time),376783.6999999881,CFD-WM-036-018-A.jpg,1700,solid,I,z,1326,11,3,37821.09999999404,338962.59999999404,8038,ATS,C,12
1,test,1,C,mfborder.png,1,m,Fri Dec 12 2025 15:41:00 GMT-0600 (Central Standard Time),390512.40000000596,CFD-WM-034-040-A.jpg,2000,dash,I,m,1093,5,3,3115.600000023842,387396.7999999821,8038,ATS,C,1
1,test,1,C,mfborder.png,0,z,Fri Dec 12 2025 15:41:00 GMT-0600 (Central Standard Time),393545.1999999881,CFD-WF-037-016-A.jpg,1500,dash,I,None,1516,3,3,6148.4000000059605,387396.7999999821,8038,ATS,C,2
2,test,1,C,haborder.png,1,m,Fri Dec 12 2025 15:41:00 GMT-0600 (Central Standard Time),395877.6999999881,CFD-WF-001-010-HC.jpg,1500,solid,I,m,813,11,3,8480.90000000596,387396.7999999821,8038,ATS,C,3
3,test,1,C,mfborder.png,1,m,Fri Dec 12 2025 15:41:00 GMT-0600 (Central Standard Time),397910.1999999881,CFD-BM-022-004-HC.jpg,1200,dash,I,m,803,6,3,10513.40000000596,387396.7999999821,8038,ATS,C,4
4,test,1,C,mfborder.png,1,m,Fri Dec 12 2025 15:41:00 GMT-0600 (Central Standard Time),400742.7999999821,CFD-WM-034-040-A.jpg,2000,dash,I,m,802,5,3,13346.0,387396.7999999821,8038,ATS,C,5
5,test,1,C,mfborder.png,1,z,Fri Dec 12 2025 15:41:00 GMT-0600 (Central Standard Time),403454.0,CFD-BF-042-031-HC.jpg,1700,dash,I,z,848,1,3,16057.200000017881,387396.7999999821,8038,ATS,C,6
5,test,1,C,haborder.png,0,m,Fri Dec 12 2025 15:41:00 GMT-0600 (Central Standard Time),405674.59999999404,CFD-WF-013-009-HC.jpg,1000,solid,I,z,1190,12,3,18277.80000001192,387396.7999999821,8038,ATS,C,7
6,test,1,C,haborder.png,1,z,Fri Dec 12 2025 15:41:00 GMT-0600 (Central Standard Time),408307.09999999404,CFD-BM-021-026-A.jpg,1700,solid,I,z,907,9,3,20910.30000001192,387396.7999999821,8038,ATS,C,8
7,test,1,C,haborder.png,1,z,Fri Dec 12 2025 15:41:00 GMT-0600 (Central Standard Time),410356.59999999404,CFD-WM-036-018-A.jpg,1400,solid,I,z,622,7,3,22959.80000001192,387396.7999999821,8038,ATS,C,9
8,test,1,C,haborder.png,1,z,Fri Dec 12 2025 15:41:00 GMT-0600 (Central Standard Time),413189.0,CFD-BM-043-014-A.jpg,1900,solid,I,z,905,8,3,25792.20000001788,387396.7999999821,8038,ATS,C,10
9,test,1,C,mfborder.png,1,z,Fri Dec 12 2025 15:41:00 GMT-0600 (Central Standard Time),415421.40000000596,CFD-WF-037-016-A.jpg,1500,dash,I,z,703,3,3,28024.600000023842,387396.7999999821,8038,ATS,C,11
10,test,1,C,mfborder.png,1,m,Fri Dec 12 2025 15:41:00 GMT-0600 (Central Standard Time),417337.59999999404,CFD-WM-035-036-HC.jpg,1000,dash,I,m,892,4,3,29940.80000001192,387396.7999999821,8038,ATS,C,12
11,test,1,C,mfborder.png,1,z,Fri Dec 12 2025 15:41:00 GMT-0600 (Central Standard Time),419836.59999999404,CFD-BF-031-020-A.jpg,1600,dash,I,z,872,2,3,32439.80000001192,387396.7999999821,8038,ATS,C,13
12,test,1,C,mfborder.png,1,m,Fri Dec 12 2025 15:41:00 GMT-0600 (Central Standard Time),421936.0,CFD-BM-022-004-HC.jpg,1200,dash,I,m,877,6,3,34539.20000001788,387396.7999999821,8038,ATS,C,14
13,test,1,C,mfborder.png,1,z,Fri Dec 12 2025 15:41:00 GMT-0600 (Central Standard Time),424501.90000000596,CFD-BF-042-031-HC.jpg,1700,dash,I,z,846,1,3,37105.10000002384,387396.7999999821,8038,ATS,C,15
14,test,1,C,mfborder.png,1,m,Fri Dec 12 2025 15:41:00 GMT-0600 (Central Standard Time),426251.40000000596,CFD-WM-035-036-HC.jpg,1000,dash,I,m,722,4,3,38854.60000002384,387396.7999999821,8038,ATS,C,16
15,test,1,C,haborder.png,1,z,Fri Dec 12 2025 15:41:00 GMT-0600 (Central Standard Time),429017.1999999881,CFD-BM-043-014-A.jpg,1900,solid,I,z,841,8,3,41620.40000000596,387396.7999999821,8038,ATS,C,17
16,test,1,C,haborder.png,1,m,Fri Dec 12 2025 15:41:00 GMT-0600 (Central Standard Time),431266.2999999821,CFD-WF-001-010-HC.jpg,1500,solid,I,m,732,11,3,43869.5,387396.7999999821,8038,ATS,C,18
17,test,1,C,haborder.png,1,m,Fri Dec 12 2025 15:41:00 GMT-0600 (Central Standard Time),433599.1999999881,CFD-BF-019-004-HC.jpg,1600,solid,I,m,702,10,3,46202.40000000596,387396.7999999821,8038,ATS,C,19
18,test,1,C,haborder.png,1,m,Fri Dec 12 2025 15:41:00 GMT-0600 (Central Standard Time),435748.2999999821,CFD-BF-019-004-HC.jpg,1600,solid,I,m,522,10,3,48351.5,387396.7999999821,8038,ATS,C,20
19,test,1,C,haborder.png,1,m,Fri Dec 12 2025 15:41:00 GMT-0600 (Central Standard Time),437398.09999999404,CFD-WF-013-009-HC.jpg,1000,solid,I,m,621,12,3,50001.30000001192,387396.7999999821,8038,ATS,C,21
20,test,1,C,mfborder.png,1,z,Fri Dec 12 2025 15:41:00 GMT-0600 (Central Standard Time),439580.6999999881,CFD-BF-031-020-A.jpg,1600,dash,I,z,561,2,3,52183.90000000596,387396.7999999821,8038,ATS,C,22
21,test,1,C,haborder.png,1,z,Fri Dec 12 2025 15:41:00 GMT-0600 (Central Standard Time),441996.2999999821,CFD-BM-021-026-A.jpg,1700,solid,I,z,696,9,3,54599.5,387396.7999999821,8038,ATS,C,23
22,test,1,C,haborder.png,1,z,Fri Dec 12 2025 15:41:00 GMT-0600 (Central Standard Time),444046.0,CFD-WM-036-018-A.jpg,1400,solid,I,z,629,7,3,56649.20000001788,387396.7999999821,8038,ATS,C,24
1,test,2,C,haborder.png,1,z,Fri Dec 12 2025 15:41:00 GMT-0600 (Central Standard Time),450210.5,CFD-WF-037-016-A.jpg,1700,solid,I,z,1414,9,3,3132.0999999940395,447078.40000000596,8038,ATS,C,1
2,test,2,C,mfborder.png,1,z,Fri Dec 12 2025 15:41:00 GMT-0600 (Central Standard Time),453010.6999999881,CFD-WF-013-009-HC.jpg,1700,dash,I,z,1082,1,3,5932.299999982119,447078.40000000596,8038,ATS,C,2
3,test,2,C,mfborder.png,1,z,Fri Dec 12 2025 15:41:00 GMT-0600 (Central Standard Time),455175.7999999821,CFD-BF-019-004-HC.jpg,1500,dash,I,z,643,3,3,8097.399999976158,447078.40000000596,8038,ATS,C,3
3,test,2,C,mfborder.png,0,m,Fri Dec 12 2025 15:41:00 GMT-0600 (Central Standard Time),457241.59999999404,CFD-WM-036-018-A.jpg,1200,dash,I,z,841,6,3,10163.199999988079,447078.40000000596,8038,ATS,C,4
4,test,2,C,haborder.png,1,z,Fri Dec 12 2025 15:41:00 GMT-0600 (Central Standard Time),459624.2999999821,CFD-BF-031-020-A.jpg,1400,solid,I,z,951,7,3,12545.899999976158,447078.40000000596,8038,ATS,C,5
5,test,2,C,haborder.png,1,z,Fri Dec 12 2025 15:41:00 GMT-0600 (Central Standard Time),462240.1999999881,CFD-WF-037-016-A.jpg,1700,solid,I,z,893,9,3,15161.799999982119,447078.40000000596,8038,ATS,C,6
6,test,2,C,mfborder.png,1,m,Fri Dec 12 2025 15:41:00 GMT-0600 (Central Standard Time),464339.59999999404,CFD-WM-036-018-A.jpg,1200,dash,I,m,880,6,3,17261.19999998808,447078.40000000596,8038,ATS,C,7
7,test,2,C,mfborder.png,1,m,Fri Dec 12 2025 15:41:00 GMT-0600 (Central Standard Time),466988.5,CFD-BM-043-014-A.jpg,2000,dash,I,m,621,5,3,19910.09999999404,447078.40000000596,8038,ATS,C,8
8,test,2,C,mfborder.png,1,m,Fri Dec 12 2025 15:41:00 GMT-0600 (Central Standard Time),468804.7999999821,CFD-BM-034-035-HC.jpg,1000,dash,I,m,788,4,3,21726.399999976158,447078.40000000596,8038,ATS,C,9
9,test,2,C,haborder.png,1,m,Fri Dec 12 2025 15:41:00 GMT-0600 (Central Standard Time),470554.5,CFD-WM-028-005-HC.jpg,1000,solid,I,m,717,12,3,23476.09999999404,447078.40000000596,8038,ATS,C,10
10,test,2,C,mfborder.png,1,m,Fri Dec 12 2025 15:41:00 GMT-0600 (Central Standard Time),473169.90000000596,CFD-BM-043-014-A.jpg,2000,dash,I,m,591,5,3,26091.5,447078.40000000596,8038,ATS,C,11
11,test,2,C,mfborder.png,1,z,Fri Dec 12 2025 15:41:00 GMT-0600 (Central Standard Time),475519.59999999404,CFD-BF-019-004-HC.jpg,1500,dash,I,z,819,3,3,28441.19999998808,447078.40000000596,8038,ATS,C,12
12,test,2,C,haborder.png,1,z,Fri Dec 12 2025 15:41:00 GMT-0600 (Central Standard Time),478151.90000000596,CFD-BF-002-018-A.jpg,1900,solid,I,z,710,8,3,31073.5,447078.40000000596,8038,ATS,C,13
13,test,2,C,haborder.png,1,m,Fri Dec 12 2025 15:41:00 GMT-0600 (Central Standard Time),480317.90000000596,CFD-WM-028-005-HC.jpg,1500,solid,I,m,646,11,3,33239.5,447078.40000000596,8038,ATS,C,14
14,test,2,C,haborder.png,1,z,Fri Dec 12 2025 15:41:00 GMT-0600 (Central Standard Time),483017.0,CFD-BF-002-018-A.jpg,1900,solid,I,z,767,8,3,35938.59999999404,447078.40000000596,8038,ATS,C,15
15,test,2,C,haborder.png,1,m,Fri Dec 12 2025 15:41:00 GMT-0600 (Central Standard Time),485433.09999999404,CFD-BM-022-004-HC.jpg,1600,solid,I,m,784,10,3,38354.69999998808,447078.40000000596,8038,ATS,C,16
16,test,2,C,haborder.png,1,m,Fri Dec 12 2025 15:41:00 GMT-0600 (Central Standard Time),487065.7999999821,CFD-WM-028-005-HC.jpg,1000,solid,I,m,601,12,3,39987.39999997616,447078.40000000596,8038,ATS,C,17
17,test,2,C,haborder.png,1,m,Fri Dec 12 2025 15:41:00 GMT-0600 (Central Standard Time),489231.59999999404,CFD-BM-022-004-HC.jpg,1600,solid,I,m,544,10,3,42153.19999998808,447078.40000000596,8038,ATS,C,18
17,test,2,C,mfborder.png,0,m,Fri Dec 12 2025 15:41:00 GMT-0600 (Central Standard Time),491197.90000000596,CFD-BM-034-035-HC.jpg,1000,dash,I,z,937,4,3,44119.5,447078.40000000596,8038,ATS,C,19
18,test,2,C,haborder.png,1,m,Fri Dec 12 2025 15:41:00 GMT-0600 (Central Standard Time),493330.0,CFD-WM-028-005-HC.jpg,1500,solid,I,m,615,11,3,46251.59999999404,447078.40000000596,8038,ATS,C,20
19,test,2,C,mfborder.png,1,z,Fri Dec 12 2025 15:41:00 GMT-0600 (Central Standard Time),495846.1999999881,CFD-WF-023-013-A.jpg,1600,dash,I,z,895,2,3,48767.79999998212,447078.40000000596,8038,ATS,C,21
20,test,2,C,haborder.png,1,z,Fri Dec 12 2025 15:41:00 GMT-0600 (Central Standard Time),497979.1999999881,CFD-BF-031-020-A.jpg,1400,solid,I,z,707,7,3,50900.79999998212,447078.40000000596,8038,ATS,C,22
21,test,2,C,mfborder.png,1,z,Fri Dec 12 2025 15:41:00 GMT-0600 (Central Standard Time),500411.5,CFD-WF-013-009-HC.jpg,1700,dash,I,z,714,1,3,53333.09999999404,447078.40000000596,8038,ATS,C,23
22,test,2,C,mfborder.png,1,z,Fri Dec 12 2025 15:41:00 GMT-0600 (Central Standard Time),502627.5,CFD-WF-023-013-A.jpg,1600,dash,I,z,590,2,3,55549.09999999404,447078.40000000596,8038,ATS,C,24
1,test,3,C,mfborder.png,1,z,Fri Dec 12 2025 15:41:00 GMT-0600 (Central Standard Time),506543.2999999821,CFD-BF-042-031-HC.jpg,1700,dash,I,z,786,1,3,2516.5,504026.7999999821,8038,ATS,C,1
2,test,3,C,mfborder.png,1,m,Fri Dec 12 2025 15:41:00 GMT-0600 (Central Standard Time),509310.09999999404,CFD-WM-034-040-A.jpg,2000,dash,I,m,739,5,3,5283.300000011921,504026.7999999821,8038,ATS,C,2
3,test,3,C,mfborder.png,1,z,Fri Dec 12 2025 15:41:00 GMT-0600 (Central Standard Time),511574.6999999881,CFD-WF-037-016-A.jpg,1500,dash,I,z,736,3,3,7547.9000000059605,504026.7999999821,8038,ATS,C,3
4,test,3,C,haborder.png,1,z,Fri Dec 12 2025 15:41:00 GMT-0600 (Central Standard Time),514207.0,CFD-BM-021-026-A.jpg,1700,solid,I,z,911,9,3,10180.200000017881,504026.7999999821,8038,ATS,C,4
5,test,3,C,haborder.png,1,z,Fri Dec 12 2025 15:41:00 GMT-0600 (Central Standard Time),516523.40000000596,CFD-BM-021-026-A.jpg,1700,solid,I,z,590,9,3,12496.600000023842,504026.7999999821,8038,ATS,C,5
6,test,3,C,mfborder.png,1,z,Fri Dec 12 2025 15:41:00 GMT-0600 (Central Standard Time),518890.1999999881,CFD-BF-031-020-A.jpg,1600,dash,I,z,741,2,3,14863.40000000596,504026.7999999821,8038,ATS,C,6
7,test,3,C,mfborder.png,1,m,Fri Dec 12 2025 15:41:00 GMT-0600 (Central Standard Time),521088.40000000596,CFD-BM-022-004-HC.jpg,1200,dash,I,m,976,6,3,17061.600000023842,504026.7999999821,8038,ATS,C,7
8,test,3,C,mfborder.png,1,m,Fri Dec 12 2025 15:41:00 GMT-0600 (Central Standard Time),522821.0,CFD-BM-022-004-HC.jpg,1200,dash,I,m,513,6,3,18794.20000001788,504026.7999999821,8038,ATS,C,8
9,test,3,C,mfborder.png,1,z,Fri Dec 12 2025 15:41:00 GMT-0600 (Central Standard Time),525154.099999994,CFD-BF-031-020-A.jpg,1600,dash,I,z,717,2,3,21127.30000001192,504026.7999999821,8038,ATS,C,9
10,test,3,C,haborder.png,1,m,Fri Dec 12 2025 15:41:00 GMT-0600 (Central Standard Time),527503.0,CFD-WF-001-010-HC.jpg,1500,solid,I,m,827,11,3,23476.20000001788,504026.7999999821,8038,ATS,C,10
11,test,3,C,haborder.png,1,m,Fri Dec 12 2025 15:41:00 GMT-0600 (Central Standard Time),529852.400000006,CFD-BF-019-004-HC.jpg,1600,solid,I,m,723,10,3,25825.600000023842,504026.7999999821,8038,ATS,C,11
12,test,3,C,haborder.png,1,m,Fri Dec 12 2025 15:41:00 GMT-0600 (Central Standard Time),532085.099999994,CFD-BF-019-004-HC.jpg,1600,solid,I,m,613,10,3,28058.30000001192,504026.7999999821,8038,ATS,C,12
13,test,3,C,mfborder.png,1,z,Fri Dec 12 2025 15:41:00 GMT-0600 (Central Standard Time),534517.6999999881,CFD-BF-042-031-HC.jpg,1700,dash,I,z,712,1,3,30490.90000000596,504026.7999999821,8038,ATS,C,13
14,test,3,C,haborder.png,1,m,Fri Dec 12 2025 15:41:00 GMT-0600 (Central Standard Time),536833.7999999821,CFD-WF-013-009-HC.jpg,1000,solid,I,m,1284,12,3,32807.0,504026.7999999821,8038,ATS,C,14
15,test,3,C,mfborder.png,1,z,Fri Dec 12 2025 15:41:00 GMT-0600 (Central Standard Time),539082.599999994,CFD-WF-037-016-A.jpg,1500,dash,I,z,731,3,3,35055.80000001192,504026.7999999821,8038,ATS,C,15
16,test,3,C,haborder.png,1,m,Fri Dec 12 2025 15:41:00 GMT-0600 (Central Standard Time),541432.2999999821,CFD-WF-001-010-HC.jpg,1500,solid,I,m,818,11,3,37405.5,504026.7999999821,8038,ATS,C,16
16,test,3,C,haborder.png,0,z,Fri Dec 12 2025 15:41:00 GMT-0600 (Central Standard Time),544364.599999994,CFD-WM-036-018-A.jpg,1400,solid,I,None,1517,7,3,40337.80000001192,504026.7999999821,8038,ATS,C,17
17,test,3,C,haborder.png,1,z,Fri Dec 12 2025 15:41:00 GMT-0600 (Central Standard Time),546996.900000006,CFD-BM-043-014-A.jpg,1900,solid,I,z,713,8,3,42970.10000002384,504026.7999999821,8038,ATS,C,18
18,test,3,C,mfborder.png,1,m,Fri Dec 12 2025 15:41:00 GMT-0600 (Central Standard Time),548729.6999999881,CFD-WM-035-036-HC.jpg,1000,dash,I,m,715,4,3,44702.90000000596,504026.7999999821,8038,ATS,C,19
19,test,3,C,haborder.png,1,m,Fri Dec 12 2025 15:41:00 GMT-0600 (Central Standard Time),550712.6999999881,CFD-WF-013-009-HC.jpg,1000,solid,I,m,951,12,3,46685.90000000596,504026.7999999821,8038,ATS,C,20
20,test,3,C,mfborder.png,1,m,Fri Dec 12 2025 15:41:00 GMT-0600 (Central Standard Time),552378.2999999821,CFD-WM-035-036-HC.jpg,1000,dash,I,m,648,4,3,48351.5,504026.7999999821,8038,ATS,C,21
20,test,3,C,haborder.png,0,z,Fri Dec 12 2025 15:41:00 GMT-0600 (Central Standard Time),555111.1999999881,CFD-BM-043-014-A.jpg,1900,solid,I,m,811,8,3,51084.40000000596,504026.7999999821,8038,ATS,C,22
21,test,3,C,mfborder.png,1,m,Fri Dec 12 2025 15:41:00 GMT-0600 (Central Standard Time),557926.599999994,CFD-WM-034-040-A.jpg,2000,dash,I,m,795,5,3,53899.80000001192,504026.7999999821,8038,ATS,C,23
22,test,3,C,haborder.png,1,z,Fri Dec 12 2025 15:41:00 GMT-0600 (Central Standard Time),560392.6999999881,CFD-WM-036-018-A.jpg,1400,solid,I,z,1041,7,3,56365.90000000596,504026.7999999821,8038,ATS,C,24
1,test,4,C,haborder.png,1,m,Fri Dec 12 2025 15:41:00 GMT-0600 (Central Standard Time),564158.2999999821,CFD-WM-028-005-HC.jpg,1500,solid,I,m,695,11,3,2216.399999976158,561941.900000006,8038,ATS,C,1
2,test,4,C,haborder.png,1,z,Fri Dec 12 2025 15:41:00 GMT-0600 (Central Standard Time),566674.099999994,CFD-WF-037-016-A.jpg,1700,solid,I,z,791,9,3,4732.199999988079,561941.900000006,8038,ATS,C,2
3,test,4,C,haborder.png,1,m,Fri Dec 12 2025 15:41:00 GMT-0600 (Central Standard Time),568973.400000006,CFD-BM-022-004-HC.jpg,1600,solid,I,m,593,10,3,7031.5,561941.900000006,8038,ATS,C,3
4,test,4,C,haborder.png,1,z,Fri Dec 12 2025 15:41:00 GMT-0600 (Central Standard Time),571539.1999999881,CFD-BF-002-018-A.jpg,1900,solid,I,z,640,8,3,9597.299999982119,561941.900000006,8038,ATS,C,4
5,test,4,C,mfborder.png,1,z,Fri Dec 12 2025 15:41:00 GMT-0600 (Central Standard Time),574338.2999999821,CFD-WF-013-009-HC.jpg,1700,dash,I,z,1074,1,3,12396.399999976158,561941.900000006,8038,ATS,C,5
6,test,4,C,haborder.png,1,z,Fri Dec 12 2025 15:41:00 GMT-0600 (Central Standard Time),576770.7999999821,CFD-BF-031-020-A.jpg,1400,solid,I,z,1014,7,3,14828.899999976158,561941.900000006,8038,ATS,C,6
7,test,4,C,mfborder.png,1,z,Fri Dec 12 2025 15:41:00 GMT-0600 (Central Standard Time),579253.2999999821,CFD-WF-023-013-A.jpg,1600,dash,I,z,862,2,3,17311.399999976158,561941.900000006,8038,ATS,C,7
8,test,4,C,mfborder.png,1,m,Fri Dec 12 2025 15:41:00 GMT-0600 (Central Standard Time),581369.5,CFD-WM-036-018-A.jpg,1200,dash,I,m,883,6,3,19427.59999999404,561941.900000006,8038,ATS,C,8
9,test,4,C,mfborder.png,1,m,Fri Dec 12 2025 15:41:00 GMT-0600 (Central Standard Time),583135.7999999821,CFD-BM-034-035-HC.jpg,1000,dash,I,m,735,4,3,21193.899999976158,561941.900000006,8038,ATS,C,9
10,test,4,C,mfborder.png,1,m,Fri Dec 12 2025 15:41:00 GMT-0600 (Central Standard Time),585034.900000006,CFD-WM-036-018-A.jpg,1200,dash,I,m,682,6,3,23093.0,561941.900000006,8038,ATS,C,10
11,test,4,C,haborder.png,1,z,Fri Dec 12 2025 15:41:00 GMT-0600 (Central Standard Time),587451.0,CFD-WF-037-016-A.jpg,1700,solid,I,z,690,9,3,25509.09999999404,561941.900000006,8038,ATS,C,11
12,test,4,C,mfborder.png,1,z,Fri Dec 12 2025 15:41:00 GMT-0600 (Central Standard Time),590033.900000006,CFD-BF-019-004-HC.jpg,1500,dash,I,z,1050,3,3,28092.0,561941.900000006,8038,ATS,C,12
13,test,4,C,mfborder.png,1,m,Fri Dec 12 2025 15:41:00 GMT-0600 (Central Standard Time),591943.900000006,CFD-BM-034-035-HC.jpg,1000,dash,I,m,894,4,3,30002.0,561941.900000006,8038,ATS,C,13
14,test,4,C,mfborder.png,1,z,Fri Dec 12 2025 15:41:00 GMT-0600 (Central Standard Time),594365.400000006,CFD-WF-023-013-A.jpg,1600,dash,I,z,796,2,3,32423.5,561941.900000006,8038,ATS,C,14
15,test,4,C,mfborder.png,1,z,Fri Dec 12 2025 15:41:00 GMT-0600 (Central Standard Time),596931.5,CFD-WF-013-009-HC.jpg,1700,dash,I,z,839,1,3,34989.59999999404,561941.900000006,8038,ATS,C,15
16,test,4,C,haborder.png,1,z,Fri Dec 12 2025 15:41:00 GMT-0600 (Central Standard Time),599363.7999999821,CFD-BF-031-020-A.jpg,1400,solid,I,z,1006,7,3,37421.89999997616,561941.900000006,8038,ATS,C,16
17,test,4,C,haborder.png,1,m,Fri Dec 12 2025 15:41:00 GMT-0600 (Central Standard Time),601163.0,CFD-WM-028-005-HC.jpg,1000,solid,I,m,779,12,3,39221.09999999404,561941.900000006,8038,ATS,C,17
18,test,4,C,mfborder.png,1,m,Fri Dec 12 2025 15:41:00 GMT-0600 (Central Standard Time),603996.099999994,CFD-BM-043-014-A.jpg,2000,dash,I,m,806,5,3,42054.19999998808,561941.900000006,8038,ATS,C,18
19,test,4,C,mfborder.png,1,z,Fri Dec 12 2025 15:41:00 GMT-0600 (Central Standard Time),606296.1999999881,CFD-BF-019-004-HC.jpg,1500,dash,I,z,778,3,3,44354.29999998212,561941.900000006,8038,ATS,C,19
20,test,4,C,mfborder.png,1,m,Fri Dec 12 2025 15:41:00 GMT-0600 (Central Standard Time),609061.099999994,CFD-BM-043-014-A.jpg,2000,dash,I,m,747,5,3,47119.19999998808,561941.900000006,8038,ATS,C,20
21,test,4,C,haborder.png,1,z,Fri Dec 12 2025 15:41:00 GMT-0600 (Central Standard Time),611660.2999999821,CFD-BF-002-018-A.jpg,1900,solid,I,z,673,8,3,49718.39999997616,561941.900000006,8038,ATS,C,21
22,test,4,C,haborder.png,1,m,Fri Dec 12 2025 15:41:00 GMT-0600 (Central Standard Time),613359.2999999821,CFD-WM-028-005-HC.jpg,1000,solid,I,m,668,12,3,51417.39999997616,561941.900000006,8038,ATS,C,22
23,test,4,C,haborder.png,1,m,Fri Dec 12 2025 15:41:00 GMT-0600 (Central Standard Time),615692.099999994,CFD-BM-022-004-HC.jpg,1600,solid,I,m,714,10,3,53750.19999998808,561941.900000006,8038,ATS,C,23
24,test,4,C,haborder.png,1,m,Fri Dec 12 2025 15:41:00 GMT-0600 (Central Standard Time),617824.7999999821,CFD-WM-028-005-HC.jpg,1500,solid,I,m,601,11,3,55882.89999997616,561941.900000006,8038,ATS,C,24
