acc_sum,block,block_c,change,condition,correct,correct_response,datetime,endtime,face,project,response,response_time,row_sel,session_number,start_end,starttime,subject_id,task,task_vers,trial
0,prac,1,,1-Back,,,Tue Nov 04 2025 14:39:59 GMT-0600 (Central Standard Time),,097_m_f_n_a.png,I,space,11547,1,1,,,8073,NNB,B,0
1,prac,1,0.0,1-Back,1.0,m,Tue Nov 04 2025 14:39:59 GMT-0600 (Central Standard Time),140898.90000000596,152_y_f_n_a.png,I,m,1479,2,1,2338.6000000089407,138560.29999999702,8073,NNB,B,1
2,prac,1,1.0,1-Back,1.0,z,Tue Nov 04 2025 14:39:59 GMT-0600 (Central Standard Time),142648.40000000596,152_y_f_n_a.png,I,z,972,3,1,1741.4000000059605,140907.0,8073,NNB,B,2
3,prac,1,0.0,1-Back,1.0,m,Tue Nov 04 2025 14:39:59 GMT-0600 (Central Standard Time),144531.09999999404,176_o_m_n_a.png,I,m,1006,4,1,1872.0,142659.09999999404,8073,NNB,B,3
4,prac,1,0.0,1-Back,1.0,m,Tue Nov 04 2025 14:39:59 GMT-0600 (Central Standard Time),146097.29999999702,126_m_m_n_a.png,I,m,698,5,1,1557.3999999910593,144539.90000000596,8073,NNB,B,4
5,prac,1,1.0,1-Back,1.0,z,Tue Nov 04 2025 14:39:59 GMT-0600 (Central Standard Time),147580.09999999404,126_m_m_n_a.png,I,z,691,6,1,1472.699999988079,146107.40000000596,8073,NNB,B,5
6,prac,1,0.0,1-Back,1.0,m,Tue Nov 04 2025 14:39:59 GMT-0600 (Central Standard Time),149131.09999999404,086_o_f_n_a.png,I,m,679,7,1,1540.5,147590.59999999404,8073,NNB,B,6
7,prac,1,0.0,1-Back,1.0,m,Tue Nov 04 2025 14:39:59 GMT-0600 (Central Standard Time),150663.90000000596,178_m_m_n_a.png,I,m,687,8,1,1522.5,149141.40000000596,8073,NNB,B,7
8,prac,1,0.0,1-Back,1.0,m,Tue Nov 04 2025 14:39:59 GMT-0600 (Central Standard Time),152012.0,097_m_f_n_a.png,I,m,560,9,1,1337.7000000029802,150674.29999999702,8073,NNB,B,8
9,prac,1,1.0,1-Back,1.0,z,Tue Nov 04 2025 14:39:59 GMT-0600 (Central Standard Time),153511.70000000298,097_m_f_n_a.png,I,z,720,10,1,1490.7000000029802,152021.0,8073,NNB,B,9
10,prac,1,0.0,1-Back,1.0,m,Tue Nov 04 2025 14:39:59 GMT-0600 (Central Standard Time),154911.20000000298,176_o_m_n_a.png,I,m,621,11,1,1390.7000000029802,153520.5,8073,NNB,B,10
11,prac,1,0.0,1-Back,1.0,m,Tue Nov 04 2025 14:39:59 GMT-0600 (Central Standard Time),156427.29999999702,173_y_f_n_a.png,I,m,646,12,1,1507.8999999910593,154919.40000000596,8073,NNB,B,11
0,test,1,0.0,1-Back,,,Tue Nov 04 2025 14:39:59 GMT-0600 (Central Standard Time),156427.29999999702,152_y_f_n_a.png,I,space,9330,1,1,1507.8999999910593,154919.40000000596,8073,NNB,B,0
1,test,1,0.0,1-Back,1.0,m,Tue Nov 04 2025 14:39:59 GMT-0600 (Central Standard Time),177987.09999999404,029_m_f_n_a.png,I,m,421,2,1,1443.0999999940395,176544.0,8073,NNB,B,1
2,test,1,0.0,1-Back,1.0,m,Tue Nov 04 2025 14:39:59 GMT-0600 (Central Standard Time),179486.59999999404,173_y_f_n_a.png,I,m,467,3,1,1494.0999999940395,177992.5,8073,NNB,B,2
3,test,1,1.0,1-Back,1.0,z,Tue Nov 04 2025 14:39:59 GMT-0600 (Central Standard Time),180919.70000000298,173_y_f_n_a.png,I,z,407,4,1,1427.6000000089407,179492.09999999404,8073,NNB,B,3
4,test,1,0.0,1-Back,1.0,m,Tue Nov 04 2025 14:39:59 GMT-0600 (Central Standard Time),182419.40000000596,029_m_f_n_a.png,I,m,469,5,1,1492.800000011921,180926.59999999404,8073,NNB,B,4
5,test,1,0.0,1-Back,1.0,m,Tue Nov 04 2025 14:39:59 GMT-0600 (Central Standard Time),184119.5,176_o_m_n_a.png,I,m,667,6,1,1694.2999999970198,182425.20000000298,8073,NNB,B,5
6,test,1,1.0,1-Back,1.0,z,Tue Nov 04 2025 14:39:59 GMT-0600 (Central Standard Time),185734.59999999404,176_o_m_n_a.png,I,z,584,7,1,1609.8999999910593,184124.70000000298,8073,NNB,B,6
7,test,1,0.0,1-Back,1.0,m,Tue Nov 04 2025 14:39:59 GMT-0600 (Central Standard Time),187317.40000000596,126_m_m_n_a.png,I,m,551,8,1,1576.6000000089407,185740.79999999702,8073,NNB,B,7
8,test,1,0.0,1-Back,1.0,m,Tue Nov 04 2025 14:39:59 GMT-0600 (Central Standard Time),189050.59999999404,086_o_f_n_a.png,I,m,710,9,1,1726.8999999910593,187323.70000000298,8073,NNB,B,8
9,test,1,0.0,1-Back,1.0,m,Tue Nov 04 2025 14:39:59 GMT-0600 (Central Standard Time),190599.79999999702,126_m_m_n_a.png,I,m,523,10,1,1543.8999999910593,189055.90000000596,8073,NNB,B,9
10,test,1,0.0,1-Back,1.0,m,Tue Nov 04 2025 14:39:59 GMT-0600 (Central Standard Time),192232.79999999702,153_y_m_n_a.png,I,m,614,11,1,1627.5,190605.29999999702,8073,NNB,B,10
11,test,1,1.0,1-Back,1.0,z,Tue Nov 04 2025 14:39:59 GMT-0600 (Central Standard Time),193848.79999999702,153_y_m_n_a.png,I,z,598,12,1,1610.5999999940395,192238.20000000298,8073,NNB,B,11
12,test,1,0.0,1-Back,1.0,m,Tue Nov 04 2025 14:39:59 GMT-0600 (Central Standard Time),195531.70000000298,110_o_f_n_a.png,I,m,654,13,1,1678.0,193853.70000000298,8073,NNB,B,12
13,test,1,1.0,1-Back,1.0,z,Tue Nov 04 2025 14:39:59 GMT-0600 (Central Standard Time),197131.20000000298,110_o_f_n_a.png,I,z,570,14,1,1593.6000000089407,195537.59999999404,8073,NNB,B,13
14,test,1,0.0,1-Back,1.0,m,Tue Nov 04 2025 14:39:59 GMT-0600 (Central Standard Time),198764.09999999404,013_y_m_n_a.png,I,m,602,15,1,1627.2999999970198,197136.79999999702,8073,NNB,B,14
15,test,1,0.0,1-Back,1.0,m,Tue Nov 04 2025 14:39:59 GMT-0600 (Central Standard Time),200363.29999999702,097_m_f_n_a.png,I,m,570,16,1,1593.7999999970198,198769.5,8073,NNB,B,15
16,test,1,0.0,1-Back,1.0,m,Tue Nov 04 2025 14:39:59 GMT-0600 (Central Standard Time),202029.79999999702,065_o_m_n_a.png,I,m,634,17,1,1661.2000000029802,200368.59999999404,8073,NNB,B,16
17,test,1,0.0,1-Back,1.0,m,Tue Nov 04 2025 14:39:59 GMT-0600 (Central Standard Time),203578.79999999702,097_m_f_n_a.png,I,m,528,18,1,1543.3999999910593,202035.40000000596,8073,NNB,B,17
0,test,2,0.0,1-Back,,,Tue Nov 04 2025 14:39:59 GMT-0600 (Central Standard Time),203578.79999999702,126_m_m_n_a.png,I,space,8092,1,1,1543.3999999910593,202035.40000000596,8073,NNB,B,0
1,test,2,0.0,1-Back,1.0,m,Tue Nov 04 2025 14:39:59 GMT-0600 (Central Standard Time),215208.90000000596,029_m_f_n_a.png,I,m,490,2,1,1510.4000000059605,213698.5,8073,NNB,B,1
2,test,2,1.0,1-Back,1.0,z,Tue Nov 04 2025 14:39:59 GMT-0600 (Central Standard Time),216974.79999999702,029_m_f_n_a.png,I,z,741,3,1,1761.0999999940395,215213.70000000298,8073,NNB,B,2
3,test,2,0.0,1-Back,1.0,m,Tue Nov 04 2025 14:39:59 GMT-0600 (Central Standard Time),218624.29999999702,126_m_m_n_a.png,I,m,623,4,1,1644.2000000029802,216980.09999999404,8073,NNB,B,3
4,test,2,0.0,1-Back,1.0,m,Tue Nov 04 2025 14:39:59 GMT-0600 (Central Standard Time),220257.29999999702,153_y_m_n_a.png,I,m,605,5,1,1627.2999999970198,218630.0,8073,NNB,B,4
5,test,2,0.0,1-Back,1.0,m,Tue Nov 04 2025 14:39:59 GMT-0600 (Central Standard Time),221956.70000000298,152_y_f_n_a.png,I,m,677,6,1,1694.1000000089407,220262.59999999404,8073,NNB,B,5
6,test,2,1.0,1-Back,1.0,z,Tue Nov 04 2025 14:39:59 GMT-0600 (Central Standard Time),223489.5,152_y_f_n_a.png,I,z,514,7,1,1526.7999999970198,221962.70000000298,8073,NNB,B,6
7,test,2,0.0,1-Back,1.0,m,Tue Nov 04 2025 14:39:59 GMT-0600 (Central Standard Time),225139.20000000298,153_y_m_n_a.png,I,m,621,8,1,1643.7999999970198,223495.40000000596,8073,NNB,B,7
8,test,2,0.0,1-Back,1.0,m,Tue Nov 04 2025 14:39:59 GMT-0600 (Central Standard Time),226771.90000000596,110_o_f_n_a.png,I,m,603,9,1,1627.7000000029802,225144.20000000298,8073,NNB,B,8
9,test,2,0.0,1-Back,1.0,m,Tue Nov 04 2025 14:39:59 GMT-0600 (Central Standard Time),228404.59999999404,178_m_m_n_a.png,I,m,609,10,1,1627.0999999940395,226777.5,8073,NNB,B,9
10,test,2,1.0,1-Back,1.0,z,Tue Nov 04 2025 14:39:59 GMT-0600 (Central Standard Time),229921.0,178_m_m_n_a.png,I,z,498,11,1,1510.2999999970198,228410.70000000298,8073,NNB,B,10
11,test,2,0.0,1-Back,1.0,m,Tue Nov 04 2025 14:39:59 GMT-0600 (Central Standard Time),231670.40000000596,110_o_f_n_a.png,I,m,732,12,1,1744.300000011921,229926.09999999404,8073,NNB,B,11
12,test,2,0.0,1-Back,1.0,m,Tue Nov 04 2025 14:39:59 GMT-0600 (Central Standard Time),233303.40000000596,086_o_f_n_a.png,I,m,616,13,1,1627.6000000089407,231675.79999999702,8073,NNB,B,12
13,test,2,0.0,1-Back,1.0,m,Tue Nov 04 2025 14:39:59 GMT-0600 (Central Standard Time),234819.29999999702,176_o_m_n_a.png,I,m,494,14,1,1511.0,233308.29999999702,8073,NNB,B,13
14,test,2,0.0,1-Back,1.0,m,Tue Nov 04 2025 14:39:59 GMT-0600 (Central Standard Time),236485.40000000596,065_o_m_n_a.png,I,m,634,15,1,1661.0,234824.40000000596,8073,NNB,B,14
15,test,2,1.0,1-Back,1.0,z,Tue Nov 04 2025 14:39:59 GMT-0600 (Central Standard Time),238084.90000000596,065_o_m_n_a.png,I,z,568,16,1,1593.5,236491.40000000596,8073,NNB,B,15
16,test,2,0.0,1-Back,1.0,m,Tue Nov 04 2025 14:39:59 GMT-0600 (Central Standard Time),239751.09999999404,013_y_m_n_a.png,I,m,649,17,1,1660.0999999940395,238091.0,8073,NNB,B,16
17,test,2,1.0,1-Back,1.0,z,Tue Nov 04 2025 14:39:59 GMT-0600 (Central Standard Time),241367.29999999702,013_y_m_n_a.png,I,z,599,18,1,1611.3999999910593,239755.90000000596,8073,NNB,B,17
0,test,3,1.0,1-Back,,,Tue Nov 04 2025 14:39:59 GMT-0600 (Central Standard Time),241367.29999999702,173_y_f_n_a.png,I,space,8359,1,1,1611.3999999910593,239755.90000000596,8073,NNB,B,0
1,test,3,0.0,1-Back,1.0,m,Tue Nov 04 2025 14:39:59 GMT-0600 (Central Standard Time),253330.40000000596,065_o_m_n_a.png,I,m,479,1,1,1493.2000000029802,251837.20000000298,8073,NNB,B,1
2,test,3,1.0,1-Back,1.0,z,Tue Nov 04 2025 14:39:59 GMT-0600 (Central Standard Time),255013.0,065_o_m_n_a.png,I,z,651,1,1,1677.0999999940395,253335.90000000596,8073,NNB,B,2
3,test,3,0.0,1-Back,1.0,m,Tue Nov 04 2025 14:39:59 GMT-0600 (Central Standard Time),256829.0,097_m_f_n_a.png,I,m,784,1,1,1810.0,255019.0,8073,NNB,B,3
4,test,3,1.0,1-Back,1.0,z,Tue Nov 04 2025 14:39:59 GMT-0600 (Central Standard Time),258345.40000000596,097_m_f_n_a.png,I,z,489,1,1,1511.0,256834.40000000596,8073,NNB,B,4
5,test,3,0.0,1-Back,1.0,m,Tue Nov 04 2025 14:39:59 GMT-0600 (Central Standard Time),260028.20000000298,110_o_f_n_a.png,I,m,653,1,1,1677.2999999970198,258350.90000000596,8073,NNB,B,5
6,test,3,0.0,1-Back,1.0,m,Tue Nov 04 2025 14:39:59 GMT-0600 (Central Standard Time),261744.29999999702,153_y_m_n_a.png,I,m,689,1,1,1711.0999999940395,260033.20000000298,8073,NNB,B,6
7,test,3,0.0,1-Back,1.0,m,Tue Nov 04 2025 14:39:59 GMT-0600 (Central Standard Time),263410.200000003,110_o_f_n_a.png,I,m,637,1,1,1659.4000000059605,261750.79999999702,8073,NNB,B,7
8,test,3,0.0,1-Back,1.0,m,Tue Nov 04 2025 14:39:59 GMT-0600 (Central Standard Time),265060.0,013_y_m_n_a.png,I,m,620,1,1,1644.0,263416.0,8073,NNB,B,8
9,test,3,1.0,1-Back,1.0,z,Tue Nov 04 2025 14:39:59 GMT-0600 (Central Standard Time),266526.799999997,013_y_m_n_a.png,I,z,441,1,1,1460.7999999970198,265066.0,8073,NNB,B,9
10,test,3,0.0,1-Back,1.0,m,Tue Nov 04 2025 14:39:59 GMT-0600 (Central Standard Time),268125.700000003,029_m_f_n_a.png,I,m,576,1,1,1593.6000000089407,266532.09999999404,8073,NNB,B,10
11,test,3,0.0,1-Back,1.0,m,Tue Nov 04 2025 14:39:59 GMT-0600 (Central Standard Time),269775.0,152_y_f_n_a.png,I,m,632,1,1,1643.7000000029802,268131.299999997,8073,NNB,B,11
12,test,3,1.0,1-Back,1.0,z,Tue Nov 04 2025 14:39:59 GMT-0600 (Central Standard Time),271407.59999999404,152_y_f_n_a.png,I,z,615,1,1,1627.3999999910593,269780.200000003,8073,NNB,B,12
13,test,3,0.0,1-Back,1.0,m,Tue Nov 04 2025 14:39:59 GMT-0600 (Central Standard Time),273107.40000000596,029_m_f_n_a.png,I,m,677,1,1,1694.4000000059605,271413.0,8073,NNB,B,13
14,test,3,0.0,1-Back,1.0,m,Tue Nov 04 2025 14:39:59 GMT-0600 (Central Standard Time),274706.90000000596,126_m_m_n_a.png,I,m,571,1,1,1594.0,273112.90000000596,8073,NNB,B,14
15,test,3,1.0,1-Back,1.0,z,Tue Nov 04 2025 14:39:59 GMT-0600 (Central Standard Time),276239.90000000596,126_m_m_n_a.png,I,z,507,1,1,1527.6000000089407,274712.299999997,8073,NNB,B,15
16,test,3,0.0,1-Back,1.0,m,Tue Nov 04 2025 14:39:59 GMT-0600 (Central Standard Time),277822.799999997,086_o_f_n_a.png,I,m,558,1,1,1577.0999999940395,276245.700000003,8073,NNB,B,16
17,test,3,1.0,1-Back,1.0,z,Tue Nov 04 2025 14:39:59 GMT-0600 (Central Standard Time),279422.09999999404,086_o_f_n_a.png,I,z,574,1,1,1593.5999999940395,277828.5,8073,NNB,B,17
0,test,4,1.0,1-Back,,,Tue Nov 04 2025 14:39:59 GMT-0600 (Central Standard Time),279422.09999999404,097_m_f_n_a.png,I,space,2104,1,1,1593.5999999940395,277828.5,8073,NNB,B,0
1,test,4,0.0,1-Back,1.0,m,Tue Nov 04 2025 14:39:59 GMT-0600 (Central Standard Time),285137.09999999404,065_o_m_n_a.png,I,m,472,2,1,1494.2999999970198,283642.799999997,8073,NNB,B,1
2,test,4,0.0,1-Back,1.0,m,Tue Nov 04 2025 14:39:59 GMT-0600 (Central Standard Time),286753.299999997,097_m_f_n_a.png,I,m,589,3,1,1609.7999999970198,285143.5,8073,NNB,B,2
3,test,4,0.0,1-Back,1.0,m,Tue Nov 04 2025 14:39:59 GMT-0600 (Central Standard Time),288319.09999999404,110_o_f_n_a.png,I,m,540,4,1,1560.3999999910593,286758.700000003,8073,NNB,B,3
4,test,4,1.0,1-Back,1.0,z,Tue Nov 04 2025 14:39:59 GMT-0600 (Central Standard Time),289885.5,110_o_f_n_a.png,I,z,534,5,1,1560.2999999970198,288325.200000003,8073,NNB,B,4
5,test,4,0.0,1-Back,1.0,m,Tue Nov 04 2025 14:39:59 GMT-0600 (Central Standard Time),291551.5,152_y_f_n_a.png,I,m,649,6,1,1660.5,289891.0,8073,NNB,B,5
6,test,4,0.0,1-Back,1.0,m,Tue Nov 04 2025 14:39:59 GMT-0600 (Central Standard Time),293134.40000000596,153_y_m_n_a.png,I,m,558,7,1,1577.5,291556.90000000596,8073,NNB,B,6
7,test,4,1.0,1-Back,1.0,z,Tue Nov 04 2025 14:39:59 GMT-0600 (Central Standard Time),294667.299999997,153_y_m_n_a.png,I,z,512,8,1,1527.0999999940395,293140.200000003,8073,NNB,B,7
8,test,4,0.0,1-Back,1.0,m,Tue Nov 04 2025 14:39:59 GMT-0600 (Central Standard Time),296583.59999999404,152_y_f_n_a.png,I,m,883,9,1,1910.5,294673.09999999404,8073,NNB,B,8
9,test,4,0.0,1-Back,1.0,m,Tue Nov 04 2025 14:39:59 GMT-0600 (Central Standard Time),298216.299999997,178_m_m_n_a.png,I,m,614,10,1,1626.7999999970198,296589.5,8073,NNB,B,9
10,test,4,1.0,1-Back,1.0,z,Tue Nov 04 2025 14:39:59 GMT-0600 (Central Standard Time),299732.5,178_m_m_n_a.png,I,z,486,11,1,1511.5,298221.0,8073,NNB,B,10
11,test,4,0.0,1-Back,1.0,m,Tue Nov 04 2025 14:39:59 GMT-0600 (Central Standard Time),301365.09999999404,086_o_f_n_a.png,I,m,600,12,1,1627.3999999910593,299737.700000003,8073,NNB,B,11
12,test,4,0.0,1-Back,1.0,m,Tue Nov 04 2025 14:39:59 GMT-0600 (Central Standard Time),302914.700000003,176_o_m_n_a.png,I,m,529,13,1,1544.6000000089407,301370.09999999404,8073,NNB,B,12
13,test,4,0.0,1-Back,1.0,m,Tue Nov 04 2025 14:39:59 GMT-0600 (Central Standard Time),304480.90000000596,086_o_f_n_a.png,I,m,547,14,1,1558.7000000029802,302922.200000003,8073,NNB,B,13
14,test,4,0.0,1-Back,1.0,m,Tue Nov 04 2025 14:39:59 GMT-0600 (Central Standard Time),306097.09999999404,173_y_f_n_a.png,I,m,597,15,1,1610.0999999940395,304487.0,8073,NNB,B,14
15,test,4,1.0,1-Back,1.0,z,Tue Nov 04 2025 14:39:59 GMT-0600 (Central Standard Time),307580.0,173_y_f_n_a.png,I,z,460,16,1,1477.7000000029802,306102.299999997,8073,NNB,B,15
16,test,4,0.0,1-Back,1.0,m,Tue Nov 04 2025 14:39:59 GMT-0600 (Central Standard Time),309196.09999999404,029_m_f_n_a.png,I,m,593,17,1,1610.0,307586.09999999404,8073,NNB,B,16
17,test,4,1.0,1-Back,1.0,z,Tue Nov 04 2025 14:39:59 GMT-0600 (Central Standard Time),310979.0,029_m_f_n_a.png,I,z,762,18,1,1778.0999999940395,309200.90000000596,8073,NNB,B,17
0,test,5,1.0,1-Back,,,Tue Nov 04 2025 14:39:59 GMT-0600 (Central Standard Time),310979.0,176_o_m_n_a.png,I,space,4562,1,1,1778.0999999940395,309200.90000000596,8073,NNB,B,0
1,test,5,1.0,1-Back,1.0,z,Tue Nov 04 2025 14:39:59 GMT-0600 (Central Standard Time),319376.700000003,176_o_m_n_a.png,I,z,797,2,1,1810.7999999970198,317565.90000000596,8073,NNB,B,1
2,test,5,0.0,1-Back,1.0,m,Tue Nov 04 2025 14:39:59 GMT-0600 (Central Standard Time),321042.40000000596,152_y_f_n_a.png,I,m,646,3,1,1660.2000000029802,319382.200000003,8073,NNB,B,2
3,test,5,0.0,1-Back,1.0,m,Tue Nov 04 2025 14:39:59 GMT-0600 (Central Standard Time),322691.90000000596,153_y_m_n_a.png,I,m,620,4,1,1643.800000011921,321048.09999999404,8073,NNB,B,3
4,test,5,0.0,1-Back,1.0,m,Tue Nov 04 2025 14:39:59 GMT-0600 (Central Standard Time),324825.09999999404,152_y_f_n_a.png,I,m,1107,5,1,2126.7999999970198,322698.299999997,8073,NNB,B,4
5,test,5,0.0,1-Back,1.0,m,Tue Nov 04 2025 14:39:59 GMT-0600 (Central Standard Time),326607.799999997,126_m_m_n_a.png,I,m,764,6,1,1777.3999999910593,324830.40000000596,8073,NNB,B,5
6,test,5,1.0,1-Back,1.0,z,Tue Nov 04 2025 14:39:59 GMT-0600 (Central Standard Time),328190.200000003,126_m_m_n_a.png,I,z,550,7,1,1576.4000000059605,326613.799999997,8073,NNB,B,6
7,test,5,0.0,1-Back,1.0,m,Tue Nov 04 2025 14:39:59 GMT-0600 (Central Standard Time),329906.299999997,173_y_f_n_a.png,I,m,688,8,1,1711.0,328195.299999997,8073,NNB,B,7
8,test,5,0.0,1-Back,1.0,m,Tue Nov 04 2025 14:39:59 GMT-0600 (Central Standard Time),331572.40000000596,013_y_m_n_a.png,I,m,644,9,1,1661.1000000089407,329911.299999997,8073,NNB,B,8
9,test,5,0.0,1-Back,1.0,m,Tue Nov 04 2025 14:39:59 GMT-0600 (Central Standard Time),333390.0,173_y_f_n_a.png,I,m,785,10,1,1812.4000000059605,331577.59999999404,8073,NNB,B,9
10,test,5,0.0,1-Back,1.0,m,Tue Nov 04 2025 14:39:59 GMT-0600 (Central Standard Time),335054.5,086_o_f_n_a.png,I,m,634,11,1,1659.2999999970198,333395.200000003,8073,NNB,B,10
11,test,5,1.0,1-Back,1.0,z,Tue Nov 04 2025 14:39:59 GMT-0600 (Central Standard Time),336554.299999997,086_o_f_n_a.png,I,z,471,12,1,1494.8999999910593,335059.40000000596,8073,NNB,B,11
12,test,5,0.0,1-Back,1.0,m,Tue Nov 04 2025 14:39:59 GMT-0600 (Central Standard Time),338220.5,065_o_m_n_a.png,I,m,643,13,1,1660.9000000059605,336559.59999999404,8073,NNB,B,12
13,test,5,0.0,1-Back,1.0,m,Tue Nov 04 2025 14:39:59 GMT-0600 (Central Standard Time),339819.799999997,097_m_f_n_a.png,I,m,577,14,1,1594.0,338225.799999997,8073,NNB,B,13
14,test,5,1.0,1-Back,1.0,z,Tue Nov 04 2025 14:39:59 GMT-0600 (Central Standard Time),341302.700000003,097_m_f_n_a.png,I,z,466,15,1,1477.7999999970198,339824.90000000596,8073,NNB,B,14
15,test,5,0.0,1-Back,1.0,m,Tue Nov 04 2025 14:39:59 GMT-0600 (Central Standard Time),342935.5,065_o_m_n_a.png,I,m,608,16,1,1627.7000000029802,341307.799999997,8073,NNB,B,15
16,test,5,0.0,1-Back,1.0,m,Tue Nov 04 2025 14:39:59 GMT-0600 (Central Standard Time),344568.299999997,029_m_f_n_a.png,I,m,615,17,1,1628.0999999940395,342940.200000003,8073,NNB,B,16
17,test,5,0.0,1-Back,1.0,m,Tue Nov 04 2025 14:39:59 GMT-0600 (Central Standard Time),346217.799999997,178_m_m_n_a.png,I,m,621,18,1,1644.7999999970198,344573.0,8073,NNB,B,17
0,prac,1,0.0,2-Back,,,Tue Nov 04 2025 14:39:59 GMT-0600 (Central Standard Time),346217.799999997,013_y_m_n_a.png,I,space,8662,1,1,1644.7999999970198,344573.0,8073,NNB,B,0
0,prac,1,0.0,2-Back,,,Tue Nov 04 2025 14:39:59 GMT-0600 (Central Standard Time),346217.799999997,029_m_f_n_a.png,I,space,8662,2,1,1644.7999999970198,344573.0,8073,NNB,B,0
1,prac,1,1.0,2-Back,1.0,m,Tue Nov 04 2025 14:39:59 GMT-0600 (Central Standard Time),519997.40000000596,065_o_m_n_a.png,I,m,1029,3,1,1908.0,518089.40000000596,8073,NNB,B,1
2,prac,1,0.0,2-Back,1.0,m,Tue Nov 04 2025 14:39:59 GMT-0600 (Central Standard Time),522396.09999999404,086_o_f_n_a.png,I,m,1517,4,1,2390.199999988079,520005.90000000596,8073,NNB,B,2
3,prac,1,0.0,2-Back,1.0,z,Tue Nov 04 2025 14:39:59 GMT-0600 (Central Standard Time),524295.599999994,065_o_m_n_a.png,I,z,1113,5,1,1891.3999999910593,522404.200000003,8073,NNB,B,3
4,prac,1,1.0,2-Back,1.0,z,Tue Nov 04 2025 14:39:59 GMT-0600 (Central Standard Time),526394.900000006,086_o_f_n_a.png,I,z,1319,6,1,2091.4000000059605,524303.5,8073,NNB,B,4
5,prac,1,0.0,2-Back,1.0,m,Tue Nov 04 2025 14:39:59 GMT-0600 (Central Standard Time),528610.599999994,178_m_m_n_a.png,I,m,1344,7,1,2207.3999999910593,526403.200000003,8073,NNB,B,5
6,prac,1,0.0,2-Back,1.0,m,Tue Nov 04 2025 14:39:59 GMT-0600 (Central Standard Time),531327.200000003,176_o_m_n_a.png,I,m,1847,8,1,2710.2999999970198,528616.900000006,8073,NNB,B,6
7,prac,1,0.0,2-Back,1.0,m,Tue Nov 04 2025 14:39:59 GMT-0600 (Central Standard Time),533442.700000003,173_y_f_n_a.png,I,m,1254,9,1,2108.2999999970198,531334.400000006,8073,NNB,B,7
8,prac,1,1.0,2-Back,1.0,z,Tue Nov 04 2025 14:39:59 GMT-0600 (Central Standard Time),535142.200000003,176_o_m_n_a.png,I,z,915,10,1,1691.0,533451.200000003,8073,NNB,B,8
9,prac,1,0.0,2-Back,1.0,m,Tue Nov 04 2025 14:39:59 GMT-0600 (Central Standard Time),537324.900000006,152_y_f_n_a.png,I,m,1320,11,1,2174.5,535150.400000006,8073,NNB,B,9
9,prac,1,0.0,2-Back,0.0,m,Tue Nov 04 2025 14:39:59 GMT-0600 (Central Standard Time),539240.799999997,178_m_m_n_a.png,I,z,1138,12,1,1908.5,537332.299999997,8073,NNB,B,10
0,test,1,0.0,2-Back,,,Tue Nov 04 2025 14:39:59 GMT-0600 (Central Standard Time),539240.799999997,153_y_m_n_a.png,I,space,22276,1,1,1908.5,537332.299999997,8073,NNB,B,0
0,test,1,0.0,2-Back,,,Tue Nov 04 2025 14:39:59 GMT-0600 (Central Standard Time),539240.799999997,153_y_m_n_a.png,I,space,22276,2,1,1908.5,537332.299999997,8073,NNB,B,0
1,test,1,0.0,2-Back,1.0,m,Tue Nov 04 2025 14:39:59 GMT-0600 (Central Standard Time),578128.700000003,086_o_f_n_a.png,I,m,931,3,1,1944.1000000089407,576184.599999994,8073,NNB,B,1
2,test,1,0.0,2-Back,1.0,m,Tue Nov 04 2025 14:39:59 GMT-0600 (Central Standard Time),580427.900000006,126_m_m_n_a.png,I,m,1277,4,1,2293.7000000029802,578134.200000003,8073,NNB,B,2
3,test,1,1.0,2-Back,1.0,z,Tue Nov 04 2025 14:39:59 GMT-0600 (Central Standard Time),582344.0,086_o_f_n_a.png,I,z,882,5,1,1911.0,580433.0,8073,NNB,B,3
4,test,1,0.0,2-Back,1.0,m,Tue Nov 04 2025 14:39:59 GMT-0600 (Central Standard Time),584359.900000006,152_y_f_n_a.png,I,m,990,6,1,2010.300000011921,582349.599999994,8073,NNB,B,4
4,test,1,0.0,2-Back,0.0,m,Tue Nov 04 2025 14:39:59 GMT-0600 (Central Standard Time),587392.5,126_m_m_n_a.png,I,None,2015,7,1,3027.0,584365.5,8073,NNB,B,5
5,test,1,1.0,2-Back,1.0,z,Tue Nov 04 2025 14:39:59 GMT-0600 (Central Standard Time),589408.200000003,152_y_f_n_a.png,I,z,998,8,1,2010.6000000089407,587397.599999994,8073,NNB,B,6
6,test,1,0.0,2-Back,1.0,m,Tue Nov 04 2025 14:39:59 GMT-0600 (Central Standard Time),591490.900000006,013_y_m_n_a.png,I,m,1061,9,1,2077.9000000059605,589413.0,8073,NNB,B,7
7,test,1,0.0,2-Back,1.0,m,Tue Nov 04 2025 14:39:59 GMT-0600 (Central Standard Time),593723.799999997,110_o_f_n_a.png,I,m,1211,10,1,2228.0999999940395,591495.700000003,8073,NNB,B,8
8,test,1,1.0,2-Back,1.0,z,Tue Nov 04 2025 14:39:59 GMT-0600 (Central Standard Time),595423.099999994,013_y_m_n_a.png,I,z,682,11,1,1693.8999999910593,593729.200000003,8073,NNB,B,9
9,test,1,0.0,2-Back,1.0,m,Tue Nov 04 2025 14:39:59 GMT-0600 (Central Standard Time),597955.799999997,029_m_f_n_a.png,I,m,1510,12,1,2527.5,595428.299999997,8073,NNB,B,10
9,test,1,0.0,2-Back,0.0,m,Tue Nov 04 2025 14:39:59 GMT-0600 (Central Standard Time),600189.5,029_m_f_n_a.png,I,z,1210,13,1,2229.4000000059605,597960.099999994,8073,NNB,B,11
10,test,1,0.0,2-Back,1.0,m,Tue Nov 04 2025 14:39:59 GMT-0600 (Central Standard Time),602571.099999994,065_o_m_n_a.png,I,m,1354,14,1,2378.0999999940395,600193.0,8073,NNB,B,12
11,test,1,0.0,2-Back,1.0,m,Tue Nov 04 2025 14:39:59 GMT-0600 (Central Standard Time),604920.200000003,110_o_f_n_a.png,I,m,1323,15,1,2344.7999999970198,602575.400000006,8073,NNB,B,13
12,test,1,1.0,2-Back,1.0,z,Tue Nov 04 2025 14:39:59 GMT-0600 (Central Standard Time),606786.400000006,065_o_m_n_a.png,I,z,838,16,1,1862.300000011921,604924.099999994,8073,NNB,B,14
13,test,1,0.0,2-Back,1.0,m,Tue Nov 04 2025 14:39:59 GMT-0600 (Central Standard Time),608852.400000006,097_m_f_n_a.png,I,m,1044,17,1,2061.4000000059605,606791.0,8073,NNB,B,15
14,test,1,0.0,2-Back,1.0,m,Tue Nov 04 2025 14:39:59 GMT-0600 (Central Standard Time),611319.0,178_m_m_n_a.png,I,m,1450,18,1,2463.0999999940395,608855.900000006,8073,NNB,B,16
0,test,2,0.0,2-Back,,,Tue Nov 04 2025 14:39:59 GMT-0600 (Central Standard Time),611319.0,178_m_m_n_a.png,I,space,13592,1,1,2463.0999999940395,608855.900000006,8073,NNB,B,0
0,test,2,0.0,2-Back,,,Tue Nov 04 2025 14:39:59 GMT-0600 (Central Standard Time),611319.0,173_y_f_n_a.png,I,space,13592,2,1,2463.0999999940395,608855.900000006,8073,NNB,B,0
1,test,2,1.0,2-Back,1.0,z,Tue Nov 04 2025 14:39:59 GMT-0600 (Central Standard Time),632378.400000006,178_m_m_n_a.png,I,z,1305,3,1,2328.300000011921,630050.099999994,8073,NNB,B,1
2,test,2,0.0,2-Back,1.0,m,Tue Nov 04 2025 14:39:59 GMT-0600 (Central Standard Time),634961.0,097_m_f_n_a.png,I,m,1564,4,1,2578.9000000059605,632382.099999994,8073,NNB,B,2
2,test,2,0.0,2-Back,0.0,m,Tue Nov 04 2025 14:39:59 GMT-0600 (Central Standard Time),637243.599999994,173_y_f_n_a.png,I,z,1253,5,1,2279.0,634964.599999994,8073,NNB,B,3
3,test,2,0.0,2-Back,1.0,m,Tue Nov 04 2025 14:39:59 GMT-0600 (Central Standard Time),639359.5,065_o_m_n_a.png,I,m,1099,6,1,2111.5,637248.0,8073,NNB,B,4
4,test,2,0.0,2-Back,1.0,m,Tue Nov 04 2025 14:39:59 GMT-0600 (Central Standard Time),641508.799999997,152_y_f_n_a.png,I,m,1127,7,1,2143.7000000029802,639365.099999994,8073,NNB,B,5
5,test,2,1.0,2-Back,1.0,z,Tue Nov 04 2025 14:39:59 GMT-0600 (Central Standard Time),643341.5,065_o_m_n_a.png,I,z,802,8,1,1829.2000000029802,641512.299999997,8073,NNB,B,6
6,test,2,0.0,2-Back,1.0,m,Tue Nov 04 2025 14:39:59 GMT-0600 (Central Standard Time),645574.299999997,013_y_m_n_a.png,I,m,1201,9,1,2228.2999999970198,643346.0,8073,NNB,B,7
6,test,2,0.0,2-Back,0.0,m,Tue Nov 04 2025 14:39:59 GMT-0600 (Central Standard Time),647656.900000006,013_y_m_n_a.png,I,z,1062,10,1,2078.5,645578.400000006,8073,NNB,B,8
7,test,2,0.0,2-Back,1.0,m,Tue Nov 04 2025 14:39:59 GMT-0600 (Central Standard Time),650172.799999997,029_m_f_n_a.png,I,m,1493,11,1,2512.0,647660.799999997,8073,NNB,B,9
7,test,2,0.0,2-Back,0.0,m,Tue Nov 04 2025 14:39:59 GMT-0600 (Central Standard Time),652922.0,173_y_f_n_a.png,I,z,1730,12,1,2745.2999999970198,650176.700000003,8073,NNB,B,10
8,test,2,1.0,2-Back,1.0,z,Tue Nov 04 2025 14:39:59 GMT-0600 (Central Standard Time),655088.700000003,029_m_f_n_a.png,I,z,1147,13,1,2162.4000000059605,652926.299999997,8073,NNB,B,11
9,test,2,0.0,2-Back,1.0,m,Tue Nov 04 2025 14:39:59 GMT-0600 (Central Standard Time),657387.0,176_o_m_n_a.png,I,m,1279,14,1,2295.0999999940395,655091.900000006,8073,NNB,B,12
10,test,2,0.0,2-Back,1.0,m,Tue Nov 04 2025 14:39:59 GMT-0600 (Central Standard Time),660119.599999994,176_o_m_n_a.png,I,m,1707,15,1,2728.3999999910593,657391.200000003,8073,NNB,B,13
11,test,2,0.0,2-Back,1.0,m,Tue Nov 04 2025 14:39:59 GMT-0600 (Central Standard Time),662235.599999994,110_o_f_n_a.png,I,m,1095,16,1,2112.3999999910593,660123.200000003,8073,NNB,B,14
12,test,2,0.0,2-Back,1.0,m,Tue Nov 04 2025 14:39:59 GMT-0600 (Central Standard Time),664569.400000006,126_m_m_n_a.png,I,m,1315,17,1,2330.0,662239.400000006,8073,NNB,B,15
13,test,2,1.0,2-Back,1.0,z,Tue Nov 04 2025 14:39:59 GMT-0600 (Central Standard Time),666417.799999997,110_o_f_n_a.png,I,z,823,18,1,1845.0,664572.799999997,8073,NNB,B,16
0,test,3,1.0,2-Back,,,Tue Nov 04 2025 14:39:59 GMT-0600 (Central Standard Time),666417.799999997,153_y_m_n_a.png,I,space,7573,1,1,1845.0,664572.799999997,8073,NNB,B,0
0,test,3,1.0,2-Back,,,Tue Nov 04 2025 14:39:59 GMT-0600 (Central Standard Time),666417.799999997,153_y_m_n_a.png,I,space,7573,2,1,1845.0,664572.799999997,8073,NNB,B,0
1,test,3,0.0,2-Back,1.0,m,Tue Nov 04 2025 14:39:59 GMT-0600 (Central Standard Time),681113.099999994,110_o_f_n_a.png,I,m,956,3,1,1979.3999999910593,679133.700000003,8073,NNB,B,1
2,test,3,0.0,2-Back,1.0,m,Tue Nov 04 2025 14:39:59 GMT-0600 (Central Standard Time),683279.099999994,178_m_m_n_a.png,I,m,1133,4,1,2162.0,681117.099999994,8073,NNB,B,2
3,test,3,1.0,2-Back,1.0,z,Tue Nov 04 2025 14:39:59 GMT-0600 (Central Standard Time),685228.299999997,110_o_f_n_a.png,I,z,919,5,1,1945.2999999970198,683283.0,8073,NNB,B,3
4,test,3,0.0,2-Back,1.0,m,Tue Nov 04 2025 14:39:59 GMT-0600 (Central Standard Time),687494.400000006,013_y_m_n_a.png,I,m,1242,6,1,2262.4000000059605,685232.0,8073,NNB,B,4
4,test,3,0.0,2-Back,0.0,m,Tue Nov 04 2025 14:39:59 GMT-0600 (Central Standard Time),689393.900000006,178_m_m_n_a.png,I,z,880,7,1,1896.1000000089407,687497.799999997,8073,NNB,B,5
5,test,3,1.0,2-Back,1.0,z,Tue Nov 04 2025 14:39:59 GMT-0600 (Central Standard Time),691409.700000003,013_y_m_n_a.png,I,z,988,8,1,2012.1000000089407,689397.599999994,8073,NNB,B,6
6,test,3,0.0,2-Back,1.0,m,Tue Nov 04 2025 14:39:59 GMT-0600 (Central Standard Time),693742.299999997,173_y_f_n_a.png,I,m,1301,9,1,2328.7999999970198,691413.5,8073,NNB,B,7
7,test,3,0.0,2-Back,1.0,m,Tue Nov 04 2025 14:39:59 GMT-0600 (Central Standard Time),696091.900000006,126_m_m_n_a.png,I,m,1327,10,1,2343.6000000089407,693748.299999997,8073,NNB,B,8
8,test,3,1.0,2-Back,1.0,z,Tue Nov 04 2025 14:39:59 GMT-0600 (Central Standard Time),697991.099999994,173_y_f_n_a.png,I,z,883,11,1,1895.0,696096.099999994,8073,NNB,B,9
9,test,3,1.0,2-Back,1.0,z,Tue Nov 04 2025 14:39:59 GMT-0600 (Central Standard Time),699923.799999997,126_m_m_n_a.png,I,z,911,12,1,1929.5,697994.299999997,8073,NNB,B,10
10,test,3,0.0,2-Back,1.0,m,Tue Nov 04 2025 14:39:59 GMT-0600 (Central Standard Time),702889.400000006,110_o_f_n_a.png,I,m,1946,13,1,2961.0,699928.400000006,8073,NNB,B,11
11,test,3,0.0,2-Back,1.0,m,Tue Nov 04 2025 14:39:59 GMT-0600 (Central Standard Time),705638.700000003,097_m_f_n_a.png,I,m,1717,14,1,2745.1000000089407,702893.599999994,8073,NNB,B,12
12,test,3,0.0,2-Back,1.0,m,Tue Nov 04 2025 14:39:59 GMT-0600 (Central Standard Time),707938.099999994,065_o_m_n_a.png,I,m,1280,15,1,2295.3999999910593,705642.700000003,8073,NNB,B,13
13,test,3,1.0,2-Back,1.0,z,Tue Nov 04 2025 14:39:59 GMT-0600 (Central Standard Time),710137.099999994,097_m_f_n_a.png,I,z,1173,16,1,2195.5,707941.599999994,8073,NNB,B,14
14,test,3,0.0,2-Back,1.0,m,Tue Nov 04 2025 14:39:59 GMT-0600 (Central Standard Time),712186.799999997,086_o_f_n_a.png,I,m,1021,17,1,2045.0,710141.799999997,8073,NNB,B,15
14,test,3,0.0,2-Back,0.0,m,Tue Nov 04 2025 14:39:59 GMT-0600 (Central Standard Time),715219.099999994,086_o_f_n_a.png,I,None,2015,18,1,3028.699999988079,712190.400000006,8073,NNB,B,16
0,test,4,0.0,2-Back,,,Tue Nov 04 2025 14:39:59 GMT-0600 (Central Standard Time),715219.099999994,176_o_m_n_a.png,I,space,10899,1,1,3028.699999988079,712190.400000006,8073,NNB,B,0
0,test,4,0.0,2-Back,,,Tue Nov 04 2025 14:39:59 GMT-0600 (Central Standard Time),715219.099999994,152_y_f_n_a.png,I,space,10899,2,1,3028.699999988079,712190.400000006,8073,NNB,B,0
1,test,4,1.0,2-Back,1.0,z,Tue Nov 04 2025 14:39:59 GMT-0600 (Central Standard Time),733246.799999997,176_o_m_n_a.png,I,z,867,3,1,1895.8999999910593,731350.900000006,8073,NNB,B,1
2,test,4,1.0,2-Back,1.0,z,Tue Nov 04 2025 14:39:59 GMT-0600 (Central Standard Time),735380.299999997,152_y_f_n_a.png,I,z,1111,4,1,2129.8999999910593,733250.400000006,8073,NNB,B,2
3,test,4,0.0,2-Back,1.0,m,Tue Nov 04 2025 14:39:59 GMT-0600 (Central Standard Time),737628.599999994,110_o_f_n_a.png,I,m,1219,5,1,2244.5,735384.099999994,8073,NNB,B,3
4,test,4,0.0,2-Back,1.0,m,Tue Nov 04 2025 14:39:59 GMT-0600 (Central Standard Time),739827.900000006,110_o_f_n_a.png,I,m,1178,6,1,2195.9000000059605,737632.0,8073,NNB,B,4
5,test,4,0.0,2-Back,1.0,m,Tue Nov 04 2025 14:39:59 GMT-0600 (Central Standard Time),741977.5,029_m_f_n_a.png,I,m,1123,7,1,2145.5999999940395,739831.900000006,8073,NNB,B,5
6,test,4,0.0,2-Back,1.0,m,Tue Nov 04 2025 14:39:59 GMT-0600 (Central Standard Time),744160.099999994,013_y_m_n_a.png,I,m,1157,8,1,2178.699999988079,741981.400000006,8073,NNB,B,6
7,test,4,1.0,2-Back,1.0,z,Tue Nov 04 2025 14:39:59 GMT-0600 (Central Standard Time),745909.599999994,029_m_f_n_a.png,I,z,726,9,1,1745.8999999910593,744163.700000003,8073,NNB,B,7
8,test,4,0.0,2-Back,1.0,m,Tue Nov 04 2025 14:39:59 GMT-0600 (Central Standard Time),747858.900000006,126_m_m_n_a.png,I,m,921,10,1,1945.7000000029802,745913.200000003,8073,NNB,B,8
8,test,4,0.0,2-Back,0.0,m,Tue Nov 04 2025 14:39:59 GMT-0600 (Central Standard Time),749792.099999994,013_y_m_n_a.png,I,z,906,11,1,1929.3999999910593,747862.700000003,8073,NNB,B,9
9,test,4,0.0,2-Back,1.0,m,Tue Nov 04 2025 14:39:59 GMT-0600 (Central Standard Time),751824.299999997,086_o_f_n_a.png,I,m,1015,12,1,2028.5999999940395,749795.700000003,8073,NNB,B,10
10,test,4,0.0,2-Back,1.0,m,Tue Nov 04 2025 14:39:59 GMT-0600 (Central Standard Time),753923.700000003,153_y_m_n_a.png,I,m,1078,13,1,2095.0,751828.700000003,8073,NNB,B,11
11,test,4,1.0,2-Back,1.0,z,Tue Nov 04 2025 14:39:59 GMT-0600 (Central Standard Time),755790.099999994,086_o_f_n_a.png,I,z,843,14,1,1862.699999988079,753927.400000006,8073,NNB,B,12
12,test,4,1.0,2-Back,1.0,z,Tue Nov 04 2025 14:39:59 GMT-0600 (Central Standard Time),757838.900000006,153_y_m_n_a.png,I,z,1025,15,1,2044.5,755794.400000006,8073,NNB,B,13
13,test,4,0.0,2-Back,1.0,m,Tue Nov 04 2025 14:39:59 GMT-0600 (Central Standard Time),759921.900000006,178_m_m_n_a.png,I,m,1064,16,1,2078.9000000059605,757843.0,8073,NNB,B,14
14,test,4,0.0,2-Back,1.0,m,Tue Nov 04 2025 14:39:59 GMT-0600 (Central Standard Time),761971.299999997,097_m_f_n_a.png,I,m,1021,17,1,2046.0,759925.299999997,8073,NNB,B,15
15,test,4,1.0,2-Back,1.0,z,Tue Nov 04 2025 14:39:59 GMT-0600 (Central Standard Time),763687.299999997,178_m_m_n_a.png,I,z,682,18,1,1712.3999999910593,761974.900000006,8073,NNB,B,16
0,test,5,1.0,2-Back,,,Tue Nov 04 2025 14:39:59 GMT-0600 (Central Standard Time),763687.299999997,153_y_m_n_a.png,I,space,4607,1,1,1712.3999999910593,761974.900000006,8073,NNB,B,0
0,test,5,1.0,2-Back,,,Tue Nov 04 2025 14:39:59 GMT-0600 (Central Standard Time),763687.299999997,097_m_f_n_a.png,I,space,4607,2,1,1712.3999999910593,761974.900000006,8073,NNB,B,0
1,test,5,1.0,2-Back,1.0,z,Tue Nov 04 2025 14:39:59 GMT-0600 (Central Standard Time),774900.599999994,153_y_m_n_a.png,I,z,520,3,1,1544.2999999970198,773356.299999997,8073,NNB,B,1
2,test,5,1.0,2-Back,1.0,z,Tue Nov 04 2025 14:39:59 GMT-0600 (Central Standard Time),777016.200000003,097_m_f_n_a.png,I,z,1098,4,1,2112.0,774904.200000003,8073,NNB,B,2
3,test,5,0.0,2-Back,1.0,m,Tue Nov 04 2025 14:39:59 GMT-0600 (Central Standard Time),778982.5,086_o_f_n_a.png,I,m,934,5,1,1962.5999999940395,777019.900000006,8073,NNB,B,3
4,test,5,0.0,2-Back,1.0,m,Tue Nov 04 2025 14:39:59 GMT-0600 (Central Standard Time),781633.0,153_y_m_n_a.png,I,m,1632,6,1,2647.0999999940395,778985.900000006,8073,NNB,B,4
5,test,5,0.0,2-Back,1.0,m,Tue Nov 04 2025 14:39:59 GMT-0600 (Central Standard Time),783964.200000003,173_y_f_n_a.png,I,m,1311,7,1,2327.0,781637.200000003,8073,NNB,B,5
5,test,5,0.0,2-Back,0.0,m,Tue Nov 04 2025 14:39:59 GMT-0600 (Central Standard Time),785947.0,086_o_f_n_a.png,I,z,962,8,1,1979.0999999940395,783967.900000006,8073,NNB,B,6
6,test,5,1.0,2-Back,1.0,z,Tue Nov 04 2025 14:39:59 GMT-0600 (Central Standard Time),788129.299999997,173_y_f_n_a.png,I,z,1138,9,1,2178.5,785950.799999997,8073,NNB,B,7
7,test,5,0.0,2-Back,1.0,m,Tue Nov 04 2025 14:39:59 GMT-0600 (Central Standard Time),790296.299999997,065_o_m_n_a.png,I,m,1149,10,1,2163.2999999970198,788133.0,8073,NNB,B,8
8,test,5,0.0,2-Back,1.0,m,Tue Nov 04 2025 14:39:59 GMT-0600 (Central Standard Time),792278.400000006,029_m_f_n_a.png,I,m,959,11,1,1977.6000000089407,790300.799999997,8073,NNB,B,9
9,test,5,0.0,2-Back,1.0,m,Tue Nov 04 2025 14:39:59 GMT-0600 (Central Standard Time),794627.700000003,126_m_m_n_a.png,I,m,1328,12,1,2345.4000000059605,792282.299999997,8073,NNB,B,10
10,test,5,0.0,2-Back,1.0,m,Tue Nov 04 2025 14:39:59 GMT-0600 (Central Standard Time),797110.099999994,065_o_m_n_a.png,I,m,1451,13,1,2478.5999999940395,794631.5,8073,NNB,B,11
11,test,5,1.0,2-Back,1.0,z,Tue Nov 04 2025 14:39:59 GMT-0600 (Central Standard Time),799209.400000006,126_m_m_n_a.png,I,z,1080,14,1,2095.300000011921,797114.099999994,8073,NNB,B,12
12,test,5,0.0,2-Back,1.0,m,Tue Nov 04 2025 14:39:59 GMT-0600 (Central Standard Time),801542.099999994,152_y_f_n_a.png,I,m,1301,15,1,2328.5,799213.599999994,8073,NNB,B,13
13,test,5,0.0,2-Back,1.0,m,Tue Nov 04 2025 14:39:59 GMT-0600 (Central Standard Time),803541.099999994,176_o_m_n_a.png,I,m,975,16,1,1994.699999988079,801546.400000006,8073,NNB,B,14
14,test,5,0.0,2-Back,1.0,m,Tue Nov 04 2025 14:39:59 GMT-0600 (Central Standard Time),805724.0,029_m_f_n_a.png,I,m,1161,17,1,2178.7999999970198,803545.200000003,8073,NNB,B,15
15,test,5,1.0,2-Back,1.0,z,Tue Nov 04 2025 14:39:59 GMT-0600 (Central Standard Time),807573.599999994,176_o_m_n_a.png,I,z,818,18,1,1845.5999999940395,805728.0,8073,NNB,B,16
