acc_sum,block,block_c,condition,correct,correct_response,datetime,endtime,flanker,jitter,project,response,response_test_buffer_response,response_test_target_response,response_time,response_time_test_buffer_response,response_time_test_target_response,row_sel,session_number,start_end,starttime,subject_id,target,task,task_vers,time_test_buffer,time_test_buffer_response,time_test_constants,time_test_flanker,time_test_jitter,time_test_logger,time_test_target,time_test_target_response,time_test_variables,trial
1,prac,1,inc,1,z,Fri Dec 05 2025 14:18:38 GMT-0600 (Central Standard Time),99627.20000004768,window,1100,O,z,,,898,,,16,1,3293.5,96333.70000004768,7708,temper,AF,A,,,,,,,,,,1
2,prac,1,inc,1,z,Fri Dec 05 2025 14:18:38 GMT-0600 (Central Standard Time),102825.0,napkin,1100,O,z,,,748,,,12,1,3167.7000000476837,99657.29999995232,7708,friend,AF,A,,,,,,,,,,2
3,prac,1,inc,1,m,Fri Dec 05 2025 14:18:38 GMT-0600 (Central Standard Time),105540.79999995232,elated,900,O,m,,,504,,,6,1,2709.2999999523163,102831.5,7708,napkin,AF,A,,,,,,,,,,3
4,prac,1,con,1,z,Fri Dec 05 2025 14:18:38 GMT-0600 (Central Standard Time),108589.70000004768,love,1000,O,z,,,742,,,11,1,3042.600000023842,105547.10000002384,7708,love,AF,A,,,,,,,,,,4
5,prac,1,con,1,m,Fri Dec 05 2025 14:18:38 GMT-0600 (Central Standard Time),111272.20000004768,jacket,800,O,m,,,575,,,5,1,2675.2000000476837,108597.0,7708,jacket,AF,A,,,,,,,,,,5
6,prac,1,inc,1,z,Fri Dec 05 2025 14:18:38 GMT-0600 (Central Standard Time),113988.79999995232,rock,900,O,z,,,513,,,10,1,2709.0999999046326,111279.70000004768,7708,kind,AF,A,,,,,,,,,,6
7,prac,1,con,1,z,Fri Dec 05 2025 14:18:38 GMT-0600 (Central Standard Time),116887.10000002384,brutal,800,O,z,,,776,,,13,1,2873.2000000476837,114013.89999997616,7708,brutal,AF,A,,,,,,,,,,7
8,prac,1,inc,1,z,Fri Dec 05 2025 14:18:38 GMT-0600 (Central Standard Time),119652.89999997616,film,900,O,z,,,562,,,14,1,2758.399999976158,116894.5,7708,hate,AF,A,,,,,,,,,,8
9,prac,1,inc,1,m,Fri Dec 05 2025 14:18:38 GMT-0600 (Central Standard Time),122668.60000002384,brutal,1100,O,m,,,618,,,8,1,3009.399999976158,119659.20000004768,7708,window,AF,A,,,,,,,,,,9
10,prac,1,con,1,m,Fri Dec 05 2025 14:18:38 GMT-0600 (Central Standard Time),125800.89999997616,bell,1000,O,m,,,815,,,3,1,3125.600000023842,122675.29999995232,7708,bell,AF,A,,,,,,,,,,10
11,prac,1,con,1,z,Fri Dec 05 2025 14:18:38 GMT-0600 (Central Standard Time),128799.70000004768,rage,1000,O,z,,,693,,,15,1,2990.9000000953674,125808.79999995232,7708,rage,AF,A,,,,,,,,,,11
11,prac,1,con,0,m,Fri Dec 05 2025 14:18:38 GMT-0600 (Central Standard Time),131782.20000004768,remote,1000,O,z,,,677,,,7,1,2975.4000000953674,128806.79999995232,7708,remote,AF,A,,,,,,,,,,12
12,prac,1,con,1,z,Fri Dec 05 2025 14:18:38 GMT-0600 (Central Standard Time),134664.70000004768,elated,800,O,z,,,775,,,9,1,2876.100000023842,131788.60000002384,7708,elated,AF,A,,,,,,,,,,13
12,prac,1,con,0,m,Fri Dec 05 2025 14:18:38 GMT-0600 (Central Standard Time),138030.10000002384,step,800,O,z,,,1251,,,1,1,3359.8000000715256,134670.29999995232,7708,step,AF,A,,,,,,,,,,14
13,prac,1,inc,1,m,Fri Dec 05 2025 14:18:38 GMT-0600 (Central Standard Time),141362.39999997616,kind,900,O,m,,,1124,,,2,1,3325.5,138036.89999997616,7708,rock,AF,A,,,,,,,,,,15
14,prac,1,inc,1,m,Fri Dec 05 2025 14:18:38 GMT-0600 (Central Standard Time),144544.70000004768,hate,1100,O,m,,,775,,,4,1,3175.9000000953674,141368.79999995232,7708,film,AF,A,,,,,,,,,,16
1,test,1,inc,1,z,Fri Dec 05 2025 14:18:38 GMT-0600 (Central Standard Time),154275.79999995232,film,1100,O,z,z,None,724,525.0,199.0,48,1,2362.0,151913.79999995232,7708,hate,AF,A,140066,140066,138237,139349,138238,140599,139866,139866,140599,1
2,test,1,inc,1,m,Fri Dec 05 2025 14:18:38 GMT-0600 (Central Standard Time),156374.70000004768,kind,900,O,m,m,None,645,445.0,200.0,78,1,2076.100000023842,154298.60000002384,7708,rock,AF,A,142249,142249,140622,141532,140622,142698,142048,142048,142698,2
3,test,1,con,1,m,Fri Dec 05 2025 14:18:38 GMT-0600 (Central Standard Time),158507.39999997616,rock,1000,O,m,m,None,566,367.0,199.0,75,1,2110.2999999523163,156397.10000002384,7708,rock,AF,A,144448,144448,142720,143731,142722,144831,144248,144248,144830,3
4,test,1,inc,1,m,Fri Dec 05 2025 14:18:38 GMT-0600 (Central Standard Time),160806.10000002384,friend,1100,O,m,m,None,638,437.0,201.0,112,1,2277.7000000476837,158528.39999997616,7708,napkin,AF,A,146680,146680,144851,145963,144852,147129,146479,146479,147129,4
5,test,1,con,1,z,Fri Dec 05 2025 14:18:38 GMT-0600 (Central Standard Time),162805.79999995232,love,900,O,z,z,None,562,362.0,200.0,18,1,1993.0,160812.79999995232,7708,love,AF,A,148763,148764,147136,148047,147136,149129,148562,148562,149129,5
6,test,1,inc,1,m,Fri Dec 05 2025 14:18:38 GMT-0600 (Central Standard Time),165237.70000004768,friend,1100,O,m,m,None,795,596.0,199.0,120,1,2417.3000000715256,162820.39999997616,7708,remote,AF,A,150961,150961,149143,150246,149144,151561,150762,150762,151561,6
7,test,1,inc,1,z,Fri Dec 05 2025 14:18:38 GMT-0600 (Central Standard Time),167437.29999995232,remote,1000,O,z,z,None,664,464.0,200.0,39,1,2193.2999999523163,165244.0,7708,brutal,AF,A,153294,153294,151567,152577,151567,153760,153094,153094,153760,7
8,test,1,con,1,m,Fri Dec 05 2025 14:18:38 GMT-0600 (Central Standard Time),169469.70000004768,window,900,O,m,m,None,585,386.0,199.0,122,1,2022.6000000238419,167447.10000002384,7708,window,AF,A,155394,155395,153770,154678,153771,155793,155194,155195,155793,8
9,test,1,inc,1,z,Fri Dec 05 2025 14:18:38 GMT-0600 (Central Standard Time),171536.29999995232,rock,900,O,z,z,None,619,420.0,199.0,14,1,2061.0,169475.29999995232,7708,kind,AF,A,157427,157427,155798,156710,155799,157859,157227,157227,157859,9
10,test,1,con,1,m,Fri Dec 05 2025 14:18:38 GMT-0600 (Central Standard Time),173535.10000002384,rock,800,O,m,m,None,634,435.0,199.0,73,1,1981.1000000238419,171554.0,7708,rock,AF,A,159410,159410,157877,158693,157878,159858,159210,159210,159858,10
11,test,1,inc,1,z,Fri Dec 05 2025 14:18:38 GMT-0600 (Central Standard Time),175767.79999995232,window,1100,O,z,z,None,593,393.0,200.0,32,1,2223.2999999523163,173544.5,7708,friend,AF,A,161692,161692,159868,160976,159868,162091,161492,161492,162091,11
12,test,1,con,1,z,Fri Dec 05 2025 14:18:38 GMT-0600 (Central Standard Time),177901.0,friend,900,O,z,z,None,697,498.0,199.0,26,1,2126.7000000476837,175774.29999995232,7708,friend,AF,A,163725,163725,162097,163008,162098,164224,163525,163525,164224,12
13,test,1,con,1,z,Fri Dec 05 2025 14:18:38 GMT-0600 (Central Standard Time),179950.39999997616,kind,800,O,z,z,None,696,481.0,215.0,9,1,2026.6000000238419,177923.79999995232,7708,kind,AF,A,165790,165790,164247,165058,164248,166274,165574,165575,166273,13
14,test,1,con,1,z,Fri Dec 05 2025 14:18:38 GMT-0600 (Central Standard Time),182166.39999997616,brutal,1000,O,z,z,None,662,462.0,200.0,35,1,2195.399999976158,179971.0,7708,brutal,AF,A,168024,168024,166294,167307,166295,168489,167823,167823,168489,14
15,test,1,inc,1,z,Fri Dec 05 2025 14:18:38 GMT-0600 (Central Standard Time),184281.5,remote,1000,O,z,z,None,557,358.0,199.0,31,1,2092.100000023842,182189.39999997616,7708,friend,AF,A,170239,170239,168512,169522,168514,170605,170039,170039,170605,15
16,test,1,con,1,m,Fri Dec 05 2025 14:18:38 GMT-0600 (Central Standard Time),186498.29999995232,window,1100,O,m,m,None,576,376.0,200.0,124,1,2210.2999999523163,184288.0,7708,window,AF,A,172439,172439,170611,171722,170611,172821,172238,172238,172821,16
17,test,1,inc,1,z,Fri Dec 05 2025 14:18:38 GMT-0600 (Central Standard Time),188564.20000004768,rock,900,O,z,z,None,599,399.0,200.0,46,1,2042.0,186522.20000004768,7708,hate,AF,A,174472,174472,172845,173755,172846,174887,174271,174271,174887,17
18,test,1,con,1,z,Fri Dec 05 2025 14:18:38 GMT-0600 (Central Standard Time),190846.29999995232,elated,1000,O,z,z,None,719,520.0,199.0,3,1,2260.5,188585.79999995232,7708,elated,AF,A,176637,176637,174909,175920,174910,177169,176437,176437,177169,18
19,test,1,inc,1,m,Fri Dec 05 2025 14:18:38 GMT-0600 (Central Standard Time),193129.20000004768,love,1000,O,m,m,None,735,535.0,200.0,71,1,2276.8000000715256,190852.39999997616,7708,step,AF,A,178904,178904,177175,178187,177176,179452,178703,178703,179452,19
20,test,1,con,1,z,Fri Dec 05 2025 14:18:38 GMT-0600 (Central Standard Time),195395.20000004768,rage,1100,O,z,z,None,607,407.0,200.0,52,1,2244.9000000953674,193150.29999995232,7708,rage,AF,A,181303,181303,179473,180586,179474,181718,181102,181102,181718,20
21,test,1,con,1,m,Fri Dec 05 2025 14:18:38 GMT-0600 (Central Standard Time),197477.29999995232,jacket,1000,O,m,m,None,520,321.0,199.0,99,1,2059.899999976158,195417.39999997616,7708,jacket,AF,A,183468,183468,181740,182751,181742,183800,183268,183268,183800,21
22,test,1,inc,1,m,Fri Dec 05 2025 14:18:38 GMT-0600 (Central Standard Time),199644.0,kind,900,O,m,m,None,716,517.0,199.0,70,1,2158.899999976158,197485.10000002384,7708,step,AF,A,185434,185434,183808,184718,183808,185967,185235,185235,185967,22
23,test,1,con,1,m,Fri Dec 05 2025 14:18:38 GMT-0600 (Central Standard Time),201860.20000004768,jacket,1100,O,m,m,None,565,366.0,199.0,100,1,2194.2000000476837,199666.0,7708,jacket,AF,A,187817,187817,185989,187100,185990,188183,187617,187617,188183,23
24,test,1,inc,1,m,Fri Dec 05 2025 14:18:38 GMT-0600 (Central Standard Time),203925.89999997616,elated,800,O,m,m,None,705,506.0,199.0,101,1,2044.1000000238419,201881.79999995232,7708,jacket,AF,A,189733,189733,188205,189016,188206,190249,189533,189533,190249,24
25,test,1,inc,1,m,Fri Dec 05 2025 14:18:38 GMT-0600 (Central Standard Time),205892.5,elated,800,O,m,m,None,615,416.0,199.0,109,1,1945.6000000238419,203946.89999997616,7708,napkin,AF,A,191799,191799,190270,191083,190271,192216,191599,191599,192216,25
26,test,1,con,1,m,Fri Dec 05 2025 14:18:38 GMT-0600 (Central Standard Time),207857.89999997616,napkin,900,O,m,m,None,501,302.0,199.0,106,1,1945.0,205912.89999997616,7708,napkin,AF,A,193865,193865,192236,193148,192238,194181,193665,193665,194181,26
27,test,1,con,1,m,Fri Dec 05 2025 14:18:38 GMT-0600 (Central Standard Time),210123.79999995232,step,1100,O,m,m,None,599,400.0,199.0,68,1,2245.5999999046326,207878.20000004768,7708,step,AF,A,196031,196031,194201,195314,194202,196447,195831,195831,196447,27
28,test,1,inc,1,z,Fri Dec 05 2025 14:18:38 GMT-0600 (Central Standard Time),212239.60000002384,napkin,900,O,z,z,None,652,453.0,199.0,30,1,2095.0,210144.60000002384,7708,friend,AF,A,198097,198097,196468,197381,196469,198563,197897,197897,198563,28
29,test,1,con,1,z,Fri Dec 05 2025 14:18:38 GMT-0600 (Central Standard Time),214272.60000002384,rage,1000,O,z,z,None,468,269.0,199.0,51,1,2013.2000000476837,212259.39999997616,7708,rage,AF,A,200313,200313,198582,199596,198584,200596,200113,200113,200596,29
30,test,1,inc,1,m,Fri Dec 05 2025 14:18:38 GMT-0600 (Central Standard Time),216188.10000002384,rage,800,O,m,m,None,563,364.0,199.0,77,1,1893.7000000476837,214294.39999997616,7708,rock,AF,A,202146,202146,200617,201429,200619,202511,201946,201946,202511,30
31,test,1,con,1,z,Fri Dec 05 2025 14:18:38 GMT-0600 (Central Standard Time),218204.5,hate,800,O,z,z,None,681,482.0,199.0,41,1,2003.7999999523163,216200.70000004768,7708,hate,AF,A,204045,204045,202524,203329,202524,204528,203845,203845,204528,31
32,test,1,inc,1,m,Fri Dec 05 2025 14:18:38 GMT-0600 (Central Standard Time),220153.89999997616,rage,800,O,m,m,None,592,393.0,199.0,85,1,1929.5,218224.39999997616,7708,bell,AF,A,206078,206078,204547,205361,204549,206477,205878,205878,206477,32
33,test,1,inc,1,m,Fri Dec 05 2025 14:18:38 GMT-0600 (Central Standard Time),222536.5,friend,1100,O,m,m,None,728,528.0,200.0,104,1,2361.0,220175.5,7708,jacket,AF,A,208327,208327,206499,207610,206500,208860,208126,208126,208859,33
34,test,1,inc,1,m,Fri Dec 05 2025 14:18:38 GMT-0600 (Central Standard Time),224552.29999995232,temper,1000,O,m,m,None,452,253.0,199.0,103,1,1994.1999999284744,222558.10000002384,7708,jacket,AF,A,210610,210610,208881,209893,208882,210875,210410,210410,210875,34
35,test,1,con,1,m,Fri Dec 05 2025 14:18:38 GMT-0600 (Central Standard Time),226318.29999995232,window,800,O,m,m,None,404,205.0,199.0,121,1,1745.5,224572.79999995232,7708,window,AF,A,212426,212426,210896,211709,210897,212641,212226,212226,212641,35
35,test,1,con,0,z,Fri Dec 05 2025 14:18:38 GMT-0600 (Central Standard Time),228267.89999997616,temper,1000,O,m,m,None,390,191.0,199.0,59,1,1929.6999999284744,226338.20000004768,7708,temper,AF,A,214392,214392,212661,213675,212662,214591,214192,214192,214591,36
36,test,1,inc,1,m,Fri Dec 05 2025 14:18:38 GMT-0600 (Central Standard Time),230433.39999997616,kind,900,O,m,m,None,700,501.0,199.0,94,1,2144.5,228288.89999997616,7708,film,AF,A,216241,216241,214612,215524,214613,216757,216041,216041,216756,37
37,test,1,con,1,m,Fri Dec 05 2025 14:18:38 GMT-0600 (Central Standard Time),232616.39999997616,film,1100,O,m,m,None,544,344.0,200.0,92,1,2172.100000023842,230444.29999995232,7708,film,AF,A,218590,218590,216767,217874,216768,218939,218390,218390,218939,38
37,test,1,inc,0,m,Fri Dec 05 2025 14:18:38 GMT-0600 (Central Standard Time),234482.29999995232,love,1000,O,z,z,None,309,109.0,200.0,95,1,1844.2999999523163,232638.0,7708,film,AF,A,220689,220689,218961,219973,218962,220805,220489,220489,220805,39
38,test,1,inc,1,m,Fri Dec 05 2025 14:18:38 GMT-0600 (Central Standard Time),236748.39999997616,hate,1100,O,m,m,None,616,416.0,200.0,80,1,2242.6999999284744,234505.70000004768,7708,rock,AF,A,222655,222655,220829,221939,220830,223072,222455,222455,223071,40
39,test,1,con,1,m,Fri Dec 05 2025 14:18:38 GMT-0600 (Central Standard Time),238631.0,bell,800,O,m,m,None,528,329.0,199.0,81,1,1861.2999999523163,236769.70000004768,7708,bell,AF,A,224622,224622,223093,223905,223094,224954,224421,224422,224954,41
40,test,1,inc,1,z,Fri Dec 05 2025 14:18:38 GMT-0600 (Central Standard Time),240663.70000004768,jacket,800,O,z,z,None,670,470.0,200.0,5,1,2011.4000000953674,238652.29999995232,7708,elated,AF,A,226504,226504,224975,225788,224976,226987,226304,226304,226987,42
41,test,1,inc,1,m,Fri Dec 05 2025 14:18:38 GMT-0600 (Central Standard Time),242629.70000004768,brutal,900,O,m,m,None,514,315.0,199.0,118,1,1944.8000000715256,240684.89999997616,7708,remote,AF,A,228636,228636,227008,227920,227009,228953,228437,228437,228953,43
42,test,1,inc,1,m,Fri Dec 05 2025 14:18:38 GMT-0600 (Central Standard Time),245112.39999997616,temper,1000,O,m,m,None,920,721.0,199.0,119,1,2462.1999999284744,242650.20000004768,7708,remote,AF,A,230702,230702,228973,229986,228974,231436,230503,230503,231435,44
43,test,1,con,1,m,Fri Dec 05 2025 14:18:38 GMT-0600 (Central Standard Time),247328.29999995232,remote,1100,O,m,m,None,552,352.0,200.0,116,1,2193.7999999523163,245134.5,7708,remote,AF,A,233286,233286,231458,232569,231459,233651,233085,233085,233651,45
44,test,1,con,1,m,Fri Dec 05 2025 14:18:38 GMT-0600 (Central Standard Time),249061.0,napkin,800,O,m,m,None,374,174.0,200.0,105,1,1712.5,247348.5,7708,napkin,AF,A,235201,235201,233672,234484,233673,235384,235001,235001,235384,46
44,test,1,inc,0,z,Fri Dec 05 2025 14:18:38 GMT-0600 (Central Standard Time),250960.39999997616,bell,1000,O,m,m,None,344,145.0,199.0,23,1,1878.3999999761581,249082.0,7708,love,AF,A,237134,237134,235405,236417,235406,237284,236934,236934,237283,47
45,test,1,inc,1,m,Fri Dec 05 2025 14:18:38 GMT-0600 (Central Standard Time),252843.29999995232,brutal,900,O,m,m,None,425,226.0,199.0,110,1,1863.7999999523163,250979.5,7708,napkin,AF,A,238933,238933,237303,238217,237304,239166,238733,238734,239166,48
46,test,1,inc,1,z,Fri Dec 05 2025 14:18:38 GMT-0600 (Central Standard Time),254908.89999997616,rock,900,O,z,z,None,622,423.0,199.0,22,1,2053.0,252855.89999997616,7708,love,AF,A,240800,240800,239179,240083,239180,241232,240600,240600,241232,49
47,test,1,con,1,z,Fri Dec 05 2025 14:18:38 GMT-0600 (Central Standard Time),257058.39999997616,elated,900,O,z,z,None,683,484.0,199.0,2,1,2127.7999999523163,254930.60000002384,7708,elated,AF,A,242882,242882,241254,242165,241255,243381,242682,242682,243381,50
48,test,1,con,1,z,Fri Dec 05 2025 14:18:38 GMT-0600 (Central Standard Time),259207.5,hate,1000,O,z,z,None,595,395.0,200.0,43,1,2127.7999999523163,257079.70000004768,7708,hate,AF,A,245131,245132,243403,244415,243404,245531,244931,244931,245530,51
49,test,1,inc,1,m,Fri Dec 05 2025 14:18:38 GMT-0600 (Central Standard Time),261373.70000004768,hate,1100,O,m,m,None,530,331.0,199.0,96,1,2151.600000023842,259222.10000002384,7708,film,AF,A,247364,247364,245545,246648,245546,247697,247164,247164,247697,52
50,test,1,inc,1,z,Fri Dec 05 2025 14:18:38 GMT-0600 (Central Standard Time),263756.2999999523,window,1100,O,z,z,None,733,533.0,200.0,64,1,2363.899999976158,261392.39999997616,7708,temper,AF,A,249546,249546,247715,248830,247716,250079,249346,249346,250079,53
51,test,1,con,1,m,Fri Dec 05 2025 14:18:38 GMT-0600 (Central Standard Time),265705.60000002384,jacket,900,O,m,m,None,494,294.0,200.0,98,1,1926.2000000476837,263779.39999997616,7708,jacket,AF,A,251729,251729,250102,251013,250104,252029,251529,251529,252029,54
52,test,1,con,1,z,Fri Dec 05 2025 14:18:38 GMT-0600 (Central Standard Time),267871.5,temper,1100,O,z,z,None,511,312.0,199.0,60,1,2143.100000023842,265728.39999997616,7708,temper,AF,A,253878,253879,252051,253162,252053,254195,253679,253679,254194,55
53,test,1,inc,1,m,Fri Dec 05 2025 14:18:38 GMT-0600 (Central Standard Time),269954.2000000477,temper,1000,O,m,m,None,518,318.0,200.0,127,1,2061.8000000715256,267892.39999997616,7708,window,AF,A,255944,255945,254215,255228,254217,256277,255744,255744,256277,56
54,test,1,con,1,z,Fri Dec 05 2025 14:18:38 GMT-0600 (Central Standard Time),272103.2000000477,temper,900,O,z,z,None,694,495.0,199.0,58,1,2128.5,269974.7000000477,7708,temper,AF,A,257927,257927,256298,257211,256299,258426,257728,257728,258426,57
54,test,1,inc,0,z,Fri Dec 05 2025 14:18:38 GMT-0600 (Central Standard Time),273836.2000000477,step,800,O,m,m,None,382,183.0,199.0,53,1,1722.2000000476837,272114.0,7708,rage,AF,A,259960,259960,258437,259243,258438,260159,259760,259760,260159,58
55,test,1,con,1,m,Fri Dec 05 2025 14:18:38 GMT-0600 (Central Standard Time),275935.5,rock,1100,O,m,m,None,438,237.0,201.0,76,1,2080.2000000476837,273855.2999999523,7708,rock,AF,A,262010,262010,260178,261293,260179,262259,261808,261808,262258,59
56,test,1,inc,1,z,Fri Dec 05 2025 14:18:38 GMT-0600 (Central Standard Time),278051.7000000477,remote,1000,O,z,z,None,564,365.0,199.0,7,1,2098.4000000953674,275953.2999999523,7708,elated,AF,A,264009,264009,262276,263292,262277,264375,263809,263809,264375,60
57,test,1,con,1,z,Fri Dec 05 2025 14:18:38 GMT-0600 (Central Standard Time),280234.10000002384,rage,900,O,z,z,None,725,526.0,199.0,50,1,2165.899999976158,278068.2000000477,7708,rage,AF,A,266025,266025,264391,265308,264392,266557,265825,265825,266557,61
58,test,1,con,1,m,Fri Dec 05 2025 14:18:38 GMT-0600 (Central Standard Time),282433.39999997616,remote,800,O,m,m,None,835,635.0,200.0,113,1,2178.2999999523163,280255.10000002384,7708,remote,AF,A,268107,268108,266578,267390,266579,268756,267907,267907,268756,62
59,test,1,inc,1,z,Fri Dec 05 2025 14:18:38 GMT-0600 (Central Standard Time),284716.2000000477,window,1100,O,z,z,None,631,432.0,199.0,8,1,2263.5,282452.7000000477,7708,elated,AF,A,270606,270607,268776,269889,268777,271039,270407,270407,271039,63
60,test,1,inc,1,m,Fri Dec 05 2025 14:18:38 GMT-0600 (Central Standard Time),286898.7000000477,love,1000,O,m,m,None,619,419.0,200.0,87,1,2162.100000023842,284736.60000002384,7708,bell,AF,A,272788,272788,271060,272072,271060,273222,272588,272588,273222,64
60,test,1,con,0,m,Fri Dec 05 2025 14:18:38 GMT-0600 (Central Standard Time),288947.39999997616,remote,900,O,z,z,None,597,398.0,199.0,114,1,2026.8999999761581,286920.5,7708,remote,AF,A,274872,274872,273244,274155,273245,275271,274672,274672,275270,65
61,test,1,con,1,m,Fri Dec 05 2025 14:18:38 GMT-0600 (Central Standard Time),291147.10000002384,film,1000,O,m,m,None,659,459.0,200.0,91,1,2186.8000000715256,288960.2999999523,7708,film,AF,A,277004,277004,275283,276287,275284,277470,276804,276804,277470,66
62,test,1,inc,1,z,Fri Dec 05 2025 14:18:38 GMT-0600 (Central Standard Time),293146.60000002384,jacket,800,O,z,z,None,636,436.0,200.0,61,1,1978.1000000238419,291168.5,7708,temper,AF,A,279019,279019,277491,278303,277492,279470,278819,278819,279470,67
63,test,1,inc,1,z,Fri Dec 05 2025 14:18:38 GMT-0600 (Central Standard Time),295346.5,bell,1000,O,z,z,None,634,435.0,199.0,47,1,2180.100000023842,293166.39999997616,7708,hate,AF,A,281220,281220,279489,280503,279491,281670,281020,281020,281670,68
64,test,1,con,1,m,Fri Dec 05 2025 14:18:38 GMT-0600 (Central Standard Time),297162.0,film,800,O,m,m,None,450,251.0,199.0,89,1,1795.0,295367.0,7708,film,AF,A,283219,283219,281690,282502,281691,283485,283019,283019,283485,69
64,test,1,con,0,z,Fri Dec 05 2025 14:18:38 GMT-0600 (Central Standard Time),299377.89999997616,friend,1100,O,m,m,None,551,352.0,199.0,28,1,2194.2999999523163,297183.60000002384,7708,friend,AF,A,285335,285335,283507,284618,283508,285701,285135,285135,285701,70
65,test,1,inc,1,z,Fri Dec 05 2025 14:18:38 GMT-0600 (Central Standard Time),301493.7000000477,bell,1000,O,z,z,None,564,364.0,200.0,55,1,2095.4000000953674,299398.2999999523,7708,rage,AF,A,287451,287451,285721,286734,285722,287817,287250,287250,287817,71
66,test,1,con,1,z,Fri Dec 05 2025 14:18:38 GMT-0600 (Central Standard Time),303593.2999999523,love,1000,O,z,z,None,543,344.0,199.0,19,1,2077.5,301515.7999999523,7708,love,AF,A,289567,289567,287839,288850,287840,289916,289367,289367,289916,72
67,test,1,inc,1,m,Fri Dec 05 2025 14:18:38 GMT-0600 (Central Standard Time),305725.7000000477,love,1000,O,m,m,None,572,373.0,199.0,79,1,2114.8000000715256,303610.89999997616,7708,rock,AF,A,291665,291665,289934,290949,289935,292049,291466,291466,292049,73
68,test,1,con,1,z,Fri Dec 05 2025 14:18:38 GMT-0600 (Central Standard Time),307675.2999999523,brutal,800,O,z,z,None,591,392.0,199.0,33,1,1933.8999999761581,305741.39999997616,7708,brutal,AF,A,293599,293599,292064,292882,292067,293998,293399,293399,293998,74
69,test,1,con,1,m,Fri Dec 05 2025 14:18:38 GMT-0600 (Central Standard Time),309724.2999999523,step,1000,O,m,m,None,498,299.0,199.0,67,1,2028.6999999284744,307695.60000002384,7708,step,AF,A,295748,295748,294019,295032,294020,296047,295548,295548,296047,75
70,test,1,con,1,z,Fri Dec 05 2025 14:18:38 GMT-0600 (Central Standard Time),311890.5,kind,1100,O,z,z,None,501,301.0,200.0,12,1,2147.0,309743.5,7708,kind,AF,A,297898,297898,296066,297181,296068,298214,297697,297697,298213,76
71,test,1,inc,1,z,Fri Dec 05 2025 14:18:38 GMT-0600 (Central Standard Time),314156.2999999523,film,1100,O,z,z,None,607,407.0,200.0,24,1,2243.399999976158,311912.89999997616,7708,love,AF,A,300064,300064,298236,299347,298238,300480,299863,299863,300479,77
72,test,1,con,1,m,Fri Dec 05 2025 14:18:38 GMT-0600 (Central Standard Time),316305.7000000477,window,1000,O,m,m,None,593,394.0,199.0,123,1,2127.5,314178.2000000477,7708,window,AF,A,302229,302229,300501,301513,300502,302629,302029,302030,302629,78
73,test,1,con,1,z,Fri Dec 05 2025 14:18:38 GMT-0600 (Central Standard Time),318388.39999997616,rage,800,O,z,z,None,715,516.0,199.0,49,1,2062.2999999523163,316326.10000002384,7708,rage,AF,A,304179,304179,302649,303462,302650,304711,303979,303979,304711,79
74,test,1,con,1,m,Fri Dec 05 2025 14:18:38 GMT-0600 (Central Standard Time),320420.7999999523,napkin,1100,O,m,m,None,374,174.0,200.0,108,1,2014.0,318406.7999999523,7708,napkin,AF,A,306561,306561,304730,305845,304731,306744,306361,306361,306744,80
75,test,1,inc,1,z,Fri Dec 05 2025 14:18:38 GMT-0600 (Central Standard Time),322486.89999997616,napkin,900,O,z,z,None,604,405.0,199.0,38,1,2047.5,320439.39999997616,7708,brutal,AF,A,308394,308394,306762,307678,306763,308810,308194,308194,308810,81
75,test,1,inc,0,z,Fri Dec 05 2025 14:18:38 GMT-0600 (Central Standard Time),324386.2999999523,rock,900,O,m,m,None,434,235.0,199.0,54,1,1878.2999999523163,322508.0,7708,rage,AF,A,310460,310460,308831,309743,308832,310710,310260,310260,310709,82
76,test,1,con,1,z,Fri Dec 05 2025 14:18:38 GMT-0600 (Central Standard Time),326569.0,hate,1100,O,z,z,None,519,319.0,200.0,44,1,2162.7999999523163,324406.2000000477,7708,hate,AF,A,312559,312560,310729,311843,310731,312892,312359,312359,312892,83
77,test,1,con,1,m,Fri Dec 05 2025 14:18:38 GMT-0600 (Central Standard Time),328385.10000002384,step,800,O,m,m,None,460,261.0,199.0,65,1,1796.7000000476837,326588.39999997616,7708,step,AF,A,314442,314442,312911,313725,312912,314708,314242,314242,314708,84
78,test,1,inc,1,m,Fri Dec 05 2025 14:18:38 GMT-0600 (Central Standard Time),330533.7999999523,kind,900,O,m,m,None,695,496.0,199.0,86,1,2128.0999999046326,328405.7000000477,7708,bell,AF,A,316358,316358,314729,315642,314730,316857,316158,316158,316857,85
79,test,1,con,1,z,Fri Dec 05 2025 14:18:38 GMT-0600 (Central Standard Time),332700.2999999523,kind,1000,O,z,z,None,623,424.0,199.0,11,1,2155.0,330545.2999999523,7708,kind,AF,A,318591,318591,316868,317874,316869,319023,318391,318391,319023,86
80,test,1,con,1,z,Fri Dec 05 2025 14:18:38 GMT-0600 (Central Standard Time),334849.10000002384,love,1100,O,z,z,None,493,293.0,200.0,20,1,2129.8000000715256,332719.2999999523,7708,love,AF,A,320873,320873,319042,320156,319043,321172,320672,320673,321172,87
80,test,1,inc,0,m,Fri Dec 05 2025 14:18:38 GMT-0600 (Central Standard Time),336516.10000002384,rage,800,O,z,z,None,332,133.0,199.0,93,1,1656.3999999761581,334859.7000000477,7708,film,AF,A,322706,322706,321183,321989,321183,322839,322506,322506,322839,88
81,test,1,inc,1,z,Fri Dec 05 2025 14:18:38 GMT-0600 (Central Standard Time),338914.7000000477,film,1100,O,z,z,None,734,519.0,215.0,16,1,2378.600000023842,336536.10000002384,7708,kind,AF,A,324704,324704,322859,323972,322860,325238,324489,324489,325238,89
81,test,1,inc,0,z,Fri Dec 05 2025 14:18:38 GMT-0600 (Central Standard Time),340714.10000002384,jacket,800,O,m,m,None,434,235.0,199.0,29,1,1778.7000000476837,338935.39999997616,7708,friend,AF,A,326788,326788,325258,326071,325259,327037,326588,326588,327037,90
82,test,1,con,1,m,Fri Dec 05 2025 14:18:38 GMT-0600 (Central Standard Time),342780.60000002384,rock,900,O,m,m,None,615,415.0,200.0,74,1,2047.2000000476837,340733.39999997616,7708,rock,AF,A,328688,328688,327056,327970,327058,329104,328487,328487,329104,91
83,test,1,con,1,m,Fri Dec 05 2025 14:18:38 GMT-0600 (Central Standard Time),344879.60000002384,bell,900,O,m,m,None,638,438.0,200.0,82,1,2080.7000000476837,342798.89999997616,7708,bell,AF,A,330753,330753,329122,330037,329123,331203,330553,330553,331203,92
84,test,1,con,1,z,Fri Dec 05 2025 14:18:38 GMT-0600 (Central Standard Time),346895.7000000477,hate,900,O,z,z,None,561,362.0,199.0,42,1,1994.0,344901.7000000477,7708,hate,AF,A,332853,332853,331225,332136,331226,333219,332653,332653,333219,93
85,test,1,con,1,m,Fri Dec 05 2025 14:18:38 GMT-0600 (Central Standard Time),349128.2000000477,bell,1100,O,m,m,None,569,370.0,199.0,84,1,2212.4000000953674,346915.7999999523,7708,bell,AF,A,335069,335069,333239,334352,333240,335451,334869,334869,335451,94
86,test,1,con,1,z,Fri Dec 05 2025 14:18:38 GMT-0600 (Central Standard Time),351044.2999999523,elated,800,O,z,z,None,564,365.0,199.0,1,1,1895.3999999761581,349148.89999997616,7708,elated,AF,A,337001,337002,335472,336285,335472,337367,336801,336801,337367,95
87,test,1,con,1,z,Fri Dec 05 2025 14:18:38 GMT-0600 (Central Standard Time),352777.2999999523,friend,800,O,z,z,None,377,177.0,200.0,25,1,1712.1999999284744,351065.10000002384,7708,friend,AF,A,338918,338918,337388,338201,337390,339100,338717,338717,339100,96
87,test,1,inc,0,z,Fri Dec 05 2025 14:18:38 GMT-0600 (Central Standard Time),354676.89999997616,bell,1000,O,m,m,None,348,149.0,199.0,15,1,1880.3999999761581,352796.5,7708,kind,AF,A,340850,340850,339120,340134,339121,341000,340650,340650,341000,97
88,test,1,inc,1,z,Fri Dec 05 2025 14:18:38 GMT-0600 (Central Standard Time),356659.10000002384,step,800,O,z,z,None,617,417.0,200.0,45,1,1963.2000000476837,354695.89999997616,7708,hate,AF,A,342550,342550,341019,341833,341020,342982,342349,342349,342982,98
89,test,1,con,1,m,Fri Dec 05 2025 14:18:38 GMT-0600 (Central Standard Time),358641.7000000477,film,900,O,m,m,None,518,318.0,200.0,90,1,1962.6000000238419,356679.10000002384,7708,film,AF,A,344633,344633,343002,343916,343003,344965,344432,344432,344965,99
90,test,1,con,1,z,Fri Dec 05 2025 14:18:38 GMT-0600 (Central Standard Time),360991.10000002384,brutal,1100,O,z,z,None,696,496.0,200.0,36,1,2330.3000000715256,358660.7999999523,7708,brutal,AF,A,346815,346815,344984,346098,344985,347314,346614,346614,347314,100
91,test,1,inc,1,m,Fri Dec 05 2025 14:18:38 GMT-0600 (Central Standard Time),362956.5,rage,800,O,m,m,None,613,414.0,199.0,69,1,1945.2000000476837,361011.2999999523,7708,step,AF,A,348864,348864,347334,348147,347336,349280,348664,348664,349280,101
92,test,1,con,1,z,Fri Dec 05 2025 14:18:38 GMT-0600 (Central Standard Time),365056.39999997616,temper,800,O,z,z,None,761,562.0,199.0,57,1,2087.100000023842,362969.2999999523,7708,temper,AF,A,350813,350813,349292,350097,349293,351380,350613,350613,351379,102
93,test,1,inc,1,z,Fri Dec 05 2025 14:18:38 GMT-0600 (Central Standard Time),367038.89999997616,step,800,O,z,z,None,622,422.0,200.0,13,1,1963.0,365075.89999997616,7708,kind,AF,A,352929,352929,351399,352212,351400,353362,352729,352729,353362,103
94,test,1,con,1,z,Fri Dec 05 2025 14:18:38 GMT-0600 (Central Standard Time),368921.2999999523,love,800,O,z,z,None,517,318.0,199.0,17,1,1862.8999999761581,367058.39999997616,7708,love,AF,A,354912,354912,353381,354196,353382,355244,354712,354712,355244,104
95,test,1,inc,1,z,Fri Dec 05 2025 14:18:38 GMT-0600 (Central Standard Time),370887.39999997616,jacket,800,O,z,z,None,628,428.0,200.0,37,1,1953.5,368933.89999997616,7708,brutal,AF,A,356778,356778,355257,356062,355258,357210,356578,356578,357210,105
96,test,1,inc,1,m,Fri Dec 05 2025 14:18:38 GMT-0600 (Central Standard Time),373120.60000002384,hate,1100,O,m,m,None,594,395.0,199.0,72,1,2221.100000023842,370899.5,7708,step,AF,A,359044,359044,357223,358328,357223,359444,358844,358844,359444,106
97,test,1,con,1,m,Fri Dec 05 2025 14:18:38 GMT-0600 (Central Standard Time),375286.2999999523,bell,1000,O,m,m,None,606,406.0,200.0,83,1,2143.5999999046326,373142.7000000477,7708,bell,AF,A,361193,361193,359466,360477,359467,361609,360993,360993,361609,107
98,test,1,inc,1,m,Fri Dec 05 2025 14:18:38 GMT-0600 (Central Standard Time),377385.60000002384,brutal,900,O,m,m,None,643,444.0,199.0,102,1,2078.2000000476837,375307.39999997616,7708,jacket,AF,A,363259,363259,361630,362543,361631,363709,363059,363060,363709,108
99,test,1,inc,1,m,Fri Dec 05 2025 14:18:38 GMT-0600 (Central Standard Time),379501.60000002384,elated,800,O,m,m,None,755,556.0,199.0,117,1,2095.899999976158,377405.7000000477,7708,remote,AF,A,365259,365259,363729,364542,363731,365825,365059,365059,365825,109
100,test,1,inc,1,z,Fri Dec 05 2025 14:18:38 GMT-0600 (Central Standard Time),381850.89999997616,window,1100,O,z,z,None,685,485.0,200.0,40,1,2327.6999999284744,379523.2000000477,7708,brutal,AF,A,367674,367674,365846,366958,365848,368174,367474,367474,368174,110
101,test,1,con,1,z,Fri Dec 05 2025 14:18:38 GMT-0600 (Central Standard Time),384083.10000002384,elated,1100,O,z,z,None,573,374.0,199.0,4,1,2211.5,381871.60000002384,7708,elated,AF,A,370024,370024,368195,369307,368196,370406,369824,369824,370406,111
102,test,1,con,1,m,Fri Dec 05 2025 14:18:38 GMT-0600 (Central Standard Time),386116.10000002384,step,900,O,m,m,None,591,391.0,200.0,66,1,2018.3000000715256,384097.7999999523,7708,step,AF,A,372040,372040,370421,371323,370421,372439,371839,371839,372439,112
103,test,1,inc,1,z,Fri Dec 05 2025 14:18:38 GMT-0600 (Central Standard Time),388398.7000000477,remote,1000,O,z,z,None,721,522.0,199.0,63,1,2262.9000000953674,386135.7999999523,7708,temper,AF,A,374189,374189,372459,373473,372460,374722,373989,373989,374722,113
104,test,1,inc,1,z,Fri Dec 05 2025 14:18:38 GMT-0600 (Central Standard Time),390565.0,film,1100,O,z,z,None,514,315.0,199.0,56,1,2144.7999999523163,388420.2000000477,7708,rage,AF,A,376572,376572,374743,375855,374744,376888,376372,376372,376888,114
105,test,1,inc,1,m,Fri Dec 05 2025 14:18:38 GMT-0600 (Central Standard Time),392530.7000000477,brutal,900,O,m,m,None,499,300.0,199.0,126,1,1946.9000000953674,390583.7999999523,7708,window,AF,A,378538,378538,376907,377821,376908,378854,378338,378338,378854,115
106,test,1,con,1,z,Fri Dec 05 2025 14:18:38 GMT-0600 (Central Standard Time),394580.2999999523,kind,900,O,z,z,None,598,399.0,199.0,10,1,2029.0999999046326,392551.2000000477,7708,kind,AF,A,380504,380504,378874,379787,378875,380903,380304,380304,380903,116
107,test,1,inc,1,m,Fri Dec 05 2025 14:18:38 GMT-0600 (Central Standard Time),396495.39999997616,elated,800,O,m,m,None,552,353.0,199.0,125,1,1894.1000000238419,394601.2999999523,7708,window,AF,A,382453,382453,380924,381736,380925,382819,382252,382253,382818,117
108,test,1,inc,1,m,Fri Dec 05 2025 14:18:38 GMT-0600 (Central Standard Time),398628.5,temper,1000,O,m,m,None,599,399.0,200.0,111,1,2120.100000023842,396508.39999997616,7708,napkin,AF,A,384552,384552,382831,383836,382832,384952,384352,384352,384952,118
109,test,1,con,1,z,Fri Dec 05 2025 14:18:38 GMT-0600 (Central Standard Time),400861.39999997616,brutal,900,O,z,z,None,772,573.0,199.0,34,1,2213.7999999523163,398647.60000002384,7708,brutal,AF,A,386602,386602,384971,385885,384971,387184,386402,386402,387184,119
110,test,1,inc,1,m,Fri Dec 05 2025 14:18:38 GMT-0600 (Central Standard Time),403093.7999999523,friend,1100,O,m,m,None,573,373.0,200.0,128,1,2210.7999999523163,400883.0,7708,window,AF,A,389034,389034,387206,388317,387207,389417,388834,388834,389417,120
110,test,1,con,0,m,Fri Dec 05 2025 14:18:38 GMT-0600 (Central Standard Time),405459.7000000477,remote,1000,O,z,z,None,807,608.0,199.0,115,1,2347.2000000476837,403112.5,7708,remote,AF,A,391167,391167,389435,390450,389437,391783,390967,390967,391783,121
111,test,1,inc,1,z,Fri Dec 05 2025 14:18:38 GMT-0600 (Central Standard Time),407875.7000000477,napkin,900,O,z,z,None,957,758.0,199.0,62,1,2396.5,405479.2000000477,7708,temper,AF,A,393433,393433,391802,392717,391803,394199,393233,393233,394199,122
112,test,1,inc,1,z,Fri Dec 05 2025 14:18:38 GMT-0600 (Central Standard Time),410058.39999997616,napkin,900,O,z,z,None,717,518.0,199.0,6,1,2163.100000023842,407895.2999999523,7708,elated,AF,A,395849,395849,394218,395132,394220,396381,395649,395649,396381,123
113,test,1,inc,1,z,Fri Dec 05 2025 14:18:38 GMT-0600 (Central Standard Time),412040.60000002384,step,800,O,z,z,None,627,427.0,200.0,21,1,1962.3000000715256,410078.2999999523,7708,love,AF,A,397931,397931,396401,397215,396402,398364,397731,397731,398364,124
114,test,1,con,1,m,Fri Dec 05 2025 14:18:38 GMT-0600 (Central Standard Time),414156.89999997616,napkin,1000,O,m,m,None,573,373.0,200.0,107,1,2104.1999999284744,412052.7000000477,7708,napkin,AF,A,400097,400098,398376,399381,398376,400480,399897,399897,400480,125
115,test,1,con,1,m,Fri Dec 05 2025 14:18:38 GMT-0600 (Central Standard Time),415906.5,jacket,800,O,m,m,None,392,193.0,199.0,97,1,1730.2000000476837,414176.2999999523,7708,jacket,AF,A,402030,402030,400499,401313,400500,402230,401830,401830,402229,126
116,test,1,con,1,z,Fri Dec 05 2025 14:18:38 GMT-0600 (Central Standard Time),417905.7999999523,friend,1000,O,z,z,None,436,236.0,200.0,27,1,1980.7999999523163,415925.0,7708,friend,AF,A,403979,403979,402248,403263,402249,404229,403779,403779,404229,127
117,test,1,inc,1,m,Fri Dec 05 2025 14:18:38 GMT-0600 (Central Standard Time),420121.5,hate,1100,O,m,m,None,559,360.0,199.0,88,1,2195.399999976158,417926.10000002384,7708,bell,AF,A,406079,406079,404249,405362,404250,406445,405879,405879,406445,128
