acc_sum,block,block_c,block_cond,con_img,correct,correct_response,datetime,endtime,face,jitter,line,project,response,response_time,row_sel,session_number,start_end,starttime,subject_id,task,task_vers,trial
0,prac,1,A,haborder.png,0,z,Tue Jun 16 2026 11:29:48 GMT-0500 (Central Daylight Time),45923.5,CFD-BF-002-018-A.jpg,1200,solid,I,None,1516,6,2,3499.100000023842,42424.39999997616,8103,ATS,C,1
1,prac,1,A,haborder.png,1,z,Tue Jun 16 2026 11:29:48 GMT-0500 (Central Daylight Time),48939.19999998808,CFD-BM-043-014-A.jpg,1600,solid,I,z,629,2,2,6514.800000011921,42424.39999997616,8103,ATS,C,2
2,prac,1,A,haborder.png,1,m,Tue Jun 16 2026 11:29:48 GMT-0500 (Central Daylight Time),52089.39999997616,CFD-BM-034-035-HC.jpg,1700,solid,I,m,649,1,2,9665.0,42424.39999997616,8103,ATS,C,3
3,prac,1,A,haborder.png,1,m,Tue Jun 16 2026 11:29:48 GMT-0500 (Central Daylight Time),55653.69999998808,CFD-BF-019-004-HC.jpg,2000,solid,I,m,768,5,2,13229.300000011921,42424.39999997616,8103,ATS,C,4
4,prac,1,A,haborder.png,1,z,Tue Jun 16 2026 11:29:48 GMT-0500 (Central Daylight Time),58886.0,CFD-WM-036-018-A.jpg,1900,solid,I,z,533,8,2,16461.600000023842,42424.39999997616,8103,ATS,C,5
5,prac,1,A,haborder.png,1,m,Tue Jun 16 2026 11:29:48 GMT-0500 (Central Daylight Time),61801.60000002384,CFD-WM-028-005-HC.jpg,1400,solid,I,m,729,7,2,19377.200000047684,42424.39999997616,8103,ATS,C,6
6,prac,1,A,haborder.png,1,m,Tue Jun 16 2026 11:29:48 GMT-0500 (Central Daylight Time),65017.39999997616,CFD-WM-035-036-HC.jpg,1700,solid,I,m,731,9,2,22593.0,42424.39999997616,8103,ATS,C,7
7,prac,1,A,haborder.png,1,z,Tue Jun 16 2026 11:29:48 GMT-0500 (Central Daylight Time),67599.80000001192,CFD-BF-031-020-A.jpg,1000,solid,I,z,790,4,2,25175.400000035763,42424.39999997616,8103,ATS,C,8
8,prac,1,A,haborder.png,1,m,Tue Jun 16 2026 11:29:48 GMT-0500 (Central Daylight Time),70699.60000002384,CFD-BM-022-004-HC.jpg,1500,solid,I,m,811,3,2,28275.200000047684,42424.39999997616,8103,ATS,C,9
9,prac,1,A,haborder.png,1,z,Tue Jun 16 2026 11:29:48 GMT-0500 (Central Daylight Time),73231.60000002384,CFD-WF-023-013-A.jpg,1000,solid,I,z,733,12,2,30807.200000047684,42424.39999997616,8103,ATS,C,10
10,prac,1,A,haborder.png,1,z,Tue Jun 16 2026 11:29:48 GMT-0500 (Central Daylight Time),76463.80000001192,CFD-WF-037-016-A.jpg,1600,solid,I,z,833,10,2,34039.40000003576,42424.39999997616,8103,ATS,C,11
11,prac,1,A,haborder.png,1,m,Tue Jun 16 2026 11:29:48 GMT-0500 (Central Daylight Time),79479.89999997616,CFD-WF-013-009-HC.jpg,1500,solid,I,m,733,11,2,37055.5,42424.39999997616,8103,ATS,C,12
1,prac,1,B,mfborder.png,1,m,Tue Jun 16 2026 11:29:48 GMT-0500 (Central Daylight Time),92975.39999997616,CFD-WM-034-040-A.jpg,1200,6,I,m,758,dash,2,2749.5,90225.89999997616,8103,ATS,C,1
1,prac,1,B,mfborder.png,0,z,Tue Jun 16 2026 11:29:48 GMT-0500 (Central Daylight Time),95574.60000002384,CFD-WF-013-009-HC.jpg,1000,12,I,m,800,dash,2,5348.700000047684,90225.89999997616,8103,ATS,C,2
2,prac,1,B,mfborder.png,1,m,Tue Jun 16 2026 11:29:48 GMT-0500 (Central Daylight Time),98657.10000002384,CFD-WM-035-036-HC.jpg,1600,10,I,m,689,dash,2,8431.200000047684,90225.89999997616,8103,ATS,C,3
3,prac,1,B,mfborder.png,1,m,Tue Jun 16 2026 11:29:48 GMT-0500 (Central Daylight Time),102055.80000001192,CFD-BM-043-014-A.jpg,2000,5,I,m,599,dash,2,11829.900000035763,90225.89999997616,8103,ATS,C,4
4,prac,1,B,mfborder.png,1,m,Tue Jun 16 2026 11:29:48 GMT-0500 (Central Daylight Time),105239.30000001192,CFD-BM-022-004-HC.jpg,1700,1,I,m,699,dash,2,15013.400000035763,90225.89999997616,8103,ATS,C,5
5,prac,1,B,mfborder.png,1,z,Tue Jun 16 2026 11:29:48 GMT-0500 (Central Daylight Time),107970.69999998808,CFD-WF-037-016-A.jpg,1500,11,I,z,445,dash,2,17744.80000001192,90225.89999997616,8103,ATS,C,6
6,prac,1,B,mfborder.png,1,m,Tue Jun 16 2026 11:29:48 GMT-0500 (Central Daylight Time),110952.89999997616,CFD-BM-021-026-A.jpg,1600,2,I,m,590,dash,2,20727.0,90225.89999997616,8103,ATS,C,7
7,prac,1,B,mfborder.png,1,z,Tue Jun 16 2026 11:29:48 GMT-0500 (Central Daylight Time),113335.60000002384,CFD-BF-031-020-A.jpg,1000,4,I,z,591,dash,2,23109.700000047684,90225.89999997616,8103,ATS,C,8
8,prac,1,B,mfborder.png,1,m,Tue Jun 16 2026 11:29:48 GMT-0500 (Central Daylight Time),116484.80000001192,CFD-WM-036-018-A.jpg,1700,9,I,m,661,dash,2,26258.900000035763,90225.89999997616,8103,ATS,C,9
9,prac,1,B,mfborder.png,1,z,Tue Jun 16 2026 11:29:48 GMT-0500 (Central Daylight Time),120050.19999998808,CFD-WF-001-010-HC.jpg,1900,8,I,z,880,dash,2,29824.30000001192,90225.89999997616,8103,ATS,C,10
10,prac,1,B,mfborder.png,1,z,Tue Jun 16 2026 11:29:48 GMT-0500 (Central Daylight Time),122933.69999998808,CFD-BF-042-031-HC.jpg,1500,3,I,z,586,dash,2,32707.80000001192,90225.89999997616,8103,ATS,C,11
11,prac,1,B,mfborder.png,1,z,Tue Jun 16 2026 11:29:48 GMT-0500 (Central Daylight Time),126465.19999998808,CFD-BF-019-004-HC.jpg,1400,7,I,z,1347,dash,2,36239.30000001192,90225.89999997616,8103,ATS,C,12
1,test,1,A,haborder.png,1,m,Tue Jun 16 2026 11:29:48 GMT-0500 (Central Daylight Time),140127.39999997616,CFD-WM-035-036-HC.jpg,1700,solid,I,m,751,9,2,2482.699999988079,137644.69999998808,8103,ATS,C,1
2,test,1,A,haborder.png,1,m,Tue Jun 16 2026 11:29:48 GMT-0500 (Central Daylight Time),142093.19999998808,CFD-WM-028-005-HC.jpg,1400,solid,I,m,537,7,2,4448.5,137644.69999998808,8103,ATS,C,2
3,test,1,A,haborder.png,1,m,Tue Jun 16 2026 11:29:48 GMT-0500 (Central Daylight Time),144426.10000002384,CFD-WF-013-009-HC.jpg,1500,solid,I,m,806,11,2,6781.400000035763,137644.69999998808,8103,ATS,C,3
4,test,1,A,haborder.png,1,m,Tue Jun 16 2026 11:29:48 GMT-0500 (Central Daylight Time),146525.0,CFD-BM-022-004-HC.jpg,1500,solid,I,m,571,3,2,8880.300000011921,137644.69999998808,8103,ATS,C,4
5,test,1,A,haborder.png,1,m,Tue Jun 16 2026 11:29:48 GMT-0500 (Central Daylight Time),149357.60000002384,CFD-BF-019-004-HC.jpg,2000,solid,I,m,810,5,2,11712.900000035763,137644.69999998808,8103,ATS,C,5
6,test,1,A,haborder.png,1,z,Tue Jun 16 2026 11:29:48 GMT-0500 (Central Daylight Time),151907.10000002384,CFD-WM-036-018-A.jpg,1900,solid,I,z,623,8,2,14262.400000035763,137644.69999998808,8103,ATS,C,6
7,test,1,A,haborder.png,1,m,Tue Jun 16 2026 11:29:48 GMT-0500 (Central Daylight Time),154356.30000001192,CFD-WM-035-036-HC.jpg,1700,solid,I,m,721,9,2,16711.600000023842,137644.69999998808,8103,ATS,C,7
8,test,1,A,haborder.png,1,z,Tue Jun 16 2026 11:29:48 GMT-0500 (Central Daylight Time),156705.10000002384,CFD-BM-043-014-A.jpg,1600,solid,I,z,731,2,2,19060.400000035763,137644.69999998808,8103,ATS,C,8
9,test,1,A,haborder.png,1,z,Tue Jun 16 2026 11:29:48 GMT-0500 (Central Daylight Time),158504.69999998808,CFD-WF-023-013-A.jpg,1000,solid,I,z,774,12,2,20860.0,137644.69999998808,8103,ATS,C,9
10,test,1,A,haborder.png,1,m,Tue Jun 16 2026 11:29:48 GMT-0500 (Central Daylight Time),161004.0,CFD-BM-034-035-HC.jpg,1700,solid,I,m,772,1,2,23359.30000001192,137644.69999998808,8103,ATS,C,10
11,test,1,A,haborder.png,1,m,Tue Jun 16 2026 11:29:48 GMT-0500 (Central Daylight Time),164003.10000002384,CFD-WF-013-009-HC.jpg,1500,solid,I,m,1471,11,2,26358.400000035763,137644.69999998808,8103,ATS,C,11
12,test,1,A,haborder.png,1,z,Tue Jun 16 2026 11:29:48 GMT-0500 (Central Daylight Time),166286.89999997616,CFD-WF-037-016-A.jpg,1600,solid,I,z,660,10,2,28642.19999998808,137644.69999998808,8103,ATS,C,12
13,test,1,A,haborder.png,1,m,Tue Jun 16 2026 11:29:48 GMT-0500 (Central Daylight Time),168968.39999997616,CFD-BF-019-004-HC.jpg,2000,solid,I,m,650,5,2,31323.69999998808,137644.69999998808,8103,ATS,C,13
14,test,1,A,haborder.png,1,z,Tue Jun 16 2026 11:29:48 GMT-0500 (Central Daylight Time),171267.39999997616,CFD-WF-037-016-A.jpg,1600,solid,I,z,671,10,2,33622.69999998808,137644.69999998808,8103,ATS,C,14
15,test,1,A,haborder.png,1,m,Tue Jun 16 2026 11:29:48 GMT-0500 (Central Daylight Time),173733.39999997616,CFD-BM-034-035-HC.jpg,1700,solid,I,m,736,1,2,36088.69999998808,137644.69999998808,8103,ATS,C,15
16,test,1,A,haborder.png,1,z,Tue Jun 16 2026 11:29:48 GMT-0500 (Central Daylight Time),176265.69999998808,CFD-WM-036-018-A.jpg,1900,solid,I,z,614,8,2,38621.0,137644.69999998808,8103,ATS,C,16
17,test,1,A,haborder.png,1,z,Tue Jun 16 2026 11:29:48 GMT-0500 (Central Daylight Time),178448.5,CFD-BF-002-018-A.jpg,1200,solid,I,z,958,6,2,40803.80000001192,137644.69999998808,8103,ATS,C,17
18,test,1,A,haborder.png,1,z,Tue Jun 16 2026 11:29:48 GMT-0500 (Central Daylight Time),180064.89999997616,CFD-BF-031-020-A.jpg,1000,solid,I,z,592,4,2,42420.19999998808,137644.69999998808,8103,ATS,C,18
19,test,1,A,haborder.png,1,z,Tue Jun 16 2026 11:29:48 GMT-0500 (Central Daylight Time),181830.69999998808,CFD-BF-002-018-A.jpg,1200,solid,I,z,543,6,2,44186.0,137644.69999998808,8103,ATS,C,19
20,test,1,A,haborder.png,1,z,Tue Jun 16 2026 11:29:48 GMT-0500 (Central Daylight Time),184113.19999998808,CFD-BM-043-014-A.jpg,1600,solid,I,z,666,2,2,46468.5,137644.69999998808,8103,ATS,C,20
21,test,1,A,haborder.png,1,m,Tue Jun 16 2026 11:29:48 GMT-0500 (Central Daylight Time),186146.10000002384,CFD-WM-028-005-HC.jpg,1400,solid,I,m,607,7,2,48501.40000003576,137644.69999998808,8103,ATS,C,21
22,test,1,A,haborder.png,1,z,Tue Jun 16 2026 11:29:48 GMT-0500 (Central Daylight Time),187878.89999997616,CFD-WF-023-013-A.jpg,1000,solid,I,z,702,12,2,50234.19999998808,137644.69999998808,8103,ATS,C,22
23,test,1,A,haborder.png,1,m,Tue Jun 16 2026 11:29:48 GMT-0500 (Central Daylight Time),190245.10000002384,CFD-BM-022-004-HC.jpg,1500,solid,I,m,846,3,2,52600.40000003576,137644.69999998808,8103,ATS,C,23
24,test,1,A,haborder.png,1,z,Tue Jun 16 2026 11:29:48 GMT-0500 (Central Daylight Time),191960.89999997616,CFD-BF-031-020-A.jpg,1000,solid,I,z,690,4,2,54316.19999998808,137644.69999998808,8103,ATS,C,24
1,test,1,B,mfborder.png,1,m,Tue Jun 16 2026 11:29:48 GMT-0500 (Central Daylight Time),197059.60000002384,CFD-WM-035-036-HC.jpg,1600,dash,I,m,1204,10,2,2832.600000023842,194227.0,8103,ATS,C,1
2,test,1,B,mfborder.png,1,m,Tue Jun 16 2026 11:29:48 GMT-0500 (Central Daylight Time),199225.30000001192,CFD-WM-035-036-HC.jpg,1600,dash,I,m,548,10,2,4998.300000011921,194227.0,8103,ATS,C,2
3,test,1,B,mfborder.png,1,z,Tue Jun 16 2026 11:29:48 GMT-0500 (Central Daylight Time),201274.69999998808,CFD-WF-037-016-A.jpg,1500,dash,I,z,530,11,2,7047.699999988079,194227.0,8103,ATS,C,3
4,test,1,B,mfborder.png,1,m,Tue Jun 16 2026 11:29:48 GMT-0500 (Central Daylight Time),203290.60000002384,CFD-WM-034-040-A.jpg,1200,dash,I,m,796,6,2,9063.600000023842,194227.0,8103,ATS,C,4
5,test,1,B,mfborder.png,1,z,Tue Jun 16 2026 11:29:48 GMT-0500 (Central Daylight Time),205006.80000001192,CFD-WF-013-009-HC.jpg,1000,dash,I,z,694,12,2,10779.800000011921,194227.0,8103,ATS,C,5
6,test,1,B,mfborder.png,1,m,Tue Jun 16 2026 11:29:48 GMT-0500 (Central Daylight Time),207689.39999997616,CFD-BM-043-014-A.jpg,2000,dash,I,m,649,5,2,13462.399999976158,194227.0,8103,ATS,C,6
7,test,1,B,mfborder.png,1,z,Tue Jun 16 2026 11:29:48 GMT-0500 (Central Daylight Time),209422.30000001192,CFD-WF-013-009-HC.jpg,1000,dash,I,z,711,12,2,15195.300000011921,194227.0,8103,ATS,C,7
8,test,1,B,mfborder.png,1,m,Tue Jun 16 2026 11:29:48 GMT-0500 (Central Daylight Time),211955.69999998808,CFD-BM-022-004-HC.jpg,1700,dash,I,m,813,1,2,17728.69999998808,194227.0,8103,ATS,C,8
9,test,1,B,mfborder.png,1,z,Tue Jun 16 2026 11:29:48 GMT-0500 (Central Daylight Time),214287.19999998808,CFD-BF-042-031-HC.jpg,1500,dash,I,z,801,3,2,20060.19999998808,194227.0,8103,ATS,C,9
10,test,1,B,mfborder.png,1,z,Tue Jun 16 2026 11:29:48 GMT-0500 (Central Daylight Time),216487.80000001192,CFD-BF-019-004-HC.jpg,1400,dash,I,z,768,7,2,22260.80000001192,194227.0,8103,ATS,C,10
11,test,1,B,mfborder.png,1,m,Tue Jun 16 2026 11:29:48 GMT-0500 (Central Daylight Time),219219.19999998808,CFD-WM-036-018-A.jpg,1700,dash,I,m,1013,9,2,24992.19999998808,194227.0,8103,ATS,C,11
12,test,1,B,mfborder.png,1,z,Tue Jun 16 2026 11:29:48 GMT-0500 (Central Daylight Time),221485.10000002384,CFD-BF-019-004-HC.jpg,1400,dash,I,z,844,7,2,27258.100000023842,194227.0,8103,ATS,C,12
13,test,1,B,mfborder.png,1,m,Tue Jun 16 2026 11:29:48 GMT-0500 (Central Daylight Time),224217.30000001192,CFD-BM-021-026-A.jpg,1600,dash,I,m,1100,2,2,29990.30000001192,194227.0,8103,ATS,C,13
14,test,1,B,mfborder.png,1,m,Tue Jun 16 2026 11:29:48 GMT-0500 (Central Daylight Time),226116.89999997616,CFD-WM-034-040-A.jpg,1200,dash,I,m,671,6,2,31889.899999976158,194227.0,8103,ATS,C,14
15,test,1,B,mfborder.png,1,m,Tue Jun 16 2026 11:29:48 GMT-0500 (Central Daylight Time),228649.5,CFD-BM-043-014-A.jpg,2000,dash,I,m,508,5,2,34422.5,194227.0,8103,ATS,C,15
16,test,1,B,mfborder.png,1,z,Tue Jun 16 2026 11:29:48 GMT-0500 (Central Daylight Time),231132.0,CFD-WF-001-010-HC.jpg,1900,dash,I,z,555,8,2,36905.0,194227.0,8103,ATS,C,16
17,test,1,B,mfborder.png,1,m,Tue Jun 16 2026 11:29:48 GMT-0500 (Central Daylight Time),233464.80000001192,CFD-BM-022-004-HC.jpg,1700,dash,I,m,600,1,2,39237.80000001192,194227.0,8103,ATS,C,17
18,test,1,B,mfborder.png,1,z,Tue Jun 16 2026 11:29:48 GMT-0500 (Central Daylight Time),235615.10000002384,CFD-WF-037-016-A.jpg,1500,dash,I,z,619,11,2,41388.10000002384,194227.0,8103,ATS,C,18
19,test,1,B,mfborder.png,1,m,Tue Jun 16 2026 11:29:48 GMT-0500 (Central Daylight Time),237946.69999998808,CFD-BM-021-026-A.jpg,1600,dash,I,m,714,2,2,43719.69999998808,194227.0,8103,ATS,C,19
20,test,1,B,mfborder.png,1,z,Tue Jun 16 2026 11:29:48 GMT-0500 (Central Daylight Time),240445.5,CFD-WF-001-010-HC.jpg,1900,dash,I,z,569,8,2,46218.5,194227.0,8103,ATS,C,20
21,test,1,B,mfborder.png,1,z,Tue Jun 16 2026 11:29:48 GMT-0500 (Central Daylight Time),242128.5,CFD-BF-031-020-A.jpg,1000,dash,I,z,666,4,2,47901.5,194227.0,8103,ATS,C,21
22,test,1,B,mfborder.png,1,z,Tue Jun 16 2026 11:29:48 GMT-0500 (Central Daylight Time),243595.80000001192,CFD-BF-031-020-A.jpg,1000,dash,I,z,449,4,2,49368.80000001192,194227.0,8103,ATS,C,22
23,test,1,B,mfborder.png,1,m,Tue Jun 16 2026 11:29:48 GMT-0500 (Central Daylight Time),245877.19999998808,CFD-WM-036-018-A.jpg,1700,dash,I,m,552,9,2,51650.19999998808,194227.0,8103,ATS,C,23
24,test,1,B,mfborder.png,1,z,Tue Jun 16 2026 11:29:48 GMT-0500 (Central Daylight Time),248009.80000001192,CFD-BF-042-031-HC.jpg,1500,dash,I,z,614,3,2,53782.80000001192,194227.0,8103,ATS,C,24
0,prac,1,C,mfborder.png,0,m,Tue Jun 16 2026 11:29:48 GMT-0500 (Central Daylight Time),275101.8000000119,CFD-BM-034-035-HC.jpg,2000,solid,I,None,1516,3,2,4298.699999988079,270803.10000002384,8103,ATS,C,1
0,prac,1,C,mfborder.png,0,z,Tue Jun 16 2026 11:29:48 GMT-0500 (Central Daylight Time),278401.6999999881,CFD-WF-013-009-HC.jpg,1600,dash,I,m,914,3,2,7598.599999964237,270803.10000002384,8103,ATS,C,2
1,prac,1,C,haborder.png,1,z,Tue Jun 16 2026 11:29:48 GMT-0500 (Central Daylight Time),281699.60000002384,CFD-BF-031-020-A.jpg,1900,dash,I,z,603,3,2,10896.5,270803.10000002384,8103,ATS,C,3
2,prac,1,C,mfborder.png,1,z,Tue Jun 16 2026 11:29:48 GMT-0500 (Central Daylight Time),284415.5,CFD-BF-019-004-HC.jpg,1000,dash,I,z,924,3,2,13612.399999976158,270803.10000002384,8103,ATS,C,4
3,prac,1,C,mfborder.png,1,m,Tue Jun 16 2026 11:29:48 GMT-0500 (Central Daylight Time),287580.89999997616,CFD-WM-036-018-A.jpg,1700,solid,I,m,677,3,2,16777.799999952316,270803.10000002384,8103,ATS,C,5
4,prac,1,C,haborder.png,1,z,Tue Jun 16 2026 11:29:48 GMT-0500 (Central Daylight Time),291096.6999999881,CFD-WF-037-016-A.jpg,1600,dash,I,z,1124,3,2,20293.599999964237,270803.10000002384,8103,ATS,C,6
5,prac,1,C,mfborder.png,1,z,Tue Jun 16 2026 11:29:48 GMT-0500 (Central Daylight Time),294345.6999999881,CFD-WF-023-013-A.jpg,1500,solid,I,z,964,3,2,23542.599999964237,270803.10000002384,8103,ATS,C,7
6,prac,1,C,mfborder.png,1,m,Tue Jun 16 2026 11:29:48 GMT-0500 (Central Daylight Time),297544.5,CFD-BM-043-014-A.jpg,1200,dash,I,m,1207,3,2,26741.399999976158,270803.10000002384,8103,ATS,C,8
7,prac,1,C,haborder.png,1,m,Tue Jun 16 2026 11:29:48 GMT-0500 (Central Daylight Time),301026.6999999881,CFD-WM-028-005-HC.jpg,1400,solid,I,m,1287,3,2,30223.599999964237,270803.10000002384,8103,ATS,C,9
8,prac,1,C,haborder.png,1,m,Tue Jun 16 2026 11:29:48 GMT-0500 (Central Daylight Time),303842.8000000119,CFD-WM-028-005-HC.jpg,1000,dash,I,m,1020,3,2,33039.69999998808,270803.10000002384,8103,ATS,C,10
9,prac,1,C,haborder.png,1,m,Tue Jun 16 2026 11:29:48 GMT-0500 (Central Daylight Time),306874.89999997616,CFD-BM-022-004-HC.jpg,1500,solid,I,m,745,3,2,36071.799999952316,270803.10000002384,8103,ATS,C,11
10,prac,1,C,haborder.png,1,z,Tue Jun 16 2026 11:29:48 GMT-0500 (Central Daylight Time),310373.8000000119,CFD-BF-002-018-A.jpg,1700,solid,I,z,1001,3,2,39570.69999998808,270803.10000002384,8103,ATS,C,12
0,test,1,C,haborder.png,0,z,Tue Jun 16 2026 11:29:48 GMT-0500 (Central Daylight Time),324536.1999999881,CFD-BM-043-014-A.jpg,1900,solid,I,None,1516,8,2,3432.199999988079,321104.0,8103,ATS,C,1
1,test,1,C,haborder.png,1,m,Tue Jun 16 2026 11:29:48 GMT-0500 (Central Daylight Time),326702.10000002384,CFD-WF-013-009-HC.jpg,1000,solid,I,m,1136,12,2,5598.100000023842,321104.0,8103,ATS,C,2
2,test,1,C,haborder.png,1,z,Tue Jun 16 2026 11:29:48 GMT-0500 (Central Daylight Time),329318.1999999881,CFD-BM-021-026-A.jpg,1700,solid,I,z,894,9,2,8214.199999988079,321104.0,8103,ATS,C,3
3,test,1,C,mfborder.png,1,m,Tue Jun 16 2026 11:29:48 GMT-0500 (Central Daylight Time),331067.1999999881,CFD-WM-035-036-HC.jpg,1000,dash,I,m,721,4,2,9963.199999988079,321104.0,8103,ATS,C,4
4,test,1,C,mfborder.png,1,m,Tue Jun 16 2026 11:29:48 GMT-0500 (Central Daylight Time),332933.60000002384,CFD-BM-022-004-HC.jpg,1200,dash,I,m,645,6,2,11829.600000023842,321104.0,8103,ATS,C,5
5,test,1,C,haborder.png,1,m,Tue Jun 16 2026 11:29:48 GMT-0500 (Central Daylight Time),335482.60000002384,CFD-BF-019-004-HC.jpg,1600,solid,I,m,930,10,2,14378.600000023842,321104.0,8103,ATS,C,6
6,test,1,C,mfborder.png,1,z,Tue Jun 16 2026 11:29:48 GMT-0500 (Central Daylight Time),338081.89999997616,CFD-BF-042-031-HC.jpg,1700,dash,I,z,874,1,2,16977.899999976158,321104.0,8103,ATS,C,7
7,test,1,C,haborder.png,1,m,Tue Jun 16 2026 11:29:48 GMT-0500 (Central Daylight Time),340731.1999999881,CFD-WF-001-010-HC.jpg,1500,solid,I,m,1130,11,2,19627.19999998808,321104.0,8103,ATS,C,8
8,test,1,C,haborder.png,1,z,Tue Jun 16 2026 11:29:48 GMT-0500 (Central Daylight Time),343480.1999999881,CFD-BM-043-014-A.jpg,1900,solid,I,z,816,8,2,22376.19999998808,321104.0,8103,ATS,C,9
9,test,1,C,mfborder.png,1,m,Tue Jun 16 2026 11:29:48 GMT-0500 (Central Daylight Time),345530.60000002384,CFD-WM-035-036-HC.jpg,1000,dash,I,m,1031,4,2,24426.600000023842,321104.0,8103,ATS,C,10
9,test,1,C,haborder.png,0,m,Tue Jun 16 2026 11:29:48 GMT-0500 (Central Daylight Time),348046.60000002384,CFD-WF-013-009-HC.jpg,1000,solid,I,None,1501,12,2,26942.600000023842,321104.0,8103,ATS,C,11
10,test,1,C,mfborder.png,1,m,Tue Jun 16 2026 11:29:48 GMT-0500 (Central Daylight Time),351077.8000000119,CFD-WM-034-040-A.jpg,2000,dash,I,m,1003,5,2,29973.80000001192,321104.0,8103,ATS,C,12
11,test,1,C,haborder.png,1,z,Tue Jun 16 2026 11:29:48 GMT-0500 (Central Daylight Time),354143.3000000119,CFD-BM-021-026-A.jpg,1700,solid,I,z,1334,9,2,33039.30000001192,321104.0,8103,ATS,C,13
12,test,1,C,mfborder.png,1,z,Tue Jun 16 2026 11:29:48 GMT-0500 (Central Daylight Time),356793.8000000119,CFD-BF-031-020-A.jpg,1600,dash,I,z,1024,2,2,35689.80000001192,321104.0,8103,ATS,C,14
13,test,1,C,haborder.png,1,z,Tue Jun 16 2026 11:29:48 GMT-0500 (Central Daylight Time),359192.0,CFD-WM-036-018-A.jpg,1400,solid,I,z,967,7,2,38088.0,321104.0,8103,ATS,C,15
14,test,1,C,mfborder.png,1,z,Tue Jun 16 2026 11:29:48 GMT-0500 (Central Daylight Time),361841.1999999881,CFD-WF-037-016-A.jpg,1500,dash,I,z,1115,3,2,40737.19999998808,321104.0,8103,ATS,C,16
15,test,1,C,mfborder.png,1,z,Tue Jun 16 2026 11:29:48 GMT-0500 (Central Daylight Time),364273.5,CFD-BF-031-020-A.jpg,1600,dash,I,z,815,2,2,43169.5,321104.0,8103,ATS,C,17
15,test,1,C,haborder.png,0,z,Tue Jun 16 2026 11:29:48 GMT-0500 (Central Daylight Time),366756.89999997616,CFD-WM-036-018-A.jpg,1400,solid,I,m,1062,7,2,45652.89999997616,321104.0,8103,ATS,C,18
15,test,1,C,mfborder.png,0,z,Tue Jun 16 2026 11:29:48 GMT-0500 (Central Daylight Time),369988.8000000119,CFD-BF-042-031-HC.jpg,1700,dash,I,None,1516,1,2,48884.80000001192,321104.0,8103,ATS,C,19
15,test,1,C,haborder.png,0,m,Tue Jun 16 2026 11:29:48 GMT-0500 (Central Daylight Time),373120.89999997616,CFD-BF-019-004-HC.jpg,1600,solid,I,None,1516,10,2,52016.89999997616,321104.0,8103,ATS,C,20
16,test,1,C,mfborder.png,1,z,Tue Jun 16 2026 11:29:48 GMT-0500 (Central Daylight Time),375886.89999997616,CFD-WF-037-016-A.jpg,1500,dash,I,z,1244,3,2,54782.89999997616,321104.0,8103,ATS,C,21
17,test,1,C,mfborder.png,1,m,Tue Jun 16 2026 11:29:48 GMT-0500 (Central Daylight Time),378652.5,CFD-WM-034-040-A.jpg,2000,dash,I,m,746,5,2,57548.5,321104.0,8103,ATS,C,22
18,test,1,C,mfborder.png,1,m,Tue Jun 16 2026 11:29:48 GMT-0500 (Central Daylight Time),380535.10000002384,CFD-BM-022-004-HC.jpg,1200,dash,I,m,660,6,2,59431.10000002384,321104.0,8103,ATS,C,23
19,test,1,C,haborder.png,1,m,Tue Jun 16 2026 11:29:48 GMT-0500 (Central Daylight Time),383300.8000000119,CFD-WF-001-010-HC.jpg,1500,solid,I,m,1236,11,2,62196.80000001192,321104.0,8103,ATS,C,24
1,test,2,C,haborder.png,1,m,Tue Jun 16 2026 11:29:48 GMT-0500 (Central Daylight Time),388699.5,CFD-BM-022-004-HC.jpg,1600,solid,I,m,1147,10,2,2766.0,385933.5,8103,ATS,C,1
2,test,2,C,haborder.png,1,m,Tue Jun 16 2026 11:29:48 GMT-0500 (Central Daylight Time),390965.39999997616,CFD-WM-028-005-HC.jpg,1500,solid,I,m,735,11,2,5031.899999976158,385933.5,8103,ATS,C,2
3,test,2,C,mfborder.png,1,z,Tue Jun 16 2026 11:29:48 GMT-0500 (Central Daylight Time),393664.60000002384,CFD-WF-013-009-HC.jpg,1700,dash,I,z,975,1,2,7731.100000023842,385933.5,8103,ATS,C,3
4,test,2,C,haborder.png,1,m,Tue Jun 16 2026 11:29:48 GMT-0500 (Central Daylight Time),396463.60000002384,CFD-BM-022-004-HC.jpg,1600,solid,I,m,1167,10,2,10530.100000023842,385933.5,8103,ATS,C,4
5,test,2,C,mfborder.png,1,z,Tue Jun 16 2026 11:29:48 GMT-0500 (Central Daylight Time),399479.1999999881,CFD-WF-013-009-HC.jpg,1700,dash,I,z,1293,1,2,13545.699999988079,385933.5,8103,ATS,C,5
6,test,2,C,mfborder.png,1,z,Tue Jun 16 2026 11:29:48 GMT-0500 (Central Daylight Time),401879.89999997616,CFD-BF-019-004-HC.jpg,1500,dash,I,z,877,3,2,15946.399999976158,385933.5,8103,ATS,C,6
7,test,2,C,mfborder.png,1,m,Tue Jun 16 2026 11:29:48 GMT-0500 (Central Daylight Time),403695.39999997616,CFD-BM-034-035-HC.jpg,1000,dash,I,m,794,4,2,17761.899999976158,385933.5,8103,ATS,C,7
8,test,2,C,haborder.png,1,z,Tue Jun 16 2026 11:29:48 GMT-0500 (Central Daylight Time),406760.5,CFD-WF-037-016-A.jpg,1700,solid,I,z,1334,9,2,20827.0,385933.5,8103,ATS,C,8
9,test,2,C,haborder.png,1,m,Tue Jun 16 2026 11:29:48 GMT-0500 (Central Daylight Time),409009.6999999881,CFD-WM-028-005-HC.jpg,1500,solid,I,m,732,11,2,23076.19999998808,385933.5,8103,ATS,C,9
10,test,2,C,mfborder.png,1,z,Tue Jun 16 2026 11:29:48 GMT-0500 (Central Daylight Time),411875.60000002384,CFD-BF-019-004-HC.jpg,1500,dash,I,z,1339,3,2,25942.100000023842,385933.5,8103,ATS,C,10
11,test,2,C,mfborder.png,1,m,Tue Jun 16 2026 11:29:48 GMT-0500 (Central Daylight Time),414391.10000002384,CFD-WM-036-018-A.jpg,1200,dash,I,m,1293,6,2,28457.600000023842,385933.5,8103,ATS,C,11
12,test,2,C,mfborder.png,1,m,Tue Jun 16 2026 11:29:48 GMT-0500 (Central Daylight Time),416224.0,CFD-WM-036-018-A.jpg,1200,dash,I,m,609,6,2,30290.5,385933.5,8103,ATS,C,12
13,test,2,C,haborder.png,1,m,Tue Jun 16 2026 11:29:48 GMT-0500 (Central Daylight Time),418406.39999997616,CFD-WM-028-005-HC.jpg,1000,solid,I,m,1151,12,2,32472.899999976158,385933.5,8103,ATS,C,13
14,test,2,C,mfborder.png,1,z,Tue Jun 16 2026 11:29:48 GMT-0500 (Central Daylight Time),420872.39999997616,CFD-WF-023-013-A.jpg,1600,dash,I,z,841,2,2,34938.89999997616,385933.5,8103,ATS,C,14
15,test,2,C,mfborder.png,1,m,Tue Jun 16 2026 11:29:48 GMT-0500 (Central Daylight Time),422572.10000002384,CFD-BM-034-035-HC.jpg,1000,dash,I,m,680,4,2,36638.60000002384,385933.5,8103,ATS,C,15
16,test,2,C,haborder.png,1,z,Tue Jun 16 2026 11:29:48 GMT-0500 (Central Daylight Time),425404.5,CFD-WF-037-016-A.jpg,1700,solid,I,z,1105,9,2,39471.0,385933.5,8103,ATS,C,16
17,test,2,C,mfborder.png,1,m,Tue Jun 16 2026 11:29:48 GMT-0500 (Central Daylight Time),428503.6999999881,CFD-BM-043-014-A.jpg,2000,dash,I,m,1076,5,2,42570.19999998808,385933.5,8103,ATS,C,17
17,test,2,C,haborder.png,0,z,Tue Jun 16 2026 11:29:48 GMT-0500 (Central Daylight Time),431435.89999997616,CFD-BF-031-020-A.jpg,1400,solid,I,None,1516,7,2,45502.39999997616,385933.5,8103,ATS,C,18
18,test,2,C,haborder.png,1,z,Tue Jun 16 2026 11:29:48 GMT-0500 (Central Daylight Time),433818.6999999881,CFD-BF-031-020-A.jpg,1400,solid,I,z,963,7,2,47885.19999998808,385933.5,8103,ATS,C,19
19,test,2,C,mfborder.png,1,m,Tue Jun 16 2026 11:29:48 GMT-0500 (Central Daylight Time),436885.39999997616,CFD-BM-043-014-A.jpg,2000,dash,I,m,1046,5,2,50951.89999997616,385933.5,8103,ATS,C,20
20,test,2,C,haborder.png,1,z,Tue Jun 16 2026 11:29:48 GMT-0500 (Central Daylight Time),439616.89999997616,CFD-BF-002-018-A.jpg,1900,solid,I,z,800,8,2,53683.39999997616,385933.5,8103,ATS,C,21
21,test,2,C,haborder.png,1,z,Tue Jun 16 2026 11:29:48 GMT-0500 (Central Daylight Time),442216.3000000119,CFD-BF-002-018-A.jpg,1900,solid,I,z,667,8,2,56282.80000001192,385933.5,8103,ATS,C,22
22,test,2,C,haborder.png,1,m,Tue Jun 16 2026 11:29:48 GMT-0500 (Central Daylight Time),444065.3000000119,CFD-WM-028-005-HC.jpg,1000,solid,I,m,831,12,2,58131.80000001192,385933.5,8103,ATS,C,23
23,test,2,C,mfborder.png,1,z,Tue Jun 16 2026 11:29:48 GMT-0500 (Central Daylight Time),446664.6999999881,CFD-WF-023-013-A.jpg,1600,dash,I,z,966,2,2,60731.19999998808,385933.5,8103,ATS,C,24
1,test,3,C,mfborder.png,1,m,Tue Jun 16 2026 11:29:48 GMT-0500 (Central Daylight Time),450696.6999999881,CFD-WM-034-040-A.jpg,2000,dash,I,m,809,5,2,2832.399999976158,447864.3000000119,8103,ATS,C,1
2,test,3,C,haborder.png,1,m,Tue Jun 16 2026 11:29:48 GMT-0500 (Central Daylight Time),452912.60000002384,CFD-WF-013-009-HC.jpg,1000,solid,I,m,1191,12,2,5048.300000011921,447864.3000000119,8103,ATS,C,2
3,test,3,C,mfborder.png,1,m,Tue Jun 16 2026 11:29:48 GMT-0500 (Central Daylight Time),455745.0,CFD-WM-034-040-A.jpg,2000,dash,I,m,800,5,2,7880.699999988079,447864.3000000119,8103,ATS,C,3
4,test,3,C,haborder.png,1,m,Tue Jun 16 2026 11:29:48 GMT-0500 (Central Daylight Time),457960.8000000119,CFD-WF-013-009-HC.jpg,1000,solid,I,m,1198,12,2,10096.5,447864.3000000119,8103,ATS,C,4
5,test,3,C,haborder.png,1,z,Tue Jun 16 2026 11:29:48 GMT-0500 (Central Daylight Time),460177.1999999881,CFD-WM-036-018-A.jpg,1400,solid,I,z,791,7,2,12312.899999976158,447864.3000000119,8103,ATS,C,5
6,test,3,C,haborder.png,1,m,Tue Jun 16 2026 11:29:48 GMT-0500 (Central Daylight Time),462592.8000000119,CFD-WF-001-010-HC.jpg,1500,solid,I,m,899,11,2,14728.5,447864.3000000119,8103,ATS,C,6
7,test,3,C,haborder.png,1,z,Tue Jun 16 2026 11:29:48 GMT-0500 (Central Daylight Time),465475.39999997616,CFD-BM-043-014-A.jpg,1900,solid,I,z,964,8,2,17611.099999964237,447864.3000000119,8103,ATS,C,7
8,test,3,C,haborder.png,1,m,Tue Jun 16 2026 11:29:48 GMT-0500 (Central Daylight Time),467891.1999999881,CFD-BF-019-004-HC.jpg,1600,solid,I,m,797,10,2,20026.899999976158,447864.3000000119,8103,ATS,C,8
9,test,3,C,mfborder.png,1,z,Tue Jun 16 2026 11:29:48 GMT-0500 (Central Daylight Time),470373.8000000119,CFD-BF-042-031-HC.jpg,1700,dash,I,z,763,1,2,22509.5,447864.3000000119,8103,ATS,C,9
10,test,3,C,haborder.png,1,z,Tue Jun 16 2026 11:29:48 GMT-0500 (Central Daylight Time),473139.6999999881,CFD-BM-043-014-A.jpg,1900,solid,I,z,847,8,2,25275.399999976158,447864.3000000119,8103,ATS,C,10
11,test,3,C,mfborder.png,1,z,Tue Jun 16 2026 11:29:48 GMT-0500 (Central Daylight Time),475572.1999999881,CFD-WF-037-016-A.jpg,1500,dash,I,z,913,3,2,27707.899999976158,447864.3000000119,8103,ATS,C,11
11,test,3,C,haborder.png,0,z,Tue Jun 16 2026 11:29:48 GMT-0500 (Central Daylight Time),478371.10000002384,CFD-BM-021-026-A.jpg,1700,solid,I,m,1072,9,2,30506.80000001192,447864.3000000119,8103,ATS,C,12
12,test,3,C,mfborder.png,1,m,Tue Jun 16 2026 11:29:48 GMT-0500 (Central Daylight Time),480853.6999999881,CFD-WM-035-036-HC.jpg,1000,dash,I,m,1461,4,2,32989.39999997616,447864.3000000119,8103,ATS,C,13
13,test,3,C,haborder.png,1,m,Tue Jun 16 2026 11:29:48 GMT-0500 (Central Daylight Time),483703.0,CFD-WF-001-010-HC.jpg,1500,solid,I,m,1327,11,2,35838.69999998808,447864.3000000119,8103,ATS,C,14
14,test,3,C,mfborder.png,1,m,Tue Jun 16 2026 11:29:48 GMT-0500 (Central Daylight Time),486385.10000002384,CFD-BM-022-004-HC.jpg,1200,dash,I,m,1464,6,2,38520.80000001192,447864.3000000119,8103,ATS,C,15
15,test,3,C,mfborder.png,1,z,Tue Jun 16 2026 11:29:48 GMT-0500 (Central Daylight Time),488768.1999999881,CFD-WF-037-016-A.jpg,1500,dash,I,z,850,3,2,40903.89999997616,447864.3000000119,8103,ATS,C,16
16,test,3,C,mfborder.png,1,z,Tue Jun 16 2026 11:29:48 GMT-0500 (Central Daylight Time),491183.89999997616,CFD-BF-042-031-HC.jpg,1700,dash,I,z,691,1,2,43319.59999996424,447864.3000000119,8103,ATS,C,17
17,test,3,C,mfborder.png,1,z,Tue Jun 16 2026 11:29:48 GMT-0500 (Central Daylight Time),493449.60000002384,CFD-BF-031-020-A.jpg,1600,dash,I,z,649,2,2,45585.30000001192,447864.3000000119,8103,ATS,C,18
17,test,3,C,haborder.png,0,z,Tue Jun 16 2026 11:29:48 GMT-0500 (Central Daylight Time),496532.3000000119,CFD-BM-021-026-A.jpg,1700,solid,I,m,1355,9,2,48668.0,447864.3000000119,8103,ATS,C,19
18,test,3,C,mfborder.png,1,z,Tue Jun 16 2026 11:29:48 GMT-0500 (Central Daylight Time),499214.60000002384,CFD-BF-031-020-A.jpg,1600,dash,I,z,1060,2,2,51350.30000001192,447864.3000000119,8103,ATS,C,20
19,test,3,C,mfborder.png,1,m,Tue Jun 16 2026 11:29:48 GMT-0500 (Central Daylight Time),501547.39999997616,CFD-BM-022-004-HC.jpg,1200,dash,I,m,1113,6,2,53683.09999996424,447864.3000000119,8103,ATS,C,21
20,test,3,C,haborder.png,1,m,Tue Jun 16 2026 11:29:48 GMT-0500 (Central Daylight Time),504529.60000002384,CFD-BF-019-004-HC.jpg,1600,solid,I,m,1357,10,2,56665.30000001192,447864.3000000119,8103,ATS,C,22
21,test,3,C,haborder.png,1,z,Tue Jun 16 2026 11:29:48 GMT-0500 (Central Daylight Time),506695.60000002384,CFD-WM-036-018-A.jpg,1400,solid,I,z,734,7,2,58831.30000001192,447864.3000000119,8103,ATS,C,23
22,test,3,C,mfborder.png,1,m,Tue Jun 16 2026 11:29:48 GMT-0500 (Central Daylight Time),508661.8000000119,CFD-WM-035-036-HC.jpg,1000,dash,I,m,945,4,2,60797.5,447864.3000000119,8103,ATS,C,24
1,test,4,C,haborder.png,1,m,Tue Jun 16 2026 11:29:48 GMT-0500 (Central Daylight Time),511527.60000002384,CFD-WM-028-005-HC.jpg,1000,solid,I,m,717,12,2,1749.4000000357628,509778.1999999881,8103,ATS,C,1
2,test,4,C,mfborder.png,1,z,Tue Jun 16 2026 11:29:48 GMT-0500 (Central Daylight Time),514210.10000002384,CFD-WF-013-009-HC.jpg,1700,dash,I,z,956,1,2,4431.900000035763,509778.1999999881,8103,ATS,C,2
3,test,4,C,haborder.png,1,m,Tue Jun 16 2026 11:29:48 GMT-0500 (Central Daylight Time),516426.0,CFD-WM-028-005-HC.jpg,1500,solid,I,m,690,11,2,6647.800000011921,509778.1999999881,8103,ATS,C,3
3,test,4,C,mfborder.png,0,m,Tue Jun 16 2026 11:29:48 GMT-0500 (Central Daylight Time),519391.6999999881,CFD-BM-043-014-A.jpg,2000,dash,I,z,943,5,2,9613.5,509778.1999999881,8103,ATS,C,4
4,test,4,C,haborder.png,1,m,Tue Jun 16 2026 11:29:48 GMT-0500 (Central Daylight Time),521308.0,CFD-WM-028-005-HC.jpg,1000,solid,I,m,897,12,2,11529.800000011921,509778.1999999881,8103,ATS,C,5
4,test,4,C,mfborder.png,0,m,Tue Jun 16 2026 11:29:48 GMT-0500 (Central Daylight Time),523873.60000002384,CFD-WM-036-018-A.jpg,1200,dash,I,z,1341,6,2,14095.400000035763,509778.1999999881,8103,ATS,C,6
4,test,4,C,haborder.png,0,z,Tue Jun 16 2026 11:29:48 GMT-0500 (Central Daylight Time),526822.8000000119,CFD-WF-037-016-A.jpg,1700,solid,I,m,1227,9,2,17044.600000023842,509778.1999999881,8103,ATS,C,7
4,test,4,C,mfborder.png,0,m,Tue Jun 16 2026 11:29:48 GMT-0500 (Central Daylight Time),529355.3999999762,CFD-BM-034-035-HC.jpg,1000,dash,I,None,1516,4,2,19577.19999998808,509778.1999999881,8103,ATS,C,8
4,test,4,C,mfborder.png,0,z,Tue Jun 16 2026 11:29:48 GMT-0500 (Central Daylight Time),532388.0,CFD-BF-019-004-HC.jpg,1500,dash,I,None,1516,3,2,22609.80000001192,509778.1999999881,8103,ATS,C,9
5,test,4,C,haborder.png,1,m,Tue Jun 16 2026 11:29:48 GMT-0500 (Central Daylight Time),535037.0,CFD-BM-022-004-HC.jpg,1600,solid,I,m,1021,10,2,25258.80000001192,509778.1999999881,8103,ATS,C,10
6,test,4,C,haborder.png,1,z,Tue Jun 16 2026 11:29:48 GMT-0500 (Central Daylight Time),537536.3999999762,CFD-WF-037-016-A.jpg,1700,solid,I,z,767,9,2,27758.19999998808,509778.1999999881,8103,ATS,C,11
7,test,4,C,haborder.png,1,z,Tue Jun 16 2026 11:29:48 GMT-0500 (Central Daylight Time),540201.8999999762,CFD-BF-002-018-A.jpg,1900,solid,I,z,734,8,2,30423.69999998808,509778.1999999881,8103,ATS,C,12
8,test,4,C,mfborder.png,1,m,Tue Jun 16 2026 11:29:48 GMT-0500 (Central Daylight Time),542317.8999999762,CFD-WM-036-018-A.jpg,1200,dash,I,m,894,6,2,32539.69999998808,509778.1999999881,8103,ATS,C,13
9,test,4,C,mfborder.png,1,z,Tue Jun 16 2026 11:29:48 GMT-0500 (Central Daylight Time),544650.6000000238,CFD-WF-023-013-A.jpg,1600,dash,I,z,700,2,2,34872.40000003576,509778.1999999881,8103,ATS,C,14
10,test,4,C,haborder.png,1,z,Tue Jun 16 2026 11:29:48 GMT-0500 (Central Daylight Time),546983.8000000119,CFD-BF-031-020-A.jpg,1400,solid,I,z,901,7,2,37205.60000002384,509778.1999999881,8103,ATS,C,15
11,test,4,C,mfborder.png,1,m,Tue Jun 16 2026 11:29:48 GMT-0500 (Central Daylight Time),548982.6000000238,CFD-BM-034-035-HC.jpg,1000,dash,I,m,977,4,2,39204.40000003576,509778.1999999881,8103,ATS,C,16
12,test,4,C,haborder.png,1,m,Tue Jun 16 2026 11:29:48 GMT-0500 (Central Daylight Time),551265.1999999881,CFD-WM-028-005-HC.jpg,1500,solid,I,m,766,11,2,41487.0,509778.1999999881,8103,ATS,C,17
13,test,4,C,haborder.png,1,m,Tue Jun 16 2026 11:29:48 GMT-0500 (Central Daylight Time),553731.1000000238,CFD-BM-022-004-HC.jpg,1600,solid,I,m,839,10,2,43952.90000003576,509778.1999999881,8103,ATS,C,18
14,test,4,C,mfborder.png,1,z,Tue Jun 16 2026 11:29:48 GMT-0500 (Central Daylight Time),556080.6000000238,CFD-BF-019-004-HC.jpg,1500,dash,I,z,816,3,2,46302.40000003576,509778.1999999881,8103,ATS,C,19
15,test,4,C,mfborder.png,1,z,Tue Jun 16 2026 11:29:48 GMT-0500 (Central Daylight Time),558346.1000000238,CFD-WF-023-013-A.jpg,1600,dash,I,z,640,2,2,48567.90000003576,509778.1999999881,8103,ATS,C,20
16,test,4,C,haborder.png,1,z,Tue Jun 16 2026 11:29:48 GMT-0500 (Central Daylight Time),561045.3000000119,CFD-BF-031-020-A.jpg,1400,solid,I,z,1270,7,2,51267.10000002384,509778.1999999881,8103,ATS,C,21
17,test,4,C,haborder.png,1,z,Tue Jun 16 2026 11:29:48 GMT-0500 (Central Daylight Time),563694.5,CFD-BF-002-018-A.jpg,1900,solid,I,z,727,8,2,53916.30000001192,509778.1999999881,8103,ATS,C,22
17,test,4,C,mfborder.png,0,z,Tue Jun 16 2026 11:29:48 GMT-0500 (Central Daylight Time),566927.0,CFD-WF-013-009-HC.jpg,1700,dash,I,None,1516,1,2,57148.80000001192,509778.1999999881,8103,ATS,C,23
18,test,4,C,mfborder.png,1,m,Tue Jun 16 2026 11:29:48 GMT-0500 (Central Daylight Time),569927.0,CFD-BM-043-014-A.jpg,2000,dash,I,m,971,5,2,60148.80000001192,509778.1999999881,8103,ATS,C,24
