acc_sum,block,block_c,block_cond,con_img,correct,correct_response,datetime,endtime,face,jitter,line,project,response,response_time,row_sel,session_number,start_end,starttime,subject_id,task,task_vers,trial
0,prac,1,A,haborder.png,0,z,Wed Mar 25 2026 11:59:02 GMT-0500 (Central Daylight Time),62529.799999952316,CFD-BF-051-043-A.jpg,1000,solid,I,None,1516,4,1,3283.5999999046326,59246.200000047684,8103,ATS,B,1
1,prac,1,A,haborder.png,1,z,Wed Mar 25 2026 11:59:02 GMT-0500 (Central Daylight Time),65494.60000014305,CFD-BF-050-012-A.jpg,1200,solid,I,z,967,6,1,6248.400000095367,59246.200000047684,8103,ATS,B,2
2,prac,1,A,haborder.png,1,z,Wed Mar 25 2026 11:59:02 GMT-0500 (Central Daylight Time),68793.79999995232,CFD-WF-026-008-A.jpg,1600,solid,I,z,912,10,1,9547.599999904633,59246.200000047684,8103,ATS,B,3
3,prac,1,A,haborder.png,1,z,Wed Mar 25 2026 11:59:02 GMT-0500 (Central Daylight Time),72325.70000004768,CFD-WM-009-009-A.jpg,1900,solid,I,z,841,8,1,13079.5,59246.200000047684,8103,ATS,B,4
4,prac,1,A,haborder.png,1,m,Wed Mar 25 2026 11:59:02 GMT-0500 (Central Daylight Time),75308.20000004768,CFD-WF-011-006-HC.jpg,1500,solid,I,m,694,11,1,16062.0,59246.200000047684,8103,ATS,B,5
5,prac,1,A,haborder.png,1,m,Wed Mar 25 2026 11:59:02 GMT-0500 (Central Daylight Time),78123.90000009537,CFD-WM-011-006-HC.jpg,1400,solid,I,m,619,7,1,18877.700000047684,59246.200000047684,8103,ATS,B,6
6,prac,1,A,haborder.png,1,z,Wed Mar 25 2026 11:59:02 GMT-0500 (Central Daylight Time),80906.20000004768,CFD-WF-013-015-A.jpg,1000,solid,I,z,996,12,1,21660.0,59246.200000047684,8103,ATS,B,7
7,prac,1,A,haborder.png,1,m,Wed Mar 25 2026 11:59:02 GMT-0500 (Central Daylight Time),84685.40000009537,CFD-BF-035-007-HC.jpg,2000,solid,I,m,870,5,1,25439.200000047684,59246.200000047684,8103,ATS,B,8
8,prac,1,A,haborder.png,1,m,Wed Mar 25 2026 11:59:02 GMT-0500 (Central Daylight Time),87837.5,CFD-BM-020-024-HC.jpg,1500,solid,I,m,850,3,1,28591.299999952316,59246.200000047684,8103,ATS,B,9
9,prac,1,A,haborder.png,1,z,Wed Mar 25 2026 11:59:02 GMT-0500 (Central Daylight Time),91136.10000014305,CFD-BM-037-041-A.jpg,1600,solid,I,z,914,2,1,31889.900000095367,59246.200000047684,8103,ATS,B,10
10,prac,1,A,haborder.png,1,m,Wed Mar 25 2026 11:59:02 GMT-0500 (Central Daylight Time),94835.40000009537,CFD-BM-015-017-HC.jpg,1700,solid,I,m,1203,1,1,35589.200000047684,59246.200000047684,8103,ATS,B,11
11,prac,1,A,haborder.png,1,m,Wed Mar 25 2026 11:59:02 GMT-0500 (Central Daylight Time),98217.40000009537,CFD-WM-012-007-HC.jpg,1700,solid,I,m,888,9,1,38971.200000047684,59246.200000047684,8103,ATS,B,12
1,prac,1,B,mfborder.png,1,m,Wed Mar 25 2026 11:59:02 GMT-0500 (Central Daylight Time),117779.10000014305,CFD-WM-009-009-A.jpg,1700,dash,I,m,895,9,1,3366.7000000476837,114412.40000009537,8103,ATS,B,1
2,prac,1,B,mfborder.png,1,m,Wed Mar 25 2026 11:59:02 GMT-0500 (Central Daylight Time),121026.90000009537,CFD-BM-020-024-HC.jpg,1700,dash,I,m,753,1,1,6614.5,114412.40000009537,8103,ATS,B,2
3,prac,1,B,mfborder.png,1,m,Wed Mar 25 2026 11:59:02 GMT-0500 (Central Daylight Time),123726.29999995232,CFD-WM-037-060-A.jpg,1200,dash,I,m,716,6,1,9313.899999856949,114412.40000009537,8103,ATS,B,3
4,prac,1,B,mfborder.png,1,m,Wed Mar 25 2026 11:59:02 GMT-0500 (Central Daylight Time),126941.90000009537,CFD-WM-012-007-HC.jpg,1600,dash,I,m,817,10,1,12529.5,114412.40000009537,8103,ATS,B,4
4,prac,1,B,mfborder.png,0,z,Wed Mar 25 2026 11:59:02 GMT-0500 (Central Daylight Time),130640.60000014305,CFD-BF-035-007-HC.jpg,1400,dash,I,None,1516,7,1,16228.200000047684,114412.40000009537,8103,ATS,B,5
5,prac,1,B,mfborder.png,1,m,Wed Mar 25 2026 11:59:02 GMT-0500 (Central Daylight Time),133806.29999995232,CFD-BM-041-048-A.jpg,1600,dash,I,m,775,2,1,19393.89999985695,114412.40000009537,8103,ATS,B,6
6,prac,1,B,mfborder.png,1,m,Wed Mar 25 2026 11:59:02 GMT-0500 (Central Daylight Time),137238.60000014305,CFD-BM-037-041-A.jpg,2000,dash,I,m,648,5,1,22826.200000047684,114412.40000009537,8103,ATS,B,7
7,prac,1,B,mfborder.png,1,z,Wed Mar 25 2026 11:59:02 GMT-0500 (Central Daylight Time),139571.20000004768,CFD-WF-011-006-HC.jpg,1000,dash,I,z,535,12,1,25158.799999952316,114412.40000009537,8103,ATS,B,8
8,prac,1,B,mfborder.png,1,z,Wed Mar 25 2026 11:59:02 GMT-0500 (Central Daylight Time),142603.5,CFD-WF-026-008-A.jpg,1500,dash,I,z,735,11,1,28191.099999904633,114412.40000009537,8103,ATS,B,9
9,prac,1,B,mfborder.png,1,z,Wed Mar 25 2026 11:59:02 GMT-0500 (Central Daylight Time),145769.40000009537,CFD-BF-051-043-A.jpg,1000,dash,I,z,1372,4,1,31357.0,114412.40000009537,8103,ATS,B,10
10,prac,1,B,mfborder.png,1,z,Wed Mar 25 2026 11:59:02 GMT-0500 (Central Daylight Time),149035.10000014305,CFD-BF-027-013-HC.jpg,1500,dash,I,z,977,3,1,34622.700000047684,114412.40000009537,8103,ATS,B,11
11,prac,1,B,mfborder.png,1,z,Wed Mar 25 2026 11:59:02 GMT-0500 (Central Daylight Time),152983.60000014305,CFD-WF-027-007-HC.jpg,1900,dash,I,z,1256,8,1,38571.200000047684,114412.40000009537,8103,ATS,B,12
0,test,1,A,haborder.png,0,m,Wed Mar 25 2026 11:59:02 GMT-0500 (Central Daylight Time),169678.60000014305,CFD-BF-035-007-HC.jpg,2000,solid,I,None,1515,5,1,3532.300000190735,166146.29999995232,8103,ATS,B,1
1,test,1,A,haborder.png,1,m,Wed Mar 25 2026 11:59:02 GMT-0500 (Central Daylight Time),172611.0,CFD-WF-011-006-HC.jpg,1500,solid,I,m,1413,11,1,6464.700000047684,166146.29999995232,8103,ATS,B,2
2,test,1,A,haborder.png,1,z,Wed Mar 25 2026 11:59:02 GMT-0500 (Central Daylight Time),175576.40000009537,CFD-BM-037-041-A.jpg,1600,solid,I,z,1349,2,1,9430.100000143051,166146.29999995232,8103,ATS,B,3
3,test,1,A,haborder.png,1,m,Wed Mar 25 2026 11:59:02 GMT-0500 (Central Daylight Time),177809.10000014305,CFD-WM-011-006-HC.jpg,1400,solid,I,m,807,7,1,11662.800000190735,166146.29999995232,8103,ATS,B,4
4,test,1,A,haborder.png,1,z,Wed Mar 25 2026 11:59:02 GMT-0500 (Central Daylight Time),180891.60000014305,CFD-WF-026-008-A.jpg,1600,solid,I,z,1454,10,1,14745.300000190735,166146.29999995232,8103,ATS,B,5
4,test,1,A,haborder.png,0,m,Wed Mar 25 2026 11:59:02 GMT-0500 (Central Daylight Time),184123.90000009537,CFD-BM-015-017-HC.jpg,1700,solid,I,None,1516,1,1,17977.60000014305,166146.29999995232,8103,ATS,B,6
5,test,1,A,haborder.png,1,z,Wed Mar 25 2026 11:59:02 GMT-0500 (Central Daylight Time),187006.29999995232,CFD-WM-009-009-A.jpg,1900,solid,I,z,960,8,1,20860.0,166146.29999995232,8103,ATS,B,7
6,test,1,A,haborder.png,1,z,Wed Mar 25 2026 11:59:02 GMT-0500 (Central Daylight Time),188922.29999995232,CFD-BF-050-012-A.jpg,1200,solid,I,z,695,6,1,22776.0,166146.29999995232,8103,ATS,B,8
7,test,1,A,haborder.png,1,z,Wed Mar 25 2026 11:59:02 GMT-0500 (Central Daylight Time),190605.29999995232,CFD-WF-013-015-A.jpg,1000,solid,I,z,653,12,1,24459.0,166146.29999995232,8103,ATS,B,9
8,test,1,A,haborder.png,1,z,Wed Mar 25 2026 11:59:02 GMT-0500 (Central Daylight Time),192771.0,CFD-WF-026-008-A.jpg,1600,solid,I,z,546,10,1,26624.700000047684,166146.29999995232,8103,ATS,B,10
9,test,1,A,haborder.png,1,m,Wed Mar 25 2026 11:59:02 GMT-0500 (Central Daylight Time),195770.0,CFD-BM-015-017-HC.jpg,1700,solid,I,m,1280,1,1,29623.700000047684,166146.29999995232,8103,ATS,B,11
10,test,1,A,haborder.png,1,z,Wed Mar 25 2026 11:59:02 GMT-0500 (Central Daylight Time),197919.40000009537,CFD-BF-051-043-A.jpg,1000,solid,I,z,1117,4,1,31773.10000014305,166146.29999995232,8103,ATS,B,12
11,test,1,A,haborder.png,1,z,Wed Mar 25 2026 11:59:02 GMT-0500 (Central Daylight Time),200403.20000004768,CFD-WM-009-009-A.jpg,1900,solid,I,z,564,8,1,34256.90000009537,166146.29999995232,8103,ATS,B,13
12,test,1,A,haborder.png,1,z,Wed Mar 25 2026 11:59:02 GMT-0500 (Central Daylight Time),202318.10000014305,CFD-WF-013-015-A.jpg,1000,solid,I,z,893,12,1,36171.800000190735,166146.29999995232,8103,ATS,B,14
13,test,1,A,haborder.png,1,z,Wed Mar 25 2026 11:59:02 GMT-0500 (Central Daylight Time),205150.70000004768,CFD-BM-037-041-A.jpg,1600,solid,I,z,1201,2,1,39004.40000009537,166146.29999995232,8103,ATS,B,15
14,test,1,A,haborder.png,1,z,Wed Mar 25 2026 11:59:02 GMT-0500 (Central Daylight Time),207383.10000014305,CFD-BF-050-012-A.jpg,1200,solid,I,z,1009,6,1,41236.800000190735,166146.29999995232,8103,ATS,B,16
15,test,1,A,haborder.png,1,m,Wed Mar 25 2026 11:59:02 GMT-0500 (Central Daylight Time),209832.79999995232,CFD-WF-011-006-HC.jpg,1500,solid,I,m,924,11,1,43686.5,166146.29999995232,8103,ATS,B,17
16,test,1,A,haborder.png,1,m,Wed Mar 25 2026 11:59:02 GMT-0500 (Central Daylight Time),212531.79999995232,CFD-BM-020-024-HC.jpg,1500,solid,I,m,1170,3,1,46385.5,166146.29999995232,8103,ATS,B,18
17,test,1,A,haborder.png,1,m,Wed Mar 25 2026 11:59:02 GMT-0500 (Central Daylight Time),214564.29999995232,CFD-WM-011-006-HC.jpg,1400,solid,I,m,604,7,1,48418.0,166146.29999995232,8103,ATS,B,19
18,test,1,A,haborder.png,1,z,Wed Mar 25 2026 11:59:02 GMT-0500 (Central Daylight Time),216630.5,CFD-BF-051-043-A.jpg,1000,solid,I,z,1035,4,1,50484.200000047684,166146.29999995232,8103,ATS,B,20
19,test,1,A,haborder.png,1,m,Wed Mar 25 2026 11:59:02 GMT-0500 (Central Daylight Time),219346.29999995232,CFD-WM-012-007-HC.jpg,1700,solid,I,m,989,9,1,53200.0,166146.29999995232,8103,ATS,B,21
20,test,1,A,haborder.png,1,m,Wed Mar 25 2026 11:59:02 GMT-0500 (Central Daylight Time),222095.40000009537,CFD-BF-035-007-HC.jpg,2000,solid,I,m,725,5,1,55949.10000014305,166146.29999995232,8103,ATS,B,22
21,test,1,A,haborder.png,1,m,Wed Mar 25 2026 11:59:02 GMT-0500 (Central Daylight Time),224911.29999995232,CFD-WM-012-007-HC.jpg,1700,solid,I,m,1084,9,1,58765.0,166146.29999995232,8103,ATS,B,23
22,test,1,A,haborder.png,1,m,Wed Mar 25 2026 11:59:02 GMT-0500 (Central Daylight Time),227227.29999995232,CFD-BM-020-024-HC.jpg,1500,solid,I,m,794,3,1,61081.0,166146.29999995232,8103,ATS,B,24
1,test,1,B,mfborder.png,1,z,Wed Mar 25 2026 11:59:02 GMT-0500 (Central Daylight Time),236557.70000004768,CFD-BF-035-007-HC.jpg,1400,dash,I,z,686,7,1,2116.0999999046326,234441.60000014305,8103,ATS,B,1
2,test,1,B,mfborder.png,1,m,Wed Mar 25 2026 11:59:02 GMT-0500 (Central Daylight Time),238806.90000009537,CFD-WM-012-007-HC.jpg,1600,dash,I,m,625,10,1,4365.299999952316,234441.60000014305,8103,ATS,B,2
2,test,1,B,mfborder.png,0,z,Wed Mar 25 2026 11:59:02 GMT-0500 (Central Daylight Time),241339.5,CFD-BF-051-043-A.jpg,1000,dash,I,None,1516,4,1,6897.899999856949,234441.60000014305,8103,ATS,B,3
3,test,1,B,mfborder.png,1,m,Wed Mar 25 2026 11:59:02 GMT-0500 (Central Daylight Time),243655.60000014305,CFD-BM-020-024-HC.jpg,1700,dash,I,m,583,1,1,9214.0,234441.60000014305,8103,ATS,B,4
4,test,1,B,mfborder.png,1,z,Wed Mar 25 2026 11:59:02 GMT-0500 (Central Daylight Time),245888.0,CFD-WF-026-008-A.jpg,1500,dash,I,z,700,11,1,11446.399999856949,234441.60000014305,8103,ATS,B,5
5,test,1,B,mfborder.png,1,z,Wed Mar 25 2026 11:59:02 GMT-0500 (Central Daylight Time),248370.60000014305,CFD-WF-027-007-HC.jpg,1900,dash,I,z,565,8,1,13929.0,234441.60000014305,8103,ATS,B,6
6,test,1,B,mfborder.png,1,m,Wed Mar 25 2026 11:59:02 GMT-0500 (Central Daylight Time),251086.40000009537,CFD-WM-009-009-A.jpg,1700,dash,I,m,990,9,1,16644.799999952316,234441.60000014305,8103,ATS,B,7
7,test,1,B,mfborder.png,1,z,Wed Mar 25 2026 11:59:02 GMT-0500 (Central Daylight Time),253269.10000014305,CFD-BF-035-007-HC.jpg,1400,dash,I,z,761,7,1,18827.5,234441.60000014305,8103,ATS,B,8
8,test,1,B,mfborder.png,1,m,Wed Mar 25 2026 11:59:02 GMT-0500 (Central Daylight Time),255535.10000014305,CFD-WM-037-060-A.jpg,1200,dash,I,m,1042,6,1,21093.5,234441.60000014305,8103,ATS,B,9
9,test,1,B,mfborder.png,1,m,Wed Mar 25 2026 11:59:02 GMT-0500 (Central Daylight Time),258250.60000014305,CFD-WM-012-007-HC.jpg,1600,dash,I,m,1097,10,1,23809.0,234441.60000014305,8103,ATS,B,10
10,test,1,B,mfborder.png,1,z,Wed Mar 25 2026 11:59:02 GMT-0500 (Central Daylight Time),260566.70000004768,CFD-BF-051-043-A.jpg,1000,dash,I,z,1284,4,1,26125.099999904633,234441.60000014305,8103,ATS,B,11
11,test,1,B,mfborder.png,1,z,Wed Mar 25 2026 11:59:02 GMT-0500 (Central Daylight Time),263516.60000014305,CFD-WF-027-007-HC.jpg,1900,dash,I,z,1029,8,1,29075.0,234441.60000014305,8103,ATS,B,12
12,test,1,B,mfborder.png,1,m,Wed Mar 25 2026 11:59:02 GMT-0500 (Central Daylight Time),265931.60000014305,CFD-BM-020-024-HC.jpg,1700,dash,I,m,695,1,1,31490.0,234441.60000014305,8103,ATS,B,13
13,test,1,B,mfborder.png,1,z,Wed Mar 25 2026 11:59:02 GMT-0500 (Central Daylight Time),268031.10000014305,CFD-WF-011-006-HC.jpg,1000,dash,I,z,1075,12,1,33589.5,234441.60000014305,8103,ATS,B,14
14,test,1,B,mfborder.png,1,m,Wed Mar 25 2026 11:59:02 GMT-0500 (Central Daylight Time),270747.10000014305,CFD-BM-041-048-A.jpg,1600,dash,I,m,1088,2,1,36305.5,234441.60000014305,8103,ATS,B,15
15,test,1,B,mfborder.png,1,m,Wed Mar 25 2026 11:59:02 GMT-0500 (Central Daylight Time),273645.60000014305,CFD-BM-037-041-A.jpg,2000,dash,I,m,869,5,1,39204.0,234441.60000014305,8103,ATS,B,16
16,test,1,B,mfborder.png,1,z,Wed Mar 25 2026 11:59:02 GMT-0500 (Central Daylight Time),275861.7999999523,CFD-BF-027-013-HC.jpg,1500,dash,I,z,684,3,1,41420.199999809265,234441.60000014305,8103,ATS,B,17
17,test,1,B,mfborder.png,1,m,Wed Mar 25 2026 11:59:02 GMT-0500 (Central Daylight Time),278544.40000009537,CFD-BM-037-041-A.jpg,2000,dash,I,m,650,5,1,44102.799999952316,234441.60000014305,8103,ATS,B,18
18,test,1,B,mfborder.png,1,m,Wed Mar 25 2026 11:59:02 GMT-0500 (Central Daylight Time),280643.7000000477,CFD-WM-037-060-A.jpg,1200,dash,I,m,879,6,1,46202.09999990463,234441.60000014305,8103,ATS,B,19
19,test,1,B,mfborder.png,1,z,Wed Mar 25 2026 11:59:02 GMT-0500 (Central Daylight Time),283210.5,CFD-BF-027-013-HC.jpg,1500,dash,I,z,1047,3,1,48768.89999985695,234441.60000014305,8103,ATS,B,20
20,test,1,B,mfborder.png,1,z,Wed Mar 25 2026 11:59:02 GMT-0500 (Central Daylight Time),284959.2000000477,CFD-WF-011-006-HC.jpg,1000,dash,I,z,718,12,1,50517.59999990463,234441.60000014305,8103,ATS,B,21
21,test,1,B,mfborder.png,1,m,Wed Mar 25 2026 11:59:02 GMT-0500 (Central Daylight Time),287191.7999999523,CFD-BM-041-048-A.jpg,1600,dash,I,m,600,2,1,52750.199999809265,234441.60000014305,8103,ATS,B,22
22,test,1,B,mfborder.png,1,m,Wed Mar 25 2026 11:59:02 GMT-0500 (Central Daylight Time),289674.40000009537,CFD-WM-009-009-A.jpg,1700,dash,I,m,764,9,1,55232.799999952316,234441.60000014305,8103,ATS,B,23
23,test,1,B,mfborder.png,1,z,Wed Mar 25 2026 11:59:02 GMT-0500 (Central Daylight Time),291856.7000000477,CFD-WF-026-008-A.jpg,1500,dash,I,z,665,11,1,57415.09999990463,234441.60000014305,8103,ATS,B,24
0,8,1,C,haborder.png,0,z,Wed Mar 25 2026 11:59:02 GMT-0500 (Central Daylight Time),330578.40000009537,CFD-BF-050-012-A.jpg,1700,solid,I,None,1516,prac,1,3998.7999999523163,326579.60000014305,8103,ATS,B,1
1,5,1,C,mfborder.png,1,m,Wed Mar 25 2026 11:59:02 GMT-0500 (Central Daylight Time),333477.2999999523,CFD-BM-037-041-A.jpg,1200,dash,I,m,910,prac,1,6897.699999809265,326579.60000014305,8103,ATS,B,2
1,11,1,C,haborder.png,0,m,Wed Mar 25 2026 11:59:02 GMT-0500 (Central Daylight Time),336409.7000000477,CFD-WM-011-006-HC.jpg,1000,dash,I,z,1146,prac,1,9830.099999904633,326579.60000014305,8103,ATS,B,3
2,7,1,C,haborder.png,1,z,Wed Mar 25 2026 11:59:02 GMT-0500 (Central Daylight Time),340242.0,CFD-BF-051-043-A.jpg,1900,dash,I,z,1146,prac,1,13662.399999856949,326579.60000014305,8103,ATS,B,4
3,9,1,C,haborder.png,1,z,Wed Mar 25 2026 11:59:02 GMT-0500 (Central Daylight Time),343607.7000000477,CFD-WF-026-008-A.jpg,1600,dash,I,z,965,prac,1,17028.099999904633,326579.60000014305,8103,ATS,B,5
4,3,1,C,mfborder.png,1,z,Wed Mar 25 2026 11:59:02 GMT-0500 (Central Daylight Time),346806.60000014305,CFD-BF-035-007-HC.jpg,1000,dash,I,z,1408,prac,1,20227.0,326579.60000014305,8103,ATS,B,6
5,12,1,C,haborder.png,1,m,Wed Mar 25 2026 11:59:02 GMT-0500 (Central Daylight Time),350472.10000014305,CFD-WM-011-006-HC.jpg,1400,solid,I,m,1473,prac,1,23892.5,326579.60000014305,8103,ATS,B,7
5,1,1,C,mfborder.png,0,z,Wed Mar 25 2026 11:59:02 GMT-0500 (Central Daylight Time),354370.90000009537,CFD-WF-011-006-HC.jpg,1600,dash,I,None,1516,prac,1,27791.299999952316,326579.60000014305,8103,ATS,B,8
6,4,1,C,mfborder.png,1,m,Wed Mar 25 2026 11:59:02 GMT-0500 (Central Daylight Time),358652.7999999523,CFD-BM-015-017-HC.jpg,2000,solid,I,m,1493,prac,1,32073.199999809265,326579.60000014305,8103,ATS,B,9
6,2,1,C,mfborder.png,0,z,Wed Mar 25 2026 11:59:02 GMT-0500 (Central Daylight Time),361918.5,CFD-WF-013-015-A.jpg,1500,solid,I,m,967,prac,1,35338.89999985695,326579.60000014305,8103,ATS,B,10
6,6,1,C,mfborder.png,0,m,Wed Mar 25 2026 11:59:02 GMT-0500 (Central Daylight Time),365650.7000000477,CFD-WM-009-009-A.jpg,1700,solid,I,z,1237,prac,1,39071.09999990463,326579.60000014305,8103,ATS,B,11
6,10,1,C,haborder.png,0,m,Wed Mar 25 2026 11:59:02 GMT-0500 (Central Daylight Time),369450.5,CFD-BM-020-024-HC.jpg,1500,solid,I,None,1516,prac,1,42870.89999985695,326579.60000014305,8103,ATS,B,12
0,test,1,C,mfborder.png,0,m,Wed Mar 25 2026 11:59:02 GMT-0500 (Central Daylight Time),376630.40000009537,CFD-WM-012-007-HC.jpg,1000,dash,I,None,1516,4,1,2532.5,374097.90000009537,8103,ATS,B,1
0,test,1,C,mfborder.png,0,z,Wed Mar 25 2026 11:59:02 GMT-0500 (Central Daylight Time),379762.90000009537,CFD-BF-051-043-A.jpg,1600,dash,I,None,1516,2,1,5665.0,374097.90000009537,8103,ATS,B,2
0,test,1,C,mfborder.png,0,m,Wed Mar 25 2026 11:59:02 GMT-0500 (Central Daylight Time),382495.2999999523,CFD-BM-020-024-HC.jpg,1200,dash,I,None,1516,6,1,8397.399999856949,374097.90000009537,8103,ATS,B,3
1,test,1,C,mfborder.png,1,m,Wed Mar 25 2026 11:59:02 GMT-0500 (Central Daylight Time),384661.0,CFD-WM-012-007-HC.jpg,1000,dash,I,m,1135,4,1,10563.099999904633,374097.90000009537,8103,ATS,B,4
1,test,1,C,haborder.png,0,z,Wed Mar 25 2026 11:59:02 GMT-0500 (Central Daylight Time),387160.40000009537,CFD-BM-041-048-A.jpg,1700,solid,I,m,782,9,1,13062.5,374097.90000009537,8103,ATS,B,5
2,test,1,C,haborder.png,1,m,Wed Mar 25 2026 11:59:02 GMT-0500 (Central Daylight Time),389959.7999999523,CFD-BF-035-007-HC.jpg,1600,solid,I,m,1176,10,1,15861.899999856949,374097.90000009537,8103,ATS,B,6
3,test,1,C,haborder.png,1,z,Wed Mar 25 2026 11:59:02 GMT-0500 (Central Daylight Time),392775.2999999523,CFD-BM-037-041-A.jpg,1900,solid,I,z,884,8,1,18677.39999985695,374097.90000009537,8103,ATS,B,7
4,test,1,C,mfborder.png,1,z,Wed Mar 25 2026 11:59:02 GMT-0500 (Central Daylight Time),395291.2999999523,CFD-WF-026-008-A.jpg,1500,dash,I,z,988,3,1,21193.39999985695,374097.90000009537,8103,ATS,B,8
4,test,1,C,haborder.png,0,z,Wed Mar 25 2026 11:59:02 GMT-0500 (Central Daylight Time),397773.90000009537,CFD-WM-009-009-A.jpg,1400,solid,I,m,1052,7,1,23676.0,374097.90000009537,8103,ATS,B,9
4,test,1,C,haborder.png,0,z,Wed Mar 25 2026 11:59:02 GMT-0500 (Central Daylight Time),400422.90000009537,CFD-WM-009-009-A.jpg,1400,solid,I,m,1226,7,1,26325.0,374097.90000009537,8103,ATS,B,10
4,test,1,C,haborder.png,0,z,Wed Mar 25 2026 11:59:02 GMT-0500 (Central Daylight Time),403855.40000009537,CFD-BM-037-041-A.jpg,1900,solid,I,None,1516,8,1,29757.5,374097.90000009537,8103,ATS,B,11
5,test,1,C,mfborder.png,1,z,Wed Mar 25 2026 11:59:02 GMT-0500 (Central Daylight Time),407004.2999999523,CFD-BF-027-013-HC.jpg,1700,dash,I,z,1420,1,1,32906.39999985695,374097.90000009537,8103,ATS,B,12
6,test,1,C,mfborder.png,1,m,Wed Mar 25 2026 11:59:02 GMT-0500 (Central Daylight Time),409236.7999999523,CFD-BM-020-024-HC.jpg,1200,dash,I,m,1011,6,1,35138.89999985695,374097.90000009537,8103,ATS,B,13
7,test,1,C,mfborder.png,1,m,Wed Mar 25 2026 11:59:02 GMT-0500 (Central Daylight Time),412370.40000009537,CFD-WM-037-060-A.jpg,2000,dash,I,m,1115,5,1,38272.5,374097.90000009537,8103,ATS,B,14
7,test,1,C,haborder.png,0,m,Wed Mar 25 2026 11:59:02 GMT-0500 (Central Daylight Time),414997.0,CFD-BF-035-007-HC.jpg,1600,solid,I,z,1011,10,1,40899.09999990463,374097.90000009537,8103,ATS,B,15
8,test,1,C,haborder.png,1,m,Wed Mar 25 2026 11:59:02 GMT-0500 (Central Daylight Time),417267.90000009537,CFD-WF-011-006-HC.jpg,1000,solid,I,m,1246,12,1,43170.0,374097.90000009537,8103,ATS,B,16
8,test,1,C,mfborder.png,0,z,Wed Mar 25 2026 11:59:02 GMT-0500 (Central Daylight Time),420400.2999999523,CFD-BF-051-043-A.jpg,1600,dash,I,None,1516,2,1,46302.39999985695,374097.90000009537,8103,ATS,B,17
9,test,1,C,mfborder.png,1,z,Wed Mar 25 2026 11:59:02 GMT-0500 (Central Daylight Time),423365.90000009537,CFD-BF-027-013-HC.jpg,1700,dash,I,z,1243,1,1,49268.0,374097.90000009537,8103,ATS,B,18
10,test,1,C,mfborder.png,1,m,Wed Mar 25 2026 11:59:02 GMT-0500 (Central Daylight Time),426131.7999999523,CFD-WM-037-060-A.jpg,2000,dash,I,m,745,5,1,52033.89999985695,374097.90000009537,8103,ATS,B,19
10,test,1,C,haborder.png,0,m,Wed Mar 25 2026 11:59:02 GMT-0500 (Central Daylight Time),429163.90000009537,CFD-WF-027-007-HC.jpg,1500,solid,I,None,1516,11,1,55066.0,374097.90000009537,8103,ATS,B,20
11,test,1,C,haborder.png,1,z,Wed Mar 25 2026 11:59:02 GMT-0500 (Central Daylight Time),431729.7999999523,CFD-BM-041-048-A.jpg,1700,solid,I,z,840,9,1,57631.89999985695,374097.90000009537,8103,ATS,B,21
11,test,1,C,mfborder.png,0,z,Wed Mar 25 2026 11:59:02 GMT-0500 (Central Daylight Time),434762.0,CFD-WF-026-008-A.jpg,1500,dash,I,None,1515,3,1,60664.09999990463,374097.90000009537,8103,ATS,B,22
11,test,1,C,haborder.png,0,m,Wed Mar 25 2026 11:59:02 GMT-0500 (Central Daylight Time),437795.90000009537,CFD-WF-027-007-HC.jpg,1500,solid,I,None,1517,11,1,63698.0,374097.90000009537,8103,ATS,B,23
12,test,1,C,haborder.png,1,m,Wed Mar 25 2026 11:59:02 GMT-0500 (Central Daylight Time),439994.10000014305,CFD-WF-011-006-HC.jpg,1000,solid,I,m,1173,12,1,65896.20000004768,374097.90000009537,8103,ATS,B,24
0,test,2,C,haborder.png,0,z,Wed Mar 25 2026 11:59:02 GMT-0500 (Central Daylight Time),450157.7000000477,CFD-BF-051-043-A.jpg,1400,solid,I,None,1516,7,1,2932.4000000953674,447225.2999999523,8103,ATS,B,1
1,test,2,C,mfborder.png,1,z,Wed Mar 25 2026 11:59:02 GMT-0500 (Central Daylight Time),453140.0,CFD-WF-013-015-A.jpg,1600,dash,I,z,1362,2,1,5914.700000047684,447225.2999999523,8103,ATS,B,2
2,test,2,C,haborder.png,1,z,Wed Mar 25 2026 11:59:02 GMT-0500 (Central Daylight Time),455473.60000014305,CFD-BF-051-043-A.jpg,1400,solid,I,z,900,7,1,8248.300000190735,447225.2999999523,8103,ATS,B,3
3,test,2,C,haborder.png,1,m,Wed Mar 25 2026 11:59:02 GMT-0500 (Central Daylight Time),457571.90000009537,CFD-WM-011-006-HC.jpg,1000,solid,I,m,1071,12,1,10346.600000143051,447225.2999999523,8103,ATS,B,4
4,test,2,C,mfborder.png,1,m,Wed Mar 25 2026 11:59:02 GMT-0500 (Central Daylight Time),460037.7000000477,CFD-WM-009-009-A.jpg,1200,dash,I,m,1235,6,1,12812.400000095367,447225.2999999523,8103,ATS,B,5
5,test,2,C,mfborder.png,1,m,Wed Mar 25 2026 11:59:02 GMT-0500 (Central Daylight Time),461787.2000000477,CFD-BM-015-017-HC.jpg,1000,dash,I,m,722,4,1,14561.900000095367,447225.2999999523,8103,ATS,B,6
6,test,2,C,mfborder.png,1,z,Wed Mar 25 2026 11:59:02 GMT-0500 (Central Daylight Time),464236.2999999523,CFD-BF-035-007-HC.jpg,1500,dash,I,z,920,3,1,17011.0,447225.2999999523,8103,ATS,B,7
7,test,2,C,haborder.png,1,m,Wed Mar 25 2026 11:59:02 GMT-0500 (Central Daylight Time),466085.7000000477,CFD-WM-011-006-HC.jpg,1000,solid,I,m,827,12,1,18860.400000095367,447225.2999999523,8103,ATS,B,8
7,test,2,C,mfborder.png,0,z,Wed Mar 25 2026 11:59:02 GMT-0500 (Central Daylight Time),469102.7999999523,CFD-BF-035-007-HC.jpg,1500,dash,I,None,1501,3,1,21877.5,447225.2999999523,8103,ATS,B,9
8,test,2,C,haborder.png,1,m,Wed Mar 25 2026 11:59:02 GMT-0500 (Central Daylight Time),471484.0,CFD-BM-020-024-HC.jpg,1600,solid,I,m,754,10,1,24258.700000047684,447225.2999999523,8103,ATS,B,10
8,test,2,C,mfborder.png,0,m,Wed Mar 25 2026 11:59:02 GMT-0500 (Central Daylight Time),474549.90000009537,CFD-BM-037-041-A.jpg,2000,dash,I,z,1035,5,1,27324.60000014305,447225.2999999523,8103,ATS,B,11
9,test,2,C,haborder.png,1,z,Wed Mar 25 2026 11:59:02 GMT-0500 (Central Daylight Time),477898.90000009537,CFD-BF-050-012-A.jpg,1900,solid,I,z,1430,8,1,30673.60000014305,447225.2999999523,8103,ATS,B,12
10,test,2,C,haborder.png,1,m,Wed Mar 25 2026 11:59:02 GMT-0500 (Central Daylight Time),480931.10000014305,CFD-BM-020-024-HC.jpg,1600,solid,I,m,1404,10,1,33705.800000190735,447225.2999999523,8103,ATS,B,13
11,test,2,C,haborder.png,1,m,Wed Mar 25 2026 11:59:02 GMT-0500 (Central Daylight Time),483230.60000014305,CFD-WM-011-006-HC.jpg,1500,solid,I,m,776,11,1,36005.300000190735,447225.2999999523,8103,ATS,B,14
12,test,2,C,mfborder.png,1,m,Wed Mar 25 2026 11:59:02 GMT-0500 (Central Daylight Time),485129.7000000477,CFD-BM-015-017-HC.jpg,1000,dash,I,m,881,4,1,37904.40000009537,447225.2999999523,8103,ATS,B,15
12,test,2,C,haborder.png,0,m,Wed Mar 25 2026 11:59:02 GMT-0500 (Central Daylight Time),488162.5,CFD-WM-011-006-HC.jpg,1500,solid,I,None,1516,11,1,40937.200000047684,447225.2999999523,8103,ATS,B,16
13,test,2,C,haborder.png,1,z,Wed Mar 25 2026 11:59:02 GMT-0500 (Central Daylight Time),491111.10000014305,CFD-BF-050-012-A.jpg,1900,solid,I,z,1025,8,1,43885.800000190735,447225.2999999523,8103,ATS,B,17
14,test,2,C,mfborder.png,1,z,Wed Mar 25 2026 11:59:02 GMT-0500 (Central Daylight Time),493894.10000014305,CFD-WF-011-006-HC.jpg,1700,dash,I,z,1052,1,1,46668.800000190735,447225.2999999523,8103,ATS,B,18
14,test,2,C,mfborder.png,0,z,Wed Mar 25 2026 11:59:02 GMT-0500 (Central Daylight Time),497127.40000009537,CFD-WF-011-006-HC.jpg,1700,dash,I,None,1516,1,1,49902.10000014305,447225.2999999523,8103,ATS,B,19
15,test,2,C,haborder.png,1,z,Wed Mar 25 2026 11:59:02 GMT-0500 (Central Daylight Time),499841.7999999523,CFD-WF-026-008-A.jpg,1700,solid,I,z,997,9,1,52616.5,447225.2999999523,8103,ATS,B,20
16,test,2,C,haborder.png,1,z,Wed Mar 25 2026 11:59:02 GMT-0500 (Central Daylight Time),502291.40000009537,CFD-WF-026-008-A.jpg,1700,solid,I,z,722,9,1,55066.10000014305,447225.2999999523,8103,ATS,B,21
17,test,2,C,mfborder.png,1,m,Wed Mar 25 2026 11:59:02 GMT-0500 (Central Daylight Time),504756.7999999523,CFD-WM-009-009-A.jpg,1200,dash,I,m,1236,6,1,57531.5,447225.2999999523,8103,ATS,B,22
18,test,2,C,mfborder.png,1,z,Wed Mar 25 2026 11:59:02 GMT-0500 (Central Daylight Time),507089.90000009537,CFD-WF-013-015-A.jpg,1600,dash,I,z,713,2,1,59864.60000014305,447225.2999999523,8103,ATS,B,23
19,test,2,C,mfborder.png,1,m,Wed Mar 25 2026 11:59:02 GMT-0500 (Central Daylight Time),509872.10000014305,CFD-BM-037-041-A.jpg,2000,dash,I,m,627,5,1,62646.800000190735,447225.2999999523,8103,ATS,B,24
0,test,3,C,haborder.png,0,m,Wed Mar 25 2026 11:59:02 GMT-0500 (Central Daylight Time),515787.0,CFD-WF-027-007-HC.jpg,1500,solid,I,None,1516,11,1,3032.2999999523163,512754.7000000477,8103,ATS,B,1
1,test,3,C,haborder.png,1,z,Wed Mar 25 2026 11:59:02 GMT-0500 (Central Daylight Time),518652.7999999523,CFD-BM-037-041-A.jpg,1900,solid,I,z,937,8,1,5898.099999904633,512754.7000000477,8103,ATS,B,2
2,test,3,C,haborder.png,1,z,Wed Mar 25 2026 11:59:02 GMT-0500 (Central Daylight Time),521151.7999999523,CFD-BM-041-048-A.jpg,1700,solid,I,z,767,9,1,8397.099999904633,512754.7000000477,8103,ATS,B,3
3,test,3,C,haborder.png,1,m,Wed Mar 25 2026 11:59:02 GMT-0500 (Central Daylight Time),523967.7000000477,CFD-WF-027-007-HC.jpg,1500,solid,I,m,1290,11,1,11213.0,512754.7000000477,8103,ATS,B,4
4,test,3,C,mfborder.png,1,m,Wed Mar 25 2026 11:59:02 GMT-0500 (Central Daylight Time),525850.600000143,CFD-WM-012-007-HC.jpg,1000,dash,I,m,857,4,1,13095.900000095367,512754.7000000477,8103,ATS,B,5
4,test,3,C,mfborder.png,0,z,Wed Mar 25 2026 11:59:02 GMT-0500 (Central Daylight Time),528916.5,CFD-BF-051-043-A.jpg,1600,dash,I,m,1437,2,1,16161.799999952316,512754.7000000477,8103,ATS,B,6
5,test,3,C,mfborder.png,1,z,Wed Mar 25 2026 11:59:02 GMT-0500 (Central Daylight Time),531648.5,CFD-BF-027-013-HC.jpg,1700,dash,I,z,1015,1,1,18893.799999952316,512754.7000000477,8103,ATS,B,7
6,test,3,C,mfborder.png,1,z,Wed Mar 25 2026 11:59:02 GMT-0500 (Central Daylight Time),534214.5,CFD-BF-051-043-A.jpg,1600,dash,I,z,943,2,1,21459.799999952316,512754.7000000477,8103,ATS,B,8
7,test,3,C,mfborder.png,1,m,Wed Mar 25 2026 11:59:02 GMT-0500 (Central Daylight Time),536164.0,CFD-BM-020-024-HC.jpg,1200,dash,I,m,729,6,1,23409.299999952316,512754.7000000477,8103,ATS,B,9
8,test,3,C,haborder.png,1,m,Wed Mar 25 2026 11:59:02 GMT-0500 (Central Daylight Time),538680.2000000477,CFD-BF-035-007-HC.jpg,1600,solid,I,m,892,10,1,25925.5,512754.7000000477,8103,ATS,B,10
9,test,3,C,haborder.png,1,m,Wed Mar 25 2026 11:59:02 GMT-0500 (Central Daylight Time),540596.100000143,CFD-WF-011-006-HC.jpg,1000,solid,I,m,895,12,1,27841.400000095367,512754.7000000477,8103,ATS,B,11
9,test,3,C,mfborder.png,0,z,Wed Mar 25 2026 11:59:02 GMT-0500 (Central Daylight Time),543828.2999999523,CFD-BF-027-013-HC.jpg,1700,dash,I,None,1515,1,1,31073.599999904633,512754.7000000477,8103,ATS,B,12
9,test,3,C,haborder.png,0,m,Wed Mar 25 2026 11:59:02 GMT-0500 (Central Daylight Time),546361.0,CFD-WF-011-006-HC.jpg,1000,solid,I,None,1516,12,1,33606.299999952316,512754.7000000477,8103,ATS,B,13
10,test,3,C,mfborder.png,1,z,Wed Mar 25 2026 11:59:02 GMT-0500 (Central Daylight Time),548893.4000000954,CFD-WF-026-008-A.jpg,1500,dash,I,z,1012,3,1,36138.700000047684,512754.7000000477,8103,ATS,B,14
11,test,3,C,mfborder.png,1,m,Wed Mar 25 2026 11:59:02 GMT-0500 (Central Daylight Time),550809.5,CFD-BM-020-024-HC.jpg,1200,dash,I,m,690,6,1,38054.799999952316,512754.7000000477,8103,ATS,B,15
12,test,3,C,mfborder.png,1,m,Wed Mar 25 2026 11:59:02 GMT-0500 (Central Daylight Time),553608.100000143,CFD-WM-037-060-A.jpg,2000,dash,I,m,775,5,1,40853.40000009537,512754.7000000477,8103,ATS,B,16
13,test,3,C,haborder.png,1,z,Wed Mar 25 2026 11:59:02 GMT-0500 (Central Daylight Time),556807.5,CFD-BM-037-041-A.jpg,1900,solid,I,z,1267,8,1,44052.799999952316,512754.7000000477,8103,ATS,B,17
14,test,3,C,haborder.png,1,m,Wed Mar 25 2026 11:59:02 GMT-0500 (Central Daylight Time),559756.5,CFD-BF-035-007-HC.jpg,1600,solid,I,m,1320,10,1,47001.799999952316,512754.7000000477,8103,ATS,B,18
15,test,3,C,haborder.png,1,z,Wed Mar 25 2026 11:59:02 GMT-0500 (Central Daylight Time),562522.5,CFD-WM-009-009-A.jpg,1400,solid,I,z,1339,7,1,49767.799999952316,512754.7000000477,8103,ATS,B,19
16,test,3,C,haborder.png,1,z,Wed Mar 25 2026 11:59:02 GMT-0500 (Central Daylight Time),565121.600000143,CFD-BM-041-048-A.jpg,1700,solid,I,z,881,9,1,52366.90000009537,512754.7000000477,8103,ATS,B,20
17,test,3,C,mfborder.png,1,m,Wed Mar 25 2026 11:59:02 GMT-0500 (Central Daylight Time),567471.0,CFD-WM-012-007-HC.jpg,1000,dash,I,m,1326,4,1,54716.299999952316,512754.7000000477,8103,ATS,B,21
18,test,3,C,mfborder.png,1,z,Wed Mar 25 2026 11:59:02 GMT-0500 (Central Daylight Time),569853.100000143,CFD-WF-026-008-A.jpg,1500,dash,I,z,862,3,1,57098.40000009537,512754.7000000477,8103,ATS,B,22
19,test,3,C,mfborder.png,1,m,Wed Mar 25 2026 11:59:02 GMT-0500 (Central Daylight Time),572869.2999999523,CFD-WM-037-060-A.jpg,2000,dash,I,m,986,5,1,60114.59999990463,512754.7000000477,8103,ATS,B,23
20,test,3,C,haborder.png,1,z,Wed Mar 25 2026 11:59:02 GMT-0500 (Central Daylight Time),575768.2999999523,CFD-WM-009-009-A.jpg,1400,solid,I,z,1482,7,1,63013.59999990463,512754.7000000477,8103,ATS,B,24
1,test,4,C,haborder.png,1,m,Wed Mar 25 2026 11:59:02 GMT-0500 (Central Daylight Time),583799.100000143,CFD-WM-011-006-HC.jpg,1000,solid,I,m,1342,12,1,2365.800000190735,581433.2999999523,8103,ATS,B,1
2,test,4,C,haborder.png,1,m,Wed Mar 25 2026 11:59:02 GMT-0500 (Central Daylight Time),586348.2000000477,CFD-BM-020-024-HC.jpg,1600,solid,I,m,928,10,1,4914.900000095367,581433.2999999523,8103,ATS,B,2
3,test,4,C,haborder.png,1,m,Wed Mar 25 2026 11:59:02 GMT-0500 (Central Daylight Time),588581.100000143,CFD-WM-011-006-HC.jpg,1500,solid,I,m,712,11,1,7147.800000190735,581433.2999999523,8103,ATS,B,3
4,test,4,C,mfborder.png,1,m,Wed Mar 25 2026 11:59:02 GMT-0500 (Central Daylight Time),591430.2000000477,CFD-BM-037-041-A.jpg,2000,dash,I,m,827,5,1,9996.900000095367,581433.2999999523,8103,ATS,B,4
5,test,4,C,haborder.png,1,z,Wed Mar 25 2026 11:59:02 GMT-0500 (Central Daylight Time),594230.9000000954,CFD-WF-026-008-A.jpg,1700,solid,I,z,1071,9,1,12797.600000143051,581433.2999999523,8103,ATS,B,5
6,test,4,C,mfborder.png,1,z,Wed Mar 25 2026 11:59:02 GMT-0500 (Central Daylight Time),597094.7000000477,CFD-WF-011-006-HC.jpg,1700,dash,I,z,1143,1,1,15661.400000095367,581433.2999999523,8103,ATS,B,6
7,test,4,C,mfborder.png,1,m,Wed Mar 25 2026 11:59:02 GMT-0500 (Central Daylight Time),599261.100000143,CFD-WM-009-009-A.jpg,1200,dash,I,m,937,6,1,17827.800000190735,581433.2999999523,8103,ATS,B,7
8,test,4,C,mfborder.png,1,m,Wed Mar 25 2026 11:59:02 GMT-0500 (Central Daylight Time),601010.2999999523,CFD-BM-015-017-HC.jpg,1000,dash,I,m,730,4,1,19577.0,581433.2999999523,8103,ATS,B,8
9,test,4,C,mfborder.png,1,m,Wed Mar 25 2026 11:59:02 GMT-0500 (Central Daylight Time),603043.0,CFD-WM-009-009-A.jpg,1200,dash,I,m,813,6,1,21609.700000047684,581433.2999999523,8103,ATS,B,9
10,test,4,C,haborder.png,1,m,Wed Mar 25 2026 11:59:02 GMT-0500 (Central Daylight Time),605759.0,CFD-BM-020-024-HC.jpg,1600,solid,I,m,1094,10,1,24325.700000047684,581433.2999999523,8103,ATS,B,10
11,test,4,C,mfborder.png,1,m,Wed Mar 25 2026 11:59:02 GMT-0500 (Central Daylight Time),608025.100000143,CFD-BM-015-017-HC.jpg,1000,dash,I,m,1241,4,1,26591.800000190735,581433.2999999523,8103,ATS,B,11
12,test,4,C,haborder.png,1,z,Wed Mar 25 2026 11:59:02 GMT-0500 (Central Daylight Time),610707.2999999523,CFD-BF-051-043-A.jpg,1400,solid,I,z,1263,7,1,29274.0,581433.2999999523,8103,ATS,B,12
13,test,4,C,haborder.png,1,m,Wed Mar 25 2026 11:59:02 GMT-0500 (Central Daylight Time),613023.100000143,CFD-WM-011-006-HC.jpg,1500,solid,I,m,784,11,1,31589.800000190735,581433.2999999523,8103,ATS,B,13
13,test,4,C,mfborder.png,0,z,Wed Mar 25 2026 11:59:02 GMT-0500 (Central Daylight Time),616255.5,CFD-WF-011-006-HC.jpg,1700,dash,I,None,1515,1,1,34822.200000047684,581433.2999999523,8103,ATS,B,14
14,test,4,C,mfborder.png,1,m,Wed Mar 25 2026 11:59:02 GMT-0500 (Central Daylight Time),619054.7000000477,CFD-BM-037-041-A.jpg,2000,dash,I,m,777,5,1,37621.40000009537,581433.2999999523,8103,ATS,B,15
15,test,4,C,haborder.png,1,z,Wed Mar 25 2026 11:59:02 GMT-0500 (Central Daylight Time),621938.2999999523,CFD-BF-050-012-A.jpg,1900,solid,I,z,964,8,1,40505.0,581433.2999999523,8103,ATS,B,16
16,test,4,C,haborder.png,1,z,Wed Mar 25 2026 11:59:02 GMT-0500 (Central Daylight Time),624136.5,CFD-BF-051-043-A.jpg,1400,solid,I,z,775,7,1,42703.200000047684,581433.2999999523,8103,ATS,B,17
17,test,4,C,haborder.png,1,m,Wed Mar 25 2026 11:59:02 GMT-0500 (Central Daylight Time),626235.7999999523,CFD-WM-011-006-HC.jpg,1000,solid,I,m,1072,12,1,44802.5,581433.2999999523,8103,ATS,B,18
17,test,4,C,mfborder.png,0,z,Wed Mar 25 2026 11:59:02 GMT-0500 (Central Daylight Time),629368.2999999523,CFD-WF-013-015-A.jpg,1600,dash,I,None,1516,2,1,47935.0,581433.2999999523,8103,ATS,B,19
18,test,4,C,mfborder.png,1,z,Wed Mar 25 2026 11:59:02 GMT-0500 (Central Daylight Time),631701.0,CFD-BF-035-007-HC.jpg,1500,dash,I,z,811,3,1,50267.700000047684,581433.2999999523,8103,ATS,B,20
19,test,4,C,mfborder.png,1,z,Wed Mar 25 2026 11:59:02 GMT-0500 (Central Daylight Time),633966.7000000477,CFD-WF-013-015-A.jpg,1600,dash,I,z,635,2,1,52533.40000009537,581433.2999999523,8103,ATS,B,21
20,test,4,C,mfborder.png,1,z,Wed Mar 25 2026 11:59:02 GMT-0500 (Central Daylight Time),636149.2999999523,CFD-BF-035-007-HC.jpg,1500,dash,I,z,662,3,1,54716.0,581433.2999999523,8103,ATS,B,22
20,test,4,C,haborder.png,0,z,Wed Mar 25 2026 11:59:02 GMT-0500 (Central Daylight Time),639348.4000000954,CFD-BF-050-012-A.jpg,1900,solid,I,m,1278,8,1,57915.10000014305,581433.2999999523,8103,ATS,B,23
21,test,4,C,haborder.png,1,z,Wed Mar 25 2026 11:59:02 GMT-0500 (Central Daylight Time),642347.2999999523,CFD-WF-026-008-A.jpg,1700,solid,I,z,1280,9,1,60914.0,581433.2999999523,8103,ATS,B,24
