acc_sum,block,block_c,condition,correct,correct_response,datetime,endtime,flanker,jitter,project,response,response_test_buffer_response,response_test_target_response,response_time,response_time_test_buffer_response,response_time_test_target_response,row_sel,session_number,start_end,starttime,subject_id,target,task,task_vers,time_test_buffer,time_test_buffer_response,time_test_constants,time_test_flanker,time_test_jitter,time_test_logger,time_test_target,time_test_target_response,time_test_variables,trial
1,prac,1,con,1,m,Fri Mar 27 2026 14:47:40 GMT-0400 (Eastern Daylight Time),271126.60000002384,gold,800,I,m,,,594,,,13,1,2690.399999976158,268436.2000000477,1,gold,NF,C,,,,,,,,,,1
2,prac,1,inc,1,z,Fri Mar 27 2026 14:47:40 GMT-0400 (Eastern Daylight Time),274076.3000000715,cobalt,1100,I,z,,,539,,,4,1,2939.899999976158,271136.40000009537,1,raisin,NF,C,,,,,,,,,,2
3,prac,1,con,1,z,Fri Mar 27 2026 14:47:40 GMT-0400 (Eastern Daylight Time),276843.0,orange,1000,I,z,,,457,,,3,1,2754.2999999523163,274088.7000000477,1,orange,NF,C,,,,,,,,,,3
4,prac,1,inc,1,z,Fri Mar 27 2026 14:47:40 GMT-0400 (Eastern Daylight Time),279659.7000000477,iron,900,I,z,,,607,,,6,1,2807.5,276852.2000000477,1,pear,NF,C,,,,,,,,,,4
5,prac,1,con,1,m,Fri Mar 27 2026 14:47:40 GMT-0400 (Eastern Daylight Time),282526.3000000715,zinc,1000,I,m,,,554,,,15,1,2857.8000000715256,279668.5,1,zinc,NF,C,,,,,,,,,,5
6,prac,1,con,1,m,Fri Mar 27 2026 14:47:40 GMT-0400 (Eastern Daylight Time),285509.60000002384,silver,1000,I,m,,,679,,,11,1,2973.0,282536.60000002384,1,silver,NF,C,,,,,,,,,,6
7,prac,1,inc,1,z,Fri Mar 27 2026 14:47:40 GMT-0400 (Eastern Daylight Time),288276.3000000715,copper,900,I,z,,,564,,,2,1,2758.0,285518.3000000715,1,cherry,NF,C,,,,,,,,,,7
8,prac,1,inc,1,m,Fri Mar 27 2026 14:47:40 GMT-0400 (Eastern Daylight Time),291309.60000002384,plum,1100,I,m,,,622,,,16,1,3024.1999999284744,288285.40000009537,1,lead,NF,C,,,,,,,,,,8
9,prac,1,inc,1,m,Fri Mar 27 2026 14:47:40 GMT-0400 (Eastern Daylight Time),294342.8000000715,raisin,1100,I,m,,,628,,,12,1,3023.899999976158,291318.90000009537,1,cobalt,NF,C,,,,,,,,,,9
10,prac,1,inc,1,m,Fri Mar 27 2026 14:47:40 GMT-0400 (Eastern Daylight Time),297309.60000002384,cherry,900,I,m,,,754,,,10,1,2955.2999999523163,294354.3000000715,1,copper,NF,C,,,,,,,,,,10
11,prac,1,con,1,z,Fri Mar 27 2026 14:47:40 GMT-0400 (Eastern Daylight Time),299942.90000009537,banana,800,I,z,,,529,,,1,1,2624.4000000953674,297318.5,1,banana,NF,C,,,,,,,,,,11
12,prac,1,inc,1,z,Fri Mar 27 2026 14:47:40 GMT-0400 (Eastern Daylight Time),303026.10000002384,lead,1100,I,z,,,666,,,8,1,3073.2999999523163,299952.8000000715,1,plum,NF,C,,,,,,,,,,12
13,prac,1,con,1,z,Fri Mar 27 2026 14:47:40 GMT-0400 (Eastern Daylight Time),305859.60000002384,kiwi,1000,I,z,,,531,,,7,1,2824.2999999523163,303035.3000000715,1,kiwi,NF,C,,,,,,,,,,13
14,prac,1,con,1,z,Fri Mar 27 2026 14:47:40 GMT-0400 (Eastern Daylight Time),308592.90000009537,lime,800,I,z,,,618,,,5,1,2723.3000000715256,305869.60000002384,1,lime,NF,C,,,,,,,,,,14
15,prac,1,con,1,m,Fri Mar 27 2026 14:47:40 GMT-0400 (Eastern Daylight Time),311092.90000009537,bronze,800,I,m,,,396,,,9,1,2487.3000000715256,308605.60000002384,1,bronze,NF,C,,,,,,,,,,15
16,prac,1,inc,1,m,Fri Mar 27 2026 14:47:40 GMT-0400 (Eastern Daylight Time),313809.5,pear,900,I,m,,,500,,,14,1,2707.7999999523163,311101.7000000477,1,iron,NF,C,,,,,,,,,,16
1,test,1,con,1,m,Fri Mar 27 2026 14:47:40 GMT-0400 (Eastern Daylight Time),339859.60000002384,lead,1100,I,m,m,None,700,500.0,200.0,124,1,2342.2999999523163,337517.3000000715,1,lead,NF,C,336729,336730,334903,336012,334904,337246,336529,336529,337245,1
2,test,1,inc,1,z,Fri Mar 27 2026 14:47:40 GMT-0400 (Eastern Daylight Time),341759.40000009537,bronze,800,I,z,z,None,555,355.0,200.0,21,1,1888.8000000715256,339870.60000002384,1,orange,NF,C,338779,338779,337257,338063,337257,339146,338579,338579,339145,2
3,test,1,inc,1,z,Fri Mar 27 2026 14:47:40 GMT-0400 (Eastern Daylight Time),343659.3000000715,iron,900,I,z,z,None,459,259.0,200.0,62,1,1889.7000000476837,341769.60000002384,1,plum,NF,C,340779,340779,339156,340063,339156,341045,340579,340579,341045,3
4,test,1,con,1,m,Fri Mar 27 2026 14:47:40 GMT-0400 (Eastern Daylight Time),345676.0,cobalt,1100,I,m,m,None,374,174.0,200.0,92,1,2007.0,343669.0,1,cobalt,NF,C,342880,342880,341055,342163,341055,343062,342679,342679,343062,4
5,test,1,inc,1,m,Fri Mar 27 2026 14:47:40 GMT-0400 (Eastern Daylight Time),347776.0,kiwi,1000,I,m,m,None,554,355.0,199.0,119,1,2091.5999999046326,345684.40000009537,1,zinc,NF,C,344796,344796,343070,344079,343071,345162,344596,344596,345162,5
6,test,1,con,1,z,Fri Mar 27 2026 14:47:40 GMT-0400 (Eastern Daylight Time),349809.40000009537,cherry,1100,I,z,z,None,385,186.0,199.0,12,1,2021.9000000953674,347787.5,1,cherry,NF,C,346996,346996,345174,346279,345174,347196,346796,346796,347195,6
7,test,1,con,1,m,Fri Mar 27 2026 14:47:40 GMT-0400 (Eastern Daylight Time),351759.3000000715,zinc,1100,I,m,m,None,305,105.0,200.0,116,1,1940.1000000238419,349819.2000000477,1,zinc,NF,C,349029,349029,347205,348312,347206,349145,348829,348829,349145,7
8,test,1,inc,1,m,Fri Mar 27 2026 14:47:40 GMT-0400 (Eastern Daylight Time),353676.0,lime,800,I,m,m,None,575,375.0,200.0,101,1,1907.5,351768.5,1,gold,NF,C,350679,350679,349155,349963,349155,351062,350479,350479,351062,8
9,test,1,con,1,z,Fri Mar 27 2026 14:47:40 GMT-0400 (Eastern Daylight Time),355525.90000009537,lime,900,I,z,z,None,413,214.0,199.0,34,1,1839.9000000953674,353686.0,1,lime,NF,C,352696,352696,351072,351979,351072,352912,352496,352496,352912,9
10,test,1,con,1,m,Fri Mar 27 2026 14:47:40 GMT-0400 (Eastern Daylight Time),357259.40000009537,lead,800,I,m,m,None,391,192.0,199.0,121,1,1724.0,355535.40000009537,1,lead,NF,C,354446,354446,352921,353729,352922,354645,354246,354246,354645,10
11,test,1,con,1,m,Fri Mar 27 2026 14:47:40 GMT-0400 (Eastern Daylight Time),359159.3000000715,zinc,1000,I,m,m,None,362,163.0,199.0,115,1,1889.7000000476837,357269.60000002384,1,zinc,NF,C,356379,356379,354656,355663,354656,356545,356179,356179,356545,11
12,test,1,inc,1,z,Fri Mar 27 2026 14:47:40 GMT-0400 (Eastern Daylight Time),361092.7000000477,zinc,1000,I,z,z,None,383,183.0,200.0,47,1,1920.3999999761581,359172.3000000715,1,pear,NF,C,358279,358279,356558,357563,356559,358479,358079,358079,358479,12
13,test,1,con,1,m,Fri Mar 27 2026 14:47:40 GMT-0400 (Eastern Daylight Time),363342.7000000477,silver,1100,I,m,m,None,605,405.0,200.0,84,1,2240.899999976158,361101.8000000715,1,silver,NF,C,360313,360313,358488,359596,358488,360729,360112,360112,360729,13
14,test,1,con,1,z,Fri Mar 27 2026 14:47:40 GMT-0400 (Eastern Daylight Time),365192.7000000477,banana,1000,I,z,z,None,311,111.0,200.0,3,1,1840.5,363352.2000000477,1,banana,NF,C,362463,362463,360738,361746,360739,362579,362262,362262,362579,14
15,test,1,con,1,m,Fri Mar 27 2026 14:47:40 GMT-0400 (Eastern Daylight Time),367125.8000000715,iron,1100,I,m,m,None,296,97.0,199.0,108,1,1922.3000000715256,365203.5,1,iron,NF,C,364413,364413,362590,363696,362590,364512,364213,364213,364512,15
15,test,1,inc,0,m,Fri Mar 27 2026 14:47:40 GMT-0400 (Eastern Daylight Time),368875.90000009537,pear,900,I,z,z,None,307,108.0,199.0,102,1,1740.9000000953674,367135.0,1,gold,NF,C,366146,366146,364521,365429,364521,366262,365946,365946,366262,16
16,test,1,con,1,z,Fri Mar 27 2026 14:47:40 GMT-0400 (Eastern Daylight Time),370692.7000000477,pear,1000,I,z,z,None,282,83.0,199.0,43,1,1808.0,368884.7000000477,1,pear,NF,C,367996,367996,366271,367279,366271,368079,367796,367796,368079,17
16,test,1,inc,0,z,Fri Mar 27 2026 14:47:40 GMT-0400 (Eastern Daylight Time),372659.40000009537,cobalt,1100,I,m,m,None,316,117.0,199.0,16,1,1958.3000000715256,370701.10000002384,1,cherry,NF,C,369913,369913,368087,369196,368087,370046,369713,369713,370045,18
16,test,1,inc,0,m,Fri Mar 27 2026 14:47:40 GMT-0400 (Eastern Daylight Time),374310.0,banana,800,I,z,z,None,314,115.0,199.0,69,1,1638.7999999523163,372671.2000000477,1,bronze,NF,C,371579,371579,370057,370863,370058,371696,371379,371379,371696,19
17,test,1,inc,1,m,Fri Mar 27 2026 14:47:40 GMT-0400 (Eastern Daylight Time),376425.90000009537,cherry,900,I,m,m,None,677,477.0,200.0,70,1,2104.3000000715256,374321.60000002384,1,bronze,NF,C,373329,373329,371708,372612,371708,373812,373129,373129,373812,20
18,test,1,inc,1,z,Fri Mar 27 2026 14:47:40 GMT-0400 (Eastern Daylight Time),378559.3000000715,silver,1000,I,z,z,None,587,388.0,199.0,23,1,2122.100000023842,376437.2000000477,1,orange,NF,C,375546,375546,373823,374829,373824,375945,375346,375346,375945,21
18,test,1,inc,0,m,Fri Mar 27 2026 14:47:40 GMT-0400 (Eastern Daylight Time),380692.7000000477,banana,800,I,z,z,None,799,599.0,200.0,85,1,2123.899999976158,378568.8000000715,1,silver,NF,C,377479,377479,375955,376762,375955,378079,377279,377279,378079,22
19,test,1,con,1,z,Fri Mar 27 2026 14:47:40 GMT-0400 (Eastern Daylight Time),382692.90000009537,lime,1100,I,z,z,None,364,165.0,199.0,36,1,1991.4000000953674,380701.5,1,lime,NF,C,379912,379913,378088,379195,378088,380079,379713,379713,380079,23
20,test,1,con,1,z,Fri Mar 27 2026 14:47:40 GMT-0400 (Eastern Daylight Time),384692.60000002384,kiwi,800,I,z,z,None,649,449.0,200.0,49,1,1991.6000000238419,382701.0,1,kiwi,NF,C,381613,381613,380087,380896,380087,382079,381412,381412,382079,24
20,test,1,inc,0,z,Fri Mar 27 2026 14:47:40 GMT-0400 (Eastern Daylight Time),388226.0,zinc,1000,I,None,None,None,1799,1799.0,199.0,55,1,3524.2999999523163,384701.7000000477,1,kiwi,NF,C,383813,383813,382088,383096,382088,385612,383613,383613,385612,25
21,test,1,inc,1,z,Fri Mar 27 2026 14:47:40 GMT-0400 (Eastern Daylight Time),390409.2000000477,lead,1100,I,z,z,None,543,344.0,199.0,64,1,2174.7000000476837,388234.5,1,plum,NF,C,387446,387446,385621,386729,385621,387795,387246,387246,387795,26
22,test,1,inc,1,z,Fri Mar 27 2026 14:47:40 GMT-0400 (Eastern Daylight Time),392659.3000000715,gold,800,I,z,z,None,901,701.0,200.0,45,1,2241.5,390417.8000000715,1,pear,NF,C,389329,389329,387804,388612,387804,390045,389129,389129,390045,27
23,test,1,con,1,m,Fri Mar 27 2026 14:47:40 GMT-0400 (Eastern Daylight Time),394576.0,iron,1000,I,m,m,None,371,171.0,200.0,107,1,1908.3999999761581,392667.60000002384,1,iron,NF,C,391779,391779,390054,391062,390054,391962,391579,391579,391962,28
24,test,1,inc,1,z,Fri Mar 27 2026 14:47:40 GMT-0400 (Eastern Daylight Time),396509.3000000715,bronze,800,I,z,z,None,589,390.0,199.0,29,1,1923.0,394586.3000000715,1,raisin,NF,C,393496,393496,391972,392779,391973,393895,393296,393296,393895,29
25,test,1,con,1,z,Fri Mar 27 2026 14:47:40 GMT-0400 (Eastern Daylight Time),398826.0,plum,1000,I,z,z,None,776,577.0,199.0,59,1,2307.0,396519.0,1,plum,NF,C,395629,395629,393905,394912,393905,396212,395429,395429,396212,30
26,test,1,inc,1,z,Fri Mar 27 2026 14:47:40 GMT-0400 (Eastern Daylight Time),401075.90000009537,cobalt,1100,I,z,z,None,599,400.0,199.0,24,1,2240.100000023842,398835.8000000715,1,orange,NF,C,398046,398046,396222,397329,396222,398462,397846,397846,398462,31
27,test,1,inc,1,m,Fri Mar 27 2026 14:47:40 GMT-0400 (Eastern Daylight Time),403359.40000009537,orange,1000,I,m,m,None,737,538.0,199.0,71,1,2274.2000000476837,401085.2000000477,1,bronze,NF,C,400196,400196,398471,399479,398472,400745,399996,399996,400745,32
28,test,1,inc,1,m,Fri Mar 27 2026 14:47:40 GMT-0400 (Eastern Daylight Time),405592.60000002384,kiwi,1000,I,m,m,None,695,495.0,200.0,127,1,2223.899999976158,403368.7000000477,1,lead,NF,C,402479,402479,400755,401762,400755,402979,402279,402279,402979,33
29,test,1,inc,1,z,Fri Mar 27 2026 14:47:40 GMT-0400 (Eastern Daylight Time),407975.90000009537,lead,1100,I,z,z,None,745,545.0,200.0,56,1,2374.2000000476837,405601.7000000477,1,kiwi,NF,C,404813,404813,402988,404096,402988,405362,404612,404612,405362,34
30,test,1,con,1,z,Fri Mar 27 2026 14:47:40 GMT-0400 (Eastern Daylight Time),410076.0,kiwi,1100,I,z,z,None,457,258.0,199.0,52,1,2088.5999999046326,407987.40000009537,1,kiwi,NF,C,407196,407196,405373,406479,405374,407462,406996,406996,407462,35
31,test,1,con,1,m,Fri Mar 27 2026 14:47:40 GMT-0400 (Eastern Daylight Time),411809.2000000477,bronze,800,I,m,m,None,385,186.0,199.0,65,1,1724.6000000238419,410084.60000002384,1,bronze,NF,C,408996,408996,407471,408279,407471,409195,408796,408796,409195,36
32,test,1,con,1,m,Fri Mar 27 2026 14:47:40 GMT-0400 (Eastern Daylight Time),413759.2000000477,gold,900,I,m,m,None,504,305.0,199.0,98,1,1941.2999999523163,411817.90000009537,1,gold,NF,C,410829,410829,409204,410112,409204,411145,410629,410629,411145,37
33,test,1,inc,1,m,Fri Mar 27 2026 14:47:40 GMT-0400 (Eastern Daylight Time),415959.10000002384,raisin,1100,I,m,m,None,564,364.0,200.0,96,1,2190.6999999284744,413768.40000009537,1,cobalt,NF,C,412979,412979,411154,412262,411155,413345,412779,412779,413345,38
34,test,1,inc,1,m,Fri Mar 27 2026 14:47:40 GMT-0400 (Eastern Daylight Time),417875.8000000715,lime,800,I,m,m,None,567,367.0,200.0,117,1,1908.1000000238419,415967.7000000477,1,zinc,NF,C,414879,414879,413354,414162,413354,415262,414679,414679,415262,39
35,test,1,inc,1,m,Fri Mar 27 2026 14:47:40 GMT-0400 (Eastern Daylight Time),419942.3000000715,kiwi,1000,I,m,m,None,529,330.0,199.0,111,1,2056.2000000476837,417886.10000002384,1,iron,NF,C,416996,416996,415272,416279,415272,417328,416796,416796,417328,40
36,test,1,con,1,m,Fri Mar 27 2026 14:47:40 GMT-0400 (Eastern Daylight Time),421975.8000000715,bronze,1000,I,m,m,None,495,295.0,200.0,67,1,2024.8999999761581,419950.90000009537,1,bronze,NF,C,419062,419063,417337,418346,417337,419362,418862,418862,419362,41
37,test,1,con,1,z,Fri Mar 27 2026 14:47:40 GMT-0400 (Eastern Daylight Time),423792.60000002384,pear,900,I,z,z,None,369,170.0,199.0,42,1,1806.0,421986.60000002384,1,pear,NF,C,420996,420996,419373,420279,419373,421179,420796,420796,421179,42
38,test,1,inc,1,m,Fri Mar 27 2026 14:47:40 GMT-0400 (Eastern Daylight Time),425892.5,kiwi,1000,I,m,m,None,566,366.0,200.0,103,1,2090.6999999284744,423801.8000000715,1,gold,NF,C,422912,422912,421188,422196,421188,423279,422712,422712,423279,43
39,test,1,inc,1,z,Fri Mar 27 2026 14:47:40 GMT-0400 (Eastern Daylight Time),428125.8000000715,silver,1000,I,z,z,None,690,490.0,200.0,15,1,2222.3000000715256,425903.5,1,cherry,NF,C,425012,425012,423290,424296,423290,425512,424812,424812,425512,44
40,test,1,inc,1,m,Fri Mar 27 2026 14:47:40 GMT-0400 (Eastern Daylight Time),430309.90000009537,cherry,900,I,m,m,None,747,548.0,199.0,86,1,2173.3000000715256,428136.60000002384,1,silver,NF,C,427146,427146,425523,426429,425523,427696,426946,426946,427696,45
41,test,1,con,1,m,Fri Mar 27 2026 14:47:40 GMT-0400 (Eastern Daylight Time),432708.90000009537,cobalt,900,I,m,m,None,965,765.0,200.0,90,1,2388.100000023842,430320.8000000715,1,cobalt,NF,C,429329,429329,427707,428612,427707,430095,429129,429129,430095,46
42,test,1,con,1,z,Fri Mar 27 2026 14:47:40 GMT-0400 (Eastern Daylight Time),434959.2000000477,orange,900,I,z,z,None,805,605.0,200.0,18,1,2241.899999976158,432717.3000000715,1,orange,NF,C,431729,431729,430103,431012,430104,432345,431529,431529,432345,47
43,test,1,inc,1,z,Fri Mar 27 2026 14:47:40 GMT-0400 (Eastern Daylight Time),437192.5,copper,900,I,z,z,None,794,595.0,199.0,6,1,2224.5999999046326,434967.90000009537,1,banana,NF,C,433979,433979,432354,433262,432354,434579,433779,433779,434579,48
44,test,1,inc,1,m,Fri Mar 27 2026 14:47:40 GMT-0400 (Eastern Daylight Time),439375.90000009537,plum,1100,I,m,m,None,538,338.0,200.0,112,1,2174.3000000715256,437201.60000002384,1,iron,NF,C,436412,436412,434588,435696,434588,436762,436212,436212,436762,49
45,test,1,con,1,m,Fri Mar 27 2026 14:47:40 GMT-0400 (Eastern Daylight Time),441842.2000000477,bronze,1100,I,m,m,None,816,617.0,199.0,68,1,2455.7999999523163,439386.40000009537,1,bronze,NF,C,438596,438596,436772,437879,436773,439228,438396,438396,439228,50
46,test,1,inc,1,m,Fri Mar 27 2026 14:47:40 GMT-0400 (Eastern Daylight Time),443892.60000002384,cherry,900,I,m,m,None,599,399.0,200.0,94,1,2044.1000000238419,441848.5,1,cobalt,NF,C,440862,440863,439235,440146,439235,441279,440662,440662,441279,51
47,test,1,inc,1,m,Fri Mar 27 2026 14:47:40 GMT-0400 (Eastern Daylight Time),446109.2000000477,plum,1100,I,m,m,None,573,373.0,200.0,128,1,2208.2000000476837,443901.0,1,lead,NF,C,443112,443113,441287,442396,441287,443495,442912,442912,443495,52
48,test,1,inc,1,m,Fri Mar 27 2026 14:47:40 GMT-0400 (Eastern Daylight Time),448292.60000002384,plum,1100,I,m,m,None,532,333.0,199.0,104,1,2173.1999999284744,446119.40000009537,1,gold,NF,C,445329,445329,443505,444612,443506,445679,445129,445129,445679,53
49,test,1,con,1,z,Fri Mar 27 2026 14:47:40 GMT-0400 (Eastern Daylight Time),450042.60000002384,cherry,800,I,z,z,None,409,209.0,200.0,9,1,1738.8999999761581,448303.7000000477,1,cherry,NF,C,447213,447213,445690,446496,445690,447429,447012,447012,447429,54
50,test,1,con,1,m,Fri Mar 27 2026 14:47:40 GMT-0400 (Eastern Daylight Time),452342.3000000715,copper,1100,I,m,m,None,664,464.0,200.0,76,1,2291.2000000476837,450051.10000002384,1,copper,NF,C,449262,449262,447437,448546,447437,449728,449062,449062,449728,55
50,test,1,inc,0,z,Fri Mar 27 2026 14:47:40 GMT-0400 (Eastern Daylight Time),455775.8000000715,copper,900,I,None,None,None,1800,1800.0,200.0,22,1,3424.8000000715256,452351.0,1,orange,NF,C,451362,451362,449737,450646,449737,453162,451162,451162,453162,56
51,test,1,con,1,m,Fri Mar 27 2026 14:47:40 GMT-0400 (Eastern Daylight Time),457475.90000009537,zinc,800,I,m,m,None,349,150.0,199.0,113,1,1691.7000000476837,455784.2000000477,1,zinc,NF,C,454696,454696,453170,453979,453170,454862,454496,454496,454862,57
52,test,1,con,1,z,Fri Mar 27 2026 14:47:40 GMT-0400 (Eastern Daylight Time),459542.2000000477,raisin,1100,I,z,z,None,429,230.0,199.0,28,1,2056.600000023842,457485.60000002384,1,raisin,NF,C,456696,456696,454872,455979,454872,456928,456496,456496,456928,58
53,test,1,con,1,z,Fri Mar 27 2026 14:47:40 GMT-0400 (Eastern Daylight Time),461692.5,plum,800,I,z,z,None,808,608.0,200.0,57,1,2142.2999999523163,459550.2000000477,1,plum,NF,C,458462,458462,456936,457746,456936,459079,458262,458262,459079,59
54,test,1,con,1,m,Fri Mar 27 2026 14:47:40 GMT-0400 (Eastern Daylight Time),463609.2000000477,cobalt,1000,I,m,m,None,378,178.0,200.0,91,1,1907.6000000238419,461701.60000002384,1,cobalt,NF,C,460812,460812,459088,460095,459088,460995,460612,460612,460995,60
55,test,1,con,1,z,Fri Mar 27 2026 14:47:40 GMT-0400 (Eastern Daylight Time),465625.8000000715,pear,1100,I,z,z,None,376,177.0,199.0,44,1,2005.8000000715256,463620.0,1,pear,NF,C,462829,462829,461006,462112,461007,463012,462629,462629,463012,61
56,test,1,con,1,z,Fri Mar 27 2026 14:47:40 GMT-0400 (Eastern Daylight Time),467509.90000009537,lime,1000,I,z,z,None,347,148.0,199.0,35,1,1874.3000000715256,465635.60000002384,1,lime,NF,C,464746,464746,463022,464029,463022,464896,464546,464546,464896,62
57,test,1,con,1,m,Fri Mar 27 2026 14:47:40 GMT-0400 (Eastern Daylight Time),469342.40000009537,zinc,900,I,m,m,None,388,189.0,199.0,114,1,1824.2000000476837,467518.2000000477,1,zinc,NF,C,466529,466529,464904,465812,464905,466729,466329,466329,466728,63
58,test,1,inc,1,z,Fri Mar 27 2026 14:47:40 GMT-0400 (Eastern Daylight Time),471459.2000000477,cobalt,1100,I,z,z,None,468,268.0,200.0,32,1,2106.100000023842,469353.10000002384,1,raisin,NF,C,468562,468562,466739,467846,466740,468845,468362,468362,468845,64
59,test,1,con,1,m,Fri Mar 27 2026 14:47:40 GMT-0400 (Eastern Daylight Time),473459.10000002384,cobalt,800,I,m,m,None,650,451.0,199.0,89,1,1990.6999999284744,471468.40000009537,1,cobalt,NF,C,470379,470379,468854,469662,468855,470845,470179,470179,470845,65
60,test,1,con,1,z,Fri Mar 27 2026 14:47:40 GMT-0400 (Eastern Daylight Time),475292.5,cherry,900,I,z,z,None,390,191.0,199.0,10,1,1824.5999999046326,473467.90000009537,1,cherry,NF,C,472479,472479,470854,471762,470854,472679,472279,472279,472679,66
61,test,1,con,1,m,Fri Mar 27 2026 14:47:40 GMT-0400 (Eastern Daylight Time),477309.0,gold,800,I,m,m,None,674,474.0,200.0,97,1,2005.2999999523163,475303.7000000477,1,gold,NF,C,474212,474212,472690,473496,472690,474695,474012,474012,474695,67
61,test,1,inc,0,z,Fri Mar 27 2026 14:47:40 GMT-0400 (Eastern Daylight Time),479209.10000002384,bronze,800,I,m,m,None,560,361.0,199.0,5,1,1886.3999999761581,477322.7000000477,1,banana,NF,C,476229,476229,474709,475512,474709,476595,476029,476029,476595,68
62,test,1,inc,1,z,Fri Mar 27 2026 14:47:40 GMT-0400 (Eastern Daylight Time),481259.10000002384,iron,900,I,z,z,None,608,409.0,199.0,38,1,2039.1000000238419,479220.0,1,lime,NF,C,478229,478229,476606,477512,476606,478645,478029,478029,478645,69
63,test,1,con,1,z,Fri Mar 27 2026 14:47:40 GMT-0400 (Eastern Daylight Time),483325.8000000715,kiwi,1000,I,z,z,None,522,323.0,199.0,51,1,2057.899999976158,481267.90000009537,1,kiwi,NF,C,480379,480379,478654,479662,478654,480712,480179,480179,480712,70
64,test,1,inc,1,m,Fri Mar 27 2026 14:47:40 GMT-0400 (Eastern Daylight Time),485625.8000000715,pear,900,I,m,m,None,859,660.0,199.0,110,1,2291.100000023842,483334.7000000477,1,iron,NF,C,482346,482346,480721,481629,480721,483012,482146,482146,483012,71
65,test,1,inc,1,z,Fri Mar 27 2026 14:47:40 GMT-0400 (Eastern Daylight Time),487492.7000000477,bronze,800,I,z,z,None,531,332.0,199.0,13,1,1857.8999999761581,485634.8000000715,1,cherry,NF,C,484546,484546,483021,483829,483021,484879,484346,484346,484879,72
66,test,1,con,1,z,Fri Mar 27 2026 14:47:40 GMT-0400 (Eastern Daylight Time),489375.8000000715,orange,800,I,z,z,None,538,338.0,200.0,17,1,1872.5,487503.3000000715,1,orange,NF,C,486412,486412,484889,485696,484890,486762,486212,486212,486762,73
67,test,1,inc,1,m,Fri Mar 27 2026 14:47:40 GMT-0400 (Eastern Daylight Time),491492.7000000477,raisin,1100,I,m,m,None,481,282.0,199.0,72,1,2108.100000023842,489384.60000002384,1,bronze,NF,C,488596,488596,486771,487879,486771,488879,488396,488396,488879,74
68,test,1,inc,1,m,Fri Mar 27 2026 14:47:40 GMT-0400 (Eastern Daylight Time),493425.60000002384,banana,800,I,m,m,None,585,386.0,199.0,93,1,1922.6000000238419,491503.0,1,cobalt,NF,C,490412,490412,488889,489696,488889,490812,490213,490213,490812,75
69,test,1,inc,1,m,Fri Mar 27 2026 14:47:40 GMT-0400 (Eastern Daylight Time),495642.40000009537,pear,900,I,m,m,None,775,576.0,199.0,118,1,2207.8000000715256,493434.60000002384,1,zinc,NF,C,492446,492446,490821,491729,490821,493029,492246,492246,493028,76
70,test,1,con,1,m,Fri Mar 27 2026 14:47:40 GMT-0400 (Eastern Daylight Time),497675.7000000477,copper,1000,I,m,m,None,492,292.0,200.0,75,1,2024.2999999523163,495651.40000009537,1,copper,NF,C,494762,494762,493037,494046,493038,495062,494562,494562,495062,77
71,test,1,inc,1,z,Fri Mar 27 2026 14:47:40 GMT-0400 (Eastern Daylight Time),499809.10000002384,lead,1100,I,z,z,None,485,286.0,199.0,40,1,2123.899999976158,497685.2000000477,1,lime,NF,C,496896,496896,495071,496179,495072,497195,496696,496696,497195,78
72,test,1,con,1,z,Fri Mar 27 2026 14:47:40 GMT-0400 (Eastern Daylight Time),501659.10000002384,kiwi,900,I,z,z,None,408,209.0,199.0,50,1,1841.2999999523163,499817.8000000715,1,kiwi,NF,C,498829,498829,497204,498112,497204,499045,498629,498629,499045,79
73,test,1,inc,1,z,Fri Mar 27 2026 14:47:40 GMT-0400 (Eastern Daylight Time),503459.10000002384,gold,800,I,z,z,None,450,251.0,199.0,61,1,1791.0,501668.10000002384,1,plum,NF,C,500579,500579,499054,499862,499054,500845,500379,500379,500845,80
74,test,1,con,1,m,Fri Mar 27 2026 14:47:40 GMT-0400 (Eastern Daylight Time),505492.40000009537,gold,1100,I,m,m,None,382,183.0,199.0,100,1,2022.1000000238419,503470.3000000715,1,gold,NF,C,502679,502679,500856,501962,500857,502879,502479,502479,502878,81
75,test,1,inc,1,z,Fri Mar 27 2026 14:47:40 GMT-0400 (Eastern Daylight Time),507425.8000000715,gold,800,I,z,z,None,586,386.0,200.0,37,1,1921.6000000238419,505504.2000000477,1,lime,NF,C,504412,504412,502890,503696,502891,504812,504212,504212,504812,82
76,test,1,con,1,m,Fri Mar 27 2026 14:47:40 GMT-0400 (Eastern Daylight Time),509209.10000002384,lead,900,I,m,m,None,343,144.0,199.0,122,1,1771.6000000238419,507437.5,1,lead,NF,C,506445,506446,504824,505729,504824,506595,506245,506246,506595,83
77,test,1,inc,1,z,Fri Mar 27 2026 14:47:40 GMT-0400 (Eastern Daylight Time),511059.10000002384,gold,800,I,z,z,None,500,301.0,199.0,53,1,1841.6000000238419,509217.5,1,kiwi,NF,C,508129,508129,506604,507412,506604,508445,507929,507929,508445,84
77,test,1,con,0,z,Fri Mar 27 2026 14:47:40 GMT-0400 (Eastern Daylight Time),513075.8000000715,plum,1100,I,m,m,None,366,167.0,199.0,60,1,2006.0,511069.8000000715,1,plum,NF,C,510279,510279,508456,509562,508456,510462,510079,510079,510462,85
78,test,1,inc,1,z,Fri Mar 27 2026 14:47:40 GMT-0400 (Eastern Daylight Time),515175.7000000477,zinc,1000,I,z,z,None,561,362.0,199.0,63,1,2090.7000000476837,513085.0,1,plum,NF,C,512196,512196,510471,511479,510471,512562,511996,511996,512562,86
79,test,1,con,1,z,Fri Mar 27 2026 14:47:40 GMT-0400 (Eastern Daylight Time),516959.10000002384,pear,800,I,z,z,None,437,238.0,199.0,41,1,1773.1999999284744,515185.90000009537,1,pear,NF,C,514096,514096,512572,513379,512572,514345,513896,513896,514345,87
79,test,1,inc,0,m,Fri Mar 27 2026 14:47:40 GMT-0400 (Eastern Daylight Time),519075.8000000715,raisin,1100,I,z,z,None,466,267.0,199.0,88,1,2107.399999976158,516968.40000009537,1,silver,NF,C,516179,516179,514354,515462,514355,516462,515979,515979,516462,88
80,test,1,inc,1,z,Fri Mar 27 2026 14:47:40 GMT-0400 (Eastern Daylight Time),521292.40000009537,cobalt,1100,I,z,z,None,573,374.0,199.0,8,1,2204.600000023842,519087.8000000715,1,banana,NF,C,518296,518296,516474,517579,516474,518678,518095,518096,518678,89
81,test,1,inc,1,m,Fri Mar 27 2026 14:47:40 GMT-0400 (Eastern Daylight Time),523425.8000000715,raisin,1100,I,m,m,None,486,286.0,200.0,80,1,2122.600000023842,521303.2000000477,1,copper,NF,C,520512,520512,518689,519796,518690,520812,520312,520312,520812,90
82,test,1,inc,1,m,Fri Mar 27 2026 14:47:40 GMT-0400 (Eastern Daylight Time),525559.0,orange,1000,I,m,m,None,595,396.0,199.0,95,1,2123.899999976158,523435.10000002384,1,cobalt,NF,C,522546,522546,520821,521829,520821,522945,522346,522346,522945,91
83,test,1,con,1,z,Fri Mar 27 2026 14:47:40 GMT-0400 (Eastern Daylight Time),527508.8000000715,orange,1000,I,z,z,None,414,215.0,199.0,19,1,1941.2000000476837,525567.6000000238,1,orange,NF,C,524679,524679,522954,523962,522954,524895,524479,524479,524895,92
83,test,1,inc,0,m,Fri Mar 27 2026 14:47:40 GMT-0400 (Eastern Daylight Time),529309.1000000238,banana,800,I,z,z,None,456,257.0,199.0,77,1,1788.6999999284744,527520.4000000954,1,copper,NF,C,526429,526429,524906,525712,524907,526695,526229,526229,526695,93
84,test,1,inc,1,z,Fri Mar 27 2026 14:47:40 GMT-0400 (Eastern Daylight Time),531508.6000000238,silver,1000,I,z,z,None,664,465.0,199.0,31,1,2190.2999999523163,529318.3000000715,1,raisin,NF,C,528429,528429,526704,527712,526705,528895,528229,528229,528895,94
85,test,1,con,1,z,Fri Mar 27 2026 14:47:40 GMT-0400 (Eastern Daylight Time),533409.1000000238,raisin,900,I,z,z,None,452,253.0,199.0,26,1,1891.6999999284744,531517.4000000954,1,raisin,NF,C,530529,530529,528903,529812,528904,530795,530329,530329,530795,95
86,test,1,con,1,z,Fri Mar 27 2026 14:47:40 GMT-0400 (Eastern Daylight Time),535459.0,raisin,1000,I,z,z,None,500,301.0,199.0,27,1,2039.2999999523163,533419.7000000477,1,raisin,NF,C,532529,532529,530806,531812,530806,532845,532329,532329,532845,96
87,test,1,inc,1,m,Fri Mar 27 2026 14:47:40 GMT-0400 (Eastern Daylight Time),537309.0,lime,800,I,m,m,None,506,307.0,199.0,109,1,1840.6999999284744,535468.3000000715,1,iron,NF,C,534379,534379,532854,533662,532855,534695,534179,534179,534695,97
88,test,1,con,1,m,Fri Mar 27 2026 14:47:40 GMT-0400 (Eastern Daylight Time),539375.8000000715,lead,1000,I,m,m,None,520,321.0,199.0,123,1,2055.399999976158,537320.4000000954,1,lead,NF,C,536429,536429,534706,535712,534707,536762,536229,536229,536762,98
88,test,1,inc,0,z,Fri Mar 27 2026 14:47:40 GMT-0400 (Eastern Daylight Time),541492.5,lead,1100,I,m,m,None,481,282.0,199.0,48,1,2107.7999999523163,539384.7000000477,1,pear,NF,C,538596,538596,536771,537879,536771,538879,538395,538396,538879,99
89,test,1,con,1,m,Fri Mar 27 2026 14:47:40 GMT-0400 (Eastern Daylight Time),543492.4000000954,silver,800,I,m,m,None,649,450.0,199.0,81,1,1989.3000000715256,541503.1000000238,1,silver,NF,C,540412,540412,538889,539696,538890,540878,540213,540213,540878,100
90,test,1,con,1,m,Fri Mar 27 2026 14:47:40 GMT-0400 (Eastern Daylight Time),545525.5,iron,900,I,m,m,None,598,398.0,200.0,106,1,2024.0999999046326,543501.4000000954,1,iron,NF,C,542512,542512,540887,541795,540888,542912,542312,542312,542911,101
91,test,1,inc,1,m,Fri Mar 27 2026 14:47:40 GMT-0400 (Eastern Daylight Time),547409.0,lime,800,I,m,m,None,536,336.0,200.0,125,1,1874.0,545535.0,1,lead,NF,C,544446,544446,542921,543729,542921,544795,544245,544245,544795,102
92,test,1,con,1,z,Fri Mar 27 2026 14:47:40 GMT-0400 (Eastern Daylight Time),549492.3000000715,banana,900,I,z,z,None,632,433.0,199.0,2,1,2072.2000000476837,547420.1000000238,1,banana,NF,C,546429,546429,544806,545712,544806,546878,546229,546229,546878,103
93,test,1,con,1,z,Fri Mar 27 2026 14:47:40 GMT-0400 (Eastern Daylight Time),551442.4000000954,banana,800,I,z,z,None,602,402.0,200.0,1,1,1937.1000000238419,549505.3000000715,1,banana,NF,C,548412,548412,546891,547695,546892,548829,548212,548212,548828,104
94,test,1,con,1,z,Fri Mar 27 2026 14:47:40 GMT-0400 (Eastern Daylight Time),553525.5,banana,1100,I,z,z,None,448,248.0,200.0,4,1,2072.7999999523163,551452.7000000477,1,banana,NF,C,550662,550662,548839,549945,548839,550912,550462,550462,550912,105
95,test,1,inc,1,m,Fri Mar 27 2026 14:47:40 GMT-0400 (Eastern Daylight Time),555392.4000000954,pear,900,I,m,m,None,420,220.0,200.0,126,1,1856.5,553535.9000000954,1,lead,NF,C,552545,552546,550922,551829,550922,552778,552345,552345,552778,106
96,test,1,inc,1,z,Fri Mar 27 2026 14:47:40 GMT-0400 (Eastern Daylight Time),557409.0,copper,900,I,z,z,None,570,370.0,200.0,30,1,2002.1999999284744,555406.8000000715,1,raisin,NF,C,554412,554412,552793,553695,552794,554795,554212,554212,554795,107
97,test,1,con,1,m,Fri Mar 27 2026 14:47:40 GMT-0400 (Eastern Daylight Time),559892.2000000477,iron,800,I,m,m,None,1132,933.0,199.0,105,1,2472.100000023842,557420.1000000238,1,iron,NF,C,556329,556329,554806,555612,554806,557278,556129,556129,557278,108
98,test,1,inc,1,z,Fri Mar 27 2026 14:47:40 GMT-0400 (Eastern Daylight Time),561975.6000000238,copper,900,I,z,z,None,646,446.0,200.0,14,1,2074.5,559901.1000000238,1,cherry,NF,C,558912,558912,557287,558195,557288,559362,558712,558712,559362,109
99,test,1,inc,1,m,Fri Mar 27 2026 14:47:40 GMT-0400 (Eastern Daylight Time),563992.3000000715,cherry,900,I,m,m,None,562,362.0,200.0,78,1,2001.6000000238419,561990.7000000477,1,copper,NF,C,561012,561012,559377,560295,559378,561378,560812,560812,561378,110
100,test,1,inc,1,m,Fri Mar 27 2026 14:47:40 GMT-0400 (Eastern Daylight Time),566142.3000000715,orange,1000,I,m,m,None,606,406.0,200.0,87,1,2140.899999976158,564001.4000000954,1,silver,NF,C,563112,563112,561387,562395,561388,563528,562912,562912,563528,111
101,test,1,con,1,m,Fri Mar 27 2026 14:47:40 GMT-0400 (Eastern Daylight Time),568642.3000000715,gold,1000,I,m,m,None,952,752.0,200.0,99,1,2489.2000000476837,566153.1000000238,1,gold,NF,C,565262,565262,563539,564545,563539,566028,565062,565062,566028,112
102,test,1,inc,1,m,Fri Mar 27 2026 14:47:40 GMT-0400 (Eastern Daylight Time),571292.3000000715,plum,1100,I,m,m,None,1008,808.0,200.0,120,1,2640.600000023842,568651.7000000477,1,zinc,NF,C,567862,567862,566038,567145,566038,568678,567662,567662,568678,113
103,test,1,con,1,m,Fri Mar 27 2026 14:47:40 GMT-0400 (Eastern Daylight Time),573158.9000000954,copper,800,I,m,m,None,530,330.0,200.0,73,1,1856.9000000953674,571302.0,1,copper,NF,C,570212,570212,568688,569495,568688,570545,570012,570012,570545,114
104,test,1,inc,1,z,Fri Mar 27 2026 14:47:40 GMT-0400 (Eastern Daylight Time),575209.0,iron,900,I,z,z,None,610,411.0,199.0,54,1,2036.1999999284744,573172.8000000715,1,kiwi,NF,C,572179,572179,570559,571462,570559,572595,571979,571979,572595,115
105,test,1,con,1,m,Fri Mar 27 2026 14:47:40 GMT-0400 (Eastern Daylight Time),577158.9000000954,copper,900,I,m,m,None,512,313.0,199.0,74,1,1941.4000000953674,575217.5,1,copper,NF,C,574229,574229,572604,573512,572604,574545,574029,574029,574545,116
106,test,1,inc,1,m,Fri Mar 27 2026 14:47:40 GMT-0400 (Eastern Daylight Time),579325.6000000238,orange,1000,I,m,m,None,622,423.0,199.0,79,1,2155.100000023842,577170.5,1,copper,NF,C,576279,576279,574557,575562,574557,576712,576079,576079,576712,117
107,test,1,inc,1,z,Fri Mar 27 2026 14:47:40 GMT-0400 (Eastern Daylight Time),581492.4000000954,zinc,1000,I,z,z,None,617,417.0,200.0,39,1,2158.3000000715256,579334.1000000238,1,lime,NF,C,578445,578445,576720,577729,576720,578878,578245,578245,578878,118
108,test,1,con,1,z,Fri Mar 27 2026 14:47:40 GMT-0400 (Eastern Daylight Time),583909.7000000477,plum,900,I,z,z,None,982,782.0,200.0,58,1,2405.899999976158,581503.8000000715,1,plum,NF,C,580512,580512,578890,579795,578890,581296,580312,580312,581296,119
109,test,1,con,1,m,Fri Mar 27 2026 14:47:40 GMT-0400 (Eastern Daylight Time),586209.0,silver,900,I,m,m,None,852,653.0,199.0,82,1,2290.5999999046326,583918.4000000954,1,silver,NF,C,582929,582929,581304,582212,581305,583595,582729,582729,583595,120
110,test,1,con,1,m,Fri Mar 27 2026 14:47:40 GMT-0400 (Eastern Daylight Time),588125.5,bronze,900,I,m,m,None,472,273.0,199.0,66,1,1908.0999999046326,586217.4000000954,1,bronze,NF,C,585229,585229,583603,584512,583604,585512,585029,585029,585511,121
110,test,1,con,0,m,Fri Mar 27 2026 14:47:40 GMT-0400 (Eastern Daylight Time),589675.7000000477,silver,1000,I,z,m,z,9,273.0,9.0,83,1,1541.3999999761581,588134.3000000715,1,silver,NF,C,585229,585229,585520,586529,585521,587062,587045,587045,587062,122
111,test,1,con,1,z,Fri Mar 27 2026 14:47:40 GMT-0400 (Eastern Daylight Time),592308.8000000715,orange,1100,I,z,z,None,999,799.0,200.0,20,1,2623.8000000715256,589685.0,1,orange,NF,C,588895,588895,587071,588179,587072,589695,588695,588695,589695,123
112,test,1,con,1,z,Fri Mar 27 2026 14:47:40 GMT-0400 (Eastern Daylight Time),594125.7000000477,raisin,800,I,z,z,None,472,273.0,199.0,25,1,1807.5,592318.2000000477,1,raisin,NF,C,591229,591229,589704,590512,589705,591512,591029,591029,591512,124
112,test,1,inc,0,z,Fri Mar 27 2026 14:47:40 GMT-0400 (Eastern Daylight Time),596009.0,silver,1000,I,m,m,None,345,145.0,200.0,7,1,1874.2999999523163,594134.7000000477,1,banana,NF,C,593245,593245,591521,592529,591521,593395,593045,593045,593395,125
113,test,1,con,1,z,Fri Mar 27 2026 14:47:40 GMT-0400 (Eastern Daylight Time),597908.5,cherry,1000,I,z,z,None,364,165.0,199.0,11,1,1890.0999999046326,596018.4000000954,1,cherry,NF,C,595129,595129,593404,594412,593405,595295,594929,594929,595295,126
114,test,1,con,1,z,Fri Mar 27 2026 14:47:40 GMT-0400 (Eastern Daylight Time),599625.6000000238,lime,800,I,z,z,None,376,177.0,199.0,33,1,1709.6000000238419,597916.0,1,lime,NF,C,596829,596829,595302,596112,595302,597012,596629,596629,597012,127
115,test,1,inc,1,z,Fri Mar 27 2026 14:47:40 GMT-0400 (Eastern Daylight Time),601692.3000000715,iron,900,I,z,z,None,624,424.0,200.0,46,1,2055.8000000715256,599636.5,1,pear,NF,C,598646,598646,597023,597929,597023,599078,598445,598445,599078,128
