acc_sum,block,block_c,change,condition,correct,correct_response,datetime,endtime,face,project,response,response_time,row_sel,session_number,start_end,starttime,subject_id,task,task_vers,trial
0,prac,1,,1-Back,,,Thu Sep 25 2025 18:11:02 GMT-0500 (Central Daylight Time),,124_o_f_d_a.png,I,space,2964,1,3,,,8026,VNB,A,0
1,prac,1,0.0,1-Back,1.0,m,Thu Sep 25 2025 18:11:02 GMT-0500 (Central Daylight Time),99401.30000001192,071_y_f_n_a.png,I,m,943,2,3,1737.800000011921,97663.5,8026,VNB,A,1
2,prac,1,0.0,1-Back,1.0,m,Thu Sep 25 2025 18:11:02 GMT-0500 (Central Daylight Time),101167.30000001192,165_m_m_h_a.png,I,m,947,3,3,1754.7000000178814,99412.59999999404,8026,VNB,A,2
3,prac,1,0.0,1-Back,1.0,m,Thu Sep 25 2025 18:11:02 GMT-0500 (Central Daylight Time),102850.09999999404,109_y_m_d_a.png,I,m,864,4,3,1671.8999999761581,101178.20000001788,8026,VNB,A,3
4,prac,1,0.0,1-Back,1.0,m,Thu Sep 25 2025 18:11:02 GMT-0500 (Central Daylight Time),104499.40000000596,124_o_f_n_a.png,I,m,814,5,3,1638.199999988079,102861.20000001788,8026,VNB,A,4
5,prac,1,1.0,1-Back,1.0,z,Thu Sep 25 2025 18:11:02 GMT-0500 (Central Daylight Time),106265.70000001788,109_y_m_n_a.png,I,z,943,6,3,1749.800000011921,104515.90000000596,8026,VNB,A,5
6,prac,1,0.0,1-Back,1.0,m,Thu Sep 25 2025 18:11:02 GMT-0500 (Central Daylight Time),107731.80000001192,039_o_m_h_a.png,I,m,661,7,3,1455.300000011921,106276.5,8026,VNB,A,6
7,prac,1,0.0,1-Back,1.0,m,Thu Sep 25 2025 18:11:02 GMT-0500 (Central Daylight Time),109214.59999999404,139_m_f_d_a.png,I,m,665,8,3,1472.0,107742.59999999404,8026,VNB,A,7
7,prac,1,1.0,1-Back,0.0,z,Thu Sep 25 2025 18:11:02 GMT-0500 (Central Daylight Time),110580.90000000596,071_y_f_d_a.png,I,m,558,9,3,1355.300000011921,109225.59999999404,8026,VNB,A,8
8,prac,1,0.0,1-Back,1.0,m,Thu Sep 25 2025 18:11:02 GMT-0500 (Central Daylight Time),112680.0,165_m_m_n_a.png,I,m,1279,10,3,2087.7999999821186,110592.20000001788,8026,VNB,A,9
8,prac,1,0.0,1-Back,0.0,m,Thu Sep 25 2025 18:11:02 GMT-0500 (Central Daylight Time),114662.70000001788,124_o_f_h_a.png,I,z,1146,11,3,1971.4000000059605,112691.30000001192,8026,VNB,A,10
9,prac,1,0.0,1-Back,1.0,m,Thu Sep 25 2025 18:11:02 GMT-0500 (Central Daylight Time),116379.09999999404,109_y_m_d_a.png,I,m,933,12,3,1702.7999999821186,114676.30000001192,8026,VNB,A,11
0,test,1,0.0,1-Back,,,Thu Sep 25 2025 18:11:02 GMT-0500 (Central Daylight Time),116379.09999999404,071_y_f_d_a.png,I,space,6246,1,3,1702.7999999821186,114676.30000001192,8026,VNB,A,0
1,test,1,0.0,1-Back,1.0,m,Thu Sep 25 2025 18:11:02 GMT-0500 (Central Daylight Time),131524.30000001192,139_m_f_n_a.png,I,m,789,2,3,1805.4000000059605,129718.90000000596,8026,VNB,A,1
2,test,1,0.0,1-Back,1.0,m,Thu Sep 25 2025 18:11:02 GMT-0500 (Central Daylight Time),133423.70000001788,039_o_m_h_a.png,I,m,861,3,3,1882.9000000059605,131540.80000001192,8026,VNB,A,2
3,test,1,1.0,1-Back,1.0,z,Thu Sep 25 2025 18:11:02 GMT-0500 (Central Daylight Time),135140.0,165_m_m_h_a.png,I,z,689,4,3,1706.699999988079,133433.30000001192,8026,VNB,A,3
4,test,1,0.0,1-Back,1.0,m,Thu Sep 25 2025 18:11:02 GMT-0500 (Central Daylight Time),136789.20000001788,124_o_f_n_a.png,I,m,621,5,3,1639.0,135150.20000001788,8026,VNB,A,4
5,test,1,0.0,1-Back,1.0,m,Thu Sep 25 2025 18:11:02 GMT-0500 (Central Daylight Time),138505.70000001788,109_y_m_d_a.png,I,m,692,6,3,1705.9000000059605,136799.80000001192,8026,VNB,A,5
6,test,1,1.0,1-Back,1.0,z,Thu Sep 25 2025 18:11:02 GMT-0500 (Central Daylight Time),140321.5,139_m_f_d_a.png,I,z,792,7,3,1805.699999988079,138515.80000001192,8026,VNB,A,6
7,test,1,0.0,1-Back,1.0,m,Thu Sep 25 2025 18:11:02 GMT-0500 (Central Daylight Time),141987.59999999404,071_y_f_h_a.png,I,m,639,8,3,1655.5999999940395,140332.0,8026,VNB,A,7
8,test,1,0.0,1-Back,1.0,m,Thu Sep 25 2025 18:11:02 GMT-0500 (Central Daylight Time),143903.5,039_o_m_n_a.png,I,m,894,9,3,1905.699999988079,141997.80000001192,8026,VNB,A,8
9,test,1,0.0,1-Back,1.0,m,Thu Sep 25 2025 18:11:02 GMT-0500 (Central Daylight Time),145803.30000001192,109_y_m_h_a.png,I,m,873,10,3,1888.2000000178814,143915.09999999404,8026,VNB,A,9
10,test,1,0.0,1-Back,1.0,m,Thu Sep 25 2025 18:11:02 GMT-0500 (Central Daylight Time),147569.40000000596,039_o_m_d_a.png,I,m,734,11,3,1756.4000000059605,145813.0,8026,VNB,A,10
11,test,1,1.0,1-Back,1.0,z,Thu Sep 25 2025 18:11:02 GMT-0500 (Central Daylight Time),149468.5,124_o_f_d_a.png,I,z,863,12,3,1882.199999988079,147586.30000001192,8026,VNB,A,11
12,test,1,0.0,1-Back,1.0,m,Thu Sep 25 2025 18:11:02 GMT-0500 (Central Daylight Time),151184.80000001192,165_m_m_n_a.png,I,m,693,13,3,1706.5,149478.30000001192,8026,VNB,A,12
13,test,1,1.0,1-Back,1.0,z,Thu Sep 25 2025 18:11:02 GMT-0500 (Central Daylight Time),152951.0,071_y_f_n_a.png,I,z,735,14,3,1756.699999988079,151194.30000001192,8026,VNB,A,13
14,test,1,0.0,1-Back,1.0,m,Thu Sep 25 2025 18:11:02 GMT-0500 (Central Daylight Time),154617.0,139_m_f_h_a.png,I,m,634,15,3,1655.699999988079,152961.30000001192,8026,VNB,A,14
15,test,1,0.0,1-Back,1.0,m,Thu Sep 25 2025 18:11:02 GMT-0500 (Central Daylight Time),156299.70000001788,165_m_m_d_a.png,I,m,657,16,3,1673.2000000178814,154626.5,8026,VNB,A,15
16,test,1,0.0,1-Back,1.0,m,Thu Sep 25 2025 18:11:02 GMT-0500 (Central Daylight Time),158049.30000001192,109_y_m_n_a.png,I,m,725,17,3,1739.9000000059605,156309.40000000596,8026,VNB,A,16
17,test,1,0.0,1-Back,1.0,m,Thu Sep 25 2025 18:11:02 GMT-0500 (Central Daylight Time),159781.80000001192,124_o_f_h_a.png,I,m,704,18,3,1722.4000000059605,158059.40000000596,8026,VNB,A,17
0,test,2,0.0,1-Back,,,Thu Sep 25 2025 18:11:02 GMT-0500 (Central Daylight Time),159781.80000001192,109_y_m_n_a.png,I,space,1372,1,3,1722.4000000059605,158059.40000000596,8026,VNB,A,0
1,test,2,0.0,1-Back,1.0,m,Thu Sep 25 2025 18:11:02 GMT-0500 (Central Daylight Time),164948.09999999404,071_y_f_h_a.png,I,m,749,2,3,1756.7999999821186,163191.30000001192,8026,VNB,A,1
2,test,2,1.0,1-Back,1.0,m,Thu Sep 25 2025 18:11:02 GMT-0500 (Central Daylight Time),166663.20000001788,039_o_m_n_a.png,I,m,686,3,3,1705.5,164957.70000001788,8026,VNB,A,2
2,test,2,0.0,1-Back,0.0,m,Thu Sep 25 2025 18:11:02 GMT-0500 (Central Daylight Time),168829.09999999404,139_m_f_d_a.png,I,z,1146,4,3,2155.699999988079,166673.40000000596,8026,VNB,A,3
3,test,2,0.0,1-Back,1.0,z,Thu Sep 25 2025 18:11:02 GMT-0500 (Central Daylight Time),170672.59999999404,165_m_m_d_a.png,I,z,662,5,3,1826.7999999821186,168845.80000001192,8026,VNB,A,4
4,test,2,0.0,1-Back,1.0,m,Thu Sep 25 2025 18:11:02 GMT-0500 (Central Daylight Time),172511.40000000596,109_y_m_h_a.png,I,m,811,6,3,1825.5,170685.90000000596,8026,VNB,A,5
5,test,2,1.0,1-Back,1.0,z,Thu Sep 25 2025 18:11:02 GMT-0500 (Central Daylight Time),174110.90000000596,124_o_f_h_a.png,I,z,570,7,3,1589.699999988079,172521.20000001788,8026,VNB,A,6
6,test,2,0.0,1-Back,1.0,m,Thu Sep 25 2025 18:11:02 GMT-0500 (Central Daylight Time),175893.5,139_m_f_n_a.png,I,m,762,8,3,1772.5,174121.0,8026,VNB,A,7
7,test,2,0.0,1-Back,1.0,m,Thu Sep 25 2025 18:11:02 GMT-0500 (Central Daylight Time),177643.09999999404,071_y_f_d_a.png,I,m,724,9,3,1740.5,175902.59999999404,8026,VNB,A,8
8,test,2,0.0,1-Back,1.0,m,Thu Sep 25 2025 18:11:02 GMT-0500 (Central Daylight Time),179392.59999999404,165_m_m_n_a.png,I,m,717,10,3,1739.3999999761581,177653.20000001788,8026,VNB,A,9
9,test,2,1.0,1-Back,1.0,m,Thu Sep 25 2025 18:11:02 GMT-0500 (Central Daylight Time),181058.70000001788,139_m_f_h_a.png,I,m,641,11,3,1656.1000000238419,179402.59999999404,8026,VNB,A,10
10,test,2,0.0,1-Back,1.0,z,Thu Sep 25 2025 18:11:02 GMT-0500 (Central Daylight Time),182525.0,039_o_m_h_a.png,I,z,447,12,3,1456.4000000059605,181068.59999999404,8026,VNB,A,11
11,test,2,0.0,1-Back,1.0,m,Thu Sep 25 2025 18:11:02 GMT-0500 (Central Daylight Time),184041.20000001788,109_y_m_d_a.png,I,m,492,13,3,1504.4000000059605,182536.80000001192,8026,VNB,A,12
12,test,2,0.0,1-Back,1.0,m,Thu Sep 25 2025 18:11:02 GMT-0500 (Central Daylight Time),185957.09999999404,124_o_f_n_a.png,I,m,888,14,3,1905.699999988079,184051.40000000596,8026,VNB,A,13
13,test,2,0.0,1-Back,1.0,z,Thu Sep 25 2025 18:11:02 GMT-0500 (Central Daylight Time),187656.80000001192,071_y_f_n_a.png,I,z,668,15,3,1689.4000000059605,185967.40000000596,8026,VNB,A,14
14,test,2,1.0,1-Back,1.0,m,Thu Sep 25 2025 18:11:02 GMT-0500 (Central Daylight Time),189856.59999999404,165_m_m_h_a.png,I,m,1168,16,3,2190.0,187666.59999999404,8026,VNB,A,15
15,test,2,0.0,1-Back,1.0,m,Thu Sep 25 2025 18:11:02 GMT-0500 (Central Daylight Time),191705.5,124_o_f_d_a.png,I,m,817,17,3,1838.5,189867.0,8026,VNB,A,16
16,test,2,1.0,1-Back,1.0,z,Thu Sep 25 2025 18:11:02 GMT-0500 (Central Daylight Time),193688.09999999404,039_o_m_d_a.png,I,z,952,18,3,1972.7999999821186,191715.30000001192,8026,VNB,A,17
0,test,3,1.0,1-Back,,,Thu Sep 25 2025 18:11:02 GMT-0500 (Central Daylight Time),193688.09999999404,124_o_f_h_a.png,I,space,1505,1,3,1972.7999999821186,191715.30000001192,8026,VNB,A,0
1,test,3,0.0,1-Back,1.0,m,Thu Sep 25 2025 18:11:02 GMT-0500 (Central Daylight Time),198903.09999999404,139_m_f_d_a.png,I,m,603,2,3,1621.8999999761581,197281.20000001788,8026,VNB,A,1
2,test,3,1.0,1-Back,1.0,m,Thu Sep 25 2025 18:11:02 GMT-0500 (Central Daylight Time),200635.70000001788,165_m_m_n_a.png,I,m,706,3,3,1722.800000011921,198912.90000000596,8026,VNB,A,2
3,test,3,0.0,1-Back,1.0,z,Thu Sep 25 2025 18:11:02 GMT-0500 (Central Daylight Time),202351.80000001192,124_o_f_n_a.png,I,z,694,4,3,1706.5999999940395,200645.20000001788,8026,VNB,A,3
4,test,3,1.0,1-Back,1.0,m,Thu Sep 25 2025 18:11:02 GMT-0500 (Central Daylight Time),203968.20000001788,039_o_m_d_a.png,I,m,586,5,3,1606.4000000059605,202361.80000001192,8026,VNB,A,4
5,test,3,0.0,1-Back,1.0,m,Thu Sep 25 2025 18:11:02 GMT-0500 (Central Daylight Time),205751.0,071_y_f_h_a.png,I,m,761,6,3,1773.4000000059605,203977.59999999404,8026,VNB,A,5
6,test,3,0.0,1-Back,1.0,z,Thu Sep 25 2025 18:11:02 GMT-0500 (Central Daylight Time),207450.20000001788,109_y_m_h_a.png,I,z,683,7,3,1689.7000000178814,205760.5,8026,VNB,A,6
7,test,3,0.0,1-Back,1.0,m,Thu Sep 25 2025 18:11:02 GMT-0500 (Central Daylight Time),209033.40000000596,139_m_f_n_a.png,I,m,551,8,3,1573.699999988079,207459.70000001788,8026,VNB,A,7
8,test,3,0.0,1-Back,1.0,m,Thu Sep 25 2025 18:11:02 GMT-0500 (Central Daylight Time),210716.0,071_y_f_d_a.png,I,m,664,9,3,1673.0,209043.0,8026,VNB,A,8
9,test,3,1.0,1-Back,1.0,m,Thu Sep 25 2025 18:11:02 GMT-0500 (Central Daylight Time),212615.20000001788,039_o_m_n_a.png,I,m,869,10,3,1889.300000011921,210725.90000000596,8026,VNB,A,9
9,test,3,0.0,1-Back,0.0,m,Thu Sep 25 2025 18:11:02 GMT-0500 (Central Daylight Time),214398.30000001192,165_m_m_h_a.png,I,z,754,11,3,1773.2000000178814,212625.09999999404,8026,VNB,A,10
10,test,3,0.0,1-Back,1.0,z,Thu Sep 25 2025 18:11:02 GMT-0500 (Central Daylight Time),215914.5,139_m_f_h_a.png,I,z,483,12,3,1506.4000000059605,214408.09999999404,8026,VNB,A,11
11,test,3,1.0,1-Back,1.0,m,Thu Sep 25 2025 18:11:02 GMT-0500 (Central Daylight Time),217530.70000001788,124_o_f_d_a.png,I,m,591,13,3,1607.0,215923.70000001788,8026,VNB,A,12
12,test,3,0.0,1-Back,1.0,z,Thu Sep 25 2025 18:11:02 GMT-0500 (Central Daylight Time),219530.20000001788,165_m_m_d_a.png,I,z,975,14,3,1989.300000011921,217540.90000000596,8026,VNB,A,13
13,test,3,0.0,1-Back,1.0,m,Thu Sep 25 2025 18:11:02 GMT-0500 (Central Daylight Time),221213.0,109_y_m_n_a.png,I,m,655,15,3,1672.5999999940395,219540.40000000596,8026,VNB,A,14
14,test,3,1.0,1-Back,1.0,m,Thu Sep 25 2025 18:11:02 GMT-0500 (Central Daylight Time),223145.5,039_o_m_h_a.png,I,m,899,16,3,1923.0,221222.5,8026,VNB,A,15
15,test,3,0.0,1-Back,1.0,m,Thu Sep 25 2025 18:11:02 GMT-0500 (Central Daylight Time),224811.70000001788,109_y_m_d_a.png,I,m,648,17,3,1656.300000011921,223155.40000000596,8026,VNB,A,16
16,test,3,1.0,1-Back,1.0,m,Thu Sep 25 2025 18:11:02 GMT-0500 (Central Daylight Time),226544.09999999404,071_y_f_n_a.png,I,m,701,18,3,1722.2999999821186,224821.80000001192,8026,VNB,A,17
0,test,4,1.0,1-Back,,,Thu Sep 25 2025 18:11:02 GMT-0500 (Central Daylight Time),226544.09999999404,165_m_m_d_a.png,I,space,1448,1,3,1722.2999999821186,224821.80000001192,8026,VNB,A,0
1,test,4,0.0,1-Back,1.0,z,Thu Sep 25 2025 18:11:02 GMT-0500 (Central Daylight Time),232009.20000001788,039_o_m_d_a.png,I,z,965,2,3,1989.300000011921,230019.90000000596,8026,VNB,A,1
2,test,4,0.0,1-Back,1.0,m,Thu Sep 25 2025 18:11:02 GMT-0500 (Central Daylight Time),233758.70000001788,109_y_m_h_a.png,I,m,728,3,3,1739.800000011921,232018.90000000596,8026,VNB,A,2
3,test,4,0.0,1-Back,1.0,m,Thu Sep 25 2025 18:11:02 GMT-0500 (Central Daylight Time),235674.90000000596,139_m_f_n_a.png,I,m,900,4,3,1905.699999988079,233769.20000001788,8026,VNB,A,3
4,test,4,1.0,1-Back,1.0,m,Thu Sep 25 2025 18:11:02 GMT-0500 (Central Daylight Time),237641.30000001192,124_o_f_h_a.png,I,m,942,5,3,1956.5999999940395,235684.70000001788,8026,VNB,A,4
5,test,4,0.0,1-Back,1.0,m,Thu Sep 25 2025 18:11:02 GMT-0500 (Central Daylight Time),239340.90000000596,165_m_m_n_a.png,I,m,672,6,3,1689.5999999940395,237651.30000001192,8026,VNB,A,5
6,test,4,0.0,1-Back,1.0,m,Thu Sep 25 2025 18:11:02 GMT-0500 (Central Daylight Time),241073.40000000596,109_y_m_d_a.png,I,m,709,7,3,1722.5,239350.90000000596,8026,VNB,A,6
7,test,4,1.0,1-Back,1.0,z,Thu Sep 25 2025 18:11:02 GMT-0500 (Central Daylight Time),242806.20000001788,071_y_f_d_a.png,I,z,704,8,3,1723.300000011921,241082.90000000596,8026,VNB,A,7
8,test,4,0.0,1-Back,1.0,m,Thu Sep 25 2025 18:11:02 GMT-0500 (Central Daylight Time),244373.40000000596,139_m_f_h_a.png,I,m,547,9,3,1557.5,242815.90000000596,8026,VNB,A,8
9,test,4,0.0,1-Back,1.0,z,Thu Sep 25 2025 18:11:02 GMT-0500 (Central Daylight Time),246205.0,039_o_m_h_a.png,I,z,805,10,3,1821.199999988079,244383.80000001192,8026,VNB,A,9
10,test,4,1.0,1-Back,1.0,m,Thu Sep 25 2025 18:11:02 GMT-0500 (Central Daylight Time),247921.5,124_o_f_n_a.png,I,m,683,11,3,1705.7999999821186,246215.70000001788,8026,VNB,A,10
11,test,4,0.0,1-Back,1.0,m,Thu Sep 25 2025 18:11:02 GMT-0500 (Central Daylight Time),249920.5,139_m_f_d_a.png,I,m,968,12,3,1984.9000000059605,247935.59999999404,8026,VNB,A,11
12,test,4,0.0,1-Back,1.0,m,Thu Sep 25 2025 18:11:02 GMT-0500 (Central Daylight Time),252436.30000001192,071_y_f_n_a.png,I,m,1497,13,3,2505.5999999940395,249930.70000001788,8026,VNB,A,12
13,test,4,0.0,1-Back,1.0,m,Thu Sep 25 2025 18:11:02 GMT-0500 (Central Daylight Time),254185.90000000596,124_o_f_d_a.png,I,m,733,14,3,1739.5999999940395,252446.30000001192,8026,VNB,A,13
14,test,4,0.0,1-Back,1.0,m,Thu Sep 25 2025 18:11:02 GMT-0500 (Central Daylight Time),255968.70000001788,071_y_f_h_a.png,I,m,752,15,3,1773.2000000178814,254195.5,8026,VNB,A,14
15,test,4,1.0,1-Back,1.0,z,Thu Sep 25 2025 18:11:02 GMT-0500 (Central Daylight Time),257867.80000001192,165_m_m_h_a.png,I,z,881,16,3,1888.800000011921,255979.0,8026,VNB,A,15
16,test,4,0.0,1-Back,1.0,m,Thu Sep 25 2025 18:11:02 GMT-0500 (Central Daylight Time),259667.5,039_o_m_n_a.png,I,m,773,17,3,1789.5,257878.0,8026,VNB,A,16
17,test,4,1.0,1-Back,1.0,z,Thu Sep 25 2025 18:11:02 GMT-0500 (Central Daylight Time),261533.59999999404,109_y_m_n_a.png,I,z,846,18,3,1856.0999999940395,259677.5,8026,VNB,A,17
0,test,5,1.0,1-Back,,,Thu Sep 25 2025 18:11:02 GMT-0500 (Central Daylight Time),261533.59999999404,039_o_m_n_a.png,I,space,1947,1,3,1856.0999999940395,259677.5,8026,VNB,A,0
1,test,5,1.0,1-Back,1.0,m,Thu Sep 25 2025 18:11:02 GMT-0500 (Central Daylight Time),267197.90000000596,124_o_f_h_a.png,I,m,678,2,3,1689.0,265508.90000000596,8026,VNB,A,1
2,test,5,0.0,1-Back,1.0,m,Thu Sep 25 2025 18:11:02 GMT-0500 (Central Daylight Time),268914.7000000179,109_y_m_d_a.png,I,m,683,3,3,1705.6000000238419,267209.09999999404,8026,VNB,A,2
3,test,5,0.0,1-Back,1.0,z,Thu Sep 25 2025 18:11:02 GMT-0500 (Central Daylight Time),270730.09999999404,039_o_m_d_a.png,I,z,797,4,3,1805.5999999940395,268924.5,8026,VNB,A,3
4,test,5,0.0,1-Back,1.0,m,Thu Sep 25 2025 18:11:02 GMT-0500 (Central Daylight Time),272396.90000000596,139_m_f_h_a.png,I,m,647,5,3,1657.0,270739.90000000596,8026,VNB,A,4
5,test,5,0.0,1-Back,1.0,m,Thu Sep 25 2025 18:11:02 GMT-0500 (Central Daylight Time),274146.09999999404,071_y_f_n_a.png,I,m,725,6,3,1739.0999999940395,272407.0,8026,VNB,A,5
6,test,5,1.0,1-Back,1.0,z,Thu Sep 25 2025 18:11:02 GMT-0500 (Central Daylight Time),276012.5,124_o_f_n_a.png,I,z,840,7,3,1856.4000000059605,274156.09999999404,8026,VNB,A,6
7,test,5,0.0,1-Back,1.0,m,Thu Sep 25 2025 18:11:02 GMT-0500 (Central Daylight Time),277745.2000000179,139_m_f_d_a.png,I,m,700,8,3,1722.4000000059605,276022.8000000119,8026,VNB,A,7
8,test,5,0.0,1-Back,1.0,m,Thu Sep 25 2025 18:11:02 GMT-0500 (Central Daylight Time),279561.3000000119,109_y_m_h_a.png,I,m,792,9,3,1804.800000011921,277756.5,8026,VNB,A,8
9,test,5,0.0,1-Back,1.0,m,Thu Sep 25 2025 18:11:02 GMT-0500 (Central Daylight Time),281144.2000000179,071_y_f_d_a.png,I,m,559,10,3,1572.5,279571.7000000179,8026,VNB,A,9
10,test,5,0.0,1-Back,1.0,m,Thu Sep 25 2025 18:11:02 GMT-0500 (Central Daylight Time),282926.7000000179,165_m_m_n_a.png,I,m,737,11,3,1766.2000000178814,281160.5,8026,VNB,A,10
11,test,5,1.0,1-Back,1.0,z,Thu Sep 25 2025 18:11:02 GMT-0500 (Central Daylight Time),284759.59999999404,139_m_f_n_a.png,I,z,811,12,3,1822.5,282937.09999999404,8026,VNB,A,11
12,test,5,0.0,1-Back,1.0,m,Thu Sep 25 2025 18:11:02 GMT-0500 (Central Daylight Time),286475.40000000596,039_o_m_h_a.png,I,m,698,13,3,1705.300000011921,284770.09999999404,8026,VNB,A,12
13,test,5,0.0,1-Back,1.0,z,Thu Sep 25 2025 18:11:02 GMT-0500 (Central Daylight Time),288421.8000000119,165_m_m_h_a.png,I,z,930,14,3,1936.0,286485.8000000119,8026,VNB,A,13
14,test,5,1.0,1-Back,1.0,m,Thu Sep 25 2025 18:11:02 GMT-0500 (Central Daylight Time),290041.2000000179,124_o_f_d_a.png,I,m,593,15,3,1609.1000000238419,288432.09999999404,8026,VNB,A,14
15,test,5,0.0,1-Back,1.0,m,Thu Sep 25 2025 18:11:02 GMT-0500 (Central Daylight Time),291840.5,109_y_m_n_a.png,I,m,767,16,3,1789.5999999940395,290050.90000000596,8026,VNB,A,15
16,test,5,0.0,1-Back,1.0,m,Thu Sep 25 2025 18:11:02 GMT-0500 (Central Daylight Time),293473.40000000596,071_y_f_h_a.png,I,m,601,17,3,1622.5999999940395,291850.8000000119,8026,VNB,A,16
17,test,5,0.0,1-Back,1.0,m,Thu Sep 25 2025 18:11:02 GMT-0500 (Central Daylight Time),295123.0,165_m_m_d_a.png,I,m,624,18,3,1639.2999999821186,293483.7000000179,8026,VNB,A,17
0,prac,1,0.0,2-Back,,,Thu Sep 25 2025 18:11:02 GMT-0500 (Central Daylight Time),295123.0,139_m_f_n_a.png,I,space,1713,1,3,1639.2999999821186,293483.7000000179,8026,VNB,A,0
0,prac,1,0.0,2-Back,,,Thu Sep 25 2025 18:11:02 GMT-0500 (Central Daylight Time),295123.0,124_o_f_h_a.png,I,space,1713,2,3,1639.2999999821186,293483.7000000179,8026,VNB,A,0
1,prac,1,0.0,2-Back,1.0,m,Thu Sep 25 2025 18:11:02 GMT-0500 (Central Daylight Time),376480.8000000119,039_o_m_d_a.png,I,m,1405,3,3,2204.300000011921,374276.5,8026,VNB,A,1
1,prac,1,1.0,2-Back,0.0,z,Thu Sep 25 2025 18:11:02 GMT-0500 (Central Daylight Time),379079.90000000596,165_m_m_h_a.png,I,m,1787,4,3,2587.5,376492.40000000596,8026,VNB,A,2
1,prac,1,0.0,2-Back,0.0,m,Thu Sep 25 2025 18:11:02 GMT-0500 (Central Daylight Time),381895.59999999404,071_y_f_n_a.png,I,None,2010,5,3,2803.399999976158,379092.2000000179,8026,VNB,A,3
2,prac,1,1.0,2-Back,1.0,z,Thu Sep 25 2025 18:11:02 GMT-0500 (Central Daylight Time),383812.0,039_o_m_h_a.png,I,z,1102,6,3,1904.7999999821186,381907.2000000179,8026,VNB,A,4
2,prac,1,1.0,2-Back,0.0,z,Thu Sep 25 2025 18:11:02 GMT-0500 (Central Daylight Time),385761.2000000179,109_y_m_n_a.png,I,m,1138,7,3,1937.0,383824.2000000179,8026,VNB,A,5
3,prac,1,0.0,2-Back,1.0,m,Thu Sep 25 2025 18:11:02 GMT-0500 (Central Daylight Time),387793.8000000119,139_m_f_d_a.png,I,m,1218,8,3,2020.800000011921,385773.0,8026,VNB,A,6
4,prac,1,0.0,2-Back,1.0,m,Thu Sep 25 2025 18:11:02 GMT-0500 (Central Daylight Time),390143.2000000179,124_o_f_d_a.png,I,m,1500,9,3,2338.2000000178814,387805.0,8026,VNB,A,7
5,prac,1,0.0,2-Back,1.0,m,Thu Sep 25 2025 18:11:02 GMT-0500 (Central Daylight Time),391926.0,165_m_m_h_a.png,I,m,990,10,3,1770.2999999821186,390155.7000000179,8026,VNB,A,8
6,prac,1,1.0,2-Back,1.0,z,Thu Sep 25 2025 18:11:02 GMT-0500 (Central Daylight Time),393958.8000000119,071_y_f_d_a.png,I,z,1224,11,3,2021.4000000059605,391937.40000000596,8026,VNB,A,9
7,prac,1,0.0,2-Back,1.0,m,Thu Sep 25 2025 18:11:02 GMT-0500 (Central Daylight Time),395808.2000000179,039_o_m_n_a.png,I,m,1040,12,3,1837.9000000059605,393970.3000000119,8026,VNB,A,10
0,test,1,0.0,2-Back,,,Thu Sep 25 2025 18:11:02 GMT-0500 (Central Daylight Time),395808.2000000179,109_y_m_h_a.png,I,space,5167,1,3,1837.9000000059605,393970.3000000119,8026,VNB,A,0
0,test,1,0.0,2-Back,,,Thu Sep 25 2025 18:11:02 GMT-0500 (Central Daylight Time),395808.2000000179,124_o_f_n_a.png,I,space,5167,2,3,1837.9000000059605,393970.3000000119,8026,VNB,A,0
1,test,1,0.0,2-Back,1.0,z,Thu Sep 25 2025 18:11:02 GMT-0500 (Central Daylight Time),416101.7000000179,039_o_m_h_a.png,I,z,1171,3,3,2188.4000000059605,413913.3000000119,8026,VNB,A,1
2,test,1,0.0,2-Back,1.0,m,Thu Sep 25 2025 18:11:02 GMT-0500 (Central Daylight Time),418084.40000000596,139_m_f_d_a.png,I,m,964,4,3,1972.0,416112.40000000596,8026,VNB,A,2
3,test,1,1.0,2-Back,1.0,m,Thu Sep 25 2025 18:11:02 GMT-0500 (Central Daylight Time),419933.59999999404,109_y_m_n_a.png,I,m,828,5,3,1837.8999999761581,418095.7000000179,8026,VNB,A,3
4,test,1,0.0,2-Back,1.0,z,Thu Sep 25 2025 18:11:02 GMT-0500 (Central Daylight Time),421966.5,071_y_f_d_a.png,I,z,1012,6,3,2022.699999988079,419943.8000000119,8026,VNB,A,4
5,test,1,0.0,2-Back,1.0,m,Thu Sep 25 2025 18:11:02 GMT-0500 (Central Daylight Time),424365.59999999404,165_m_m_h_a.png,I,m,1379,7,3,2388.0999999940395,421977.5,8026,VNB,A,5
5,test,1,1.0,2-Back,0.0,m,Thu Sep 25 2025 18:11:02 GMT-0500 (Central Daylight Time),426315.0,071_y_f_n_a.png,I,z,924,8,3,1939.4000000059605,424375.59999999404,8026,VNB,A,6
6,test,1,0.0,2-Back,1.0,z,Thu Sep 25 2025 18:11:02 GMT-0500 (Central Daylight Time),428197.8000000119,124_o_f_h_a.png,I,z,862,9,3,1872.7000000178814,426325.09999999404,8026,VNB,A,7
7,test,1,0.0,2-Back,1.0,m,Thu Sep 25 2025 18:11:02 GMT-0500 (Central Daylight Time),430380.5,039_o_m_d_a.png,I,m,1164,10,3,2172.0999999940395,428208.40000000596,8026,VNB,A,8
7,test,1,1.0,2-Back,0.0,m,Thu Sep 25 2025 18:11:02 GMT-0500 (Central Daylight Time),432513.5,165_m_m_d_a.png,I,z,1100,11,3,2122.5999999940395,430390.90000000596,8026,VNB,A,9
8,test,1,0.0,2-Back,1.0,m,Thu Sep 25 2025 18:11:02 GMT-0500 (Central Daylight Time),434629.09999999404,139_m_f_n_a.png,I,m,1096,12,3,2105.5999999940395,432523.5,8026,VNB,A,10
9,test,1,0.0,2-Back,1.0,m,Thu Sep 25 2025 18:11:02 GMT-0500 (Central Daylight Time),436645.09999999404,071_y_f_h_a.png,I,m,988,13,3,2005.699999988079,434639.40000000596,8026,VNB,A,11
10,test,1,0.0,2-Back,1.0,z,Thu Sep 25 2025 18:11:02 GMT-0500 (Central Daylight Time),439194.3000000119,165_m_m_n_a.png,I,z,1524,14,3,2539.2000000178814,436655.09999999404,8026,VNB,A,12
11,test,1,0.0,2-Back,1.0,m,Thu Sep 25 2025 18:11:02 GMT-0500 (Central Daylight Time),441628.0,109_y_m_d_a.png,I,m,1414,15,3,2423.4000000059605,439204.59999999404,8026,VNB,A,13
11,test,1,1.0,2-Back,0.0,m,Thu Sep 25 2025 18:11:02 GMT-0500 (Central Daylight Time),443609.5,139_m_f_h_a.png,I,z,959,16,3,1970.7999999821186,441638.7000000179,8026,VNB,A,14
12,test,1,0.0,2-Back,1.0,z,Thu Sep 25 2025 18:11:02 GMT-0500 (Central Daylight Time),446258.90000000596,124_o_f_d_a.png,I,z,1624,17,3,2638.800000011921,443620.09999999404,8026,VNB,A,15
13,test,1,0.0,2-Back,1.0,m,Thu Sep 25 2025 18:11:02 GMT-0500 (Central Daylight Time),448291.09999999404,039_o_m_n_a.png,I,m,1014,18,3,2022.0999999940395,446269.0,8026,VNB,A,16
0,test,2,0.0,2-Back,,,Thu Sep 25 2025 18:11:02 GMT-0500 (Central Daylight Time),448291.09999999404,165_m_m_h_a.png,I,space,2038,1,3,2022.0999999940395,446269.0,8026,VNB,A,0
0,test,2,0.0,2-Back,,,Thu Sep 25 2025 18:11:02 GMT-0500 (Central Daylight Time),448291.09999999404,071_y_f_n_a.png,I,space,2038,2,3,2022.0999999940395,446269.0,8026,VNB,A,0
1,test,2,1.0,2-Back,1.0,z,Thu Sep 25 2025 18:11:02 GMT-0500 (Central Daylight Time),457221.90000000596,124_o_f_h_a.png,I,z,721,3,3,1738.4000000059605,455483.5,8026,VNB,A,1
2,test,2,0.0,2-Back,1.0,m,Thu Sep 25 2025 18:11:02 GMT-0500 (Central Daylight Time),459088.2000000179,039_o_m_d_a.png,I,m,834,4,3,1856.300000011921,457231.90000000596,8026,VNB,A,2
3,test,2,0.0,2-Back,1.0,m,Thu Sep 25 2025 18:11:02 GMT-0500 (Central Daylight Time),461154.3000000119,139_m_f_d_a.png,I,m,1033,5,3,2056.4000000059605,459097.90000000596,8026,VNB,A,3
4,test,2,0.0,2-Back,1.0,m,Thu Sep 25 2025 18:11:02 GMT-0500 (Central Daylight Time),463370.09999999404,109_y_m_h_a.png,I,m,1183,6,3,2206.0,461164.09999999404,8026,VNB,A,4
5,test,2,0.0,2-Back,1.0,m,Thu Sep 25 2025 18:11:02 GMT-0500 (Central Daylight Time),465452.7000000179,124_o_f_n_a.png,I,m,1063,7,3,2072.0,463380.7000000179,8026,VNB,A,5
6,test,2,1.0,2-Back,1.0,z,Thu Sep 25 2025 18:11:02 GMT-0500 (Central Daylight Time),467318.8000000119,039_o_m_h_a.png,I,z,845,8,3,1854.800000011921,465464.0,8026,VNB,A,6
6,test,2,0.0,2-Back,0.0,m,Thu Sep 25 2025 18:11:02 GMT-0500 (Central Daylight Time),469218.3000000119,071_y_f_d_a.png,I,z,876,9,3,1889.7000000178814,467328.59999999404,8026,VNB,A,7
6,test,2,0.0,2-Back,0.0,m,Thu Sep 25 2025 18:11:02 GMT-0500 (Central Daylight Time),471200.90000000596,109_y_m_d_a.png,I,z,959,10,3,1972.0,469228.90000000596,8026,VNB,A,8
7,test,2,0.0,2-Back,1.0,m,Thu Sep 25 2025 18:11:02 GMT-0500 (Central Daylight Time),473333.7000000179,165_m_m_n_a.png,I,m,1104,11,3,2121.600000023842,471212.09999999404,8026,VNB,A,9
8,test,2,0.0,2-Back,1.0,m,Thu Sep 25 2025 18:11:02 GMT-0500 (Central Daylight Time),476065.90000000596,139_m_f_h_a.png,I,m,1716,12,3,2721.300000011921,473344.59999999404,8026,VNB,A,10
8,test,2,1.0,2-Back,0.0,z,Thu Sep 25 2025 18:11:02 GMT-0500 (Central Daylight Time),479081.59999999404,039_o_m_n_a.png,I,m,1890,13,3,3005.5,476076.09999999404,8026,VNB,A,11
9,test,2,0.0,2-Back,1.0,m,Thu Sep 25 2025 18:11:02 GMT-0500 (Central Daylight Time),480881.40000000596,124_o_f_d_a.png,I,m,768,14,3,1790.0,479091.40000000596,8026,VNB,A,12
9,test,2,0.0,2-Back,0.0,m,Thu Sep 25 2025 18:11:02 GMT-0500 (Central Daylight Time),482564.2000000179,071_y_f_h_a.png,I,z,664,15,3,1672.4000000059605,480891.8000000119,8026,VNB,A,13
9,test,2,0.0,2-Back,0.0,z,Thu Sep 25 2025 18:11:02 GMT-0500 (Central Daylight Time),485313.40000000596,165_m_m_d_a.png,I,m,1717,16,3,2738.5999999940395,482574.8000000119,8026,VNB,A,14
10,test,2,0.0,2-Back,1.0,m,Thu Sep 25 2025 18:11:02 GMT-0500 (Central Daylight Time),487879.09999999404,109_y_m_n_a.png,I,m,1536,17,3,2555.0,485324.09999999404,8026,VNB,A,15
10,test,2,1.0,2-Back,0.0,m,Thu Sep 25 2025 18:11:02 GMT-0500 (Central Daylight Time),489778.5,139_m_f_n_a.png,I,z,873,18,3,1889.0999999940395,487889.40000000596,8026,VNB,A,16
0,test,3,1.0,2-Back,,,Thu Sep 25 2025 18:11:02 GMT-0500 (Central Daylight Time),489778.5,039_o_m_n_a.png,I,space,2575,1,3,1889.0999999940395,487889.40000000596,8026,VNB,A,0
0,test,3,1.0,2-Back,,,Thu Sep 25 2025 18:11:02 GMT-0500 (Central Daylight Time),489778.5,124_o_f_d_a.png,I,space,2575,2,3,1889.0999999940395,487889.40000000596,8026,VNB,A,0
1,test,3,0.0,2-Back,1.0,m,Thu Sep 25 2025 18:11:02 GMT-0500 (Central Daylight Time),499608.7000000179,071_y_f_h_a.png,I,m,1176,3,3,2187.600000023842,497421.09999999404,8026,VNB,A,1
2,test,3,0.0,2-Back,1.0,z,Thu Sep 25 2025 18:11:02 GMT-0500 (Central Daylight Time),501824.59999999404,139_m_f_d_a.png,I,z,1117,4,3,2205.5,499619.09999999404,8026,VNB,A,2
3,test,3,1.0,2-Back,1.0,m,Thu Sep 25 2025 18:11:02 GMT-0500 (Central Daylight Time),504107.3000000119,109_y_m_n_a.png,I,m,1265,5,3,2272.5999999940395,501834.7000000179,8026,VNB,A,3
4,test,3,0.0,2-Back,1.0,m,Thu Sep 25 2025 18:11:02 GMT-0500 (Central Daylight Time),506289.8000000119,039_o_m_h_a.png,I,m,1150,6,3,2171.7000000178814,504118.09999999404,8026,VNB,A,4
5,test,3,0.0,2-Back,1.0,z,Thu Sep 25 2025 18:11:02 GMT-0500 (Central Daylight Time),508456.0,071_y_f_n_a.png,I,z,1143,7,3,2155.4000000059605,506300.59999999404,8026,VNB,A,5
6,test,3,1.0,2-Back,1.0,m,Thu Sep 25 2025 18:11:02 GMT-0500 (Central Daylight Time),510488.7000000179,165_m_m_d_a.png,I,m,1010,8,3,2021.5,508467.2000000179,8026,VNB,A,6
6,test,3,0.0,2-Back,0.0,m,Thu Sep 25 2025 18:11:02 GMT-0500 (Central Daylight Time),512654.8000000119,109_y_m_d_a.png,I,z,1135,9,3,2155.5,510499.3000000119,8026,VNB,A,7
7,test,3,0.0,2-Back,1.0,m,Thu Sep 25 2025 18:11:02 GMT-0500 (Central Daylight Time),514887.3000000119,124_o_f_h_a.png,I,m,1203,10,3,2222.300000011921,512665.0,8026,VNB,A,8
8,test,3,1.0,2-Back,1.0,m,Thu Sep 25 2025 18:11:02 GMT-0500 (Central Daylight Time),516836.59999999404,139_m_f_n_a.png,I,m,922,11,3,1939.199999988079,514897.40000000596,8026,VNB,A,9
9,test,3,1.0,2-Back,1.0,z,Thu Sep 25 2025 18:11:02 GMT-0500 (Central Daylight Time),518753.5,165_m_m_h_a.png,I,z,892,12,3,1905.5999999940395,516847.90000000596,8026,VNB,A,10
10,test,3,0.0,2-Back,1.0,m,Thu Sep 25 2025 18:11:02 GMT-0500 (Central Daylight Time),521218.7000000179,071_y_f_d_a.png,I,m,1433,13,3,2453.9000000059605,518764.8000000119,8026,VNB,A,11
10,test,3,0.0,2-Back,0.0,m,Thu Sep 25 2025 18:11:02 GMT-0500 (Central Daylight Time),523117.90000000596,124_o_f_n_a.png,I,z,871,14,3,1886.5,521231.40000000596,8026,VNB,A,12
10,test,3,0.0,2-Back,0.0,z,Thu Sep 25 2025 18:11:02 GMT-0500 (Central Daylight Time),525234.0,039_o_m_d_a.png,I,m,1096,15,3,2106.5999999940395,523127.40000000596,8026,VNB,A,13
10,test,3,1.0,2-Back,0.0,m,Thu Sep 25 2025 18:11:02 GMT-0500 (Central Daylight Time),527616.8000000119,139_m_f_h_a.png,I,z,1359,16,3,2373.7000000178814,525243.099999994,8026,VNB,A,14
10,test,3,0.0,2-Back,0.0,m,Thu Sep 25 2025 18:11:02 GMT-0500 (Central Daylight Time),530315.7000000179,165_m_m_n_a.png,I,z,1673,17,3,2690.2000000178814,527625.5,8026,VNB,A,15
10,test,3,0.0,2-Back,0.0,z,Thu Sep 25 2025 18:11:02 GMT-0500 (Central Daylight Time),532365.2000000179,109_y_m_h_a.png,I,m,1021,18,3,2040.5,530324.7000000179,8026,VNB,A,16
0,test,4,0.0,2-Back,,,Thu Sep 25 2025 18:11:02 GMT-0500 (Central Daylight Time),532365.2000000179,139_m_f_n_a.png,I,space,1597,1,3,2040.5,530324.7000000179,8026,VNB,A,0
0,test,4,0.0,2-Back,,,Thu Sep 25 2025 18:11:02 GMT-0500 (Central Daylight Time),532365.2000000179,039_o_m_n_a.png,I,space,1597,2,3,2040.5,530324.7000000179,8026,VNB,A,0
1,test,4,1.0,2-Back,1.0,m,Thu Sep 25 2025 18:11:02 GMT-0500 (Central Daylight Time),541263.3000000119,109_y_m_h_a.png,I,m,1204,3,3,2224.0999999940395,539039.2000000179,8026,VNB,A,1
2,test,4,1.0,2-Back,1.0,m,Thu Sep 25 2025 18:11:02 GMT-0500 (Central Daylight Time),543428.400000006,124_o_f_d_a.png,I,m,1138,4,3,2154.4000000059605,541274.0,8026,VNB,A,2
3,test,4,0.0,2-Back,1.0,z,Thu Sep 25 2025 18:11:02 GMT-0500 (Central Daylight Time),545460.900000006,039_o_m_h_a.png,I,z,1005,5,3,2023.199999988079,543437.7000000179,8026,VNB,A,3
4,test,4,0.0,2-Back,1.0,m,Thu Sep 25 2025 18:11:02 GMT-0500 (Central Daylight Time),547393.7000000179,165_m_m_n_a.png,I,m,900,6,3,1923.2000000178814,545470.5,8026,VNB,A,4
5,test,4,0.0,2-Back,1.0,m,Thu Sep 25 2025 18:11:02 GMT-0500 (Central Daylight Time),549326.5,139_m_f_d_a.png,I,m,911,7,3,1924.0,547402.5,8026,VNB,A,5
6,test,4,0.0,2-Back,1.0,z,Thu Sep 25 2025 18:11:02 GMT-0500 (Central Daylight Time),551442.5,071_y_f_n_a.png,I,z,1099,8,3,2106.2999999821186,549336.2000000179,8026,VNB,A,6
6,test,4,1.0,2-Back,0.0,m,Thu Sep 25 2025 18:11:02 GMT-0500 (Central Daylight Time),554474.900000006,124_o_f_h_a.png,I,None,2016,9,3,3023.9000000059605,551451.0,8026,VNB,A,7
6,test,4,0.0,2-Back,0.0,m,Thu Sep 25 2025 18:11:02 GMT-0500 (Central Daylight Time),556807.5,165_m_m_h_a.png,I,z,1303,10,3,2323.5,554484.0,8026,VNB,A,8
7,test,4,0.0,2-Back,1.0,m,Thu Sep 25 2025 18:11:02 GMT-0500 (Central Daylight Time),558640.099999994,071_y_f_d_a.png,I,m,802,11,3,1820.5999999940395,556819.5,8026,VNB,A,9
8,test,4,0.0,2-Back,1.0,m,Thu Sep 25 2025 18:11:02 GMT-0500 (Central Daylight Time),560572.7000000179,109_y_m_n_a.png,I,m,905,12,3,1921.9000000059605,558650.8000000119,8026,VNB,A,10
9,test,4,0.0,2-Back,1.0,z,Thu Sep 25 2025 18:11:02 GMT-0500 (Central Daylight Time),562539.0,039_o_m_d_a.png,I,z,940,13,3,1957.5,560581.5,8026,VNB,A,11
10,test,4,1.0,2-Back,1.0,m,Thu Sep 25 2025 18:11:02 GMT-0500 (Central Daylight Time),564338.099999994,139_m_f_h_a.png,I,m,781,14,3,1790.5,562547.599999994,8026,VNB,A,12
11,test,4,1.0,2-Back,1.0,m,Thu Sep 25 2025 18:11:02 GMT-0500 (Central Daylight Time),566671.0,071_y_f_h_a.png,I,m,1311,15,3,2323.699999988079,564347.3000000119,8026,VNB,A,13
11,test,4,0.0,2-Back,0.0,m,Thu Sep 25 2025 18:11:02 GMT-0500 (Central Daylight Time),568553.599999994,124_o_f_n_a.png,I,z,858,16,3,1871.5999999940395,566682.0,8026,VNB,A,14
12,test,4,0.0,2-Back,1.0,m,Thu Sep 25 2025 18:11:02 GMT-0500 (Central Daylight Time),570769.599999994,109_y_m_d_a.png,I,m,1191,17,3,2205.2999999821186,568564.3000000119,8026,VNB,A,15
13,test,4,1.0,2-Back,1.0,m,Thu Sep 25 2025 18:11:02 GMT-0500 (Central Daylight Time),572702.099999994,165_m_m_d_a.png,I,m,911,18,3,1923.0999999940395,570779.0,8026,VNB,A,16
0,test,5,1.0,2-Back,,,Thu Sep 25 2025 18:11:02 GMT-0500 (Central Daylight Time),572702.099999994,071_y_f_d_a.png,I,space,1602,1,3,1923.0999999940395,570779.0,8026,VNB,A,0
0,test,5,1.0,2-Back,,,Thu Sep 25 2025 18:11:02 GMT-0500 (Central Daylight Time),572702.099999994,124_o_f_h_a.png,I,space,1602,2,3,1923.0999999940395,570779.0,8026,VNB,A,0
1,test,5,1.0,2-Back,1.0,z,Thu Sep 25 2025 18:11:02 GMT-0500 (Central Daylight Time),581382.7000000179,039_o_m_d_a.png,I,z,944,3,3,1956.4000000059605,579426.3000000119,8026,VNB,A,1
2,test,5,1.0,2-Back,1.0,m,Thu Sep 25 2025 18:11:02 GMT-0500 (Central Daylight Time),583332.3000000119,139_m_f_n_a.png,I,m,930,4,3,1939.7000000178814,581392.599999994,8026,VNB,A,2
3,test,5,0.0,2-Back,1.0,m,Thu Sep 25 2025 18:11:02 GMT-0500 (Central Daylight Time),585465.0,165_m_m_h_a.png,I,m,1109,5,3,2124.0999999940395,583340.900000006,8026,VNB,A,3
4,test,5,0.0,2-Back,1.0,z,Thu Sep 25 2025 18:11:02 GMT-0500 (Central Daylight Time),587414.8000000119,071_y_f_n_a.png,I,z,928,6,3,1939.5,585475.3000000119,8026,VNB,A,4
5,test,5,0.0,2-Back,1.0,m,Thu Sep 25 2025 18:11:02 GMT-0500 (Central Daylight Time),589463.900000006,124_o_f_d_a.png,I,m,1027,7,3,2040.4000000059605,587423.5,8026,VNB,A,5
5,test,5,0.0,2-Back,0.0,m,Thu Sep 25 2025 18:11:02 GMT-0500 (Central Daylight Time),591663.099999994,039_o_m_h_a.png,I,z,1177,8,3,2188.2999999821186,589474.8000000119,8026,VNB,A,6
6,test,5,1.0,2-Back,1.0,z,Thu Sep 25 2025 18:11:02 GMT-0500 (Central Daylight Time),593628.900000006,139_m_f_d_a.png,I,z,939,9,3,1953.300000011921,591675.599999994,8026,VNB,A,7
7,test,5,0.0,2-Back,1.0,m,Thu Sep 25 2025 18:11:02 GMT-0500 (Central Daylight Time),595562.0,109_y_m_n_a.png,I,m,900,10,3,1924.0999999940395,593637.900000006,8026,VNB,A,8
7,test,5,0.0,2-Back,0.0,m,Thu Sep 25 2025 18:11:02 GMT-0500 (Central Daylight Time),597811.400000006,165_m_m_n_a.png,I,z,1223,11,3,2240.800000011921,595570.599999994,8026,VNB,A,9
7,test,5,0.0,2-Back,0.0,m,Thu Sep 25 2025 18:11:02 GMT-0500 (Central Daylight Time),599411.7000000179,071_y_f_h_a.png,I,z,580,12,3,1590.800000011921,597820.900000006,8026,VNB,A,10
8,test,5,0.0,2-Back,1.0,m,Thu Sep 25 2025 18:11:02 GMT-0500 (Central Daylight Time),601210.3000000119,109_y_m_d_a.png,I,m,774,13,3,1788.9000000059605,599421.400000006,8026,VNB,A,11
8,test,5,1.0,2-Back,0.0,z,Thu Sep 25 2025 18:11:02 GMT-0500 (Central Daylight Time),603209.599999994,139_m_f_h_a.png,I,m,975,14,3,1989.5,601220.099999994,8026,VNB,A,12
9,test,5,0.0,2-Back,1.0,m,Thu Sep 25 2025 18:11:02 GMT-0500 (Central Daylight Time),605375.8000000119,039_o_m_n_a.png,I,m,1136,15,3,2153.0999999940395,603222.7000000179,8026,VNB,A,13
10,test,5,0.0,2-Back,1.0,m,Thu Sep 25 2025 18:11:02 GMT-0500 (Central Daylight Time),607191.5,165_m_m_d_a.png,I,m,786,16,3,1805.9000000059605,605385.599999994,8026,VNB,A,14
11,test,5,0.0,2-Back,1.0,z,Thu Sep 25 2025 18:11:02 GMT-0500 (Central Daylight Time),609340.7000000179,124_o_f_n_a.png,I,z,1122,17,3,2140.100000023842,607200.599999994,8026,VNB,A,15
12,test,5,1.0,2-Back,1.0,m,Thu Sep 25 2025 18:11:02 GMT-0500 (Central Daylight Time),611540.2000000179,109_y_m_h_a.png,I,m,1180,18,3,2189.2000000178814,609351.0,8026,VNB,A,16
