acc_sum,block,block_c,block_cond,con_img,correct,correct_response,datetime,endtime,face,jitter,line,project,response,response_time,row_sel,session_number,start_end,starttime,subject_id,task,task_vers,trial
0,prac,1,A,haborder.png,0,z,Fri Mar 13 2026 09:52:28 GMT-0500 (Central Daylight Time),88073.39999985695,CFD-BF-039-039-A.jpg,1200,solid,O,None,1515,6,1,3515.399999856949,84558.0,7739,ATS,A,1
0,prac,1,A,haborder.png,0,m,Fri Mar 13 2026 09:52:28 GMT-0500 (Central Daylight Time),92088.79999995232,CFD-WM-006-013-HC.jpg,1700,solid,O,None,1514,9,1,7530.799999952316,84558.0,7739,ATS,A,2
1,prac,1,A,haborder.png,1,m,Fri Mar 13 2026 09:52:28 GMT-0500 (Central Daylight Time),95254.19999980927,CFD-WM-004-005-HC.jpg,1400,solid,O,m,952,7,1,10696.199999809265,84558.0,7739,ATS,A,3
2,prac,1,A,haborder.png,1,z,Fri Mar 13 2026 09:52:28 GMT-0500 (Central Daylight Time),99285.39999985695,CFD-WM-013-015-A.jpg,1900,solid,O,z,1310,8,1,14727.399999856949,84558.0,7739,ATS,A,4
3,prac,1,A,haborder.png,1,z,Fri Mar 13 2026 09:52:28 GMT-0500 (Central Daylight Time),102551.59999990463,CFD-WF-003-014-A.jpg,1600,solid,O,z,851,10,1,17993.599999904633,84558.0,7739,ATS,A,5
4,prac,1,A,haborder.png,1,m,Fri Mar 13 2026 09:52:28 GMT-0500 (Central Daylight Time),105934.29999995232,CFD-BM-029-026-HC.jpg,1500,solid,O,m,1094,3,1,21376.299999952316,84558.0,7739,ATS,A,6
5,prac,1,A,haborder.png,1,z,Fri Mar 13 2026 09:52:28 GMT-0500 (Central Daylight Time),108566.39999985695,CFD-BF-023-013-A.jpg,1000,solid,O,z,811,4,1,24008.39999985695,84558.0,7739,ATS,A,7
5,prac,1,A,haborder.png,0,m,Fri Mar 13 2026 09:52:28 GMT-0500 (Central Daylight Time),112381.5,CFD-WF-017-016-HC.jpg,1500,solid,O,None,1515,11,1,27823.5,84558.0,7739,ATS,A,8
5,prac,1,A,haborder.png,0,z,Fri Mar 13 2026 09:52:28 GMT-0500 (Central Daylight Time),116296.5,CFD-BM-005-010-A.jpg,1600,solid,O,None,1515,2,1,31738.5,84558.0,7739,ATS,A,9
6,prac,1,A,haborder.png,1,m,Fri Mar 13 2026 09:52:28 GMT-0500 (Central Daylight Time),119912.79999995232,CFD-BM-017-052-HC.jpg,1700,solid,O,m,1117,1,1,35354.799999952316,84558.0,7739,ATS,A,10
7,prac,1,A,haborder.png,1,m,Fri Mar 13 2026 09:52:28 GMT-0500 (Central Daylight Time),123928.19999980927,CFD-BF-028-020-HC.jpg,2000,solid,O,m,1210,5,1,39370.199999809265,84558.0,7739,ATS,A,11
8,prac,1,A,haborder.png,1,z,Fri Mar 13 2026 09:52:28 GMT-0500 (Central Daylight Time),126477.5,CFD-WF-019-015-A.jpg,1000,solid,O,z,738,12,1,41919.5,84558.0,7739,ATS,A,12
0,prac,1,B,mfborder.png,0,z,Fri Mar 13 2026 09:52:28 GMT-0500 (Central Daylight Time),170595.5,CFD-WF-003-014-A.jpg,1500,dash,O,None,1516,11,1,3798.800000190735,166796.69999980927,7739,ATS,A,1
1,prac,1,B,mfborder.png,1,m,Fri Mar 13 2026 09:52:28 GMT-0500 (Central Daylight Time),173794.5,CFD-BM-029-026-HC.jpg,1700,dash,O,m,690,1,1,6997.800000190735,166796.69999980927,7739,ATS,A,2
2,prac,1,B,mfborder.png,1,m,Fri Mar 13 2026 09:52:28 GMT-0500 (Central Daylight Time),177344.09999990463,CFD-BM-005-010-A.jpg,2000,dash,O,m,759,5,1,10547.400000095367,166796.69999980927,7739,ATS,A,3
3,prac,1,B,mfborder.png,1,m,Fri Mar 13 2026 09:52:28 GMT-0500 (Central Daylight Time),180508.79999995232,CFD-WM-013-015-A.jpg,1700,dash,O,m,645,9,1,13712.100000143051,166796.69999980927,7739,ATS,A,4
4,prac,1,B,mfborder.png,1,m,Fri Mar 13 2026 09:52:28 GMT-0500 (Central Daylight Time),183691.09999990463,CFD-WM-006-013-HC.jpg,1600,dash,O,m,797,10,1,16894.400000095367,166796.69999980927,7739,ATS,A,5
5,prac,1,B,mfborder.png,1,z,Fri Mar 13 2026 09:52:28 GMT-0500 (Central Daylight Time),187240.69999980927,CFD-WF-002-008-HC.jpg,1900,dash,O,z,849,8,1,20444.0,166796.69999980927,7739,ATS,A,6
6,prac,1,B,mfborder.png,1,z,Fri Mar 13 2026 09:52:28 GMT-0500 (Central Daylight Time),190222.5,CFD-BF-028-020-HC.jpg,1400,dash,O,z,769,7,1,23425.800000190735,166796.69999980927,7739,ATS,A,7
7,prac,1,B,mfborder.png,1,z,Fri Mar 13 2026 09:52:28 GMT-0500 (Central Daylight Time),192705.59999990463,CFD-WF-017-016-HC.jpg,1000,dash,O,z,693,12,1,25908.900000095367,166796.69999980927,7739,ATS,A,8
8,prac,1,B,mfborder.png,1,m,Fri Mar 13 2026 09:52:28 GMT-0500 (Central Daylight Time),195638.09999990463,CFD-WM-019-013-A.jpg,1200,dash,O,m,922,6,1,28841.400000095367,166796.69999980927,7739,ATS,A,9
9,prac,1,B,mfborder.png,1,m,Fri Mar 13 2026 09:52:28 GMT-0500 (Central Daylight Time),198922.79999995232,CFD-BM-010-019-A.jpg,1600,dash,O,m,876,2,1,32126.10000014305,166796.69999980927,7739,ATS,A,10
10,prac,1,B,mfborder.png,1,z,Fri Mar 13 2026 09:52:28 GMT-0500 (Central Daylight Time),201819.19999980927,CFD-BF-023-013-A.jpg,1000,dash,O,z,1116,4,1,35022.5,166796.69999980927,7739,ATS,A,11
11,prac,1,B,mfborder.png,1,z,Fri Mar 13 2026 09:52:28 GMT-0500 (Central Daylight Time),204884.09999990463,CFD-BF-010-005-HC.jpg,1500,dash,O,z,755,3,1,38087.40000009537,166796.69999980927,7739,ATS,A,12
0,test,1,A,haborder.png,0,m,Fri Mar 13 2026 09:52:28 GMT-0500 (Central Daylight Time),237774.5,CFD-BM-017-052-HC.jpg,1700,solid,O,None,1515,1,1,3249.7000000476837,234524.79999995232,7739,ATS,A,1
1,test,1,A,haborder.png,1,m,Fri Mar 13 2026 09:52:28 GMT-0500 (Central Daylight Time),241072.89999985695,CFD-BF-028-020-HC.jpg,2000,solid,O,m,1253,5,1,6548.099999904633,234524.79999995232,7739,ATS,A,2
2,test,1,A,haborder.png,1,m,Fri Mar 13 2026 09:52:28 GMT-0500 (Central Daylight Time),244055.29999995232,CFD-BM-029-026-HC.jpg,1500,solid,O,m,1437,3,1,9530.5,234524.79999995232,7739,ATS,A,3
3,test,1,A,haborder.png,1,z,Fri Mar 13 2026 09:52:28 GMT-0500 (Central Daylight Time),245938.09999990463,CFD-WF-019-015-A.jpg,1000,solid,O,z,835,12,1,11413.299999952316,234524.79999995232,7739,ATS,A,4
4,test,1,A,haborder.png,1,z,Fri Mar 13 2026 09:52:28 GMT-0500 (Central Daylight Time),247770.19999980927,CFD-BF-023-013-A.jpg,1000,solid,O,z,782,4,1,13245.399999856949,234524.79999995232,7739,ATS,A,5
5,test,1,A,haborder.png,1,z,Fri Mar 13 2026 09:52:28 GMT-0500 (Central Daylight Time),250853.09999990463,CFD-BM-005-010-A.jpg,1600,solid,O,z,1457,2,1,16328.299999952316,234524.79999995232,7739,ATS,A,6
6,test,1,A,haborder.png,1,z,Fri Mar 13 2026 09:52:28 GMT-0500 (Central Daylight Time),253285.69999980927,CFD-WF-003-014-A.jpg,1600,solid,O,z,788,10,1,18760.89999985695,234524.79999995232,7739,ATS,A,7
7,test,1,A,haborder.png,1,m,Fri Mar 13 2026 09:52:28 GMT-0500 (Central Daylight Time),255551.59999990463,CFD-WM-004-005-HC.jpg,1400,solid,O,m,830,7,1,21026.799999952316,234524.79999995232,7739,ATS,A,8
8,test,1,A,haborder.png,1,m,Fri Mar 13 2026 09:52:28 GMT-0500 (Central Daylight Time),258100.5,CFD-WM-006-013-HC.jpg,1700,solid,O,m,815,9,1,23575.700000047684,234524.79999995232,7739,ATS,A,9
9,test,1,A,haborder.png,1,z,Fri Mar 13 2026 09:52:28 GMT-0500 (Central Daylight Time),260883.09999990463,CFD-WM-013-015-A.jpg,1900,solid,O,z,833,8,1,26358.299999952316,234524.79999995232,7739,ATS,A,10
9,test,1,A,haborder.png,0,z,Fri Mar 13 2026 09:52:28 GMT-0500 (Central Daylight Time),264032.09999990463,CFD-BM-005-010-A.jpg,1600,solid,O,None,1515,2,1,29507.299999952316,234524.79999995232,7739,ATS,A,11
10,test,1,A,haborder.png,1,z,Fri Mar 13 2026 09:52:28 GMT-0500 (Central Daylight Time),266197.7999999523,CFD-BF-039-039-A.jpg,1200,solid,O,z,930,6,1,31673.0,234524.79999995232,7739,ATS,A,12
11,test,1,A,haborder.png,1,z,Fri Mar 13 2026 09:52:28 GMT-0500 (Central Daylight Time),268729.89999985695,CFD-BF-039-039-A.jpg,1200,solid,O,z,1282,6,1,34205.09999990463,234524.79999995232,7739,ATS,A,13
12,test,1,A,haborder.png,1,m,Fri Mar 13 2026 09:52:28 GMT-0500 (Central Daylight Time),271363.2999999523,CFD-WF-017-016-HC.jpg,1500,solid,O,m,1099,11,1,36838.5,234524.79999995232,7739,ATS,A,14
13,test,1,A,haborder.png,1,m,Fri Mar 13 2026 09:52:28 GMT-0500 (Central Daylight Time),273578.39999985695,CFD-WM-004-005-HC.jpg,1400,solid,O,m,773,7,1,39053.59999990463,234524.79999995232,7739,ATS,A,15
14,test,1,A,haborder.png,1,m,Fri Mar 13 2026 09:52:28 GMT-0500 (Central Daylight Time),276128.09999990463,CFD-WM-006-013-HC.jpg,1700,solid,O,m,827,9,1,41603.299999952316,234524.79999995232,7739,ATS,A,16
15,test,1,A,haborder.png,1,m,Fri Mar 13 2026 09:52:28 GMT-0500 (Central Daylight Time),278443.19999980927,CFD-WF-017-016-HC.jpg,1500,solid,O,m,780,11,1,43918.39999985695,234524.79999995232,7739,ATS,A,17
16,test,1,A,haborder.png,1,z,Fri Mar 13 2026 09:52:28 GMT-0500 (Central Daylight Time),280242.89999985695,CFD-WF-019-015-A.jpg,1000,solid,O,z,775,12,1,45718.09999990463,234524.79999995232,7739,ATS,A,18
16,test,1,A,haborder.png,0,z,Fri Mar 13 2026 09:52:28 GMT-0500 (Central Daylight Time),283259.7999999523,CFD-WF-003-014-A.jpg,1600,solid,O,m,1399,10,1,48735.0,234524.79999995232,7739,ATS,A,19
17,test,1,A,haborder.png,1,m,Fri Mar 13 2026 09:52:28 GMT-0500 (Central Daylight Time),285924.39999985695,CFD-BM-017-052-HC.jpg,1700,solid,O,m,930,1,1,51399.59999990463,234524.79999995232,7739,ATS,A,20
18,test,1,A,haborder.png,1,z,Fri Mar 13 2026 09:52:28 GMT-0500 (Central Daylight Time),287990.09999990463,CFD-BF-023-013-A.jpg,1000,solid,O,z,1019,4,1,53465.299999952316,234524.79999995232,7739,ATS,A,21
19,test,1,A,haborder.png,1,m,Fri Mar 13 2026 09:52:28 GMT-0500 (Central Daylight Time),291473.39999985695,CFD-BF-028-020-HC.jpg,2000,solid,O,m,1460,5,1,56948.59999990463,234524.79999995232,7739,ATS,A,22
20,test,1,A,haborder.png,1,z,Fri Mar 13 2026 09:52:28 GMT-0500 (Central Daylight Time),294405.0,CFD-WM-013-015-A.jpg,1900,solid,O,z,997,8,1,59880.200000047684,234524.79999995232,7739,ATS,A,23
21,test,1,A,haborder.png,1,m,Fri Mar 13 2026 09:52:28 GMT-0500 (Central Daylight Time),297153.89999985695,CFD-BM-029-026-HC.jpg,1500,solid,O,m,1223,3,1,62629.09999990463,234524.79999995232,7739,ATS,A,24
0,test,1,B,mfborder.png,0,z,Fri Mar 13 2026 09:52:28 GMT-0500 (Central Daylight Time),317381.19999980927,CFD-BF-028-020-HC.jpg,1400,dash,O,None,1515,7,1,2948.699999809265,314432.5,7739,ATS,A,1
0,test,1,B,mfborder.png,0,z,Fri Mar 13 2026 09:52:28 GMT-0500 (Central Daylight Time),320430.5,CFD-BF-010-005-HC.jpg,1500,dash,O,None,1515,3,1,5998.0,314432.5,7739,ATS,A,2
0,test,1,B,mfborder.png,0,z,Fri Mar 13 2026 09:52:28 GMT-0500 (Central Daylight Time),322979.7999999523,CFD-WF-017-016-HC.jpg,1000,dash,O,None,1515,12,1,8547.299999952316,314432.5,7739,ATS,A,3
1,test,1,B,mfborder.png,1,z,Fri Mar 13 2026 09:52:28 GMT-0500 (Central Daylight Time),324612.69999980927,CFD-WF-003-014-A.jpg,1500,dash,O,z,100,11,1,10180.199999809265,314432.5,7739,ATS,A,4
2,test,1,B,mfborder.png,1,m,Fri Mar 13 2026 09:52:28 GMT-0500 (Central Daylight Time),326944.2999999523,CFD-WM-006-013-HC.jpg,1600,dash,O,m,692,10,1,12511.799999952316,314432.5,7739,ATS,A,5
3,test,1,B,mfborder.png,1,m,Fri Mar 13 2026 09:52:28 GMT-0500 (Central Daylight Time),329693.89999985695,CFD-WM-013-015-A.jpg,1700,dash,O,m,1022,9,1,15261.399999856949,314432.5,7739,ATS,A,6
4,test,1,B,mfborder.png,1,z,Fri Mar 13 2026 09:52:28 GMT-0500 (Central Daylight Time),332442.89999985695,CFD-WF-002-008-HC.jpg,1900,dash,O,z,809,8,1,18010.39999985695,314432.5,7739,ATS,A,7
5,test,1,B,mfborder.png,1,z,Fri Mar 13 2026 09:52:28 GMT-0500 (Central Daylight Time),334425.59999990463,CFD-BF-023-013-A.jpg,1000,dash,O,z,934,4,1,19993.099999904633,314432.5,7739,ATS,A,8
6,test,1,B,mfborder.png,1,z,Fri Mar 13 2026 09:52:28 GMT-0500 (Central Daylight Time),336241.5,CFD-WF-017-016-HC.jpg,1000,dash,O,z,776,12,1,21809.0,314432.5,7739,ATS,A,9
7,test,1,B,mfborder.png,1,m,Fri Mar 13 2026 09:52:28 GMT-0500 (Central Daylight Time),338824.19999980927,CFD-BM-010-019-A.jpg,1600,dash,O,m,944,2,1,24391.699999809265,314432.5,7739,ATS,A,10
8,test,1,B,mfborder.png,1,m,Fri Mar 13 2026 09:52:28 GMT-0500 (Central Daylight Time),340789.59999990463,CFD-WM-019-013-A.jpg,1200,dash,O,m,705,6,1,26357.099999904633,314432.5,7739,ATS,A,11
9,test,1,B,mfborder.png,1,m,Fri Mar 13 2026 09:52:28 GMT-0500 (Central Daylight Time),342606.2999999523,CFD-WM-019-013-A.jpg,1200,dash,O,m,588,6,1,28173.799999952316,314432.5,7739,ATS,A,12
10,test,1,B,mfborder.png,1,z,Fri Mar 13 2026 09:52:28 GMT-0500 (Central Daylight Time),344989.09999990463,CFD-BF-028-020-HC.jpg,1400,dash,O,z,940,7,1,30556.599999904633,314432.5,7739,ATS,A,13
11,test,1,B,mfborder.png,1,z,Fri Mar 13 2026 09:52:28 GMT-0500 (Central Daylight Time),347671.2999999523,CFD-BF-010-005-HC.jpg,1500,dash,O,z,1145,3,1,33238.799999952316,314432.5,7739,ATS,A,14
12,test,1,B,mfborder.png,1,m,Fri Mar 13 2026 09:52:28 GMT-0500 (Central Daylight Time),350087.09999990463,CFD-BM-010-019-A.jpg,1600,dash,O,m,779,2,1,35654.59999990463,314432.5,7739,ATS,A,15
13,test,1,B,mfborder.png,1,z,Fri Mar 13 2026 09:52:28 GMT-0500 (Central Daylight Time),352802.5,CFD-WF-002-008-HC.jpg,1900,dash,O,z,773,8,1,38370.0,314432.5,7739,ATS,A,16
14,test,1,B,mfborder.png,1,m,Fri Mar 13 2026 09:52:28 GMT-0500 (Central Daylight Time),355535.39999985695,CFD-BM-005-010-A.jpg,2000,dash,O,m,713,5,1,41102.89999985695,314432.5,7739,ATS,A,17
15,test,1,B,mfborder.png,1,m,Fri Mar 13 2026 09:52:28 GMT-0500 (Central Daylight Time),358284.09999990463,CFD-WM-013-015-A.jpg,1700,dash,O,m,1006,9,1,43851.59999990463,314432.5,7739,ATS,A,18
16,test,1,B,mfborder.png,1,z,Fri Mar 13 2026 09:52:28 GMT-0500 (Central Daylight Time),360733.7999999523,CFD-WF-003-014-A.jpg,1500,dash,O,z,930,11,1,46301.299999952316,314432.5,7739,ATS,A,19
17,test,1,B,mfborder.png,1,m,Fri Mar 13 2026 09:52:28 GMT-0500 (Central Daylight Time),363365.89999985695,CFD-BM-005-010-A.jpg,2000,dash,O,m,590,5,1,48933.39999985695,314432.5,7739,ATS,A,20
18,test,1,B,mfborder.png,1,z,Fri Mar 13 2026 09:52:28 GMT-0500 (Central Daylight Time),365065.2999999523,CFD-BF-023-013-A.jpg,1000,dash,O,z,651,4,1,50632.799999952316,314432.5,7739,ATS,A,21
19,test,1,B,mfborder.png,1,m,Fri Mar 13 2026 09:52:28 GMT-0500 (Central Daylight Time),367598.0,CFD-WM-006-013-HC.jpg,1600,dash,O,m,914,10,1,53165.5,314432.5,7739,ATS,A,22
20,test,1,B,mfborder.png,1,m,Fri Mar 13 2026 09:52:28 GMT-0500 (Central Daylight Time),369914.0,CFD-BM-029-026-HC.jpg,1700,dash,O,m,576,1,1,55481.5,314432.5,7739,ATS,A,23
21,test,1,B,mfborder.png,1,m,Fri Mar 13 2026 09:52:28 GMT-0500 (Central Daylight Time),372347.09999990463,CFD-BM-029-026-HC.jpg,1700,dash,O,m,683,1,1,57914.59999990463,314432.5,7739,ATS,A,24
1,prac,1,C,haborder.png,1,m,Fri Mar 13 2026 09:52:28 GMT-0500 (Central Daylight Time),452819.59999990463,CFD-WM-004-005-HC.jpg,1400,solid,O,m,1288,12,1,3482.5,449337.09999990463,7739,ATS,A,1
2,prac,1,C,haborder.png,1,z,Fri Mar 13 2026 09:52:28 GMT-0500 (Central Daylight Time),456718.0,CFD-BF-023-013-A.jpg,1900,dash,O,z,1202,7,1,7380.900000095367,449337.09999990463,7739,ATS,A,2
2,prac,1,C,mfborder.png,0,z,Fri Mar 13 2026 09:52:28 GMT-0500 (Central Daylight Time),459533.7999999523,CFD-BF-028-020-HC.jpg,1000,dash,O,m,1027,3,1,10196.700000047684,449337.09999990463,7739,ATS,A,3
2,prac,1,C,mfborder.png,0,m,Fri Mar 13 2026 09:52:28 GMT-0500 (Central Daylight Time),463532.5,CFD-WM-013-015-A.jpg,1700,solid,O,None,1516,6,1,14195.400000095367,449337.09999990463,7739,ATS,A,4
3,prac,1,C,haborder.png,1,m,Fri Mar 13 2026 09:52:28 GMT-0500 (Central Daylight Time),466882.09999990463,CFD-BM-029-026-HC.jpg,1500,solid,O,m,1064,10,1,17545.0,449337.09999990463,7739,ATS,A,5
4,prac,1,C,haborder.png,1,m,Fri Mar 13 2026 09:52:28 GMT-0500 (Central Daylight Time),469565.0,CFD-WM-004-005-HC.jpg,1000,dash,O,m,863,11,1,20227.900000095367,449337.09999990463,7739,ATS,A,6
4,prac,1,C,mfborder.png,0,z,Fri Mar 13 2026 09:52:28 GMT-0500 (Central Daylight Time),473480.0,CFD-WF-017-016-HC.jpg,1600,dash,O,None,1517,1,1,24142.900000095367,449337.09999990463,7739,ATS,A,7
4,prac,1,C,mfborder.png,0,m,Fri Mar 13 2026 09:52:28 GMT-0500 (Central Daylight Time),476995.19999980927,CFD-BM-005-010-A.jpg,1200,dash,O,None,1516,5,1,27658.099999904633,449337.09999990463,7739,ATS,A,8
5,prac,1,C,haborder.png,1,z,Fri Mar 13 2026 09:52:28 GMT-0500 (Central Daylight Time),479461.19999980927,CFD-WF-003-014-A.jpg,1600,dash,O,z,62,9,1,30124.099999904633,449337.09999990463,7739,ATS,A,9
5,prac,1,C,haborder.png,0,z,Fri Mar 13 2026 09:52:28 GMT-0500 (Central Daylight Time),483476.7999999523,CFD-BF-039-039-A.jpg,1700,solid,O,None,1515,8,1,34139.700000047684,449337.09999990463,7739,ATS,A,10
6,prac,1,C,mfborder.png,1,z,Fri Mar 13 2026 09:52:28 GMT-0500 (Central Daylight Time),486642.19999980927,CFD-WF-019-015-A.jpg,1500,solid,O,z,866,2,1,37305.09999990463,449337.09999990463,7739,ATS,A,11
7,prac,1,C,mfborder.png,1,m,Fri Mar 13 2026 09:52:28 GMT-0500 (Central Daylight Time),490608.09999990463,CFD-BM-017-052-HC.jpg,2000,solid,O,m,1151,4,1,41271.0,449337.09999990463,7739,ATS,A,12
0,prac,2,C,haborder.png,0,z,Fri Mar 13 2026 09:52:28 GMT-0500 (Central Daylight Time),502369.89999985695,CFD-BF-023-013-A.jpg,1900,dash,O,None,1515,7,1,53032.799999952316,449337.09999990463,7739,ATS,A,1
1,prac,2,C,haborder.png,1,m,Fri Mar 13 2026 09:52:28 GMT-0500 (Central Daylight Time),505436.19999980927,CFD-WM-004-005-HC.jpg,1000,dash,O,m,1273,11,1,56099.09999990463,449337.09999990463,7739,ATS,A,2
1,prac,2,C,mfborder.png,0,m,Fri Mar 13 2026 09:52:28 GMT-0500 (Central Daylight Time),509451.19999980927,CFD-WM-013-015-A.jpg,1700,solid,O,None,1516,6,1,60114.09999990463,449337.09999990463,7739,ATS,A,3
1,prac,2,C,haborder.png,0,m,Fri Mar 13 2026 09:52:28 GMT-0500 (Central Daylight Time),513266.69999980927,CFD-BM-029-026-HC.jpg,1500,solid,O,None,1515,10,1,63929.59999990463,449337.09999990463,7739,ATS,A,4
2,prac,2,C,mfborder.png,1,z,Fri Mar 13 2026 09:52:28 GMT-0500 (Central Daylight Time),516815.0,CFD-WF-019-015-A.jpg,1500,solid,O,z,1244,2,1,67477.90000009537,449337.09999990463,7739,ATS,A,5
3,prac,2,C,mfborder.png,1,z,Fri Mar 13 2026 09:52:28 GMT-0500 (Central Daylight Time),519648.09999990463,CFD-BF-028-020-HC.jpg,1000,dash,O,z,1043,3,1,70311.0,449337.09999990463,7739,ATS,A,6
4,prac,2,C,mfborder.png,1,m,Fri Mar 13 2026 09:52:28 GMT-0500 (Central Daylight Time),523563.39999985695,CFD-BM-017-052-HC.jpg,2000,solid,O,m,1114,4,1,74226.29999995232,449337.09999990463,7739,ATS,A,7
5,prac,2,C,haborder.png,1,z,Fri Mar 13 2026 09:52:28 GMT-0500 (Central Daylight Time),527112.399999857,CFD-BF-039-039-A.jpg,1700,solid,O,z,1035,8,1,77775.29999995232,449337.09999990463,7739,ATS,A,8
6,prac,2,C,haborder.png,1,z,Fri Mar 13 2026 09:52:28 GMT-0500 (Central Daylight Time),530394.5,CFD-WF-003-014-A.jpg,1600,dash,O,z,882,9,1,81057.40000009537,449337.09999990463,7739,ATS,A,9
7,prac,2,C,haborder.png,1,m,Fri Mar 13 2026 09:52:28 GMT-0500 (Central Daylight Time),533310.5999999046,CFD-WM-004-005-HC.jpg,1400,solid,O,m,713,12,1,83973.5,449337.09999990463,7739,ATS,A,10
7,prac,2,C,mfborder.png,0,m,Fri Mar 13 2026 09:52:28 GMT-0500 (Central Daylight Time),536825.5999999046,CFD-BM-005-010-A.jpg,1200,dash,O,None,1515,5,1,87488.5,449337.09999990463,7739,ATS,A,11
7,prac,2,C,mfborder.png,0,z,Fri Mar 13 2026 09:52:28 GMT-0500 (Central Daylight Time),540624.399999857,CFD-WF-017-016-HC.jpg,1600,dash,O,m,1383,1,1,91287.29999995232,449337.09999990463,7739,ATS,A,12
0,prac,3,C,haborder.png,0,z,Fri Mar 13 2026 09:52:28 GMT-0500 (Central Daylight Time),558868.399999857,CFD-BF-039-039-A.jpg,1700,solid,O,None,1515,8,1,109531.29999995232,449337.09999990463,7739,ATS,A,1
1,prac,3,C,haborder.png,1,m,Fri Mar 13 2026 09:52:28 GMT-0500 (Central Daylight Time),562367.399999857,CFD-BM-029-026-HC.jpg,1500,solid,O,m,1194,10,1,113030.29999995232,449337.09999990463,7739,ATS,A,2
2,prac,3,C,mfborder.png,1,m,Fri Mar 13 2026 09:52:28 GMT-0500 (Central Daylight Time),565999.5,CFD-WM-013-015-A.jpg,1700,solid,O,m,1119,6,1,116662.40000009537,449337.09999990463,7739,ATS,A,3
2,prac,3,C,mfborder.png,0,m,Fri Mar 13 2026 09:52:28 GMT-0500 (Central Daylight Time),569501.5,CFD-BM-005-010-A.jpg,1200,dash,O,None,1514,5,1,120164.40000009537,449337.09999990463,7739,ATS,A,4
3,prac,3,C,haborder.png,1,z,Fri Mar 13 2026 09:52:28 GMT-0500 (Central Daylight Time),572697.399999857,CFD-WF-003-014-A.jpg,1600,dash,O,z,792,9,1,123360.29999995232,449337.09999990463,7739,ATS,A,5
4,prac,3,C,mfborder.png,1,z,Fri Mar 13 2026 09:52:28 GMT-0500 (Central Daylight Time),576396.0999999046,CFD-WF-017-016-HC.jpg,1600,dash,O,z,1297,1,1,127059.0,449337.09999990463,7739,ATS,A,6
4,prac,3,C,mfborder.png,0,z,Fri Mar 13 2026 09:52:28 GMT-0500 (Central Daylight Time),580228.1999998093,CFD-WF-019-015-A.jpg,1500,solid,O,None,1517,2,1,130891.09999990463,449337.09999990463,7739,ATS,A,7
5,prac,3,C,mfborder.png,1,m,Fri Mar 13 2026 09:52:28 GMT-0500 (Central Daylight Time),583793.0999999046,CFD-BM-017-052-HC.jpg,2000,solid,O,m,750,4,1,134456.0,449337.09999990463,7739,ATS,A,8
6,prac,3,C,haborder.png,1,m,Fri Mar 13 2026 09:52:28 GMT-0500 (Central Daylight Time),586759.899999857,CFD-WM-004-005-HC.jpg,1400,solid,O,m,776,12,1,137422.79999995232,449337.09999990463,7739,ATS,A,9
6,prac,3,C,mfborder.png,0,z,Fri Mar 13 2026 09:52:28 GMT-0500 (Central Daylight Time),590074.7999999523,CFD-BF-028-020-HC.jpg,1000,dash,O,None,1515,3,1,140737.70000004768,449337.09999990463,7739,ATS,A,10
7,prac,3,C,haborder.png,1,z,Fri Mar 13 2026 09:52:28 GMT-0500 (Central Daylight Time),594107.1999998093,CFD-BF-023-013-A.jpg,1900,dash,O,z,1332,7,1,144770.09999990463,449337.09999990463,7739,ATS,A,11
8,prac,3,C,haborder.png,1,m,Fri Mar 13 2026 09:52:28 GMT-0500 (Central Daylight Time),596772.5999999046,CFD-WM-004-005-HC.jpg,1000,dash,O,m,855,11,1,147435.5,449337.09999990463,7739,ATS,A,12
0,test,1,C,haborder.png,0,m,Fri Mar 13 2026 09:52:28 GMT-0500 (Central Daylight Time),623080.899999857,CFD-BF-028-020-HC.jpg,1600,solid,O,None,1516,10,1,3148.7999999523163,619932.0999999046,7739,ATS,A,1
0,test,1,C,haborder.png,0,m,Fri Mar 13 2026 09:52:28 GMT-0500 (Central Daylight Time),626129.7999999523,CFD-WF-002-008-HC.jpg,1500,solid,O,None,1516,11,1,6197.700000047684,619932.0999999046,7739,ATS,A,2
0,test,1,C,haborder.png,0,z,Fri Mar 13 2026 09:52:28 GMT-0500 (Central Daylight Time),629578.6999998093,CFD-BM-005-010-A.jpg,1900,solid,O,None,1515,8,1,9646.599999904633,619932.0999999046,7739,ATS,A,3
1,test,1,C,haborder.png,1,z,Fri Mar 13 2026 09:52:28 GMT-0500 (Central Daylight Time),631278.1999998093,CFD-WM-013-015-A.jpg,1400,solid,O,z,256,7,1,11346.099999904633,619932.0999999046,7739,ATS,A,4
1,test,1,C,haborder.png,0,m,Fri Mar 13 2026 09:52:28 GMT-0500 (Central Daylight Time),633842.1999998093,CFD-WF-017-016-HC.jpg,1000,solid,O,None,1530,12,1,13910.099999904633,619932.0999999046,7739,ATS,A,5
1,test,1,C,haborder.png,0,m,Fri Mar 13 2026 09:52:28 GMT-0500 (Central Daylight Time),636875.5999999046,CFD-WF-002-008-HC.jpg,1500,solid,O,None,1515,11,1,16943.5,619932.0999999046,7739,ATS,A,6
1,test,1,C,mfborder.png,0,m,Fri Mar 13 2026 09:52:28 GMT-0500 (Central Daylight Time),639608.7999999523,CFD-BM-029-026-HC.jpg,1200,dash,O,None,1516,6,1,19676.700000047684,619932.0999999046,7739,ATS,A,7
2,test,1,C,mfborder.png,1,m,Fri Mar 13 2026 09:52:28 GMT-0500 (Central Daylight Time),641541.399999857,CFD-WM-006-013-HC.jpg,1000,dash,O,m,889,4,1,21609.299999952316,619932.0999999046,7739,ATS,A,8
2,test,1,C,haborder.png,0,z,Fri Mar 13 2026 09:52:28 GMT-0500 (Central Daylight Time),644490.5,CFD-WM-013-015-A.jpg,1400,solid,O,None,1515,7,1,24558.400000095367,619932.0999999046,7739,ATS,A,9
2,test,1,C,haborder.png,0,z,Fri Mar 13 2026 09:52:28 GMT-0500 (Central Daylight Time),647705.899999857,CFD-BM-010-019-A.jpg,1700,solid,O,m,1467,9,1,27773.799999952316,619932.0999999046,7739,ATS,A,10
2,test,1,C,mfborder.png,0,m,Fri Mar 13 2026 09:52:28 GMT-0500 (Central Daylight Time),650255.0999999046,CFD-WM-006-013-HC.jpg,1000,dash,O,None,1515,4,1,30323.0,619932.0999999046,7739,ATS,A,11
2,test,1,C,haborder.png,0,m,Fri Mar 13 2026 09:52:28 GMT-0500 (Central Daylight Time),653404.0999999046,CFD-BF-028-020-HC.jpg,1600,solid,O,None,1515,10,1,33472.0,619932.0999999046,7739,ATS,A,12
2,test,1,C,mfborder.png,0,z,Fri Mar 13 2026 09:52:28 GMT-0500 (Central Daylight Time),656652.899999857,CFD-BF-010-005-HC.jpg,1700,dash,O,None,1516,1,1,36720.799999952316,619932.0999999046,7739,ATS,A,13
2,test,1,C,haborder.png,0,m,Fri Mar 13 2026 09:52:28 GMT-0500 (Central Daylight Time),659036.0999999046,CFD-WF-017-016-HC.jpg,1000,solid,O,z,1349,12,1,39104.0,619932.0999999046,7739,ATS,A,14
2,test,1,C,mfborder.png,0,m,Fri Mar 13 2026 09:52:28 GMT-0500 (Central Daylight Time),662584.5,CFD-WM-019-013-A.jpg,2000,dash,O,None,1515,5,1,42652.40000009537,619932.0999999046,7739,ATS,A,15
2,test,1,C,haborder.png,0,z,Fri Mar 13 2026 09:52:28 GMT-0500 (Central Daylight Time),665833.2999999523,CFD-BM-010-019-A.jpg,1700,solid,O,None,1516,9,1,45901.200000047684,619932.0999999046,7739,ATS,A,16
3,test,1,C,mfborder.png,1,z,Fri Mar 13 2026 09:52:28 GMT-0500 (Central Daylight Time),668616.0,CFD-BF-010-005-HC.jpg,1700,dash,O,z,1037,1,1,48683.90000009537,619932.0999999046,7739,ATS,A,17
4,test,1,C,mfborder.png,1,m,Fri Mar 13 2026 09:52:28 GMT-0500 (Central Daylight Time),671514.5,CFD-WM-019-013-A.jpg,2000,dash,O,m,865,5,1,51582.40000009537,619932.0999999046,7739,ATS,A,18
5,test,1,C,mfborder.png,1,m,Fri Mar 13 2026 09:52:28 GMT-0500 (Central Daylight Time),673531.0999999046,CFD-BM-029-026-HC.jpg,1200,dash,O,m,783,6,1,53599.0,619932.0999999046,7739,ATS,A,19
5,test,1,C,haborder.png,0,z,Fri Mar 13 2026 09:52:28 GMT-0500 (Central Daylight Time),676796.5,CFD-BM-005-010-A.jpg,1900,solid,O,m,1324,8,1,56864.40000009537,619932.0999999046,7739,ATS,A,20
6,test,1,C,mfborder.png,1,z,Fri Mar 13 2026 09:52:28 GMT-0500 (Central Daylight Time),679312.399999857,CFD-WF-003-014-A.jpg,1500,dash,O,z,970,3,1,59380.299999952316,619932.0999999046,7739,ATS,A,21
7,test,1,C,mfborder.png,1,z,Fri Mar 13 2026 09:52:28 GMT-0500 (Central Daylight Time),681627.6999998093,CFD-BF-023-013-A.jpg,1600,dash,O,z,672,2,1,61695.59999990463,619932.0999999046,7739,ATS,A,22
8,test,1,C,mfborder.png,1,z,Fri Mar 13 2026 09:52:28 GMT-0500 (Central Daylight Time),684160.899999857,CFD-BF-023-013-A.jpg,1600,dash,O,z,903,2,1,64228.799999952316,619932.0999999046,7739,ATS,A,23
9,test,1,C,mfborder.png,1,z,Fri Mar 13 2026 09:52:28 GMT-0500 (Central Daylight Time),686576.6999998093,CFD-WF-003-014-A.jpg,1500,dash,O,z,870,3,1,66644.59999990463,619932.0999999046,7739,ATS,A,24
0,test,2,C,mfborder.png,0,z,Fri Mar 13 2026 09:52:28 GMT-0500 (Central Daylight Time),697756.7999999523,CFD-BF-028-020-HC.jpg,1500,dash,O,None,1515,3,1,3049.2000000476837,694707.5999999046,7739,ATS,A,1
0,test,2,C,mfborder.png,0,m,Fri Mar 13 2026 09:52:28 GMT-0500 (Central Daylight Time),701288.6999998093,CFD-BM-005-010-A.jpg,2000,dash,O,None,1515,5,1,6581.099999904633,694707.5999999046,7739,ATS,A,2
1,test,2,C,mfborder.png,1,z,Fri Mar 13 2026 09:52:28 GMT-0500 (Central Daylight Time),703887.6999998093,CFD-BF-028-020-HC.jpg,1500,dash,O,z,1062,3,1,9180.099999904633,694707.5999999046,7739,ATS,A,3
2,test,2,C,mfborder.png,1,m,Fri Mar 13 2026 09:52:28 GMT-0500 (Central Daylight Time),706302.6999998093,CFD-WM-013-015-A.jpg,1200,dash,O,m,1177,6,1,11595.099999904633,694707.5999999046,7739,ATS,A,4
3,test,2,C,haborder.png,1,m,Fri Mar 13 2026 09:52:28 GMT-0500 (Central Daylight Time),708685.6999998093,CFD-BM-029-026-HC.jpg,1600,solid,O,m,765,10,1,13978.099999904633,694707.5999999046,7739,ATS,A,5
3,test,2,C,haborder.png,0,z,Fri Mar 13 2026 09:52:28 GMT-0500 (Central Daylight Time),711634.1999998093,CFD-BF-023-013-A.jpg,1400,solid,O,None,1515,7,1,16926.599999904633,694707.5999999046,7739,ATS,A,6
4,test,2,C,haborder.png,1,z,Fri Mar 13 2026 09:52:28 GMT-0500 (Central Daylight Time),714117.2999999523,CFD-BF-023-013-A.jpg,1400,solid,O,z,1064,7,1,19409.700000047684,694707.5999999046,7739,ATS,A,7
5,test,2,C,haborder.png,1,m,Fri Mar 13 2026 09:52:28 GMT-0500 (Central Daylight Time),716216.5999999046,CFD-WM-004-005-HC.jpg,1000,solid,O,m,1061,12,1,21509.0,694707.5999999046,7739,ATS,A,8
5,test,2,C,mfborder.png,0,z,Fri Mar 13 2026 09:52:28 GMT-0500 (Central Daylight Time),719465.399999857,CFD-WF-017-016-HC.jpg,1700,dash,O,None,1515,1,1,24757.799999952316,694707.5999999046,7739,ATS,A,9
6,test,2,C,mfborder.png,1,m,Fri Mar 13 2026 09:52:28 GMT-0500 (Central Daylight Time),721381.5,CFD-WM-013-015-A.jpg,1200,dash,O,m,697,6,1,26673.900000095367,694707.5999999046,7739,ATS,A,10
7,test,2,C,haborder.png,1,m,Fri Mar 13 2026 09:52:28 GMT-0500 (Central Daylight Time),724131.399999857,CFD-WM-004-005-HC.jpg,1500,solid,O,m,1200,11,1,29423.799999952316,694707.5999999046,7739,ATS,A,11
8,test,2,C,haborder.png,1,m,Fri Mar 13 2026 09:52:28 GMT-0500 (Central Daylight Time),726596.0999999046,CFD-WM-004-005-HC.jpg,1500,solid,O,m,930,11,1,31888.5,694707.5999999046,7739,ATS,A,12
9,test,2,C,haborder.png,1,m,Fri Mar 13 2026 09:52:28 GMT-0500 (Central Daylight Time),728996.0,CFD-BM-029-026-HC.jpg,1600,solid,O,m,775,10,1,34288.40000009537,694707.5999999046,7739,ATS,A,13
10,test,2,C,haborder.png,1,z,Fri Mar 13 2026 09:52:28 GMT-0500 (Central Daylight Time),731761.6999998093,CFD-WF-003-014-A.jpg,1700,solid,O,z,1025,9,1,37054.09999990463,694707.5999999046,7739,ATS,A,14
10,test,2,C,mfborder.png,0,z,Fri Mar 13 2026 09:52:28 GMT-0500 (Central Daylight Time),734777.5,CFD-WF-017-016-HC.jpg,1700,dash,O,m,1277,1,1,40069.90000009537,694707.5999999046,7739,ATS,A,15
11,test,2,C,mfborder.png,1,z,Fri Mar 13 2026 09:52:28 GMT-0500 (Central Daylight Time),737559.7999999523,CFD-WF-019-015-A.jpg,1600,dash,O,z,1145,2,1,42852.200000047684,694707.5999999046,7739,ATS,A,16
12,test,2,C,mfborder.png,1,m,Fri Mar 13 2026 09:52:28 GMT-0500 (Central Daylight Time),739525.1999998093,CFD-BM-017-052-HC.jpg,1000,dash,O,m,928,4,1,44817.59999990463,694707.5999999046,7739,ATS,A,17
13,test,2,C,mfborder.png,1,m,Fri Mar 13 2026 09:52:28 GMT-0500 (Central Daylight Time),741558.5999999046,CFD-BM-017-052-HC.jpg,1000,dash,O,m,1014,4,1,46851.0,694707.5999999046,7739,ATS,A,18
14,test,2,C,haborder.png,1,z,Fri Mar 13 2026 09:52:28 GMT-0500 (Central Daylight Time),744374.399999857,CFD-BF-039-039-A.jpg,1900,solid,O,z,872,8,1,49666.799999952316,694707.5999999046,7739,ATS,A,19
15,test,2,C,haborder.png,1,z,Fri Mar 13 2026 09:52:28 GMT-0500 (Central Daylight Time),746939.2999999523,CFD-WF-003-014-A.jpg,1700,solid,O,z,830,9,1,52231.700000047684,694707.5999999046,7739,ATS,A,20
16,test,2,C,haborder.png,1,z,Fri Mar 13 2026 09:52:28 GMT-0500 (Central Daylight Time),750272.1999998093,CFD-BF-039-039-A.jpg,1900,solid,O,z,1403,8,1,55564.59999990463,694707.5999999046,7739,ATS,A,21
17,test,2,C,mfborder.png,1,m,Fri Mar 13 2026 09:52:28 GMT-0500 (Central Daylight Time),753637.6999998093,CFD-BM-005-010-A.jpg,2000,dash,O,m,1331,5,1,58930.09999990463,694707.5999999046,7739,ATS,A,22
18,test,2,C,mfborder.png,1,z,Fri Mar 13 2026 09:52:28 GMT-0500 (Central Daylight Time),756553.399999857,CFD-WF-019-015-A.jpg,1600,dash,O,z,1277,2,1,61845.799999952316,694707.5999999046,7739,ATS,A,23
18,test,2,C,haborder.png,0,m,Fri Mar 13 2026 09:52:28 GMT-0500 (Central Daylight Time),759087.399999857,CFD-WM-004-005-HC.jpg,1000,solid,O,None,1515,12,1,64379.799999952316,694707.5999999046,7739,ATS,A,24
0,test,3,C,mfborder.png,0,m,Fri Mar 13 2026 09:52:28 GMT-0500 (Central Daylight Time),770449.1999998093,CFD-WM-019-013-A.jpg,2000,dash,O,None,1516,5,1,3548.899999856949,766900.2999999523,7739,ATS,A,1
0,test,3,C,haborder.png,0,m,Fri Mar 13 2026 09:52:28 GMT-0500 (Central Daylight Time),772697.7999999523,CFD-WF-017-016-HC.jpg,1000,solid,O,z,1208,12,1,5797.5,766900.2999999523,7739,ATS,A,2
0,test,3,C,haborder.png,0,z,Fri Mar 13 2026 09:52:28 GMT-0500 (Central Daylight Time),775930.0,CFD-BM-010-019-A.jpg,1700,solid,O,None,1515,9,1,9029.700000047684,766900.2999999523,7739,ATS,A,3
0,test,3,C,mfborder.png,0,z,Fri Mar 13 2026 09:52:28 GMT-0500 (Central Daylight Time),779079.5999999046,CFD-BF-010-005-HC.jpg,1700,dash,O,m,1421,1,1,12179.299999952316,766900.2999999523,7739,ATS,A,4
0,test,3,C,haborder.png,0,z,Fri Mar 13 2026 09:52:28 GMT-0500 (Central Daylight Time),781945.0999999046,CFD-WM-013-015-A.jpg,1400,solid,O,m,1427,7,1,15044.799999952316,766900.2999999523,7739,ATS,A,5
0,test,3,C,haborder.png,0,z,Fri Mar 13 2026 09:52:28 GMT-0500 (Central Daylight Time),784944.1999998093,CFD-BM-010-019-A.jpg,1700,solid,O,m,1254,9,1,18043.89999985695,766900.2999999523,7739,ATS,A,6
0,test,3,C,haborder.png,0,z,Fri Mar 13 2026 09:52:28 GMT-0500 (Central Daylight Time),788393.1999998093,CFD-BM-005-010-A.jpg,1900,solid,O,None,1515,8,1,21492.89999985695,766900.2999999523,7739,ATS,A,7
1,test,3,C,mfborder.png,1,m,Fri Mar 13 2026 09:52:28 GMT-0500 (Central Daylight Time),789992.5999999046,CFD-WM-006-013-HC.jpg,1000,dash,O,m,553,4,1,23092.299999952316,766900.2999999523,7739,ATS,A,8
2,test,3,C,mfborder.png,1,m,Fri Mar 13 2026 09:52:28 GMT-0500 (Central Daylight Time),792175.399999857,CFD-BM-029-026-HC.jpg,1200,dash,O,m,946,6,1,25275.099999904633,766900.2999999523,7739,ATS,A,9
3,test,3,C,mfborder.png,1,m,Fri Mar 13 2026 09:52:28 GMT-0500 (Central Daylight Time),794257.899999857,CFD-BM-029-026-HC.jpg,1200,dash,O,m,843,6,1,27357.599999904633,766900.2999999523,7739,ATS,A,10
4,test,3,C,mfborder.png,1,z,Fri Mar 13 2026 09:52:28 GMT-0500 (Central Daylight Time),796523.899999857,CFD-WF-003-014-A.jpg,1500,dash,O,z,717,3,1,29623.599999904633,766900.2999999523,7739,ATS,A,11
4,test,3,C,haborder.png,0,m,Fri Mar 13 2026 09:52:28 GMT-0500 (Central Daylight Time),799072.7999999523,CFD-WF-017-016-HC.jpg,1000,solid,O,None,1516,12,1,32172.5,766900.2999999523,7739,ATS,A,12
4,test,3,C,haborder.png,0,z,Fri Mar 13 2026 09:52:28 GMT-0500 (Central Daylight Time),802521.6999998093,CFD-BM-005-010-A.jpg,1900,solid,O,None,1515,8,1,35621.39999985695,766900.2999999523,7739,ATS,A,13
5,test,3,C,mfborder.png,1,z,Fri Mar 13 2026 09:52:28 GMT-0500 (Central Daylight Time),804988.399999857,CFD-BF-023-013-A.jpg,1600,dash,O,z,833,2,1,38088.09999990463,766900.2999999523,7739,ATS,A,14
6,test,3,C,haborder.png,1,z,Fri Mar 13 2026 09:52:28 GMT-0500 (Central Daylight Time),807303.6999998093,CFD-WM-013-015-A.jpg,1400,solid,O,z,879,7,1,40403.39999985695,766900.2999999523,7739,ATS,A,15
7,test,3,C,mfborder.png,1,z,Fri Mar 13 2026 09:52:28 GMT-0500 (Central Daylight Time),809936.1999998093,CFD-WF-003-014-A.jpg,1500,dash,O,z,1095,3,1,43035.89999985695,766900.2999999523,7739,ATS,A,16
8,test,3,C,mfborder.png,1,z,Fri Mar 13 2026 09:52:28 GMT-0500 (Central Daylight Time),812434.399999857,CFD-BF-023-013-A.jpg,1600,dash,O,z,857,2,1,45534.09999990463,766900.2999999523,7739,ATS,A,17
9,test,3,C,mfborder.png,1,m,Fri Mar 13 2026 09:52:28 GMT-0500 (Central Daylight Time),815351.2999999523,CFD-WM-019-013-A.jpg,2000,dash,O,m,888,5,1,48451.0,766900.2999999523,7739,ATS,A,18
9,test,3,C,haborder.png,0,m,Fri Mar 13 2026 09:52:28 GMT-0500 (Central Daylight Time),817883.7999999523,CFD-WF-002-008-HC.jpg,1500,solid,O,z,983,11,1,50983.5,766900.2999999523,7739,ATS,A,19
9,test,3,C,haborder.png,0,m,Fri Mar 13 2026 09:52:28 GMT-0500 (Central Daylight Time),820716.0999999046,CFD-BF-028-020-HC.jpg,1600,solid,O,z,1184,10,1,53815.799999952316,766900.2999999523,7739,ATS,A,20
10,test,3,C,mfborder.png,1,m,Fri Mar 13 2026 09:52:28 GMT-0500 (Central Daylight Time),823198.399999857,CFD-WM-006-013-HC.jpg,1000,dash,O,m,1446,4,1,56298.09999990463,766900.2999999523,7739,ATS,A,21
10,test,3,C,haborder.png,0,m,Fri Mar 13 2026 09:52:28 GMT-0500 (Central Daylight Time),826247.7999999523,CFD-WF-002-008-HC.jpg,1500,solid,O,None,1517,11,1,59347.5,766900.2999999523,7739,ATS,A,22
11,test,3,C,mfborder.png,1,z,Fri Mar 13 2026 09:52:28 GMT-0500 (Central Daylight Time),829129.7999999523,CFD-BF-010-005-HC.jpg,1700,dash,O,z,1135,1,1,62229.5,766900.2999999523,7739,ATS,A,23
12,test,3,C,haborder.png,1,m,Fri Mar 13 2026 09:52:28 GMT-0500 (Central Daylight Time),832245.2999999523,CFD-BF-028-020-HC.jpg,1600,solid,O,m,1473,10,1,65345.0,766900.2999999523,7739,ATS,A,24
0,test,4,C,mfborder.png,0,z,Fri Mar 13 2026 09:52:28 GMT-0500 (Central Daylight Time),837895.899999857,CFD-BF-028-020-HC.jpg,1500,dash,O,None,1501,3,1,3018.7000000476837,834877.1999998093,7739,ATS,A,1
1,test,4,C,haborder.png,1,m,Fri Mar 13 2026 09:52:28 GMT-0500 (Central Daylight Time),840876.5999999046,CFD-BM-029-026-HC.jpg,1600,solid,O,m,1349,10,1,5999.400000095367,834877.1999998093,7739,ATS,A,2
2,test,4,C,haborder.png,1,z,Fri Mar 13 2026 09:52:28 GMT-0500 (Central Daylight Time),843774.899999857,CFD-BF-039-039-A.jpg,1900,solid,O,z,963,8,1,8897.700000047684,834877.1999998093,7739,ATS,A,3
3,test,4,C,haborder.png,1,z,Fri Mar 13 2026 09:52:28 GMT-0500 (Central Daylight Time),846524.5,CFD-BF-039-039-A.jpg,1900,solid,O,z,816,8,1,11647.300000190735,834877.1999998093,7739,ATS,A,4
4,test,4,C,haborder.png,1,z,Fri Mar 13 2026 09:52:28 GMT-0500 (Central Daylight Time),849090.0,CFD-WF-003-014-A.jpg,1700,solid,O,z,819,9,1,14212.800000190735,834877.1999998093,7739,ATS,A,5
4,test,4,C,mfborder.png,0,m,Fri Mar 13 2026 09:52:28 GMT-0500 (Central Daylight Time),852638.6999998093,CFD-BM-005-010-A.jpg,2000,dash,O,None,1514,5,1,17761.5,834877.1999998093,7739,ATS,A,6
5,test,4,C,haborder.png,1,m,Fri Mar 13 2026 09:52:28 GMT-0500 (Central Daylight Time),854421.399999857,CFD-WM-004-005-HC.jpg,1000,solid,O,m,740,12,1,19544.200000047684,834877.1999998093,7739,ATS,A,7
5,test,4,C,mfborder.png,0,z,Fri Mar 13 2026 09:52:28 GMT-0500 (Central Daylight Time),857470.2999999523,CFD-BF-028-020-HC.jpg,1500,dash,O,None,1514,3,1,22593.10000014305,834877.1999998093,7739,ATS,A,8
6,test,4,C,haborder.png,1,z,Fri Mar 13 2026 09:52:28 GMT-0500 (Central Daylight Time),860203.0999999046,CFD-BF-023-013-A.jpg,1400,solid,O,z,1284,7,1,25325.900000095367,834877.1999998093,7739,ATS,A,9
6,test,4,C,mfborder.png,0,m,Fri Mar 13 2026 09:52:28 GMT-0500 (Central Daylight Time),862752.0,CFD-BM-017-052-HC.jpg,1000,dash,O,None,1516,4,1,27874.800000190735,834877.1999998093,7739,ATS,A,10
6,test,4,C,mfborder.png,0,z,Fri Mar 13 2026 09:52:28 GMT-0500 (Central Daylight Time),865850.899999857,CFD-WF-017-016-HC.jpg,1700,dash,O,m,1358,1,1,30973.700000047684,834877.1999998093,7739,ATS,A,11
7,test,4,C,haborder.png,1,m,Fri Mar 13 2026 09:52:28 GMT-0500 (Central Daylight Time),868633.5,CFD-BM-029-026-HC.jpg,1600,solid,O,m,1136,10,1,33756.300000190735,834877.1999998093,7739,ATS,A,12
8,test,4,C,mfborder.png,1,z,Fri Mar 13 2026 09:52:28 GMT-0500 (Central Daylight Time),871049.1999998093,CFD-WF-019-015-A.jpg,1600,dash,O,z,777,2,1,36172.0,834877.1999998093,7739,ATS,A,13
9,test,4,C,mfborder.png,1,m,Fri Mar 13 2026 09:52:28 GMT-0500 (Central Daylight Time),873781.7999999523,CFD-WM-013-015-A.jpg,1200,dash,O,m,1489,6,1,38904.60000014305,834877.1999998093,7739,ATS,A,14
10,test,4,C,haborder.png,1,m,Fri Mar 13 2026 09:52:28 GMT-0500 (Central Daylight Time),876514.1999998093,CFD-WM-004-005-HC.jpg,1500,solid,O,m,1185,11,1,41637.0,834877.1999998093,7739,ATS,A,15
11,test,4,C,haborder.png,1,z,Fri Mar 13 2026 09:52:28 GMT-0500 (Central Daylight Time),879279.1999998093,CFD-BF-023-013-A.jpg,1400,solid,O,z,1319,7,1,44402.0,834877.1999998093,7739,ATS,A,16
12,test,4,C,mfborder.png,1,m,Fri Mar 13 2026 09:52:28 GMT-0500 (Central Daylight Time),881479.2999999523,CFD-BM-017-052-HC.jpg,1000,dash,O,m,1180,4,1,46602.10000014305,834877.1999998093,7739,ATS,A,17
13,test,4,C,mfborder.png,1,z,Fri Mar 13 2026 09:52:28 GMT-0500 (Central Daylight Time),884228.0999999046,CFD-WF-017-016-HC.jpg,1700,dash,O,z,1000,1,1,49350.90000009537,834877.1999998093,7739,ATS,A,18
13,test,4,C,mfborder.png,0,z,Fri Mar 13 2026 09:52:28 GMT-0500 (Central Daylight Time),887377.5999999046,CFD-WF-019-015-A.jpg,1600,dash,O,None,1515,2,1,52500.40000009537,834877.1999998093,7739,ATS,A,19
14,test,4,C,haborder.png,1,m,Fri Mar 13 2026 09:52:28 GMT-0500 (Central Daylight Time),889642.899999857,CFD-WM-004-005-HC.jpg,1500,solid,O,m,726,11,1,54765.700000047684,834877.1999998093,7739,ATS,A,20
15,test,4,C,haborder.png,1,z,Fri Mar 13 2026 09:52:28 GMT-0500 (Central Daylight Time),892142.399999857,CFD-WF-003-014-A.jpg,1700,solid,O,z,771,9,1,57265.200000047684,834877.1999998093,7739,ATS,A,21
16,test,4,C,mfborder.png,1,m,Fri Mar 13 2026 09:52:28 GMT-0500 (Central Daylight Time),895274.6999998093,CFD-BM-005-010-A.jpg,2000,dash,O,m,1092,5,1,60397.5,834877.1999998093,7739,ATS,A,22
17,test,4,C,haborder.png,1,m,Fri Mar 13 2026 09:52:28 GMT-0500 (Central Daylight Time),897240.7999999523,CFD-WM-004-005-HC.jpg,1000,solid,O,m,928,12,1,62363.60000014305,834877.1999998093,7739,ATS,A,23
17,test,4,C,mfborder.png,0,m,Fri Mar 13 2026 09:52:28 GMT-0500 (Central Daylight Time),899989.899999857,CFD-WM-013-015-A.jpg,1200,dash,O,None,1516,6,1,65112.700000047684,834877.1999998093,7739,ATS,A,24
