block_c,block_dur,condition,countdown,datetime,endtime,list,multichar_response,project,response,response_time,session_number,start_end,starttime,subject_id,task,task_vers,trial
,,,,Fri May 29 2026 15:02:53 GMT-0500 (Central Daylight Time),,,,O,space,649,1,,,7810,WL,A,
prac,,0,,Fri May 29 2026 15:02:53 GMT-0500 (Central Daylight Time),,NA,b,O,b,10136,1,,,7810,WL,A,1.0
prac,,0,,Fri May 29 2026 15:02:53 GMT-0500 (Central Daylight Time),,NA,bo,O,o,666,1,,,7810,WL,A,1.0
prac,,0,,Fri May 29 2026 15:02:53 GMT-0500 (Central Daylight Time),,NA,boo,O,o,182,1,,,7810,WL,A,1.0
prac,,0,,Fri May 29 2026 15:02:53 GMT-0500 (Central Daylight Time),,NA,boos,O,s,1111,1,,,7810,WL,A,1.0
prac,,0,,Fri May 29 2026 15:02:53 GMT-0500 (Central Daylight Time),,NA,boost,O,t,75,1,,,7810,WL,A,1.0
prac,,0,,Fri May 29 2026 15:02:53 GMT-0500 (Central Daylight Time),,NA,boostenter,O,enter,4655,1,,,7810,WL,A,1.0
1,3.4149999618530273,learn,56585.00003814697,Fri May 29 2026 15:02:53 GMT-0500 (Central Daylight Time),155012.69999998808,A,a,O,a,3407,1,3415.399999976158,151597.30000001192,7810,WL,A,1.0
1,4.2149999141693115,learn,55785.00008583069,Fri May 29 2026 15:02:53 GMT-0500 (Central Daylight Time),155812.5,A,ap,O,p,781,1,4215.199999988079,151597.30000001192,7810,WL,A,1.0
1,4.398000001907349,learn,55601.99999809265,Fri May 29 2026 15:02:53 GMT-0500 (Central Daylight Time),155995.80000001192,A,app,O,p,167,1,4398.5,151597.30000001192,7810,WL,A,1.0
1,4.681999921798706,learn,55318.000078201294,Fri May 29 2026 15:02:53 GMT-0500 (Central Daylight Time),156279.0,A,appl,O,l,263,1,4681.699999988079,151597.30000001192,7810,WL,A,1.0
1,4.998999834060669,learn,55001.00016593933,Fri May 29 2026 15:02:53 GMT-0500 (Central Daylight Time),156596.0,A,apple,O,e,300,1,4998.699999988079,151597.30000001192,7810,WL,A,1.0
1,6.763000011444092,learn,53236.99998855591,Fri May 29 2026 15:02:53 GMT-0500 (Central Daylight Time),158361.60000002384,A,appleenter,O,enter,1759,1,6764.300000011921,151597.30000001192,7810,WL,A,1.0
1,8.395999908447266,learn,51604.000091552734,Fri May 29 2026 15:02:53 GMT-0500 (Central Daylight Time),159994.60000002384,A,b,O,b,1617,1,1632.6000000238419,158362.0,7810,WL,A,2.0
1,9.013000011444092,learn,50986.99998855591,Fri May 29 2026 15:02:53 GMT-0500 (Central Daylight Time),160610.89999997616,A,bo,O,o,600,1,2248.899999976158,158362.0,7810,WL,A,2.0
1,9.178999900817871,learn,50821.00009918213,Fri May 29 2026 15:02:53 GMT-0500 (Central Daylight Time),160777.5,A,boo,O,o,153,1,2415.5,158362.0,7810,WL,A,2.0
1,9.51199984550476,learn,50488.00015449524,Fri May 29 2026 15:02:53 GMT-0500 (Central Daylight Time),161110.69999998808,A,book,O,k,314,1,2748.699999988079,158362.0,7810,WL,A,2.0
1,10.444999933242798,learn,49555.0000667572,Fri May 29 2026 15:02:53 GMT-0500 (Central Daylight Time),162043.69999998808,A,bookenter,O,enter,924,1,3681.699999988079,158362.0,7810,WL,A,2.0
1,11.961999893188477,learn,48038.00010681152,Fri May 29 2026 15:02:53 GMT-0500 (Central Daylight Time),163559.89999997616,A,l,O,l,1495,1,1515.699999988079,162044.19999998808,7810,WL,A,3.0
1,12.194999933242798,learn,47805.0000667572,Fri May 29 2026 15:02:53 GMT-0500 (Central Daylight Time),163793.19999998808,A,lo,O,o,219,1,1749.0,162044.19999998808,7810,WL,A,3.0
1,12.577999830245972,learn,47422.00016975403,Fri May 29 2026 15:02:53 GMT-0500 (Central Daylight Time),164176.60000002384,A,log,O,g,370,1,2132.400000035763,162044.19999998808,7810,WL,A,3.0
1,13.67799997329712,learn,46322.00002670288,Fri May 29 2026 15:02:53 GMT-0500 (Central Daylight Time),165276.10000002384,A,logenter,O,enter,1091,1,3231.900000035763,162044.19999998808,7810,WL,A,3.0
1,22.64199995994568,learn,37358.00004005432,Fri May 29 2026 15:02:53 GMT-0500 (Central Daylight Time),174240.0,A,r,O,r,8951,1,8963.5,165276.5,7810,WL,A,4.0
1,22.941999912261963,learn,37058.00008773804,Fri May 29 2026 15:02:53 GMT-0500 (Central Daylight Time),174540.0,A,ra,O,a,282,1,9263.5,165276.5,7810,WL,A,4.0
1,23.140999794006348,learn,36859.00020599365,Fri May 29 2026 15:02:53 GMT-0500 (Central Daylight Time),174739.80000001192,A,rai,O,i,184,1,9463.300000011921,165276.5,7810,WL,A,4.0
1,23.357999801635742,learn,36642.00019836426,Fri May 29 2026 15:02:53 GMT-0500 (Central Daylight Time),174956.39999997616,A,rain,O,n,200,1,9679.899999976158,165276.5,7810,WL,A,4.0
1,24.757999897003174,learn,35242.000102996826,Fri May 29 2026 15:02:53 GMT-0500 (Central Daylight Time),176355.89999997616,A,rainenter,O,enter,1383,1,11079.399999976158,165276.5,7810,WL,A,4.0
1,52.29899978637695,learn,7701.000213623047,Fri May 29 2026 15:02:53 GMT-0500 (Central Daylight Time),203897.30000001192,A,enter,O,enter,27527,1,27541.0,176356.30000001192,7810,WL,A,5.0
1,55.41499996185303,learn,4585.000038146973,Fri May 29 2026 15:02:53 GMT-0500 (Central Daylight Time),207013.10000002384,A,enter,O,enter,3096,1,3115.400000035763,203897.69999998808,7810,WL,A,6.0
1,56.2979998588562,learn,3702.000141143799,Fri May 29 2026 15:02:53 GMT-0500 (Central Daylight Time),207896.0,A,enter,O,enter,863,1,882.6000000238419,207013.39999997616,7810,WL,A,7.0
1,56.930999994277954,learn,3069.000005722046,Fri May 29 2026 15:02:53 GMT-0500 (Central Daylight Time),208529.10000002384,A,enter,O,enter,611,1,632.7000000476837,207896.39999997616,7810,WL,A,8.0
1,57.53099989891052,learn,2469.0001010894775,Fri May 29 2026 15:02:53 GMT-0500 (Central Daylight Time),209129.10000002384,A,enter,O,enter,595,1,599.6000000238419,208529.5,7810,WL,A,9.0
1,58.09699988365173,learn,1903.0001163482666,Fri May 29 2026 15:02:53 GMT-0500 (Central Daylight Time),209695.5,A,enter,O,enter,546,1,566.1000000238419,209129.39999997616,7810,WL,A,10.0
1,58.97999978065491,learn,1020.0002193450928,Fri May 29 2026 15:02:53 GMT-0500 (Central Daylight Time),210578.60000002384,A,enter,O,enter,867,1,882.7000000476837,209695.89999997616,7810,WL,A,11.0
1,59.62999987602234,learn,370.00012397766113,Fri May 29 2026 15:02:53 GMT-0500 (Central Daylight Time),211228.30000001192,A,enter,O,enter,633,1,649.3000000119209,210579.0,7810,WL,A,12.0
1,60.01300001144409,learn,-13.000011444091797,Fri May 29 2026 15:02:53 GMT-0500 (Central Daylight Time),211611.60000002384,A,None,O,None,378,1,382.80000001192093,211228.80000001192,7810,WL,A,13.0
2,1.5829999446868896,learn,58417.00005531311,Fri May 29 2026 15:02:53 GMT-0500 (Central Daylight Time),290670.1999999881,A,a,O,a,1573,1,1582.699999988079,289087.5,7810,WL,A,1.0
2,2.4159998893737793,learn,57584.00011062622,Fri May 29 2026 15:02:53 GMT-0500 (Central Daylight Time),291503.1999999881,A,ap,O,p,810,1,2415.699999988079,289087.5,7810,WL,A,1.0
2,2.615999937057495,learn,57384.000062942505,Fri May 29 2026 15:02:53 GMT-0500 (Central Daylight Time),291703.10000002384,A,app,O,p,188,1,2615.600000023842,289087.5,7810,WL,A,1.0
2,2.9159998893737793,learn,57084.00011062622,Fri May 29 2026 15:02:53 GMT-0500 (Central Daylight Time),292003.0,A,appl,O,l,292,1,2915.5,289087.5,7810,WL,A,1.0
2,3.5320000648498535,learn,56467.99993515015,Fri May 29 2026 15:02:53 GMT-0500 (Central Daylight Time),292619.5,A,apple,O,e,599,1,3532.0,289087.5,7810,WL,A,1.0
2,4.348999977111816,learn,55651.00002288818,Fri May 29 2026 15:02:53 GMT-0500 (Central Daylight Time),293435.89999997616,A,appleenter,O,enter,808,1,4348.399999976158,289087.5,7810,WL,A,1.0
2,5.332000017166138,learn,54667.99998283386,Fri May 29 2026 15:02:53 GMT-0500 (Central Daylight Time),294419.10000002384,A,b,O,b,967,1,982.8000000119209,293436.3000000119,7810,WL,A,2.0
2,5.914000034332275,learn,54085.999965667725,Fri May 29 2026 15:02:53 GMT-0500 (Central Daylight Time),295001.89999997616,A,bo,O,o,569,1,1565.5999999642372,293436.3000000119,7810,WL,A,2.0
2,6.13100004196167,learn,53868.99995803833,Fri May 29 2026 15:02:53 GMT-0500 (Central Daylight Time),295218.6999999881,A,boo,O,o,202,1,1782.3999999761581,293436.3000000119,7810,WL,A,2.0
2,6.664000034332275,learn,53335.999965667725,Fri May 29 2026 15:02:53 GMT-0500 (Central Daylight Time),295751.89999997616,A,book,O,k,512,1,2315.599999964237,293436.3000000119,7810,WL,A,2.0
2,7.0309998989105225,learn,52969.00010108948,Fri May 29 2026 15:02:53 GMT-0500 (Central Daylight Time),296118.5,A,booke,O,e,347,1,2682.199999988079,293436.3000000119,7810,WL,A,2.0
2,8.081000089645386,learn,51918.999910354614,Fri May 29 2026 15:02:53 GMT-0500 (Central Daylight Time),297168.1999999881,A,book,O,backspace,1029,1,3731.899999976158,293436.3000000119,7810,WL,A,2.0
2,9.496999979019165,learn,50503.000020980835,Fri May 29 2026 15:02:53 GMT-0500 (Central Daylight Time),298584.39999997616,A,bookenter,O,enter,1395,1,5148.099999964237,293436.3000000119,7810,WL,A,2.0
2,12.395999908447266,learn,47604.000091552734,Fri May 29 2026 15:02:53 GMT-0500 (Central Daylight Time),301483.3000000119,A,f,O,f,2883,1,2898.699999988079,298584.60000002384,7810,WL,A,3.0
2,12.61299991607666,learn,47387.00008392334,Fri May 29 2026 15:02:53 GMT-0500 (Central Daylight Time),301700.0,A,fl,O,l,200,1,3115.399999976158,298584.60000002384,7810,WL,A,3.0
2,12.845999956130981,learn,47154.00004386902,Fri May 29 2026 15:02:53 GMT-0500 (Central Daylight Time),301933.10000002384,A,flo,O,o,224,1,3348.5,298584.60000002384,7810,WL,A,3.0
2,13.111999988555908,learn,46888.00001144409,Fri May 29 2026 15:02:53 GMT-0500 (Central Daylight Time),302199.8000000119,A,flow,O,w,247,1,3615.199999988079,298584.60000002384,7810,WL,A,3.0
2,13.44599986076355,learn,46554.00013923645,Fri May 29 2026 15:02:53 GMT-0500 (Central Daylight Time),302533.10000002384,A,flowe,O,e,324,1,3948.5,298584.60000002384,7810,WL,A,3.0
2,13.729000091552734,learn,46270.999908447266,Fri May 29 2026 15:02:53 GMT-0500 (Central Daylight Time),302816.39999997616,A,flower,O,r,262,1,4231.799999952316,298584.60000002384,7810,WL,A,3.0
2,14.328999996185303,learn,45671.0000038147,Fri May 29 2026 15:02:53 GMT-0500 (Central Daylight Time),303416.10000002384,A,flowerenter,O,enter,579,1,4831.5,298584.60000002384,7810,WL,A,3.0
2,17.09500002861023,learn,42904.99997138977,Fri May 29 2026 15:02:53 GMT-0500 (Central Daylight Time),306181.89999997616,A,n,O,n,2755,1,2765.5,303416.39999997616,7810,WL,A,4.0
2,18.960999965667725,learn,41039.000034332275,Fri May 29 2026 15:02:53 GMT-0500 (Central Daylight Time),308048.10000002384,A,,O,backspace,1854,1,4631.700000047684,303416.39999997616,7810,WL,A,4.0
2,19.99399995803833,learn,40006.00004196167,Fri May 29 2026 15:02:53 GMT-0500 (Central Daylight Time),309080.89999997616,A,m,O,m,1020,1,5664.5,303416.39999997616,7810,WL,A,4.0
2,20.194000005722046,learn,39805.999994277954,Fri May 29 2026 15:02:53 GMT-0500 (Central Daylight Time),309281.1999999881,A,me,O,e,195,1,5864.800000011921,303416.39999997616,7810,WL,A,4.0
2,20.509999990463257,learn,39490.00000953674,Fri May 29 2026 15:02:53 GMT-0500 (Central Daylight Time),309597.60000002384,A,mea,O,a,299,1,6181.200000047684,303416.39999997616,7810,WL,A,4.0
2,20.91000008583069,learn,39089.99991416931,Fri May 29 2026 15:02:53 GMT-0500 (Central Daylight Time),309997.39999997616,A,mead,O,d,389,1,6581.0,303416.39999997616,7810,WL,A,4.0
2,21.41000008583069,learn,38589.99991416931,Fri May 29 2026 15:02:53 GMT-0500 (Central Daylight Time),310497.1999999881,A,meado,O,o,479,1,7080.800000011921,303416.39999997616,7810,WL,A,4.0
2,21.859999895095825,learn,38140.000104904175,Fri May 29 2026 15:02:53 GMT-0500 (Central Daylight Time),310947.0,A,meadow,O,w,443,1,7530.600000023842,303416.39999997616,7810,WL,A,4.0
2,23.108999967575073,learn,36891.00003242493,Fri May 29 2026 15:02:53 GMT-0500 (Central Daylight Time),312196.6999999881,A,meadowenter,O,enter,1233,1,8780.300000011921,303416.39999997616,7810,WL,A,4.0
2,32.83999991416931,learn,27160.00008583069,Fri May 29 2026 15:02:53 GMT-0500 (Central Daylight Time),321927.0,A,l,O,l,9711,1,9730.0,312197.0,7810,WL,A,5.0
2,33.07299995422363,learn,26927.000045776367,Fri May 29 2026 15:02:53 GMT-0500 (Central Daylight Time),322160.1999999881,A,lo,O,o,213,1,9963.199999988079,312197.0,7810,WL,A,5.0
2,33.50600004196167,learn,26493.99995803833,Fri May 29 2026 15:02:53 GMT-0500 (Central Daylight Time),322593.39999997616,A,log,O,g,428,1,10396.399999976158,312197.0,7810,WL,A,5.0
2,34.23900008201599,learn,25760.99991798401,Fri May 29 2026 15:02:53 GMT-0500 (Central Daylight Time),323326.5,A,logenter,O,enter,714,1,11129.5,312197.0,7810,WL,A,5.0
2,38.15499997138977,learn,21845.00002861023,Fri May 29 2026 15:02:53 GMT-0500 (Central Daylight Time),327242.0,A,h,O,h,3902,1,3915.199999988079,323326.8000000119,7810,WL,A,6.0
2,38.37100005149841,learn,21628.999948501587,Fri May 29 2026 15:02:53 GMT-0500 (Central Daylight Time),327458.6999999881,A,ha,O,a,201,1,4131.899999976158,323326.8000000119,7810,WL,A,6.0
2,38.63800001144409,learn,21361.99998855591,Fri May 29 2026 15:02:53 GMT-0500 (Central Daylight Time),327725.1999999881,A,hal,O,l,257,1,4398.399999976158,323326.8000000119,7810,WL,A,6.0
2,39.33800005912781,learn,20661.999940872192,Fri May 29 2026 15:02:53 GMT-0500 (Central Daylight Time),328425.0,A,ha,O,backspace,687,1,5098.199999988079,323326.8000000119,7810,WL,A,6.0
2,39.63700008392334,learn,20362.99991607666,Fri May 29 2026 15:02:53 GMT-0500 (Central Daylight Time),328724.8000000119,A,har,O,r,283,1,5398.0,323326.8000000119,7810,WL,A,6.0
2,39.9210000038147,learn,20078.999996185303,Fri May 29 2026 15:02:53 GMT-0500 (Central Daylight Time),329008.1999999881,A,harp,O,p,263,1,5681.399999976158,323326.8000000119,7810,WL,A,6.0
2,40.7039999961853,learn,19296.000003814697,Fri May 29 2026 15:02:53 GMT-0500 (Central Daylight Time),329791.10000002384,A,harpenter,O,enter,772,1,6464.300000011921,323326.8000000119,7810,WL,A,6.0
2,43.72000002861023,learn,16279.99997138977,Fri May 29 2026 15:02:53 GMT-0500 (Central Daylight Time),332806.89999997616,A,t,O,t,3005,1,3015.599999964237,329791.3000000119,7810,WL,A,7.0
2,44.569000005722046,learn,15430.999994277954,Fri May 29 2026 15:02:53 GMT-0500 (Central Daylight Time),333656.60000002384,A,tr,O,r,836,1,3865.300000011921,329791.3000000119,7810,WL,A,7.0
2,45.13599991798401,learn,14864.000082015991,Fri May 29 2026 15:02:53 GMT-0500 (Central Daylight Time),334223.10000002384,A,tra,O,a,547,1,4431.800000011921,329791.3000000119,7810,WL,A,7.0
2,45.319000005722046,learn,14680.999994277954,Fri May 29 2026 15:02:53 GMT-0500 (Central Daylight Time),334406.39999997616,A,trai,O,i,173,1,4615.099999964237,329791.3000000119,7810,WL,A,7.0
2,45.55299997329712,learn,14447.00002670288,Fri May 29 2026 15:02:53 GMT-0500 (Central Daylight Time),334640.6999999881,A,train,O,n,222,1,4849.399999976158,329791.3000000119,7810,WL,A,7.0
2,45.9689998626709,learn,14031.000137329102,Fri May 29 2026 15:02:53 GMT-0500 (Central Daylight Time),335056.3000000119,A,trainenter,O,enter,395,1,5265.0,329791.3000000119,7810,WL,A,7.0
2,60.013999938964844,learn,-13.99993896484375,Fri May 29 2026 15:02:53 GMT-0500 (Central Daylight Time),349101.8000000119,A,None,O,None,14040,1,14045.300000011921,335056.5,7810,WL,A,8.0
3,1.7829999923706055,learn,58217.000007629395,Fri May 29 2026 15:02:53 GMT-0500 (Central Daylight Time),425411.1999999881,A,a,O,a,1768,1,1782.5999999642372,423628.60000002384,7810,WL,A,1.0
3,2.2990000247955322,learn,57700.99997520447,Fri May 29 2026 15:02:53 GMT-0500 (Central Daylight Time),425927.6999999881,A,ap,O,p,504,1,2299.099999964237,423628.60000002384,7810,WL,A,1.0
3,2.499000072479248,learn,57500.99992752075,Fri May 29 2026 15:02:53 GMT-0500 (Central Daylight Time),426127.60000002384,A,app,O,p,189,1,2499.0,423628.60000002384,7810,WL,A,1.0
3,2.933000087738037,learn,57066.99991226196,Fri May 29 2026 15:02:53 GMT-0500 (Central Daylight Time),426561.0,A,appl,O,l,412,1,2932.399999976158,423628.60000002384,7810,WL,A,1.0
3,3.2820000648498535,learn,56717.99993515015,Fri May 29 2026 15:02:53 GMT-0500 (Central Daylight Time),426910.6999999881,A,apple,O,e,331,1,3282.099999964237,423628.60000002384,7810,WL,A,1.0
3,3.9820001125335693,learn,56017.99988746643,Fri May 29 2026 15:02:53 GMT-0500 (Central Daylight Time),427610.5,A,appleenter,O,enter,692,1,3981.899999976158,423628.60000002384,7810,WL,A,1.0
3,5.181999921798706,learn,54818.000078201294,Fri May 29 2026 15:02:53 GMT-0500 (Central Daylight Time),428810.0,A,b,O,b,1193,1,1199.199999988079,427610.8000000119,7810,WL,A,2.0
3,6.148000001907349,learn,53851.99999809265,Fri May 29 2026 15:02:53 GMT-0500 (Central Daylight Time),429776.5,A,bo,O,o,946,1,2165.699999988079,427610.8000000119,7810,WL,A,2.0
3,6.331000089645386,learn,53668.999910354614,Fri May 29 2026 15:02:53 GMT-0500 (Central Daylight Time),429959.89999997616,A,boo,O,o,171,1,2349.099999964237,427610.8000000119,7810,WL,A,2.0
3,6.747999906539917,learn,53252.00009346008,Fri May 29 2026 15:02:53 GMT-0500 (Central Daylight Time),430376.3000000119,A,book,O,k,404,1,2765.5,427610.8000000119,7810,WL,A,2.0
3,7.8470001220703125,learn,52152.99987792969,Fri May 29 2026 15:02:53 GMT-0500 (Central Daylight Time),431475.89999997616,A,bookenter,O,enter,1083,1,3865.099999964237,427610.8000000119,7810,WL,A,2.0
3,8.730999946594238,learn,51269.00005340576,Fri May 29 2026 15:02:53 GMT-0500 (Central Daylight Time),432359.10000002384,A,f,O,f,864,1,882.9000000357628,431476.1999999881,7810,WL,A,3.0
3,8.996999979019165,learn,51003.000020980835,Fri May 29 2026 15:02:53 GMT-0500 (Central Daylight Time),432625.5,A,fl,O,l,253,1,1149.300000011921,431476.1999999881,7810,WL,A,3.0
3,9.27999997138977,learn,50720.00002861023,Fri May 29 2026 15:02:53 GMT-0500 (Central Daylight Time),432908.8000000119,A,flo,O,o,274,1,1432.6000000238419,431476.1999999881,7810,WL,A,3.0
3,9.630000114440918,learn,50369.99988555908,Fri May 29 2026 15:02:53 GMT-0500 (Central Daylight Time),433258.6999999881,A,flow,O,w,343,1,1782.5,431476.1999999881,7810,WL,A,3.0
3,9.897000074386597,learn,50102.9999256134,Fri May 29 2026 15:02:53 GMT-0500 (Central Daylight Time),433525.1999999881,A,flowe,O,e,257,1,2049.0,431476.1999999881,7810,WL,A,3.0
3,10.180000066757202,learn,49819.9999332428,Fri May 29 2026 15:02:53 GMT-0500 (Central Daylight Time),433808.3000000119,A,flower,O,r,271,1,2332.100000023842,431476.1999999881,7810,WL,A,3.0
3,10.980000019073486,learn,49019.999980926514,Fri May 29 2026 15:02:53 GMT-0500 (Central Daylight Time),434608.3000000119,A,flowerenter,O,enter,788,1,3132.100000023842,431476.1999999881,7810,WL,A,3.0
3,11.980000019073486,learn,48019.999980926514,Fri May 29 2026 15:02:53 GMT-0500 (Central Daylight Time),435608.0,A,b,O,b,980,1,999.3999999761581,434608.60000002384,7810,WL,A,4.0
3,12.496000051498413,learn,47503.99994850159,Fri May 29 2026 15:02:53 GMT-0500 (Central Daylight Time),436124.39999997616,A,bu,O,u,507,1,1515.7999999523163,434608.60000002384,7810,WL,A,4.0
3,12.979000091552734,learn,47020.999908447266,Fri May 29 2026 15:02:53 GMT-0500 (Central Daylight Time),436607.60000002384,A,but,O,t,472,1,1999.0,434608.60000002384,7810,WL,A,4.0
3,13.163000106811523,learn,46836.99989318848,Fri May 29 2026 15:02:53 GMT-0500 (Central Daylight Time),436791.0,A,butt,O,t,164,1,2182.399999976158,434608.60000002384,7810,WL,A,4.0
3,13.479000091552734,learn,46520.999908447266,Fri May 29 2026 15:02:53 GMT-0500 (Central Daylight Time),437107.5,A,butto,O,o,309,1,2498.899999976158,434608.60000002384,7810,WL,A,4.0
3,13.845999956130981,learn,46154.00004386902,Fri May 29 2026 15:02:53 GMT-0500 (Central Daylight Time),437474.10000002384,A,button,O,n,352,1,2865.5,434608.60000002384,7810,WL,A,4.0
3,14.76200008392334,learn,45237.99991607666,Fri May 29 2026 15:02:53 GMT-0500 (Central Daylight Time),438390.39999997616,A,buttonenter,O,enter,898,1,3781.7999999523163,434608.60000002384,7810,WL,A,4.0
3,16.67799997329712,learn,43322.00002670288,Fri May 29 2026 15:02:53 GMT-0500 (Central Daylight Time),440306.6999999881,A,r,O,r,1902,1,1916.0999999642372,438390.60000002384,7810,WL,A,5.0
3,16.99500012397766,learn,43004.99987602234,Fri May 29 2026 15:02:53 GMT-0500 (Central Daylight Time),440623.3000000119,A,ra,O,a,297,1,2232.699999988079,438390.60000002384,7810,WL,A,5.0
3,17.67799997329712,learn,42322.00002670288,Fri May 29 2026 15:02:53 GMT-0500 (Central Daylight Time),441306.1999999881,A,rat,O,t,668,1,2915.599999964237,438390.60000002384,7810,WL,A,5.0
3,17.844000101089478,learn,42155.99989891052,Fri May 29 2026 15:02:53 GMT-0500 (Central Daylight Time),441472.8000000119,A,ratt,O,t,154,1,3082.199999988079,438390.60000002384,7810,WL,A,5.0
3,18.66100001335144,learn,41338.99998664856,Fri May 29 2026 15:02:53 GMT-0500 (Central Daylight Time),442289.1999999881,A,rattl,O,l,803,1,3898.599999964237,438390.60000002384,7810,WL,A,5.0
3,18.793999910354614,learn,41206.000089645386,Fri May 29 2026 15:02:53 GMT-0500 (Central Daylight Time),442422.60000002384,A,rattle,O,e,123,1,4032.0,438390.60000002384,7810,WL,A,5.0
3,19.177000045776367,learn,40822.99995422363,Fri May 29 2026 15:02:53 GMT-0500 (Central Daylight Time),442805.89999997616,A,rattleenter,O,enter,365,1,4415.299999952316,438390.60000002384,7810,WL,A,5.0
3,20.293999910354614,learn,39706.000089645386,Fri May 29 2026 15:02:53 GMT-0500 (Central Daylight Time),443922.10000002384,A,g,O,g,1110,1,1115.9000000357628,442806.1999999881,7810,WL,A,6.0
3,22.14300012588501,learn,37856.99987411499,Fri May 29 2026 15:02:53 GMT-0500 (Central Daylight Time),445771.5,A,go,O,o,1834,1,2965.300000011921,442806.1999999881,7810,WL,A,6.0
3,22.575999975204468,learn,37424.00002479553,Fri May 29 2026 15:02:53 GMT-0500 (Central Daylight Time),446204.60000002384,A,gol,O,l,416,1,3398.400000035763,442806.1999999881,7810,WL,A,6.0
3,23.693000078201294,learn,36306.999921798706,Fri May 29 2026 15:02:53 GMT-0500 (Central Daylight Time),447321.0,A,gold,O,d,1111,1,4514.800000011921,442806.1999999881,7810,WL,A,6.0
3,23.9760000705719,learn,36023.9999294281,Fri May 29 2026 15:02:53 GMT-0500 (Central Daylight Time),447604.3000000119,A,goldenter,O,enter,267,1,4798.100000023842,442806.1999999881,7810,WL,A,6.0
3,25.242000102996826,learn,34757.999897003174,Fri May 29 2026 15:02:53 GMT-0500 (Central Daylight Time),448870.5,A,l,O,l,1248,1,1266.0,447604.5,7810,WL,A,7.0
3,25.47499990463257,learn,34525.00009536743,Fri May 29 2026 15:02:53 GMT-0500 (Central Daylight Time),449103.89999997616,A,lo,O,o,221,1,1499.3999999761581,447604.5,7810,WL,A,7.0
3,26.674999952316284,learn,33325.000047683716,Fri May 29 2026 15:02:53 GMT-0500 (Central Daylight Time),450303.3000000119,A,log,O,g,1180,1,2698.800000011921,447604.5,7810,WL,A,7.0
3,27.808000087738037,learn,32191.999912261963,Fri May 29 2026 15:02:53 GMT-0500 (Central Daylight Time),451436.3000000119,A,logenter,O,enter,1125,1,3831.800000011921,447604.5,7810,WL,A,7.0
3,30.83999991416931,learn,29160.00008583069,Fri May 29 2026 15:02:53 GMT-0500 (Central Daylight Time),454468.5,A,f,O,f,3023,1,3032.0,451436.5,7810,WL,A,8.0
3,31.216000080108643,learn,28783.999919891357,Fri May 29 2026 15:02:53 GMT-0500 (Central Daylight Time),454844.39999997616,A,fi,O,i,370,1,3407.899999976158,451436.5,7810,WL,A,8.0
3,31.457000017166138,learn,28542.999982833862,Fri May 29 2026 15:02:53 GMT-0500 (Central Daylight Time),455085.1999999881,A,fin,O,n,230,1,3648.699999988079,451436.5,7810,WL,A,8.0
3,32.03999996185303,learn,27960.000038146973,Fri May 29 2026 15:02:53 GMT-0500 (Central Daylight Time),455668.3000000119,A,fing,O,g,566,1,4231.800000011921,451436.5,7810,WL,A,8.0
3,33.140000104904175,learn,26859.999895095825,Fri May 29 2026 15:02:53 GMT-0500 (Central Daylight Time),456768.10000002384,A,finge,O,e,1088,1,5331.600000023842,451436.5,7810,WL,A,8.0
3,33.43900012969971,learn,26560.999870300293,Fri May 29 2026 15:02:53 GMT-0500 (Central Daylight Time),457067.89999997616,A,finger,O,r,292,1,5631.399999976158,451436.5,7810,WL,A,8.0
3,35.937999963760376,learn,24062.000036239624,Fri May 29 2026 15:02:53 GMT-0500 (Central Daylight Time),459567.10000002384,A,fingerenter,O,enter,2488,1,8130.600000023842,451436.5,7810,WL,A,8.0
3,38.07100009918213,learn,21928.99990081787,Fri May 29 2026 15:02:53 GMT-0500 (Central Daylight Time),461700.0,A,b,O,b,2117,1,2132.699999988079,459567.3000000119,7810,WL,A,9.0
3,38.80399990081787,learn,21196.00009918213,Fri May 29 2026 15:02:53 GMT-0500 (Central Daylight Time),462432.8000000119,A,bo,O,o,719,1,2865.5,459567.3000000119,7810,WL,A,9.0
3,38.98699998855591,learn,21013.00001144409,Fri May 29 2026 15:02:53 GMT-0500 (Central Daylight Time),462616.10000002384,A,boo,O,o,163,1,3048.800000011921,459567.3000000119,7810,WL,A,9.0
3,39.23699998855591,learn,20763.00001144409,Fri May 29 2026 15:02:53 GMT-0500 (Central Daylight Time),462866.1999999881,A,book,O,k,244,1,3298.899999976158,459567.3000000119,7810,WL,A,9.0
3,40.019999980926514,learn,19980.000019073486,Fri May 29 2026 15:02:53 GMT-0500 (Central Daylight Time),463649.10000002384,A,bookenter,O,enter,769,1,4081.800000011921,459567.3000000119,7810,WL,A,9.0
3,45.30200004577637,learn,14697.999954223633,Fri May 29 2026 15:02:53 GMT-0500 (Central Daylight Time),468930.6999999881,A,t,O,t,5275,1,5281.399999976158,463649.3000000119,7810,WL,A,10.0
3,45.51900005340576,learn,14480.999946594238,Fri May 29 2026 15:02:53 GMT-0500 (Central Daylight Time),469147.5,A,tr,O,r,209,1,5498.199999988079,463649.3000000119,7810,WL,A,10.0
3,45.93499994277954,learn,14065.000057220459,Fri May 29 2026 15:02:53 GMT-0500 (Central Daylight Time),469564.0,A,tra,O,a,408,1,5914.699999988079,463649.3000000119,7810,WL,A,10.0
3,46.26800012588501,learn,13731.99987411499,Fri May 29 2026 15:02:53 GMT-0500 (Central Daylight Time),469897.1999999881,A,trai,O,i,312,1,6247.899999976158,463649.3000000119,7810,WL,A,10.0
3,46.50200009346008,learn,13497.999906539917,Fri May 29 2026 15:02:53 GMT-0500 (Central Daylight Time),470130.60000002384,A,train,O,n,219,1,6481.300000011921,463649.3000000119,7810,WL,A,10.0
3,47.28500008583069,learn,12714.999914169312,Fri May 29 2026 15:02:53 GMT-0500 (Central Daylight Time),470913.60000002384,A,trainenter,O,enter,769,1,7264.300000011921,463649.3000000119,7810,WL,A,10.0
3,51.450000047683716,learn,8549.999952316284,Fri May 29 2026 15:02:53 GMT-0500 (Central Daylight Time),475079.0,A,r,O,r,4155,1,4165.199999988079,470913.8000000119,7810,WL,A,11.0
3,51.717000007629395,learn,8282.999992370605,Fri May 29 2026 15:02:53 GMT-0500 (Central Daylight Time),475345.39999997616,A,ru,O,u,261,1,4431.599999964237,470913.8000000119,7810,WL,A,11.0
3,52.90000009536743,learn,7099.999904632568,Fri May 29 2026 15:02:53 GMT-0500 (Central Daylight Time),476528.39999997616,A,rug,O,g,1171,1,5614.599999964237,470913.8000000119,7810,WL,A,11.0
3,53.115999937057495,learn,6884.000062942505,Fri May 29 2026 15:02:53 GMT-0500 (Central Daylight Time),476745.0,A,rugenter,O,enter,212,1,5831.199999988079,470913.8000000119,7810,WL,A,11.0
3,60.013999938964844,learn,-13.99993896484375,Fri May 29 2026 15:02:53 GMT-0500 (Central Daylight Time),483643.10000002384,A,None,O,None,6893,1,6897.800000011921,476745.3000000119,7810,WL,A,12.0
4,1.5160000324249268,learn,58483.99996757507,Fri May 29 2026 15:02:53 GMT-0500 (Central Daylight Time),558002.8999999762,A,b,O,b,1510,1,1515.7999999523163,556487.1000000238,7810,WL,A,1.0
4,2.0989999771118164,learn,57901.00002288818,Fri May 29 2026 15:02:53 GMT-0500 (Central Daylight Time),558586.0,A,bo,O,o,568,1,2098.899999976158,556487.1000000238,7810,WL,A,1.0
4,2.2820000648498535,learn,57717.99993515015,Fri May 29 2026 15:02:53 GMT-0500 (Central Daylight Time),558769.3000000119,A,boo,O,o,178,1,2282.199999988079,556487.1000000238,7810,WL,A,1.0
4,3.4149999618530273,learn,56585.00003814697,Fri May 29 2026 15:02:53 GMT-0500 (Central Daylight Time),559902.3000000119,A,book,O,k,1115,1,3415.199999988079,556487.1000000238,7810,WL,A,1.0
4,4.398000001907349,learn,55601.99999809265,Fri May 29 2026 15:02:53 GMT-0500 (Central Daylight Time),560885.3000000119,A,bookenter,O,enter,974,1,4398.199999988079,556487.1000000238,7810,WL,A,1.0
4,5.497999906539917,learn,54502.00009346008,Fri May 29 2026 15:02:53 GMT-0500 (Central Daylight Time),561985.0,A,a,O,a,1079,1,1099.5,560885.5,7810,WL,A,2.0
4,6.063999891281128,learn,53936.00010871887,Fri May 29 2026 15:02:53 GMT-0500 (Central Daylight Time),562551.3999999762,A,ap,O,p,555,1,1665.8999999761581,560885.5,7810,WL,A,2.0
4,6.2809998989105225,learn,53719.00010108948,Fri May 29 2026 15:02:53 GMT-0500 (Central Daylight Time),562768.1000000238,A,app,O,p,197,1,1882.6000000238419,560885.5,7810,WL,A,2.0
4,6.730999946594238,learn,53269.00005340576,Fri May 29 2026 15:02:53 GMT-0500 (Central Daylight Time),563217.8999999762,A,appl,O,l,436,1,2332.399999976158,560885.5,7810,WL,A,2.0
4,7.246999979019165,learn,52753.000020980835,Fri May 29 2026 15:02:53 GMT-0500 (Central Daylight Time),563734.5,A,apple,O,e,506,1,2849.0,560885.5,7810,WL,A,2.0
4,8.246999979019165,learn,51753.000020980835,Fri May 29 2026 15:02:53 GMT-0500 (Central Daylight Time),564734.1000000238,A,appleenter,O,enter,990,1,3848.600000023842,560885.5,7810,WL,A,2.0
4,8.846999883651733,learn,51153.00011634827,Fri May 29 2026 15:02:53 GMT-0500 (Central Daylight Time),565334.0,A,r,O,r,582,1,599.6999999880791,564734.3000000119,7810,WL,A,3.0
4,9.180000066757202,learn,50819.9999332428,Fri May 29 2026 15:02:53 GMT-0500 (Central Daylight Time),565667.1000000238,A,ra,O,a,318,1,932.8000000119209,564734.3000000119,7810,WL,A,3.0
4,9.629999876022339,learn,50370.00012397766,Fri May 29 2026 15:02:53 GMT-0500 (Central Daylight Time),566117.1000000238,A,rat,O,t,433,1,1382.800000011921,564734.3000000119,7810,WL,A,3.0
4,9.812999963760376,learn,50187.000036239624,Fri May 29 2026 15:02:53 GMT-0500 (Central Daylight Time),566300.3000000119,A,ratt,O,t,175,1,1566.0,564734.3000000119,7810,WL,A,3.0
4,10.345999956130981,learn,49654.00004386902,Fri May 29 2026 15:02:53 GMT-0500 (Central Daylight Time),566833.6000000238,A,rattl,O,l,511,1,2099.300000011921,564734.3000000119,7810,WL,A,3.0
4,10.562999963760376,learn,49437.000036239624,Fri May 29 2026 15:02:53 GMT-0500 (Central Daylight Time),567050.0,A,rattle,O,e,201,1,2315.699999988079,564734.3000000119,7810,WL,A,3.0
4,11.312999963760376,learn,48687.000036239624,Fri May 29 2026 15:02:53 GMT-0500 (Central Daylight Time),567799.8000000119,A,rattleenter,O,enter,730,1,3065.5,564734.3000000119,7810,WL,A,3.0
4,12.479000091552734,learn,47520.999908447266,Fri May 29 2026 15:02:53 GMT-0500 (Central Daylight Time),568966.0,A,l,O,l,1148,1,1165.8999999761581,567800.1000000238,7810,WL,A,4.0
4,12.69599986076355,learn,47304.00013923645,Fri May 29 2026 15:02:53 GMT-0500 (Central Daylight Time),569182.8999999762,A,lo,O,o,198,1,1382.7999999523163,567800.1000000238,7810,WL,A,4.0
4,13.029000043869019,learn,46970.99995613098,Fri May 29 2026 15:02:53 GMT-0500 (Central Daylight Time),569516.1000000238,A,log,O,g,324,1,1716.0,567800.1000000238,7810,WL,A,4.0
4,13.328999996185303,learn,46671.0000038147,Fri May 29 2026 15:02:53 GMT-0500 (Central Daylight Time),569815.8999999762,A,logenter,O,enter,280,1,2015.7999999523163,567800.1000000238,7810,WL,A,4.0
4,14.911999940872192,learn,45088.00005912781,Fri May 29 2026 15:02:53 GMT-0500 (Central Daylight Time),571398.8000000119,A,m,O,m,1572,1,1582.6000000238419,569816.1999999881,7810,WL,A,5.0
4,15.394999980926514,learn,44605.000019073486,Fri May 29 2026 15:02:53 GMT-0500 (Central Daylight Time),571881.8999999762,A,me,O,e,469,1,2065.699999988079,569816.1999999881,7810,WL,A,5.0
4,15.777999877929688,learn,44222.00012207031,Fri May 29 2026 15:02:53 GMT-0500 (Central Daylight Time),572265.3000000119,A,mea,O,a,378,1,2449.100000023842,569816.1999999881,7810,WL,A,5.0
4,16.22099995613098,learn,43779.00004386902,Fri May 29 2026 15:02:53 GMT-0500 (Central Daylight Time),572708.1999999881,A,mead,O,d,438,1,2892.0,569816.1999999881,7810,WL,A,5.0
4,16.49399995803833,learn,43506.00004196167,Fri May 29 2026 15:02:53 GMT-0500 (Central Daylight Time),572981.5,A,meado,O,o,255,1,3165.300000011921,569816.1999999881,7810,WL,A,5.0
4,17.3439998626709,learn,42656.0001373291,Fri May 29 2026 15:02:53 GMT-0500 (Central Daylight Time),573831.3000000119,A,meadow,O,w,839,1,4015.100000023842,569816.1999999881,7810,WL,A,5.0
4,18.66100001335144,learn,41338.99998664856,Fri May 29 2026 15:02:53 GMT-0500 (Central Daylight Time),575147.8999999762,A,meadowenter,O,enter,1308,1,5331.699999988079,569816.1999999881,7810,WL,A,5.0
4,24.69099998474121,learn,35309.00001525879,Fri May 29 2026 15:02:53 GMT-0500 (Central Daylight Time),581179.0,A,f,O,f,6016,1,6030.899999976158,575148.1000000238,7810,WL,A,6.0
4,25.009000062942505,learn,34990.999937057495,Fri May 29 2026 15:02:53 GMT-0500 (Central Daylight Time),581496.6000000238,A,fi,O,i,305,1,6348.5,575148.1000000238,7810,WL,A,6.0
4,25.257999897003174,learn,34742.000102996826,Fri May 29 2026 15:02:53 GMT-0500 (Central Daylight Time),581745.3999999762,A,fin,O,n,227,1,6597.299999952316,575148.1000000238,7810,WL,A,6.0
4,26.141000032424927,learn,33858.99996757507,Fri May 29 2026 15:02:53 GMT-0500 (Central Daylight Time),582628.6000000238,A,fing,O,g,865,1,7480.5,575148.1000000238,7810,WL,A,6.0
4,26.54099988937378,learn,33459.00011062622,Fri May 29 2026 15:02:53 GMT-0500 (Central Daylight Time),583028.3000000119,A,finge,O,e,383,1,7880.199999988079,575148.1000000238,7810,WL,A,6.0
4,26.874000072479248,learn,33125.99992752075,Fri May 29 2026 15:02:53 GMT-0500 (Central Daylight Time),583361.6999999881,A,finger,O,r,328,1,8213.599999964237,575148.1000000238,7810,WL,A,6.0
4,29.10699987411499,learn,30893.00012588501,Fri May 29 2026 15:02:53 GMT-0500 (Central Daylight Time),585594.3999999762,A,fingerenter,O,enter,2226,1,10446.299999952316,575148.1000000238,7810,WL,A,6.0
4,30.25600004196167,learn,29743.99995803833,Fri May 29 2026 15:02:53 GMT-0500 (Central Daylight Time),586743.8000000119,A,c,O,c,1138,1,1149.199999988079,585594.6000000238,7810,WL,A,7.0
4,30.555999994277954,learn,29444.000005722046,Fri May 29 2026 15:02:53 GMT-0500 (Central Daylight Time),587043.8000000119,A,ch,O,h,292,1,1449.199999988079,585594.6000000238,7810,WL,A,7.0
4,30.956000089645386,learn,29043.999910354614,Fri May 29 2026 15:02:53 GMT-0500 (Central Daylight Time),587443.8000000119,A,chi,O,i,392,1,1849.199999988079,585594.6000000238,7810,WL,A,7.0
4,31.789000034332275,learn,28210.999965667725,Fri May 29 2026 15:02:53 GMT-0500 (Central Daylight Time),588276.6000000238,A,chim,O,m,816,1,2682.0,585594.6000000238,7810,WL,A,7.0
4,32.2720000743866,learn,27727.999925613403,Fri May 29 2026 15:02:53 GMT-0500 (Central Daylight Time),588759.8999999762,A,chimn,O,n,472,1,3165.2999999523163,585594.6000000238,7810,WL,A,7.0
4,32.47199988365173,learn,27528.000116348267,Fri May 29 2026 15:02:53 GMT-0500 (Central Daylight Time),588960.0,A,chimne,O,e,188,1,3365.399999976158,585594.6000000238,7810,WL,A,7.0
4,32.97199988365173,learn,27028.000116348267,Fri May 29 2026 15:02:53 GMT-0500 (Central Daylight Time),589459.8000000119,A,chimney,O,y,484,1,3865.199999988079,585594.6000000238,7810,WL,A,7.0
4,34.65499997138977,learn,25345.00002861023,Fri May 29 2026 15:02:53 GMT-0500 (Central Daylight Time),591142.3999999762,A,chimneyenter,O,enter,1664,1,5547.799999952316,585594.6000000238,7810,WL,A,7.0
4,38.687000036239624,learn,21312.999963760376,Fri May 29 2026 15:02:53 GMT-0500 (Central Daylight Time),595174.6000000238,A,t,O,t,4014,1,4031.900000035763,591142.6999999881,7810,WL,A,8.0
4,40.28699994087219,learn,19713.000059127808,Fri May 29 2026 15:02:53 GMT-0500 (Central Daylight Time),596774.1999999881,A,tr,O,r,1580,1,5631.5,591142.6999999881,7810,WL,A,8.0
4,41.03600001335144,learn,18963.99998664856,Fri May 29 2026 15:02:53 GMT-0500 (Central Daylight Time),597523.8000000119,A,tra,O,a,734,1,6381.100000023842,591142.6999999881,7810,WL,A,8.0
4,41.28600001335144,learn,18713.99998664856,Fri May 29 2026 15:02:53 GMT-0500 (Central Daylight Time),597773.6999999881,A,trai,O,i,240,1,6631.0,591142.6999999881,7810,WL,A,8.0
4,41.486000061035156,learn,18513.999938964844,Fri May 29 2026 15:02:53 GMT-0500 (Central Daylight Time),597973.8000000119,A,train,O,n,182,1,6831.100000023842,591142.6999999881,7810,WL,A,8.0
4,42.069000005722046,learn,17930.999994277954,Fri May 29 2026 15:02:53 GMT-0500 (Central Daylight Time),598556.8999999762,A,trainenter,O,enter,574,1,7414.199999988079,591142.6999999881,7810,WL,A,8.0
4,47.86699986457825,learn,12133.000135421753,Fri May 29 2026 15:02:53 GMT-0500 (Central Daylight Time),604355.0,A,a,O,a,5791,1,5797.800000011921,598557.1999999881,7810,WL,A,9.0
4,48.25099992752075,learn,11749.000072479248,Fri May 29 2026 15:02:53 GMT-0500 (Central Daylight Time),604738.1999999881,A,ap,O,p,377,1,6181.0,598557.1999999881,7810,WL,A,9.0
4,48.45099997520447,learn,11549.000024795532,Fri May 29 2026 15:02:53 GMT-0500 (Central Daylight Time),604938.1999999881,A,app,O,p,194,1,6381.0,598557.1999999881,7810,WL,A,9.0
4,48.70099997520447,learn,11299.000024795532,Fri May 29 2026 15:02:53 GMT-0500 (Central Daylight Time),605188.1000000238,A,appl,O,l,234,1,6630.900000035763,598557.1999999881,7810,WL,A,9.0
4,48.967000007629395,learn,11032.999992370605,Fri May 29 2026 15:02:53 GMT-0500 (Central Daylight Time),605454.6000000238,A,apple,O,e,256,1,6897.400000035763,598557.1999999881,7810,WL,A,9.0
4,50.01699995994568,learn,9983.000040054321,Fri May 29 2026 15:02:53 GMT-0500 (Central Daylight Time),606504.3000000119,A,appleenter,O,enter,1037,1,7947.100000023842,598557.1999999881,7810,WL,A,9.0
4,60.013999938964844,learn,-13.99993896484375,Fri May 29 2026 15:02:53 GMT-0500 (Central Daylight Time),616501.3000000119,A,None,O,None,9991,1,9996.600000023842,606504.6999999881,7810,WL,A,10.0
5,2.315999984741211,learn,60000.0,Fri May 29 2026 15:02:53 GMT-0500 (Central Daylight Time),684680.0,A,b,O,b,2305,1,2315.899999976158,682364.1000000238,7810,WL,A,1.0
5,3.2660000324249268,learn,60000.0,Fri May 29 2026 15:02:53 GMT-0500 (Central Daylight Time),685629.6000000238,A,bo,O,o,939,1,3265.5,682364.1000000238,7810,WL,A,1.0
5,3.4820001125335693,learn,60000.0,Fri May 29 2026 15:02:53 GMT-0500 (Central Daylight Time),685846.1000000238,A,boo,O,o,199,1,3482.0,682364.1000000238,7810,WL,A,1.0
5,4.799000024795532,learn,60000.0,Fri May 29 2026 15:02:53 GMT-0500 (Central Daylight Time),687162.3999999762,A,book,O,k,1302,1,4798.299999952316,682364.1000000238,7810,WL,A,1.0
5,6.230999946594238,learn,60000.0,Fri May 29 2026 15:02:53 GMT-0500 (Central Daylight Time),688595.3000000119,A,bookenter,O,enter,1418,1,6231.199999988079,682364.1000000238,7810,WL,A,1.0
5,10.847000122070312,learn,60000.0,Fri May 29 2026 15:02:53 GMT-0500 (Central Daylight Time),693210.5,A,t,O,t,4609,1,4614.899999976158,688595.6000000238,7810,WL,A,2.0
5,11.196000099182129,learn,60000.0,Fri May 29 2026 15:02:53 GMT-0500 (Central Daylight Time),693560.3000000119,A,tr,O,r,329,1,4964.699999988079,688595.6000000238,7810,WL,A,2.0
5,11.680000066757202,learn,60000.0,Fri May 29 2026 15:02:53 GMT-0500 (Central Daylight Time),694043.6999999881,A,tra,O,a,468,1,5448.099999964237,688595.6000000238,7810,WL,A,2.0
5,11.980000019073486,learn,60000.0,Fri May 29 2026 15:02:53 GMT-0500 (Central Daylight Time),694343.5,A,trai,O,i,280,1,5747.899999976158,688595.6000000238,7810,WL,A,2.0
5,12.263000011444092,learn,60000.0,Fri May 29 2026 15:02:53 GMT-0500 (Central Daylight Time),694626.6999999881,A,train,O,n,268,1,6031.099999964237,688595.6000000238,7810,WL,A,2.0
5,13.878999948501587,learn,60000.0,Fri May 29 2026 15:02:53 GMT-0500 (Central Daylight Time),696242.8000000119,A,trainenter,O,enter,1601,1,7647.199999988079,688595.6000000238,7810,WL,A,2.0
5,14.595999956130981,learn,60000.0,Fri May 29 2026 15:02:53 GMT-0500 (Central Daylight Time),696959.6000000238,A,h,O,h,697,1,716.6000000238419,696243.0,7810,WL,A,3.0
5,14.828999996185303,learn,60000.0,Fri May 29 2026 15:02:53 GMT-0500 (Central Daylight Time),697192.8999999762,A,ha,O,a,212,1,949.8999999761581,696243.0,7810,WL,A,3.0
5,15.894999980926514,learn,60000.0,Fri May 29 2026 15:02:53 GMT-0500 (Central Daylight Time),698258.8999999762,A,har,O,r,1051,1,2015.8999999761581,696243.0,7810,WL,A,3.0
5,16.628000020980835,learn,60000.0,Fri May 29 2026 15:02:53 GMT-0500 (Central Daylight Time),698992.0,A,harp,O,p,720,1,2749.0,696243.0,7810,WL,A,3.0
5,17.344000101089478,learn,60000.0,Fri May 29 2026 15:02:53 GMT-0500 (Central Daylight Time),699708.5,A,harpenter,O,enter,708,1,3465.5,696243.0,7810,WL,A,3.0
5,18.5770001411438,learn,60000.0,Fri May 29 2026 15:02:53 GMT-0500 (Central Daylight Time),700941.5,A,g,O,g,1224,1,1232.800000011921,699708.6999999881,7810,WL,A,4.0
5,18.844000101089478,learn,60000.0,Fri May 29 2026 15:02:53 GMT-0500 (Central Daylight Time),701208.1999999881,A,go,O,o,246,1,1499.5,699708.6999999881,7810,WL,A,4.0
5,19.14400005340576,learn,60000.0,Fri May 29 2026 15:02:53 GMT-0500 (Central Daylight Time),701507.8000000119,A,gol,O,l,283,1,1799.1000000238419,699708.6999999881,7810,WL,A,4.0
5,19.344000101089478,learn,60000.0,Fri May 29 2026 15:02:53 GMT-0500 (Central Daylight Time),701707.8999999762,A,gold,O,d,192,1,1999.199999988079,699708.6999999881,7810,WL,A,4.0
5,19.64400005340576,learn,60000.0,Fri May 29 2026 15:02:53 GMT-0500 (Central Daylight Time),702007.6999999881,A,goldenter,O,enter,288,1,2299.0,699708.6999999881,7810,WL,A,4.0
5,20.16000008583069,learn,60000.0,Fri May 29 2026 15:02:53 GMT-0500 (Central Daylight Time),702524.1999999881,A,c,O,c,501,1,516.1999999880791,702008.0,7810,WL,A,5.0
5,20.493000030517578,learn,60000.0,Fri May 29 2026 15:02:53 GMT-0500 (Central Daylight Time),702857.3999999762,A,ch,O,h,320,1,849.3999999761581,702008.0,7810,WL,A,5.0
5,20.776000022888184,learn,60000.0,Fri May 29 2026 15:02:53 GMT-0500 (Central Daylight Time),703140.6000000238,A,chi,O,i,275,1,1132.6000000238419,702008.0,7810,WL,A,5.0
5,21.325999975204468,learn,60000.0,Fri May 29 2026 15:02:53 GMT-0500 (Central Daylight Time),703690.3999999762,A,chim,O,m,544,1,1682.3999999761581,702008.0,7810,WL,A,5.0
5,21.693000078201294,learn,60000.0,Fri May 29 2026 15:02:53 GMT-0500 (Central Daylight Time),704057.1000000238,A,chime,O,e,362,1,2049.100000023842,702008.0,7810,WL,A,5.0
5,22.14300012588501,learn,60000.0,Fri May 29 2026 15:02:53 GMT-0500 (Central Daylight Time),704507.1000000238,A,chimen,O,n,435,1,2499.100000023842,702008.0,7810,WL,A,5.0
5,22.592999935150146,learn,60000.0,Fri May 29 2026 15:02:53 GMT-0500 (Central Daylight Time),704956.8000000119,A,chimeny,O,y,441,1,2948.800000011921,702008.0,7810,WL,A,5.0
5,25.192000150680542,learn,60000.0,Fri May 29 2026 15:02:53 GMT-0500 (Central Daylight Time),707555.8999999762,A,chimenyenter,O,enter,2591,1,5547.899999976158,702008.0,7810,WL,A,5.0
5,25.842000007629395,learn,60000.0,Fri May 29 2026 15:02:53 GMT-0500 (Central Daylight Time),708205.8000000119,A,b,O,b,632,1,649.6000000238419,707556.1999999881,7810,WL,A,6.0
5,26.225000143051147,learn,60000.0,Fri May 29 2026 15:02:53 GMT-0500 (Central Daylight Time),708589.1999999881,A,bu,O,u,366,1,1033.0,707556.1999999881,7810,WL,A,6.0
5,26.740999937057495,learn,60000.0,Fri May 29 2026 15:02:53 GMT-0500 (Central Daylight Time),709105.6000000238,A,but,O,t,511,1,1549.4000000357628,707556.1999999881,7810,WL,A,6.0
5,26.924999952316284,learn,60000.0,Fri May 29 2026 15:02:53 GMT-0500 (Central Daylight Time),709288.8000000119,A,butt,O,t,170,1,1732.6000000238419,707556.1999999881,7810,WL,A,6.0
5,27.258000135421753,learn,60000.0,Fri May 29 2026 15:02:53 GMT-0500 (Central Daylight Time),709622.1000000238,A,butto,O,o,314,1,2065.900000035763,707556.1999999881,7810,WL,A,6.0
5,27.54100012779236,learn,60000.0,Fri May 29 2026 15:02:53 GMT-0500 (Central Daylight Time),709905.1000000238,A,button,O,n,262,1,2348.900000035763,707556.1999999881,7810,WL,A,6.0
5,27.990999937057495,learn,60000.0,Fri May 29 2026 15:02:53 GMT-0500 (Central Daylight Time),710355.1999999881,A,buttonenter,O,enter,435,1,2799.0,707556.1999999881,7810,WL,A,6.0
5,28.341000080108643,learn,60000.0,Fri May 29 2026 15:02:53 GMT-0500 (Central Daylight Time),710705.0,A,r,O,r,337,1,349.60000002384186,710355.3999999762,7810,WL,A,7.0
5,28.624000072479248,learn,60000.0,Fri May 29 2026 15:02:53 GMT-0500 (Central Daylight Time),710988.3000000119,A,ru,O,u,267,1,632.9000000357628,710355.3999999762,7810,WL,A,7.0
5,29.574000120162964,learn,60000.0,Fri May 29 2026 15:02:53 GMT-0500 (Central Daylight Time),711937.8999999762,A,rug,O,g,936,1,1582.5,710355.3999999762,7810,WL,A,7.0
5,30.723999977111816,learn,60000.0,Fri May 29 2026 15:02:53 GMT-0500 (Central Daylight Time),713087.8000000119,A,rugenter,O,enter,1138,1,2732.400000035763,710355.3999999762,7810,WL,A,7.0
5,33.4060001373291,learn,60000.0,Fri May 29 2026 15:02:53 GMT-0500 (Central Daylight Time),715770.0,A,h,O,h,2668,1,2682.0,713088.0,7810,WL,A,8.0
5,33.60599994659424,learn,60000.0,Fri May 29 2026 15:02:53 GMT-0500 (Central Daylight Time),715970.0,A,ha,O,a,194,1,2882.0,713088.0,7810,WL,A,8.0
5,35.0220000743866,learn,60000.0,Fri May 29 2026 15:02:53 GMT-0500 (Central Daylight Time),717386.1999999881,A,har,O,r,1402,1,4298.199999988079,713088.0,7810,WL,A,8.0
5,35.25500011444092,learn,60000.0,Fri May 29 2026 15:02:53 GMT-0500 (Central Daylight Time),717619.6000000238,A,harp,O,p,218,1,4531.600000023842,713088.0,7810,WL,A,8.0
5,37.0550000667572,learn,60000.0,Fri May 29 2026 15:02:53 GMT-0500 (Central Daylight Time),719419.1000000238,A,harpenter,O,enter,1784,1,6331.100000023842,713088.0,7810,WL,A,8.0
5,43.66900014877319,learn,60000.0,Fri May 29 2026 15:02:53 GMT-0500 (Central Daylight Time),726033.6000000238,A,b,O,b,6593,1,6614.300000011921,719419.3000000119,7810,WL,A,9.0
5,44.03600001335144,learn,60000.0,Fri May 29 2026 15:02:53 GMT-0500 (Central Daylight Time),726400.1000000238,A,bu,O,u,354,1,6980.800000011921,719419.3000000119,7810,WL,A,9.0
5,44.901999950408936,learn,60000.0,Fri May 29 2026 15:02:53 GMT-0500 (Central Daylight Time),727266.3999999762,A,but,O,t,851,1,7847.099999964237,719419.3000000119,7810,WL,A,9.0
5,45.085999965667725,learn,60000.0,Fri May 29 2026 15:02:53 GMT-0500 (Central Daylight Time),727449.8000000119,A,butt,O,t,170,1,8030.5,719419.3000000119,7810,WL,A,9.0
5,45.485000133514404,learn,60000.0,Fri May 29 2026 15:02:53 GMT-0500 (Central Daylight Time),727849.5,A,butto,O,o,394,1,8430.199999988079,719419.3000000119,7810,WL,A,9.0
5,46.03699994087219,learn,60000.0,Fri May 29 2026 15:02:53 GMT-0500 (Central Daylight Time),728400.6999999881,A,button,O,n,530,1,8981.399999976158,719419.3000000119,7810,WL,A,9.0
5,46.96799993515015,learn,60000.0,Fri May 29 2026 15:02:53 GMT-0500 (Central Daylight Time),729332.5,A,buttonenter,O,enter,915,1,9913.199999988079,719419.3000000119,7810,WL,A,9.0
5,52.56700015068054,learn,60000.0,Fri May 29 2026 15:02:53 GMT-0500 (Central Daylight Time),734930.8000000119,A,n,O,n,5584,1,5598.100000023842,729332.6999999881,7810,WL,A,10.0
5,52.83299994468689,learn,60000.0,Fri May 29 2026 15:02:53 GMT-0500 (Central Daylight Time),735197.1999999881,A,ne,O,e,249,1,5864.5,729332.6999999881,7810,WL,A,10.0
5,53.15000009536743,learn,60000.0,Fri May 29 2026 15:02:53 GMT-0500 (Central Daylight Time),735513.8999999762,A,nea,O,a,303,1,6181.199999988079,729332.6999999881,7810,WL,A,10.0
5,53.48300004005432,learn,60000.0,Fri May 29 2026 15:02:53 GMT-0500 (Central Daylight Time),735847.1999999881,A,nead,O,d,314,1,6514.5,729332.6999999881,7810,WL,A,10.0
5,53.76600003242493,learn,60000.0,Fri May 29 2026 15:02:53 GMT-0500 (Central Daylight Time),736130.3000000119,A,neado,O,o,277,1,6797.600000023842,729332.6999999881,7810,WL,A,10.0
5,54.1489999294281,learn,60000.0,Fri May 29 2026 15:02:53 GMT-0500 (Central Daylight Time),736513.5,A,neadow,O,w,378,1,7180.800000011921,729332.6999999881,7810,WL,A,10.0
5,54.699000120162964,learn,60000.0,Fri May 29 2026 15:02:53 GMT-0500 (Central Daylight Time),737063.5,A,neadowenter,O,enter,531,1,7730.800000011921,729332.6999999881,7810,WL,A,10.0
5,64.23000001907349,learn,60000.0,Fri May 29 2026 15:02:53 GMT-0500 (Central Daylight Time),746593.8999999762,A,f,O,f,9517,1,9530.199999988079,737063.6999999881,7810,WL,A,11.0
6,7.697000026702881,distr,52302.99997329712,Fri May 29 2026 15:02:53 GMT-0500 (Central Daylight Time),828817.8999999762,B,j,O,j,7692,1,7697.399999976158,821120.5,7810,WL,A,1.0
6,8.030999898910522,distr,51969.00010108948,Fri May 29 2026 15:02:53 GMT-0500 (Central Daylight Time),829151.1000000238,B,ju,O,u,321,1,8030.600000023842,821120.5,7810,WL,A,1.0
6,9.246999979019165,distr,50753.000020980835,Fri May 29 2026 15:02:53 GMT-0500 (Central Daylight Time),830367.5,B,jud,O,d,1205,1,9247.0,821120.5,7810,WL,A,1.0
6,9.630000114440918,distr,50369.99988555908,Fri May 29 2026 15:02:53 GMT-0500 (Central Daylight Time),830750.6999999881,B,judg,O,g,372,1,9630.199999988079,821120.5,7810,WL,A,1.0
6,10.263000011444092,distr,49736.99998855591,Fri May 29 2026 15:02:53 GMT-0500 (Central Daylight Time),831383.6999999881,B,judge,O,e,621,1,10263.199999988079,821120.5,7810,WL,A,1.0
6,11.180000066757202,distr,48819.9999332428,Fri May 29 2026 15:02:53 GMT-0500 (Central Daylight Time),832300.1999999881,B,judgeenter,O,enter,900,1,11179.699999988079,821120.5,7810,WL,A,1.0
6,18.89400005340576,distr,41105.99994659424,Fri May 29 2026 15:02:53 GMT-0500 (Central Daylight Time),840014.3999999762,B,d,O,d,7696,1,7713.899999976158,832300.5,7810,WL,A,2.0
6,19.41000008583069,distr,40589.99991416931,Fri May 29 2026 15:02:53 GMT-0500 (Central Daylight Time),840530.8000000119,B,da,O,a,509,1,8230.300000011921,832300.5,7810,WL,A,2.0
6,19.844000101089478,distr,40155.99989891052,Fri May 29 2026 15:02:53 GMT-0500 (Central Daylight Time),840964.1000000238,B,daw,O,w,425,1,8663.600000023842,832300.5,7810,WL,A,2.0
6,20.276999950408936,distr,39723.000049591064,Fri May 29 2026 15:02:53 GMT-0500 (Central Daylight Time),841397.3999999762,B,dawn,O,n,423,1,9096.899999976158,832300.5,7810,WL,A,2.0
6,21.493000030517578,distr,38506.99996948242,Fri May 29 2026 15:02:53 GMT-0500 (Central Daylight Time),842613.6999999881,B,dawnenter,O,enter,1198,1,10313.199999988079,832300.5,7810,WL,A,2.0
6,34.549999952316284,distr,25450.000047683716,Fri May 29 2026 15:02:53 GMT-0500 (Central Daylight Time),855670.5,B,l,O,l,13052,1,13056.600000023842,842613.8999999762,7810,WL,A,3.0
6,34.72200012207031,distr,25277.999877929688,Fri May 29 2026 15:02:53 GMT-0500 (Central Daylight Time),855842.8999999762,B,la,O,a,157,1,13229.0,842613.8999999762,7810,WL,A,3.0
6,35.039000034332275,distr,24960.999965667725,Fri May 29 2026 15:02:53 GMT-0500 (Central Daylight Time),856159.3000000119,B,lap,O,p,305,1,13545.400000035763,842613.8999999762,7810,WL,A,3.0
6,35.82200002670288,distr,24177.99997329712,Fri May 29 2026 15:02:53 GMT-0500 (Central Daylight Time),856942.6000000238,B,lapenter,O,enter,773,1,14328.700000047684,842613.8999999762,7810,WL,A,3.0
6,60.013999938964844,distr,-13.99993896484375,Fri May 29 2026 15:02:53 GMT-0500 (Central Daylight Time),881134.8999999762,B,None,O,None,24187,1,24191.899999976158,856943.0,7810,WL,A,4.0
7,1.4830000400543213,immed,58516.99995994568,Fri May 29 2026 15:02:53 GMT-0500 (Central Daylight Time),922372.0,A,b,O,b,1476,1,1482.800000011921,920889.1999999881,7810,WL,A,1.0
7,2.183000087738037,immed,57816.99991226196,Fri May 29 2026 15:02:53 GMT-0500 (Central Daylight Time),923071.8999999762,A,bo,O,o,677,1,2182.699999988079,920889.1999999881,7810,WL,A,1.0
7,2.366000175476074,immed,57633.999824523926,Fri May 29 2026 15:02:53 GMT-0500 (Central Daylight Time),923255.0,A,boo,O,o,164,1,2365.800000011921,920889.1999999881,7810,WL,A,1.0
7,2.882000207901001,immed,57117.999792099,Fri May 29 2026 15:02:53 GMT-0500 (Central Daylight Time),923771.5,A,book,O,k,501,1,2882.300000011921,920889.1999999881,7810,WL,A,1.0
7,3.950000047683716,immed,56049.999952316284,Fri May 29 2026 15:02:53 GMT-0500 (Central Daylight Time),924838.8999999762,A,bookenter,O,enter,1057,1,3949.699999988079,920889.1999999881,7810,WL,A,1.0
7,4.715000152587891,immed,55284.99984741211,Fri May 29 2026 15:02:53 GMT-0500 (Central Daylight Time),925604.1000000238,A,f,O,f,757,1,765.0,924839.1000000238,7810,WL,A,2.0
7,5.015000104904175,immed,54984.999895095825,Fri May 29 2026 15:02:53 GMT-0500 (Central Daylight Time),925904.1999999881,A,fi,O,i,288,1,1065.0999999642372,924839.1000000238,7810,WL,A,2.0
7,5.4090001583099365,immed,54590.99984169006,Fri May 29 2026 15:02:53 GMT-0500 (Central Daylight Time),926298.1000000238,A,fin,O,n,389,1,1459.0,924839.1000000238,7810,WL,A,2.0
7,5.748000144958496,immed,54251.999855041504,Fri May 29 2026 15:02:53 GMT-0500 (Central Daylight Time),926637.1000000238,A,fing,O,g,330,1,1798.0,924839.1000000238,7810,WL,A,2.0
7,6.04800009727478,immed,53951.99990272522,Fri May 29 2026 15:02:53 GMT-0500 (Central Daylight Time),926937.3000000119,A,finge,O,e,295,1,2098.199999988079,924839.1000000238,7810,WL,A,2.0
7,6.281000137329102,immed,53718.9998626709,Fri May 29 2026 15:02:53 GMT-0500 (Central Daylight Time),927170.5,A,finger,O,r,227,1,2331.399999976158,924839.1000000238,7810,WL,A,2.0
7,7.398000001907349,immed,52601.99999809265,Fri May 29 2026 15:02:53 GMT-0500 (Central Daylight Time),928286.6000000238,A,fingerenter,O,enter,1106,1,3447.5,924839.1000000238,7810,WL,A,2.0
7,8.214000225067139,immed,51785.99977493286,Fri May 29 2026 15:02:53 GMT-0500 (Central Daylight Time),929103.1999999881,A,a,O,a,798,1,816.3000000119209,928286.8999999762,7810,WL,A,3.0
7,8.69700002670288,immed,51302.99997329712,Fri May 29 2026 15:02:53 GMT-0500 (Central Daylight Time),929586.3999999762,A,ap,O,p,476,1,1299.5,928286.8999999762,7810,WL,A,3.0
7,8.897000074386597,immed,51102.9999256134,Fri May 29 2026 15:02:53 GMT-0500 (Central Daylight Time),929786.3999999762,A,app,O,p,194,1,1499.5,928286.8999999762,7810,WL,A,3.0
7,9.164000034332275,immed,50835.999965667725,Fri May 29 2026 15:02:53 GMT-0500 (Central Daylight Time),930052.8999999762,A,appl,O,l,258,1,1766.0,928286.8999999762,7810,WL,A,3.0
7,9.44700002670288,immed,50552.99997329712,Fri May 29 2026 15:02:53 GMT-0500 (Central Daylight Time),930336.1000000238,A,apple,O,e,263,1,2049.2000000476837,928286.8999999762,7810,WL,A,3.0
7,10.180000066757202,immed,49819.9999332428,Fri May 29 2026 15:02:53 GMT-0500 (Central Daylight Time),931069.3000000119,A,appleenter,O,enter,724,1,2782.400000035763,928286.8999999762,7810,WL,A,3.0
7,11.696000099182129,immed,48303.99990081787,Fri May 29 2026 15:02:53 GMT-0500 (Central Daylight Time),932585.3999999762,A,m,O,m,1511,1,1515.7999999523163,931069.6000000238,7810,WL,A,4.0
7,11.963000059127808,immed,48036.99994087219,Fri May 29 2026 15:02:53 GMT-0500 (Central Daylight Time),932851.8999999762,A,me,O,e,250,1,1782.2999999523163,931069.6000000238,7810,WL,A,4.0
7,12.28000020980835,immed,47719.99979019165,Fri May 29 2026 15:02:53 GMT-0500 (Central Daylight Time),933168.6999999881,A,mea,O,a,296,1,2099.099999964237,931069.6000000238,7810,WL,A,4.0
7,12.614000082015991,immed,47385.99991798401,Fri May 29 2026 15:02:53 GMT-0500 (Central Daylight Time),933502.8000000119,A,mead,O,d,323,1,2433.199999988079,931069.6000000238,7810,WL,A,4.0
7,12.996000051498413,immed,47003.99994850159,Fri May 29 2026 15:02:53 GMT-0500 (Central Daylight Time),933884.8999999762,A,meado,O,o,365,1,2815.2999999523163,931069.6000000238,7810,WL,A,4.0
7,13.362000226974487,immed,46637.99977302551,Fri May 29 2026 15:02:53 GMT-0500 (Central Daylight Time),934251.3999999762,A,meadow,O,w,351,1,3181.7999999523163,931069.6000000238,7810,WL,A,4.0
7,14.879000186920166,immed,45120.999813079834,Fri May 29 2026 15:02:53 GMT-0500 (Central Daylight Time),935767.8999999762,A,meadowenter,O,enter,1496,1,4698.299999952316,931069.6000000238,7810,WL,A,4.0
7,15.712000131607056,immed,44287.999868392944,Fri May 29 2026 15:02:53 GMT-0500 (Central Daylight Time),936600.8999999762,A,r,O,r,820,1,832.7999999523163,935768.1000000238,7810,WL,A,5.0
7,16.01200008392334,immed,43987.99991607666,Fri May 29 2026 15:02:53 GMT-0500 (Central Daylight Time),936900.6999999881,A,ru,O,u,291,1,1132.5999999642372,935768.1000000238,7810,WL,A,5.0
7,16.527000188827515,immed,43472.999811172485,Fri May 29 2026 15:02:53 GMT-0500 (Central Daylight Time),937417.1999999881,A,rug,O,g,511,1,1649.0999999642372,935768.1000000238,7810,WL,A,5.0
7,18.06000018119812,immed,41939.99981880188,Fri May 29 2026 15:02:53 GMT-0500 (Central Daylight Time),938950.1999999881,A,rugenter,O,enter,1523,1,3182.099999964237,935768.1000000238,7810,WL,A,5.0
7,21.392000198364258,immed,38607.99980163574,Fri May 29 2026 15:02:53 GMT-0500 (Central Daylight Time),942282.3999999762,A,b,O,b,3318,1,3332.099999964237,938950.3000000119,7810,WL,A,6.0
7,21.975000143051147,immed,38024.99985694885,Fri May 29 2026 15:02:53 GMT-0500 (Central Daylight Time),942865.5,A,bo,O,o,570,1,3915.199999988079,938950.3000000119,7810,WL,A,6.0
7,22.175000190734863,immed,37824.99980926514,Fri May 29 2026 15:02:53 GMT-0500 (Central Daylight Time),943065.3000000119,A,boo,O,o,178,1,4115.0,938950.3000000119,7810,WL,A,6.0
7,22.54200005531311,immed,37457.99994468689,Fri May 29 2026 15:02:53 GMT-0500 (Central Daylight Time),943432.0,A,book,O,k,355,1,4481.699999988079,938950.3000000119,7810,WL,A,6.0
7,23.442000150680542,immed,36557.99984931946,Fri May 29 2026 15:02:53 GMT-0500 (Central Daylight Time),944331.6999999881,A,bookenter,O,enter,892,1,5381.399999976158,938950.3000000119,7810,WL,A,6.0
7,25.808000087738037,immed,34191.99991226196,Fri May 29 2026 15:02:53 GMT-0500 (Central Daylight Time),946697.6000000238,A,g,O,g,2360,1,2365.7000000476837,944331.8999999762,7810,WL,A,7.0
7,26.074000120162964,immed,33925.999879837036,Fri May 29 2026 15:02:53 GMT-0500 (Central Daylight Time),946964.1999999881,A,go,O,o,250,1,2632.300000011921,944331.8999999762,7810,WL,A,7.0
7,26.35800004005432,immed,33641.99995994568,Fri May 29 2026 15:02:53 GMT-0500 (Central Daylight Time),947248.5,A,gol,O,l,272,1,2916.600000023842,944331.8999999762,7810,WL,A,7.0
7,26.52400016784668,immed,33475.99983215332,Fri May 29 2026 15:02:53 GMT-0500 (Central Daylight Time),947414.1000000238,A,gold,O,d,148,1,3082.2000000476837,944331.8999999762,7810,WL,A,7.0
7,27.157000064849854,immed,32842.99993515015,Fri May 29 2026 15:02:53 GMT-0500 (Central Daylight Time),948047.1999999881,A,goldenter,O,enter,614,1,3715.300000011921,944331.8999999762,7810,WL,A,7.0
7,36.45400023460388,immed,23545.999765396118,Fri May 29 2026 15:02:53 GMT-0500 (Central Daylight Time),957344.3999999762,A,a,O,a,9277,1,9297.0,948047.3999999762,7810,WL,A,8.0
7,36.87100005149841,immed,23128.999948501587,Fri May 29 2026 15:02:53 GMT-0500 (Central Daylight Time),957761.0,A,ap,O,p,395,1,9713.600000023842,948047.3999999762,7810,WL,A,8.0
7,37.05400013923645,immed,22945.99986076355,Fri May 29 2026 15:02:53 GMT-0500 (Central Daylight Time),957944.3000000119,A,app,O,p,171,1,9896.900000035763,948047.3999999762,7810,WL,A,8.0
7,37.28700017929077,immed,22712.99982070923,Fri May 29 2026 15:02:53 GMT-0500 (Central Daylight Time),958177.3000000119,A,appl,O,l,220,1,10129.900000035763,948047.3999999762,7810,WL,A,8.0
7,37.53700017929077,immed,22462.99982070923,Fri May 29 2026 15:02:53 GMT-0500 (Central Daylight Time),958427.1999999881,A,apple,O,e,235,1,10379.800000011921,948047.3999999762,7810,WL,A,8.0
7,38.15400004386902,immed,21845.99995613098,Fri May 29 2026 15:02:53 GMT-0500 (Central Daylight Time),959043.8000000119,A,appleenter,O,enter,601,1,10996.400000035763,948047.3999999762,7810,WL,A,8.0
7,45.235000133514404,immed,14764.999866485596,Fri May 29 2026 15:02:53 GMT-0500 (Central Daylight Time),966124.8999999762,A,p,O,p,7065,1,7081.0,959043.8999999762,7810,WL,A,9.0
7,45.45100021362305,immed,14548.999786376953,Fri May 29 2026 15:02:53 GMT-0500 (Central Daylight Time),966341.6000000238,A,pe,O,e,207,1,7297.700000047684,959043.8999999762,7810,WL,A,9.0
7,45.78500008583069,immed,14214.999914169312,Fri May 29 2026 15:02:53 GMT-0500 (Central Daylight Time),966674.6999999881,A,pea,O,a,319,1,7630.800000011921,959043.8999999762,7810,WL,A,9.0
7,46.18500018119812,immed,13814.99981880188,Fri May 29 2026 15:02:53 GMT-0500 (Central Daylight Time),967074.6000000238,A,pear,O,r,385,1,8030.700000047684,959043.8999999762,7810,WL,A,9.0
7,46.468000173568726,immed,13531.999826431274,Fri May 29 2026 15:02:53 GMT-0500 (Central Daylight Time),967357.8999999762,A,pearenter,O,enter,265,1,8314.0,959043.8999999762,7810,WL,A,9.0
7,52.545000076293945,immed,7454.999923706055,Fri May 29 2026 15:02:53 GMT-0500 (Central Daylight Time),973435.1000000238,A,z,O,z,5934,1,6077.0,967358.1000000238,7810,WL,A,10.0
7,52.849000215530396,immed,7150.9997844696045,Fri May 29 2026 15:02:53 GMT-0500 (Central Daylight Time),973739.1999999881,A,zo,O,o,288,1,6381.099999964237,967358.1000000238,7810,WL,A,10.0
7,53.06600022315979,immed,6933.99977684021,Fri May 29 2026 15:02:53 GMT-0500 (Central Daylight Time),973955.6999999881,A,zoo,O,o,209,1,6597.599999964237,967358.1000000238,7810,WL,A,10.0
7,53.932000160217285,immed,6067.999839782715,Fri May 29 2026 15:02:53 GMT-0500 (Central Daylight Time),974822.1999999881,A,zoom,O,m,849,1,7464.099999964237,967358.1000000238,7810,WL,A,10.0
7,54.98200011253357,immed,5017.999887466431,Fri May 29 2026 15:02:53 GMT-0500 (Central Daylight Time),975871.8000000119,A,zoomenter,O,enter,1029,1,8513.699999988079,967358.1000000238,7810,WL,A,10.0
7,60.01300001144409,immed,-13.000011444091797,Fri May 29 2026 15:02:53 GMT-0500 (Central Daylight Time),980903.5,A,None,O,None,5027,1,5031.399999976158,975872.1000000238,7810,WL,A,11.0
