block_c,block_dur,condition,countdown,datetime,endtime,list,multichar_response,project,response,response_time,session_number,start_end,starttime,subject_id,task,task_vers,trial
,,,,Tue Dec 02 2025 15:18:37 GMT-0600 (Central Standard Time),,,,O,space,785,,,,7713,WL,A,
prac,,0,,Tue Dec 02 2025 15:18:37 GMT-0600 (Central Standard Time),,NA,b,O,b,4247,,,,7713,WL,A,1.0
prac,,0,,Tue Dec 02 2025 15:18:37 GMT-0600 (Central Standard Time),,NA,bo,O,o,336,,,,7713,WL,A,1.0
prac,,0,,Tue Dec 02 2025 15:18:37 GMT-0600 (Central Standard Time),,NA,boo,O,o,139,,,,7713,WL,A,1.0
prac,,0,,Tue Dec 02 2025 15:18:37 GMT-0600 (Central Standard Time),,NA,boos,O,s,437,,,,7713,WL,A,1.0
prac,,0,,Tue Dec 02 2025 15:18:37 GMT-0600 (Central Standard Time),,NA,boost,O,t,467,,,,7713,WL,A,1.0
prac,,0,,Tue Dec 02 2025 15:18:37 GMT-0600 (Central Standard Time),,NA,boostenter,O,enter,2256,,,,7713,WL,A,1.0
1,2.797999858856201,learn,57202.0001411438,Tue Dec 02 2025 15:18:37 GMT-0600 (Central Standard Time),212145.09999999404,A,b,O,b,2785,,2798.0,209347.09999999404,7713,WL,A,1.0
1,3.3979997634887695,learn,56602.00023651123,Tue Dec 02 2025 15:18:37 GMT-0600 (Central Standard Time),212745.0,A,bo,O,o,583,,3397.9000000059605,209347.09999999404,7713,WL,A,1.0
1,3.563999891281128,learn,56436.00010871887,Tue Dec 02 2025 15:18:37 GMT-0600 (Central Standard Time),212911.29999998212,A,boo,O,o,145,,3564.199999988079,209347.09999999404,7713,WL,A,1.0
1,4.164999961853027,learn,55835.00003814697,Tue Dec 02 2025 15:18:37 GMT-0600 (Central Standard Time),213511.59999999404,A,book,O,k,587,,4164.5,209347.09999999404,7713,WL,A,1.0
1,5.730999946594238,learn,54269.00005340576,Tue Dec 02 2025 15:18:37 GMT-0600 (Central Standard Time),215077.5,A,bookenter,O,enter,1555,,5730.4000000059605,209347.09999999404,7713,WL,A,1.0
1,7.162999868392944,learn,52837.000131607056,Tue Dec 02 2025 15:18:37 GMT-0600 (Central Standard Time),216510.40000000596,A,f,O,f,1421,,1432.300000011921,215078.09999999404,7713,WL,A,2.0
1,7.379999876022339,learn,52620.00012397766,Tue Dec 02 2025 15:18:37 GMT-0600 (Central Standard Time),216727.29999998212,A,fl,O,l,205,,1649.199999988079,215078.09999999404,7713,WL,A,2.0
1,7.696999788284302,learn,52303.0002117157,Tue Dec 02 2025 15:18:37 GMT-0600 (Central Standard Time),217043.5,A,flo,O,o,300,,1965.4000000059605,215078.09999999404,7713,WL,A,2.0
1,8.14799976348877,learn,51852.00023651123,Tue Dec 02 2025 15:18:37 GMT-0600 (Central Standard Time),217494.5,A,flow,O,w,440,,2416.4000000059605,215078.09999999404,7713,WL,A,2.0
1,8.679999828338623,learn,51320.00017166138,Tue Dec 02 2025 15:18:37 GMT-0600 (Central Standard Time),218026.59999999404,A,flowe,O,e,517,,2948.5,215078.09999999404,7713,WL,A,2.0
1,8.94599986076355,learn,51054.00013923645,Tue Dec 02 2025 15:18:37 GMT-0600 (Central Standard Time),218293.09999999404,A,flower,O,r,257,,3215.0,215078.09999999404,7713,WL,A,2.0
1,9.912999868392944,learn,50087.000131607056,Tue Dec 02 2025 15:18:37 GMT-0600 (Central Standard Time),219259.59999999404,A,flowerenter,O,enter,957,,4181.5,215078.09999999404,7713,WL,A,2.0
1,10.961999893188477,learn,49038.00010681152,Tue Dec 02 2025 15:18:37 GMT-0600 (Central Standard Time),220309.29999998212,A,t,O,t,1040,,1049.2999999821186,219260.0,7713,WL,A,3.0
1,11.294999837875366,learn,48705.000162124634,Tue Dec 02 2025 15:18:37 GMT-0600 (Central Standard Time),220642.29999998212,A,tr,O,r,318,,1382.2999999821186,219260.0,7713,WL,A,3.0
1,11.494999885559082,learn,48505.00011444092,Tue Dec 02 2025 15:18:37 GMT-0600 (Central Standard Time),220842.0,A,tra,O,a,193,,1582.0,219260.0,7713,WL,A,3.0
1,11.76199984550476,learn,48238.00015449524,Tue Dec 02 2025 15:18:37 GMT-0600 (Central Standard Time),221109.19999998808,A,trai,O,i,249,,1849.199999988079,219260.0,7713,WL,A,3.0
1,12.061999797821045,learn,47938.000202178955,Tue Dec 02 2025 15:18:37 GMT-0600 (Central Standard Time),221409.0,A,train,O,n,286,,2149.0,219260.0,7713,WL,A,3.0
1,12.744999885559082,learn,47255.00011444092,Tue Dec 02 2025 15:18:37 GMT-0600 (Central Standard Time),222092.0,A,trainenter,O,enter,666,,2832.0,219260.0,7713,WL,A,3.0
1,13.510999917984009,learn,46489.00008201599,Tue Dec 02 2025 15:18:37 GMT-0600 (Central Standard Time),222858.29999998212,A,r,O,r,752,,765.8999999761581,222092.40000000596,7713,WL,A,4.0
1,13.860999822616577,learn,46139.00017738342,Tue Dec 02 2025 15:18:37 GMT-0600 (Central Standard Time),223208.29999998212,A,ru,O,u,336,,1115.8999999761581,222092.40000000596,7713,WL,A,4.0
1,14.760999917984009,learn,45239.00008201599,Tue Dec 02 2025 15:18:37 GMT-0600 (Central Standard Time),224108.0,A,rug,O,g,892,,2015.5999999940395,222092.40000000596,7713,WL,A,4.0
1,15.894999980926514,learn,44105.000019073486,Tue Dec 02 2025 15:18:37 GMT-0600 (Central Standard Time),225242.0,A,rugenter,O,enter,1128,,3149.5999999940395,222092.40000000596,7713,WL,A,4.0
1,21.95899987220764,learn,38041.00012779236,Tue Dec 02 2025 15:18:37 GMT-0600 (Central Standard Time),231305.5,A,l,O,l,6050,,6063.0,225242.5,7713,WL,A,5.0
1,22.258999824523926,learn,37741.000175476074,Tue Dec 02 2025 15:18:37 GMT-0600 (Central Standard Time),231605.69999998808,A,lo,O,o,290,,6363.199999988079,225242.5,7713,WL,A,5.0
1,22.608999967575073,learn,37391.00003242493,Tue Dec 02 2025 15:18:37 GMT-0600 (Central Standard Time),231955.69999998808,A,log,O,g,335,,6713.199999988079,225242.5,7713,WL,A,5.0
1,23.557999849319458,learn,36442.00015068054,Tue Dec 02 2025 15:18:37 GMT-0600 (Central Standard Time),232905.19999998808,A,logenter,O,enter,944,,7662.699999988079,225242.5,7713,WL,A,5.0
1,41.085999965667725,learn,18914.000034332275,Tue Dec 02 2025 15:18:37 GMT-0600 (Central Standard Time),250433.29999998212,A,c,O,c,17514,,17527.79999998212,232905.5,7713,WL,A,6.0
1,41.252999782562256,learn,18747.000217437744,Tue Dec 02 2025 15:18:37 GMT-0600 (Central Standard Time),250599.79999998212,A,ch,O,h,154,,17694.29999998212,232905.5,7713,WL,A,6.0
1,41.501999855041504,learn,18498.000144958496,Tue Dec 02 2025 15:18:37 GMT-0600 (Central Standard Time),250849.29999998212,A,chi,O,i,243,,17943.79999998212,232905.5,7713,WL,A,6.0
1,42.18599987030029,learn,17814.000129699707,Tue Dec 02 2025 15:18:37 GMT-0600 (Central Standard Time),251532.69999998808,A,chim,O,m,667,,18627.19999998808,232905.5,7713,WL,A,6.0
1,42.585999965667725,learn,17414.000034332275,Tue Dec 02 2025 15:18:37 GMT-0600 (Central Standard Time),251932.90000000596,A,chimn,O,n,391,,19027.40000000596,232905.5,7713,WL,A,6.0
1,42.834999799728394,learn,17165.000200271606,Tue Dec 02 2025 15:18:37 GMT-0600 (Central Standard Time),252182.40000000596,A,chimne,O,e,230,,19276.90000000596,232905.5,7713,WL,A,6.0
1,43.28599977493286,learn,16714.00022506714,Tue Dec 02 2025 15:18:37 GMT-0600 (Central Standard Time),252632.69999998808,A,chimney,O,y,429,,19727.19999998808,232905.5,7713,WL,A,6.0
1,44.21599984169006,learn,15784.000158309937,Tue Dec 02 2025 15:18:37 GMT-0600 (Central Standard Time),253563.29999998212,A,chimneyenter,O,enter,925,,20657.79999998212,232905.5,7713,WL,A,6.0
1,60.013999938964844,learn,-13.99993896484375,Tue Dec 02 2025 15:18:37 GMT-0600 (Central Standard Time),269360.6999999881,A,None,O,None,15792,,15797.09999999404,253563.59999999404,7713,WL,A,7.0
2,1.8489999771118164,learn,58151.00002288818,Tue Dec 02 2025 15:18:37 GMT-0600 (Central Standard Time),342154.59999999404,A,g,O,g,1842,,1849.4000000059605,340305.1999999881,7713,WL,A,1.0
2,2.0829999446868896,learn,57917.00005531311,Tue Dec 02 2025 15:18:37 GMT-0600 (Central Standard Time),342387.90000000596,A,go,O,o,217,,2082.7000000178814,340305.1999999881,7713,WL,A,1.0
2,2.3489999771118164,learn,57651.00002288818,Tue Dec 02 2025 15:18:37 GMT-0600 (Central Standard Time),342654.1999999881,A,gol,O,l,257,,2349.0,340305.1999999881,7713,WL,A,1.0
2,2.815999984741211,learn,57184.00001525879,Tue Dec 02 2025 15:18:37 GMT-0600 (Central Standard Time),343120.7999999821,A,gold,O,d,446,,2815.5999999940395,340305.1999999881,7713,WL,A,1.0
2,4.047999858856201,learn,55952.0001411438,Tue Dec 02 2025 15:18:37 GMT-0600 (Central Standard Time),344353.59999999404,A,goldenter,O,enter,1218,,4048.4000000059605,340305.1999999881,7713,WL,A,1.0
2,7.247999906539917,learn,52752.00009346008,Tue Dec 02 2025 15:18:37 GMT-0600 (Central Standard Time),347552.6999999881,A,c,O,c,3186,,3198.699999988079,344354.0,7713,WL,A,2.0
2,7.430999994277954,learn,52569.000005722046,Tue Dec 02 2025 15:18:37 GMT-0600 (Central Standard Time),347735.90000000596,A,ch,O,h,162,,3381.9000000059605,344354.0,7713,WL,A,2.0
2,7.764999866485596,learn,52235.000133514404,Tue Dec 02 2025 15:18:37 GMT-0600 (Central Standard Time),348070.0,A,chi,O,i,312,,3716.0,344354.0,7713,WL,A,2.0
2,9.996999979019165,learn,50003.000020980835,Tue Dec 02 2025 15:18:37 GMT-0600 (Central Standard Time),350301.90000000596,A,chim,O,m,2219,,5947.9000000059605,344354.0,7713,WL,A,2.0
2,10.312999963760376,learn,49687.000036239624,Tue Dec 02 2025 15:18:37 GMT-0600 (Central Standard Time),350618.40000000596,A,chimn,O,n,310,,6264.4000000059605,344354.0,7713,WL,A,2.0
2,10.579999923706055,learn,49420.000076293945,Tue Dec 02 2025 15:18:37 GMT-0600 (Central Standard Time),350884.90000000596,A,chimne,O,e,249,,6530.9000000059605,344354.0,7713,WL,A,2.0
2,11.212999820709229,learn,48787.00017929077,Tue Dec 02 2025 15:18:37 GMT-0600 (Central Standard Time),351517.90000000596,A,chimney,O,y,616,,7163.9000000059605,344354.0,7713,WL,A,2.0
2,12.378999948501587,learn,47621.00005149841,Tue Dec 02 2025 15:18:37 GMT-0600 (Central Standard Time),352684.2999999821,A,chimneyenter,O,enter,1159,,8330.299999982119,344354.0,7713,WL,A,2.0
2,13.09500002861023,learn,46904.99997138977,Tue Dec 02 2025 15:18:37 GMT-0600 (Central Standard Time),353400.2999999821,A,r,O,r,703,,715.6999999880791,352684.59999999404,7713,WL,A,3.0
2,13.294999837875366,learn,46705.000162124634,Tue Dec 02 2025 15:18:37 GMT-0600 (Central Standard Time),353600.5,A,ru,O,u,195,,915.9000000059605,352684.59999999404,7713,WL,A,3.0
2,13.59500002861023,learn,46404.99997138977,Tue Dec 02 2025 15:18:37 GMT-0600 (Central Standard Time),353900.5,A,rug,O,g,291,,1215.9000000059605,352684.59999999404,7713,WL,A,3.0
2,14.228999853134155,learn,45771.000146865845,Tue Dec 02 2025 15:18:37 GMT-0600 (Central Standard Time),354533.6999999881,A,rugenter,O,enter,614,,1849.0999999940395,352684.59999999404,7713,WL,A,3.0
2,14.977999925613403,learn,45022.0000743866,Tue Dec 02 2025 15:18:37 GMT-0600 (Central Standard Time),355283.40000000596,A,l,O,l,741,,749.3000000119209,354534.09999999404,7713,WL,A,4.0
2,15.277999877929688,learn,44722.00012207031,Tue Dec 02 2025 15:18:37 GMT-0600 (Central Standard Time),355583.40000000596,A,lo,O,o,279,,1049.300000011921,354534.09999999404,7713,WL,A,4.0
2,15.544999837875366,learn,44455.000162124634,Tue Dec 02 2025 15:18:37 GMT-0600 (Central Standard Time),355849.7999999821,A,log,O,g,252,,1315.699999988079,354534.09999999404,7713,WL,A,4.0
2,16.07799983024597,learn,43922.00016975403,Tue Dec 02 2025 15:18:37 GMT-0600 (Central Standard Time),356383.0,A,logenter,O,enter,522,,1848.9000000059605,354534.09999999404,7713,WL,A,4.0
2,16.66100001335144,learn,43338.99998664856,Tue Dec 02 2025 15:18:37 GMT-0600 (Central Standard Time),356966.59999999404,A,a,O,a,565,,583.1999999880791,356383.40000000596,7713,WL,A,5.0
2,17.310999870300293,learn,42689.00012969971,Tue Dec 02 2025 15:18:37 GMT-0600 (Central Standard Time),357616.1999999881,A,ap,O,p,628,,1232.7999999821186,356383.40000000596,7713,WL,A,5.0
2,17.944000005722046,learn,42055.999994277954,Tue Dec 02 2025 15:18:37 GMT-0600 (Central Standard Time),358249.2999999821,A,app,O,p,620,,1865.8999999761581,356383.40000000596,7713,WL,A,5.0
2,18.376999855041504,learn,41623.000144958496,Tue Dec 02 2025 15:18:37 GMT-0600 (Central Standard Time),358682.40000000596,A,appl,O,l,419,,2299.0,356383.40000000596,7713,WL,A,5.0
2,18.5939998626709,learn,41406.0001373291,Tue Dec 02 2025 15:18:37 GMT-0600 (Central Standard Time),358899.1999999881,A,apple,O,e,209,,2515.7999999821186,356383.40000000596,7713,WL,A,5.0
2,19.15999984741211,learn,40840.00015258789,Tue Dec 02 2025 15:18:37 GMT-0600 (Central Standard Time),359465.5,A,appleenter,O,enter,552,,3082.0999999940395,356383.40000000596,7713,WL,A,5.0
2,19.89400005340576,learn,40105.99994659424,Tue Dec 02 2025 15:18:37 GMT-0600 (Central Standard Time),360198.6999999881,A,m,O,m,723,,733.0999999940395,359465.59999999404,7713,WL,A,6.0
2,20.07699990272522,learn,39923.00009727478,Tue Dec 02 2025 15:18:37 GMT-0600 (Central Standard Time),360382.09999999404,A,me,O,e,165,,916.5,359465.59999999404,7713,WL,A,6.0
2,20.210000038146973,learn,39789.99996185303,Tue Dec 02 2025 15:18:37 GMT-0600 (Central Standard Time),360515.40000000596,A,mea,O,a,125,,1049.800000011921,359465.59999999404,7713,WL,A,6.0
2,20.692999839782715,learn,39307.000160217285,Tue Dec 02 2025 15:18:37 GMT-0600 (Central Standard Time),360998.6999999881,A,mead,O,d,464,,1533.0999999940395,359465.59999999404,7713,WL,A,6.0
2,20.89299988746643,learn,39107.00011253357,Tue Dec 02 2025 15:18:37 GMT-0600 (Central Standard Time),361198.40000000596,A,meado,O,o,189,,1732.800000011921,359465.59999999404,7713,WL,A,6.0
2,21.259999990463257,learn,38740.00000953674,Tue Dec 02 2025 15:18:37 GMT-0600 (Central Standard Time),361565.0,A,meadow,O,w,358,,2099.4000000059605,359465.59999999404,7713,WL,A,6.0
2,21.792999982833862,learn,38207.00001716614,Tue Dec 02 2025 15:18:37 GMT-0600 (Central Standard Time),362097.7999999821,A,meadowenter,O,enter,527,,2632.199999988079,359465.59999999404,7713,WL,A,6.0
2,22.542999982833862,learn,37457.00001716614,Tue Dec 02 2025 15:18:37 GMT-0600 (Central Standard Time),362847.7999999821,A,t,O,t,739,,749.6999999880791,362098.09999999404,7713,WL,A,7.0
2,22.80900001525879,learn,37190.99998474121,Tue Dec 02 2025 15:18:37 GMT-0600 (Central Standard Time),363114.5,A,tr,O,r,253,,1016.4000000059605,362098.09999999404,7713,WL,A,7.0
2,22.95899987220764,learn,37041.00012779236,Tue Dec 02 2025 15:18:37 GMT-0600 (Central Standard Time),363264.6999999881,A,tra,O,a,145,,1166.5999999940395,362098.09999999404,7713,WL,A,7.0
2,23.22599983215332,learn,36774.00016784668,Tue Dec 02 2025 15:18:37 GMT-0600 (Central Standard Time),363531.09999999404,A,trai,O,i,251,,1433.0,362098.09999999404,7713,WL,A,7.0
2,23.508999824523926,learn,36491.000175476074,Tue Dec 02 2025 15:18:37 GMT-0600 (Central Standard Time),363814.1999999881,A,train,O,n,272,,1716.0999999940395,362098.09999999404,7713,WL,A,7.0
2,24.241999864578247,learn,35758.00013542175,Tue Dec 02 2025 15:18:37 GMT-0600 (Central Standard Time),364547.5,A,trainenter,O,enter,725,,2449.4000000059605,362098.09999999404,7713,WL,A,7.0
2,25.79200005531311,learn,34207.99994468689,Tue Dec 02 2025 15:18:37 GMT-0600 (Central Standard Time),366096.6999999881,A,f,O,f,1543,,1548.9000000059605,364547.7999999821,7713,WL,A,8.0
2,25.990999937057495,learn,34009.000062942505,Tue Dec 02 2025 15:18:37 GMT-0600 (Central Standard Time),366296.59999999404,A,fl,O,l,195,,1748.800000011921,364547.7999999821,7713,WL,A,8.0
2,26.257999897003174,learn,33742.000102996826,Tue Dec 02 2025 15:18:37 GMT-0600 (Central Standard Time),366563.59999999404,A,flo,O,o,260,,2015.800000011921,364547.7999999821,7713,WL,A,8.0
2,26.657999992370605,learn,33342.000007629395,Tue Dec 02 2025 15:18:37 GMT-0600 (Central Standard Time),366963.2999999821,A,flow,O,w,384,,2415.5,364547.7999999821,7713,WL,A,8.0
2,26.97499990463257,learn,33025.00009536743,Tue Dec 02 2025 15:18:37 GMT-0600 (Central Standard Time),367279.90000000596,A,flowe,O,e,305,,2732.100000023842,364547.7999999821,7713,WL,A,8.0
2,27.157999992370605,learn,32842.000007629395,Tue Dec 02 2025 15:18:37 GMT-0600 (Central Standard Time),367463.1999999881,A,flower,O,r,173,,2915.4000000059605,364547.7999999821,7713,WL,A,8.0
2,28.04099988937378,learn,31959.00011062622,Tue Dec 02 2025 15:18:37 GMT-0600 (Central Standard Time),368346.09999999404,A,flowerenter,O,enter,870,,3798.300000011921,364547.7999999821,7713,WL,A,8.0
2,32.43899989128113,learn,27561.000108718872,Tue Dec 02 2025 15:18:37 GMT-0600 (Central Standard Time),372744.6999999881,A,t,O,t,4385,,4398.299999982119,368346.40000000596,7713,WL,A,9.0
2,32.68999981880188,learn,27310.00018119812,Tue Dec 02 2025 15:18:37 GMT-0600 (Central Standard Time),372994.7999999821,A,tr,O,r,242,,4648.399999976158,368346.40000000596,7713,WL,A,9.0
2,32.87299990653992,learn,27127.000093460083,Tue Dec 02 2025 15:18:37 GMT-0600 (Central Standard Time),373177.7999999821,A,tra,O,a,170,,4831.399999976158,368346.40000000596,7713,WL,A,9.0
2,33.08899998664856,learn,26911.00001335144,Tue Dec 02 2025 15:18:37 GMT-0600 (Central Standard Time),373394.5,A,trai,O,i,210,,5048.0999999940395,368346.40000000596,7713,WL,A,9.0
2,33.35599994659424,learn,26644.00005340576,Tue Dec 02 2025 15:18:37 GMT-0600 (Central Standard Time),373661.40000000596,A,train,O,n,250,,5315.0,368346.40000000596,7713,WL,A,9.0
2,33.73899984359741,learn,26261.000156402588,Tue Dec 02 2025 15:18:37 GMT-0600 (Central Standard Time),374044.40000000596,A,trainenter,O,enter,374,,5698.0,368346.40000000596,7713,WL,A,9.0
2,37.33799982070923,learn,22662.00017929077,Tue Dec 02 2025 15:18:37 GMT-0600 (Central Standard Time),377643.2999999821,A,m,O,m,3591,,3598.5,374044.7999999821,7713,WL,A,10.0
2,37.520999908447266,learn,22479.000091552734,Tue Dec 02 2025 15:18:37 GMT-0600 (Central Standard Time),377826.59999999404,A,me,O,e,176,,3781.800000011921,374044.7999999821,7713,WL,A,10.0
2,37.687999963760376,learn,22312.000036239624,Tue Dec 02 2025 15:18:37 GMT-0600 (Central Standard Time),377993.2999999821,A,mea,O,a,154,,3948.5,374044.7999999821,7713,WL,A,10.0
2,38.103999853134155,learn,21896.000146865845,Tue Dec 02 2025 15:18:37 GMT-0600 (Central Standard Time),378409.5,A,mead,O,d,410,,4364.700000017881,374044.7999999821,7713,WL,A,10.0
2,38.30399990081787,learn,21696.00009918213,Tue Dec 02 2025 15:18:37 GMT-0600 (Central Standard Time),378609.40000000596,A,meado,O,o,186,,4564.600000023842,374044.7999999821,7713,WL,A,10.0
2,38.603999853134155,learn,21396.000146865845,Tue Dec 02 2025 15:18:37 GMT-0600 (Central Standard Time),378909.5,A,meadow,O,w,290,,4864.700000017881,374044.7999999821,7713,WL,A,10.0
2,38.92199993133545,learn,21078.00006866455,Tue Dec 02 2025 15:18:37 GMT-0600 (Central Standard Time),379227.09999999404,A,meadowenter,O,enter,311,,5182.300000011921,374044.7999999821,7713,WL,A,10.0
2,44.20199990272522,learn,15798.00009727478,Tue Dec 02 2025 15:18:37 GMT-0600 (Central Standard Time),384507.59999999404,A,r,O,r,5264,,5280.0,379227.59999999404,7713,WL,A,11.0
2,44.419999837875366,learn,15580.000162124634,Tue Dec 02 2025 15:18:37 GMT-0600 (Central Standard Time),384725.5,A,ru,O,u,201,,5497.9000000059605,379227.59999999404,7713,WL,A,11.0
2,44.65299987792969,learn,15347.000122070312,Tue Dec 02 2025 15:18:37 GMT-0600 (Central Standard Time),384957.7999999821,A,rug,O,g,222,,5730.199999988079,379227.59999999404,7713,WL,A,11.0
2,45.01900005340576,learn,14980.999946594238,Tue Dec 02 2025 15:18:37 GMT-0600 (Central Standard Time),385324.1999999881,A,rugenter,O,enter,359,,6096.5999999940395,379227.59999999404,7713,WL,A,11.0
2,52.08299994468689,learn,7917.00005531311,Tue Dec 02 2025 15:18:37 GMT-0600 (Central Standard Time),392388.5,A,f,O,f,7047,,7064.0,385324.5,7713,WL,A,12.0
2,52.39999985694885,learn,7600.0001430511475,Tue Dec 02 2025 15:18:37 GMT-0600 (Central Standard Time),392705.09999999404,A,fi,O,i,296,,7380.5999999940395,385324.5,7713,WL,A,12.0
2,52.56699991226196,learn,7433.000087738037,Tue Dec 02 2025 15:18:37 GMT-0600 (Central Standard Time),392871.90000000596,A,fin,O,n,146,,7547.4000000059605,385324.5,7713,WL,A,12.0
2,52.86699986457825,learn,7133.000135421753,Tue Dec 02 2025 15:18:37 GMT-0600 (Central Standard Time),393171.7999999821,A,fing,O,g,292,,7847.299999982119,385324.5,7713,WL,A,12.0
2,53.06699991226196,learn,6933.000087738037,Tue Dec 02 2025 15:18:37 GMT-0600 (Central Standard Time),393371.90000000596,A,finge,O,e,184,,8047.4000000059605,385324.5,7713,WL,A,12.0
2,53.23300004005432,learn,6766.999959945679,Tue Dec 02 2025 15:18:37 GMT-0600 (Central Standard Time),393538.1999999881,A,finger,O,r,160,,8213.699999988079,385324.5,7713,WL,A,12.0
2,53.56599998474121,learn,6434.000015258789,Tue Dec 02 2025 15:18:37 GMT-0600 (Central Standard Time),393871.59999999404,A,fingerenter,O,enter,313,,8547.09999999404,385324.5,7713,WL,A,12.0
2,60.013999938964844,learn,-13.99993896484375,Tue Dec 02 2025 15:18:37 GMT-0600 (Central Standard Time),400319.59999999404,A,None,O,None,6442,,6447.5999999940395,393872.0,7713,WL,A,13.0
3,1.4490001201629639,learn,58550.999879837036,Tue Dec 02 2025 15:18:37 GMT-0600 (Central Standard Time),471730.40000000596,A,r,O,r,1444,,1449.4000000059605,470281.0,7713,WL,A,1.0
3,2.0160000324249268,learn,57983.99996757507,Tue Dec 02 2025 15:18:37 GMT-0600 (Central Standard Time),472296.90000000596,A,ru,O,u,561,,2015.9000000059605,470281.0,7713,WL,A,1.0
3,2.2990000247955322,learn,57700.99997520447,Tue Dec 02 2025 15:18:37 GMT-0600 (Central Standard Time),472580.0,A,rug,O,g,267,,2299.0,470281.0,7713,WL,A,1.0
3,3.1649999618530273,learn,56835.00003814697,Tue Dec 02 2025 15:18:37 GMT-0600 (Central Standard Time),473446.2999999821,A,rugenter,O,enter,856,,3165.2999999821186,470281.0,7713,WL,A,1.0
3,3.8310000896453857,learn,56168.999910354614,Tue Dec 02 2025 15:18:37 GMT-0600 (Central Standard Time),474113.0,A,g,O,g,646,,666.4000000059605,473446.59999999404,7713,WL,A,2.0
3,4.031000137329102,learn,55968.9998626709,Tue Dec 02 2025 15:18:37 GMT-0600 (Central Standard Time),474312.90000000596,A,go,O,o,195,,866.3000000119209,473446.59999999404,7713,WL,A,2.0
3,4.281000137329102,learn,55718.9998626709,Tue Dec 02 2025 15:18:37 GMT-0600 (Central Standard Time),474563.0,A,gol,O,l,244,,1116.4000000059605,473446.59999999404,7713,WL,A,2.0
3,4.564000129699707,learn,55435.99987030029,Tue Dec 02 2025 15:18:37 GMT-0600 (Central Standard Time),474845.7999999821,A,gold,O,d,265,,1399.199999988079,473446.59999999404,7713,WL,A,2.0
3,5.463000059127808,learn,54536.99994087219,Tue Dec 02 2025 15:18:37 GMT-0600 (Central Standard Time),475745.5,A,goldenter,O,enter,895,,2298.9000000059605,473446.59999999404,7713,WL,A,2.0
3,8.463000059127808,learn,51536.99994087219,Tue Dec 02 2025 15:18:37 GMT-0600 (Central Standard Time),478745.0,A,b,O,b,2978,,2999.2000000178814,475745.7999999821,7713,WL,A,3.0
3,8.878999948501587,learn,51121.00005149841,Tue Dec 02 2025 15:18:37 GMT-0600 (Central Standard Time),479161.09999999404,A,bo,O,o,410,,3415.300000011921,475745.7999999821,7713,WL,A,3.0
3,9.062000036239624,learn,50937.999963760376,Tue Dec 02 2025 15:18:37 GMT-0600 (Central Standard Time),479344.7999999821,A,boo,O,o,163,,3599.0,475745.7999999821,7713,WL,A,3.0
3,9.42900013923645,learn,50570.99986076355,Tue Dec 02 2025 15:18:37 GMT-0600 (Central Standard Time),479711.0,A,book,O,k,356,,3965.2000000178814,475745.7999999821,7713,WL,A,3.0
3,9.92900013923645,learn,50070.99986076355,Tue Dec 02 2025 15:18:37 GMT-0600 (Central Standard Time),480211.09999999404,A,bookenter,O,enter,485,,4465.300000011921,475745.7999999821,7713,WL,A,3.0
3,10.479000091552734,learn,49520.999908447266,Tue Dec 02 2025 15:18:37 GMT-0600 (Central Standard Time),480761.0,A,a,O,a,545,,549.5,480211.5,7713,WL,A,4.0
3,10.894999980926514,learn,49105.000019073486,Tue Dec 02 2025 15:18:37 GMT-0600 (Central Standard Time),481177.1999999881,A,ap,O,p,411,,965.6999999880791,480211.5,7713,WL,A,4.0
3,11.07800006866455,learn,48921.99993133545,Tue Dec 02 2025 15:18:37 GMT-0600 (Central Standard Time),481360.1999999881,A,app,O,p,178,,1148.699999988079,480211.5,7713,WL,A,4.0
3,11.411999940872192,learn,48588.00005912781,Tue Dec 02 2025 15:18:37 GMT-0600 (Central Standard Time),481694.0,A,appl,O,l,315,,1482.5,480211.5,7713,WL,A,4.0
3,11.694999933242798,learn,48305.0000667572,Tue Dec 02 2025 15:18:37 GMT-0600 (Central Standard Time),481977.2999999821,A,apple,O,e,269,,1765.7999999821186,480211.5,7713,WL,A,4.0
3,12.07800006866455,learn,47921.99993133545,Tue Dec 02 2025 15:18:37 GMT-0600 (Central Standard Time),482360.6999999881,A,appleenter,O,enter,363,,2149.199999988079,480211.5,7713,WL,A,4.0
3,13.74399995803833,learn,46256.00004196167,Tue Dec 02 2025 15:18:37 GMT-0600 (Central Standard Time),484026.40000000596,A,f,O,f,1652,,1665.4000000059605,482361.0,7713,WL,A,5.0
3,14.010999917984009,learn,45989.00008201599,Tue Dec 02 2025 15:18:37 GMT-0600 (Central Standard Time),484293.1999999881,A,fl,O,l,249,,1932.199999988079,482361.0,7713,WL,A,5.0
3,14.278000116348267,learn,45721.99988365173,Tue Dec 02 2025 15:18:37 GMT-0600 (Central Standard Time),484559.7999999821,A,flo,O,o,254,,2198.7999999821186,482361.0,7713,WL,A,5.0
3,14.561000108718872,learn,45438.99989128113,Tue Dec 02 2025 15:18:37 GMT-0600 (Central Standard Time),484843.09999999404,A,flow,O,w,268,,2482.0999999940395,482361.0,7713,WL,A,5.0
3,14.794000148773193,learn,45205.99985122681,Tue Dec 02 2025 15:18:37 GMT-0600 (Central Standard Time),485076.09999999404,A,flowe,O,e,218,,2715.0999999940395,482361.0,7713,WL,A,5.0
3,14.99399995803833,learn,45006.00004196167,Tue Dec 02 2025 15:18:37 GMT-0600 (Central Standard Time),485276.09999999404,A,flower,O,r,183,,2915.0999999940395,482361.0,7713,WL,A,5.0
3,15.66100001335144,learn,44338.99998664856,Tue Dec 02 2025 15:18:37 GMT-0600 (Central Standard Time),485943.09999999404,A,flowerenter,O,enter,656,,3582.0999999940395,482361.0,7713,WL,A,5.0
3,16.55999994277954,learn,43440.00005722046,Tue Dec 02 2025 15:18:37 GMT-0600 (Central Standard Time),486842.6999999881,A,c,O,c,892,,899.2999999821186,485943.40000000596,7713,WL,A,6.0
3,16.759999990463257,learn,43240.00000953674,Tue Dec 02 2025 15:18:37 GMT-0600 (Central Standard Time),487042.5,A,ch,O,h,186,,1099.0999999940395,485943.40000000596,7713,WL,A,6.0
3,16.960000038146973,learn,43039.99996185303,Tue Dec 02 2025 15:18:37 GMT-0600 (Central Standard Time),487242.1999999881,A,chi,O,i,193,,1298.7999999821186,485943.40000000596,7713,WL,A,6.0
3,17.325999975204468,learn,42674.00002479553,Tue Dec 02 2025 15:18:37 GMT-0600 (Central Standard Time),487608.5,A,chin,O,n,354,,1665.0999999940395,485943.40000000596,7713,WL,A,6.0
3,18.026000022888184,learn,41973.99997711182,Tue Dec 02 2025 15:18:37 GMT-0600 (Central Standard Time),488308.59999999404,A,chi,O,backspace,692,,2365.199999988079,485943.40000000596,7713,WL,A,6.0
3,18.608999967575073,learn,41391.00003242493,Tue Dec 02 2025 15:18:37 GMT-0600 (Central Standard Time),488891.6999999881,A,chim,O,m,575,,2948.2999999821186,485943.40000000596,7713,WL,A,6.0
3,19.292999982833862,learn,40707.00001716614,Tue Dec 02 2025 15:18:37 GMT-0600 (Central Standard Time),489574.90000000596,A,chimn,O,n,672,,3631.5,485943.40000000596,7713,WL,A,6.0
3,19.493000030517578,learn,40506.99996948242,Tue Dec 02 2025 15:18:37 GMT-0600 (Central Standard Time),489774.7999999821,A,chimne,O,e,188,,3831.399999976158,485943.40000000596,7713,WL,A,6.0
3,19.79200005531311,learn,40207.99994468689,Tue Dec 02 2025 15:18:37 GMT-0600 (Central Standard Time),490074.59999999404,A,chimney,O,y,294,,4131.199999988079,485943.40000000596,7713,WL,A,6.0
3,20.575000047683716,learn,39424.999952316284,Tue Dec 02 2025 15:18:37 GMT-0600 (Central Standard Time),490857.59999999404,A,chimneyenter,O,enter,777,,4914.199999988079,485943.40000000596,7713,WL,A,6.0
3,22.342000007629395,learn,37657.999992370605,Tue Dec 02 2025 15:18:37 GMT-0600 (Central Standard Time),492623.7999999821,A,l,O,l,1754,,1766.0,490857.7999999821,7713,WL,A,7.0
3,22.625,learn,37375.0,Tue Dec 02 2025 15:18:37 GMT-0600 (Central Standard Time),492907.40000000596,A,lo,O,o,268,,2049.600000023842,490857.7999999821,7713,WL,A,7.0
3,22.875,learn,37125.0,Tue Dec 02 2025 15:18:37 GMT-0600 (Central Standard Time),493157.09999999404,A,log,O,g,241,,2299.300000011921,490857.7999999821,7713,WL,A,7.0
3,23.375,learn,36625.0,Tue Dec 02 2025 15:18:37 GMT-0600 (Central Standard Time),493656.7999999821,A,logenter,O,enter,487,,2799.0,490857.7999999821,7713,WL,A,7.0
3,27.623000144958496,learn,32376.999855041504,Tue Dec 02 2025 15:18:37 GMT-0600 (Central Standard Time),497905.1999999881,A,f,O,f,4243,,4247.9000000059605,493657.2999999821,7713,WL,A,8.0
3,27.873000144958496,learn,32126.999855041504,Tue Dec 02 2025 15:18:37 GMT-0600 (Central Standard Time),498155.40000000596,A,fi,O,i,234,,4498.100000023842,493657.2999999821,7713,WL,A,8.0
3,28.039999961853027,learn,31960.000038146973,Tue Dec 02 2025 15:18:37 GMT-0600 (Central Standard Time),498322.2999999821,A,fin,O,n,153,,4665.0,493657.2999999821,7713,WL,A,8.0
3,28.305999994277954,learn,31694.000005722046,Tue Dec 02 2025 15:18:37 GMT-0600 (Central Standard Time),498588.6999999881,A,fing,O,g,258,,4931.4000000059605,493657.2999999821,7713,WL,A,8.0
3,28.490000009536743,learn,31509.999990463257,Tue Dec 02 2025 15:18:37 GMT-0600 (Central Standard Time),498771.7999999821,A,finge,O,e,175,,5114.5,493657.2999999821,7713,WL,A,8.0
3,28.69000005722046,learn,31309.99994277954,Tue Dec 02 2025 15:18:37 GMT-0600 (Central Standard Time),498971.90000000596,A,finger,O,r,184,,5314.600000023842,493657.2999999821,7713,WL,A,8.0
3,29.0239999294281,learn,30976.0000705719,Tue Dec 02 2025 15:18:37 GMT-0600 (Central Standard Time),499306.09999999404,A,fingerenter,O,enter,328,,5648.800000011921,493657.2999999821,7713,WL,A,8.0
3,29.572999954223633,learn,30427.000045776367,Tue Dec 02 2025 15:18:37 GMT-0600 (Central Standard Time),499855.1999999881,A,k,O,k,538,,548.7999999821186,499306.40000000596,7713,WL,A,9.0
3,29.805999994277954,learn,30194.000005722046,Tue Dec 02 2025 15:18:37 GMT-0600 (Central Standard Time),500088.2999999821,A,ke,O,e,221,,781.8999999761581,499306.40000000596,7713,WL,A,9.0
3,30.206000089645386,learn,29793.999910354614,Tue Dec 02 2025 15:18:37 GMT-0600 (Central Standard Time),500488.1999999881,A,key,O,y,388,,1181.7999999821186,499306.40000000596,7713,WL,A,9.0
3,30.789000034332275,learn,29210.999965667725,Tue Dec 02 2025 15:18:37 GMT-0600 (Central Standard Time),501071.2999999821,A,keyenter,O,enter,572,,1764.8999999761581,499306.40000000596,7713,WL,A,9.0
3,34.4539999961853,learn,25546.000003814697,Tue Dec 02 2025 15:18:37 GMT-0600 (Central Standard Time),504736.59999999404,A,t,O,t,3660,,3665.0,501071.59999999404,7713,WL,A,10.0
3,34.7039999961853,learn,25296.000003814697,Tue Dec 02 2025 15:18:37 GMT-0600 (Central Standard Time),504986.59999999404,A,tr,O,r,244,,3915.0,501071.59999999404,7713,WL,A,10.0
3,34.87100005149841,learn,25128.999948501587,Tue Dec 02 2025 15:18:37 GMT-0600 (Central Standard Time),505153.09999999404,A,tra,O,a,154,,4081.5,501071.59999999404,7713,WL,A,10.0
3,35.087000131607056,learn,24912.999868392944,Tue Dec 02 2025 15:18:37 GMT-0600 (Central Standard Time),505369.6999999881,A,trai,O,i,202,,4298.0999999940395,501071.59999999404,7713,WL,A,10.0
3,35.33800005912781,learn,24661.999940872192,Tue Dec 02 2025 15:18:37 GMT-0600 (Central Standard Time),505619.7999999821,A,train,O,n,243,,4548.199999988079,501071.59999999404,7713,WL,A,10.0
3,35.78699994087219,learn,24213.000059127808,Tue Dec 02 2025 15:18:37 GMT-0600 (Central Standard Time),506069.6999999881,A,trainenter,O,enter,433,,4998.0999999940395,501071.59999999404,7713,WL,A,10.0
3,51.54900002479553,learn,8450.999975204468,Tue Dec 02 2025 15:18:37 GMT-0600 (Central Standard Time),521831.2999999821,A,l,O,l,15751,,15761.299999982119,506070.0,7713,WL,A,11.0
3,51.79900002479553,learn,8200.999975204468,Tue Dec 02 2025 15:18:37 GMT-0600 (Central Standard Time),522081.1999999881,A,lo,O,o,237,,16011.199999988079,506070.0,7713,WL,A,11.0
3,51.99900007247925,learn,8000.999927520752,Tue Dec 02 2025 15:18:37 GMT-0600 (Central Standard Time),522281.1999999881,A,log,O,g,187,,16211.199999988079,506070.0,7713,WL,A,11.0
3,52.48200011253357,learn,7517.999887466431,Tue Dec 02 2025 15:18:37 GMT-0600 (Central Standard Time),522764.5,A,logenter,O,enter,467,,16694.5,506070.0,7713,WL,A,11.0
3,57.496999979019165,learn,2503.000020980835,Tue Dec 02 2025 15:18:37 GMT-0600 (Central Standard Time),527779.400000006,A,m,O,m,4999,,5014.600000023842,522764.7999999821,7713,WL,A,12.0
3,57.69700002670288,learn,2302.999973297119,Tue Dec 02 2025 15:18:37 GMT-0600 (Central Standard Time),527979.5,A,me,O,e,193,,5214.700000017881,522764.7999999821,7713,WL,A,12.0
3,57.86400008201599,learn,2135.999917984009,Tue Dec 02 2025 15:18:37 GMT-0600 (Central Standard Time),528145.7999999821,A,mea,O,a,153,,5381.0,522764.7999999821,7713,WL,A,12.0
3,58.31400012969971,learn,1685.999870300293,Tue Dec 02 2025 15:18:37 GMT-0600 (Central Standard Time),528596.0,A,mead,O,d,442,,5831.200000017881,522764.7999999821,7713,WL,A,12.0
3,58.52999997138977,learn,1470.0000286102295,Tue Dec 02 2025 15:18:37 GMT-0600 (Central Standard Time),528812.599999994,A,meado,O,o,207,,6047.800000011921,522764.7999999821,7713,WL,A,12.0
3,58.76300001144409,learn,1236.9999885559082,Tue Dec 02 2025 15:18:37 GMT-0600 (Central Standard Time),529045.599999994,A,meadow,O,w,223,,6280.800000011921,522764.7999999821,7713,WL,A,12.0
3,59.24600005149841,learn,753.9999485015869,Tue Dec 02 2025 15:18:37 GMT-0600 (Central Standard Time),529528.6999999881,A,meadowenter,O,enter,478,,6763.9000000059605,522764.7999999821,7713,WL,A,12.0
3,60.01300001144409,learn,-13.000011444091797,Tue Dec 02 2025 15:18:37 GMT-0600 (Central Standard Time),530295.599999994,A,None,O,None,762,,766.5999999940395,529529.0,7713,WL,A,13.0
4,1.0999999046325684,learn,58900.00009536743,Tue Dec 02 2025 15:18:37 GMT-0600 (Central Standard Time),598840.2999999821,A,r,O,r,1095,,1099.199999988079,597741.099999994,7713,WL,A,1.0
4,1.2669999599456787,learn,58733.00004005432,Tue Dec 02 2025 15:18:37 GMT-0600 (Central Standard Time),599007.1999999881,A,ra,O,a,155,,1266.0999999940395,597741.099999994,7713,WL,A,1.0
4,1.682999849319458,learn,58317.00015068054,Tue Dec 02 2025 15:18:37 GMT-0600 (Central Standard Time),599423.6999999881,A,rat,O,t,404,,1682.5999999940395,597741.099999994,7713,WL,A,1.0
4,1.8659999370574951,learn,58134.000062942505,Tue Dec 02 2025 15:18:37 GMT-0600 (Central Standard Time),599606.900000006,A,ratt,O,t,164,,1865.800000011921,597741.099999994,7713,WL,A,1.0
4,2.3329999446868896,learn,57667.00005531311,Tue Dec 02 2025 15:18:37 GMT-0600 (Central Standard Time),600073.5,A,rattl,O,l,452,,2332.4000000059605,597741.099999994,7713,WL,A,1.0
4,2.549999952316284,learn,57450.000047683716,Tue Dec 02 2025 15:18:37 GMT-0600 (Central Standard Time),600290.400000006,A,rattle,O,e,202,,2549.300000011921,597741.099999994,7713,WL,A,1.0
4,3.7660000324249268,learn,56233.99996757507,Tue Dec 02 2025 15:18:37 GMT-0600 (Central Standard Time),601506.2999999821,A,rattleenter,O,enter,1210,,3765.199999988079,597741.099999994,7713,WL,A,1.0
4,6.047999858856201,learn,53952.0001411438,Tue Dec 02 2025 15:18:37 GMT-0600 (Central Standard Time),603789.0,A,k,O,k,2275,,2282.5999999940395,601506.400000006,7713,WL,A,2.0
4,6.23199987411499,learn,53768.00012588501,Tue Dec 02 2025 15:18:37 GMT-0600 (Central Standard Time),603972.1999999881,A,ke,O,e,176,,2465.7999999821186,601506.400000006,7713,WL,A,2.0
4,6.631999969482422,learn,53368.00003051758,Tue Dec 02 2025 15:18:37 GMT-0600 (Central Standard Time),604372.099999994,A,key,O,y,391,,2865.699999988079,601506.400000006,7713,WL,A,2.0
4,7.365000009536743,learn,52634.99999046326,Tue Dec 02 2025 15:18:37 GMT-0600 (Central Standard Time),605105.2999999821,A,keyenter,O,enter,719,,3598.899999976158,601506.400000006,7713,WL,A,2.0
4,8.080999851226807,learn,51919.00014877319,Tue Dec 02 2025 15:18:37 GMT-0600 (Central Standard Time),605821.7999999821,A,l,O,l,698,,716.1999999880791,605105.599999994,7713,WL,A,3.0
4,8.363999843597412,learn,51636.00015640259,Tue Dec 02 2025 15:18:37 GMT-0600 (Central Standard Time),606104.7999999821,A,lo,O,o,278,,999.1999999880791,605105.599999994,7713,WL,A,3.0
4,8.646999835968018,learn,51353.00016403198,Tue Dec 02 2025 15:18:37 GMT-0600 (Central Standard Time),606388.0,A,log,O,g,268,,1282.4000000059605,605105.599999994,7713,WL,A,3.0
4,9.065000057220459,learn,50934.99994277954,Tue Dec 02 2025 15:18:37 GMT-0600 (Central Standard Time),606805.0,A,logenter,O,enter,400,,1699.4000000059605,605105.599999994,7713,WL,A,3.0
4,9.77999997138977,learn,50220.00002861023,Tue Dec 02 2025 15:18:37 GMT-0600 (Central Standard Time),607520.6999999881,A,t,O,t,711,,715.4000000059605,606805.2999999821,7713,WL,A,4.0
4,10.04699993133545,learn,49953.00006866455,Tue Dec 02 2025 15:18:37 GMT-0600 (Central Standard Time),607787.7999999821,A,tr,O,r,251,,982.5,606805.2999999821,7713,WL,A,4.0
4,10.164000034332275,learn,49835.999965667725,Tue Dec 02 2025 15:18:37 GMT-0600 (Central Standard Time),607904.400000006,A,tra,O,a,105,,1099.1000000238419,606805.2999999821,7713,WL,A,4.0
4,10.429999828338623,learn,49570.00017166138,Tue Dec 02 2025 15:18:37 GMT-0600 (Central Standard Time),608170.900000006,A,trai,O,i,260,,1365.6000000238419,606805.2999999821,7713,WL,A,4.0
4,10.664000034332275,learn,49335.999965667725,Tue Dec 02 2025 15:18:37 GMT-0600 (Central Standard Time),608404.2999999821,A,train,O,n,218,,1599.0,606805.2999999821,7713,WL,A,4.0
4,11.19700002670288,learn,48802.99997329712,Tue Dec 02 2025 15:18:37 GMT-0600 (Central Standard Time),608937.599999994,A,trainenter,O,enter,520,,2132.300000011921,606805.2999999821,7713,WL,A,4.0
4,11.662999868392944,learn,48337.000131607056,Tue Dec 02 2025 15:18:37 GMT-0600 (Central Standard Time),609403.900000006,A,a,O,a,459,,465.90000000596046,608938.0,7713,WL,A,5.0
4,12.213000059127808,learn,47786.99994087219,Tue Dec 02 2025 15:18:37 GMT-0600 (Central Standard Time),609953.7999999821,A,ap,O,p,536,,1015.7999999821186,608938.0,7713,WL,A,5.0
4,12.579999923706055,learn,47420.000076293945,Tue Dec 02 2025 15:18:37 GMT-0600 (Central Standard Time),610320.5,A,app,O,p,346,,1382.5,608938.0,7713,WL,A,5.0
4,12.996000051498413,learn,47003.99994850159,Tue Dec 02 2025 15:18:37 GMT-0600 (Central Standard Time),610736.6999999881,A,appl,O,l,411,,1798.699999988079,608938.0,7713,WL,A,5.0
4,13.246000051498413,learn,46753.99994850159,Tue Dec 02 2025 15:18:37 GMT-0600 (Central Standard Time),610986.7999999821,A,apple,O,e,236,,2048.7999999821186,608938.0,7713,WL,A,5.0
4,13.728999853134155,learn,46271.000146865845,Tue Dec 02 2025 15:18:37 GMT-0600 (Central Standard Time),611470.0,A,appleenter,O,enter,473,,2532.0,608938.0,7713,WL,A,5.0
4,15.161999940872192,learn,44838.00005912781,Tue Dec 02 2025 15:18:37 GMT-0600 (Central Standard Time),612902.6999999881,A,f,O,f,1414,,1432.2999999821186,611470.400000006,7713,WL,A,6.0
4,15.59500002861023,learn,44404.99997138977,Tue Dec 02 2025 15:18:37 GMT-0600 (Central Standard Time),613335.900000006,A,fl,O,l,413,,1865.5,611470.400000006,7713,WL,A,6.0
4,15.894999980926514,learn,44105.000019073486,Tue Dec 02 2025 15:18:37 GMT-0600 (Central Standard Time),613635.900000006,A,flo,O,o,285,,2165.5,611470.400000006,7713,WL,A,6.0
4,16.144999980926514,learn,43855.000019073486,Tue Dec 02 2025 15:18:37 GMT-0600 (Central Standard Time),613885.7999999821,A,flow,O,w,233,,2415.399999976158,611470.400000006,7713,WL,A,6.0
4,16.395999908447266,learn,43604.000091552734,Tue Dec 02 2025 15:18:37 GMT-0600 (Central Standard Time),614136.0,A,flowe,O,e,229,,2665.5999999940395,611470.400000006,7713,WL,A,6.0
4,16.578999996185303,learn,43421.0000038147,Tue Dec 02 2025 15:18:37 GMT-0600 (Central Standard Time),614319.1999999881,A,flower,O,r,173,,2848.7999999821186,611470.400000006,7713,WL,A,6.0
4,17.161999940872192,learn,42838.00005912781,Tue Dec 02 2025 15:18:37 GMT-0600 (Central Standard Time),614902.5,A,flowerenter,O,enter,565,,3432.0999999940395,611470.400000006,7713,WL,A,6.0
4,17.92799997329712,learn,42072.00002670288,Tue Dec 02 2025 15:18:37 GMT-0600 (Central Standard Time),615668.6999999881,A,b,O,b,750,,765.9000000059605,614902.7999999821,7713,WL,A,7.0
4,18.26099991798401,learn,41739.00008201599,Tue Dec 02 2025 15:18:37 GMT-0600 (Central Standard Time),616001.7999999821,A,bo,O,o,320,,1099.0,614902.7999999821,7713,WL,A,7.0
4,18.42799997329712,learn,41572.00002670288,Tue Dec 02 2025 15:18:37 GMT-0600 (Central Standard Time),616168.400000006,A,boo,O,o,154,,1265.6000000238419,614902.7999999821,7713,WL,A,7.0
4,18.76099991798401,learn,41239.00008201599,Tue Dec 02 2025 15:18:37 GMT-0600 (Central Standard Time),616501.6999999881,A,book,O,k,323,,1598.9000000059605,614902.7999999821,7713,WL,A,7.0
4,19.944000005722046,learn,40055.999994277954,Tue Dec 02 2025 15:18:37 GMT-0600 (Central Standard Time),617684.5,A,bookenter,O,enter,1174,,2781.7000000178814,614902.7999999821,7713,WL,A,7.0
4,22.359999895095825,learn,37640.000104904175,Tue Dec 02 2025 15:18:37 GMT-0600 (Central Standard Time),620100.5,A,m,O,m,2407,,2415.7000000178814,617684.7999999821,7713,WL,A,8.0
4,22.57799983024597,learn,37422.00016975403,Tue Dec 02 2025 15:18:37 GMT-0600 (Central Standard Time),620318.0,A,me,O,e,208,,2633.2000000178814,617684.7999999821,7713,WL,A,8.0
4,22.692999839782715,learn,37307.000160217285,Tue Dec 02 2025 15:18:37 GMT-0600 (Central Standard Time),620433.599999994,A,mea,O,a,110,,2748.800000011921,617684.7999999821,7713,WL,A,8.0
4,23.0939998626709,learn,36906.0001373291,Tue Dec 02 2025 15:18:37 GMT-0600 (Central Standard Time),620834.6999999881,A,mead,O,d,394,,3149.9000000059605,617684.7999999821,7713,WL,A,8.0
4,23.276999950408936,learn,36723.000049591064,Tue Dec 02 2025 15:18:37 GMT-0600 (Central Standard Time),621017.1999999881,A,meado,O,o,170,,3332.4000000059605,617684.7999999821,7713,WL,A,8.0
4,23.55999994277954,learn,36440.00005722046,Tue Dec 02 2025 15:18:37 GMT-0600 (Central Standard Time),621300.2999999821,A,meadow,O,w,267,,3615.5,617684.7999999821,7713,WL,A,8.0
4,24.075999975204468,learn,35924.00002479553,Tue Dec 02 2025 15:18:37 GMT-0600 (Central Standard Time),621816.6999999881,A,meadowenter,O,enter,503,,4131.9000000059605,617684.7999999821,7713,WL,A,8.0
4,25.04200005531311,learn,34957.99994468689,Tue Dec 02 2025 15:18:37 GMT-0600 (Central Standard Time),622782.7999999821,A,r,O,r,948,,965.7999999821186,621817.0,7713,WL,A,9.0
4,25.259999990463257,learn,34740.00000953674,Tue Dec 02 2025 15:18:37 GMT-0600 (Central Standard Time),623000.099999994,A,ru,O,u,197,,1183.0999999940395,621817.0,7713,WL,A,9.0
4,25.491999864578247,learn,34508.00013542175,Tue Dec 02 2025 15:18:37 GMT-0600 (Central Standard Time),623232.900000006,A,rug,O,g,220,,1415.9000000059605,621817.0,7713,WL,A,9.0
4,25.842000007629395,learn,34157.999992370605,Tue Dec 02 2025 15:18:37 GMT-0600 (Central Standard Time),623582.6999999881,A,rugenter,O,enter,331,,1765.699999988079,621817.0,7713,WL,A,9.0
4,28.507999897003174,learn,31492.000102996826,Tue Dec 02 2025 15:18:37 GMT-0600 (Central Standard Time),626248.5,A,b,O,b,2646,,2665.5,623583.0,7713,WL,A,10.0
4,28.70799994468689,learn,31292.00005531311,Tue Dec 02 2025 15:18:37 GMT-0600 (Central Standard Time),626448.5,A,bu,O,u,180,,2865.5,623583.0,7713,WL,A,10.0
4,29.075000047683716,learn,30924.999952316284,Tue Dec 02 2025 15:18:37 GMT-0600 (Central Standard Time),626815.1999999881,A,but,O,t,355,,3232.199999988079,623583.0,7713,WL,A,10.0
4,29.29099988937378,learn,30709.00011062622,Tue Dec 02 2025 15:18:37 GMT-0600 (Central Standard Time),627031.7999999821,A,butt,O,t,196,,3448.7999999821186,623583.0,7713,WL,A,10.0
4,29.62399983406067,learn,30376.00016593933,Tue Dec 02 2025 15:18:37 GMT-0600 (Central Standard Time),627365.0,A,butto,O,o,316,,3782.0,623583.0,7713,WL,A,10.0
4,29.87399983406067,learn,30126.00016593933,Tue Dec 02 2025 15:18:37 GMT-0600 (Central Standard Time),627614.900000006,A,button,O,n,231,,4031.9000000059605,623583.0,7713,WL,A,10.0
4,30.240999937057495,learn,29759.000062942505,Tue Dec 02 2025 15:18:37 GMT-0600 (Central Standard Time),627981.5,A,buttonenter,O,enter,357,,4398.5,623583.0,7713,WL,A,10.0
4,31.924000024795532,learn,28075.999975204468,Tue Dec 02 2025 15:18:37 GMT-0600 (Central Standard Time),629664.099999994,A,h,O,h,1671,,1682.300000011921,627981.7999999821,7713,WL,A,11.0
4,32.12399983406067,learn,27876.00016593933,Tue Dec 02 2025 15:18:37 GMT-0600 (Central Standard Time),629864.099999994,A,ha,O,a,188,,1882.300000011921,627981.7999999821,7713,WL,A,11.0
4,32.33999991416931,learn,27660.00008583069,Tue Dec 02 2025 15:18:37 GMT-0600 (Central Standard Time),630080.900000006,A,har,O,r,197,,2099.100000023842,627981.7999999821,7713,WL,A,11.0
4,32.889999866485596,learn,27110.000133514404,Tue Dec 02 2025 15:18:37 GMT-0600 (Central Standard Time),630630.599999994,A,harp,O,p,539,,2648.800000011921,627981.7999999821,7713,WL,A,11.0
4,33.49000000953674,learn,26509.999990463257,Tue Dec 02 2025 15:18:37 GMT-0600 (Central Standard Time),631230.099999994,A,harpenter,O,enter,589,,3248.300000011921,627981.7999999821,7713,WL,A,11.0
4,34.25600004196167,learn,25743.99995803833,Tue Dec 02 2025 15:18:37 GMT-0600 (Central Standard Time),631996.900000006,A,s,O,s,750,,766.6000000238419,631230.2999999821,7713,WL,A,12.0
4,34.45599985122681,learn,25544.000148773193,Tue Dec 02 2025 15:18:37 GMT-0600 (Central Standard Time),632196.7999999821,A,sa,O,a,191,,966.5,631230.2999999821,7713,WL,A,12.0
4,34.85599994659424,learn,25144.00005340576,Tue Dec 02 2025 15:18:37 GMT-0600 (Central Standard Time),632596.6999999881,A,sal,O,l,382,,1366.4000000059605,631230.2999999821,7713,WL,A,12.0
4,35.23899984359741,learn,24761.000156402588,Tue Dec 02 2025 15:18:37 GMT-0600 (Central Standard Time),632979.900000006,A,salt,O,t,376,,1749.6000000238419,631230.2999999821,7713,WL,A,12.0
4,35.98899984359741,learn,24011.000156402588,Tue Dec 02 2025 15:18:37 GMT-0600 (Central Standard Time),633729.5,A,saltenter,O,enter,745,,2499.2000000178814,631230.2999999821,7713,WL,A,12.0
4,48.2189998626709,learn,11781.000137329102,Tue Dec 02 2025 15:18:37 GMT-0600 (Central Standard Time),645960.0,A,s,O,s,12211,,12230.300000011921,633729.6999999881,7713,WL,A,13.0
4,48.418999910354614,learn,11581.000089645386,Tue Dec 02 2025 15:18:37 GMT-0600 (Central Standard Time),646159.2999999821,A,sa,O,a,188,,12429.59999999404,633729.6999999881,7713,WL,A,13.0
4,48.85199999809265,learn,11148.000001907349,Tue Dec 02 2025 15:18:37 GMT-0600 (Central Standard Time),646592.1999999881,A,sal,O,l,412,,12862.5,633729.6999999881,7713,WL,A,13.0
4,49.36800003051758,learn,10631.999969482422,Tue Dec 02 2025 15:18:37 GMT-0600 (Central Standard Time),647108.6999999881,A,salt,O,t,499,,13379.0,633729.6999999881,7713,WL,A,13.0
4,49.63499999046326,learn,10365.000009536743,Tue Dec 02 2025 15:18:37 GMT-0600 (Central Standard Time),647375.2999999821,A,saltenter,O,enter,247,,13645.59999999404,633729.6999999881,7713,WL,A,13.0
4,54.25,learn,5750.0,Tue Dec 02 2025 15:18:37 GMT-0600 (Central Standard Time),651990.7999999821,A,k,O,k,4605,,4615.199999988079,647375.599999994,7713,WL,A,14.0
4,54.48300004005432,learn,5516.999959945679,Tue Dec 02 2025 15:18:37 GMT-0600 (Central Standard Time),652223.900000006,A,ke,O,e,212,,4848.300000011921,647375.599999994,7713,WL,A,14.0
4,54.91700005531311,learn,5082.99994468689,Tue Dec 02 2025 15:18:37 GMT-0600 (Central Standard Time),652657.0,A,key,O,y,421,,5281.4000000059605,647375.599999994,7713,WL,A,14.0
4,55.31699991226196,learn,4683.000087738037,Tue Dec 02 2025 15:18:37 GMT-0600 (Central Standard Time),653057.900000006,A,keyenter,O,enter,394,,5682.300000011921,647375.599999994,7713,WL,A,14.0
4,58.680999994277954,learn,1319.000005722046,Tue Dec 02 2025 15:18:37 GMT-0600 (Central Standard Time),656422.5,A,l,O,l,3346,,3364.300000011921,653058.1999999881,7713,WL,A,15.0
4,58.914000034332275,learn,1085.9999656677246,Tue Dec 02 2025 15:18:37 GMT-0600 (Central Standard Time),656655.6999999881,A,lo,O,o,221,,3597.5,653058.1999999881,7713,WL,A,15.0
4,59.164000034332275,learn,835.9999656677246,Tue Dec 02 2025 15:18:37 GMT-0600 (Central Standard Time),656905.7999999821,A,log,O,g,237,,3847.5999999940395,653058.1999999881,7713,WL,A,15.0
4,59.431999921798706,learn,568.000078201294,Tue Dec 02 2025 15:18:37 GMT-0600 (Central Standard Time),657173.2999999821,A,logenter,O,enter,258,,4115.0999999940395,653058.1999999881,7713,WL,A,15.0
5,2.0160000324249268,learn,60000.0,Tue Dec 02 2025 15:18:37 GMT-0600 (Central Standard Time),727250.1999999881,A,b,O,b,2007,,2015.0,725235.1999999881,7713,WL,A,1.0
5,2.383000135421753,learn,60000.0,Tue Dec 02 2025 15:18:37 GMT-0600 (Central Standard Time),727617.900000006,A,bo,O,o,361,,2382.7000000178814,725235.1999999881,7713,WL,A,1.0
5,2.565000057220459,learn,60000.0,Tue Dec 02 2025 15:18:37 GMT-0600 (Central Standard Time),727800.0,A,boo,O,o,170,,2564.800000011921,725235.1999999881,7713,WL,A,1.0
5,2.949000120162964,learn,60000.0,Tue Dec 02 2025 15:18:37 GMT-0600 (Central Standard Time),728183.099999994,A,book,O,k,372,,2947.9000000059605,725235.1999999881,7713,WL,A,1.0
5,4.0320000648498535,learn,60000.0,Tue Dec 02 2025 15:18:37 GMT-0600 (Central Standard Time),729266.400000006,A,bookenter,O,enter,1076,,4031.2000000178814,725235.1999999881,7713,WL,A,1.0
5,4.765000104904175,learn,60000.0,Tue Dec 02 2025 15:18:37 GMT-0600 (Central Standard Time),729999.6999999881,A,t,O,t,722,,733.0,729266.6999999881,7713,WL,A,2.0
5,5.031000137329102,learn,60000.0,Tue Dec 02 2025 15:18:37 GMT-0600 (Central Standard Time),730265.7999999821,A,tr,O,r,259,,999.0999999940395,729266.6999999881,7713,WL,A,2.0
5,5.180999994277954,learn,60000.0,Tue Dec 02 2025 15:18:37 GMT-0600 (Central Standard Time),730416.0,A,tra,O,a,129,,1149.300000011921,729266.6999999881,7713,WL,A,2.0
5,5.414999961853027,learn,60000.0,Tue Dec 02 2025 15:18:37 GMT-0600 (Central Standard Time),730649.599999994,A,trai,O,i,219,,1382.9000000059605,729266.6999999881,7713,WL,A,2.0
5,5.698000192642212,learn,60000.0,Tue Dec 02 2025 15:18:37 GMT-0600 (Central Standard Time),730932.5,A,train,O,n,273,,1665.800000011921,729266.6999999881,7713,WL,A,2.0
5,6.114000082015991,learn,60000.0,Tue Dec 02 2025 15:18:37 GMT-0600 (Central Standard Time),731349.0,A,trainenter,O,enter,400,,2082.300000011921,729266.6999999881,7713,WL,A,2.0
5,6.781000137329102,learn,60000.0,Tue Dec 02 2025 15:18:37 GMT-0600 (Central Standard Time),732015.5,A,f,O,f,646,,666.0999999940395,731349.400000006,7713,WL,A,3.0
5,6.998000144958496,learn,60000.0,Tue Dec 02 2025 15:18:37 GMT-0600 (Central Standard Time),732232.1999999881,A,fl,O,l,196,,882.7999999821186,731349.400000006,7713,WL,A,3.0
5,7.21399998664856,learn,60000.0,Tue Dec 02 2025 15:18:37 GMT-0600 (Central Standard Time),732448.5,A,flo,O,o,211,,1099.0999999940395,731349.400000006,7713,WL,A,3.0
5,7.430999994277954,learn,60000.0,Tue Dec 02 2025 15:18:37 GMT-0600 (Central Standard Time),732665.5,A,flow,O,w,196,,1316.0999999940395,731349.400000006,7713,WL,A,3.0
5,7.697000026702881,learn,60000.0,Tue Dec 02 2025 15:18:37 GMT-0600 (Central Standard Time),732931.7999999821,A,flowe,O,e,259,,1582.3999999761581,731349.400000006,7713,WL,A,3.0
5,7.914000034332275,learn,60000.0,Tue Dec 02 2025 15:18:37 GMT-0600 (Central Standard Time),733148.400000006,A,flower,O,r,209,,1799.0,731349.400000006,7713,WL,A,3.0
5,8.297000169754028,learn,60000.0,Tue Dec 02 2025 15:18:37 GMT-0600 (Central Standard Time),733531.900000006,A,flowerenter,O,enter,368,,2182.5,731349.400000006,7713,WL,A,3.0
5,9.880000114440918,learn,60000.0,Tue Dec 02 2025 15:18:37 GMT-0600 (Central Standard Time),735114.5,A,m,O,m,1569,,1582.4000000059605,733532.099999994,7713,WL,A,4.0
5,10.097000122070312,learn,60000.0,Tue Dec 02 2025 15:18:37 GMT-0600 (Central Standard Time),735331.2999999821,A,me,O,e,202,,1799.199999988079,733532.099999994,7713,WL,A,4.0
5,10.196000099182129,learn,60000.0,Tue Dec 02 2025 15:18:37 GMT-0600 (Central Standard Time),735431.0,A,mea,O,a,88,,1898.9000000059605,733532.099999994,7713,WL,A,4.0
5,10.630000114440918,learn,60000.0,Tue Dec 02 2025 15:18:37 GMT-0600 (Central Standard Time),735864.2999999821,A,mead,O,d,413,,2332.199999988079,733532.099999994,7713,WL,A,4.0
5,10.812999963760376,learn,60000.0,Tue Dec 02 2025 15:18:37 GMT-0600 (Central Standard Time),736047.5,A,meado,O,o,172,,2515.4000000059605,733532.099999994,7713,WL,A,4.0
5,11.080000162124634,learn,60000.0,Tue Dec 02 2025 15:18:37 GMT-0600 (Central Standard Time),736314.0,A,meadow,O,w,260,,2781.9000000059605,733532.099999994,7713,WL,A,4.0
5,11.446000099182129,learn,60000.0,Tue Dec 02 2025 15:18:37 GMT-0600 (Central Standard Time),736681.099999994,A,meadowenter,O,enter,354,,3149.0,733532.099999994,7713,WL,A,4.0
5,12.078999996185303,learn,60000.0,Tue Dec 02 2025 15:18:37 GMT-0600 (Central Standard Time),737313.6999999881,A,r,O,r,628,,632.2999999821186,736681.400000006,7713,WL,A,5.0
5,12.279000043869019,learn,60000.0,Tue Dec 02 2025 15:18:37 GMT-0600 (Central Standard Time),737513.599999994,A,ru,O,u,194,,832.1999999880791,736681.400000006,7713,WL,A,5.0
5,12.51200008392334,learn,60000.0,Tue Dec 02 2025 15:18:37 GMT-0600 (Central Standard Time),737747.0,A,rug,O,g,218,,1065.5999999940395,736681.400000006,7713,WL,A,5.0
5,12.86300015449524,learn,60000.0,Tue Dec 02 2025 15:18:37 GMT-0600 (Central Standard Time),738097.7999999821,A,rugenter,O,enter,329,,1416.3999999761581,736681.400000006,7713,WL,A,5.0
5,13.812000036239624,learn,60000.0,Tue Dec 02 2025 15:18:37 GMT-0600 (Central Standard Time),739046.599999994,A,l,O,l,931,,948.4000000059605,738098.1999999881,7713,WL,A,6.0
5,14.128000020980835,learn,60000.0,Tue Dec 02 2025 15:18:37 GMT-0600 (Central Standard Time),739362.900000006,A,lo,O,o,310,,1264.7000000178814,738098.1999999881,7713,WL,A,6.0
5,14.412000179290771,learn,60000.0,Tue Dec 02 2025 15:18:37 GMT-0600 (Central Standard Time),739646.2999999821,A,log,O,g,265,,1548.0999999940395,738098.1999999881,7713,WL,A,6.0
5,14.778000116348267,learn,60000.0,Tue Dec 02 2025 15:18:37 GMT-0600 (Central Standard Time),740012.900000006,A,logenter,O,enter,358,,1914.7000000178814,738098.1999999881,7713,WL,A,6.0
5,16.92900013923645,learn,60000.0,Tue Dec 02 2025 15:18:37 GMT-0600 (Central Standard Time),742163.6999999881,A,c,O,c,2144,,2150.2999999821186,740013.400000006,7713,WL,A,7.0
5,17.111000061035156,learn,60000.0,Tue Dec 02 2025 15:18:37 GMT-0600 (Central Standard Time),742345.2999999821,A,ch,O,h,175,,2331.899999976158,740013.400000006,7713,WL,A,7.0
5,17.361000061035156,learn,60000.0,Tue Dec 02 2025 15:18:37 GMT-0600 (Central Standard Time),742595.400000006,A,chi,O,i,234,,2582.0,740013.400000006,7713,WL,A,7.0
5,17.97699999809265,learn,60000.0,Tue Dec 02 2025 15:18:37 GMT-0600 (Central Standard Time),743212.0,A,chim,O,m,600,,3198.5999999940395,740013.400000006,7713,WL,A,7.0
5,18.344000101089478,learn,60000.0,Tue Dec 02 2025 15:18:37 GMT-0600 (Central Standard Time),743578.5,A,chimn,O,n,351,,3565.0999999940395,740013.400000006,7713,WL,A,7.0
5,18.5770001411438,learn,60000.0,Tue Dec 02 2025 15:18:37 GMT-0600 (Central Standard Time),743812.0,A,chimne,O,e,217,,3798.5999999940395,740013.400000006,7713,WL,A,7.0
5,18.91000008583069,learn,60000.0,Tue Dec 02 2025 15:18:37 GMT-0600 (Central Standard Time),744145.099999994,A,chimney,O,y,328,,4131.699999988079,740013.400000006,7713,WL,A,7.0
5,19.427000045776367,learn,60000.0,Tue Dec 02 2025 15:18:37 GMT-0600 (Central Standard Time),744661.2999999821,A,chimneyenter,O,enter,499,,4647.899999976158,740013.400000006,7713,WL,A,7.0
5,20.193000078201294,learn,60000.0,Tue Dec 02 2025 15:18:37 GMT-0600 (Central Standard Time),745427.7999999821,A,s,O,s,751,,766.0999999940395,744661.6999999881,7713,WL,A,8.0
5,20.39300012588501,learn,60000.0,Tue Dec 02 2025 15:18:37 GMT-0600 (Central Standard Time),745627.6999999881,A,sa,O,a,185,,966.0,744661.6999999881,7713,WL,A,8.0
5,20.610000133514404,learn,60000.0,Tue Dec 02 2025 15:18:37 GMT-0600 (Central Standard Time),745844.599999994,A,sal,O,l,208,,1182.9000000059605,744661.6999999881,7713,WL,A,8.0
5,21.193000078201294,learn,60000.0,Tue Dec 02 2025 15:18:37 GMT-0600 (Central Standard Time),746427.5,A,salt,O,t,567,,1765.800000011921,744661.6999999881,7713,WL,A,8.0
5,21.4760000705719,learn,60000.0,Tue Dec 02 2025 15:18:37 GMT-0600 (Central Standard Time),746710.7999999821,A,saltenter,O,enter,264,,2049.0999999940395,744661.6999999881,7713,WL,A,8.0
5,22.176000118255615,learn,60000.0,Tue Dec 02 2025 15:18:37 GMT-0600 (Central Standard Time),747410.6999999881,A,h,O,h,685,,699.5,746711.1999999881,7713,WL,A,9.0
5,22.325999975204468,learn,60000.0,Tue Dec 02 2025 15:18:37 GMT-0600 (Central Standard Time),747560.599999994,A,ha,O,a,130,,849.4000000059605,746711.1999999881,7713,WL,A,9.0
5,22.542999982833862,learn,60000.0,Tue Dec 02 2025 15:18:37 GMT-0600 (Central Standard Time),747777.2999999821,A,har,O,r,212,,1066.0999999940395,746711.1999999881,7713,WL,A,9.0
5,23.44000005722046,learn,60000.0,Tue Dec 02 2025 15:18:37 GMT-0600 (Central Standard Time),748674.599999994,A,harp,O,p,892,,1963.4000000059605,746711.1999999881,7713,WL,A,9.0
5,23.95900011062622,learn,60000.0,Tue Dec 02 2025 15:18:37 GMT-0600 (Central Standard Time),749193.400000006,A,harpenter,O,enter,505,,2482.2000000178814,746711.1999999881,7713,WL,A,9.0
5,24.692000150680542,learn,60000.0,Tue Dec 02 2025 15:18:37 GMT-0600 (Central Standard Time),749926.599999994,A,g,O,g,714,,732.6999999880791,749193.900000006,7713,WL,A,10.0
5,24.858999967575073,learn,60000.0,Tue Dec 02 2025 15:18:37 GMT-0600 (Central Standard Time),750093.099999994,A,go,O,o,150,,899.1999999880791,749193.900000006,7713,WL,A,10.0
5,25.10800004005432,learn,60000.0,Tue Dec 02 2025 15:18:37 GMT-0600 (Central Standard Time),750343.0,A,gol,O,l,230,,1149.0999999940395,749193.900000006,7713,WL,A,10.0
5,25.39199995994568,learn,60000.0,Tue Dec 02 2025 15:18:37 GMT-0600 (Central Standard Time),750626.1999999881,A,gold,O,d,276,,1432.2999999821186,749193.900000006,7713,WL,A,10.0
5,25.95800018310547,learn,60000.0,Tue Dec 02 2025 15:18:37 GMT-0600 (Central Standard Time),751192.900000006,A,goldenter,O,enter,546,,1999.0,749193.900000006,7713,WL,A,10.0
5,27.141000032424927,learn,60000.0,Tue Dec 02 2025 15:18:37 GMT-0600 (Central Standard Time),752376.0,A,k,O,k,1171,,1182.7000000178814,751193.2999999821,7713,WL,A,11.0
5,27.324000120162964,learn,60000.0,Tue Dec 02 2025 15:18:37 GMT-0600 (Central Standard Time),752558.7999999821,A,ke,O,e,172,,1365.5,751193.2999999821,7713,WL,A,11.0
5,27.70800018310547,learn,60000.0,Tue Dec 02 2025 15:18:37 GMT-0600 (Central Standard Time),752942.6999999881,A,key,O,y,366,,1749.4000000059605,751193.2999999821,7713,WL,A,11.0
5,28.19099998474121,learn,60000.0,Tue Dec 02 2025 15:18:37 GMT-0600 (Central Standard Time),753425.099999994,A,keyenter,O,enter,477,,2231.800000011921,751193.2999999821,7713,WL,A,11.0
5,29.124000072479248,learn,60000.0,Tue Dec 02 2025 15:18:37 GMT-0600 (Central Standard Time),754358.599999994,A,l,O,l,923,,933.1999999880791,753425.400000006,7713,WL,A,12.0
5,29.374000072479248,learn,60000.0,Tue Dec 02 2025 15:18:37 GMT-0600 (Central Standard Time),754608.400000006,A,lo,O,o,237,,1183.0,753425.400000006,7713,WL,A,12.0
5,29.624000072479248,learn,60000.0,Tue Dec 02 2025 15:18:37 GMT-0600 (Central Standard Time),754858.5,A,log,O,g,244,,1433.0999999940395,753425.400000006,7713,WL,A,12.0
5,29.94000005722046,learn,60000.0,Tue Dec 02 2025 15:18:37 GMT-0600 (Central Standard Time),755174.6999999881,A,logenter,O,enter,306,,1749.2999999821186,753425.400000006,7713,WL,A,12.0
5,36.9539999961853,learn,60000.0,Tue Dec 02 2025 15:18:37 GMT-0600 (Central Standard Time),762189.0,A,f,O,f,6998,,7014.0,755175.0,7713,WL,A,13.0
5,37.15499997138977,learn,60000.0,Tue Dec 02 2025 15:18:37 GMT-0600 (Central Standard Time),762389.1999999881,A,fi,O,i,190,,7214.199999988079,755175.0,7713,WL,A,13.0
5,37.354000091552734,learn,60000.0,Tue Dec 02 2025 15:18:37 GMT-0600 (Central Standard Time),762589.099999994,A,fin,O,n,191,,7414.0999999940395,755175.0,7713,WL,A,13.0
5,37.72100019454956,learn,60000.0,Tue Dec 02 2025 15:18:37 GMT-0600 (Central Standard Time),762955.7999999821,A,fing,O,g,360,,7780.799999982119,755175.0,7713,WL,A,13.0
5,37.937999963760376,learn,60000.0,Tue Dec 02 2025 15:18:37 GMT-0600 (Central Standard Time),763172.599999994,A,finge,O,e,208,,7997.5999999940395,755175.0,7713,WL,A,13.0
5,38.07100009918213,learn,60000.0,Tue Dec 02 2025 15:18:37 GMT-0600 (Central Standard Time),763305.5,A,finger,O,r,127,,8130.5,755175.0,7713,WL,A,13.0
5,38.587000131607056,learn,60000.0,Tue Dec 02 2025 15:18:37 GMT-0600 (Central Standard Time),763822.0,A,fingerenter,O,enter,499,,8647.0,755175.0,7713,WL,A,13.0
5,51.51600003242493,learn,60000.0,Tue Dec 02 2025 15:18:37 GMT-0600 (Central Standard Time),776751.599999994,A,b,O,b,12918,,12929.300000011921,763822.2999999821,7713,WL,A,14.0
5,51.79900002479553,learn,60000.0,Tue Dec 02 2025 15:18:37 GMT-0600 (Central Standard Time),777034.599999994,A,bu,O,u,275,,13212.300000011921,763822.2999999821,7713,WL,A,14.0
5,52.23200011253357,learn,60000.0,Tue Dec 02 2025 15:18:37 GMT-0600 (Central Standard Time),777467.7999999821,A,but,O,t,425,,13645.5,763822.2999999821,7713,WL,A,14.0
5,52.432000160217285,learn,60000.0,Tue Dec 02 2025 15:18:37 GMT-0600 (Central Standard Time),777667.6999999881,A,butt,O,t,184,,13845.40000000596,763822.2999999821,7713,WL,A,14.0
5,52.682000160217285,learn,60000.0,Tue Dec 02 2025 15:18:37 GMT-0600 (Central Standard Time),777917.6999999881,A,butto,O,o,232,,14095.40000000596,763822.2999999821,7713,WL,A,14.0
5,52.866000175476074,learn,60000.0,Tue Dec 02 2025 15:18:37 GMT-0600 (Central Standard Time),778101.1999999881,A,button,O,n,175,,14278.90000000596,763822.2999999821,7713,WL,A,14.0
5,53.41499996185303,learn,60000.0,Tue Dec 02 2025 15:18:37 GMT-0600 (Central Standard Time),778650.900000006,A,buttonenter,O,enter,535,,14828.600000023842,763822.2999999821,7713,WL,A,14.0
5,101.60000014305115,learn,60000.0,Tue Dec 02 2025 15:18:37 GMT-0600 (Central Standard Time),826835.7999999821,A,h,O,h,48177,,48184.59999999404,778651.1999999881,7713,WL,A,15.0
6,1.0499999523162842,distr,58950.000047683716,Tue Dec 02 2025 15:18:37 GMT-0600 (Central Standard Time),897247.1999999881,B,c,O,c,1031,,1049.7999999821186,896197.400000006,7713,WL,A,1.0
6,1.2160000801086426,distr,58783.99991989136,Tue Dec 02 2025 15:18:37 GMT-0600 (Central Standard Time),897413.400000006,B,ch,O,h,155,,1216.0,896197.400000006,7713,WL,A,1.0
6,1.3500001430511475,distr,58649.99985694885,Tue Dec 02 2025 15:18:37 GMT-0600 (Central Standard Time),897546.7999999821,B,cha,O,a,127,,1349.3999999761581,896197.400000006,7713,WL,A,1.0
6,2.183000087738037,distr,57816.99991226196,Tue Dec 02 2025 15:18:37 GMT-0600 (Central Standard Time),898379.6999999881,B,chai,O,i,817,,2182.2999999821186,896197.400000006,7713,WL,A,1.0
6,2.565999984741211,distr,57434.00001525879,Tue Dec 02 2025 15:18:37 GMT-0600 (Central Standard Time),898762.900000006,B,chair,O,r,377,,2565.5,896197.400000006,7713,WL,A,1.0
6,3.5989999771118164,distr,56401.00002288818,Tue Dec 02 2025 15:18:37 GMT-0600 (Central Standard Time),899796.2999999821,B,chairenter,O,enter,1018,,3598.899999976158,896197.400000006,7713,WL,A,1.0
6,4.299000024795532,distr,55700.99997520447,Tue Dec 02 2025 15:18:37 GMT-0600 (Central Standard Time),900496.1999999881,B,b,O,b,679,,699.5999999940395,899796.599999994,7713,WL,A,2.0
6,4.499000072479248,distr,55500.99992752075,Tue Dec 02 2025 15:18:37 GMT-0600 (Central Standard Time),900695.900000006,B,bo,O,o,179,,899.3000000119209,899796.599999994,7713,WL,A,2.0
6,4.681999921798706,distr,55318.000078201294,Tue Dec 02 2025 15:18:37 GMT-0600 (Central Standard Time),900879.400000006,B,bow,O,w,164,,1082.800000011921,899796.599999994,7713,WL,A,2.0
6,5.197999954223633,distr,54802.00004577637,Tue Dec 02 2025 15:18:37 GMT-0600 (Central Standard Time),901395.5,B,bowl,O,l,501,,1598.9000000059605,899796.599999994,7713,WL,A,2.0
6,5.681999921798706,distr,54318.000078201294,Tue Dec 02 2025 15:18:37 GMT-0600 (Central Standard Time),901879.1999999881,B,bowlenter,O,enter,465,,2082.5999999940395,899796.599999994,7713,WL,A,2.0
6,6.365000009536743,distr,53634.99999046326,Tue Dec 02 2025 15:18:37 GMT-0600 (Central Standard Time),902561.900000006,B,g,O,g,677,,682.3000000119209,901879.599999994,7713,WL,A,3.0
6,6.631999969482422,distr,53368.00003051758,Tue Dec 02 2025 15:18:37 GMT-0600 (Central Standard Time),902828.5,B,gr,O,r,250,,948.9000000059605,901879.599999994,7713,WL,A,3.0
6,6.781000137329102,distr,53218.9998626709,Tue Dec 02 2025 15:18:37 GMT-0600 (Central Standard Time),902978.5,B,gra,O,a,143,,1098.9000000059605,901879.599999994,7713,WL,A,3.0
6,7.04800009727478,distr,52951.99990272522,Tue Dec 02 2025 15:18:37 GMT-0600 (Central Standard Time),903244.7999999821,B,gran,O,n,257,,1365.199999988079,901879.599999994,7713,WL,A,3.0
6,7.447999954223633,distr,52552.00004577637,Tue Dec 02 2025 15:18:37 GMT-0600 (Central Standard Time),903645.0,B,grant,O,t,383,,1765.4000000059605,901879.599999994,7713,WL,A,3.0
6,7.88100004196167,distr,52118.99995803833,Tue Dec 02 2025 15:18:37 GMT-0600 (Central Standard Time),904078.1999999881,B,grantenter,O,enter,423,,2198.5999999940395,901879.599999994,7713,WL,A,3.0
6,9.496999979019165,distr,50503.000020980835,Tue Dec 02 2025 15:18:37 GMT-0600 (Central Standard Time),905694.099999994,B,s,O,s,1605,,1615.5999999940395,904078.5,7713,WL,A,4.0
6,9.814000129699707,distr,50185.99987030029,Tue Dec 02 2025 15:18:37 GMT-0600 (Central Standard Time),906011.0,B,sh,O,h,309,,1932.5,904078.5,7713,WL,A,4.0
6,10.130000114440918,distr,49869.99988555908,Tue Dec 02 2025 15:18:37 GMT-0600 (Central Standard Time),906327.400000006,B,she,O,e,296,,2248.9000000059605,904078.5,7713,WL,A,4.0
6,10.331000089645386,distr,49668.999910354614,Tue Dec 02 2025 15:18:37 GMT-0600 (Central Standard Time),906527.900000006,B,shee,O,e,180,,2449.4000000059605,904078.5,7713,WL,A,4.0
6,12.946000099182129,distr,47053.99990081787,Tue Dec 02 2025 15:18:37 GMT-0600 (Central Standard Time),909143.5,B,sheep,O,p,2596,,5065.0,904078.5,7713,WL,A,4.0
6,13.513000011444092,distr,46486.99998855591,Tue Dec 02 2025 15:18:37 GMT-0600 (Central Standard Time),909709.6999999881,B,sheepenter,O,enter,557,,5631.199999988079,904078.5,7713,WL,A,4.0
6,25.426000118255615,distr,34573.999881744385,Tue Dec 02 2025 15:18:37 GMT-0600 (Central Standard Time),921622.599999994,B,p,O,p,11903,,11912.40000000596,909710.1999999881,7713,WL,A,5.0
6,25.659000158309937,distr,34340.99984169006,Tue Dec 02 2025 15:18:37 GMT-0600 (Central Standard Time),921856.0,B,pe,O,e,212,,12145.800000011921,909710.1999999881,7713,WL,A,5.0
6,25.77500009536743,distr,34224.99990463257,Tue Dec 02 2025 15:18:37 GMT-0600 (Central Standard Time),921972.400000006,B,pea,O,a,100,,12262.200000017881,909710.1999999881,7713,WL,A,5.0
6,26.225000143051147,distr,33774.99985694885,Tue Dec 02 2025 15:18:37 GMT-0600 (Central Standard Time),922422.2999999821,B,peac,O,c,439,,12712.09999999404,909710.1999999881,7713,WL,A,5.0
6,26.424999952316284,distr,33575.000047683716,Tue Dec 02 2025 15:18:37 GMT-0600 (Central Standard Time),922622.1999999881,B,peach,O,h,181,,12912.0,909710.1999999881,7713,WL,A,5.0
6,26.875,distr,33125.0,Tue Dec 02 2025 15:18:37 GMT-0600 (Central Standard Time),923072.2999999821,B,peachenter,O,enter,429,,13362.09999999404,909710.1999999881,7713,WL,A,5.0
6,35.10599994659424,distr,24894.00005340576,Tue Dec 02 2025 15:18:37 GMT-0600 (Central Standard Time),931303.0,B,c,O,c,8211,,8230.300000011921,923072.6999999881,7713,WL,A,6.0
6,35.27300000190735,distr,24726.99999809265,Tue Dec 02 2025 15:18:37 GMT-0600 (Central Standard Time),931469.6999999881,B,co,O,o,157,,8397.0,923072.6999999881,7713,WL,A,6.0
6,35.638999938964844,distr,24361.000061035156,Tue Dec 02 2025 15:18:37 GMT-0600 (Central Standard Time),931836.1999999881,B,coa,O,a,351,,8763.5,923072.6999999881,7713,WL,A,6.0
6,35.98900008201599,distr,24010.99991798401,Tue Dec 02 2025 15:18:37 GMT-0600 (Central Standard Time),932186.0,B,coat,O,t,335,,9113.300000011921,923072.6999999881,7713,WL,A,6.0
6,36.289000034332275,distr,23710.999965667725,Tue Dec 02 2025 15:18:37 GMT-0600 (Central Standard Time),932486.099999994,B,coatenter,O,enter,290,,9413.40000000596,923072.6999999881,7713,WL,A,6.0
6,43.87000012397766,distr,16129.999876022339,Tue Dec 02 2025 15:18:37 GMT-0600 (Central Standard Time),940066.900000006,B,g,O,g,7575,,7580.5,932486.400000006,7713,WL,A,7.0
6,44.12000012397766,distr,15879.999876022339,Tue Dec 02 2025 15:18:37 GMT-0600 (Central Standard Time),940316.900000006,B,gd,O,d,241,,7830.5,932486.400000006,7713,WL,A,7.0
6,44.15300011634827,distr,15846.999883651733,Tue Dec 02 2025 15:18:37 GMT-0600 (Central Standard Time),940350.1999999881,B,gdr,O,r,15,,7863.799999982119,932486.400000006,7713,WL,A,7.0
6,44.335999965667725,distr,15664.000034332275,Tue Dec 02 2025 15:18:37 GMT-0600 (Central Standard Time),940533.2999999821,B,gdra,O,a,174,,8046.899999976158,932486.400000006,7713,WL,A,7.0
6,45.085999965667725,distr,14914.000034332275,Tue Dec 02 2025 15:18:37 GMT-0600 (Central Standard Time),941283.099999994,B,gdr,O,backspace,742,,8796.699999988079,932486.400000006,7713,WL,A,7.0
6,45.40300011634827,distr,14596.999883651733,Tue Dec 02 2025 15:18:37 GMT-0600 (Central Standard Time),941600.0,B,gd,O,backspace,305,,9113.59999999404,932486.400000006,7713,WL,A,7.0
6,45.68600010871887,distr,14313.999891281128,Tue Dec 02 2025 15:18:37 GMT-0600 (Central Standard Time),941883.0,B,g,O,backspace,275,,9396.59999999404,932486.400000006,7713,WL,A,7.0
6,46.25200009346008,distr,13747.999906539917,Tue Dec 02 2025 15:18:37 GMT-0600 (Central Standard Time),942449.2999999821,B,gr,O,r,561,,9962.899999976158,932486.400000006,7713,WL,A,7.0
6,46.43600010871887,distr,13563.999891281128,Tue Dec 02 2025 15:18:37 GMT-0600 (Central Standard Time),942632.599999994,B,gra,O,a,178,,10146.199999988079,932486.400000006,7713,WL,A,7.0
6,46.63600015640259,distr,13363.999843597412,Tue Dec 02 2025 15:18:37 GMT-0600 (Central Standard Time),942832.6999999881,B,gran,O,n,180,,10346.299999982119,932486.400000006,7713,WL,A,7.0
6,47.10199999809265,distr,12898.000001907349,Tue Dec 02 2025 15:18:37 GMT-0600 (Central Standard Time),943299.2999999821,B,grant,O,t,460,,10812.899999976158,932486.400000006,7713,WL,A,7.0
6,47.58500003814697,distr,12414.999961853027,Tue Dec 02 2025 15:18:37 GMT-0600 (Central Standard Time),943782.400000006,B,grantenter,O,enter,472,,11296.0,932486.400000006,7713,WL,A,7.0
6,48.43499994277954,distr,11565.000057220459,Tue Dec 02 2025 15:18:37 GMT-0600 (Central Standard Time),944632.2999999821,B,c,O,c,829,,849.5999999940395,943782.6999999881,7713,WL,A,8.0
6,48.66799998283386,distr,11332.000017166138,Tue Dec 02 2025 15:18:37 GMT-0600 (Central Standard Time),944865.400000006,B,co,O,o,220,,1082.7000000178814,943782.6999999881,7713,WL,A,8.0
6,48.86899995803833,distr,11131.00004196167,Tue Dec 02 2025 15:18:37 GMT-0600 (Central Standard Time),945066.400000006,B,cou,O,u,194,,1283.7000000178814,943782.6999999881,7713,WL,A,8.0
6,49.16799998283386,distr,10832.000017166138,Tue Dec 02 2025 15:18:37 GMT-0600 (Central Standard Time),945365.0,B,coun,O,n,290,,1582.300000011921,943782.6999999881,7713,WL,A,8.0
6,49.45099997520447,distr,10549.000024795532,Tue Dec 02 2025 15:18:37 GMT-0600 (Central Standard Time),945648.2999999821,B,count,O,t,279,,1865.5999999940395,943782.6999999881,7713,WL,A,8.0
6,49.818000078201294,distr,10181.999921798706,Tue Dec 02 2025 15:18:37 GMT-0600 (Central Standard Time),946014.7999999821,B,county,O,y,356,,2232.0999999940395,943782.6999999881,7713,WL,A,8.0
6,50.33500003814697,distr,9664.999961853027,Tue Dec 02 2025 15:18:37 GMT-0600 (Central Standard Time),946531.5,B,countyenter,O,enter,508,,2748.800000011921,943782.6999999881,7713,WL,A,8.0
6,60.013999938964844,distr,-13.99993896484375,Tue Dec 02 2025 15:18:37 GMT-0600 (Central Standard Time),956211.7999999821,B,None,O,None,9676,,9679.899999976158,946531.900000006,7713,WL,A,9.0
7,7.281000137329102,immed,52718.9998626709,Tue Dec 02 2025 15:18:37 GMT-0600 (Central Standard Time),965525.6999999881,A,a,O,a,7273,,7280.9000000059605,958244.7999999821,7713,WL,A,1.0
7,7.88100004196167,immed,52118.99995803833,Tue Dec 02 2025 15:18:37 GMT-0600 (Central Standard Time),966125.5,A,ap,O,p,582,,7880.700000017881,958244.7999999821,7713,WL,A,1.0
7,8.080000162124634,immed,51919.999837875366,Tue Dec 02 2025 15:18:37 GMT-0600 (Central Standard Time),966325.1999999881,A,app,O,p,183,,8080.4000000059605,958244.7999999821,7713,WL,A,1.0
7,8.414000034332275,immed,51585.999965667725,Tue Dec 02 2025 15:18:37 GMT-0600 (Central Standard Time),966658.5,A,appl,O,l,327,,8413.700000017881,958244.7999999821,7713,WL,A,1.0
7,8.997000217437744,immed,51002.999782562256,Tue Dec 02 2025 15:18:37 GMT-0600 (Central Standard Time),967241.5,A,apple,O,e,570,,8996.700000017881,958244.7999999821,7713,WL,A,1.0
7,9.963000059127808,immed,50036.99994087219,Tue Dec 02 2025 15:18:37 GMT-0600 (Central Standard Time),968208.1999999881,A,appleenter,O,enter,946,,9963.40000000596,958244.7999999821,7713,WL,A,1.0
7,10.496000051498413,immed,49503.99994850159,Tue Dec 02 2025 15:18:37 GMT-0600 (Central Standard Time),968741.2999999821,A,a,O,a,515,,532.7999999821186,968208.5,7713,WL,A,2.0
7,11.496000051498413,immed,48503.99994850159,Tue Dec 02 2025 15:18:37 GMT-0600 (Central Standard Time),969740.7999999821,A,,O,backspace,983,,1532.2999999821186,968208.5,7713,WL,A,2.0
7,12.09600019454956,immed,47903.99980545044,Tue Dec 02 2025 15:18:37 GMT-0600 (Central Standard Time),970340.7999999821,A,s,O,s,592,,2132.2999999821186,968208.5,7713,WL,A,2.0
7,12.328999996185303,immed,47671.0000038147,Tue Dec 02 2025 15:18:37 GMT-0600 (Central Standard Time),970573.900000006,A,sa,O,a,216,,2365.4000000059605,968208.5,7713,WL,A,2.0
7,12.546000003814697,immed,47453.9999961853,Tue Dec 02 2025 15:18:37 GMT-0600 (Central Standard Time),970790.6999999881,A,sal,O,l,207,,2582.199999988079,968208.5,7713,WL,A,2.0
7,13.196000099182129,immed,46803.99990081787,Tue Dec 02 2025 15:18:37 GMT-0600 (Central Standard Time),971440.2999999821,A,salt,O,t,637,,3231.7999999821186,968208.5,7713,WL,A,2.0
7,13.629000186920166,immed,46370.999813079834,Tue Dec 02 2025 15:18:37 GMT-0600 (Central Standard Time),971873.2999999821,A,saltenter,O,enter,428,,3664.7999999821186,968208.5,7713,WL,A,2.0
7,14.42900013923645,immed,45570.99986076355,Tue Dec 02 2025 15:18:37 GMT-0600 (Central Standard Time),972673.2999999821,A,h,O,h,779,,799.6999999880791,971873.599999994,7713,WL,A,3.0
7,14.612000226974487,immed,45387.99977302551,Tue Dec 02 2025 15:18:37 GMT-0600 (Central Standard Time),972856.5,A,ha,O,a,171,,982.9000000059605,971873.599999994,7713,WL,A,3.0
7,14.795000076293945,immed,45204.999923706055,Tue Dec 02 2025 15:18:37 GMT-0600 (Central Standard Time),973039.900000006,A,har,O,r,163,,1166.300000011921,971873.599999994,7713,WL,A,3.0
7,15.228000164031982,immed,44771.99983596802,Tue Dec 02 2025 15:18:37 GMT-0600 (Central Standard Time),973473.099999994,A,harp,O,p,429,,1599.5,971873.599999994,7713,WL,A,3.0
7,16.07800006866455,immed,43921.99993133545,Tue Dec 02 2025 15:18:37 GMT-0600 (Central Standard Time),974322.900000006,A,harpenter,O,enter,843,,2449.300000011921,971873.599999994,7713,WL,A,3.0
7,17.611000061035156,immed,42388.999938964844,Tue Dec 02 2025 15:18:37 GMT-0600 (Central Standard Time),975855.7999999821,A,t,O,t,1513,,1532.5999999940395,974323.1999999881,7713,WL,A,4.0
7,17.878000020980835,immed,42121.999979019165,Tue Dec 02 2025 15:18:37 GMT-0600 (Central Standard Time),976123.2999999821,A,tr,O,r,261,,1800.0999999940395,974323.1999999881,7713,WL,A,4.0
7,18.011000156402588,immed,41988.99984359741,Tue Dec 02 2025 15:18:37 GMT-0600 (Central Standard Time),976255.599999994,A,tra,O,a,120,,1932.4000000059605,974323.1999999881,7713,WL,A,4.0
7,18.294000148773193,immed,41705.99985122681,Tue Dec 02 2025 15:18:37 GMT-0600 (Central Standard Time),976538.7999999821,A,trai,O,i,268,,2215.5999999940395,974323.1999999881,7713,WL,A,4.0
7,18.544000148773193,immed,41455.99985122681,Tue Dec 02 2025 15:18:37 GMT-0600 (Central Standard Time),976788.7999999821,A,train,O,n,241,,2465.5999999940395,974323.1999999881,7713,WL,A,4.0
7,19.027000188827515,immed,40972.999811172485,Tue Dec 02 2025 15:18:37 GMT-0600 (Central Standard Time),977271.900000006,A,trainenter,O,enter,462,,2948.7000000178814,974323.1999999881,7713,WL,A,4.0
7,21.276000022888184,immed,38723.99997711182,Tue Dec 02 2025 15:18:37 GMT-0600 (Central Standard Time),979520.900000006,A,m,O,m,2244,,2248.800000011921,977272.099999994,7713,WL,A,5.0
7,21.461000204086304,immed,38538.999795913696,Tue Dec 02 2025 15:18:37 GMT-0600 (Central Standard Time),979705.599999994,A,me,O,e,179,,2433.5,977272.099999994,7713,WL,A,5.0
7,21.593000173568726,immed,38406.999826431274,Tue Dec 02 2025 15:18:37 GMT-0600 (Central Standard Time),979837.5,A,mea,O,a,123,,2565.4000000059605,977272.099999994,7713,WL,A,5.0
7,22.009000062942505,immed,37990.999937057495,Tue Dec 02 2025 15:18:37 GMT-0600 (Central Standard Time),980254.2999999821,A,mead,O,d,398,,2982.199999988079,977272.099999994,7713,WL,A,5.0
7,22.2260000705719,immed,37773.9999294281,Tue Dec 02 2025 15:18:37 GMT-0600 (Central Standard Time),980470.599999994,A,meado,O,o,197,,3198.5,977272.099999994,7713,WL,A,5.0
7,22.4760000705719,immed,37523.9999294281,Tue Dec 02 2025 15:18:37 GMT-0600 (Central Standard Time),980720.900000006,A,meadow,O,w,238,,3448.800000011921,977272.099999994,7713,WL,A,5.0
7,22.87600016593933,immed,37123.99983406067,Tue Dec 02 2025 15:18:37 GMT-0600 (Central Standard Time),981120.400000006,A,meadowenter,O,enter,394,,3848.300000011921,977272.099999994,7713,WL,A,5.0
7,24.159000158309937,immed,35840.99984169006,Tue Dec 02 2025 15:18:37 GMT-0600 (Central Standard Time),982403.5,A,f,O,f,1275,,1282.800000011921,981120.6999999881,7713,WL,A,6.0
7,24.45900011062622,immed,35540.99988937378,Tue Dec 02 2025 15:18:37 GMT-0600 (Central Standard Time),982703.400000006,A,fl,O,l,280,,1582.7000000178814,981120.6999999881,7713,WL,A,6.0
7,24.693000078201294,immed,35306.999921798706,Tue Dec 02 2025 15:18:37 GMT-0600 (Central Standard Time),982938.0,A,flo,O,o,228,,1817.300000011921,981120.6999999881,7713,WL,A,6.0
7,24.942000150680542,immed,35057.99984931946,Tue Dec 02 2025 15:18:37 GMT-0600 (Central Standard Time),983186.6999999881,A,flow,O,w,234,,2066.0,981120.6999999881,7713,WL,A,6.0
7,25.192000150680542,immed,34807.99984931946,Tue Dec 02 2025 15:18:37 GMT-0600 (Central Standard Time),983436.599999994,A,flowe,O,e,241,,2315.9000000059605,981120.6999999881,7713,WL,A,6.0
7,25.407999992370605,immed,34592.000007629395,Tue Dec 02 2025 15:18:37 GMT-0600 (Central Standard Time),983653.1999999881,A,flower,O,r,208,,2532.5,981120.6999999881,7713,WL,A,6.0
7,25.558000087738037,immed,34441.99991226196,Tue Dec 02 2025 15:18:37 GMT-0600 (Central Standard Time),983803.1999999881,A,flowere,O,e,143,,2682.5,981120.6999999881,7713,WL,A,6.0
7,25.94100022315979,immed,34058.99977684021,Tue Dec 02 2025 15:18:37 GMT-0600 (Central Standard Time),984186.1999999881,A,flowereenter,O,enter,376,,3065.5,981120.6999999881,7713,WL,A,6.0
7,26.591000080108643,immed,33408.99991989136,Tue Dec 02 2025 15:18:37 GMT-0600 (Central Standard Time),984836.099999994,A,,O,backspace,634,,649.5999999940395,984186.5,7713,WL,A,7.0
7,30.257000207901,immed,29742.999792099,Tue Dec 02 2025 15:18:37 GMT-0600 (Central Standard Time),988501.6999999881,A,r,O,r,3657,,4315.199999988079,984186.5,7713,WL,A,7.0
7,30.490000009536743,immed,29509.999990463257,Tue Dec 02 2025 15:18:37 GMT-0600 (Central Standard Time),988735.0,A,ru,O,u,214,,4548.5,984186.5,7713,WL,A,7.0
7,30.824000120162964,immed,29175.999879837036,Tue Dec 02 2025 15:18:37 GMT-0600 (Central Standard Time),989068.2999999821,A,rug,O,g,325,,4881.799999982119,984186.5,7713,WL,A,7.0
7,31.157000064849854,immed,28842.999935150146,Tue Dec 02 2025 15:18:37 GMT-0600 (Central Standard Time),989401.400000006,A,rugenter,O,enter,320,,5214.9000000059605,984186.5,7713,WL,A,7.0
7,32.57300019264221,immed,27426.999807357788,Tue Dec 02 2025 15:18:37 GMT-0600 (Central Standard Time),990817.400000006,A,l,O,l,1411,,1415.7000000178814,989401.6999999881,7713,WL,A,8.0
7,32.83900022506714,immed,27160.99977493286,Tue Dec 02 2025 15:18:37 GMT-0600 (Central Standard Time),991084.0,A,lo,O,o,250,,1682.300000011921,989401.6999999881,7713,WL,A,8.0
7,33.07300019264221,immed,26926.999807357788,Tue Dec 02 2025 15:18:37 GMT-0600 (Central Standard Time),991317.5,A,log,O,g,224,,1915.800000011921,989401.6999999881,7713,WL,A,8.0
7,33.456000089645386,immed,26543.999910354614,Tue Dec 02 2025 15:18:37 GMT-0600 (Central Standard Time),991700.599999994,A,logenter,O,enter,374,,2298.9000000059605,989401.6999999881,7713,WL,A,8.0
7,34.33900022506714,immed,25660.99977493286,Tue Dec 02 2025 15:18:37 GMT-0600 (Central Standard Time),992583.599999994,A,b,O,b,872,,882.9000000059605,991700.6999999881,7713,WL,A,9.0
7,34.555999994277954,immed,25444.000005722046,Tue Dec 02 2025 15:18:37 GMT-0600 (Central Standard Time),992800.599999994,A,bu,O,u,196,,1099.9000000059605,991700.6999999881,7713,WL,A,9.0
7,34.872000217437744,immed,25127.999782562256,Tue Dec 02 2025 15:18:37 GMT-0600 (Central Standard Time),993117.0,A,but,O,t,308,,1416.300000011921,991700.6999999881,7713,WL,A,9.0
7,35.039000034332275,immed,24960.999965667725,Tue Dec 02 2025 15:18:37 GMT-0600 (Central Standard Time),993283.400000006,A,butt,O,t,160,,1582.7000000178814,991700.6999999881,7713,WL,A,9.0
7,35.455000162124634,immed,24544.999837875366,Tue Dec 02 2025 15:18:37 GMT-0600 (Central Standard Time),993700.2999999821,A,butto,O,o,409,,1999.5999999940395,991700.6999999881,7713,WL,A,9.0
7,35.705000162124634,immed,24294.999837875366,Tue Dec 02 2025 15:18:37 GMT-0600 (Central Standard Time),993950.099999994,A,button,O,n,240,,2249.4000000059605,991700.6999999881,7713,WL,A,9.0
7,36.38800001144409,immed,23611.99998855591,Tue Dec 02 2025 15:18:37 GMT-0600 (Central Standard Time),994632.900000006,A,buttonenter,O,enter,671,,2932.2000000178814,991700.6999999881,7713,WL,A,9.0
7,37.355000019073486,immed,22644.999980926514,Tue Dec 02 2025 15:18:37 GMT-0600 (Central Standard Time),995599.5,A,r,O,r,947,,966.3000000119209,994633.1999999881,7713,WL,A,10.0
7,37.521000146865845,immed,22478.999853134155,Tue Dec 02 2025 15:18:37 GMT-0600 (Central Standard Time),995766.099999994,A,ra,O,a,149,,1132.9000000059605,994633.1999999881,7713,WL,A,10.0
7,37.90500020980835,immed,22094.99979019165,Tue Dec 02 2025 15:18:37 GMT-0600 (Central Standard Time),996149.5,A,rat,O,t,366,,1516.300000011921,994633.1999999881,7713,WL,A,10.0
7,38.07100009918213,immed,21928.99990081787,Tue Dec 02 2025 15:18:37 GMT-0600 (Central Standard Time),996316.0,A,ratt,O,t,159,,1682.800000011921,994633.1999999881,7713,WL,A,10.0
7,38.354000091552734,immed,21645.999908447266,Tue Dec 02 2025 15:18:37 GMT-0600 (Central Standard Time),996599.099999994,A,rattl,O,l,264,,1965.9000000059605,994633.1999999881,7713,WL,A,10.0
7,38.4539999961853,immed,21546.000003814697,Tue Dec 02 2025 15:18:37 GMT-0600 (Central Standard Time),996699.099999994,A,rattle,O,e,93,,2065.9000000059605,994633.1999999881,7713,WL,A,10.0
7,38.83800005912781,immed,21161.999940872192,Tue Dec 02 2025 15:18:37 GMT-0600 (Central Standard Time),997082.599999994,A,rattleenter,O,enter,368,,2449.4000000059605,994633.1999999881,7713,WL,A,10.0
7,40.13700008392334,immed,19862.99991607666,Tue Dec 02 2025 15:18:37 GMT-0600 (Central Standard Time),998381.900000006,A,k,O,k,1289,,1299.0,997082.900000006,7713,WL,A,11.0
7,40.437000036239624,immed,19562.999963760376,Tue Dec 02 2025 15:18:37 GMT-0600 (Central Standard Time),998681.6999999881,A,ke,O,e,294,,1598.7999999821186,997082.900000006,7713,WL,A,11.0
7,40.754000186920166,immed,19245.999813079834,Tue Dec 02 2025 15:18:37 GMT-0600 (Central Standard Time),998998.400000006,A,key,O,y,307,,1915.5,997082.900000006,7713,WL,A,11.0
7,41.13700008392334,immed,18862.99991607666,Tue Dec 02 2025 15:18:37 GMT-0600 (Central Standard Time),999381.5,A,keyenter,O,enter,365,,2298.5999999940395,997082.900000006,7713,WL,A,11.0
7,42.236000061035156,immed,17763.999938964844,Tue Dec 02 2025 15:18:37 GMT-0600 (Central Standard Time),1000481.1999999881,A,g,O,g,1086,,1099.4000000059605,999381.7999999821,7713,WL,A,12.0
7,42.45300006866455,immed,17546.99993133545,Tue Dec 02 2025 15:18:37 GMT-0600 (Central Standard Time),1000697.900000006,A,go,O,o,210,,1316.1000000238419,999381.7999999821,7713,WL,A,12.0
7,42.72000002861023,immed,17279.99997138977,Tue Dec 02 2025 15:18:37 GMT-0600 (Central Standard Time),1000964.5,A,gol,O,l,258,,1582.7000000178814,999381.7999999821,7713,WL,A,12.0
7,42.95300006866455,immed,17046.99993133545,Tue Dec 02 2025 15:18:37 GMT-0600 (Central Standard Time),1001197.7999999821,A,gold,O,d,224,,1816.0,999381.7999999821,7713,WL,A,12.0
7,43.486000061035156,immed,16513.999938964844,Tue Dec 02 2025 15:18:37 GMT-0600 (Central Standard Time),1001730.900000006,A,goldenter,O,enter,519,,2349.100000023842,999381.7999999821,7713,WL,A,12.0
7,50.03400015830994,immed,9965.999841690063,Tue Dec 02 2025 15:18:37 GMT-0600 (Central Standard Time),1008278.599999994,A,h,O,h,6529,,6547.300000011921,1001731.2999999821,7713,WL,A,13.0
7,50.20100021362305,immed,9798.999786376953,Tue Dec 02 2025 15:18:37 GMT-0600 (Central Standard Time),1008445.599999994,A,ha,O,a,148,,6714.300000011921,1001731.2999999821,7713,WL,A,13.0
7,50.384000062942505,immed,9615.999937057495,Tue Dec 02 2025 15:18:37 GMT-0600 (Central Standard Time),1008628.5,A,har,O,r,167,,6897.200000017881,1001731.2999999821,7713,WL,A,13.0
7,50.78400015830994,immed,9215.999841690063,Tue Dec 02 2025 15:18:37 GMT-0600 (Central Standard Time),1009028.5,A,harenter,O,enter,383,,7297.200000017881,1001731.2999999821,7713,WL,A,13.0
7,56.430999994277954,immed,3569.000005722046,Tue Dec 02 2025 15:18:37 GMT-0600 (Central Standard Time),1014676.7999999821,A,t,O,t,5632,,5648.0,1009028.7999999821,7713,WL,A,14.0
7,56.680999994277954,immed,3319.000005722046,Tue Dec 02 2025 15:18:37 GMT-0600 (Central Standard Time),1014926.599999994,A,tr,O,r,238,,5897.800000011921,1009028.7999999821,7713,WL,A,14.0
7,56.831000089645386,immed,3168.9999103546143,Tue Dec 02 2025 15:18:37 GMT-0600 (Central Standard Time),1015076.599999994,A,tra,O,a,134,,6047.800000011921,1009028.7999999821,7713,WL,A,14.0
7,57.06500005722046,immed,2934.999942779541,Tue Dec 02 2025 15:18:37 GMT-0600 (Central Standard Time),1015310.0,A,trai,O,i,224,,6281.200000017881,1009028.7999999821,7713,WL,A,14.0
7,57.5310001373291,immed,2468.9998626708984,Tue Dec 02 2025 15:18:37 GMT-0600 (Central Standard Time),1015776.400000006,A,train,O,n,462,,6747.600000023842,1009028.7999999821,7713,WL,A,14.0
7,57.96400022506714,immed,2035.9997749328613,Tue Dec 02 2025 15:18:37 GMT-0600 (Central Standard Time),1016209.7999999821,A,trainenter,O,enter,419,,7181.0,1009028.7999999821,7713,WL,A,14.0
7,60.01400017738342,immed,-14.000177383422852,Tue Dec 02 2025 15:18:37 GMT-0600 (Central Standard Time),1018259.0,A,None,O,None,2045,,2048.800000011921,1016210.1999999881,7713,WL,A,15.0
