Number,acc_sum,block,block_c,block_cond,con_img,correct,correct_response,datetime,endtime,jitter,project,response,response_time,row_sel,session_number,start_end,starttime,subject_id,task,task_vers,trial
8,1,prac,1,A,circle.png,1,m,Thu Aug 14 2025 09:05:22 GMT-0500 (Central Daylight Time),70693.19999998808,1600,O,m,883,7,1,3274.099999964237,67419.10000002384,7055,NTS,A,1
9,2,prac,1,A,circle.png,1,m,Thu Aug 14 2025 09:05:22 GMT-0500 (Central Daylight Time),73690.89999997616,1500,O,m,700,8,1,2989.599999964237,70701.30000001192,7055,NTS,A,2
6,3,prac,1,A,circle.png,1,m,Thu Aug 14 2025 09:05:22 GMT-0500 (Central Daylight Time),77239.60000002384,1900,O,m,864,5,1,3537.900000035763,73701.69999998808,7055,NTS,A,3
2,4,prac,1,A,circle.png,1,z,Thu Aug 14 2025 09:05:22 GMT-0500 (Central Daylight Time),80821.5,2000,O,z,790,2,1,3572.899999976158,77248.60000002384,7055,NTS,A,4
7,5,prac,1,A,circle.png,1,m,Thu Aug 14 2025 09:05:22 GMT-0500 (Central Daylight Time),84221.89999997616,1700,O,m,899,6,1,3389.599999964237,80832.30000001192,7055,NTS,A,5
3,6,prac,1,A,circle.png,1,z,Thu Aug 14 2025 09:05:22 GMT-0500 (Central Daylight Time),87119.60000002384,1200,O,z,905,3,1,2885.900000035763,84233.69999998808,7055,NTS,A,6
4,6,prac,1,A,circle.png,0,z,Thu Aug 14 2025 09:05:22 GMT-0500 (Central Daylight Time),90818.39999997616,1400,O,None,1513,4,1,3690.2999999523163,87128.10000002384,7055,NTS,A,7
2,7,prac,1,A,circle.png,1,z,Thu Aug 14 2025 09:05:22 GMT-0500 (Central Daylight Time),93668.10000002384,2000,O,z,51,2,1,2842.2000000476837,90825.89999997616,7055,NTS,A,8
6,8,prac,1,A,circle.png,1,m,Thu Aug 14 2025 09:05:22 GMT-0500 (Central Daylight Time),96983.19999998808,1900,O,m,623,5,1,3304.599999964237,93678.60000002384,7055,NTS,A,9
3,9,prac,1,A,circle.png,1,z,Thu Aug 14 2025 09:05:22 GMT-0500 (Central Daylight Time),100064.80000001192,1200,O,z,1087,3,1,3072.699999988079,96992.10000002384,7055,NTS,A,10
1,10,prac,1,A,circle.png,1,z,Thu Aug 14 2025 09:05:22 GMT-0500 (Central Daylight Time),102499.80000001192,1000,O,z,636,1,1,2426.900000035763,100072.89999997616,7055,NTS,A,11
1,11,prac,1,A,circle.png,1,z,Thu Aug 14 2025 09:05:22 GMT-0500 (Central Daylight Time),104830.60000002384,1000,O,z,538,1,1,2322.900000035763,102507.69999998808,7055,NTS,A,12
3,0,prac,1,B,triangle.png,0,z,Thu Aug 14 2025 09:05:22 GMT-0500 (Central Daylight Time),129007.30000001192,1600,O,None,1517,3,1,3892.0,125115.30000001192,7055,NTS,A,1
4,1,prac,1,B,triangle.png,1,m,Thu Aug 14 2025 09:05:22 GMT-0500 (Central Daylight Time),132440.30000001192,1500,O,m,1134,4,1,3425.199999988079,129015.10000002384,7055,NTS,A,2
9,2,prac,1,B,triangle.png,1,z,Thu Aug 14 2025 09:05:22 GMT-0500 (Central Daylight Time),136122.89999997616,1400,O,z,1498,8,1,3674.199999988079,132448.69999998808,7055,NTS,A,3
6,3,prac,1,B,triangle.png,1,m,Thu Aug 14 2025 09:05:22 GMT-0500 (Central Daylight Time),138921.39999997616,1000,O,m,1005,5,1,2787.599999964237,136133.80000001192,7055,NTS,A,4
7,4,prac,1,B,triangle.png,1,z,Thu Aug 14 2025 09:05:22 GMT-0500 (Central Daylight Time),143087.10000002384,2000,O,z,1384,6,1,4156.700000047684,138930.39999997616,7055,NTS,A,5
9,5,prac,1,B,triangle.png,1,z,Thu Aug 14 2025 09:05:22 GMT-0500 (Central Daylight Time),146268.69999998808,1400,O,z,984,8,1,3174.899999976158,143093.80000001192,7055,NTS,A,6
8,6,prac,1,B,triangle.png,1,m,Thu Aug 14 2025 09:05:22 GMT-0500 (Central Daylight Time),149467.89999997616,1200,O,m,1226,7,1,3193.599999964237,146274.30000001192,7055,NTS,A,7
2,6,prac,1,B,triangle.png,0,m,Thu Aug 14 2025 09:05:22 GMT-0500 (Central Daylight Time),153467.0,1700,O,None,1514,2,1,3990.899999976158,149476.10000002384,7055,NTS,A,8
4,6,prac,1,B,triangle.png,0,m,Thu Aug 14 2025 09:05:22 GMT-0500 (Central Daylight Time),156632.89999997616,1500,O,z,884,4,1,3158.2999999523163,153474.60000002384,7055,NTS,A,9
1,7,prac,1,B,triangle.png,1,z,Thu Aug 14 2025 09:05:22 GMT-0500 (Central Daylight Time),160498.39999997616,1900,O,z,1182,1,1,3857.199999988079,156641.19999998808,7055,NTS,A,10
7,7,prac,1,B,triangle.png,0,z,Thu Aug 14 2025 09:05:22 GMT-0500 (Central Daylight Time),164795.5,2000,O,None,1513,6,1,4288.699999988079,160506.80000001192,7055,NTS,A,11
6,8,prac,1,B,triangle.png,1,m,Thu Aug 14 2025 09:05:22 GMT-0500 (Central Daylight Time),167594.80000001192,1000,O,m,1002,5,1,2791.5,164803.30000001192,7055,NTS,A,12
9,0,test,1,A,circle.png,0,m,Thu Aug 14 2025 09:05:22 GMT-0500 (Central Daylight Time),187857.10000002384,1500,O,None,1517,8,1,3027.2000000476837,184829.89999997616,7055,NTS,A,1
1,1,test,1,A,circle.png,1,z,Thu Aug 14 2025 09:05:22 GMT-0500 (Central Daylight Time),190287.19999998808,1000,O,z,1406,1,1,2423.300000011921,187863.89999997616,7055,NTS,A,2
6,1,test,1,A,circle.png,0,m,Thu Aug 14 2025 09:05:22 GMT-0500 (Central Daylight Time),193720.69999998808,1900,O,None,1516,5,1,3429.699999988079,190291.0,7055,NTS,A,3
7,1,test,1,A,circle.png,0,m,Thu Aug 14 2025 09:05:22 GMT-0500 (Central Daylight Time),196951.30000001192,1700,O,None,1514,6,1,3222.900000035763,193728.39999997616,7055,NTS,A,4
4,2,test,1,A,circle.png,1,z,Thu Aug 14 2025 09:05:22 GMT-0500 (Central Daylight Time),199617.0,1400,O,z,1240,4,1,2658.199999988079,196958.80000001192,7055,NTS,A,5
2,3,test,1,A,circle.png,1,z,Thu Aug 14 2025 09:05:22 GMT-0500 (Central Daylight Time),202899.0,2000,O,z,1250,2,1,3276.100000023842,199622.89999997616,7055,NTS,A,6
8,4,test,1,A,circle.png,1,m,Thu Aug 14 2025 09:05:22 GMT-0500 (Central Daylight Time),205182.60000002384,1600,O,m,659,7,1,2280.800000011921,202901.80000001192,7055,NTS,A,7
1,5,test,1,A,circle.png,1,z,Thu Aug 14 2025 09:05:22 GMT-0500 (Central Daylight Time),207249.69999998808,1000,O,z,1038,1,1,2062.199999988079,205187.5,7055,NTS,A,8
9,6,test,1,A,circle.png,1,m,Thu Aug 14 2025 09:05:22 GMT-0500 (Central Daylight Time),209781.30000001192,1500,O,m,1002,8,1,2526.300000011921,207255.0,7055,NTS,A,9
7,7,test,1,A,circle.png,1,m,Thu Aug 14 2025 09:05:22 GMT-0500 (Central Daylight Time),212164.5,1700,O,m,653,6,1,2380.300000011921,209784.19999998808,7055,NTS,A,10
6,8,test,1,A,circle.png,1,m,Thu Aug 14 2025 09:05:22 GMT-0500 (Central Daylight Time),214846.5,1900,O,m,757,5,1,2676.100000023842,212170.39999997616,7055,NTS,A,11
4,9,test,1,A,circle.png,1,z,Thu Aug 14 2025 09:05:22 GMT-0500 (Central Daylight Time),216994.5,1400,O,z,728,4,1,2142.699999988079,214851.80000001192,7055,NTS,A,12
7,10,test,1,A,circle.png,1,m,Thu Aug 14 2025 09:05:22 GMT-0500 (Central Daylight Time),219611.19999998808,1700,O,m,893,6,1,2611.899999976158,216999.30000001192,7055,NTS,A,13
1,11,test,1,A,circle.png,1,z,Thu Aug 14 2025 09:05:22 GMT-0500 (Central Daylight Time),221245.80000001192,1000,O,z,603,1,1,1630.800000011921,219615.0,7055,NTS,A,14
8,12,test,1,A,circle.png,1,m,Thu Aug 14 2025 09:05:22 GMT-0500 (Central Daylight Time),223993.60000002384,1600,O,m,1130,7,1,2742.400000035763,221251.19999998808,7055,NTS,A,15
2,13,test,1,A,circle.png,1,z,Thu Aug 14 2025 09:05:22 GMT-0500 (Central Daylight Time),226809.30000001192,2000,O,z,782,2,1,2810.400000035763,223998.89999997616,7055,NTS,A,16
3,14,test,1,A,circle.png,1,z,Thu Aug 14 2025 09:05:22 GMT-0500 (Central Daylight Time),228757.60000002384,1200,O,z,724,3,1,1943.9000000357628,226813.69999998808,7055,NTS,A,17
6,15,test,1,A,circle.png,1,m,Thu Aug 14 2025 09:05:22 GMT-0500 (Central Daylight Time),231425.0,1900,O,m,733,5,1,2663.100000023842,228761.89999997616,7055,NTS,A,18
4,16,test,1,A,circle.png,1,z,Thu Aug 14 2025 09:05:22 GMT-0500 (Central Daylight Time),233741.5,1400,O,z,896,4,1,2310.800000011921,231430.69999998808,7055,NTS,A,19
1,17,test,1,A,circle.png,1,z,Thu Aug 14 2025 09:05:22 GMT-0500 (Central Daylight Time),235357.39999997616,1000,O,z,585,1,1,1611.0,233746.39999997616,7055,NTS,A,20
2,18,test,1,A,circle.png,1,z,Thu Aug 14 2025 09:05:22 GMT-0500 (Central Daylight Time),237989.5,2000,O,z,602,2,1,2626.300000011921,235363.19999998808,7055,NTS,A,21
9,19,test,1,A,circle.png,1,m,Thu Aug 14 2025 09:05:22 GMT-0500 (Central Daylight Time),240088.89999997616,1500,O,m,568,8,1,2094.099999964237,237994.80000001192,7055,NTS,A,22
8,20,test,1,A,circle.png,1,m,Thu Aug 14 2025 09:05:22 GMT-0500 (Central Daylight Time),242555.30000001192,1600,O,m,849,7,1,2461.5,240093.80000001192,7055,NTS,A,23
3,21,test,1,A,circle.png,1,z,Thu Aug 14 2025 09:05:22 GMT-0500 (Central Daylight Time),244470.30000001192,1200,O,z,691,3,1,1910.199999988079,242560.10000002384,7055,NTS,A,24
1,1,test,1,B,triangle.png,1,z,Thu Aug 14 2025 09:05:22 GMT-0500 (Central Daylight Time),260315.0,1900,O,z,772,1,1,2693.5,257621.5,7055,NTS,A,1
6,2,test,1,B,triangle.png,1,m,Thu Aug 14 2025 09:05:22 GMT-0500 (Central Daylight Time),262548.0,1500,O,m,706,13,1,2228.5,260319.5,7055,NTS,A,2
4,3,test,1,B,triangle.png,1,m,Thu Aug 14 2025 09:05:22 GMT-0500 (Central Daylight Time),264647.10000002384,1000,O,m,1066,12,1,2094.7000000476837,262552.39999997616,7055,NTS,A,3
3,4,test,1,B,triangle.png,1,z,Thu Aug 14 2025 09:05:22 GMT-0500 (Central Daylight Time),267296.5,1600,O,z,1023,3,1,2644.300000011921,264652.1999999881,7055,NTS,A,4
8,5,test,1,B,triangle.png,1,m,Thu Aug 14 2025 09:05:22 GMT-0500 (Central Daylight Time),269147.1999999881,1200,O,m,622,7,1,1846.699999988079,267300.5,7055,NTS,A,5
8,6,test,1,B,triangle.png,1,m,Thu Aug 14 2025 09:05:22 GMT-0500 (Central Daylight Time),270994.89999997616,1200,O,m,624,7,1,1843.2999999523163,269151.60000002384,7055,NTS,A,6
9,7,test,1,B,triangle.png,1,z,Thu Aug 14 2025 09:05:22 GMT-0500 (Central Daylight Time),273260.89999997616,1400,O,z,836,8,1,2261.899999976158,270999.0,7055,NTS,A,7
4,8,test,1,B,triangle.png,1,m,Thu Aug 14 2025 09:05:22 GMT-0500 (Central Daylight Time),275544.3000000119,1500,O,m,766,4,1,2279.5,273264.8000000119,7055,NTS,A,8
7,8,test,1,B,triangle.png,0,z,Thu Aug 14 2025 09:05:22 GMT-0500 (Central Daylight Time),278010.10000002384,1600,O,m,839,14,1,2462.300000011921,275547.8000000119,7055,NTS,A,9
4,8,test,1,B,triangle.png,0,m,Thu Aug 14 2025 09:05:22 GMT-0500 (Central Daylight Time),281042.3000000119,1500,O,None,1514,4,1,3026.800000011921,278015.5,7055,NTS,A,10
2,9,test,1,B,triangle.png,1,m,Thu Aug 14 2025 09:05:22 GMT-0500 (Central Daylight Time),283974.60000002384,1700,O,m,1208,2,1,2926.600000023842,281048.0,7055,NTS,A,11
1,10,test,1,B,triangle.png,1,z,Thu Aug 14 2025 09:05:22 GMT-0500 (Central Daylight Time),286107.89999997616,1400,O,z,716,9,1,2129.099999964237,283978.8000000119,7055,NTS,A,12
7,11,test,1,B,triangle.png,1,z,Thu Aug 14 2025 09:05:22 GMT-0500 (Central Daylight Time),289137.8000000119,2000,O,z,1003,6,1,3024.400000035763,286113.39999997616,7055,NTS,A,13
3,12,test,1,B,triangle.png,1,z,Thu Aug 14 2025 09:05:22 GMT-0500 (Central Daylight Time),291904.89999997616,2000,O,z,741,11,1,2764.5,289140.39999997616,7055,NTS,A,14
3,13,test,1,B,triangle.png,1,z,Thu Aug 14 2025 09:05:22 GMT-0500 (Central Daylight Time),294404.1999999881,2000,O,z,478,11,1,2495.599999964237,291908.60000002384,7055,NTS,A,15
4,14,test,1,B,triangle.png,1,m,Thu Aug 14 2025 09:05:22 GMT-0500 (Central Daylight Time),296070.6999999881,1000,O,m,633,12,1,1662.300000011921,294408.39999997616,7055,NTS,A,16
2,15,test,1,B,triangle.png,1,m,Thu Aug 14 2025 09:05:22 GMT-0500 (Central Daylight Time),297987.39999997616,1200,O,m,683,10,1,1912.0999999642372,296075.3000000119,7055,NTS,A,17
1,16,test,1,B,triangle.png,1,z,Thu Aug 14 2025 09:05:22 GMT-0500 (Central Daylight Time),300685.89999997616,1900,O,z,767,1,1,2694.699999988079,297991.1999999881,7055,NTS,A,18
9,16,test,1,B,triangle.png,0,z,Thu Aug 14 2025 09:05:22 GMT-0500 (Central Daylight Time),303636.5,1900,O,m,1018,16,1,2945.899999976158,300690.60000002384,7055,NTS,A,19
2,17,test,1,B,triangle.png,1,m,Thu Aug 14 2025 09:05:22 GMT-0500 (Central Daylight Time),306318.60000002384,1700,O,m,959,2,1,2676.800000011921,303641.8000000119,7055,NTS,A,20
6,18,test,1,B,triangle.png,1,m,Thu Aug 14 2025 09:05:22 GMT-0500 (Central Daylight Time),308000.6999999881,1000,O,m,658,5,1,1677.699999988079,306323.0,7055,NTS,A,21
9,19,test,1,B,triangle.png,1,z,Thu Aug 14 2025 09:05:22 GMT-0500 (Central Daylight Time),310834.3000000119,1900,O,z,907,16,1,2828.100000023842,308006.1999999881,7055,NTS,A,22
6,20,test,1,B,triangle.png,1,m,Thu Aug 14 2025 09:05:22 GMT-0500 (Central Daylight Time),313347.5,1500,O,m,987,13,1,2509.199999988079,310838.3000000119,7055,NTS,A,23
8,21,test,1,B,triangle.png,1,m,Thu Aug 14 2025 09:05:22 GMT-0500 (Central Daylight Time),316130.0,1700,O,m,1066,15,1,2775.5,313354.5,7055,NTS,A,24
9,0,prac,1,C,circle.png,0,m,Thu Aug 14 2025 09:05:22 GMT-0500 (Central Daylight Time),353536.39999997616,1900,O,None,1515,8,1,4196.799999952316,349339.60000002384,7055,NTS,A,1
3,0,prac,1,C,triangle.png,0,z,Thu Aug 14 2025 09:05:22 GMT-0500 (Central Daylight Time),357333.60000002384,1500,O,None,1517,3,1,3788.400000035763,353545.1999999881,7055,NTS,A,2
2,0,prac,1,C,triangle.png,0,m,Thu Aug 14 2025 09:05:22 GMT-0500 (Central Daylight Time),361217.6999999881,1600,O,None,1514,2,1,3876.599999964237,357341.10000002384,7055,NTS,A,3
6,0,prac,1,C,circle.png,0,m,Thu Aug 14 2025 09:05:22 GMT-0500 (Central Daylight Time),365513.89999997616,2000,O,None,1514,5,1,4289.199999988079,361224.6999999881,7055,NTS,A,4
4,0,prac,1,C,circle.png,0,z,Thu Aug 14 2025 09:05:22 GMT-0500 (Central Daylight Time),368015.1999999881,1000,O,m,699,4,1,2494.199999988079,365521.0,7055,NTS,A,5
9,0,prac,1,C,circle.png,0,m,Thu Aug 14 2025 09:05:22 GMT-0500 (Central Daylight Time),372212.60000002384,1900,O,None,1517,8,1,4191.300000011921,368021.3000000119,7055,NTS,A,6
8,1,prac,1,C,triangle.png,1,m,Thu Aug 14 2025 09:05:22 GMT-0500 (Central Daylight Time),375729.3000000119,1400,O,m,1323,7,1,3510.5,372218.8000000119,7055,NTS,A,7
2,1,prac,1,C,triangle.png,0,m,Thu Aug 14 2025 09:05:22 GMT-0500 (Central Daylight Time),379445.39999997616,1600,O,z,1343,2,1,3709.699999988079,375735.6999999881,7055,NTS,A,8
3,2,prac,1,C,triangle.png,1,z,Thu Aug 14 2025 09:05:22 GMT-0500 (Central Daylight Time),382676.0,1500,O,z,943,3,1,3223.399999976158,379452.60000002384,7055,NTS,A,9
4,2,prac,1,C,circle.png,0,z,Thu Aug 14 2025 09:05:22 GMT-0500 (Central Daylight Time),385409.3000000119,1000,O,m,946,4,1,2725.199999988079,382684.10000002384,7055,NTS,A,10
7,2,prac,1,C,triangle.png,0,z,Thu Aug 14 2025 09:05:22 GMT-0500 (Central Daylight Time),388691.1999999881,1200,O,m,1285,6,1,3274.199999988079,385417.0,7055,NTS,A,11
1,2,prac,1,C,circle.png,0,z,Thu Aug 14 2025 09:05:22 GMT-0500 (Central Daylight Time),392538.1999999881,1700,O,m,1352,1,1,3840.0,388698.1999999881,7055,NTS,A,12
2,0,prac,2,C,triangle.png,0,m,Thu Aug 14 2025 09:05:22 GMT-0500 (Central Daylight Time),402987.0,1600,O,None,1516,2,1,3890.899999976158,399096.10000002384,7055,NTS,A,1
6,0,prac,2,C,circle.png,0,m,Thu Aug 14 2025 09:05:22 GMT-0500 (Central Daylight Time),407019.0,2000,O,z,1261,5,1,4026.0,402993.0,7055,NTS,A,2
8,0,prac,2,C,triangle.png,0,m,Thu Aug 14 2025 09:05:22 GMT-0500 (Central Daylight Time),410386.89999997616,1400,O,z,1173,7,1,3360.199999988079,407026.6999999881,7055,NTS,A,3
4,0,prac,2,C,circle.png,0,z,Thu Aug 14 2025 09:05:22 GMT-0500 (Central Daylight Time),413251.3000000119,1000,O,m,1071,4,1,2854.300000011921,410397.0,7055,NTS,A,4
7,1,prac,2,C,triangle.png,1,z,Thu Aug 14 2025 09:05:22 GMT-0500 (Central Daylight Time),416632.6999999881,1200,O,z,1404,6,1,3374.899999976158,413257.8000000119,7055,NTS,A,5
1,2,prac,2,C,circle.png,1,z,Thu Aug 14 2025 09:05:22 GMT-0500 (Central Daylight Time),420231.10000002384,1700,O,z,1107,1,1,3592.600000023842,416638.5,7055,NTS,A,6
6,3,prac,2,C,circle.png,1,m,Thu Aug 14 2025 09:05:22 GMT-0500 (Central Daylight Time),423831.0,2000,O,m,800,5,1,3592.699999988079,420238.3000000119,7055,NTS,A,7
3,4,prac,2,C,triangle.png,1,z,Thu Aug 14 2025 09:05:22 GMT-0500 (Central Daylight Time),427143.89999997616,1500,O,z,1022,3,1,3306.399999976158,423837.5,7055,NTS,A,8
3,5,prac,2,C,triangle.png,1,z,Thu Aug 14 2025 09:05:22 GMT-0500 (Central Daylight Time),430129.10000002384,1500,O,z,699,3,1,2981.600000023842,427147.5,7055,NTS,A,9
7,6,prac,2,C,triangle.png,1,z,Thu Aug 14 2025 09:05:22 GMT-0500 (Central Daylight Time),433342.39999997616,1200,O,z,1222,6,1,3206.199999988079,430136.1999999881,7055,NTS,A,10
1,7,prac,2,C,circle.png,1,z,Thu Aug 14 2025 09:05:22 GMT-0500 (Central Daylight Time),436841.39999997616,1700,O,z,1012,1,1,3488.599999964237,433352.8000000119,7055,NTS,A,11
9,7,prac,2,C,circle.png,0,m,Thu Aug 14 2025 09:05:22 GMT-0500 (Central Daylight Time),440823.60000002384,1900,O,z,1290,8,1,3974.400000035763,436849.1999999881,7055,NTS,A,12
1,1,test,1,C,circle.png,1,z,Thu Aug 14 2025 09:05:22 GMT-0500 (Central Daylight Time),450537.0,1000,O,z,1301,1,1,2324.399999976158,448212.60000002384,7055,NTS,A,1
9,2,test,1,C,circle.png,1,m,Thu Aug 14 2025 09:05:22 GMT-0500 (Central Daylight Time),453269.39999997616,1500,O,m,1202,24,1,2725.0,450544.39999997616,7055,NTS,A,2
3,2,test,1,C,triangle.png,0,z,Thu Aug 14 2025 09:05:22 GMT-0500 (Central Daylight Time),456001.0,1200,O,None,1514,3,1,2724.0,453277.0,7055,NTS,A,3
2,2,test,1,C,circle.png,0,z,Thu Aug 14 2025 09:05:22 GMT-0500 (Central Daylight Time),458718.39999997616,1700,O,m,993,10,1,2714.5,456003.89999997616,7055,NTS,A,4
1,3,test,1,C,triangle.png,1,z,Thu Aug 14 2025 09:05:22 GMT-0500 (Central Daylight Time),462016.6999999881,1900,O,z,1368,9,1,3292.199999988079,458724.5,7055,NTS,A,5
4,3,test,1,C,triangle.png,0,m,Thu Aug 14 2025 09:05:22 GMT-0500 (Central Daylight Time),465050.39999997616,1500,O,None,1516,20,1,3031.199999988079,462019.1999999881,7055,NTS,A,6
7,3,test,1,C,circle.png,0,m,Thu Aug 14 2025 09:05:22 GMT-0500 (Central Daylight Time),468532.39999997616,2000,O,z,1456,14,1,3476.0,465056.39999997616,7055,NTS,A,7
3,4,test,1,C,circle.png,1,z,Thu Aug 14 2025 09:05:22 GMT-0500 (Central Daylight Time),471297.5,1600,O,z,1139,19,1,2759.600000023842,468537.89999997616,7055,NTS,A,8
1,4,test,1,C,triangle.png,0,z,Thu Aug 14 2025 09:05:22 GMT-0500 (Central Daylight Time),474729.39999997616,1900,O,None,1514,17,1,3427.0,471302.39999997616,7055,NTS,A,9
9,5,test,1,C,circle.png,1,m,Thu Aug 14 2025 09:05:22 GMT-0500 (Central Daylight Time),477262.3000000119,1500,O,m,1000,8,1,2528.100000023842,474734.1999999881,7055,NTS,A,10
4,5,test,1,C,triangle.png,0,m,Thu Aug 14 2025 09:05:22 GMT-0500 (Central Daylight Time),480295.1999999881,1500,O,None,1515,12,1,3026.699999988079,477268.5,7055,NTS,A,11
8,5,test,1,C,triangle.png,0,m,Thu Aug 14 2025 09:05:22 GMT-0500 (Central Daylight Time),483427.3000000119,1600,O,None,1515,23,1,3125.300000011921,480302.0,7055,NTS,A,12
2,5,test,1,C,triangle.png,0,m,Thu Aug 14 2025 09:05:22 GMT-0500 (Central Daylight Time),486958.3000000119,2000,O,None,1515,2,1,3524.100000023842,483434.1999999881,7055,NTS,A,13
8,5,test,1,C,triangle.png,0,m,Thu Aug 14 2025 09:05:22 GMT-0500 (Central Daylight Time),490092.6999999881,1600,O,None,1516,7,1,3131.099999964237,486961.60000002384,7055,NTS,A,14
8,6,test,1,C,circle.png,1,m,Thu Aug 14 2025 09:05:22 GMT-0500 (Central Daylight Time),492174.8000000119,1200,O,m,860,15,1,2076.199999988079,490098.60000002384,7055,NTS,A,15
7,6,test,1,C,triangle.png,0,z,Thu Aug 14 2025 09:05:22 GMT-0500 (Central Daylight Time),495407.5,1700,O,None,1516,6,1,3227.699999988079,492179.8000000119,7055,NTS,A,16
2,6,test,1,C,circle.png,0,z,Thu Aug 14 2025 09:05:22 GMT-0500 (Central Daylight Time),498639.3000000119,1700,O,None,1514,18,1,3224.800000011921,495414.5,7055,NTS,A,17
6,7,test,1,C,triangle.png,1,m,Thu Aug 14 2025 09:05:22 GMT-0500 (Central Daylight Time),500939.1999999881,1000,O,m,1266,13,1,2293.0,498646.1999999881,7055,NTS,A,18
6,8,test,1,C,circle.png,1,m,Thu Aug 14 2025 09:05:22 GMT-0500 (Central Daylight Time),504170.39999997616,1900,O,m,1301,21,1,3224.7999999523163,500945.60000002384,7055,NTS,A,19
4,9,test,1,C,circle.png,1,z,Thu Aug 14 2025 09:05:22 GMT-0500 (Central Daylight Time),506804.89999997616,1400,O,z,1216,4,1,2628.699999988079,504176.1999999881,7055,NTS,A,20
6,9,test,1,C,circle.png,0,m,Thu Aug 14 2025 09:05:22 GMT-0500 (Central Daylight Time),509502.89999997616,1900,O,z,768,5,1,2691.199999988079,506811.6999999881,7055,NTS,A,21
7,9,test,1,C,triangle.png,0,z,Thu Aug 14 2025 09:05:22 GMT-0500 (Central Daylight Time),512735.39999997616,1700,O,None,1516,22,1,3226.2999999523163,509509.10000002384,7055,NTS,A,22
9,9,test,1,C,triangle.png,0,z,Thu Aug 14 2025 09:05:22 GMT-0500 (Central Daylight Time),515668.6999999881,1400,O,None,1517,16,1,2926.599999964237,512742.10000002384,7055,NTS,A,23
3,10,test,1,C,circle.png,1,z,Thu Aug 14 2025 09:05:22 GMT-0500 (Central Daylight Time),518499.10000002384,1600,O,z,1204,11,1,2822.900000035763,515676.1999999881,7055,NTS,A,24
1,0,test,2,C,triangle.png,0,z,Thu Aug 14 2025 09:05:22 GMT-0500 (Central Daylight Time),524114.60000002384,1900,O,None,1515,17,1,3426.800000011921,520687.8000000119,7055,NTS,A,1
3,1,test,2,C,circle.png,1,z,Thu Aug 14 2025 09:05:22 GMT-0500 (Central Daylight Time),526813.6000000238,1600,O,z,1077,19,1,2693.100000023842,524120.5,7055,NTS,A,2
1,2,test,2,C,circle.png,1,z,Thu Aug 14 2025 09:05:22 GMT-0500 (Central Daylight Time),528645.8000000119,1000,O,z,808,1,1,1829.1000000238419,526816.6999999881,7055,NTS,A,3
7,3,test,2,C,triangle.png,1,z,Thu Aug 14 2025 09:05:22 GMT-0500 (Central Daylight Time),531611.5,1700,O,z,1245,6,1,2960.100000023842,528651.3999999762,7055,NTS,A,4
4,4,test,2,C,triangle.png,1,m,Thu Aug 14 2025 09:05:22 GMT-0500 (Central Daylight Time),534513.0,1500,O,m,1367,20,1,2896.800000011921,531616.1999999881,7055,NTS,A,5
2,4,test,2,C,triangle.png,0,m,Thu Aug 14 2025 09:05:22 GMT-0500 (Central Daylight Time),538044.1999999881,2000,O,None,1515,2,1,3525.800000011921,534518.3999999762,7055,NTS,A,6
7,5,test,2,C,circle.png,1,m,Thu Aug 14 2025 09:05:22 GMT-0500 (Central Daylight Time),541275.1000000238,2000,O,m,1204,22,1,3225.0,538050.1000000238,7055,NTS,A,7
9,5,test,2,C,circle.png,0,m,Thu Aug 14 2025 09:05:22 GMT-0500 (Central Daylight Time),544308.1999999881,1500,O,None,1515,8,1,3026.899999976158,541281.3000000119,7055,NTS,A,8
7,5,test,2,C,circle.png,0,m,Thu Aug 14 2025 09:05:22 GMT-0500 (Central Daylight Time),547841.3999999762,2000,O,None,1517,14,1,3526.599999964237,544314.8000000119,7055,NTS,A,9
3,5,test,2,C,triangle.png,0,z,Thu Aug 14 2025 09:05:22 GMT-0500 (Central Daylight Time),550573.0,1200,O,None,1516,3,1,2726.300000011921,547846.6999999881,7055,NTS,A,10
4,5,test,2,C,triangle.png,0,m,Thu Aug 14 2025 09:05:22 GMT-0500 (Central Daylight Time),553606.6999999881,1500,O,None,1514,12,1,3029.099999964237,550577.6000000238,7055,NTS,A,11
1,5,test,2,C,triangle.png,0,z,Thu Aug 14 2025 09:05:22 GMT-0500 (Central Daylight Time),557037.3000000119,1900,O,None,1515,9,1,3426.400000035763,553610.8999999762,7055,NTS,A,12
8,6,test,2,C,circle.png,1,m,Thu Aug 14 2025 09:05:22 GMT-0500 (Central Daylight Time),559370.6000000238,1200,O,m,1101,15,1,2326.5,557044.1000000238,7055,NTS,A,13
2,7,test,2,C,circle.png,1,z,Thu Aug 14 2025 09:05:22 GMT-0500 (Central Daylight Time),561852.5,1700,O,z,761,10,1,2475.600000023842,559376.8999999762,7055,NTS,A,14
8,8,test,2,C,circle.png,1,m,Thu Aug 14 2025 09:05:22 GMT-0500 (Central Daylight Time),564201.1999999881,1200,O,m,1122,23,1,2344.800000011921,561856.3999999762,7055,NTS,A,15
8,8,test,2,C,triangle.png,0,m,Thu Aug 14 2025 09:05:22 GMT-0500 (Central Daylight Time),567337.5,1600,O,None,1518,7,1,3129.699999988079,564207.8000000119,7055,NTS,A,16
9,9,test,2,C,triangle.png,1,z,Thu Aug 14 2025 09:05:22 GMT-0500 (Central Daylight Time),569785.8000000119,1400,O,z,1025,24,1,2443.699999988079,567342.1000000238,7055,NTS,A,17
3,10,test,2,C,circle.png,1,z,Thu Aug 14 2025 09:05:22 GMT-0500 (Central Daylight Time),572599.0,1600,O,z,1193,11,1,2808.300000011921,569790.6999999881,7055,NTS,A,18
4,11,test,2,C,circle.png,1,z,Thu Aug 14 2025 09:05:22 GMT-0500 (Central Daylight Time),575181.0,1400,O,z,1160,4,1,2575.600000023842,572605.3999999762,7055,NTS,A,19
2,12,test,2,C,circle.png,1,z,Thu Aug 14 2025 09:05:22 GMT-0500 (Central Daylight Time),577649.1000000238,1700,O,z,740,18,1,2462.400000035763,575186.6999999881,7055,NTS,A,20
9,12,test,2,C,triangle.png,0,z,Thu Aug 14 2025 09:05:22 GMT-0500 (Central Daylight Time),580564.8999999762,1400,O,None,1501,16,1,2909.899999976158,577655.0,7055,NTS,A,21
6,13,test,2,C,triangle.png,1,m,Thu Aug 14 2025 09:05:22 GMT-0500 (Central Daylight Time),582579.0,1000,O,m,997,13,1,2009.6000000238419,580569.3999999762,7055,NTS,A,22
6,14,test,2,C,circle.png,1,m,Thu Aug 14 2025 09:05:22 GMT-0500 (Central Daylight Time),585629.1999999881,1900,O,m,1133,5,1,3045.399999976158,582583.8000000119,7055,NTS,A,23
6,15,test,2,C,triangle.png,1,m,Thu Aug 14 2025 09:05:22 GMT-0500 (Central Daylight Time),588009.3000000119,1000,O,m,1361,21,1,2375.100000023842,585634.1999999881,7055,NTS,A,24
7,0,test,3,C,circle.png,0,m,Thu Aug 14 2025 09:05:22 GMT-0500 (Central Daylight Time),593124.6999999881,2000,O,None,1514,14,1,3524.199999988079,589600.5,7055,NTS,A,1
9,0,test,3,C,circle.png,0,m,Thu Aug 14 2025 09:05:22 GMT-0500 (Central Daylight Time),596159.1000000238,1500,O,None,1516,24,1,3027.300000011921,593131.8000000119,7055,NTS,A,2
8,0,test,3,C,triangle.png,0,m,Thu Aug 14 2025 09:05:22 GMT-0500 (Central Daylight Time),599289.3999999762,1600,O,None,1514,7,1,3124.2999999523163,596165.1000000238,7055,NTS,A,3
8,0,test,3,C,circle.png,0,m,Thu Aug 14 2025 09:05:22 GMT-0500 (Central Daylight Time),601589.3000000119,1200,O,z,1068,15,1,2296.199999988079,599293.1000000238,7055,NTS,A,4
2,0,test,3,C,triangle.png,0,m,Thu Aug 14 2025 09:05:22 GMT-0500 (Central Daylight Time),605121.1000000238,2000,O,None,1515,2,1,3526.100000023842,601595.0,7055,NTS,A,5
1,1,test,3,C,triangle.png,1,z,Thu Aug 14 2025 09:05:22 GMT-0500 (Central Daylight Time),608487.1999999881,1900,O,z,1443,9,1,3358.300000011921,605128.8999999762,7055,NTS,A,6
6,2,test,3,C,circle.png,1,m,Thu Aug 14 2025 09:05:22 GMT-0500 (Central Daylight Time),611686.6999999881,1900,O,m,1274,5,1,3194.399999976158,608492.3000000119,7055,NTS,A,7
9,3,test,3,C,circle.png,1,m,Thu Aug 14 2025 09:05:22 GMT-0500 (Central Daylight Time),614337.3999999762,1500,O,m,1117,8,1,2645.099999964237,611692.3000000119,7055,NTS,A,8
1,4,test,3,C,circle.png,1,z,Thu Aug 14 2025 09:05:22 GMT-0500 (Central Daylight Time),616234.6999999881,1000,O,z,868,1,1,1893.3999999761581,614341.3000000119,7055,NTS,A,9
4,5,test,3,C,circle.png,1,z,Thu Aug 14 2025 09:05:22 GMT-0500 (Central Daylight Time),618667.0,1400,O,z,1004,20,1,2427.100000023842,616239.8999999762,7055,NTS,A,10
4,6,test,3,C,circle.png,1,z,Thu Aug 14 2025 09:05:22 GMT-0500 (Central Daylight Time),620900.6999999881,1400,O,z,812,4,1,2229.300000011921,618671.3999999762,7055,NTS,A,11
7,6,test,3,C,triangle.png,0,z,Thu Aug 14 2025 09:05:22 GMT-0500 (Central Daylight Time),624134.8000000119,1700,O,None,1516,22,1,3230.400000035763,620904.3999999762,7055,NTS,A,12
9,7,test,3,C,triangle.png,1,z,Thu Aug 14 2025 09:05:22 GMT-0500 (Central Daylight Time),626648.3999999762,1400,O,z,1083,16,1,2509.199999988079,624139.1999999881,7055,NTS,A,13
3,8,test,3,C,triangle.png,1,z,Thu Aug 14 2025 09:05:22 GMT-0500 (Central Daylight Time),628597.8000000119,1200,O,z,727,19,1,1944.4000000357628,626653.3999999762,7055,NTS,A,14
8,9,test,3,C,triangle.png,1,m,Thu Aug 14 2025 09:05:22 GMT-0500 (Central Daylight Time),631046.1999999881,1600,O,m,815,23,1,2443.399999976158,628602.8000000119,7055,NTS,A,15
3,9,test,3,C,circle.png,0,z,Thu Aug 14 2025 09:05:22 GMT-0500 (Central Daylight Time),633346.0,1600,O,m,673,11,1,2296.800000011921,631049.1999999881,7055,NTS,A,16
7,9,test,3,C,triangle.png,0,z,Thu Aug 14 2025 09:05:22 GMT-0500 (Central Daylight Time),636563.1000000238,1700,O,None,1501,6,1,3212.900000035763,633350.1999999881,7055,NTS,A,17
3,10,test,3,C,triangle.png,1,z,Thu Aug 14 2025 09:05:22 GMT-0500 (Central Daylight Time),638727.1999999881,1200,O,z,940,3,1,2158.399999976158,636568.8000000119,7055,NTS,A,18
6,11,test,3,C,triangle.png,1,m,Thu Aug 14 2025 09:05:22 GMT-0500 (Central Daylight Time),641226.5,1000,O,m,1477,13,1,2494.600000023842,638731.8999999762,7055,NTS,A,19
1,12,test,3,C,circle.png,1,z,Thu Aug 14 2025 09:05:22 GMT-0500 (Central Daylight Time),643192.6000000238,1000,O,z,940,17,1,1962.4000000357628,641230.1999999881,7055,NTS,A,20
2,12,test,3,C,triangle.png,0,m,Thu Aug 14 2025 09:05:22 GMT-0500 (Central Daylight Time),646457.8999999762,2000,O,z,1238,18,1,3261.099999964237,643196.8000000119,7055,NTS,A,21
2,13,test,3,C,circle.png,1,z,Thu Aug 14 2025 09:05:22 GMT-0500 (Central Daylight Time),649374.1000000238,1700,O,z,1183,10,1,2911.7000000476837,646462.3999999762,7055,NTS,A,22
4,13,test,3,C,triangle.png,0,m,Thu Aug 14 2025 09:05:22 GMT-0500 (Central Daylight Time),652407.8999999762,1500,O,None,1517,12,1,3029.2999999523163,649378.6000000238,7055,NTS,A,23
6,13,test,3,C,circle.png,0,m,Thu Aug 14 2025 09:05:22 GMT-0500 (Central Daylight Time),655837.8999999762,1900,O,None,1515,21,1,3424.7999999523163,652413.1000000238,7055,NTS,A,24
6,0,test,4,C,circle.png,0,m,Thu Aug 14 2025 09:05:22 GMT-0500 (Central Daylight Time),660253.8000000119,1900,O,z,1109,5,1,3025.100000023842,657228.6999999881,7055,NTS,A,1
2,0,test,4,C,triangle.png,0,m,Thu Aug 14 2025 09:05:22 GMT-0500 (Central Daylight Time),663786.6000000238,2000,O,None,1515,18,1,3528.300000011921,660258.3000000119,7055,NTS,A,2
8,0,test,4,C,circle.png,0,m,Thu Aug 14 2025 09:05:22 GMT-0500 (Central Daylight Time),666518.6000000238,1200,O,None,1516,15,1,2726.2000000476837,663792.3999999762,7055,NTS,A,3
1,1,test,4,C,triangle.png,1,z,Thu Aug 14 2025 09:05:22 GMT-0500 (Central Daylight Time),669553.1000000238,1900,O,z,1109,9,1,3028.100000023842,666525.0,7055,NTS,A,4
1,1,test,4,C,circle.png,0,z,Thu Aug 14 2025 09:05:22 GMT-0500 (Central Daylight Time),671367.6999999881,1000,O,m,784,1,1,1811.0,669556.6999999881,7055,NTS,A,5
3,1,test,4,C,triangle.png,0,z,Thu Aug 14 2025 09:05:22 GMT-0500 (Central Daylight Time),674098.8999999762,1200,O,None,1515,3,1,2726.0,671372.8999999762,7055,NTS,A,6
8,1,test,4,C,triangle.png,0,m,Thu Aug 14 2025 09:05:22 GMT-0500 (Central Daylight Time),677235.1999999881,1600,O,None,1520,23,1,3128.199999988079,674107.0,7055,NTS,A,7
3,2,test,4,C,triangle.png,1,z,Thu Aug 14 2025 09:05:22 GMT-0500 (Central Daylight Time),679881.6000000238,1200,O,z,1423,19,1,2638.7000000476837,677242.8999999762,7055,NTS,A,8
7,3,test,4,C,triangle.png,1,z,Thu Aug 14 2025 09:05:22 GMT-0500 (Central Daylight Time),683045.8000000119,1700,O,z,1435,22,1,3159.199999988079,679886.6000000238,7055,NTS,A,9
9,4,test,4,C,circle.png,1,m,Thu Aug 14 2025 09:05:22 GMT-0500 (Central Daylight Time),685830.6000000238,1500,O,m,1253,8,1,2777.300000011921,683053.3000000119,7055,NTS,A,10
6,4,test,4,C,triangle.png,0,m,Thu Aug 14 2025 09:05:22 GMT-0500 (Central Daylight Time),688361.1000000238,1000,O,None,1516,13,1,2523.900000035763,685837.1999999881,7055,NTS,A,11
9,4,test,4,C,triangle.png,0,z,Thu Aug 14 2025 09:05:22 GMT-0500 (Central Daylight Time),690711.3000000119,1400,O,m,917,16,1,2341.100000023842,688370.1999999881,7055,NTS,A,12
4,5,test,4,C,circle.png,1,z,Thu Aug 14 2025 09:05:22 GMT-0500 (Central Daylight Time),693159.3000000119,1400,O,z,1017,20,1,2442.5,690716.8000000119,7055,NTS,A,13
3,6,test,4,C,circle.png,1,z,Thu Aug 14 2025 09:05:22 GMT-0500 (Central Daylight Time),695558.6999999881,1600,O,z,768,11,1,2393.399999976158,693165.3000000119,7055,NTS,A,14
4,6,test,4,C,triangle.png,0,m,Thu Aug 14 2025 09:05:22 GMT-0500 (Central Daylight Time),698591.1999999881,1500,O,None,1516,12,1,3024.899999976158,695566.3000000119,7055,NTS,A,15
9,7,test,4,C,circle.png,1,m,Thu Aug 14 2025 09:05:22 GMT-0500 (Central Daylight Time),701290.0,1500,O,m,1180,24,1,2690.199999988079,698599.8000000119,7055,NTS,A,16
2,8,test,4,C,circle.png,1,z,Thu Aug 14 2025 09:05:22 GMT-0500 (Central Daylight Time),703924.0,1700,O,z,916,10,1,2627.399999976158,701296.6000000238,7055,NTS,A,17
2,8,test,4,C,triangle.png,0,m,Thu Aug 14 2025 09:05:22 GMT-0500 (Central Daylight Time),707456.3999999762,2000,O,None,1516,2,1,3527.599999964237,703928.8000000119,7055,NTS,A,18
6,9,test,4,C,circle.png,1,m,Thu Aug 14 2025 09:05:22 GMT-0500 (Central Daylight Time),710538.0,1900,O,m,1155,21,1,3076.399999976158,707461.6000000238,7055,NTS,A,19
7,9,test,4,C,triangle.png,0,z,Thu Aug 14 2025 09:05:22 GMT-0500 (Central Daylight Time),713770.5,1700,O,None,1514,6,1,3226.399999976158,710544.1000000238,7055,NTS,A,20
4,10,test,4,C,circle.png,1,z,Thu Aug 14 2025 09:05:22 GMT-0500 (Central Daylight Time),716170.3000000119,1400,O,z,983,4,1,2393.0,713777.3000000119,7055,NTS,A,21
1,11,test,4,C,circle.png,1,z,Thu Aug 14 2025 09:05:22 GMT-0500 (Central Daylight Time),718202.3000000119,1000,O,z,1007,17,1,2026.800000011921,716175.5,7055,NTS,A,22
8,12,test,4,C,triangle.png,1,m,Thu Aug 14 2025 09:05:22 GMT-0500 (Central Daylight Time),721051.0,1600,O,m,1229,7,1,2839.699999988079,718211.3000000119,7055,NTS,A,23
7,13,test,4,C,circle.png,1,m,Thu Aug 14 2025 09:05:22 GMT-0500 (Central Daylight Time),724100.3000000119,2000,O,m,1028,14,1,3043.0,721057.3000000119,7055,NTS,A,24
