block_c,block_dur,condition,countdown,datetime,endtime,list,multichar_response,project,response,response_time,session_number,start_end,starttime,subject_id,task,task_vers,trial
,,,,Mon Aug 11 2025 18:37:59 GMT-0500 (Central Daylight Time),,,,O,space,569,1,,,7190,WL,B,
prac,,0,,Mon Aug 11 2025 18:37:59 GMT-0500 (Central Daylight Time),,NA,b,O,b,1643,1,,,7190,WL,B,1.0
prac,,0,,Mon Aug 11 2025 18:37:59 GMT-0500 (Central Daylight Time),,NA,bo,O,o,478,1,,,7190,WL,B,1.0
prac,,0,,Mon Aug 11 2025 18:37:59 GMT-0500 (Central Daylight Time),,NA,boo,O,o,185,1,,,7190,WL,B,1.0
prac,,0,,Mon Aug 11 2025 18:37:59 GMT-0500 (Central Daylight Time),,NA,boos,O,s,48,1,,,7190,WL,B,1.0
prac,,0,,Mon Aug 11 2025 18:37:59 GMT-0500 (Central Daylight Time),,NA,boost,O,t,128,1,,,7190,WL,B,1.0
prac,,0,,Mon Aug 11 2025 18:37:59 GMT-0500 (Central Daylight Time),,NA,boostenter,O,enter,186,1,,,7190,WL,B,1.0
1,0.5999999046325684,learn,59400.00009536743,Mon Aug 11 2025 18:37:59 GMT-0500 (Central Daylight Time),139170.80000001192,A,s,O,s,590,1,598.8000000119209,138572.0,7190,WL,B,1.0
1,0.8819999694824219,learn,59118.00003051758,Mon Aug 11 2025 18:37:59 GMT-0500 (Central Daylight Time),139453.19999998808,A,st,O,t,265,1,881.1999999880791,138572.0,7190,WL,B,1.0
1,1.2990000247955322,learn,58700.99997520447,Mon Aug 11 2025 18:37:59 GMT-0500 (Central Daylight Time),139869.90000000596,A,str,O,r,396,1,1297.9000000059605,138572.0,7190,WL,B,1.0
1,1.5989999771118164,learn,58401.00002288818,Mon Aug 11 2025 18:37:59 GMT-0500 (Central Daylight Time),140170.09999999404,A,stre,O,e,279,1,1598.0999999940395,138572.0,7190,WL,B,1.0
1,1.7820000648498535,learn,58217.99993515015,Mon Aug 11 2025 18:37:59 GMT-0500 (Central Daylight Time),140353.09999999404,A,stree,O,e,169,1,1781.0999999940395,138572.0,7190,WL,B,1.0
1,1.9489998817443848,learn,58051.000118255615,Mon Aug 11 2025 18:37:59 GMT-0500 (Central Daylight Time),140520.40000000596,A,street,O,t,147,1,1948.4000000059605,138572.0,7190,WL,B,1.0
1,3.8980000019073486,learn,56101.99999809265,Mon Aug 11 2025 18:37:59 GMT-0500 (Central Daylight Time),142469.5,A,streetenter,O,enter,1937,1,3897.5,138572.0,7190,WL,B,1.0
1,4.898000001907349,learn,55101.99999809265,Mon Aug 11 2025 18:37:59 GMT-0500 (Central Daylight Time),143468.90000000596,A,g,O,g,981,1,998.9000000059605,142470.0,7190,WL,B,2.0
1,5.115000009536743,learn,54884.99999046326,Mon Aug 11 2025 18:37:59 GMT-0500 (Central Daylight Time),143685.80000001192,A,gr,O,r,206,1,1215.800000011921,142470.0,7190,WL,B,2.0
1,5.296999931335449,learn,54703.00006866455,Mon Aug 11 2025 18:37:59 GMT-0500 (Central Daylight Time),143868.40000000596,A,gra,O,a,172,1,1398.4000000059605,142470.0,7190,WL,B,2.0
1,5.580999851226807,learn,54419.00014877319,Mon Aug 11 2025 18:37:59 GMT-0500 (Central Daylight Time),144152.30000001192,A,gras,O,s,277,1,1682.300000011921,142470.0,7190,WL,B,2.0
1,5.766000032424927,learn,54233.99996757507,Mon Aug 11 2025 18:37:59 GMT-0500 (Central Daylight Time),144337.09999999404,A,grass,O,s,180,1,1867.0999999940395,142470.0,7190,WL,B,2.0
1,6.080999851226807,learn,53919.00014877319,Mon Aug 11 2025 18:37:59 GMT-0500 (Central Daylight Time),144652.30000001192,A,grassenter,O,enter,306,1,2182.300000011921,142470.0,7190,WL,B,2.0
1,6.496999979019165,learn,53503.000020980835,Mon Aug 11 2025 18:37:59 GMT-0500 (Central Daylight Time),145067.80000001192,A,a,O,a,398,1,415.0,144652.80000001192,7190,WL,B,3.0
1,6.680000066757202,learn,53319.9999332428,Mon Aug 11 2025 18:37:59 GMT-0500 (Central Daylight Time),145251.59999999404,A,ar,O,r,162,1,598.7999999821186,144652.80000001192,7190,WL,B,3.0
1,7.228999853134155,learn,52771.000146865845,Mon Aug 11 2025 18:37:59 GMT-0500 (Central Daylight Time),145800.19999998808,A,arenter,O,enter,529,1,1147.3999999761581,144652.80000001192,7190,WL,B,3.0
1,8.162999868392944,learn,51837.000131607056,Mon Aug 11 2025 18:37:59 GMT-0500 (Central Daylight Time),146734.59999999404,A,a,O,a,914,1,934.0,145800.59999999404,7190,WL,B,4.0
1,8.36299991607666,learn,51637.00008392334,Mon Aug 11 2025 18:37:59 GMT-0500 (Central Daylight Time),146934.19999998808,A,ar,O,r,189,1,1133.5999999940395,145800.59999999404,7190,WL,B,4.0
1,8.86299991607666,learn,51137.00008392334,Mon Aug 11 2025 18:37:59 GMT-0500 (Central Daylight Time),147433.80000001192,A,arenter,O,enter,478,1,1633.2000000178814,145800.59999999404,7190,WL,B,4.0
1,9.86299991607666,learn,50137.00008392334,Mon Aug 11 2025 18:37:59 GMT-0500 (Central Daylight Time),148434.09999999404,A,a,O,a,984,1,1000.0,147434.09999999404,7190,WL,B,5.0
1,10.57800006866455,learn,49421.99993133545,Mon Aug 11 2025 18:37:59 GMT-0500 (Central Daylight Time),149149.40000000596,A,ar,O,r,696,1,1715.300000011921,147434.09999999404,7190,WL,B,5.0
1,10.84500002861023,learn,49154.99997138977,Mon Aug 11 2025 18:37:59 GMT-0500 (Central Daylight Time),149416.5,A,arm,O,m,254,1,1982.4000000059605,147434.09999999404,7190,WL,B,5.0
1,11.44700002670288,learn,48552.99997329712,Mon Aug 11 2025 18:37:59 GMT-0500 (Central Daylight Time),150017.69999998808,A,armenter,O,enter,585,1,2583.5999999940395,147434.09999999404,7190,WL,B,5.0
1,11.978999853134155,learn,48021.000146865845,Mon Aug 11 2025 18:37:59 GMT-0500 (Central Daylight Time),150550.0,A,l,O,l,514,1,532.0,150018.0,7190,WL,B,6.0
1,12.062000036239624,learn,47937.999963760376,Mon Aug 11 2025 18:37:59 GMT-0500 (Central Daylight Time),150633.0,A,la,O,a,68,1,615.0,150018.0,7190,WL,B,6.0
1,12.277999877929688,learn,47722.00012207031,Mon Aug 11 2025 18:37:59 GMT-0500 (Central Daylight Time),150848.80000001192,A,lak,O,k,195,1,830.8000000119209,150018.0,7190,WL,B,6.0
1,12.444999933242798,learn,47555.0000667572,Mon Aug 11 2025 18:37:59 GMT-0500 (Central Daylight Time),151016.5,A,lake,O,e,153,1,998.5,150018.0,7190,WL,B,6.0
1,12.744999885559082,learn,47255.00011444092,Mon Aug 11 2025 18:37:59 GMT-0500 (Central Daylight Time),151316.09999999404,A,lakeenter,O,enter,290,1,1298.0999999940395,150018.0,7190,WL,B,6.0
1,13.128000020980835,learn,46871.999979019165,Mon Aug 11 2025 18:37:59 GMT-0500 (Central Daylight Time),151699.40000000596,A,s,O,s,366,1,382.90000000596046,151316.5,7190,WL,B,7.0
1,13.29699993133545,learn,46703.00006866455,Mon Aug 11 2025 18:37:59 GMT-0500 (Central Daylight Time),151868.0,A,st,O,t,150,1,551.5,151316.5,7190,WL,B,7.0
1,13.529000043869019,learn,46470.99995613098,Mon Aug 11 2025 18:37:59 GMT-0500 (Central Daylight Time),152100.30000001192,A,sta,O,a,226,1,783.8000000119209,151316.5,7190,WL,B,7.0
1,13.609999895095825,learn,46390.000104904175,Mon Aug 11 2025 18:37:59 GMT-0500 (Central Daylight Time),152181.5,A,star,O,r,70,1,865.0,151316.5,7190,WL,B,7.0
1,14.260999917984009,learn,45739.00008201599,Mon Aug 11 2025 18:37:59 GMT-0500 (Central Daylight Time),152831.59999999404,A,starenter,O,enter,630,1,1515.0999999940395,151316.5,7190,WL,B,7.0
1,14.7260000705719,learn,45273.9999294281,Mon Aug 11 2025 18:37:59 GMT-0500 (Central Daylight Time),153297.30000001192,A,p,O,p,459,1,465.40000000596046,152831.90000000596,7190,WL,B,8.0
1,15.759999990463257,learn,44240.00000953674,Mon Aug 11 2025 18:37:59 GMT-0500 (Central Daylight Time),154331.5,A,pu,O,u,1019,1,1499.5999999940395,152831.90000000596,7190,WL,B,8.0
1,16.145999908447266,learn,43854.000091552734,Mon Aug 11 2025 18:37:59 GMT-0500 (Central Daylight Time),154716.59999999404,A,pup,O,p,361,1,1884.699999988079,152831.90000000596,7190,WL,B,8.0
1,16.39400005340576,learn,43605.99994659424,Mon Aug 11 2025 18:37:59 GMT-0500 (Central Daylight Time),154965.09999999404,A,pupi,O,i,230,1,2133.199999988079,152831.90000000596,7190,WL,B,8.0
1,16.67799997329712,learn,43322.00002670288,Mon Aug 11 2025 18:37:59 GMT-0500 (Central Daylight Time),155248.90000000596,A,pupil,O,l,260,1,2417.0,152831.90000000596,7190,WL,B,8.0
1,16.99399995803833,learn,43006.00004196167,Mon Aug 11 2025 18:37:59 GMT-0500 (Central Daylight Time),155564.69999998808,A,pupilenter,O,enter,297,1,2732.7999999821186,152831.90000000596,7190,WL,B,8.0
1,17.49399995803833,learn,42506.00004196167,Mon Aug 11 2025 18:37:59 GMT-0500 (Central Daylight Time),156064.59999999404,A,w,O,w,488,1,499.5,155565.09999999404,7190,WL,B,9.0
1,17.64299988746643,learn,42357.00011253357,Mon Aug 11 2025 18:37:59 GMT-0500 (Central Daylight Time),156214.5,A,wi,O,i,139,1,649.4000000059605,155565.09999999404,7190,WL,B,9.0
1,17.76199984550476,learn,42238.00015449524,Mon Aug 11 2025 18:37:59 GMT-0500 (Central Daylight Time),156333.09999999404,A,wif,O,f,113,1,768.0,155565.09999999404,7190,WL,B,9.0
1,17.943000078201294,learn,42056.999921798706,Mon Aug 11 2025 18:37:59 GMT-0500 (Central Daylight Time),156514.19999998808,A,wife,O,e,166,1,949.0999999940395,155565.09999999404,7190,WL,B,9.0
1,18.526999950408936,learn,41473.000049591064,Mon Aug 11 2025 18:37:59 GMT-0500 (Central Daylight Time),157098.30000001192,A,wifeenter,O,enter,563,1,1533.2000000178814,155565.09999999404,7190,WL,B,9.0
1,18.82699990272522,learn,41173.00009727478,Mon Aug 11 2025 18:37:59 GMT-0500 (Central Daylight Time),157397.90000000596,A,f,O,f,280,1,299.30000001192093,157098.59999999404,7190,WL,B,10.0
1,18.97699999809265,learn,41023.00000190735,Mon Aug 11 2025 18:37:59 GMT-0500 (Central Daylight Time),157547.59999999404,A,fi,O,i,142,1,449.0,157098.59999999404,7190,WL,B,10.0
1,19.14400005340576,learn,40855.99994659424,Mon Aug 11 2025 18:37:59 GMT-0500 (Central Daylight Time),157714.90000000596,A,fir,O,r,146,1,616.3000000119209,157098.59999999404,7190,WL,B,10.0
1,19.243000030517578,learn,40756.99996948242,Mon Aug 11 2025 18:37:59 GMT-0500 (Central Daylight Time),157814.19999998808,A,fire,O,e,88,1,715.5999999940395,157098.59999999404,7190,WL,B,10.0
1,19.609999895095825,learn,40390.000104904175,Mon Aug 11 2025 18:37:59 GMT-0500 (Central Daylight Time),158180.69999998808,A,fireenter,O,enter,346,1,1082.0999999940395,157098.59999999404,7190,WL,B,10.0
1,25.691999912261963,learn,34308.00008773804,Mon Aug 11 2025 18:37:59 GMT-0500 (Central Daylight Time),164262.90000000596,A,p,O,p,6072,1,6081.9000000059605,158181.0,7190,WL,B,11.0
1,25.891000032424927,learn,34108.99996757507,Mon Aug 11 2025 18:37:59 GMT-0500 (Central Daylight Time),164462.0,A,pi,O,i,189,1,6281.0,158181.0,7190,WL,B,11.0
1,26.024999856948853,learn,33975.00014305115,Mon Aug 11 2025 18:37:59 GMT-0500 (Central Daylight Time),164595.80000001192,A,pip,O,p,127,1,6414.800000011921,158181.0,7190,WL,B,11.0
1,26.490999937057495,learn,33509.000062942505,Mon Aug 11 2025 18:37:59 GMT-0500 (Central Daylight Time),165061.90000000596,A,pipe,O,e,447,1,6880.9000000059605,158181.0,7190,WL,B,11.0
1,27.371999979019165,learn,32628.000020980835,Mon Aug 11 2025 18:37:59 GMT-0500 (Central Daylight Time),165943.40000000596,A,pipeenter,O,enter,868,1,7762.4000000059605,158181.0,7190,WL,B,11.0
1,49.53200006484985,learn,10467.999935150146,Mon Aug 11 2025 18:37:59 GMT-0500 (Central Daylight Time),188104.09999999404,A,enter,O,enter,22147,1,22160.5,165943.59999999404,7190,WL,B,12.0
1,51.21499991416931,learn,8785.000085830688,Mon Aug 11 2025 18:37:59 GMT-0500 (Central Daylight Time),189786.69999998808,A,enter,O,enter,1674,1,1682.2999999821186,188104.40000000596,7190,WL,B,13.0
1,52.13100004196167,learn,7868.99995803833,Mon Aug 11 2025 18:37:59 GMT-0500 (Central Daylight Time),190703.09999999404,A,enter,O,enter,904,1,916.0999999940395,189787.0,7190,WL,B,14.0
1,52.91499996185303,learn,7085.000038146973,Mon Aug 11 2025 18:37:59 GMT-0500 (Central Daylight Time),191486.19999998808,A,enter,O,enter,764,1,782.7999999821186,190703.40000000596,7190,WL,B,15.0
2,0.7999999523162842,learn,59200.000047683716,Mon Aug 11 2025 18:37:59 GMT-0500 (Central Daylight Time),261364.80000001192,A,s,O,s,794,1,799.8000000119209,260565.0,7190,WL,B,1.0
2,1.0160000324249268,learn,58983.99996757507,Mon Aug 11 2025 18:37:59 GMT-0500 (Central Daylight Time),261580.80000001192,A,st,O,t,206,1,1015.8000000119209,260565.0,7190,WL,B,1.0
2,1.2829999923706055,learn,58717.000007629395,Mon Aug 11 2025 18:37:59 GMT-0500 (Central Daylight Time),261848.30000001192,A,str,O,r,245,1,1283.300000011921,260565.0,7190,WL,B,1.0
2,1.5499999523162842,learn,58450.000047683716,Mon Aug 11 2025 18:37:59 GMT-0500 (Central Daylight Time),262114.80000001192,A,stre,O,e,246,1,1549.800000011921,260565.0,7190,WL,B,1.0
2,1.9830000400543213,learn,58016.99995994568,Mon Aug 11 2025 18:37:59 GMT-0500 (Central Daylight Time),262548.3000000119,A,stree,O,e,416,1,1983.300000011921,260565.0,7190,WL,B,1.0
2,2.3350000381469727,learn,57664.99996185303,Mon Aug 11 2025 18:37:59 GMT-0500 (Central Daylight Time),262899.90000000596,A,street,O,t,328,1,2334.9000000059605,260565.0,7190,WL,B,1.0
2,2.9149999618530273,learn,57085.00003814697,Mon Aug 11 2025 18:37:59 GMT-0500 (Central Daylight Time),263480.3000000119,A,streetenter,O,enter,559,1,2915.300000011921,260565.0,7190,WL,B,1.0
2,3.997999906539917,learn,56002.00009346008,Mon Aug 11 2025 18:37:59 GMT-0500 (Central Daylight Time),264563.3000000119,A,g,O,g,1064,1,1082.800000011921,263480.5,7190,WL,B,2.0
2,4.264999866485596,learn,55735.000133514404,Mon Aug 11 2025 18:37:59 GMT-0500 (Central Daylight Time),264830.0,A,gr,O,r,258,1,1349.5,263480.5,7190,WL,B,2.0
2,4.48199987411499,learn,55518.00012588501,Mon Aug 11 2025 18:37:59 GMT-0500 (Central Daylight Time),265047.0,A,gra,O,a,205,1,1566.5,263480.5,7190,WL,B,2.0
2,4.796999931335449,learn,55203.00006866455,Mon Aug 11 2025 18:37:59 GMT-0500 (Central Daylight Time),265362.59999999404,A,gras,O,s,300,1,1882.0999999940395,263480.5,7190,WL,B,2.0
2,4.997999906539917,learn,55002.00009346008,Mon Aug 11 2025 18:37:59 GMT-0500 (Central Daylight Time),265562.6999999881,A,grass,O,s,182,1,2082.199999988079,263480.5,7190,WL,B,2.0
2,5.363999843597412,learn,54636.00015640259,Mon Aug 11 2025 18:37:59 GMT-0500 (Central Daylight Time),265929.0,A,grassenter,O,enter,351,1,2448.5,263480.5,7190,WL,B,2.0
2,6.113999843597412,learn,53886.00015640259,Mon Aug 11 2025 18:37:59 GMT-0500 (Central Daylight Time),266679.1999999881,A,d,O,d,738,1,749.8999999761581,265929.3000000119,7190,WL,B,3.0
2,6.430999994277954,learn,53569.000005722046,Mon Aug 11 2025 18:37:59 GMT-0500 (Central Daylight Time),266995.90000000596,A,do,O,o,308,1,1066.5999999940395,265929.3000000119,7190,WL,B,3.0
2,6.615000009536743,learn,53384.99999046326,Mon Aug 11 2025 18:37:59 GMT-0500 (Central Daylight Time),267180.09999999404,A,doo,O,o,178,1,1250.7999999821186,265929.3000000119,7190,WL,B,3.0
2,6.997999906539917,learn,53002.00009346008,Mon Aug 11 2025 18:37:59 GMT-0500 (Central Daylight Time),267562.8000000119,A,door,O,r,360,1,1633.5,265929.3000000119,7190,WL,B,3.0
2,7.447000026702881,learn,52552.99997329712,Mon Aug 11 2025 18:37:59 GMT-0500 (Central Daylight Time),268012.3000000119,A,doorenter,O,enter,432,1,2083.0,265929.3000000119,7190,WL,B,3.0
2,7.879999876022339,learn,52120.00012397766,Mon Aug 11 2025 18:37:59 GMT-0500 (Central Daylight Time),268445.1999999881,A,a,O,a,415,1,432.69999998807907,268012.5,7190,WL,B,4.0
2,8.19700002670288,learn,51802.99997329712,Mon Aug 11 2025 18:37:59 GMT-0500 (Central Daylight Time),268762.3000000119,A,ar,O,r,302,1,749.8000000119209,268012.5,7190,WL,B,4.0
2,9.645999908447266,learn,50354.000091552734,Mon Aug 11 2025 18:37:59 GMT-0500 (Central Daylight Time),270211.59999999404,A,arm,O,m,1442,1,2199.0999999940395,268012.5,7190,WL,B,4.0
2,10.212999820709229,learn,49787.00017929077,Mon Aug 11 2025 18:37:59 GMT-0500 (Central Daylight Time),270778.40000000596,A,armenter,O,enter,545,1,2765.9000000059605,268012.5,7190,WL,B,4.0
2,10.646999835968018,learn,49353.00016403198,Mon Aug 11 2025 18:37:59 GMT-0500 (Central Daylight Time),271212.09999999404,A,p,O,p,418,1,433.5,270778.59999999404,7190,WL,B,5.0
2,10.928999900817871,learn,49071.00009918213,Mon Aug 11 2025 18:37:59 GMT-0500 (Central Daylight Time),271494.0,A,pi,O,i,270,1,715.4000000059605,270778.59999999404,7190,WL,B,5.0
2,11.179999828338623,learn,48820.00017166138,Mon Aug 11 2025 18:37:59 GMT-0500 (Central Daylight Time),271744.6999999881,A,pip,O,p,230,1,966.0999999940395,270778.59999999404,7190,WL,B,5.0
2,11.596999883651733,learn,48403.00011634827,Mon Aug 11 2025 18:37:59 GMT-0500 (Central Daylight Time),272162.0,A,pipe,O,e,395,1,1383.4000000059605,270778.59999999404,7190,WL,B,5.0
2,12.21399998664856,learn,47786.00001335144,Mon Aug 11 2025 18:37:59 GMT-0500 (Central Daylight Time),272779.3000000119,A,pipeenter,O,enter,600,1,2000.7000000178814,270778.59999999404,7190,WL,B,5.0
2,12.579999923706055,learn,47420.000076293945,Mon Aug 11 2025 18:37:59 GMT-0500 (Central Daylight Time),273144.90000000596,A,w,O,w,345,1,365.40000000596046,272779.5,7190,WL,B,6.0
2,12.779000043869019,learn,47220.99995613098,Mon Aug 11 2025 18:37:59 GMT-0500 (Central Daylight Time),273344.1999999881,A,wi,O,i,179,1,564.6999999880791,272779.5,7190,WL,B,6.0
2,13.062000036239624,learn,46937.999963760376,Mon Aug 11 2025 18:37:59 GMT-0500 (Central Daylight Time),273626.8000000119,A,wif,O,f,274,1,847.3000000119209,272779.5,7190,WL,B,6.0
2,13.296000003814697,learn,46703.9999961853,Mon Aug 11 2025 18:37:59 GMT-0500 (Central Daylight Time),273861.09999999404,A,wife,O,e,228,1,1081.5999999940395,272779.5,7190,WL,B,6.0
2,13.559999942779541,learn,46440.00005722046,Mon Aug 11 2025 18:37:59 GMT-0500 (Central Daylight Time),274125.40000000596,A,wifeenter,O,enter,244,1,1345.9000000059605,272779.5,7190,WL,B,6.0
2,13.861999988555908,learn,46138.00001144409,Mon Aug 11 2025 18:37:59 GMT-0500 (Central Daylight Time),274426.59999999404,A,s,O,s,288,1,301.0,274125.59999999404,7190,WL,B,7.0
2,14.09500002861023,learn,45904.99997138977,Mon Aug 11 2025 18:37:59 GMT-0500 (Central Daylight Time),274660.0,A,st,O,t,224,1,534.4000000059605,274125.59999999404,7190,WL,B,7.0
2,14.394999980926514,learn,45605.000019073486,Mon Aug 11 2025 18:37:59 GMT-0500 (Central Daylight Time),274960.5,A,sta,O,a,287,1,834.9000000059605,274125.59999999404,7190,WL,B,7.0
2,14.577999830245972,learn,45422.00016975403,Mon Aug 11 2025 18:37:59 GMT-0500 (Central Daylight Time),275143.09999999404,A,star,O,r,171,1,1017.5,274125.59999999404,7190,WL,B,7.0
2,15.111999988555908,learn,44888.00001144409,Mon Aug 11 2025 18:37:59 GMT-0500 (Central Daylight Time),275676.6999999881,A,starenter,O,enter,524,1,1551.0999999940395,274125.59999999404,7190,WL,B,7.0
2,15.66100001335144,learn,44338.99998664856,Mon Aug 11 2025 18:37:59 GMT-0500 (Central Daylight Time),276226.09999999404,A,p,O,p,534,1,549.1999999880791,275676.90000000596,7190,WL,B,8.0
2,16.060999870300293,learn,43939.00012969971,Mon Aug 11 2025 18:37:59 GMT-0500 (Central Daylight Time),276626.40000000596,A,pu,O,u,385,1,949.5,275676.90000000596,7190,WL,B,8.0
2,16.744999885559082,learn,43255.00011444092,Mon Aug 11 2025 18:37:59 GMT-0500 (Central Daylight Time),277309.6999999881,A,pup,O,p,664,1,1632.7999999821186,275676.90000000596,7190,WL,B,8.0
2,17.060999870300293,learn,42939.00012969971,Mon Aug 11 2025 18:37:59 GMT-0500 (Central Daylight Time),277626.59999999404,A,pupi,O,i,302,1,1949.699999988079,275676.90000000596,7190,WL,B,8.0
2,17.393999814987183,learn,42606.00018501282,Mon Aug 11 2025 18:37:59 GMT-0500 (Central Daylight Time),277958.6999999881,A,pupil,O,l,320,1,2281.7999999821186,275676.90000000596,7190,WL,B,8.0
2,17.80999994277954,learn,42190.00005722046,Mon Aug 11 2025 18:37:59 GMT-0500 (Central Daylight Time),278375.40000000596,A,pupilenter,O,enter,396,1,2698.5,275676.90000000596,7190,WL,B,8.0
2,18.126999855041504,learn,41873.000144958496,Mon Aug 11 2025 18:37:59 GMT-0500 (Central Daylight Time),278691.6999999881,A,c,O,c,309,1,316.0,278375.6999999881,7190,WL,B,9.0
2,18.276000022888184,learn,41723.99997711182,Mon Aug 11 2025 18:37:59 GMT-0500 (Central Daylight Time),278841.3000000119,A,cl,O,l,135,1,465.60000002384186,278375.6999999881,7190,WL,B,9.0
2,18.51099991798401,learn,41489.00008201599,Mon Aug 11 2025 18:37:59 GMT-0500 (Central Daylight Time),279075.6999999881,A,clo,O,o,225,1,700.0,278375.6999999881,7190,WL,B,9.0
2,18.944000005722046,learn,41055.999994277954,Mon Aug 11 2025 18:37:59 GMT-0500 (Central Daylight Time),279508.8000000119,A,cloc,O,c,414,1,1133.1000000238419,278375.6999999881,7190,WL,B,9.0
2,19.07699990272522,learn,40923.00009727478,Mon Aug 11 2025 18:37:59 GMT-0500 (Central Daylight Time),279642.09999999404,A,clock,O,k,128,1,1266.4000000059605,278375.6999999881,7190,WL,B,9.0
2,19.57699990272522,learn,40423.00009727478,Mon Aug 11 2025 18:37:59 GMT-0500 (Central Daylight Time),280142.40000000596,A,clockenter,O,enter,481,1,1766.7000000178814,278375.6999999881,7190,WL,B,9.0
2,20.526999950408936,learn,39473.000049591064,Mon Aug 11 2025 18:37:59 GMT-0500 (Central Daylight Time),281091.6999999881,A,c,O,c,929,1,949.0,280142.6999999881,7190,WL,B,10.0
2,20.626999855041504,learn,39373.000144958496,Mon Aug 11 2025 18:37:59 GMT-0500 (Central Daylight Time),281191.6999999881,A,ci,O,i,88,1,1049.0,280142.6999999881,7190,WL,B,10.0
2,20.82699990272522,learn,39173.00009727478,Mon Aug 11 2025 18:37:59 GMT-0500 (Central Daylight Time),281392.1999999881,A,cit,O,t,180,1,1249.5,280142.6999999881,7190,WL,B,10.0
2,20.97699999809265,learn,39023.00000190735,Mon Aug 11 2025 18:37:59 GMT-0500 (Central Daylight Time),281541.59999999404,A,city,O,y,129,1,1398.9000000059605,280142.6999999881,7190,WL,B,10.0
2,21.74399995803833,learn,38256.00004196167,Mon Aug 11 2025 18:37:59 GMT-0500 (Central Daylight Time),282309.0,A,cityenter,O,enter,759,1,2166.300000011921,280142.6999999881,7190,WL,B,10.0
2,30.256999969482422,learn,29743.000030517578,Mon Aug 11 2025 18:37:59 GMT-0500 (Central Daylight Time),290822.40000000596,A,l,O,l,8494,1,8513.0,282309.40000000596,7190,WL,B,11.0
2,30.405999898910522,learn,29594.000101089478,Mon Aug 11 2025 18:37:59 GMT-0500 (Central Daylight Time),290971.59999999404,A,la,O,a,132,1,8662.199999988079,282309.40000000596,7190,WL,B,11.0
2,30.622999906539917,learn,29377.000093460083,Mon Aug 11 2025 18:37:59 GMT-0500 (Central Daylight Time),291188.5,A,lak,O,k,199,1,8879.09999999404,282309.40000000596,7190,WL,B,11.0
2,30.938999891281128,learn,29061.000108718872,Mon Aug 11 2025 18:37:59 GMT-0500 (Central Daylight Time),291504.0,A,lake,O,e,294,1,9194.59999999404,282309.40000000596,7190,WL,B,11.0
2,31.389999866485596,learn,28610.000133514404,Mon Aug 11 2025 18:37:59 GMT-0500 (Central Daylight Time),291955.3000000119,A,lakeenter,O,enter,429,1,9645.90000000596,282309.40000000596,7190,WL,B,11.0
2,38.86999988555908,learn,21130.000114440918,Mon Aug 11 2025 18:37:59 GMT-0500 (Central Daylight Time),299435.40000000596,A,c,O,c,7475,1,7479.800000011921,291955.59999999404,7190,WL,B,12.0
2,39.08699989318848,learn,20913.000106811523,Mon Aug 11 2025 18:37:59 GMT-0500 (Central Daylight Time),299653.0,A,ca,O,a,202,1,7697.4000000059605,291955.59999999404,7190,WL,B,12.0
2,39.61899995803833,learn,20381.00004196167,Mon Aug 11 2025 18:37:59 GMT-0500 (Central Daylight Time),300185.09999999404,A,cab,O,b,509,1,8229.5,291955.59999999404,7190,WL,B,12.0
2,39.73699998855591,learn,20263.00001144409,Mon Aug 11 2025 18:37:59 GMT-0500 (Central Daylight Time),300302.5,A,cabi,O,i,94,1,8346.90000000596,291955.59999999404,7190,WL,B,12.0
2,39.83699989318848,learn,20163.000106811523,Mon Aug 11 2025 18:37:59 GMT-0500 (Central Daylight Time),300402.8000000119,A,cabin,O,n,93,1,8447.200000017881,291955.59999999404,7190,WL,B,12.0
2,41.1029999256134,learn,18897.000074386597,Mon Aug 11 2025 18:37:59 GMT-0500 (Central Daylight Time),301668.1999999881,A,cabinenter,O,enter,1254,1,9712.59999999404,291955.59999999404,7190,WL,B,12.0
2,47.782999992370605,learn,12217.000007629395,Mon Aug 11 2025 18:37:59 GMT-0500 (Central Daylight Time),308348.90000000596,A,enter,O,enter,6671,1,6680.4000000059605,301668.5,7190,WL,B,13.0
2,49.0,learn,11000.0,Mon Aug 11 2025 18:37:59 GMT-0500 (Central Daylight Time),309565.1999999881,A,enter,O,enter,1206,1,1216.0,308349.1999999881,7190,WL,B,14.0
2,49.348999977111816,learn,10651.000022888184,Mon Aug 11 2025 18:37:59 GMT-0500 (Central Daylight Time),309914.40000000596,A,enter,O,enter,334,1,348.90000000596046,309565.5,7190,WL,B,15.0
3,0.9820001125335693,learn,59017.99988746643,Mon Aug 11 2025 18:37:59 GMT-0500 (Central Daylight Time),377993.3000000119,A,a,O,a,964,1,981.9000000059605,377011.40000000596,7190,WL,B,1.0
3,1.1480000019073486,learn,58851.99999809265,Mon Aug 11 2025 18:37:59 GMT-0500 (Central Daylight Time),378159.6999999881,A,ar,O,r,147,1,1148.2999999821186,377011.40000000596,7190,WL,B,1.0
3,1.565999984741211,learn,58434.00001525879,Mon Aug 11 2025 18:37:59 GMT-0500 (Central Daylight Time),378577.5,A,arenter,O,enter,402,1,1566.0999999940395,377011.40000000596,7190,WL,B,1.0
3,2.5820000171661377,learn,57417.99998283386,Mon Aug 11 2025 18:37:59 GMT-0500 (Central Daylight Time),379593.5,A,a,O,a,1003,1,1015.6999999880791,378577.8000000119,7190,WL,B,2.0
3,2.7820000648498535,learn,57217.99993515015,Mon Aug 11 2025 18:37:59 GMT-0500 (Central Daylight Time),379793.59999999404,A,ar,O,r,186,1,1215.7999999821186,378577.8000000119,7190,WL,B,2.0
3,4.2829999923706055,learn,55717.000007629395,Mon Aug 11 2025 18:37:59 GMT-0500 (Central Daylight Time),381293.6999999881,A,arm,O,m,1491,1,2715.899999976158,378577.8000000119,7190,WL,B,2.0
3,5.815000057220459,learn,54184.99994277954,Mon Aug 11 2025 18:37:59 GMT-0500 (Central Daylight Time),382826.40000000596,A,armenter,O,enter,1518,1,4248.5999999940395,378577.8000000119,7190,WL,B,2.0
3,6.148000001907349,learn,53851.99999809265,Mon Aug 11 2025 18:37:59 GMT-0500 (Central Daylight Time),383159.1999999881,A,s,O,s,322,1,332.5,382826.6999999881,7190,WL,B,3.0
3,6.313999891281128,learn,53686.00010871887,Mon Aug 11 2025 18:37:59 GMT-0500 (Central Daylight Time),383325.40000000596,A,sk,O,k,146,1,498.7000000178814,382826.6999999881,7190,WL,B,3.0
3,6.496999979019165,learn,53503.000020980835,Mon Aug 11 2025 18:37:59 GMT-0500 (Central Daylight Time),383508.59999999404,A,ski,O,i,163,1,681.9000000059605,382826.6999999881,7190,WL,B,3.0
3,6.63100004196167,learn,53368.99995803833,Mon Aug 11 2025 18:37:59 GMT-0500 (Central Daylight Time),383642.09999999404,A,skin,O,n,120,1,815.4000000059605,382826.6999999881,7190,WL,B,3.0
3,6.947000026702881,learn,53052.99997329712,Mon Aug 11 2025 18:37:59 GMT-0500 (Central Daylight Time),383958.40000000596,A,skinenter,O,enter,297,1,1131.7000000178814,382826.6999999881,7190,WL,B,3.0
3,7.381999969482422,learn,52618.00003051758,Mon Aug 11 2025 18:37:59 GMT-0500 (Central Daylight Time),384393.5,A,f,O,f,416,1,434.80000001192093,383958.6999999881,7190,WL,B,4.0
3,7.496999979019165,learn,52503.000020980835,Mon Aug 11 2025 18:37:59 GMT-0500 (Central Daylight Time),384508.59999999404,A,fi,O,i,93,1,549.9000000059605,383958.6999999881,7190,WL,B,4.0
3,7.63100004196167,learn,52368.99995803833,Mon Aug 11 2025 18:37:59 GMT-0500 (Central Daylight Time),384642.3000000119,A,fir,O,r,116,1,683.6000000238419,383958.6999999881,7190,WL,B,4.0
3,7.746999979019165,learn,52253.000020980835,Mon Aug 11 2025 18:37:59 GMT-0500 (Central Daylight Time),384758.6999999881,A,fire,O,e,95,1,800.0,383958.6999999881,7190,WL,B,4.0
3,8.73200011253357,learn,51267.99988746643,Mon Aug 11 2025 18:37:59 GMT-0500 (Central Daylight Time),385742.8000000119,A,fireenter,O,enter,972,1,1784.1000000238419,383958.6999999881,7190,WL,B,4.0
3,10.730000019073486,learn,49269.999980926514,Mon Aug 11 2025 18:37:59 GMT-0500 (Central Daylight Time),387741.1999999881,A,c,O,c,1980,1,1998.0999999940395,385743.09999999404,7190,WL,B,5.0
3,10.829999923706055,learn,49170.000076293945,Mon Aug 11 2025 18:37:59 GMT-0500 (Central Daylight Time),387841.0,A,ci,O,i,79,1,2097.9000000059605,385743.09999999404,7190,WL,B,5.0
3,10.979000091552734,learn,49020.999908447266,Mon Aug 11 2025 18:37:59 GMT-0500 (Central Daylight Time),387990.40000000596,A,cit,O,t,137,1,2247.300000011921,385743.09999999404,7190,WL,B,5.0
3,11.114000082015991,learn,48885.99991798401,Mon Aug 11 2025 18:37:59 GMT-0500 (Central Daylight Time),388125.09999999404,A,city,O,y,117,1,2382.0,385743.09999999404,7190,WL,B,5.0
3,11.713000059127808,learn,48286.99994087219,Mon Aug 11 2025 18:37:59 GMT-0500 (Central Daylight Time),388723.90000000596,A,cityenter,O,enter,582,1,2980.800000011921,385743.09999999404,7190,WL,B,5.0
3,12.063999891281128,learn,47936.00010871887,Mon Aug 11 2025 18:37:59 GMT-0500 (Central Daylight Time),389075.1999999881,A,l,O,l,331,1,351.09999999403954,388724.09999999404,7190,WL,B,6.0
3,12.161999940872192,learn,47838.00005912781,Mon Aug 11 2025 18:37:59 GMT-0500 (Central Daylight Time),389173.3000000119,A,la,O,a,88,1,449.2000000178814,388724.09999999404,7190,WL,B,6.0
3,12.345999956130981,learn,47654.00004386902,Mon Aug 11 2025 18:37:59 GMT-0500 (Central Daylight Time),389357.09999999404,A,lak,O,k,161,1,633.0,388724.09999999404,7190,WL,B,6.0
3,12.446000099182129,learn,47553.99990081787,Mon Aug 11 2025 18:37:59 GMT-0500 (Central Daylight Time),389457.59999999404,A,lake,O,e,87,1,733.5,388724.09999999404,7190,WL,B,6.0
3,12.746999979019165,learn,47253.000020980835,Mon Aug 11 2025 18:37:59 GMT-0500 (Central Daylight Time),389758.5,A,lakeenter,O,enter,290,1,1034.4000000059605,388724.09999999404,7190,WL,B,6.0
3,13.046000003814697,learn,46953.9999961853,Mon Aug 11 2025 18:37:59 GMT-0500 (Central Daylight Time),390056.6999999881,A,c,O,c,285,1,297.89999997615814,389758.8000000119,7190,WL,B,7.0
3,13.279000043869019,learn,46720.99995613098,Mon Aug 11 2025 18:37:59 GMT-0500 (Central Daylight Time),390290.09999999404,A,ca,O,a,220,1,531.2999999821186,389758.8000000119,7190,WL,B,7.0
3,13.479000091552734,learn,46520.999908447266,Mon Aug 11 2025 18:37:59 GMT-0500 (Central Daylight Time),390490.0,A,cab,O,b,187,1,731.1999999880791,389758.8000000119,7190,WL,B,7.0
3,13.59500002861023,learn,46404.99997138977,Mon Aug 11 2025 18:37:59 GMT-0500 (Central Daylight Time),390606.1999999881,A,cabi,O,i,106,1,847.3999999761581,389758.8000000119,7190,WL,B,7.0
3,13.694000005722046,learn,46305.999994277954,Mon Aug 11 2025 18:37:59 GMT-0500 (Central Daylight Time),390705.5,A,cabin,O,n,84,1,946.6999999880791,389758.8000000119,7190,WL,B,7.0
3,14.194999933242798,learn,45805.0000667572,Mon Aug 11 2025 18:37:59 GMT-0500 (Central Daylight Time),391206.09999999404,A,cabinenter,O,enter,479,1,1447.2999999821186,389758.8000000119,7190,WL,B,7.0
3,14.878999948501587,learn,45121.00005149841,Mon Aug 11 2025 18:37:59 GMT-0500 (Central Daylight Time),391889.90000000596,A,d,O,d,679,1,683.5,391206.40000000596,7190,WL,B,8.0
3,15.062000036239624,learn,44937.999963760376,Mon Aug 11 2025 18:37:59 GMT-0500 (Central Daylight Time),392073.1999999881,A,do,O,o,172,1,866.7999999821186,391206.40000000596,7190,WL,B,8.0
3,15.210999965667725,learn,44789.000034332275,Mon Aug 11 2025 18:37:59 GMT-0500 (Central Daylight Time),392222.5,A,doo,O,o,137,1,1016.0999999940395,391206.40000000596,7190,WL,B,8.0
3,15.311000108718872,learn,44688.99989128113,Mon Aug 11 2025 18:37:59 GMT-0500 (Central Daylight Time),392322.09999999404,A,door,O,r,85,1,1115.699999988079,391206.40000000596,7190,WL,B,8.0
3,15.51200008392334,learn,44487.99991607666,Mon Aug 11 2025 18:37:59 GMT-0500 (Central Daylight Time),392523.1999999881,A,doorenter,O,enter,184,1,1316.7999999821186,391206.40000000596,7190,WL,B,8.0
3,15.911999940872192,learn,44088.00005912781,Mon Aug 11 2025 18:37:59 GMT-0500 (Central Daylight Time),392922.90000000596,A,w,O,w,384,1,399.30000001192093,392523.59999999404,7190,WL,B,9.0
3,16.078999996185303,learn,43921.0000038147,Mon Aug 11 2025 18:37:59 GMT-0500 (Central Daylight Time),393090.09999999404,A,wi,O,i,145,1,566.5,392523.59999999404,7190,WL,B,9.0
3,16.16100001335144,learn,43838.99998664856,Mon Aug 11 2025 18:37:59 GMT-0500 (Central Daylight Time),393171.90000000596,A,win,O,n,71,1,648.3000000119209,392523.59999999404,7190,WL,B,9.0
3,16.378000020980835,learn,43621.999979019165,Mon Aug 11 2025 18:37:59 GMT-0500 (Central Daylight Time),393388.8000000119,A,wind,O,d,210,1,865.2000000178814,392523.59999999404,7190,WL,B,9.0
3,16.57699990272522,learn,43423.00009727478,Mon Aug 11 2025 18:37:59 GMT-0500 (Central Daylight Time),393588.1999999881,A,winde,O,e,191,1,1064.5999999940395,392523.59999999404,7190,WL,B,9.0
3,17.313999891281128,learn,42686.00010871887,Mon Aug 11 2025 18:37:59 GMT-0500 (Central Daylight Time),394324.8000000119,A,wind,O,backspace,731,1,1801.2000000178814,392523.59999999404,7190,WL,B,9.0
3,17.694999933242798,learn,42305.0000667572,Mon Aug 11 2025 18:37:59 GMT-0500 (Central Daylight Time),394706.40000000596,A,windo,O,o,365,1,2182.800000011921,392523.59999999404,7190,WL,B,9.0
3,17.859999895095825,learn,42140.000104904175,Mon Aug 11 2025 18:37:59 GMT-0500 (Central Daylight Time),394870.59999999404,A,window,O,w,143,1,2347.0,392523.59999999404,7190,WL,B,9.0
3,18.109999895095825,learn,41890.000104904175,Mon Aug 11 2025 18:37:59 GMT-0500 (Central Daylight Time),395121.40000000596,A,windowenter,O,enter,232,1,2597.800000011921,392523.59999999404,7190,WL,B,9.0
3,18.344000101089478,learn,41655.99989891052,Mon Aug 11 2025 18:37:59 GMT-0500 (Central Daylight Time),395354.90000000596,A,s,O,s,219,1,233.30000001192093,395121.59999999404,7190,WL,B,10.0
3,18.51099991798401,learn,41489.00008201599,Mon Aug 11 2025 18:37:59 GMT-0500 (Central Daylight Time),395522.1999999881,A,st,O,t,151,1,400.59999999403954,395121.59999999404,7190,WL,B,10.0
3,18.91100001335144,learn,41088.99998664856,Mon Aug 11 2025 18:37:59 GMT-0500 (Central Daylight Time),395922.3000000119,A,sta,O,a,379,1,800.7000000178814,395121.59999999404,7190,WL,B,10.0
3,18.943000078201294,learn,41056.999921798706,Mon Aug 11 2025 18:37:59 GMT-0500 (Central Daylight Time),395953.59999999404,A,star,O,r,24,1,832.0,395121.59999999404,7190,WL,B,10.0
3,19.55999994277954,learn,40440.00005722046,Mon Aug 11 2025 18:37:59 GMT-0500 (Central Daylight Time),396571.1999999881,A,starenter,O,enter,603,1,1449.5999999940395,395121.59999999404,7190,WL,B,10.0
3,19.97699999809265,learn,40023.00000190735,Mon Aug 11 2025 18:37:59 GMT-0500 (Central Daylight Time),396987.8000000119,A,p,O,p,401,1,416.30000001192093,396571.5,7190,WL,B,11.0
3,20.211999893188477,learn,39788.00010681152,Mon Aug 11 2025 18:37:59 GMT-0500 (Central Daylight Time),397222.8000000119,A,pu,O,u,215,1,651.3000000119209,396571.5,7190,WL,B,11.0
3,20.66000008583069,learn,39339.99991416931,Mon Aug 11 2025 18:37:59 GMT-0500 (Central Daylight Time),397671.5,A,pup,O,p,437,1,1100.0,396571.5,7190,WL,B,11.0
3,20.960000038146973,learn,39039.99996185303,Mon Aug 11 2025 18:37:59 GMT-0500 (Central Daylight Time),397970.8000000119,A,pupi,O,i,279,1,1399.300000011921,396571.5,7190,WL,B,11.0
3,21.14400005340576,learn,38855.99994659424,Mon Aug 11 2025 18:37:59 GMT-0500 (Central Daylight Time),398155.3000000119,A,pupil,O,l,178,1,1583.800000011921,396571.5,7190,WL,B,11.0
3,22.20900011062622,learn,37790.99988937378,Mon Aug 11 2025 18:37:59 GMT-0500 (Central Daylight Time),399220.1999999881,A,pupilenter,O,enter,1055,1,2648.699999988079,396571.5,7190,WL,B,11.0
3,22.776999950408936,learn,37223.000049591064,Mon Aug 11 2025 18:37:59 GMT-0500 (Central Daylight Time),399788.09999999404,A,w,O,w,552,1,567.6999999880791,399220.40000000596,7190,WL,B,12.0
3,22.943000078201294,learn,37056.999921798706,Mon Aug 11 2025 18:37:59 GMT-0500 (Central Daylight Time),399953.8000000119,A,wi,O,i,150,1,733.4000000059605,399220.40000000596,7190,WL,B,12.0
3,23.127000093460083,learn,36872.99990653992,Mon Aug 11 2025 18:37:59 GMT-0500 (Central Daylight Time),400137.6999999881,A,wif,O,f,162,1,917.2999999821186,399220.40000000596,7190,WL,B,12.0
3,23.377000093460083,learn,36622.99990653992,Mon Aug 11 2025 18:37:59 GMT-0500 (Central Daylight Time),400388.09999999404,A,wife,O,e,243,1,1167.699999988079,399220.40000000596,7190,WL,B,12.0
3,25.45900011062622,learn,34540.99988937378,Mon Aug 11 2025 18:37:59 GMT-0500 (Central Daylight Time),402469.90000000596,A,wifec,O,c,2063,1,3249.5,399220.40000000596,7190,WL,B,12.0
3,26.058000087738037,learn,33941.99991226196,Mon Aug 11 2025 18:37:59 GMT-0500 (Central Daylight Time),403068.90000000596,A,wife,O,backspace,587,1,3848.5,399220.40000000596,7190,WL,B,12.0
3,26.80900001525879,learn,33190.99998474121,Mon Aug 11 2025 18:37:59 GMT-0500 (Central Daylight Time),403819.6999999881,A,wifeenter,O,enter,745,1,4599.299999982119,399220.40000000596,7190,WL,B,12.0
3,27.342000007629395,learn,32657.999992370605,Mon Aug 11 2025 18:37:59 GMT-0500 (Central Daylight Time),404352.6999999881,A,c,O,c,520,1,532.5999999940395,403820.09999999404,7190,WL,B,13.0
3,27.473999977111816,learn,32526.000022888184,Mon Aug 11 2025 18:37:59 GMT-0500 (Central Daylight Time),404484.6999999881,A,ca,O,a,122,1,664.5999999940395,403820.09999999404,7190,WL,B,13.0
3,28.007999897003174,learn,31992.000102996826,Mon Aug 11 2025 18:37:59 GMT-0500 (Central Daylight Time),405018.6999999881,A,cab,O,b,519,1,1198.5999999940395,403820.09999999404,7190,WL,B,13.0
3,28.27300000190735,learn,31726.99999809265,Mon Aug 11 2025 18:37:59 GMT-0500 (Central Daylight Time),405284.59999999404,A,cabi,O,i,257,1,1464.5,403820.09999999404,7190,WL,B,13.0
3,28.407999992370605,learn,31592.000007629395,Mon Aug 11 2025 18:37:59 GMT-0500 (Central Daylight Time),405419.09999999404,A,cabim,O,m,130,1,1599.0,403820.09999999404,7190,WL,B,13.0
3,29.157000064849854,learn,30842.999935150146,Mon Aug 11 2025 18:37:59 GMT-0500 (Central Daylight Time),406167.90000000596,A,cabi,O,backspace,735,1,2347.800000011921,403820.09999999404,7190,WL,B,13.0
3,29.473999977111816,learn,30526.000022888184,Mon Aug 11 2025 18:37:59 GMT-0500 (Central Daylight Time),406485.1999999881,A,cabin,O,n,307,1,2665.0999999940395,403820.09999999404,7190,WL,B,13.0
3,29.740000009536743,learn,30259.999990463257,Mon Aug 11 2025 18:37:59 GMT-0500 (Central Daylight Time),406751.1999999881,A,cabinenter,O,enter,255,1,2931.0999999940395,403820.09999999404,7190,WL,B,13.0
3,30.072999954223633,learn,29927.000045776367,Mon Aug 11 2025 18:37:59 GMT-0500 (Central Daylight Time),407084.59999999404,A,c,O,c,312,1,333.09999999403954,406751.5,7190,WL,B,14.0
3,30.174000024795532,learn,29825.999975204468,Mon Aug 11 2025 18:37:59 GMT-0500 (Central Daylight Time),407185.5,A,cl,O,l,80,1,434.0,406751.5,7190,WL,B,14.0
3,30.35800004005432,learn,29641.99995994568,Mon Aug 11 2025 18:37:59 GMT-0500 (Central Daylight Time),407369.0,A,clo,O,o,162,1,617.5,406751.5,7190,WL,B,14.0
3,30.48900008201599,learn,29510.99991798401,Mon Aug 11 2025 18:37:59 GMT-0500 (Central Daylight Time),407500.3000000119,A,cloc,O,c,113,1,748.8000000119209,406751.5,7190,WL,B,14.0
3,30.67300009727478,learn,29326.99990272522,Mon Aug 11 2025 18:37:59 GMT-0500 (Central Daylight Time),407684.59999999404,A,clock,O,k,166,1,933.0999999940395,406751.5,7190,WL,B,14.0
3,31.35599994659424,learn,28644.00005340576,Mon Aug 11 2025 18:37:59 GMT-0500 (Central Daylight Time),408367.3000000119,A,clockenter,O,enter,669,1,1615.800000011921,406751.5,7190,WL,B,14.0
3,31.888999938964844,learn,28111.000061035156,Mon Aug 11 2025 18:37:59 GMT-0500 (Central Daylight Time),408900.09999999404,A,p,O,p,526,1,532.5999999940395,408367.5,7190,WL,B,15.0
3,32.138999938964844,learn,27861.000061035156,Mon Aug 11 2025 18:37:59 GMT-0500 (Central Daylight Time),409150.09999999404,A,pi,O,i,239,1,782.5999999940395,408367.5,7190,WL,B,15.0
3,32.35599994659424,learn,27644.00005340576,Mon Aug 11 2025 18:37:59 GMT-0500 (Central Daylight Time),409367.09999999404,A,pip,O,p,198,1,999.5999999940395,408367.5,7190,WL,B,15.0
3,32.640000104904175,learn,27359.999895095825,Mon Aug 11 2025 18:37:59 GMT-0500 (Central Daylight Time),409651.09999999404,A,pipe,O,e,268,1,1283.5999999940395,408367.5,7190,WL,B,15.0
3,32.888999938964844,learn,27111.000061035156,Mon Aug 11 2025 18:37:59 GMT-0500 (Central Daylight Time),409900.3000000119,A,pipeenter,O,enter,233,1,1532.800000011921,408367.5,7190,WL,B,15.0
4,0.7179999351501465,learn,59282.00006484985,Mon Aug 11 2025 18:37:59 GMT-0500 (Central Daylight Time),479327.6999999881,A,p,O,p,705,1,717.3999999761581,478610.3000000119,7190,WL,B,1.0
4,0.9830000400543213,learn,59016.99995994568,Mon Aug 11 2025 18:37:59 GMT-0500 (Central Daylight Time),479592.90000000596,A,pi,O,i,259,1,982.5999999940395,478610.3000000119,7190,WL,B,1.0
4,1.251999855041504,learn,58748.000144958496,Mon Aug 11 2025 18:37:59 GMT-0500 (Central Daylight Time),479862.3000000119,A,pip,O,p,261,1,1252.0,478610.3000000119,7190,WL,B,1.0
4,1.569000005722046,learn,58430.999994277954,Mon Aug 11 2025 18:37:59 GMT-0500 (Central Daylight Time),480179.09999999404,A,pipe,O,e,296,1,1568.7999999821186,478610.3000000119,7190,WL,B,1.0
4,1.9010000228881836,learn,58098.99997711182,Mon Aug 11 2025 18:37:59 GMT-0500 (Central Daylight Time),480511.59999999404,A,pipeenter,O,enter,317,1,1901.2999999821186,478610.3000000119,7190,WL,B,1.0
4,2.303999900817871,learn,57696.00009918213,Mon Aug 11 2025 18:37:59 GMT-0500 (Central Daylight Time),480913.90000000596,A,f,O,f,389,1,402.0,480511.90000000596,7190,WL,B,2.0
4,2.434000015258789,learn,57565.99998474121,Mon Aug 11 2025 18:37:59 GMT-0500 (Central Daylight Time),481044.1999999881,A,fi,O,i,121,1,532.2999999821186,480511.90000000596,7190,WL,B,2.0
4,2.6510000228881836,learn,57348.99997711182,Mon Aug 11 2025 18:37:59 GMT-0500 (Central Daylight Time),481261.3000000119,A,fir,O,r,206,1,749.4000000059605,480511.90000000596,7190,WL,B,2.0
4,2.7159998416900635,learn,57284.00015830994,Mon Aug 11 2025 18:37:59 GMT-0500 (Central Daylight Time),481326.40000000596,A,fire,O,e,53,1,814.5,480511.90000000596,7190,WL,B,2.0
4,3.1009998321533203,learn,56899.00016784668,Mon Aug 11 2025 18:37:59 GMT-0500 (Central Daylight Time),481710.8000000119,A,fireenter,O,enter,372,1,1198.9000000059605,480511.90000000596,7190,WL,B,2.0
4,3.381999969482422,learn,56618.00003051758,Mon Aug 11 2025 18:37:59 GMT-0500 (Central Daylight Time),481992.0,A,a,O,a,276,1,281.0,481711.0,7190,WL,B,3.0
4,3.566999912261963,learn,56433.00008773804,Mon Aug 11 2025 18:37:59 GMT-0500 (Central Daylight Time),482177.59999999404,A,ar,O,r,167,1,466.59999999403954,481711.0,7190,WL,B,3.0
4,3.8339998722076416,learn,56166.00012779236,Mon Aug 11 2025 18:37:59 GMT-0500 (Central Daylight Time),482444.40000000596,A,arm,O,m,256,1,733.4000000059605,481711.0,7190,WL,B,3.0
4,4.733000040054321,learn,55266.99995994568,Mon Aug 11 2025 18:37:59 GMT-0500 (Central Daylight Time),483343.1999999881,A,armenter,O,enter,878,1,1632.199999988079,481711.0,7190,WL,B,3.0
4,5.016999959945679,learn,54983.00004005432,Mon Aug 11 2025 18:37:59 GMT-0500 (Central Daylight Time),483626.90000000596,A,s,O,s,278,1,283.5,483343.40000000596,7190,WL,B,4.0
4,5.182999849319458,learn,54817.00015068054,Mon Aug 11 2025 18:37:59 GMT-0500 (Central Daylight Time),483793.59999999404,A,sk,O,k,143,1,450.19999998807907,483343.40000000596,7190,WL,B,4.0
4,5.382999897003174,learn,54617.000102996826,Mon Aug 11 2025 18:37:59 GMT-0500 (Central Daylight Time),483993.40000000596,A,ski,O,i,181,1,650.0,483343.40000000596,7190,WL,B,4.0
4,5.516000032424927,learn,54483.99996757507,Mon Aug 11 2025 18:37:59 GMT-0500 (Central Daylight Time),484126.0,A,skin,O,n,113,1,782.5999999940395,483343.40000000596,7190,WL,B,4.0
4,6.184000015258789,learn,53815.99998474121,Mon Aug 11 2025 18:37:59 GMT-0500 (Central Daylight Time),484793.6999999881,A,skinenter,O,enter,658,1,1450.2999999821186,483343.40000000596,7190,WL,B,4.0
4,7.016999959945679,learn,52983.00004005432,Mon Aug 11 2025 18:37:59 GMT-0500 (Central Daylight Time),485627.09999999404,A,s,O,s,819,1,833.1999999880791,484793.90000000596,7190,WL,B,5.0
4,7.266000032424927,learn,52733.99996757507,Mon Aug 11 2025 18:37:59 GMT-0500 (Central Daylight Time),485875.90000000596,A,st,O,t,231,1,1082.0,484793.90000000596,7190,WL,B,5.0
4,7.5329999923706055,learn,52467.000007629395,Mon Aug 11 2025 18:37:59 GMT-0500 (Central Daylight Time),486143.3000000119,A,str,O,r,246,1,1349.4000000059605,484793.90000000596,7190,WL,B,5.0
4,7.799999952316284,learn,52200.000047683716,Mon Aug 11 2025 18:37:59 GMT-0500 (Central Daylight Time),486410.5,A,stre,O,e,262,1,1616.5999999940395,484793.90000000596,7190,WL,B,5.0
4,7.9649999141693115,learn,52035.00008583069,Mon Aug 11 2025 18:37:59 GMT-0500 (Central Daylight Time),486575.59999999404,A,stree,O,e,153,1,1781.699999988079,484793.90000000596,7190,WL,B,5.0
4,8.16599988937378,learn,51834.00011062622,Mon Aug 11 2025 18:37:59 GMT-0500 (Central Daylight Time),486776.5,A,street,O,t,179,1,1982.5999999940395,484793.90000000596,7190,WL,B,5.0
4,8.98199987411499,learn,51018.00012588501,Mon Aug 11 2025 18:37:59 GMT-0500 (Central Daylight Time),487591.90000000596,A,streetenter,O,enter,794,1,2798.0,484793.90000000596,7190,WL,B,5.0
4,9.315000057220459,learn,50684.99994277954,Mon Aug 11 2025 18:37:59 GMT-0500 (Central Daylight Time),487924.59999999404,A,g,O,g,315,1,332.5,487592.09999999404,7190,WL,B,6.0
4,9.549000024795532,learn,50450.99997520447,Mon Aug 11 2025 18:37:59 GMT-0500 (Central Daylight Time),488158.8000000119,A,gr,O,r,223,1,566.7000000178814,487592.09999999404,7190,WL,B,6.0
4,9.714999914169312,learn,50285.00008583069,Mon Aug 11 2025 18:37:59 GMT-0500 (Central Daylight Time),488325.59999999404,A,gra,O,a,154,1,733.5,487592.09999999404,7190,WL,B,6.0
4,10.065000057220459,learn,49934.99994277954,Mon Aug 11 2025 18:37:59 GMT-0500 (Central Daylight Time),488674.8000000119,A,gras,O,s,343,1,1082.7000000178814,487592.09999999404,7190,WL,B,6.0
4,10.248999834060669,learn,49751.00016593933,Mon Aug 11 2025 18:37:59 GMT-0500 (Central Daylight Time),488859.0,A,grass,O,s,164,1,1266.9000000059605,487592.09999999404,7190,WL,B,6.0
4,10.497999906539917,learn,49502.00009346008,Mon Aug 11 2025 18:37:59 GMT-0500 (Central Daylight Time),489108.59999999404,A,grassenter,O,enter,239,1,1516.5,487592.09999999404,7190,WL,B,6.0
4,10.799000024795532,learn,49200.99997520447,Mon Aug 11 2025 18:37:59 GMT-0500 (Central Daylight Time),489408.90000000596,A,c,O,c,281,1,300.0,489108.90000000596,7190,WL,B,7.0
4,10.98199987411499,learn,49018.00012588501,Mon Aug 11 2025 18:37:59 GMT-0500 (Central Daylight Time),489592.1999999881,A,ca,O,a,170,1,483.2999999821186,489108.90000000596,7190,WL,B,7.0
4,11.197999954223633,learn,48802.00004577637,Mon Aug 11 2025 18:37:59 GMT-0500 (Central Daylight Time),489808.09999999404,A,cab,O,b,202,1,699.1999999880791,489108.90000000596,7190,WL,B,7.0
4,11.332000017166138,learn,48667.99998283386,Mon Aug 11 2025 18:37:59 GMT-0500 (Central Daylight Time),489941.8000000119,A,cabi,O,i,123,1,832.9000000059605,489108.90000000596,7190,WL,B,7.0
4,11.447999954223633,learn,48552.00004577637,Mon Aug 11 2025 18:37:59 GMT-0500 (Central Daylight Time),490058.40000000596,A,cabin,O,n,103,1,949.5,489108.90000000596,7190,WL,B,7.0
4,11.848000049591064,learn,48151.999950408936,Mon Aug 11 2025 18:37:59 GMT-0500 (Central Daylight Time),490457.8000000119,A,cabinenter,O,enter,383,1,1348.9000000059605,489108.90000000596,7190,WL,B,7.0
4,12.881999969482422,learn,47118.00003051758,Mon Aug 11 2025 18:37:59 GMT-0500 (Central Daylight Time),491492.0,A,d,O,d,1018,1,1033.9000000059605,490458.09999999404,7190,WL,B,8.0
4,13.030999898910522,learn,46969.00010108948,Mon Aug 11 2025 18:37:59 GMT-0500 (Central Daylight Time),491641.40000000596,A,do,O,o,136,1,1183.300000011921,490458.09999999404,7190,WL,B,8.0
4,13.197999954223633,learn,46802.00004577637,Mon Aug 11 2025 18:37:59 GMT-0500 (Central Daylight Time),491807.8000000119,A,doo,O,o,154,1,1349.7000000178814,490458.09999999404,7190,WL,B,8.0
4,13.330999851226807,learn,46669.00014877319,Mon Aug 11 2025 18:37:59 GMT-0500 (Central Daylight Time),491941.5,A,door,O,r,115,1,1483.4000000059605,490458.09999999404,7190,WL,B,8.0
4,13.52999997138977,learn,46470.00002861023,Mon Aug 11 2025 18:37:59 GMT-0500 (Central Daylight Time),492140.59999999404,A,doorenter,O,enter,187,1,1682.5,490458.09999999404,7190,WL,B,8.0
4,13.94700002670288,learn,46052.99997329712,Mon Aug 11 2025 18:37:59 GMT-0500 (Central Daylight Time),492557.1999999881,A,w,O,w,399,1,416.39999997615814,492140.8000000119,7190,WL,B,9.0
4,14.047999858856201,learn,45952.0001411438,Mon Aug 11 2025 18:37:59 GMT-0500 (Central Daylight Time),492657.8000000119,A,wi,O,i,77,1,517.0,492140.8000000119,7190,WL,B,9.0
4,14.146999835968018,learn,45853.00016403198,Mon Aug 11 2025 18:37:59 GMT-0500 (Central Daylight Time),492757.09999999404,A,win,O,n,88,1,616.2999999821186,492140.8000000119,7190,WL,B,9.0
4,14.263999938964844,learn,45736.000061035156,Mon Aug 11 2025 18:37:59 GMT-0500 (Central Daylight Time),492874.59999999404,A,wind,O,d,95,1,733.7999999821186,492140.8000000119,7190,WL,B,9.0
4,14.496999979019165,learn,45503.000020980835,Mon Aug 11 2025 18:37:59 GMT-0500 (Central Daylight Time),493107.1999999881,A,windo,O,o,210,1,966.3999999761581,492140.8000000119,7190,WL,B,9.0
4,14.764999866485596,learn,45235.000133514404,Mon Aug 11 2025 18:37:59 GMT-0500 (Central Daylight Time),493374.90000000596,A,window,O,w,247,1,1234.0999999940395,492140.8000000119,7190,WL,B,9.0
4,15.794999837875366,learn,44205.000162124634,Mon Aug 11 2025 18:37:59 GMT-0500 (Central Daylight Time),494405.59999999404,A,windowenter,O,enter,1021,1,2264.7999999821186,492140.8000000119,7190,WL,B,9.0
4,16.395999908447266,learn,43604.000091552734,Mon Aug 11 2025 18:37:59 GMT-0500 (Central Daylight Time),495006.40000000596,A,s,O,s,582,1,600.5,494405.90000000596,7190,WL,B,10.0
4,16.562000036239624,learn,43437.999963760376,Mon Aug 11 2025 18:37:59 GMT-0500 (Central Daylight Time),495172.59999999404,A,st,O,t,155,1,766.6999999880791,494405.90000000596,7190,WL,B,10.0
4,16.813999891281128,learn,43186.00010871887,Mon Aug 11 2025 18:37:59 GMT-0500 (Central Daylight Time),495423.90000000596,A,sta,O,a,230,1,1018.0,494405.90000000596,7190,WL,B,10.0
4,16.87999987602234,learn,43120.00012397766,Mon Aug 11 2025 18:37:59 GMT-0500 (Central Daylight Time),495489.8000000119,A,star,O,r,50,1,1083.9000000059605,494405.90000000596,7190,WL,B,10.0
4,17.27900004386902,learn,42720.99995613098,Mon Aug 11 2025 18:37:59 GMT-0500 (Central Daylight Time),495889.3000000119,A,starenter,O,enter,379,1,1483.4000000059605,494405.90000000596,7190,WL,B,10.0
4,17.662999868392944,learn,42337.000131607056,Mon Aug 11 2025 18:37:59 GMT-0500 (Central Daylight Time),496273.0,A,p,O,p,363,1,383.40000000596046,495889.59999999404,7190,WL,B,11.0
4,18.162999868392944,learn,41837.000131607056,Mon Aug 11 2025 18:37:59 GMT-0500 (Central Daylight Time),496773.40000000596,A,pu,O,u,476,1,883.8000000119209,495889.59999999404,7190,WL,B,11.0
4,18.38100004196167,learn,41618.99995803833,Mon Aug 11 2025 18:37:59 GMT-0500 (Central Daylight Time),496990.90000000596,A,pup,O,p,206,1,1101.300000011921,495889.59999999404,7190,WL,B,11.0
4,18.645999908447266,learn,41354.000091552734,Mon Aug 11 2025 18:37:59 GMT-0500 (Central Daylight Time),497256.09999999404,A,pupi,O,i,252,1,1366.5,495889.59999999404,7190,WL,B,11.0
4,18.878999948501587,learn,41121.00005149841,Mon Aug 11 2025 18:37:59 GMT-0500 (Central Daylight Time),497488.8000000119,A,pupil,O,l,212,1,1599.2000000178814,495889.59999999404,7190,WL,B,11.0
4,19.194999933242798,learn,40805.0000667572,Mon Aug 11 2025 18:37:59 GMT-0500 (Central Daylight Time),497804.8000000119,A,pupilenter,O,enter,308,1,1915.2000000178814,495889.59999999404,7190,WL,B,11.0
4,19.427000045776367,learn,40572.99995422363,Mon Aug 11 2025 18:37:59 GMT-0500 (Central Daylight Time),498037.0,A,w,O,w,222,1,231.90000000596046,497805.09999999404,7190,WL,B,12.0
4,19.677000045776367,learn,40322.99995422363,Mon Aug 11 2025 18:37:59 GMT-0500 (Central Daylight Time),498287.59999999404,A,wi,O,i,240,1,482.5,497805.09999999404,7190,WL,B,12.0
4,19.994999885559082,learn,40005.00011444092,Mon Aug 11 2025 18:37:59 GMT-0500 (Central Daylight Time),498605.5,A,wif,O,f,301,1,800.4000000059605,497805.09999999404,7190,WL,B,12.0
4,20.244999885559082,learn,39755.00011444092,Mon Aug 11 2025 18:37:59 GMT-0500 (Central Daylight Time),498854.90000000596,A,wife,O,e,238,1,1049.800000011921,497805.09999999404,7190,WL,B,12.0
4,20.49399995803833,learn,39506.00004196167,Mon Aug 11 2025 18:37:59 GMT-0500 (Central Daylight Time),499104.59999999404,A,wifeenter,O,enter,236,1,1299.5,497805.09999999404,7190,WL,B,12.0
4,20.794999837875366,learn,39205.000162124634,Mon Aug 11 2025 18:37:59 GMT-0500 (Central Daylight Time),499404.8000000119,A,c,O,c,292,1,299.90000000596046,499104.90000000596,7190,WL,B,13.0
4,20.911999940872192,learn,39088.00005912781,Mon Aug 11 2025 18:37:59 GMT-0500 (Central Daylight Time),499521.90000000596,A,cl,O,l,102,1,417.0,499104.90000000596,7190,WL,B,13.0
4,21.128999948501587,learn,38871.00005149841,Mon Aug 11 2025 18:37:59 GMT-0500 (Central Daylight Time),499739.3000000119,A,clo,O,o,196,1,634.4000000059605,499104.90000000596,7190,WL,B,13.0
4,21.361000061035156,learn,38638.999938964844,Mon Aug 11 2025 18:37:59 GMT-0500 (Central Daylight Time),499971.40000000596,A,cloc,O,c,223,1,866.5,499104.90000000596,7190,WL,B,13.0
4,21.527999877929688,learn,38472.00012207031,Mon Aug 11 2025 18:37:59 GMT-0500 (Central Daylight Time),500138.09999999404,A,clock,O,k,146,1,1033.199999988079,499104.90000000596,7190,WL,B,13.0
4,23.14400005340576,learn,36855.99994659424,Mon Aug 11 2025 18:37:59 GMT-0500 (Central Daylight Time),501754.09999999404,A,clockenter,O,enter,1594,1,2649.199999988079,499104.90000000596,7190,WL,B,13.0
4,25.74399995803833,learn,34256.00004196167,Mon Aug 11 2025 18:37:59 GMT-0500 (Central Daylight Time),504353.8000000119,A,l,O,l,2584,1,2599.4000000059605,501754.40000000596,7190,WL,B,14.0
4,25.894999980926514,learn,34105.000019073486,Mon Aug 11 2025 18:37:59 GMT-0500 (Central Daylight Time),504505.40000000596,A,la,O,a,130,1,2751.0,501754.40000000596,7190,WL,B,14.0
4,26.009999990463257,learn,33990.00000953674,Mon Aug 11 2025 18:37:59 GMT-0500 (Central Daylight Time),504620.1999999881,A,lak,O,k,103,1,2865.7999999821186,501754.40000000596,7190,WL,B,14.0
4,26.177000045776367,learn,33822.99995422363,Mon Aug 11 2025 18:37:59 GMT-0500 (Central Daylight Time),504787.09999999404,A,lake,O,e,151,1,3032.699999988079,501754.40000000596,7190,WL,B,14.0
4,26.560999870300293,learn,33439.00012969971,Mon Aug 11 2025 18:37:59 GMT-0500 (Central Daylight Time),505170.8000000119,A,lakeenter,O,enter,379,1,3416.4000000059605,501754.40000000596,7190,WL,B,14.0
4,27.325999975204468,learn,32674.000024795532,Mon Aug 11 2025 18:37:59 GMT-0500 (Central Daylight Time),505936.5,A,c,O,c,754,1,765.4000000059605,505171.09999999404,7190,WL,B,15.0
4,27.442999839782715,learn,32557.000160217285,Mon Aug 11 2025 18:37:59 GMT-0500 (Central Daylight Time),506053.5,A,ci,O,i,99,1,882.4000000059605,505171.09999999404,7190,WL,B,15.0
4,27.575999975204468,learn,32424.000024795532,Mon Aug 11 2025 18:37:59 GMT-0500 (Central Daylight Time),506186.0,A,cit,O,t,115,1,1014.9000000059605,505171.09999999404,7190,WL,B,15.0
4,27.65999984741211,learn,32340.00015258789,Mon Aug 11 2025 18:37:59 GMT-0500 (Central Daylight Time),506269.90000000596,A,city,O,y,73,1,1098.800000011921,505171.09999999404,7190,WL,B,15.0
4,27.875,learn,32125.0,Mon Aug 11 2025 18:37:59 GMT-0500 (Central Daylight Time),506485.5,A,cityenter,O,enter,196,1,1314.4000000059605,505171.09999999404,7190,WL,B,15.0
5,2.6489999294281006,learn,60000.0,Mon Aug 11 2025 18:37:59 GMT-0500 (Central Daylight Time),574881.1999999881,A,s,O,s,2636,1,2649.7999999821186,572231.400000006,7190,WL,B,1.0
5,3.2149999141693115,learn,60000.0,Mon Aug 11 2025 18:37:59 GMT-0500 (Central Daylight Time),575447.0,A,sl,O,l,552,1,3215.5999999940395,572231.400000006,7190,WL,B,1.0
5,3.431999921798706,learn,60000.0,Mon Aug 11 2025 18:37:59 GMT-0500 (Central Daylight Time),575663.5,A,slo,O,o,195,1,3432.0999999940395,572231.400000006,7190,WL,B,1.0
5,3.5319998264312744,learn,60000.0,Mon Aug 11 2025 18:37:59 GMT-0500 (Central Daylight Time),575763.8000000119,A,slom,O,m,90,1,3532.4000000059605,572231.400000006,7190,WL,B,1.0
5,4.21399998664856,learn,60000.0,Mon Aug 11 2025 18:37:59 GMT-0500 (Central Daylight Time),576445.400000006,A,slo,O,backspace,669,1,4214.0,572231.400000006,7190,WL,B,1.0
5,4.449999809265137,learn,60000.0,Mon Aug 11 2025 18:37:59 GMT-0500 (Central Daylight Time),576681.3000000119,A,sl,O,backspace,216,1,4449.9000000059605,572231.400000006,7190,WL,B,1.0
5,5.515999794006348,learn,60000.0,Mon Aug 11 2025 18:37:59 GMT-0500 (Central Daylight Time),577747.599999994,A,slenter,O,enter,1058,1,5516.199999988079,572231.400000006,7190,WL,B,1.0
5,9.54699993133545,learn,60000.0,Mon Aug 11 2025 18:37:59 GMT-0500 (Central Daylight Time),581779.0,A,a,O,a,4012,1,4031.199999988079,577747.8000000119,7190,WL,B,2.0
5,9.729999780654907,learn,60000.0,Mon Aug 11 2025 18:37:59 GMT-0500 (Central Daylight Time),581962.099999994,A,ar,O,r,167,1,4214.299999982119,577747.8000000119,7190,WL,B,2.0
5,9.898000001907349,learn,60000.0,Mon Aug 11 2025 18:37:59 GMT-0500 (Central Daylight Time),582129.6999999881,A,arm,O,m,153,1,4381.899999976158,577747.8000000119,7190,WL,B,2.0
5,10.513000011444092,learn,60000.0,Mon Aug 11 2025 18:37:59 GMT-0500 (Central Daylight Time),582744.8000000119,A,armenter,O,enter,601,1,4997.0,577747.8000000119,7190,WL,B,2.0
5,10.995999813079834,learn,60000.0,Mon Aug 11 2025 18:37:59 GMT-0500 (Central Daylight Time),583228.0,A,f,O,f,474,1,482.90000000596046,582745.099999994,7190,WL,B,3.0
5,11.129999876022339,learn,60000.0,Mon Aug 11 2025 18:37:59 GMT-0500 (Central Daylight Time),583361.599999994,A,fi,O,i,112,1,616.5,582745.099999994,7190,WL,B,3.0
5,11.36299991607666,learn,60000.0,Mon Aug 11 2025 18:37:59 GMT-0500 (Central Daylight Time),583594.1999999881,A,fir,O,r,226,1,849.0999999940395,582745.099999994,7190,WL,B,3.0
5,11.496999979019165,learn,60000.0,Mon Aug 11 2025 18:37:59 GMT-0500 (Central Daylight Time),583728.3000000119,A,fire,O,e,121,1,983.2000000178814,582745.099999994,7190,WL,B,3.0
5,12.096999883651733,learn,60000.0,Mon Aug 11 2025 18:37:59 GMT-0500 (Central Daylight Time),584328.8000000119,A,fireenter,O,enter,586,1,1583.7000000178814,582745.099999994,7190,WL,B,3.0
5,12.496999979019165,learn,60000.0,Mon Aug 11 2025 18:37:59 GMT-0500 (Central Daylight Time),584728.3000000119,A,c,O,c,386,1,399.10000002384186,584329.1999999881,7190,WL,B,4.0
5,12.61299991607666,learn,60000.0,Mon Aug 11 2025 18:37:59 GMT-0500 (Central Daylight Time),584844.8000000119,A,cl,O,l,100,1,515.6000000238419,584329.1999999881,7190,WL,B,4.0
5,12.812999963760376,learn,60000.0,Mon Aug 11 2025 18:37:59 GMT-0500 (Central Daylight Time),585044.099999994,A,clo,O,o,183,1,714.9000000059605,584329.1999999881,7190,WL,B,4.0
5,12.94599986076355,learn,60000.0,Mon Aug 11 2025 18:37:59 GMT-0500 (Central Daylight Time),585178.099999994,A,cloc,O,c,112,1,848.9000000059605,584329.1999999881,7190,WL,B,4.0
5,13.11299991607666,learn,60000.0,Mon Aug 11 2025 18:37:59 GMT-0500 (Central Daylight Time),585344.8000000119,A,clock,O,k,144,1,1015.6000000238419,584329.1999999881,7190,WL,B,4.0
5,13.629999876022339,learn,60000.0,Mon Aug 11 2025 18:37:59 GMT-0500 (Central Daylight Time),585861.400000006,A,clockenter,O,enter,507,1,1532.2000000178814,584329.1999999881,7190,WL,B,4.0
5,14.02899980545044,learn,60000.0,Mon Aug 11 2025 18:37:59 GMT-0500 (Central Daylight Time),586261.099999994,A,c,O,c,390,1,399.40000000596046,585861.6999999881,7190,WL,B,5.0
5,14.245999813079834,learn,60000.0,Mon Aug 11 2025 18:37:59 GMT-0500 (Central Daylight Time),586477.5,A,ca,O,a,201,1,615.8000000119209,585861.6999999881,7190,WL,B,5.0
5,14.561999797821045,learn,60000.0,Mon Aug 11 2025 18:37:59 GMT-0500 (Central Daylight Time),586793.6999999881,A,cab,O,b,303,1,932.0,585861.6999999881,7190,WL,B,5.0
5,14.69599986076355,learn,60000.0,Mon Aug 11 2025 18:37:59 GMT-0500 (Central Daylight Time),586927.3000000119,A,cabi,O,i,118,1,1065.6000000238419,585861.6999999881,7190,WL,B,5.0
5,14.794999837875366,learn,60000.0,Mon Aug 11 2025 18:37:59 GMT-0500 (Central Daylight Time),587027.0,A,cabin,O,n,82,1,1165.300000011921,585861.6999999881,7190,WL,B,5.0
5,15.161999940872192,learn,60000.0,Mon Aug 11 2025 18:37:59 GMT-0500 (Central Daylight Time),587393.1999999881,A,cabinenter,O,enter,344,1,1531.5,585861.6999999881,7190,WL,B,5.0
5,15.527999877929688,learn,60000.0,Mon Aug 11 2025 18:37:59 GMT-0500 (Central Daylight Time),587760.0,A,l,O,l,348,1,366.40000000596046,587393.599999994,7190,WL,B,6.0
5,15.628999948501587,learn,60000.0,Mon Aug 11 2025 18:37:59 GMT-0500 (Central Daylight Time),587860.599999994,A,la,O,a,93,1,467.0,587393.599999994,7190,WL,B,6.0
5,15.777999877929688,learn,60000.0,Mon Aug 11 2025 18:37:59 GMT-0500 (Central Daylight Time),588010.099999994,A,lak,O,k,135,1,616.5,587393.599999994,7190,WL,B,6.0
5,15.929999828338623,learn,60000.0,Mon Aug 11 2025 18:37:59 GMT-0500 (Central Daylight Time),588161.400000006,A,lake,O,e,130,1,767.8000000119209,587393.599999994,7190,WL,B,6.0
5,16.412999868392944,learn,60000.0,Mon Aug 11 2025 18:37:59 GMT-0500 (Central Daylight Time),588644.3000000119,A,lakeenter,O,enter,475,1,1250.7000000178814,587393.599999994,7190,WL,B,6.0
5,16.694000005722046,learn,60000.0,Mon Aug 11 2025 18:37:59 GMT-0500 (Central Daylight Time),588925.900000006,A,s,O,s,264,1,281.40000000596046,588644.5,7190,WL,B,7.0
5,16.86299991607666,learn,60000.0,Mon Aug 11 2025 18:37:59 GMT-0500 (Central Daylight Time),589094.400000006,A,st,O,t,147,1,449.90000000596046,588644.5,7190,WL,B,7.0
5,17.078999996185303,learn,60000.0,Mon Aug 11 2025 18:37:59 GMT-0500 (Central Daylight Time),589310.1999999881,A,sta,O,a,196,1,665.6999999880791,588644.5,7190,WL,B,7.0
5,17.126999855041504,learn,60000.0,Mon Aug 11 2025 18:37:59 GMT-0500 (Central Daylight Time),589358.3000000119,A,star,O,r,36,1,713.8000000119209,588644.5,7190,WL,B,7.0
5,17.711999893188477,learn,60000.0,Mon Aug 11 2025 18:37:59 GMT-0500 (Central Daylight Time),589943.6999999881,A,starenter,O,enter,566,1,1299.199999988079,588644.5,7190,WL,B,7.0
5,18.078999996185303,learn,60000.0,Mon Aug 11 2025 18:37:59 GMT-0500 (Central Daylight Time),590310.3000000119,A,p,O,p,357,1,366.30000001192093,589944.0,7190,WL,B,8.0
5,18.277999877929688,learn,60000.0,Mon Aug 11 2025 18:37:59 GMT-0500 (Central Daylight Time),590509.5,A,pu,O,u,189,1,565.5,589944.0,7190,WL,B,8.0
5,18.710999965667725,learn,60000.0,Mon Aug 11 2025 18:37:59 GMT-0500 (Central Daylight Time),590943.099999994,A,pup,O,p,412,1,999.0999999940395,589944.0,7190,WL,B,8.0
5,18.977999925613403,learn,60000.0,Mon Aug 11 2025 18:37:59 GMT-0500 (Central Daylight Time),591209.1999999881,A,pupi,O,i,246,1,1265.199999988079,589944.0,7190,WL,B,8.0
5,19.30999994277954,learn,60000.0,Mon Aug 11 2025 18:37:59 GMT-0500 (Central Daylight Time),591541.6999999881,A,pupil,O,l,321,1,1597.699999988079,589944.0,7190,WL,B,8.0
5,20.110999822616577,learn,60000.0,Mon Aug 11 2025 18:37:59 GMT-0500 (Central Daylight Time),592342.400000006,A,pupilenter,O,enter,788,1,2398.4000000059605,589944.0,7190,WL,B,8.0
5,20.444000005722046,learn,60000.0,Mon Aug 11 2025 18:37:59 GMT-0500 (Central Daylight Time),592675.599999994,A,w,O,w,328,1,333.0,592342.599999994,7190,WL,B,9.0
5,20.57699990272522,learn,60000.0,Mon Aug 11 2025 18:37:59 GMT-0500 (Central Daylight Time),592808.900000006,A,wi,O,i,122,1,466.30000001192093,592342.599999994,7190,WL,B,9.0
5,20.692999839782715,learn,60000.0,Mon Aug 11 2025 18:37:59 GMT-0500 (Central Daylight Time),592925.099999994,A,wif,O,f,108,1,582.5,592342.599999994,7190,WL,B,9.0
5,20.944000005722046,learn,60000.0,Mon Aug 11 2025 18:37:59 GMT-0500 (Central Daylight Time),593175.400000006,A,wife,O,e,229,1,832.8000000119209,592342.599999994,7190,WL,B,9.0
5,21.32799983024597,learn,60000.0,Mon Aug 11 2025 18:37:59 GMT-0500 (Central Daylight Time),593559.1999999881,A,wifeenter,O,enter,369,1,1216.5999999940395,592342.599999994,7190,WL,B,9.0
5,21.876999855041504,learn,60000.0,Mon Aug 11 2025 18:37:59 GMT-0500 (Central Daylight Time),594108.599999994,A,d,O,d,532,1,549.1999999880791,593559.400000006,7190,WL,B,10.0
5,22.01099991798401,learn,60000.0,Mon Aug 11 2025 18:37:59 GMT-0500 (Central Daylight Time),594242.3000000119,A,do,O,o,119,1,682.9000000059605,593559.400000006,7190,WL,B,10.0
5,22.175999879837036,learn,60000.0,Mon Aug 11 2025 18:37:59 GMT-0500 (Central Daylight Time),594408.1999999881,A,doo,O,o,152,1,848.7999999821186,593559.400000006,7190,WL,B,10.0
5,22.292999982833862,learn,60000.0,Mon Aug 11 2025 18:37:59 GMT-0500 (Central Daylight Time),594525.0,A,door,O,r,98,1,965.5999999940395,593559.400000006,7190,WL,B,10.0
5,22.625999927520752,learn,60000.0,Mon Aug 11 2025 18:37:59 GMT-0500 (Central Daylight Time),594858.0,A,doorenter,O,enter,317,1,1298.5999999940395,593559.400000006,7190,WL,B,10.0
5,23.026999950408936,learn,60000.0,Mon Aug 11 2025 18:37:59 GMT-0500 (Central Daylight Time),595258.5,A,w,O,w,395,1,400.30000001192093,594858.1999999881,7190,WL,B,11.0
5,23.15999984741211,learn,60000.0,Mon Aug 11 2025 18:37:59 GMT-0500 (Central Daylight Time),595391.5,A,wi,O,i,110,1,533.3000000119209,594858.1999999881,7190,WL,B,11.0
5,23.276999950408936,learn,60000.0,Mon Aug 11 2025 18:37:59 GMT-0500 (Central Daylight Time),595508.1999999881,A,win,O,n,101,1,650.0,594858.1999999881,7190,WL,B,11.0
5,23.393999814987183,learn,60000.0,Mon Aug 11 2025 18:37:59 GMT-0500 (Central Daylight Time),595625.400000006,A,wind,O,d,96,1,767.2000000178814,594858.1999999881,7190,WL,B,11.0
5,23.55900001525879,learn,60000.0,Mon Aug 11 2025 18:37:59 GMT-0500 (Central Daylight Time),595790.8000000119,A,windo,O,o,155,1,932.6000000238419,594858.1999999881,7190,WL,B,11.0
5,23.674999952316284,learn,60000.0,Mon Aug 11 2025 18:37:59 GMT-0500 (Central Daylight Time),595906.8000000119,A,window,O,w,108,1,1048.6000000238419,594858.1999999881,7190,WL,B,11.0
5,24.45799994468689,learn,60000.0,Mon Aug 11 2025 18:37:59 GMT-0500 (Central Daylight Time),596690.599999994,A,windowenter,O,enter,766,1,1832.4000000059605,594858.1999999881,7190,WL,B,11.0
5,24.776999950408936,learn,60000.0,Mon Aug 11 2025 18:37:59 GMT-0500 (Central Daylight Time),597008.8000000119,A,g,O,g,304,1,317.80000001192093,596691.0,7190,WL,B,12.0
5,25.024999856948853,learn,60000.0,Mon Aug 11 2025 18:37:59 GMT-0500 (Central Daylight Time),597257.5,A,gr,O,r,236,1,566.5,596691.0,7190,WL,B,12.0
5,25.375,learn,60000.0,Mon Aug 11 2025 18:37:59 GMT-0500 (Central Daylight Time),597607.5,A,grs,O,s,330,1,916.5,596691.0,7190,WL,B,12.0
5,25.97599983215332,learn,60000.0,Mon Aug 11 2025 18:37:59 GMT-0500 (Central Daylight Time),598208.099999994,A,gr,O,backspace,587,1,1517.0999999940395,596691.0,7190,WL,B,12.0
5,26.174999952316284,learn,60000.0,Mon Aug 11 2025 18:37:59 GMT-0500 (Central Daylight Time),598407.099999994,A,gra,O,a,189,1,1716.0999999940395,596691.0,7190,WL,B,12.0
5,26.441999912261963,learn,60000.0,Mon Aug 11 2025 18:37:59 GMT-0500 (Central Daylight Time),598674.1999999881,A,gras,O,s,247,1,1983.199999988079,596691.0,7190,WL,B,12.0
5,26.60699987411499,learn,60000.0,Mon Aug 11 2025 18:37:59 GMT-0500 (Central Daylight Time),598839.1999999881,A,grass,O,s,152,1,2148.199999988079,596691.0,7190,WL,B,12.0
5,26.823999881744385,learn,60000.0,Mon Aug 11 2025 18:37:59 GMT-0500 (Central Daylight Time),599056.1999999881,A,grassenter,O,enter,196,1,2365.199999988079,596691.0,7190,WL,B,12.0
5,27.007999897003174,learn,60000.0,Mon Aug 11 2025 18:37:59 GMT-0500 (Central Daylight Time),599240.099999994,A,s,O,s,172,1,183.69999998807907,599056.400000006,7190,WL,B,13.0
5,27.173999786376953,learn,60000.0,Mon Aug 11 2025 18:37:59 GMT-0500 (Central Daylight Time),599406.5,A,st,O,t,155,1,350.09999999403954,599056.400000006,7190,WL,B,13.0
5,27.408999919891357,learn,60000.0,Mon Aug 11 2025 18:37:59 GMT-0500 (Central Daylight Time),599641.0,A,str,O,r,211,1,584.5999999940395,599056.400000006,7190,WL,B,13.0
5,27.676999807357788,learn,60000.0,Mon Aug 11 2025 18:37:59 GMT-0500 (Central Daylight Time),599908.6999999881,A,stre,O,e,259,1,852.2999999821186,599056.400000006,7190,WL,B,13.0
5,27.87399983406067,learn,60000.0,Mon Aug 11 2025 18:37:59 GMT-0500 (Central Daylight Time),600106.0,A,stree,O,e,181,1,1049.5999999940395,599056.400000006,7190,WL,B,13.0
5,28.074999809265137,learn,60000.0,Mon Aug 11 2025 18:37:59 GMT-0500 (Central Daylight Time),600306.900000006,A,street,O,t,187,1,1250.5,599056.400000006,7190,WL,B,13.0
5,28.657999992370605,learn,60000.0,Mon Aug 11 2025 18:37:59 GMT-0500 (Central Daylight Time),600889.8000000119,A,streetenter,O,enter,569,1,1833.4000000059605,599056.400000006,7190,WL,B,13.0
5,29.007999897003174,learn,60000.0,Mon Aug 11 2025 18:37:59 GMT-0500 (Central Daylight Time),601240.0,A,c,O,c,346,1,350.09999999403954,600889.900000006,7190,WL,B,14.0
5,29.10599994659424,learn,60000.0,Mon Aug 11 2025 18:37:59 GMT-0500 (Central Daylight Time),601338.599999994,A,ci,O,i,84,1,448.69999998807907,600889.900000006,7190,WL,B,14.0
5,29.274999856948853,learn,60000.0,Mon Aug 11 2025 18:37:59 GMT-0500 (Central Daylight Time),601507.400000006,A,cit,O,t,163,1,617.5,600889.900000006,7190,WL,B,14.0
5,29.407999992370605,learn,60000.0,Mon Aug 11 2025 18:37:59 GMT-0500 (Central Daylight Time),601639.6999999881,A,city,O,y,120,1,749.7999999821186,600889.900000006,7190,WL,B,14.0
5,30.18999981880188,learn,60000.0,Mon Aug 11 2025 18:37:59 GMT-0500 (Central Daylight Time),602422.099999994,A,cityenter,O,enter,764,1,1532.199999988079,600889.900000006,7190,WL,B,14.0
5,51.20099997520447,learn,60000.0,Mon Aug 11 2025 18:37:59 GMT-0500 (Central Daylight Time),623432.6999999881,A,d,O,d,20999,1,21010.29999998212,602422.400000006,7190,WL,B,15.0
5,51.75099992752075,learn,60000.0,Mon Aug 11 2025 18:37:59 GMT-0500 (Central Daylight Time),623983.1999999881,A,do,O,o,540,1,21560.79999998212,602422.400000006,7190,WL,B,15.0
5,51.91699981689453,learn,60000.0,Mon Aug 11 2025 18:37:59 GMT-0500 (Central Daylight Time),624149.400000006,A,doo,O,o,157,1,21727.0,602422.400000006,7190,WL,B,15.0
5,52.049999952316284,learn,60000.0,Mon Aug 11 2025 18:37:59 GMT-0500 (Central Daylight Time),624282.400000006,A,door,O,r,116,1,21860.0,602422.400000006,7190,WL,B,15.0
5,52.25099992752075,learn,60000.0,Mon Aug 11 2025 18:37:59 GMT-0500 (Central Daylight Time),624482.6999999881,A,doorenter,O,enter,185,1,22060.29999998212,602422.400000006,7190,WL,B,15.0
6,1.181999921798706,distr,58818.000078201294,Mon Aug 11 2025 18:37:59 GMT-0500 (Central Daylight Time),702257.5,B,b,O,b,1162,1,1181.5,701076.0,7190,WL,B,1.0
6,1.8980000019073486,distr,58101.99999809265,Mon Aug 11 2025 18:37:59 GMT-0500 (Central Daylight Time),702974.1999999881,B,ba,O,a,697,1,1898.199999988079,701076.0,7190,WL,B,1.0
6,2.181999921798706,distr,57818.000078201294,Mon Aug 11 2025 18:37:59 GMT-0500 (Central Daylight Time),703257.900000006,B,bab,O,b,270,1,2181.9000000059605,701076.0,7190,WL,B,1.0
6,2.496999979019165,distr,57503.000020980835,Mon Aug 11 2025 18:37:59 GMT-0500 (Central Daylight Time),703573.099999994,B,baby,O,y,296,1,2497.0999999940395,701076.0,7190,WL,B,1.0
6,3.0969998836517334,distr,56903.00011634827,Mon Aug 11 2025 18:37:59 GMT-0500 (Central Daylight Time),704173.0,B,babyenter,O,enter,587,1,3097.0,701076.0,7190,WL,B,1.0
6,3.4639999866485596,distr,56536.00001335144,Mon Aug 11 2025 18:37:59 GMT-0500 (Central Daylight Time),704539.1999999881,B,o,O,o,359,1,365.89999997615814,704173.3000000119,7190,WL,B,2.0
6,3.5809998512268066,distr,56419.00014877319,Mon Aug 11 2025 18:37:59 GMT-0500 (Central Daylight Time),704656.400000006,B,oc,O,c,104,1,483.09999999403954,704173.3000000119,7190,WL,B,2.0
6,3.7820000648498535,distr,56217.99993515015,Mon Aug 11 2025 18:37:59 GMT-0500 (Central Daylight Time),704858.0,B,oce,O,e,196,1,684.6999999880791,704173.3000000119,7190,WL,B,2.0
6,3.947000026702881,distr,56052.99997329712,Mon Aug 11 2025 18:37:59 GMT-0500 (Central Daylight Time),705023.0,B,ocea,O,a,142,1,849.6999999880791,704173.3000000119,7190,WL,B,2.0
6,4.063999891281128,distr,55936.00010871887,Mon Aug 11 2025 18:37:59 GMT-0500 (Central Daylight Time),705139.8000000119,B,ocean,O,n,101,1,966.5,704173.3000000119,7190,WL,B,2.0
6,4.313999891281128,distr,55686.00010871887,Mon Aug 11 2025 18:37:59 GMT-0500 (Central Daylight Time),705389.5,B,oceanenter,O,enter,232,1,1216.199999988079,704173.3000000119,7190,WL,B,2.0
6,4.846999883651733,distr,55153.00011634827,Mon Aug 11 2025 18:37:59 GMT-0500 (Central Daylight Time),705922.5,B,r,O,r,513,1,532.6999999880791,705389.8000000119,7190,WL,B,3.0
6,4.947000026702881,distr,55052.99997329712,Mon Aug 11 2025 18:37:59 GMT-0500 (Central Daylight Time),706022.599999994,B,ro,O,o,80,1,632.7999999821186,705389.8000000119,7190,WL,B,3.0
6,5.162999868392944,distr,54837.000131607056,Mon Aug 11 2025 18:37:59 GMT-0500 (Central Daylight Time),706238.599999994,B,roc,O,c,204,1,848.7999999821186,705389.8000000119,7190,WL,B,3.0
6,5.2799999713897705,distr,54720.00002861023,Mon Aug 11 2025 18:37:59 GMT-0500 (Central Daylight Time),706355.5,B,rock,O,k,99,1,965.6999999880791,705389.8000000119,7190,WL,B,3.0
6,5.513999938964844,distr,54486.000061035156,Mon Aug 11 2025 18:37:59 GMT-0500 (Central Daylight Time),706590.0,B,rockenter,O,enter,222,1,1200.199999988079,705389.8000000119,7190,WL,B,3.0
6,5.7809998989105225,distr,54219.00010108948,Mon Aug 11 2025 18:37:59 GMT-0500 (Central Daylight Time),706856.6999999881,B,f,O,f,254,1,266.5,706590.1999999881,7190,WL,B,4.0
6,5.980999946594238,distr,54019.00005340576,Mon Aug 11 2025 18:37:59 GMT-0500 (Central Daylight Time),707056.400000006,B,fi,O,i,177,1,466.2000000178814,706590.1999999881,7190,WL,B,4.0
6,6.046999931335449,distr,53953.00006866455,Mon Aug 11 2025 18:37:59 GMT-0500 (Central Daylight Time),707122.5,B,fir,O,r,59,1,532.3000000119209,706590.1999999881,7190,WL,B,4.0
6,6.680000066757202,distr,53319.9999332428,Mon Aug 11 2025 18:37:59 GMT-0500 (Central Daylight Time),707755.900000006,B,fi,O,backspace,628,1,1165.7000000178814,706590.1999999881,7190,WL,B,4.0
6,6.88100004196167,distr,53118.99995803833,Mon Aug 11 2025 18:37:59 GMT-0500 (Central Daylight Time),707956.400000006,B,f,O,backspace,182,1,1366.2000000178814,706590.1999999881,7190,WL,B,4.0
6,7.046999931335449,distr,52953.00006866455,Mon Aug 11 2025 18:37:59 GMT-0500 (Central Daylight Time),708122.400000006,B,fr,O,r,145,1,1532.2000000178814,706590.1999999881,7190,WL,B,4.0
6,7.180000066757202,distr,52819.9999332428,Mon Aug 11 2025 18:37:59 GMT-0500 (Central Daylight Time),708255.400000006,B,fri,O,i,112,1,1665.2000000178814,706590.1999999881,7190,WL,B,4.0
6,7.3459999561309814,distr,52654.00004386902,Mon Aug 11 2025 18:37:59 GMT-0500 (Central Daylight Time),708421.6999999881,B,frie,O,e,154,1,1831.5,706590.1999999881,7190,WL,B,4.0
6,7.478999853134155,distr,52521.000146865845,Mon Aug 11 2025 18:37:59 GMT-0500 (Central Daylight Time),708555.0,B,frien,O,n,118,1,1964.800000011921,706590.1999999881,7190,WL,B,4.0
6,8.095999956130981,distr,51904.00004386902,Mon Aug 11 2025 18:37:59 GMT-0500 (Central Daylight Time),709171.5,B,friend,O,d,595,1,2581.300000011921,706590.1999999881,7190,WL,B,4.0
6,8.394999980926514,distr,51605.000019073486,Mon Aug 11 2025 18:37:59 GMT-0500 (Central Daylight Time),709470.599999994,B,friendenter,O,enter,284,1,2880.4000000059605,706590.1999999881,7190,WL,B,4.0
6,8.730000019073486,distr,51269.999980926514,Mon Aug 11 2025 18:37:59 GMT-0500 (Central Daylight Time),709805.8000000119,B,c,O,c,327,1,334.80000001192093,709471.0,7190,WL,B,5.0
6,11.19599986076355,distr,48804.00013923645,Mon Aug 11 2025 18:37:59 GMT-0500 (Central Daylight Time),712271.599999994,B,ce,O,e,2444,1,2800.5999999940395,709471.0,7190,WL,B,5.0
6,11.67799997329712,distr,48322.00002670288,Mon Aug 11 2025 18:37:59 GMT-0500 (Central Daylight Time),712754.1999999881,B,cel,O,l,468,1,3283.199999988079,709471.0,7190,WL,B,5.0
6,11.878000020980835,distr,48121.999979019165,Mon Aug 11 2025 18:37:59 GMT-0500 (Central Daylight Time),712953.5,B,cell,O,l,185,1,3482.5,709471.0,7190,WL,B,5.0
6,14.444999933242798,distr,45555.0000667572,Mon Aug 11 2025 18:37:59 GMT-0500 (Central Daylight Time),715520.3000000119,B,cellenter,O,enter,2553,1,6049.300000011921,709471.0,7190,WL,B,5.0
6,20.04099988937378,distr,39959.00011062622,Mon Aug 11 2025 18:37:59 GMT-0500 (Central Daylight Time),721117.3000000119,B,l,O,l,5587,1,5596.700000017881,715520.599999994,7190,WL,B,6.0
6,20.191999912261963,distr,39808.00008773804,Mon Aug 11 2025 18:37:59 GMT-0500 (Central Daylight Time),721268.5,B,li,O,i,134,1,5747.9000000059605,715520.599999994,7190,WL,B,6.0
6,20.391000032424927,distr,39608.99996757507,Mon Aug 11 2025 18:37:59 GMT-0500 (Central Daylight Time),721467.0,B,lip,O,p,189,1,5946.4000000059605,715520.599999994,7190,WL,B,6.0
6,20.691999912261963,distr,39308.00008773804,Mon Aug 11 2025 18:37:59 GMT-0500 (Central Daylight Time),721768.099999994,B,lipenter,O,enter,291,1,6247.5,715520.599999994,7190,WL,B,6.0
6,33.55399990081787,distr,26446.00009918213,Mon Aug 11 2025 18:37:59 GMT-0500 (Central Daylight Time),734630.099999994,B,enter,O,enter,12843,1,12861.699999988079,721768.400000006,7190,WL,B,7.0
6,33.78600001335144,distr,26213.99998664856,Mon Aug 11 2025 18:37:59 GMT-0500 (Central Daylight Time),734862.5,B,enter,O,enter,221,1,232.19999998807907,734630.3000000119,7190,WL,B,8.0
6,34.00399994850159,distr,25996.000051498413,Mon Aug 11 2025 18:37:59 GMT-0500 (Central Daylight Time),735080.0,B,enter,O,enter,205,1,217.30000001192093,734862.6999999881,7190,WL,B,9.0
6,34.20300006866455,distr,25796.99993133545,Mon Aug 11 2025 18:37:59 GMT-0500 (Central Daylight Time),735278.8000000119,B,enter,O,enter,187,1,198.40000000596046,735080.400000006,7190,WL,B,10.0
6,34.38800001144409,distr,25611.99998855591,Mon Aug 11 2025 18:37:59 GMT-0500 (Central Daylight Time),735463.900000006,B,enter,O,enter,165,1,184.80000001192093,735279.099999994,7190,WL,B,11.0
6,34.58699989318848,distr,25413.000106811523,Mon Aug 11 2025 18:37:59 GMT-0500 (Central Daylight Time),735663.0,B,enter,O,enter,179,1,198.90000000596046,735464.099999994,7190,WL,B,12.0
6,34.769999980926514,distr,25230.000019073486,Mon Aug 11 2025 18:37:59 GMT-0500 (Central Daylight Time),735846.1999999881,B,enter,O,enter,172,1,183.0,735663.1999999881,7190,WL,B,13.0
6,35.36899995803833,distr,24631.00004196167,Mon Aug 11 2025 18:37:59 GMT-0500 (Central Daylight Time),736445.3000000119,B,enter,O,enter,590,1,598.7000000178814,735846.599999994,7190,WL,B,14.0
6,35.82099986076355,distr,24179.00013923645,Mon Aug 11 2025 18:37:59 GMT-0500 (Central Daylight Time),736896.6999999881,B,enter,O,enter,447,1,451.09999999403954,736445.599999994,7190,WL,B,15.0
7,0.9860000610351562,immed,59013.999938964844,Mon Aug 11 2025 18:37:59 GMT-0500 (Central Daylight Time),749978.0,A,c,O,c,979,1,985.6999999880791,748992.3000000119,7190,WL,B,1.0
7,1.1670000553131104,immed,58832.99994468689,Mon Aug 11 2025 18:37:59 GMT-0500 (Central Daylight Time),750159.3000000119,A,ca,O,a,161,1,1167.0,748992.3000000119,7190,WL,B,1.0
7,1.3670001029968262,immed,58632.999897003174,Mon Aug 11 2025 18:37:59 GMT-0500 (Central Daylight Time),750358.8000000119,A,cab,O,b,187,1,1366.5,748992.3000000119,7190,WL,B,1.0
7,1.4830000400543213,immed,58516.99995994568,Mon Aug 11 2025 18:37:59 GMT-0500 (Central Daylight Time),750474.8000000119,A,cabi,O,i,100,1,1482.5,748992.3000000119,7190,WL,B,1.0
7,1.565999984741211,immed,58434.00001525879,Mon Aug 11 2025 18:37:59 GMT-0500 (Central Daylight Time),750558.599999994,A,cabin,O,n,72,1,1566.2999999821186,748992.3000000119,7190,WL,B,1.0
7,1.8660001754760742,immed,58133.999824523926,Mon Aug 11 2025 18:37:59 GMT-0500 (Central Daylight Time),750857.8000000119,A,cabinenter,O,enter,283,1,1865.5,748992.3000000119,7190,WL,B,1.0
7,2.4680001735687256,immed,57531.999826431274,Mon Aug 11 2025 18:37:59 GMT-0500 (Central Daylight Time),751460.099999994,A,d,O,d,586,1,602.0999999940395,750858.0,7190,WL,B,2.0
7,2.5820000171661377,immed,57417.99998283386,Mon Aug 11 2025 18:37:59 GMT-0500 (Central Daylight Time),751574.599999994,A,do,O,o,102,1,716.5999999940395,750858.0,7190,WL,B,2.0
7,2.7330000400543213,immed,57266.99995994568,Mon Aug 11 2025 18:37:59 GMT-0500 (Central Daylight Time),751725.099999994,A,doo,O,o,140,1,867.0999999940395,750858.0,7190,WL,B,2.0
7,2.8510000705718994,immed,57148.9999294281,Mon Aug 11 2025 18:37:59 GMT-0500 (Central Daylight Time),751842.8000000119,A,door,O,r,97,1,984.8000000119209,750858.0,7190,WL,B,2.0
7,3.1670000553131104,immed,56832.99994468689,Mon Aug 11 2025 18:37:59 GMT-0500 (Central Daylight Time),752159.0,A,doorenter,O,enter,303,1,1301.0,750858.0,7190,WL,B,2.0
7,3.5830001831054688,immed,56416.99981689453,Mon Aug 11 2025 18:37:59 GMT-0500 (Central Daylight Time),752575.0,A,w,O,w,396,1,415.80000001192093,752159.1999999881,7190,WL,B,3.0
7,3.682000160217285,immed,56317.999839782715,Mon Aug 11 2025 18:37:59 GMT-0500 (Central Daylight Time),752673.8000000119,A,wi,O,i,77,1,514.6000000238419,752159.1999999881,7190,WL,B,3.0
7,3.7820000648498535,immed,56217.99993515015,Mon Aug 11 2025 18:37:59 GMT-0500 (Central Daylight Time),752774.0,A,win,O,n,81,1,614.8000000119209,752159.1999999881,7190,WL,B,3.0
7,3.9000000953674316,immed,56099.99990463257,Mon Aug 11 2025 18:37:59 GMT-0500 (Central Daylight Time),752891.900000006,A,wind,O,d,111,1,732.7000000178814,752159.1999999881,7190,WL,B,3.0
7,4.0980000495910645,immed,55901.999950408936,Mon Aug 11 2025 18:37:59 GMT-0500 (Central Daylight Time),753090.1999999881,A,windo,O,o,182,1,931.0,752159.1999999881,7190,WL,B,3.0
7,4.249000072479248,immed,55750.99992752075,Mon Aug 11 2025 18:37:59 GMT-0500 (Central Daylight Time),753241.400000006,A,window,O,w,139,1,1082.2000000178814,752159.1999999881,7190,WL,B,3.0
7,4.582000017166138,immed,55417.99998283386,Mon Aug 11 2025 18:37:59 GMT-0500 (Central Daylight Time),753574.400000006,A,windowenter,O,enter,313,1,1415.2000000178814,752159.1999999881,7190,WL,B,3.0
7,4.817000150680542,immed,55182.99984931946,Mon Aug 11 2025 18:37:59 GMT-0500 (Central Daylight Time),753809.400000006,A,s,O,s,214,1,234.7000000178814,753574.6999999881,7190,WL,B,4.0
7,4.930999994277954,immed,55069.000005722046,Mon Aug 11 2025 18:37:59 GMT-0500 (Central Daylight Time),753923.099999994,A,st,O,t,104,1,348.40000000596046,753574.6999999881,7190,WL,B,4.0
7,5.515000104904175,immed,54484.999895095825,Mon Aug 11 2025 18:37:59 GMT-0500 (Central Daylight Time),754507.099999994,A,sta,O,a,566,1,932.4000000059605,753574.6999999881,7190,WL,B,4.0
7,5.630000114440918,immed,54369.99988555908,Mon Aug 11 2025 18:37:59 GMT-0500 (Central Daylight Time),754622.5,A,star,O,r,103,1,1047.800000011921,753574.6999999881,7190,WL,B,4.0
7,5.88100004196167,immed,54118.99995803833,Mon Aug 11 2025 18:37:59 GMT-0500 (Central Daylight Time),754873.599999994,A,starenter,O,enter,235,1,1298.9000000059605,753574.6999999881,7190,WL,B,4.0
7,6.215000152587891,immed,53784.99984741211,Mon Aug 11 2025 18:37:59 GMT-0500 (Central Daylight Time),755207.0,A,p,O,p,314,1,333.09999999403954,754873.900000006,7190,WL,B,5.0
7,6.496999979019165,immed,53503.000020980835,Mon Aug 11 2025 18:37:59 GMT-0500 (Central Daylight Time),755489.5,A,pi,O,i,267,1,615.5999999940395,754873.900000006,7190,WL,B,5.0
7,6.998000144958496,immed,53001.999855041504,Mon Aug 11 2025 18:37:59 GMT-0500 (Central Daylight Time),755990.099999994,A,p,O,backspace,480,1,1116.199999988079,754873.900000006,7190,WL,B,5.0
7,7.365000009536743,immed,52634.99999046326,Mon Aug 11 2025 18:37:59 GMT-0500 (Central Daylight Time),756356.8000000119,A,pu,O,u,350,1,1482.9000000059605,754873.900000006,7190,WL,B,5.0
7,7.664999961853027,immed,52335.00003814697,Mon Aug 11 2025 18:37:59 GMT-0500 (Central Daylight Time),756657.3000000119,A,pup,O,p,277,1,1783.4000000059605,754873.900000006,7190,WL,B,5.0
7,7.916000127792358,immed,52083.99987220764,Mon Aug 11 2025 18:37:59 GMT-0500 (Central Daylight Time),756908.0,A,pupi,O,i,234,1,2034.0999999940395,754873.900000006,7190,WL,B,5.0
7,8.114000082015991,immed,51885.99991798401,Mon Aug 11 2025 18:37:59 GMT-0500 (Central Daylight Time),757106.599999994,A,pupil,O,l,191,1,2232.699999988079,754873.900000006,7190,WL,B,5.0
7,8.479000091552734,immed,51520.999908447266,Mon Aug 11 2025 18:37:59 GMT-0500 (Central Daylight Time),757471.5,A,pupilenter,O,enter,352,1,2597.5999999940395,754873.900000006,7190,WL,B,5.0
7,8.746999979019165,immed,51253.000020980835,Mon Aug 11 2025 18:37:59 GMT-0500 (Central Daylight Time),757739.1999999881,A,w,O,w,253,1,267.5,757471.6999999881,7190,WL,B,6.0
7,8.94700002670288,immed,51052.99997329712,Mon Aug 11 2025 18:37:59 GMT-0500 (Central Daylight Time),757939.599999994,A,wi,O,i,191,1,467.90000000596046,757471.6999999881,7190,WL,B,6.0
7,9.148000001907349,immed,50851.99999809265,Mon Aug 11 2025 18:37:59 GMT-0500 (Central Daylight Time),758140.5,A,wif,O,f,179,1,668.8000000119209,757471.6999999881,7190,WL,B,6.0
7,9.331000089645386,immed,50668.999910354614,Mon Aug 11 2025 18:37:59 GMT-0500 (Central Daylight Time),758322.900000006,A,wife,O,e,176,1,851.2000000178814,757471.6999999881,7190,WL,B,6.0
7,10.796000003814697,immed,49203.9999961853,Mon Aug 11 2025 18:37:59 GMT-0500 (Central Daylight Time),759787.6999999881,A,wifeenter,O,enter,1447,1,2316.0,757471.6999999881,7190,WL,B,6.0
7,11.77999997138977,immed,48220.00002861023,Mon Aug 11 2025 18:37:59 GMT-0500 (Central Daylight Time),760771.6999999881,A,s,O,s,976,1,983.7999999821186,759787.900000006,7190,WL,B,7.0
7,11.96399998664856,immed,48036.00001335144,Mon Aug 11 2025 18:37:59 GMT-0500 (Central Daylight Time),760956.5,A,st,O,t,179,1,1168.5999999940395,759787.900000006,7190,WL,B,7.0
7,12.180000066757202,immed,47819.9999332428,Mon Aug 11 2025 18:37:59 GMT-0500 (Central Daylight Time),761172.6999999881,A,str,O,r,198,1,1384.7999999821186,759787.900000006,7190,WL,B,7.0
7,12.396000146865845,immed,47603.999853134155,Mon Aug 11 2025 18:37:59 GMT-0500 (Central Daylight Time),761387.8000000119,A,stre,O,e,206,1,1599.9000000059605,759787.900000006,7190,WL,B,7.0
7,12.564000129699707,immed,47435.99987030029,Mon Aug 11 2025 18:37:59 GMT-0500 (Central Daylight Time),761555.900000006,A,stree,O,e,163,1,1768.0,759787.900000006,7190,WL,B,7.0
7,12.712000131607056,immed,47287.999868392944,Mon Aug 11 2025 18:37:59 GMT-0500 (Central Daylight Time),761704.400000006,A,street,O,t,134,1,1916.5,759787.900000006,7190,WL,B,7.0
7,12.92900013923645,immed,47070.99986076355,Mon Aug 11 2025 18:37:59 GMT-0500 (Central Daylight Time),761921.5,A,streetenter,O,enter,196,1,2133.5999999940395,759787.900000006,7190,WL,B,7.0
7,13.17900013923645,immed,46820.99986076355,Mon Aug 11 2025 18:37:59 GMT-0500 (Central Daylight Time),762171.5,A,g,O,g,244,1,249.90000000596046,761921.599999994,7190,WL,B,8.0
7,13.396000146865845,immed,46603.999853134155,Mon Aug 11 2025 18:37:59 GMT-0500 (Central Daylight Time),762388.1999999881,A,gr,O,r,210,1,466.59999999403954,761921.599999994,7190,WL,B,8.0
7,13.52999997138977,immed,46470.00002861023,Mon Aug 11 2025 18:37:59 GMT-0500 (Central Daylight Time),762522.0,A,gra,O,a,112,1,600.4000000059605,761921.599999994,7190,WL,B,8.0
7,13.77999997138977,immed,46220.00002861023,Mon Aug 11 2025 18:37:59 GMT-0500 (Central Daylight Time),762772.5,A,gras,O,s,233,1,850.9000000059605,761921.599999994,7190,WL,B,8.0
7,13.962000131607056,immed,46037.999868392944,Mon Aug 11 2025 18:37:59 GMT-0500 (Central Daylight Time),762954.099999994,A,grass,O,s,167,1,1032.5,761921.599999994,7190,WL,B,8.0
7,14.196000099182129,immed,45803.99990081787,Mon Aug 11 2025 18:37:59 GMT-0500 (Central Daylight Time),763188.099999994,A,grassenter,O,enter,227,1,1266.5,761921.599999994,7190,WL,B,8.0
7,14.413000106811523,immed,45586.99989318848,Mon Aug 11 2025 18:37:59 GMT-0500 (Central Daylight Time),763404.6999999881,A,c,O,c,201,1,216.39999997615814,763188.3000000119,7190,WL,B,9.0
7,14.529000043869019,immed,45470.99995613098,Mon Aug 11 2025 18:37:59 GMT-0500 (Central Daylight Time),763520.900000006,A,cl,O,l,101,1,332.59999999403954,763188.3000000119,7190,WL,B,9.0
7,14.746999979019165,immed,45253.000020980835,Mon Aug 11 2025 18:37:59 GMT-0500 (Central Daylight Time),763738.8000000119,A,clo,O,o,198,1,550.5,763188.3000000119,7190,WL,B,9.0
7,14.861000061035156,immed,45138.999938964844,Mon Aug 11 2025 18:37:59 GMT-0500 (Central Daylight Time),763853.400000006,A,cloc,O,c,104,1,665.0999999940395,763188.3000000119,7190,WL,B,9.0
7,14.995000123977661,immed,45004.99987602234,Mon Aug 11 2025 18:37:59 GMT-0500 (Central Daylight Time),763987.1999999881,A,clock,O,k,128,1,798.8999999761581,763188.3000000119,7190,WL,B,9.0
7,15.611000061035156,immed,44388.999938964844,Mon Aug 11 2025 18:37:59 GMT-0500 (Central Daylight Time),764603.400000006,A,clockenter,O,enter,608,1,1415.0999999940395,763188.3000000119,7190,WL,B,9.0
7,16.01200008392334,immed,43987.99991607666,Mon Aug 11 2025 18:37:59 GMT-0500 (Central Daylight Time),765003.6999999881,A,p,O,p,392,1,400.09999999403954,764603.599999994,7190,WL,B,10.0
7,16.212000131607056,immed,43787.999868392944,Mon Aug 11 2025 18:37:59 GMT-0500 (Central Daylight Time),765204.1999999881,A,pi,O,i,196,1,600.5999999940395,764603.599999994,7190,WL,B,10.0
7,16.378000020980835,immed,43621.999979019165,Mon Aug 11 2025 18:37:59 GMT-0500 (Central Daylight Time),765370.599999994,A,pip,O,p,144,1,767.0,764603.599999994,7190,WL,B,10.0
7,16.611999988555908,immed,43388.00001144409,Mon Aug 11 2025 18:37:59 GMT-0500 (Central Daylight Time),765603.900000006,A,pipe,O,e,217,1,1000.3000000119209,764603.599999994,7190,WL,B,10.0
7,17.57800006866455,immed,42421.99993133545,Mon Aug 11 2025 18:37:59 GMT-0500 (Central Daylight Time),766569.900000006,A,pipeenter,O,enter,952,1,1966.300000011921,764603.599999994,7190,WL,B,10.0
7,18.677000045776367,immed,41322.99995422363,Mon Aug 11 2025 18:37:59 GMT-0500 (Central Daylight Time),767669.6999999881,A,s,O,s,1082,1,1099.5999999940395,766570.099999994,7190,WL,B,11.0
7,18.778000116348267,immed,41221.99988365173,Mon Aug 11 2025 18:37:59 GMT-0500 (Central Daylight Time),767770.099999994,A,sk,O,k,86,1,1200.0,766570.099999994,7190,WL,B,11.0
7,18.960000038146973,immed,41039.99996185303,Mon Aug 11 2025 18:37:59 GMT-0500 (Central Daylight Time),767952.6999999881,A,ski,O,i,160,1,1382.5999999940395,766570.099999994,7190,WL,B,11.0
7,19.17799997329712,immed,40822.00002670288,Mon Aug 11 2025 18:37:59 GMT-0500 (Central Daylight Time),768170.599999994,A,skin,O,n,203,1,1600.5,766570.099999994,7190,WL,B,11.0
7,20.075999975204468,immed,39924.00002479553,Mon Aug 11 2025 18:37:59 GMT-0500 (Central Daylight Time),769068.3000000119,A,skinenter,O,enter,881,1,2498.2000000178814,766570.099999994,7190,WL,B,11.0
7,20.511000156402588,immed,39488.99984359741,Mon Aug 11 2025 18:37:59 GMT-0500 (Central Daylight Time),769502.6999999881,A,a,O,a,416,1,434.19999998807907,769068.5,7190,WL,B,12.0
7,20.66000008583069,immed,39339.99991416931,Mon Aug 11 2025 18:37:59 GMT-0500 (Central Daylight Time),769651.900000006,A,ar,O,r,133,1,583.4000000059605,769068.5,7190,WL,B,12.0
7,20.844000101089478,immed,39155.99989891052,Mon Aug 11 2025 18:37:59 GMT-0500 (Central Daylight Time),769836.0,A,arm,O,m,168,1,767.5,769068.5,7190,WL,B,12.0
7,21.108999967575073,immed,38891.00003242493,Mon Aug 11 2025 18:37:59 GMT-0500 (Central Daylight Time),770101.400000006,A,armenter,O,enter,246,1,1032.9000000059605,769068.5,7190,WL,B,12.0
7,21.47699999809265,immed,38523.00000190735,Mon Aug 11 2025 18:37:59 GMT-0500 (Central Daylight Time),770468.900000006,A,f,O,f,350,1,367.30000001192093,770101.599999994,7190,WL,B,13.0
7,21.575999975204468,immed,38424.00002479553,Mon Aug 11 2025 18:37:59 GMT-0500 (Central Daylight Time),770568.5,A,fi,O,i,78,1,466.90000000596046,770101.599999994,7190,WL,B,13.0
7,22.027000188827515,immed,37972.999811172485,Mon Aug 11 2025 18:37:59 GMT-0500 (Central Daylight Time),771018.6999999881,A,fir,O,r,443,1,917.0999999940395,770101.599999994,7190,WL,B,13.0
7,22.127000093460083,immed,37872.99990653992,Mon Aug 11 2025 18:37:59 GMT-0500 (Central Daylight Time),771118.8000000119,A,fire,O,e,90,1,1017.2000000178814,770101.599999994,7190,WL,B,13.0
7,22.49399995803833,immed,37506.00004196167,Mon Aug 11 2025 18:37:59 GMT-0500 (Central Daylight Time),771485.6999999881,A,fireenter,O,enter,346,1,1384.0999999940395,770101.599999994,7190,WL,B,13.0
7,26.276000022888184,immed,33723.99997711182,Mon Aug 11 2025 18:37:59 GMT-0500 (Central Daylight Time),775268.0,A,c,O,c,3778,1,3782.0,771486.0,7190,WL,B,14.0
7,26.37600016593933,immed,33623.99983406067,Mon Aug 11 2025 18:37:59 GMT-0500 (Central Daylight Time),775367.900000006,A,cl,O,l,79,1,3881.9000000059605,771486.0,7190,WL,B,14.0
7,26.575000047683716,immed,33424.999952316284,Mon Aug 11 2025 18:37:59 GMT-0500 (Central Daylight Time),775566.8000000119,A,clo,O,o,186,1,4080.800000011921,771486.0,7190,WL,B,14.0
7,26.80900001525879,immed,33190.99998474121,Mon Aug 11 2025 18:37:59 GMT-0500 (Central Daylight Time),775801.5,A,cloc,O,c,214,1,4315.5,771486.0,7190,WL,B,14.0
7,26.95900011062622,immed,33040.99988937378,Mon Aug 11 2025 18:37:59 GMT-0500 (Central Daylight Time),775950.900000006,A,clock,O,k,138,1,4464.9000000059605,771486.0,7190,WL,B,14.0
7,27.259000062942505,immed,32740.999937057495,Mon Aug 11 2025 18:37:59 GMT-0500 (Central Daylight Time),776252.0,A,clockenter,O,enter,278,1,4766.0,771486.0,7190,WL,B,14.0
7,34.187999963760376,immed,25812.000036239624,Mon Aug 11 2025 18:37:59 GMT-0500 (Central Daylight Time),783180.6999999881,A,s,O,s,6921,1,6928.399999976158,776252.3000000119,7190,WL,B,15.0
7,34.355000019073486,immed,25644.999980926514,Mon Aug 11 2025 18:37:59 GMT-0500 (Central Daylight Time),783348.099999994,A,st,O,t,150,1,7095.799999982119,776252.3000000119,7190,WL,B,15.0
7,34.605000019073486,immed,25394.999980926514,Mon Aug 11 2025 18:37:59 GMT-0500 (Central Daylight Time),783597.400000006,A,str,O,r,230,1,7345.0999999940395,776252.3000000119,7190,WL,B,15.0
7,34.78800010681152,immed,25211.999893188477,Mon Aug 11 2025 18:37:59 GMT-0500 (Central Daylight Time),783780.6999999881,A,stre,O,e,172,1,7528.399999976158,776252.3000000119,7190,WL,B,15.0
7,34.97200012207031,immed,25027.999877929688,Mon Aug 11 2025 18:37:59 GMT-0500 (Central Daylight Time),783965.0,A,stree,O,e,166,1,7712.699999988079,776252.3000000119,7190,WL,B,15.0
7,35.2720000743866,immed,24727.999925613403,Mon Aug 11 2025 18:37:59 GMT-0500 (Central Daylight Time),784264.1999999881,A,street,O,t,276,1,8011.899999976158,776252.3000000119,7190,WL,B,15.0
7,35.5220000743866,immed,24477.999925613403,Mon Aug 11 2025 18:37:59 GMT-0500 (Central Daylight Time),784514.8000000119,A,streetenter,O,enter,229,1,8262.5,776252.3000000119,7190,WL,B,15.0
