acc_sum,block_c,block_dur,condition,correct,correct_response,countdown,datetime,endtime,project,response,response_time,response_time_test1_response,response_time_test2_response,row_sel,same,session_number,start_end,starttime,stim1,stim2,subject_id,task,task_vers,time_test1,time_test2,trial
1,1,0.0,prac,1,z,30000.0,Thu Jun 05 2025 17:07:56 GMT-0500 (Central Daylight Time),25988.80000001192,I,z,1019,,,4,yes,1,2545.9000000059605,23442.90000000596,RSM,RSM,8048,LC,A,,,1
2,1,0.0,prac,1,m,30000.0,Thu Jun 05 2025 17:07:56 GMT-0500 (Central Daylight Time),29637.70000001788,I,m,1992,,,3,no,1,3644.5999999940395,25993.100000023842,QHZXPC,QHZWPC,8048,LC,A,,,2
3,1,0.0,prac,1,z,30000.0,Thu Jun 05 2025 17:07:56 GMT-0500 (Central Daylight Time),32636.5,I,z,1476,,,2,yes,1,2994.5999999940395,29641.90000000596,NBGFSM,NBGFSM,8048,LC,A,,,3
4,1,0.0,prac,1,m,30000.0,Thu Jun 05 2025 17:07:56 GMT-0500 (Central Daylight Time),35868.80000001192,I,m,1708,,,5,no,1,3227.699999988079,32641.100000023842,LNDPRSKQB,LNDPRSJQB,8048,LC,A,,,4
5,1,0.0,prac,1,m,30000.0,Thu Jun 05 2025 17:07:56 GMT-0500 (Central Daylight Time),38567.80000001192,I,m,1164,,,1,no,1,2694.5999999940395,35873.20000001788,RNV,FNV,8048,LC,A,,,5
5,1,0.0,prac,0,z,30000.0,Thu Jun 05 2025 17:07:56 GMT-0500 (Central Daylight Time),42233.5,I,m,2137,,,6,yes,1,3661.5,38572.0,CSDBFPHXZ,CSDBFPHXZ,8048,LC,A,,,6
1,1,1.2660000324249268,test,1,m,28733.999967575073,Thu Jun 05 2025 17:07:56 GMT-0500 (Central Daylight Time),47598.90000000596,I,m,1248,1248,,1,no,1,1263.9000000059605,46335.0,HCF,RCF,8048,LC,A,42871,,1
2,1,2.4660000801086426,test,1,m,27533.999919891357,Thu Jun 05 2025 17:07:56 GMT-0500 (Central Daylight Time),48798.5,I,m,1188,1188,,2,no,1,1196.0999999940395,47602.40000000596,QTPRJX,QTPNJX,8048,LC,A,44139,,2
3,1,4.264999866485596,test,1,m,25735.000133514404,Thu Jun 05 2025 17:07:56 GMT-0500 (Central Daylight Time),50597.70000001788,I,m,1780,1780,,3,no,1,1796.0999999940395,48801.60000002384,MZDYGVGKQ,MZDYGLBKQ,8048,LC,A,45338,,3
4,1,5.697999954223633,test,1,m,24302.000045776367,Thu Jun 05 2025 17:07:56 GMT-0500 (Central Daylight Time),52030.90000000596,I,m,1429,1429,,4,no,1,1430.0,50600.90000000596,FQTNMK,JQTNMK,8048,LC,A,47138,,4
5,1,6.730000019073486,test,1,z,23269.999980926514,Thu Jun 05 2025 17:07:56 GMT-0500 (Central Daylight Time),53063.20000001788,I,z,1028,1028,,5,yes,1,1029.0999999940395,52034.10000002384,CLJ,CLJ,8048,LC,A,48571,,5
6,1,8.379999876022339,test,1,m,21620.00012397766,Thu Jun 05 2025 17:07:56 GMT-0500 (Central Daylight Time),54712.80000001192,I,m,1643,1643,,6,no,1,1646.5,53066.30000001192,JGDMNSVPW,JGZMNSVPW,8048,LC,A,49603,,6
7,1,12.494999885559082,test,1,z,17505.000114440918,Thu Jun 05 2025 17:07:56 GMT-0500 (Central Daylight Time),58828.20000001788,I,z,4106,4106,,7,yes,1,4112.0999999940395,54716.10000002384,FPTVHKCBJ,FPTVHKCBJ,8048,LC,A,51253,,7
8,1,14.144000053405762,test,1,m,15855.999946594238,Thu Jun 05 2025 17:07:56 GMT-0500 (Central Daylight Time),60477.80000001192,I,m,1638,1638,,8,no,1,1646.199999988079,58831.60000002384,XRPZBS,ZRPBDH,8048,LC,A,55368,,8
9,1,15.16100001335144,test,1,m,14838.99998664856,Thu Jun 05 2025 17:07:56 GMT-0500 (Central Daylight Time),61494.20000001788,I,m,1005,1005,,9,no,1,1013.0,60481.20000001788,ZSQ,ZSP,8048,LC,A,57018,,9
10,1,17.210000038146973,test,1,z,12789.999961853027,Thu Jun 05 2025 17:07:56 GMT-0500 (Central Daylight Time),63543.60000002384,I,z,2044,2044,,10,yes,1,2046.300000011921,61497.30000001192,MPZRXL,MPZRXL,8048,LC,A,58034,,10
11,1,18.259000062942505,test,1,m,11740.999937057495,Thu Jun 05 2025 17:07:56 GMT-0500 (Central Daylight Time),64593.0,I,m,1036,1036,,11,no,1,1046.199999988079,63546.80000001192,KJH,KRH,8048,LC,A,60083,,11
12,1,22.45899987220764,test,1,z,7541.000127792358,Thu Jun 05 2025 17:07:56 GMT-0500 (Central Daylight Time),68792.10000002384,I,z,4185,4185,,12,yes,1,4196.100000023842,64596.0,SMNHVTFCB,SMNHVTFCB,8048,LC,A,61133,,12
13,1,24.057999849319458,test,1,z,5942.000150680542,Thu Jun 05 2025 17:07:56 GMT-0500 (Central Daylight Time),70391.40000000596,I,z,1587,1587,,13,yes,1,1596.0999999940395,68795.30000001192,KJWTQF,KJWTQF,8048,LC,A,65332,,13
14,1,27.289999961853027,test,1,z,2710.0000381469727,Thu Jun 05 2025 17:07:56 GMT-0500 (Central Daylight Time),73623.40000000596,I,z,3228,3228,,14,yes,1,3228.699999988079,70394.70000001788,CHDKQGLMB,CHDKQGLMB,8048,LC,A,66931,,14
15,1,28.240000009536743,test,1,z,1759.9999904632568,Thu Jun 05 2025 17:07:56 GMT-0500 (Central Daylight Time),74573.5,I,z,939,939,,15,yes,1,947.0,73626.5,GHQ,GHQ,8048,LC,A,70163,,15
16,1,29.438999891281128,test,1,z,561.0001087188721,Thu Jun 05 2025 17:07:56 GMT-0500 (Central Daylight Time),75773.0,I,z,1189,1189,,16,yes,1,1196.5999999940395,74576.40000000596,GFVMRH,GFVMRH,8048,LC,A,71113,,16
16,1,30.00600004196167,test,0,z,-6.000041961669922,Thu Jun 05 2025 17:07:56 GMT-0500 (Central Daylight Time),76339.5,I,None,562,562,,17,yes,1,563.2999999821186,75776.20000001788,RSM,RSM,8048,LC,A,72313,,17
1,2,3.131999969482422,test,1,z,26868.000030517578,Thu Jun 05 2025 17:07:56 GMT-0500 (Central Daylight Time),80954.70000001788,I,z,3124,,3124.0,1,yes,1,5178.5,75776.20000001788,PRDBZTYFN,PRDBZTYFN,8048,LC,A,,74362.0,1
2,2,4.547999858856201,test,1,m,25452.0001411438,Thu Jun 05 2025 17:07:56 GMT-0500 (Central Daylight Time),82370.90000000596,I,m,1409,,1409.0,2,no,1,6594.699999988079,75776.20000001788,NCWJDZ,NCMJDZ,8048,LC,A,,77494.0,2
3,2,5.697999954223633,test,1,m,24302.000045776367,Thu Jun 05 2025 17:07:56 GMT-0500 (Central Daylight Time),83520.80000001192,I,m,1135,,1135.0,3,no,1,7744.5999999940395,75776.20000001788,KHW,KBW,8048,LC,A,,78911.0,3
4,2,6.96399998664856,test,1,m,23036.00001335144,Thu Jun 05 2025 17:07:56 GMT-0500 (Central Daylight Time),84786.90000000596,I,m,1258,,1258.0,4,no,1,9010.699999988079,75776.20000001788,ZRBGMF,ZRBCMF,8048,LC,A,,80060.0,4
5,2,7.830999851226807,test,1,m,22169.000148773193,Thu Jun 05 2025 17:07:56 GMT-0500 (Central Daylight Time),85653.30000001192,I,m,857,,857.0,5,no,1,9877.09999999404,75776.20000001788,BTH,BYH,8048,LC,A,,81326.0,5
6,2,10.86299991607666,test,1,z,19137.00008392334,Thu Jun 05 2025 17:07:56 GMT-0500 (Central Daylight Time),88685.70000001788,I,z,3021,,3021.0,6,yes,1,12909.5,75776.20000001788,XWKQRYCNZ,XWKQRYCNZ,8048,LC,A,,82193.0,6
7,2,12.378999948501587,test,1,z,17621.000051498413,Thu Jun 05 2025 17:07:56 GMT-0500 (Central Daylight Time),90201.80000001192,I,z,1501,,1501.0,7,yes,1,14425.59999999404,75776.20000001788,HNPDLK,HNPDLK,8048,LC,A,,85225.0,7
7,2,14.678999900817871,test,0,m,15321.000099182129,Thu Jun 05 2025 17:07:56 GMT-0500 (Central Daylight Time),92501.20000001788,I,z,2281,,2281.0,8,no,1,16725.0,75776.20000001788,WMQTRSGLZ,WMQTRZGLZ,8048,LC,A,,86741.0,8
8,2,16.07799983024597,test,1,z,13922.000169754028,Thu Jun 05 2025 17:07:56 GMT-0500 (Central Daylight Time),93900.70000001788,I,z,1381,,1381.0,9,yes,1,18124.5,75776.20000001788,JPN,JPN,8048,LC,A,,89041.0,9
9,2,17.227999925613403,test,1,m,12772.000074386597,Thu Jun 05 2025 17:07:56 GMT-0500 (Central Daylight Time),95050.30000001192,I,m,1135,,1135.0,10,no,1,19274.09999999404,75776.20000001788,QLXSVT,QLNSVT,8048,LC,A,,90440.0,10
9,2,21.509999990463257,test,0,z,8490.000009536743,Thu Jun 05 2025 17:07:56 GMT-0500 (Central Daylight Time),99332.60000002384,I,m,4264,,4264.0,11,yes,1,23556.40000000596,75776.20000001788,YXHKZVFPB,YXHKZVFPD,8048,LC,A,,91590.0,11
10,2,22.89299988746643,test,1,z,7107.000112533569,Thu Jun 05 2025 17:07:56 GMT-0500 (Central Daylight Time),100715.40000000596,I,z,1366,,1366.0,12,yes,1,24939.19999998808,75776.20000001788,RJZ,RJZ,8048,LC,A,,95872.0,12
11,2,24.358999967575073,test,1,z,5641.000032424927,Thu Jun 05 2025 17:07:56 GMT-0500 (Central Daylight Time),102181.5,I,z,1456,,1456.0,13,yes,1,26405.29999998212,75776.20000001788,CLNPZD,CLNPZD,8048,LC,A,,97255.0,13
12,2,26.70799994468689,test,1,m,3292.0000553131104,Thu Jun 05 2025 17:07:56 GMT-0500 (Central Daylight Time),104530.70000001788,I,m,2334,,2334.0,14,no,1,28754.5,75776.20000001788,DCBPFHXYJ,DCBPFHLYJ,8048,LC,A,,98721.0,14
13,2,27.69099998474121,test,1,m,2309.000015258789,Thu Jun 05 2025 17:07:56 GMT-0500 (Central Daylight Time),105513.80000001192,I,m,977,,977.0,15,no,1,29737.59999999404,75776.20000001788,MWR,ZWR,8048,LC,A,,101070.0,15
14,2,29.323999881744385,test,1,z,676.0001182556152,Thu Jun 05 2025 17:07:56 GMT-0500 (Central Daylight Time),107146.70000001788,I,z,1626,,1626.0,16,yes,1,31370.5,75776.20000001788,LPKXZW,LPKXZW,8048,LC,A,,102053.0,16
14,2,30.006999969482422,test,0,m,-6.999969482421875,Thu Jun 05 2025 17:07:56 GMT-0500 (Central Daylight Time),107829.70000001788,I,None,680,,680.0,17,no,1,32053.5,75776.20000001788,TZL,TZQ,8048,LC,A,,103686.0,17
