block_c,block_dur,condition,countdown,datetime,endtime,list,multichar_response,project,response,response_time,session_number,start_end,starttime,subject_id,task,task_vers,trial
,,,,Thu Aug 22 2024 10:47:31 GMT-0500 (Central Daylight Time),,,,O,space,410,1,,,7017,WL,B,
prac,,0,,Thu Aug 22 2024 10:47:31 GMT-0500 (Central Daylight Time),,NA,b,O,b,13348,1,,,7017,WL,B,1.0
prac,,0,,Thu Aug 22 2024 10:47:31 GMT-0500 (Central Daylight Time),,NA,bo,O,o,550,1,,,7017,WL,B,1.0
prac,,0,,Thu Aug 22 2024 10:47:31 GMT-0500 (Central Daylight Time),,NA,boo,O,o,249,1,,,7017,WL,B,1.0
prac,,0,,Thu Aug 22 2024 10:47:31 GMT-0500 (Central Daylight Time),,NA,boos,O,s,126,1,,,7017,WL,B,1.0
prac,,0,,Thu Aug 22 2024 10:47:31 GMT-0500 (Central Daylight Time),,NA,boost,O,t,801,1,,,7017,WL,B,1.0
prac,,0,,Thu Aug 22 2024 10:47:31 GMT-0500 (Central Daylight Time),,NA,boostenter,O,enter,4865,1,,,7017,WL,B,1.0
1,1.7829999923706055,learn,58217.000007629395,Thu Aug 22 2024 10:47:31 GMT-0500 (Central Daylight Time),136033.0,A,s,O,s,1760,1,1780.5,134252.5,7017,WL,B,1.0
1,2.0159997940063477,learn,57984.00020599365,Thu Aug 22 2024 10:47:31 GMT-0500 (Central Daylight Time),136266.3999999985,A,st,O,t,219,1,2013.8999999985099,134252.5,7017,WL,B,1.0
1,2.1659998893737793,learn,57834.00011062622,Thu Aug 22 2024 10:47:31 GMT-0500 (Central Daylight Time),136416.20000000298,A,str,O,r,130,1,2163.7000000029802,134252.5,7017,WL,B,1.0
1,2.381999969482422,learn,57618.00003051758,Thu Aug 22 2024 10:47:31 GMT-0500 (Central Daylight Time),136632.70000000298,A,stre,O,e,204,1,2380.2000000029802,134252.5,7017,WL,B,1.0
1,2.631999969482422,learn,57368.00003051758,Thu Aug 22 2024 10:47:31 GMT-0500 (Central Daylight Time),136882.70000000298,A,stree,O,e,229,1,2630.2000000029802,134252.5,7017,WL,B,1.0
1,2.8989999294281006,learn,57101.0000705719,Thu Aug 22 2024 10:47:31 GMT-0500 (Central Daylight Time),137149.20000000298,A,street,O,t,258,1,2896.7000000029802,134252.5,7017,WL,B,1.0
1,5.097999811172485,learn,54902.000188827515,Thu Aug 22 2024 10:47:31 GMT-0500 (Central Daylight Time),139348.6000000015,A,streetenter,O,enter,2192,1,5096.10000000149,134252.5,7017,WL,B,1.0
1,6.180999994277954,learn,53819.000005722046,Thu Aug 22 2024 10:47:31 GMT-0500 (Central Daylight Time),140431.3999999985,A,g,O,g,1064,1,1082.1999999955297,139349.20000000298,7017,WL,B,2.0
1,6.380999803543091,learn,53619.00019645691,Thu Aug 22 2024 10:47:31 GMT-0500 (Central Daylight Time),140631.3999999985,A,gr,O,r,189,1,1282.1999999955297,139349.20000000298,7017,WL,B,2.0
1,6.663999795913696,learn,53336.000204086304,Thu Aug 22 2024 10:47:31 GMT-0500 (Central Daylight Time),140914.70000000298,A,gra,O,a,270,1,1565.5,139349.20000000298,7017,WL,B,2.0
1,6.96399998664856,learn,53036.00001335144,Thu Aug 22 2024 10:47:31 GMT-0500 (Central Daylight Time),141214.5,A,gras,O,s,290,1,1865.2999999970198,139349.20000000298,7017,WL,B,2.0
1,7.113999843597412,learn,52886.00015640259,Thu Aug 22 2024 10:47:31 GMT-0500 (Central Daylight Time),141364.5,A,grass,O,s,134,1,2015.2999999970198,139349.20000000298,7017,WL,B,2.0
1,7.2809998989105225,learn,52719.00010108948,Thu Aug 22 2024 10:47:31 GMT-0500 (Central Daylight Time),141531.0,A,grassenter,O,enter,161,1,2181.7999999970198,139349.20000000298,7017,WL,B,2.0
1,7.447999954223633,learn,52552.00004577637,Thu Aug 22 2024 10:47:31 GMT-0500 (Central Daylight Time),141697.8999999985,A,d,O,d,146,1,166.5,141531.3999999985,7017,WL,B,3.0
1,7.646999835968018,learn,52353.00016403198,Thu Aug 22 2024 10:47:31 GMT-0500 (Central Daylight Time),141897.70000000298,A,do,O,o,179,1,366.30000000447035,141531.3999999985,7017,WL,B,3.0
1,7.796999931335449,learn,52203.00006866455,Thu Aug 22 2024 10:47:31 GMT-0500 (Central Daylight Time),142047.70000000298,A,doo,O,o,140,1,516.3000000044703,141531.3999999985,7017,WL,B,3.0
1,7.913999795913696,learn,52086.000204086304,Thu Aug 22 2024 10:47:31 GMT-0500 (Central Daylight Time),142164.30000000447,A,door,O,r,110,1,632.9000000059605,141531.3999999985,7017,WL,B,3.0
1,8.079999923706055,learn,51920.000076293945,Thu Aug 22 2024 10:47:31 GMT-0500 (Central Daylight Time),142330.70000000298,A,doorenter,O,enter,161,1,799.3000000044703,141531.3999999985,7017,WL,B,3.0
1,9.063999891281128,learn,50936.00010871887,Thu Aug 22 2024 10:47:31 GMT-0500 (Central Daylight Time),143314.0,A,a,O,a,970,1,983.0,142331.0,7017,WL,B,4.0
1,9.263999938964844,learn,50736.000061035156,Thu Aug 22 2024 10:47:31 GMT-0500 (Central Daylight Time),143514.30000000447,A,ar,O,r,179,1,1183.3000000044703,142331.0,7017,WL,B,4.0
1,10.04699993133545,learn,49953.00006866455,Thu Aug 22 2024 10:47:31 GMT-0500 (Central Daylight Time),144297.0,A,arn,O,n,763,1,1966.0,142331.0,7017,WL,B,4.0
1,10.562999963760376,learn,49437.000036239624,Thu Aug 22 2024 10:47:31 GMT-0500 (Central Daylight Time),144813.70000000298,A,ar,O,backspace,508,1,2482.7000000029802,142331.0,7017,WL,B,4.0
1,11.812999963760376,learn,48187.000036239624,Thu Aug 22 2024 10:47:31 GMT-0500 (Central Daylight Time),146063.1000000015,A,arm,O,m,1232,1,3732.10000000149,142331.0,7017,WL,B,4.0
1,12.174000024795532,learn,47825.99997520447,Thu Aug 22 2024 10:47:31 GMT-0500 (Central Daylight Time),146424.0,A,armenter,O,enter,356,1,4093.0,142331.0,7017,WL,B,4.0
1,13.911999940872192,learn,46088.00005912781,Thu Aug 22 2024 10:47:31 GMT-0500 (Central Daylight Time),148162.3999999985,A,s,O,s,1733,1,1738.0999999940395,146424.30000000447,7017,WL,B,5.0
1,14.461999893188477,learn,45538.00010681152,Thu Aug 22 2024 10:47:31 GMT-0500 (Central Daylight Time),148712.1000000015,A,st,O,t,531,1,2287.7999999970198,146424.30000000447,7017,WL,B,5.0
1,14.661999940872192,learn,45338.00005912781,Thu Aug 22 2024 10:47:31 GMT-0500 (Central Daylight Time),148912.3999999985,A,sta,O,a,188,1,2488.0999999940395,146424.30000000447,7017,WL,B,5.0
1,14.861999988555908,learn,45138.00001144409,Thu Aug 22 2024 10:47:31 GMT-0500 (Central Daylight Time),149112.30000000447,A,star,O,r,181,1,2688.0,146424.30000000447,7017,WL,B,5.0
1,15.061999797821045,learn,44938.000202178955,Thu Aug 22 2024 10:47:31 GMT-0500 (Central Daylight Time),149312.30000000447,A,starenter,O,enter,181,1,2888.0,146424.30000000447,7017,WL,B,5.0
1,15.461999893188477,learn,44538.00010681152,Thu Aug 22 2024 10:47:31 GMT-0500 (Central Daylight Time),149712.0,A,s,O,s,388,1,399.29999999701977,149312.70000000298,7017,WL,B,6.0
1,15.66100001335144,learn,44338.99998664856,Thu Aug 22 2024 10:47:31 GMT-0500 (Central Daylight Time),149911.80000000447,A,sk,O,k,182,1,599.1000000014901,149312.70000000298,7017,WL,B,6.0
1,15.84500002861023,learn,44154.99997138977,Thu Aug 22 2024 10:47:31 GMT-0500 (Central Daylight Time),150095.30000000447,A,ski,O,i,174,1,782.6000000014901,149312.70000000298,7017,WL,B,6.0
1,15.960999965667725,learn,44039.000034332275,Thu Aug 22 2024 10:47:31 GMT-0500 (Central Daylight Time),150211.80000000447,A,skin,O,n,102,1,899.1000000014901,149312.70000000298,7017,WL,B,6.0
1,16.194999933242798,learn,43805.0000667572,Thu Aug 22 2024 10:47:31 GMT-0500 (Central Daylight Time),150445.30000000447,A,skinenter,O,enter,226,1,1132.6000000014901,149312.70000000298,7017,WL,B,6.0
1,16.977999925613403,learn,43022.0000743866,Thu Aug 22 2024 10:47:31 GMT-0500 (Central Daylight Time),151228.20000000298,A,f,O,f,775,1,782.6000000014901,150445.6000000015,7017,WL,B,7.0
1,17.07799983024597,learn,42922.00016975403,Thu Aug 22 2024 10:47:31 GMT-0500 (Central Daylight Time),151328.20000000298,A,fi,O,i,89,1,882.6000000014901,150445.6000000015,7017,WL,B,7.0
1,17.210999965667725,learn,42789.000034332275,Thu Aug 22 2024 10:47:31 GMT-0500 (Central Daylight Time),151461.30000000447,A,fir,O,r,117,1,1015.7000000029802,150445.6000000015,7017,WL,B,7.0
1,17.41100001335144,learn,42588.99998664856,Thu Aug 22 2024 10:47:31 GMT-0500 (Central Daylight Time),151661.30000000447,A,fire,O,e,192,1,1215.7000000029802,150445.6000000015,7017,WL,B,7.0
1,17.543999910354614,learn,42456.000089645386,Thu Aug 22 2024 10:47:31 GMT-0500 (Central Daylight Time),151794.70000000298,A,fireenter,O,enter,120,1,1349.1000000014901,150445.6000000015,7017,WL,B,7.0
1,17.944000005722046,learn,42055.999994277954,Thu Aug 22 2024 10:47:31 GMT-0500 (Central Daylight Time),152194.6000000015,A,c,O,c,386,1,399.5,151795.1000000015,7017,WL,B,8.0
1,18.126999855041504,learn,41873.000144958496,Thu Aug 22 2024 10:47:31 GMT-0500 (Central Daylight Time),152377.70000000298,A,ca,O,a,171,1,582.6000000014901,151795.1000000015,7017,WL,B,8.0
1,18.310999870300293,learn,41689.00012969971,Thu Aug 22 2024 10:47:31 GMT-0500 (Central Daylight Time),152561.30000000447,A,cab,O,b,171,1,766.2000000029802,151795.1000000015,7017,WL,B,8.0
1,18.460999965667725,learn,41539.000034332275,Thu Aug 22 2024 10:47:31 GMT-0500 (Central Daylight Time),152711.1000000015,A,cabi,O,i,132,1,916.0,151795.1000000015,7017,WL,B,8.0
1,18.610999822616577,learn,41389.00017738342,Thu Aug 22 2024 10:47:31 GMT-0500 (Central Daylight Time),152861.0,A,cabin,O,n,135,1,1065.8999999985099,151795.1000000015,7017,WL,B,8.0
1,18.810999870300293,learn,41189.00012969971,Thu Aug 22 2024 10:47:31 GMT-0500 (Central Daylight Time),153060.80000000447,A,cabinenter,O,enter,193,1,1265.7000000029802,151795.1000000015,7017,WL,B,8.0
1,23.54199981689453,learn,36458.00018310547,Thu Aug 22 2024 10:47:31 GMT-0500 (Central Daylight Time),157792.70000000298,A,w,O,w,4712,1,4731.39999999851,153061.30000000447,7017,WL,B,9.0
1,23.776000022888184,learn,36223.99997711182,Thu Aug 22 2024 10:47:31 GMT-0500 (Central Daylight Time),158026.1000000015,A,wi,O,i,213,1,4964.79999999702,153061.30000000447,7017,WL,B,9.0
1,23.875999927520752,learn,36124.00007247925,Thu Aug 22 2024 10:47:31 GMT-0500 (Central Daylight Time),158125.8999999985,A,win,O,n,83,1,5064.5999999940395,153061.30000000447,7017,WL,B,9.0
1,24.05900001525879,learn,35940.99998474121,Thu Aug 22 2024 10:47:31 GMT-0500 (Central Daylight Time),158309.3999999985,A,wind,O,d,175,1,5248.0999999940395,153061.30000000447,7017,WL,B,9.0
1,24.191999912261963,learn,35808.00008773804,Thu Aug 22 2024 10:47:31 GMT-0500 (Central Daylight Time),158442.5,A,windo,O,o,113,1,5381.19999999553,153061.30000000447,7017,WL,B,9.0
1,24.324999809265137,learn,35675.00019073486,Thu Aug 22 2024 10:47:31 GMT-0500 (Central Daylight Time),158575.80000000447,A,window,O,w,123,1,5514.5,153061.30000000447,7017,WL,B,9.0
1,24.47499990463257,learn,35525.00009536743,Thu Aug 22 2024 10:47:31 GMT-0500 (Central Daylight Time),158725.80000000447,A,windowenter,O,enter,134,1,5664.5,153061.30000000447,7017,WL,B,9.0
1,35.105000019073486,learn,24894.999980926514,Thu Aug 22 2024 10:47:31 GMT-0500 (Central Daylight Time),169355.70000000298,A,enter,O,enter,10616,1,10629.60000000149,158726.1000000015,7017,WL,B,10.0
1,36.83799982070923,learn,23162.00017929077,Thu Aug 22 2024 10:47:31 GMT-0500 (Central Daylight Time),171088.5,A,enter,O,enter,1712,1,1732.3999999985099,169356.1000000015,7017,WL,B,11.0
1,37.08799982070923,learn,22912.00017929077,Thu Aug 22 2024 10:47:31 GMT-0500 (Central Daylight Time),171338.3999999985,A,enter,O,enter,229,1,249.5,171088.8999999985,7017,WL,B,12.0
1,37.32099986076355,learn,22679.00013923645,Thu Aug 22 2024 10:47:31 GMT-0500 (Central Daylight Time),171571.6000000015,A,enter,O,enter,227,1,232.79999999701977,171338.80000000447,7017,WL,B,13.0
1,37.621999979019165,learn,22378.000020980835,Thu Aug 22 2024 10:47:31 GMT-0500 (Central Daylight Time),171871.8999999985,A,enter,O,enter,281,1,299.8999999985099,171572.0,7017,WL,B,14.0
1,37.937999963760376,learn,22062.000036239624,Thu Aug 22 2024 10:47:31 GMT-0500 (Central Daylight Time),172188.30000000447,A,enter,O,enter,302,1,316.0,171872.30000000447,7017,WL,B,15.0
2,1.2170000076293945,learn,58782.999992370605,Thu Aug 22 2024 10:47:31 GMT-0500 (Central Daylight Time),240883.3999999985,A,s,O,s,1203,1,1216.3999999985099,239667.0,7017,WL,B,1.0
2,1.4500000476837158,learn,58549.999952316284,Thu Aug 22 2024 10:47:31 GMT-0500 (Central Daylight Time),241116.5,A,st,O,t,226,1,1449.5,239667.0,7017,WL,B,1.0
2,1.6499998569488525,learn,58350.00014305115,Thu Aug 22 2024 10:47:31 GMT-0500 (Central Daylight Time),241316.3999999985,A,str,O,r,193,1,1649.3999999985099,239667.0,7017,WL,B,1.0
2,1.866999864578247,learn,58133.00013542175,Thu Aug 22 2024 10:47:31 GMT-0500 (Central Daylight Time),241533.20000000298,A,stre,O,e,209,1,1866.2000000029802,239667.0,7017,WL,B,1.0
2,2.0999999046325684,learn,57900.00009536743,Thu Aug 22 2024 10:47:31 GMT-0500 (Central Daylight Time),241766.5,A,stree,O,e,217,1,2099.5,239667.0,7017,WL,B,1.0
2,2.299999952316284,learn,57700.000047683716,Thu Aug 22 2024 10:47:31 GMT-0500 (Central Daylight Time),241966.3999999985,A,street,O,t,191,1,2299.39999999851,239667.0,7017,WL,B,1.0
2,2.5,learn,57500.0,Thu Aug 22 2024 10:47:31 GMT-0500 (Central Daylight Time),242166.3999999985,A,streetenter,O,enter,191,1,2499.39999999851,239667.0,7017,WL,B,1.0
2,3.799999952316284,learn,56200.000047683716,Thu Aug 22 2024 10:47:31 GMT-0500 (Central Daylight Time),243466.1000000015,A,g,O,g,1276,1,1299.2000000029802,242166.8999999985,7017,WL,B,2.0
2,4.065999984741211,learn,55934.00001525879,Thu Aug 22 2024 10:47:31 GMT-0500 (Central Daylight Time),243732.30000000447,A,gr,O,r,251,1,1565.4000000059605,242166.8999999985,7017,WL,B,2.0
2,4.33299994468689,learn,55667.00005531311,Thu Aug 22 2024 10:47:31 GMT-0500 (Central Daylight Time),243999.0,A,gra,O,a,249,1,1832.1000000014901,242166.8999999985,7017,WL,B,2.0
2,4.598999977111816,learn,55401.00002288818,Thu Aug 22 2024 10:47:31 GMT-0500 (Central Daylight Time),244265.70000000298,A,gras,O,s,246,1,2098.8000000044703,242166.8999999985,7017,WL,B,2.0
2,4.766000032424927,learn,55233.99996757507,Thu Aug 22 2024 10:47:31 GMT-0500 (Central Daylight Time),244432.20000000298,A,grass,O,s,156,1,2265.3000000044703,242166.8999999985,7017,WL,B,2.0
2,4.98199987411499,learn,55018.00012588501,Thu Aug 22 2024 10:47:31 GMT-0500 (Central Daylight Time),244648.8999999985,A,grassenter,O,enter,197,1,2482.0,242166.8999999985,7017,WL,B,2.0
2,5.615999937057495,learn,54384.000062942505,Thu Aug 22 2024 10:47:31 GMT-0500 (Central Daylight Time),245282.0,A,a,O,a,621,1,632.7999999970198,244649.20000000298,7017,WL,B,3.0
2,5.881999969482422,learn,54118.00003051758,Thu Aug 22 2024 10:47:31 GMT-0500 (Central Daylight Time),245548.3999999985,A,ar,O,r,251,1,899.1999999955297,244649.20000000298,7017,WL,B,3.0
2,6.764999866485596,learn,53235.000133514404,Thu Aug 22 2024 10:47:31 GMT-0500 (Central Daylight Time),246431.6000000015,A,arm,O,m,865,1,1782.3999999985099,244649.20000000298,7017,WL,B,3.0
2,6.9649999141693115,learn,53035.00008583069,Thu Aug 22 2024 10:47:31 GMT-0500 (Central Daylight Time),246631.3999999985,A,armenter,O,enter,182,1,1982.1999999955297,244649.20000000298,7017,WL,B,3.0
2,7.447999954223633,learn,52552.00004577637,Thu Aug 22 2024 10:47:31 GMT-0500 (Central Daylight Time),247114.6000000015,A,d,O,d,478,1,482.8999999985099,246631.70000000298,7017,WL,B,4.0
2,7.697999954223633,learn,52302.00004577637,Thu Aug 22 2024 10:47:31 GMT-0500 (Central Daylight Time),247364.80000000447,A,do,O,o,235,1,733.1000000014901,246631.70000000298,7017,WL,B,4.0
2,7.881999969482422,learn,52118.00003051758,Thu Aug 22 2024 10:47:31 GMT-0500 (Central Daylight Time),247548.0,A,doo,O,o,177,1,916.2999999970198,246631.70000000298,7017,WL,B,4.0
2,8.098000049591064,learn,51901.999950408936,Thu Aug 22 2024 10:47:31 GMT-0500 (Central Daylight Time),247764.3999999985,A,door,O,r,210,1,1132.6999999955297,246631.70000000298,7017,WL,B,4.0
2,8.264999866485596,learn,51735.000133514404,Thu Aug 22 2024 10:47:31 GMT-0500 (Central Daylight Time),247931.0,A,doorenter,O,enter,161,1,1299.2999999970198,246631.70000000298,7017,WL,B,4.0
2,8.898000001907349,learn,51101.99999809265,Thu Aug 22 2024 10:47:31 GMT-0500 (Central Daylight Time),248564.30000000447,A,s,O,s,619,1,633.0,247931.30000000447,7017,WL,B,5.0
2,9.230999946594238,learn,50769.00005340576,Thu Aug 22 2024 10:47:31 GMT-0500 (Central Daylight Time),248897.3999999985,A,st,O,t,313,1,966.0999999940395,247931.30000000447,7017,WL,B,5.0
2,9.430999994277954,learn,50569.000005722046,Thu Aug 22 2024 10:47:31 GMT-0500 (Central Daylight Time),249097.30000000447,A,sta,O,a,180,1,1166.0,247931.30000000447,7017,WL,B,5.0
2,9.580999851226807,learn,50419.00014877319,Thu Aug 22 2024 10:47:31 GMT-0500 (Central Daylight Time),249247.30000000447,A,star,O,r,140,1,1316.0,247931.30000000447,7017,WL,B,5.0
2,9.763999938964844,learn,50236.000061035156,Thu Aug 22 2024 10:47:31 GMT-0500 (Central Daylight Time),249430.6000000015,A,starenter,O,enter,174,1,1499.2999999970198,247931.30000000447,7017,WL,B,5.0
2,10.19700002670288,learn,49802.99997329712,Thu Aug 22 2024 10:47:31 GMT-0500 (Central Daylight Time),249863.70000000298,A,w,O,w,423,1,432.70000000298023,249431.0,7017,WL,B,6.0
2,10.430999994277954,learn,49569.000005722046,Thu Aug 22 2024 10:47:31 GMT-0500 (Central Daylight Time),250097.20000000298,A,wi,O,i,214,1,666.2000000029802,249431.0,7017,WL,B,6.0
2,10.680999994277954,learn,49319.000005722046,Thu Aug 22 2024 10:47:31 GMT-0500 (Central Daylight Time),250347.1000000015,A,wif,O,f,236,1,916.1000000014901,249431.0,7017,WL,B,6.0
2,10.863999843597412,learn,49136.00015640259,Thu Aug 22 2024 10:47:31 GMT-0500 (Central Daylight Time),250530.3999999985,A,wife,O,e,170,1,1099.3999999985099,249431.0,7017,WL,B,6.0
2,10.996999979019165,learn,49003.000020980835,Thu Aug 22 2024 10:47:31 GMT-0500 (Central Daylight Time),250663.80000000447,A,wifeenter,O,enter,124,1,1232.8000000044703,249431.0,7017,WL,B,6.0
2,12.36299991607666,learn,47637.00008392334,Thu Aug 22 2024 10:47:31 GMT-0500 (Central Daylight Time),252029.80000000447,A,s,O,s,1349,1,1365.7000000029802,250664.1000000015,7017,WL,B,7.0
2,12.579999923706055,learn,47420.000076293945,Thu Aug 22 2024 10:47:31 GMT-0500 (Central Daylight Time),252246.5,A,sk,O,k,208,1,1582.3999999985099,250664.1000000015,7017,WL,B,7.0
2,12.79699993133545,learn,47203.00006866455,Thu Aug 22 2024 10:47:31 GMT-0500 (Central Daylight Time),252463.0,A,ski,O,i,199,1,1798.8999999985099,250664.1000000015,7017,WL,B,7.0
2,12.845999956130981,learn,47154.00004386902,Thu Aug 22 2024 10:47:31 GMT-0500 (Central Daylight Time),252512.80000000447,A,skin,O,n,39,1,1848.7000000029802,250664.1000000015,7017,WL,B,7.0
2,13.095999956130981,learn,46904.00004386902,Thu Aug 22 2024 10:47:31 GMT-0500 (Central Daylight Time),252762.70000000298,A,skinenter,O,enter,245,1,2098.60000000149,250664.1000000015,7017,WL,B,7.0
2,13.662999868392944,learn,46337.000131607056,Thu Aug 22 2024 10:47:31 GMT-0500 (Central Daylight Time),253329.5,A,w,O,w,547,1,566.6000000014901,252762.8999999985,7017,WL,B,8.0
2,13.796000003814697,learn,46203.9999961853,Thu Aug 22 2024 10:47:31 GMT-0500 (Central Daylight Time),253462.70000000298,A,wi,O,i,124,1,699.8000000044703,252762.8999999985,7017,WL,B,8.0
2,13.912999868392944,learn,46087.000131607056,Thu Aug 22 2024 10:47:31 GMT-0500 (Central Daylight Time),253579.20000000298,A,win,O,n,111,1,816.3000000044703,252762.8999999985,7017,WL,B,8.0
2,14.162999868392944,learn,45837.000131607056,Thu Aug 22 2024 10:47:31 GMT-0500 (Central Daylight Time),253829.30000000447,A,wind,O,d,234,1,1066.4000000059605,252762.8999999985,7017,WL,B,8.0
2,14.263000011444092,learn,45736.99998855591,Thu Aug 22 2024 10:47:31 GMT-0500 (Central Daylight Time),253929.20000000298,A,windo,O,o,88,1,1166.3000000044703,252762.8999999985,7017,WL,B,8.0
2,14.463000059127808,learn,45536.99994087219,Thu Aug 22 2024 10:47:31 GMT-0500 (Central Daylight Time),254129.30000000447,A,window,O,w,180,1,1366.4000000059605,252762.8999999985,7017,WL,B,8.0
2,14.546000003814697,learn,45453.9999961853,Thu Aug 22 2024 10:47:31 GMT-0500 (Central Daylight Time),254212.5,A,windowenter,O,enter,76,1,1449.6000000014901,252762.8999999985,7017,WL,B,8.0
2,15.013000011444092,learn,44986.99998855591,Thu Aug 22 2024 10:47:31 GMT-0500 (Central Daylight Time),254679.1000000015,A,p,O,p,448,1,466.20000000298023,254212.8999999985,7017,WL,B,9.0
2,15.296000003814697,learn,44703.9999961853,Thu Aug 22 2024 10:47:31 GMT-0500 (Central Daylight Time),254962.30000000447,A,pu,O,u,278,1,749.4000000059605,254212.8999999985,7017,WL,B,9.0
2,15.546000003814697,learn,44453.9999961853,Thu Aug 22 2024 10:47:31 GMT-0500 (Central Daylight Time),255212.20000000298,A,pup,O,p,243,1,999.3000000044703,254212.8999999985,7017,WL,B,9.0
2,15.878999948501587,learn,44121.00005149841,Thu Aug 22 2024 10:47:31 GMT-0500 (Central Daylight Time),255545.20000000298,A,pupi,O,i,313,1,1332.3000000044703,254212.8999999985,7017,WL,B,9.0
2,16.145999908447266,learn,43854.000091552734,Thu Aug 22 2024 10:47:31 GMT-0500 (Central Daylight Time),255812.20000000298,A,pupil,O,l,252,1,1599.3000000044703,254212.8999999985,7017,WL,B,9.0
2,16.328999996185303,learn,43671.0000038147,Thu Aug 22 2024 10:47:31 GMT-0500 (Central Daylight Time),255995.20000000298,A,pupilenter,O,enter,169,1,1782.3000000044703,254212.8999999985,7017,WL,B,9.0
2,17.92799997329712,learn,42072.00002670288,Thu Aug 22 2024 10:47:31 GMT-0500 (Central Daylight Time),257594.70000000298,A,v,O,v,1586,1,1599.1000000014901,255995.6000000015,7017,WL,B,10.0
2,18.161999940872192,learn,41838.00005912781,Thu Aug 22 2024 10:47:31 GMT-0500 (Central Daylight Time),257828.1000000015,A,vi,O,i,227,1,1832.5,255995.6000000015,7017,WL,B,10.0
2,18.244999885559082,learn,41755.00011444092,Thu Aug 22 2024 10:47:31 GMT-0500 (Central Daylight Time),257911.30000000447,A,vit,O,t,65,1,1915.7000000029802,255995.6000000015,7017,WL,B,10.0
2,18.694999933242798,learn,41305.0000667572,Thu Aug 22 2024 10:47:31 GMT-0500 (Central Daylight Time),258361.20000000298,A,vi,O,backspace,430,1,2365.60000000149,255995.6000000015,7017,WL,B,10.0
2,18.82800006866455,learn,41171.99993133545,Thu Aug 22 2024 10:47:31 GMT-0500 (Central Daylight Time),258494.5,A,v,O,backspace,125,1,2498.89999999851,255995.6000000015,7017,WL,B,10.0
2,18.994999885559082,learn,41005.00011444092,Thu Aug 22 2024 10:47:31 GMT-0500 (Central Daylight Time),258661.0,A,,O,backspace,151,1,2665.39999999851,255995.6000000015,7017,WL,B,10.0
2,19.727999925613403,learn,40272.0000743866,Thu Aug 22 2024 10:47:31 GMT-0500 (Central Daylight Time),259394.3999999985,A,c,O,c,729,1,3398.7999999970198,255995.6000000015,7017,WL,B,10.0
2,19.960999965667725,learn,40039.000034332275,Thu Aug 22 2024 10:47:31 GMT-0500 (Central Daylight Time),259627.3999999985,A,ci,O,i,227,1,3631.7999999970198,255995.6000000015,7017,WL,B,10.0
2,20.24399995803833,learn,39756.00004196167,Thu Aug 22 2024 10:47:31 GMT-0500 (Central Daylight Time),259910.5,A,cit,O,t,274,1,3914.89999999851,255995.6000000015,7017,WL,B,10.0
2,20.361000061035156,learn,39638.999938964844,Thu Aug 22 2024 10:47:31 GMT-0500 (Central Daylight Time),260027.3999999985,A,city,O,y,103,1,4031.7999999970198,255995.6000000015,7017,WL,B,10.0
2,20.611000061035156,learn,39388.999938964844,Thu Aug 22 2024 10:47:31 GMT-0500 (Central Daylight Time),260277.20000000298,A,cityenter,O,enter,234,1,4281.60000000149,255995.6000000015,7017,WL,B,10.0
2,22.043999910354614,learn,37956.000089645386,Thu Aug 22 2024 10:47:31 GMT-0500 (Central Daylight Time),261710.20000000298,A,c,O,c,1416,1,1432.6000000014901,260277.6000000015,7017,WL,B,11.0
2,22.22699999809265,learn,37773.00000190735,Thu Aug 22 2024 10:47:31 GMT-0500 (Central Daylight Time),261893.3999999985,A,ca,O,a,175,1,1615.7999999970198,260277.6000000015,7017,WL,B,11.0
2,22.444000005722046,learn,37555.999994277954,Thu Aug 22 2024 10:47:31 GMT-0500 (Central Daylight Time),262110.1000000015,A,cab,O,b,200,1,1832.5,260277.6000000015,7017,WL,B,11.0
2,22.64299988746643,learn,37357.00011253357,Thu Aug 22 2024 10:47:31 GMT-0500 (Central Daylight Time),262309.80000000447,A,cabi,O,i,192,1,2032.2000000029802,260277.6000000015,7017,WL,B,11.0
2,22.80999994277954,learn,37190.00005722046,Thu Aug 22 2024 10:47:31 GMT-0500 (Central Daylight Time),262476.700000003,A,cabin,O,n,152,1,2199.10000000149,260277.6000000015,7017,WL,B,11.0
2,22.99399995803833,learn,37006.00004196167,Thu Aug 22 2024 10:47:31 GMT-0500 (Central Daylight Time),262660.0,A,cabinenter,O,enter,169,1,2382.39999999851,260277.6000000015,7017,WL,B,11.0
2,23.55999994277954,learn,36440.00005722046,Thu Aug 22 2024 10:47:31 GMT-0500 (Central Daylight Time),263226.30000000447,A,f,O,f,561,1,566.0,262660.30000000447,7017,WL,B,12.0
2,23.743000030517578,learn,36256.99996948242,Thu Aug 22 2024 10:47:31 GMT-0500 (Central Daylight Time),263409.3999999985,A,fi,O,i,163,1,749.0999999940395,262660.30000000447,7017,WL,B,12.0
2,23.89299988746643,learn,36107.00011253357,Thu Aug 22 2024 10:47:31 GMT-0500 (Central Daylight Time),263559.5,A,fir,O,r,132,1,899.1999999955297,262660.30000000447,7017,WL,B,12.0
2,24.009999990463257,learn,35990.00000953674,Thu Aug 22 2024 10:47:31 GMT-0500 (Central Daylight Time),263676.200000003,A,fire,O,e,102,1,1015.8999999985099,262660.30000000447,7017,WL,B,12.0
2,24.15999984741211,learn,35840.00015258789,Thu Aug 22 2024 10:47:31 GMT-0500 (Central Daylight Time),263826.200000003,A,fireenter,O,enter,137,1,1165.8999999985099,262660.30000000447,7017,WL,B,12.0
2,24.542999982833862,learn,35457.00001716614,Thu Aug 22 2024 10:47:31 GMT-0500 (Central Daylight Time),264209.1000000015,A,p,O,p,363,1,382.5,263826.6000000015,7017,WL,B,13.0
2,24.710000038146973,learn,35289.99996185303,Thu Aug 22 2024 10:47:31 GMT-0500 (Central Daylight Time),264376.200000003,A,pi,O,i,156,1,549.6000000014901,263826.6000000015,7017,WL,B,13.0
2,24.842999935150146,learn,35157.00006484985,Thu Aug 22 2024 10:47:31 GMT-0500 (Central Daylight Time),264509.30000000447,A,pip,O,p,126,1,682.7000000029802,263826.6000000015,7017,WL,B,13.0
2,24.993000030517578,learn,35006.99996948242,Thu Aug 22 2024 10:47:31 GMT-0500 (Central Daylight Time),264659.200000003,A,pipe,O,e,136,1,832.6000000014901,263826.6000000015,7017,WL,B,13.0
2,25.108999967575073,learn,34891.00003242493,Thu Aug 22 2024 10:47:31 GMT-0500 (Central Daylight Time),264775.700000003,A,pipeenter,O,enter,98,1,949.1000000014901,263826.6000000015,7017,WL,B,13.0
2,40.98799991607666,learn,19012.00008392334,Thu Aug 22 2024 10:47:31 GMT-0500 (Central Daylight Time),280654.200000003,A,enter,O,enter,15862,1,15878.30000000447,264775.8999999985,7017,WL,B,14.0
2,41.1710000038147,learn,18828.999996185303,Thu Aug 22 2024 10:47:31 GMT-0500 (Central Daylight Time),280837.30000000447,A,enter,O,enter,167,1,182.70000000298023,280654.6000000015,7017,WL,B,15.0
3,1.5819997787475586,learn,58418.00022125244,Thu Aug 22 2024 10:47:31 GMT-0500 (Central Daylight Time),347133.200000003,A,g,O,g,1568,1,1582.6000000014901,345550.6000000015,7017,WL,B,1.0
3,1.7989997863769531,learn,58201.00021362305,Thu Aug 22 2024 10:47:31 GMT-0500 (Central Daylight Time),347349.8999999985,A,gr,O,r,200,1,1799.2999999970198,345550.6000000015,7017,WL,B,1.0
3,2.0,learn,58000.0,Thu Aug 22 2024 10:47:31 GMT-0500 (Central Daylight Time),347550.5,A,gre,O,e,184,1,1999.8999999985099,345550.6000000015,7017,WL,B,1.0
3,2.2319998741149902,learn,57768.00012588501,Thu Aug 22 2024 10:47:31 GMT-0500 (Central Daylight Time),347783.0,A,grea,O,a,223,1,2232.39999999851,345550.6000000015,7017,WL,B,1.0
3,3.06499981880188,learn,56935.00018119812,Thu Aug 22 2024 10:47:31 GMT-0500 (Central Daylight Time),348616.1000000015,A,greas,O,s,823,1,3065.5,345550.6000000015,7017,WL,B,1.0
3,3.2659997940063477,learn,56734.00020599365,Thu Aug 22 2024 10:47:31 GMT-0500 (Central Daylight Time),348816.30000000447,A,greass,O,s,189,1,3265.7000000029802,345550.6000000015,7017,WL,B,1.0
3,3.9819998741149902,learn,56018.00012588501,Thu Aug 22 2024 10:47:31 GMT-0500 (Central Daylight Time),349532.6000000015,A,greas,O,backspace,701,1,3982.0,345550.6000000015,7017,WL,B,1.0
3,4.347999811172485,learn,55652.000188827515,Thu Aug 22 2024 10:47:31 GMT-0500 (Central Daylight Time),349899.0,A,grea,O,backspace,353,1,4348.39999999851,345550.6000000015,7017,WL,B,1.0
3,4.597999811172485,learn,55402.000188827515,Thu Aug 22 2024 10:47:31 GMT-0500 (Central Daylight Time),350149.0,A,gre,O,backspace,235,1,4598.39999999851,345550.6000000015,7017,WL,B,1.0
3,5.247999906539917,learn,54752.00009346008,Thu Aug 22 2024 10:47:31 GMT-0500 (Central Daylight Time),350798.80000000447,A,gr,O,backspace,633,1,5248.20000000298,345550.6000000015,7017,WL,B,1.0
3,5.4649999141693115,learn,54535.00008583069,Thu Aug 22 2024 10:47:31 GMT-0500 (Central Daylight Time),351015.30000000447,A,gra,O,a,199,1,5464.70000000298,345550.6000000015,7017,WL,B,1.0
3,6.31499981880188,learn,53685.00018119812,Thu Aug 22 2024 10:47:31 GMT-0500 (Central Daylight Time),351865.30000000447,A,gras,O,s,830,1,6314.70000000298,345550.6000000015,7017,WL,B,1.0
3,6.480999946594238,learn,53519.00005340576,Thu Aug 22 2024 10:47:31 GMT-0500 (Central Daylight Time),352031.700000003,A,grass,O,s,156,1,6481.10000000149,345550.6000000015,7017,WL,B,1.0
3,7.646999835968018,learn,52353.00016403198,Thu Aug 22 2024 10:47:31 GMT-0500 (Central Daylight Time),353198.0,A,grassenter,O,enter,1158,1,7647.39999999851,345550.6000000015,7017,WL,B,1.0
3,9.263999938964844,learn,50736.000061035156,Thu Aug 22 2024 10:47:31 GMT-0500 (Central Daylight Time),354814.200000003,A,s,O,s,1600,1,1615.8999999985099,353198.30000000447,7017,WL,B,2.0
3,9.52999997138977,learn,50470.00002861023,Thu Aug 22 2024 10:47:31 GMT-0500 (Central Daylight Time),355081.0,A,st,O,t,247,1,1882.6999999955297,353198.30000000447,7017,WL,B,2.0
3,9.679999828338623,learn,50320.00017166138,Thu Aug 22 2024 10:47:31 GMT-0500 (Central Daylight Time),355230.8999999985,A,str,O,r,141,1,2032.5999999940395,353198.30000000447,7017,WL,B,2.0
3,9.846999883651733,learn,50153.00011634827,Thu Aug 22 2024 10:47:31 GMT-0500 (Central Daylight Time),355397.5,A,stre,O,e,151,1,2199.1999999955297,353198.30000000447,7017,WL,B,2.0
3,10.062999963760376,learn,49937.000036239624,Thu Aug 22 2024 10:47:31 GMT-0500 (Central Daylight Time),355614.0,A,stree,O,e,200,1,2415.6999999955297,353198.30000000447,7017,WL,B,2.0
3,10.196999788284302,learn,49803.0002117157,Thu Aug 22 2024 10:47:31 GMT-0500 (Central Daylight Time),355747.30000000447,A,street,O,t,120,1,2549.0,353198.30000000447,7017,WL,B,2.0
3,10.346999883651733,learn,49653.00011634827,Thu Aug 22 2024 10:47:31 GMT-0500 (Central Daylight Time),355897.30000000447,A,streetenter,O,enter,138,1,2699.0,353198.30000000447,7017,WL,B,2.0
3,10.86299991607666,learn,49137.00008392334,Thu Aug 22 2024 10:47:31 GMT-0500 (Central Daylight Time),356413.700000003,A,d,O,d,500,1,516.1000000014901,355897.6000000015,7017,WL,B,3.0
3,11.012999773025513,learn,48987.00022697449,Thu Aug 22 2024 10:47:31 GMT-0500 (Central Daylight Time),356563.700000003,A,do,O,o,136,1,666.1000000014901,355897.6000000015,7017,WL,B,3.0
3,11.179999828338623,learn,48820.00017166138,Thu Aug 22 2024 10:47:31 GMT-0500 (Central Daylight Time),356730.3999999985,A,doo,O,o,154,1,832.7999999970198,355897.6000000015,7017,WL,B,3.0
3,11.262999773025513,learn,48737.00022697449,Thu Aug 22 2024 10:47:31 GMT-0500 (Central Daylight Time),356813.5,A,door,O,r,75,1,915.8999999985099,355897.6000000015,7017,WL,B,3.0
3,11.44599986076355,learn,48554.00013923645,Thu Aug 22 2024 10:47:31 GMT-0500 (Central Daylight Time),356996.8999999985,A,doorenter,O,enter,177,1,1099.2999999970198,355897.6000000015,7017,WL,B,3.0
3,14.01199984550476,learn,45988.00015449524,Thu Aug 22 2024 10:47:31 GMT-0500 (Central Daylight Time),359563.0,A,a,O,a,2546,1,2565.7999999970198,356997.200000003,7017,WL,B,4.0
3,14.294999837875366,learn,45705.000162124634,Thu Aug 22 2024 10:47:31 GMT-0500 (Central Daylight Time),359845.8999999985,A,ar,O,r,266,1,2848.6999999955297,356997.200000003,7017,WL,B,4.0
3,14.661999940872192,learn,45338.00005912781,Thu Aug 22 2024 10:47:31 GMT-0500 (Central Daylight Time),360212.3999999985,A,arn,O,n,360,1,3215.1999999955297,356997.200000003,7017,WL,B,4.0
3,14.911999940872192,learn,45088.00005912781,Thu Aug 22 2024 10:47:31 GMT-0500 (Central Daylight Time),360462.30000000447,A,arnenter,O,enter,233,1,3465.10000000149,356997.200000003,7017,WL,B,4.0
3,15.627999782562256,learn,44372.000217437744,Thu Aug 22 2024 10:47:31 GMT-0500 (Central Daylight Time),361178.700000003,A,s,O,s,711,1,716.0,360462.700000003,7017,WL,B,5.0
3,15.744999885559082,learn,44255.00011444092,Thu Aug 22 2024 10:47:31 GMT-0500 (Central Daylight Time),361295.6000000015,A,sk,O,k,99,1,832.8999999985099,360462.700000003,7017,WL,B,5.0
3,15.944999933242798,learn,44055.0000667572,Thu Aug 22 2024 10:47:31 GMT-0500 (Central Daylight Time),361495.3999999985,A,ski,O,i,182,1,1032.6999999955297,360462.700000003,7017,WL,B,5.0
3,16.027999877929688,learn,43972.00012207031,Thu Aug 22 2024 10:47:31 GMT-0500 (Central Daylight Time),361578.700000003,A,skin,O,n,70,1,1116.0,360462.700000003,7017,WL,B,5.0
3,16.227999925613403,learn,43772.0000743866,Thu Aug 22 2024 10:47:31 GMT-0500 (Central Daylight Time),361779.0,A,skinenter,O,enter,187,1,1316.2999999970198,360462.700000003,7017,WL,B,5.0
3,16.84499979019165,learn,43155.00020980835,Thu Aug 22 2024 10:47:31 GMT-0500 (Central Daylight Time),362396.0,A,w,O,w,611,1,616.6999999955297,361779.30000000447,7017,WL,B,6.0
3,17.027999877929688,learn,42972.00012207031,Thu Aug 22 2024 10:47:31 GMT-0500 (Central Daylight Time),362578.3999999985,A,wi,O,i,178,1,799.0999999940395,361779.30000000447,7017,WL,B,6.0
3,17.3439998626709,learn,42656.0001373291,Thu Aug 22 2024 10:47:31 GMT-0500 (Central Daylight Time),362895.0,A,wif,O,f,299,1,1115.6999999955297,361779.30000000447,7017,WL,B,6.0
3,17.626999855041504,learn,42373.000144958496,Thu Aug 22 2024 10:47:31 GMT-0500 (Central Daylight Time),363178.1000000015,A,wifenter,O,enter,263,1,1398.7999999970198,361779.30000000447,7017,WL,B,6.0
3,20.242999792099,learn,39757.000207901,Thu Aug 22 2024 10:47:31 GMT-0500 (Central Daylight Time),365794.1000000015,A,p,O,p,2596,1,2615.60000000149,363178.5,7017,WL,B,7.0
3,20.47599983215332,learn,39524.00016784668,Thu Aug 22 2024 10:47:31 GMT-0500 (Central Daylight Time),366027.1000000015,A,pu,O,u,227,1,2848.60000000149,363178.5,7017,WL,B,7.0
3,20.692999839782715,learn,39307.000160217285,Thu Aug 22 2024 10:47:31 GMT-0500 (Central Daylight Time),366244.0,A,pup,O,p,210,1,3065.5,363178.5,7017,WL,B,7.0
3,20.876999855041504,learn,39123.000144958496,Thu Aug 22 2024 10:47:31 GMT-0500 (Central Daylight Time),366428.0,A,pupi,O,i,178,1,3249.5,363178.5,7017,WL,B,7.0
3,21.109999895095825,learn,38890.000104904175,Thu Aug 22 2024 10:47:31 GMT-0500 (Central Daylight Time),366660.700000003,A,pupil,O,l,218,1,3482.2000000029802,363178.5,7017,WL,B,7.0
3,21.742999792099,learn,38257.000207901,Thu Aug 22 2024 10:47:31 GMT-0500 (Central Daylight Time),367293.6000000015,A,pupilenter,O,enter,617,1,4115.10000000149,363178.5,7017,WL,B,7.0
3,23.47699999809265,learn,36523.00000190735,Thu Aug 22 2024 10:47:31 GMT-0500 (Central Daylight Time),369027.6000000015,A,s,O,s,1720,1,1733.6000000014901,367294.0,7017,WL,B,8.0
3,23.775999784469604,learn,36224.000215530396,Thu Aug 22 2024 10:47:31 GMT-0500 (Central Daylight Time),369326.5,A,st,O,t,282,1,2032.5,367294.0,7017,WL,B,8.0
3,23.941999912261963,learn,36058.00008773804,Thu Aug 22 2024 10:47:31 GMT-0500 (Central Daylight Time),369492.8999999985,A,sta,O,a,151,1,2198.89999999851,367294.0,7017,WL,B,8.0
3,24.191999912261963,learn,35808.00008773804,Thu Aug 22 2024 10:47:31 GMT-0500 (Central Daylight Time),369742.80000000447,A,star,O,r,241,1,2448.8000000044703,367294.0,7017,WL,B,8.0
3,24.758999824523926,learn,35241.000175476074,Thu Aug 22 2024 10:47:31 GMT-0500 (Central Daylight Time),370309.5,A,starenter,O,enter,551,1,3015.5,367294.0,7017,WL,B,8.0
3,27.107999801635742,learn,32892.00019836426,Thu Aug 22 2024 10:47:31 GMT-0500 (Central Daylight Time),372658.700000003,A,f,O,f,2344,1,2348.89999999851,370309.80000000447,7017,WL,B,9.0
3,27.29099988937378,learn,32709.00011062622,Thu Aug 22 2024 10:47:31 GMT-0500 (Central Daylight Time),372842.0,A,fi,O,i,163,1,2532.1999999955297,370309.80000000447,7017,WL,B,9.0
3,27.407999992370605,learn,32592.000007629395,Thu Aug 22 2024 10:47:31 GMT-0500 (Central Daylight Time),372958.5,A,fir,O,r,108,1,2648.6999999955297,370309.80000000447,7017,WL,B,9.0
3,27.507999897003174,learn,32492.000102996826,Thu Aug 22 2024 10:47:31 GMT-0500 (Central Daylight Time),373058.3999999985,A,fire,O,e,79,1,2748.5999999940395,370309.80000000447,7017,WL,B,9.0
3,27.657999992370605,learn,32342.000007629395,Thu Aug 22 2024 10:47:31 GMT-0500 (Central Daylight Time),373208.3999999985,A,fireenter,O,enter,131,1,2898.5999999940395,370309.80000000447,7017,WL,B,9.0
3,27.907999992370605,learn,32092.000007629395,Thu Aug 22 2024 10:47:31 GMT-0500 (Central Daylight Time),373458.6000000015,A,c,O,c,245,1,249.89999999850988,373208.700000003,7017,WL,B,10.0
3,28.04099988937378,learn,31959.00011062622,Thu Aug 22 2024 10:47:31 GMT-0500 (Central Daylight Time),373591.6000000015,A,ca,O,a,115,1,382.8999999985099,373208.700000003,7017,WL,B,10.0
3,28.256999969482422,learn,31743.000030517578,Thu Aug 22 2024 10:47:31 GMT-0500 (Central Daylight Time),373808.30000000447,A,cab,O,b,206,1,599.6000000014901,373208.700000003,7017,WL,B,10.0
3,28.407999992370605,learn,31592.000007629395,Thu Aug 22 2024 10:47:31 GMT-0500 (Central Daylight Time),373958.5,A,cabi,O,i,133,1,749.7999999970198,373208.700000003,7017,WL,B,10.0
3,28.5239999294281,learn,31476.0000705719,Thu Aug 22 2024 10:47:31 GMT-0500 (Central Daylight Time),374074.80000000447,A,cabin,O,n,111,1,866.1000000014901,373208.700000003,7017,WL,B,10.0
3,28.7739999294281,learn,31226.0000705719,Thu Aug 22 2024 10:47:31 GMT-0500 (Central Daylight Time),374324.80000000447,A,cabinenter,O,enter,243,1,1116.1000000014901,373208.700000003,7017,WL,B,10.0
3,29.639999866485596,learn,30360.000133514404,Thu Aug 22 2024 10:47:31 GMT-0500 (Central Daylight Time),375191.200000003,A,l,O,l,857,1,866.1000000014901,374325.1000000015,7017,WL,B,11.0
3,29.87399983406067,learn,30126.00016593933,Thu Aug 22 2024 10:47:31 GMT-0500 (Central Daylight Time),375424.5,A,la,O,a,214,1,1099.3999999985099,374325.1000000015,7017,WL,B,11.0
3,30.12399983406067,learn,29876.00016593933,Thu Aug 22 2024 10:47:31 GMT-0500 (Central Daylight Time),375674.3999999985,A,lak,O,k,237,1,1349.2999999970198,374325.1000000015,7017,WL,B,11.0
3,30.2739999294281,learn,29726.0000705719,Thu Aug 22 2024 10:47:31 GMT-0500 (Central Daylight Time),375824.6000000015,A,lake,O,e,131,1,1499.5,374325.1000000015,7017,WL,B,11.0
3,30.406999826431274,learn,29593.000173568726,Thu Aug 22 2024 10:47:31 GMT-0500 (Central Daylight Time),375957.30000000447,A,lakeenter,O,enter,125,1,1632.2000000029802,374325.1000000015,7017,WL,B,11.0
3,31.222999811172485,learn,28777.000188827515,Thu Aug 22 2024 10:47:31 GMT-0500 (Central Daylight Time),376773.700000003,A,c,O,c,809,1,816.1000000014901,375957.6000000015,7017,WL,B,12.0
3,31.406999826431274,learn,28593.000173568726,Thu Aug 22 2024 10:47:31 GMT-0500 (Central Daylight Time),376957.5,A,ci,O,i,168,1,999.8999999985099,375957.6000000015,7017,WL,B,12.0
3,31.572999954223633,learn,28427.000045776367,Thu Aug 22 2024 10:47:31 GMT-0500 (Central Daylight Time),377123.8999999985,A,cit,O,t,152,1,1166.2999999970198,375957.6000000015,7017,WL,B,12.0
3,31.68999981880188,learn,28310.00018119812,Thu Aug 22 2024 10:47:31 GMT-0500 (Central Daylight Time),377240.30000000447,A,city,O,y,106,1,1282.7000000029802,375957.6000000015,7017,WL,B,12.0
3,32.00599980354309,learn,27994.00019645691,Thu Aug 22 2024 10:47:31 GMT-0500 (Central Daylight Time),377557.1000000015,A,cityenter,O,enter,301,1,1599.5,375957.6000000015,7017,WL,B,12.0
3,34.538999795913696,learn,25461.000204086304,Thu Aug 22 2024 10:47:31 GMT-0500 (Central Daylight Time),380089.80000000447,A,p,O,p,2513,1,2532.4000000059605,377557.3999999985,7017,WL,B,13.0
3,34.68899989128113,learn,25311.000108718872,Thu Aug 22 2024 10:47:31 GMT-0500 (Central Daylight Time),380239.3999999985,A,pi,O,i,140,1,2682.0,377557.3999999985,7017,WL,B,13.0
3,34.83899998664856,learn,25161.00001335144,Thu Aug 22 2024 10:47:31 GMT-0500 (Central Daylight Time),380389.5,A,pip,O,p,142,1,2832.10000000149,377557.3999999985,7017,WL,B,13.0
3,35.00499987602234,learn,24995.00012397766,Thu Aug 22 2024 10:47:31 GMT-0500 (Central Daylight Time),380556.1000000015,A,pipe,O,e,152,1,2998.7000000029802,377557.3999999985,7017,WL,B,13.0
3,35.138999938964844,learn,24861.000061035156,Thu Aug 22 2024 10:47:31 GMT-0500 (Central Daylight Time),380689.6000000015,A,pipeenter,O,enter,122,1,3132.2000000029802,377557.3999999985,7017,WL,B,13.0
3,44.28599977493286,learn,15714.000225067139,Thu Aug 22 2024 10:47:31 GMT-0500 (Central Daylight Time),389836.6000000015,A,c,O,c,9132,1,9146.70000000298,380689.8999999985,7017,WL,B,14.0
3,44.501999855041504,learn,15498.000144958496,Thu Aug 22 2024 10:47:31 GMT-0500 (Central Daylight Time),390053.200000003,A,ck,O,k,209,1,9363.30000000447,380689.8999999985,7017,WL,B,14.0
3,45.48599982261658,learn,14514.000177383423,Thu Aug 22 2024 10:47:31 GMT-0500 (Central Daylight Time),391036.30000000447,A,c,O,backspace,976,1,10346.40000000596,380689.8999999985,7017,WL,B,14.0
3,46.2189998626709,learn,13781.000137329102,Thu Aug 22 2024 10:47:31 GMT-0500 (Central Daylight Time),391769.3999999985,A,cl,O,l,721,1,11079.5,380689.8999999985,7017,WL,B,14.0
3,46.45199990272522,learn,13548.00009727478,Thu Aug 22 2024 10:47:31 GMT-0500 (Central Daylight Time),392002.5,A,clo,O,o,228,1,11312.60000000149,380689.8999999985,7017,WL,B,14.0
3,46.91799998283386,learn,13082.000017166138,Thu Aug 22 2024 10:47:31 GMT-0500 (Central Daylight Time),392469.200000003,A,cloc,O,c,451,1,11779.30000000447,380689.8999999985,7017,WL,B,14.0
3,47.05199980735779,learn,12948.000192642212,Thu Aug 22 2024 10:47:31 GMT-0500 (Central Daylight Time),392602.30000000447,A,clock,O,k,113,1,11912.40000000596,380689.8999999985,7017,WL,B,14.0
3,47.85099983215332,learn,12149.00016784668,Thu Aug 22 2024 10:47:31 GMT-0500 (Central Daylight Time),393402.30000000447,A,clockenter,O,enter,787,1,12712.40000000596,380689.8999999985,7017,WL,B,14.0
3,55.29899978637695,learn,4701.000213623047,Thu Aug 22 2024 10:47:31 GMT-0500 (Central Daylight Time),400849.6000000015,A,p,O,p,7436,1,7447.10000000149,393402.5,7017,WL,B,15.0
3,55.54899978637695,learn,4451.000213623047,Thu Aug 22 2024 10:47:31 GMT-0500 (Central Daylight Time),401099.6000000015,A,pi,O,i,236,1,7697.10000000149,393402.5,7017,WL,B,15.0
3,55.615999937057495,learn,4384.000062942505,Thu Aug 22 2024 10:47:31 GMT-0500 (Central Daylight Time),401166.3999999985,A,pip,O,p,58,1,7763.89999999851,393402.5,7017,WL,B,15.0
3,58.19799995422363,learn,1802.0000457763672,Thu Aug 22 2024 10:47:31 GMT-0500 (Central Daylight Time),403748.8999999985,A,pipe,O,e,2575,1,10346.39999999851,393402.5,7017,WL,B,15.0
3,58.98099994659424,learn,1019.0000534057617,Thu Aug 22 2024 10:47:31 GMT-0500 (Central Daylight Time),404532.1000000015,A,pipeenter,O,enter,777,1,11129.60000000149,393402.5,7017,WL,B,15.0
4,2.5329999923706055,learn,57467.000007629395,Thu Aug 22 2024 10:47:31 GMT-0500 (Central Daylight Time),473093.700000003,A,g,O,g,2517,1,2532.3000000044703,470561.3999999985,7017,WL,B,1.0
4,2.7659997940063477,learn,57234.00020599365,Thu Aug 22 2024 10:47:31 GMT-0500 (Central Daylight Time),473327.0,A,gr,O,r,215,1,2765.60000000149,470561.3999999985,7017,WL,B,1.0
4,3.115999937057495,learn,56884.000062942505,Thu Aug 22 2024 10:47:31 GMT-0500 (Central Daylight Time),473677.0,A,gra,O,a,343,1,3115.60000000149,470561.3999999985,7017,WL,B,1.0
4,3.4149999618530273,learn,56585.00003814697,Thu Aug 22 2024 10:47:31 GMT-0500 (Central Daylight Time),473976.6000000015,A,gras,O,s,289,1,3415.2000000029802,470561.3999999985,7017,WL,B,1.0
4,3.615999937057495,learn,56384.000062942505,Thu Aug 22 2024 10:47:31 GMT-0500 (Central Daylight Time),474176.6000000015,A,grass,O,s,181,1,3615.2000000029802,470561.3999999985,7017,WL,B,1.0
4,3.931999921798706,learn,56068.000078201294,Thu Aug 22 2024 10:47:31 GMT-0500 (Central Daylight Time),474493.3999999985,A,grassenter,O,enter,300,1,3932.0,470561.3999999985,7017,WL,B,1.0
4,4.248999834060669,learn,55751.00016593933,Thu Aug 22 2024 10:47:31 GMT-0500 (Central Daylight Time),474810.0,A,s,O,s,297,1,316.3999999985099,474493.6000000015,7017,WL,B,2.0
4,4.48199987411499,learn,55518.00012588501,Thu Aug 22 2024 10:47:31 GMT-0500 (Central Daylight Time),475043.1000000015,A,st,O,t,220,1,549.5,474493.6000000015,7017,WL,B,2.0
4,4.631999969482422,learn,55368.00003051758,Thu Aug 22 2024 10:47:31 GMT-0500 (Central Daylight Time),475193.1000000015,A,str,O,r,139,1,699.5,474493.6000000015,7017,WL,B,2.0
4,4.781999826431274,learn,55218.000173568726,Thu Aug 22 2024 10:47:31 GMT-0500 (Central Daylight Time),475343.0,A,stre,O,e,140,1,849.3999999985099,474493.6000000015,7017,WL,B,2.0
4,4.998999834060669,learn,55001.00016593933,Thu Aug 22 2024 10:47:31 GMT-0500 (Central Daylight Time),475559.80000000447,A,stree,O,e,199,1,1066.2000000029802,474493.6000000015,7017,WL,B,2.0
4,5.148000001907349,learn,54851.99999809265,Thu Aug 22 2024 10:47:31 GMT-0500 (Central Daylight Time),475709.6000000015,A,street,O,t,134,1,1216.0,474493.6000000015,7017,WL,B,2.0
4,5.4629998207092285,learn,54537.00017929077,Thu Aug 22 2024 10:47:31 GMT-0500 (Central Daylight Time),476024.5,A,streetenter,O,enter,168,1,1530.8999999985099,474493.6000000015,7017,WL,B,2.0
4,7.013999938964844,learn,52986.000061035156,Thu Aug 22 2024 10:47:31 GMT-0500 (Central Daylight Time),477575.700000003,A,a,O,a,1541,1,1550.7000000029802,476025.0,7017,WL,B,3.0
4,7.263999938964844,learn,52736.000061035156,Thu Aug 22 2024 10:47:31 GMT-0500 (Central Daylight Time),477825.6000000015,A,ar,O,r,230,1,1800.6000000014901,476025.0,7017,WL,B,3.0
4,8.163999795913696,learn,51836.000204086304,Thu Aug 22 2024 10:47:31 GMT-0500 (Central Daylight Time),478725.3999999985,A,arn,O,n,884,1,2700.39999999851,476025.0,7017,WL,B,3.0
4,8.746999979019165,learn,51253.000020980835,Thu Aug 22 2024 10:47:31 GMT-0500 (Central Daylight Time),479308.3999999985,A,ar,O,backspace,568,1,3283.39999999851,476025.0,7017,WL,B,3.0
4,9.129999876022339,learn,50870.00012397766,Thu Aug 22 2024 10:47:31 GMT-0500 (Central Daylight Time),479691.700000003,A,arm,O,m,369,1,3666.7000000029802,476025.0,7017,WL,B,3.0
4,9.763000011444092,learn,50236.99998855591,Thu Aug 22 2024 10:47:31 GMT-0500 (Central Daylight Time),480324.700000003,A,armenter,O,enter,626,1,4299.70000000298,476025.0,7017,WL,B,3.0
4,10.479999780654907,learn,49520.00021934509,Thu Aug 22 2024 10:47:31 GMT-0500 (Central Daylight Time),481041.200000003,A,d,O,d,705,1,716.2000000029802,480325.0,7017,WL,B,4.0
4,10.995999813079834,learn,49004.000186920166,Thu Aug 22 2024 10:47:31 GMT-0500 (Central Daylight Time),481557.6000000015,A,do,O,o,509,1,1232.6000000014901,480325.0,7017,WL,B,4.0
4,11.162999868392944,learn,48837.000131607056,Thu Aug 22 2024 10:47:31 GMT-0500 (Central Daylight Time),481724.5,A,doo,O,o,160,1,1399.5,480325.0,7017,WL,B,4.0
4,11.578999996185303,learn,48421.0000038147,Thu Aug 22 2024 10:47:31 GMT-0500 (Central Daylight Time),482140.8999999985,A,door,O,r,409,1,1815.8999999985099,480325.0,7017,WL,B,4.0
4,12.046000003814697,learn,47953.9999961853,Thu Aug 22 2024 10:47:31 GMT-0500 (Central Daylight Time),482607.5,A,doorenter,O,enter,457,1,2282.5,480325.0,7017,WL,B,4.0
4,12.861999988555908,learn,47138.00001144409,Thu Aug 22 2024 10:47:31 GMT-0500 (Central Daylight Time),483423.700000003,A,w,O,w,798,1,815.8999999985099,482607.80000000447,7017,WL,B,5.0
4,13.129999876022339,learn,46870.00012397766,Thu Aug 22 2024 10:47:31 GMT-0500 (Central Daylight Time),483691.5,A,wi,O,i,246,1,1083.6999999955297,482607.80000000447,7017,WL,B,5.0
4,13.378999948501587,learn,46621.00005149841,Thu Aug 22 2024 10:47:31 GMT-0500 (Central Daylight Time),483940.3999999985,A,wif,O,f,234,1,1332.5999999940395,482607.80000000447,7017,WL,B,5.0
4,13.546000003814697,learn,46453.9999961853,Thu Aug 22 2024 10:47:31 GMT-0500 (Central Daylight Time),484107.0,A,wife,O,e,145,1,1499.1999999955297,482607.80000000447,7017,WL,B,5.0
4,13.744999885559082,learn,46255.00011444092,Thu Aug 22 2024 10:47:31 GMT-0500 (Central Daylight Time),484306.80000000447,A,wifeenter,O,enter,179,1,1699.0,482607.80000000447,7017,WL,B,5.0
4,14.51199984550476,learn,45488.00015449524,Thu Aug 22 2024 10:47:31 GMT-0500 (Central Daylight Time),485073.30000000447,A,w,O,w,747,1,766.2000000029802,484307.1000000015,7017,WL,B,6.0
4,14.744999885559082,learn,45255.00011444092,Thu Aug 22 2024 10:47:31 GMT-0500 (Central Daylight Time),485306.6000000015,A,wi,O,i,228,1,999.5,484307.1000000015,7017,WL,B,6.0
4,15.027999877929688,learn,44972.00012207031,Thu Aug 22 2024 10:47:31 GMT-0500 (Central Daylight Time),485589.80000000447,A,win,O,n,275,1,1282.7000000029802,484307.1000000015,7017,WL,B,6.0
4,15.34499979019165,learn,44655.00020980835,Thu Aug 22 2024 10:47:31 GMT-0500 (Central Daylight Time),485906.30000000447,A,wind,O,d,296,1,1599.2000000029802,484307.1000000015,7017,WL,B,6.0
4,15.544999837875366,learn,44455.000162124634,Thu Aug 22 2024 10:47:31 GMT-0500 (Central Daylight Time),486106.3999999985,A,windo,O,o,195,1,1799.2999999970198,484307.1000000015,7017,WL,B,6.0
4,15.760999917984009,learn,44239.00008201599,Thu Aug 22 2024 10:47:31 GMT-0500 (Central Daylight Time),486322.80000000447,A,window,O,w,196,1,2015.7000000029802,484307.1000000015,7017,WL,B,6.0
4,15.877999782562256,learn,44122.000217437744,Thu Aug 22 2024 10:47:31 GMT-0500 (Central Daylight Time),486439.3999999985,A,windowenter,O,enter,107,1,2132.2999999970198,484307.1000000015,7017,WL,B,6.0
4,19.82699990272522,learn,40173.00009727478,Thu Aug 22 2024 10:47:31 GMT-0500 (Central Daylight Time),490388.30000000447,A,s,O,s,3942,1,3948.5,486439.80000000447,7017,WL,B,7.0
4,20.109999895095825,learn,39890.000104904175,Thu Aug 22 2024 10:47:31 GMT-0500 (Central Daylight Time),490671.5,A,st,O,t,273,1,4231.69999999553,486439.80000000447,7017,WL,B,7.0
4,20.32699990272522,learn,39673.00009727478,Thu Aug 22 2024 10:47:31 GMT-0500 (Central Daylight Time),490888.1000000015,A,sta,O,a,198,1,4448.29999999702,486439.80000000447,7017,WL,B,7.0
4,20.41100001335144,learn,39588.99998664856,Thu Aug 22 2024 10:47:31 GMT-0500 (Central Daylight Time),490972.6000000015,A,star,O,r,77,1,4532.79999999702,486439.80000000447,7017,WL,B,7.0
4,21.242999792099,learn,38757.000207901,Thu Aug 22 2024 10:47:31 GMT-0500 (Central Daylight Time),491804.3999999985,A,starenter,O,enter,817,1,5364.5999999940395,486439.80000000447,7017,WL,B,7.0
4,21.942999839782715,learn,38057.000160217285,Thu Aug 22 2024 10:47:31 GMT-0500 (Central Daylight Time),492504.30000000447,A,c,O,c,689,1,699.5,491804.80000000447,7017,WL,B,8.0
4,22.14299988746643,learn,37857.00011253357,Thu Aug 22 2024 10:47:31 GMT-0500 (Central Daylight Time),492704.30000000447,A,ci,O,i,190,1,899.5,491804.80000000447,7017,WL,B,8.0
4,22.358999967575073,learn,37641.00003242493,Thu Aug 22 2024 10:47:31 GMT-0500 (Central Daylight Time),492920.700000003,A,cit,O,t,205,1,1115.8999999985099,491804.80000000447,7017,WL,B,8.0
4,22.525999784469604,learn,37474.000215530396,Thu Aug 22 2024 10:47:31 GMT-0500 (Central Daylight Time),493087.30000000447,A,city,O,y,157,1,1282.5,491804.80000000447,7017,WL,B,8.0
4,22.80900001525879,learn,37190.99998474121,Thu Aug 22 2024 10:47:31 GMT-0500 (Central Daylight Time),493370.8999999985,A,cityenter,O,enter,263,1,1566.0999999940395,491804.80000000447,7017,WL,B,8.0
4,23.108999967575073,learn,36891.00003242493,Thu Aug 22 2024 10:47:31 GMT-0500 (Central Daylight Time),493670.5,A,l,O,l,283,1,299.3999999985099,493371.1000000015,7017,WL,B,9.0
4,23.22699999809265,learn,36773.00000190735,Thu Aug 22 2024 10:47:31 GMT-0500 (Central Daylight Time),493788.200000003,A,la,O,a,111,1,417.1000000014901,493371.1000000015,7017,WL,B,9.0
4,23.64199995994568,learn,36358.00004005432,Thu Aug 22 2024 10:47:31 GMT-0500 (Central Daylight Time),494203.700000003,A,lak,O,k,409,1,832.6000000014901,493371.1000000015,7017,WL,B,9.0
4,23.80900001525879,learn,36190.99998474121,Thu Aug 22 2024 10:47:31 GMT-0500 (Central Daylight Time),494370.6000000015,A,lake,O,e,146,1,999.5,493371.1000000015,7017,WL,B,9.0
4,23.89199995994568,learn,36108.00004005432,Thu Aug 22 2024 10:47:31 GMT-0500 (Central Daylight Time),494453.5,A,lakeenter,O,enter,75,1,1082.3999999985099,493371.1000000015,7017,WL,B,9.0
4,24.275999784469604,learn,35724.000215530396,Thu Aug 22 2024 10:47:31 GMT-0500 (Central Daylight Time),494837.0,A,c,O,c,368,1,383.1000000014901,494453.8999999985,7017,WL,B,10.0
4,24.625,learn,35375.0,Thu Aug 22 2024 10:47:31 GMT-0500 (Central Daylight Time),495186.700000003,A,ca,O,a,345,1,732.8000000044703,494453.8999999985,7017,WL,B,10.0
4,24.875,learn,35125.0,Thu Aug 22 2024 10:47:31 GMT-0500 (Central Daylight Time),495436.700000003,A,cab,O,b,244,1,982.8000000044703,494453.8999999985,7017,WL,B,10.0
4,25.092000007629395,learn,34907.999992370605,Thu Aug 22 2024 10:47:31 GMT-0500 (Central Daylight Time),495653.5,A,cabi,O,i,201,1,1199.6000000014901,494453.8999999985,7017,WL,B,10.0
4,25.241999864578247,learn,34758.00013542175,Thu Aug 22 2024 10:47:31 GMT-0500 (Central Daylight Time),495803.5,A,cabin,O,n,136,1,1349.6000000014901,494453.8999999985,7017,WL,B,10.0
4,25.424999952316284,learn,34575.000047683716,Thu Aug 22 2024 10:47:31 GMT-0500 (Central Daylight Time),495986.3999999985,A,cabinenter,O,enter,170,1,1532.5,494453.8999999985,7017,WL,B,10.0
4,26.640999794006348,learn,33359.00020599365,Thu Aug 22 2024 10:47:31 GMT-0500 (Central Daylight Time),497202.5,A,f,O,f,1203,1,1215.7999999970198,495986.700000003,7017,WL,B,11.0
4,26.79099988937378,learn,33209.00011062622,Thu Aug 22 2024 10:47:31 GMT-0500 (Central Daylight Time),497352.80000000447,A,fi,O,i,131,1,1366.1000000014901,495986.700000003,7017,WL,B,11.0
4,26.907999992370605,learn,33092.000007629395,Thu Aug 22 2024 10:47:31 GMT-0500 (Central Daylight Time),497469.30000000447,A,fir,O,r,109,1,1482.6000000014901,495986.700000003,7017,WL,B,11.0
4,27.04099988937378,learn,32959.00011062622,Thu Aug 22 2024 10:47:31 GMT-0500 (Central Daylight Time),497602.700000003,A,fire,O,e,113,1,1616.0,495986.700000003,7017,WL,B,11.0
4,27.274999856948853,learn,32725.000143051147,Thu Aug 22 2024 10:47:31 GMT-0500 (Central Daylight Time),497836.1000000015,A,fireenter,O,enter,219,1,1849.3999999985099,495986.700000003,7017,WL,B,11.0
4,27.740999937057495,learn,32259.000062942505,Thu Aug 22 2024 10:47:31 GMT-0500 (Central Daylight Time),498302.700000003,A,c,O,c,450,1,466.3999999985099,497836.30000000447,7017,WL,B,12.0
4,27.857999801635742,learn,32142.000198364258,Thu Aug 22 2024 10:47:31 GMT-0500 (Central Daylight Time),498418.8999999985,A,cl,O,l,111,1,582.5999999940395,497836.30000000447,7017,WL,B,12.0
4,28.073999881744385,learn,31926.000118255615,Thu Aug 22 2024 10:47:31 GMT-0500 (Central Daylight Time),498635.700000003,A,clo,O,o,203,1,799.3999999985099,497836.30000000447,7017,WL,B,12.0
4,28.223999977111816,learn,31776.000022888184,Thu Aug 22 2024 10:47:31 GMT-0500 (Central Daylight Time),498785.6000000015,A,cloc,O,c,130,1,949.2999999970198,497836.30000000447,7017,WL,B,12.0
4,28.340999841690063,learn,31659.000158309937,Thu Aug 22 2024 10:47:31 GMT-0500 (Central Daylight Time),498902.30000000447,A,clock,O,k,108,1,1066.0,497836.30000000447,7017,WL,B,12.0
4,28.490999937057495,learn,31509.000062942505,Thu Aug 22 2024 10:47:31 GMT-0500 (Central Daylight Time),499052.30000000447,A,clocke,O,e,143,1,1216.0,497836.30000000447,7017,WL,B,12.0
4,28.640999794006348,learn,31359.000205993652,Thu Aug 22 2024 10:47:31 GMT-0500 (Central Daylight Time),499202.5,A,clockeenter,O,enter,137,1,1366.1999999955297,497836.30000000447,7017,WL,B,12.0
4,40.95299983024597,learn,19047.00016975403,Thu Aug 22 2024 10:47:31 GMT-0500 (Central Daylight Time),511514.80000000447,A,p,O,p,12306,1,12311.90000000596,499202.8999999985,7017,WL,B,13.0
4,41.0699999332428,learn,18930.000066757202,Thu Aug 22 2024 10:47:31 GMT-0500 (Central Daylight Time),511631.6000000015,A,pi,O,i,99,1,12428.70000000298,499202.8999999985,7017,WL,B,13.0
4,41.23699998855591,learn,18763.00001144409,Thu Aug 22 2024 10:47:31 GMT-0500 (Central Daylight Time),511798.30000000447,A,pip,O,p,150,1,12595.40000000596,499202.8999999985,7017,WL,B,13.0
4,41.436999797821045,learn,18563.000202178955,Thu Aug 22 2024 10:47:31 GMT-0500 (Central Daylight Time),511998.700000003,A,pipe,O,e,183,1,12795.80000000447,499202.8999999985,7017,WL,B,13.0
4,41.55299997329712,learn,18447.00002670288,Thu Aug 22 2024 10:47:31 GMT-0500 (Central Daylight Time),512114.700000003,A,pipeenter,O,enter,110,1,12911.80000000447,499202.8999999985,7017,WL,B,13.0
4,52.609999895095825,learn,7390.000104904175,Thu Aug 22 2024 10:47:31 GMT-0500 (Central Daylight Time),523171.80000000447,A,enter,O,enter,11037,1,11057.0,512114.80000000447,7017,WL,B,14.0
4,53.66599988937378,learn,6334.000110626221,Thu Aug 22 2024 10:47:31 GMT-0500 (Central Daylight Time),524227.5,A,enter,O,enter,1049,1,1055.2999999970198,523172.200000003,7017,WL,B,15.0
5,1.3659999370574951,learn,60000.0,Thu Aug 22 2024 10:47:31 GMT-0500 (Central Daylight Time),592956.0,A,s,O,s,1353,1,1366.1999999955297,591589.8000000045,7017,WL,B,1.0
5,1.633000135421753,learn,60000.0,Thu Aug 22 2024 10:47:31 GMT-0500 (Central Daylight Time),593222.8000000045,A,st,O,t,249,1,1633.0,591589.8000000045,7017,WL,B,1.0
5,1.8329999446868896,learn,60000.0,Thu Aug 22 2024 10:47:31 GMT-0500 (Central Daylight Time),593422.700000003,A,str,O,r,191,1,1832.8999999985099,591589.8000000045,7017,WL,B,1.0
5,2.013000011444092,learn,60000.0,Thu Aug 22 2024 10:47:31 GMT-0500 (Central Daylight Time),593602.200000003,A,stre,O,e,175,1,2012.3999999985099,591589.8000000045,7017,WL,B,1.0
5,2.2339999675750732,learn,60000.0,Thu Aug 22 2024 10:47:31 GMT-0500 (Central Daylight Time),593823.6000000015,A,stree,O,e,210,1,2233.7999999970198,591589.8000000045,7017,WL,B,1.0
5,2.4160001277923584,learn,60000.0,Thu Aug 22 2024 10:47:31 GMT-0500 (Central Daylight Time),594005.8000000045,A,street,O,t,174,1,2416.0,591589.8000000045,7017,WL,B,1.0
5,2.749000072479248,learn,60000.0,Thu Aug 22 2024 10:47:31 GMT-0500 (Central Daylight Time),594338.8999999985,A,streetenter,O,enter,329,1,2749.0999999940395,591589.8000000045,7017,WL,B,1.0
5,4.049000024795532,learn,60000.0,Thu Aug 22 2024 10:47:31 GMT-0500 (Central Daylight Time),595638.200000003,A,g,O,g,1290,1,1299.1000000014901,594339.1000000015,7017,WL,B,2.0
5,4.265000104904175,learn,60000.0,Thu Aug 22 2024 10:47:31 GMT-0500 (Central Daylight Time),595854.8000000045,A,gr,O,r,199,1,1515.7000000029802,594339.1000000015,7017,WL,B,2.0
5,5.065000057220459,learn,60000.0,Thu Aug 22 2024 10:47:31 GMT-0500 (Central Daylight Time),596655.0,A,gra,O,a,783,1,2315.89999999851,594339.1000000015,7017,WL,B,2.0
5,5.315000057220459,learn,60000.0,Thu Aug 22 2024 10:47:31 GMT-0500 (Central Daylight Time),596904.8000000045,A,gras,O,s,239,1,2565.7000000029802,594339.1000000015,7017,WL,B,2.0
5,5.4649999141693115,learn,60000.0,Thu Aug 22 2024 10:47:31 GMT-0500 (Central Daylight Time),597054.8000000045,A,grass,O,s,133,1,2715.7000000029802,594339.1000000015,7017,WL,B,2.0
5,5.815000057220459,learn,60000.0,Thu Aug 22 2024 10:47:31 GMT-0500 (Central Daylight Time),597404.8000000045,A,grassenter,O,enter,342,1,3065.7000000029802,594339.1000000015,7017,WL,B,2.0
5,6.781000137329102,learn,60000.0,Thu Aug 22 2024 10:47:31 GMT-0500 (Central Daylight Time),598370.8999999985,A,d,O,d,962,1,965.7999999970198,597405.1000000015,7017,WL,B,3.0
5,7.04800009727478,learn,60000.0,Thu Aug 22 2024 10:47:31 GMT-0500 (Central Daylight Time),598637.6000000015,A,do,O,o,251,1,1232.5,597405.1000000015,7017,WL,B,3.0
5,7.2149999141693115,learn,60000.0,Thu Aug 22 2024 10:47:31 GMT-0500 (Central Daylight Time),598804.3000000045,A,doo,O,o,160,1,1399.2000000029802,597405.1000000015,7017,WL,B,3.0
5,7.365000009536743,learn,60000.0,Thu Aug 22 2024 10:47:31 GMT-0500 (Central Daylight Time),598954.200000003,A,door,O,r,137,1,1549.1000000014901,597405.1000000015,7017,WL,B,3.0
5,7.531000137329102,learn,60000.0,Thu Aug 22 2024 10:47:31 GMT-0500 (Central Daylight Time),599121.0,A,doorenter,O,enter,155,1,1715.8999999985099,597405.1000000015,7017,WL,B,3.0
5,8.38100004196167,learn,60000.0,Thu Aug 22 2024 10:47:31 GMT-0500 (Central Daylight Time),599970.5,A,w,O,w,830,1,849.1999999955297,599121.3000000045,7017,WL,B,4.0
5,8.63100004196167,learn,60000.0,Thu Aug 22 2024 10:47:31 GMT-0500 (Central Daylight Time),600220.5,A,wi,O,i,235,1,1099.1999999955297,599121.3000000045,7017,WL,B,4.0
5,8.897000074386597,learn,60000.0,Thu Aug 22 2024 10:47:31 GMT-0500 (Central Daylight Time),600487.1000000015,A,wif,O,f,249,1,1365.7999999970198,599121.3000000045,7017,WL,B,4.0
5,9.097000122070312,learn,60000.0,Thu Aug 22 2024 10:47:31 GMT-0500 (Central Daylight Time),600686.8999999985,A,wife,O,e,190,1,1565.5999999940395,599121.3000000045,7017,WL,B,4.0
5,9.29699993133545,learn,60000.0,Thu Aug 22 2024 10:47:31 GMT-0500 (Central Daylight Time),600887.0,A,wifeenter,O,enter,191,1,1765.6999999955297,599121.3000000045,7017,WL,B,4.0
5,10.380000114440918,learn,60000.0,Thu Aug 22 2024 10:47:31 GMT-0500 (Central Daylight Time),601970.1000000015,A,a,O,a,1062,1,1082.7999999970198,600887.3000000045,7017,WL,B,5.0
5,10.647000074386597,learn,60000.0,Thu Aug 22 2024 10:47:31 GMT-0500 (Central Daylight Time),602236.5,A,ar,O,r,251,1,1349.1999999955297,600887.3000000045,7017,WL,B,5.0
5,11.730000019073486,learn,60000.0,Thu Aug 22 2024 10:47:31 GMT-0500 (Central Daylight Time),603319.5,A,arm,O,m,1065,1,2432.1999999955297,600887.3000000045,7017,WL,B,5.0
5,11.963000059127808,learn,60000.0,Thu Aug 22 2024 10:47:31 GMT-0500 (Central Daylight Time),603552.700000003,A,armenter,O,enter,214,1,2665.39999999851,600887.3000000045,7017,WL,B,5.0
5,12.230000019073486,learn,60000.0,Thu Aug 22 2024 10:47:31 GMT-0500 (Central Daylight Time),603819.200000003,A,s,O,s,262,1,266.20000000298023,603553.0,7017,WL,B,6.0
5,12.479000091552734,learn,60000.0,Thu Aug 22 2024 10:47:31 GMT-0500 (Central Daylight Time),604069.0,A,st,O,t,243,1,516.0,603553.0,7017,WL,B,6.0
5,12.645999908447266,learn,60000.0,Thu Aug 22 2024 10:47:31 GMT-0500 (Central Daylight Time),604235.700000003,A,sta,O,a,153,1,682.7000000029802,603553.0,7017,WL,B,6.0
5,12.913000106811523,learn,60000.0,Thu Aug 22 2024 10:47:31 GMT-0500 (Central Daylight Time),604502.3000000045,A,star,O,r,258,1,949.3000000044703,603553.0,7017,WL,B,6.0
5,13.463000059127808,learn,60000.0,Thu Aug 22 2024 10:47:31 GMT-0500 (Central Daylight Time),605052.3999999985,A,starenter,O,enter,535,1,1499.3999999985099,603553.0,7017,WL,B,6.0
5,14.128999948501587,learn,60000.0,Thu Aug 22 2024 10:47:31 GMT-0500 (Central Daylight Time),605718.700000003,A,s,O,s,658,1,666.1000000014901,605052.6000000015,7017,WL,B,7.0
5,14.361999988555908,learn,60000.0,Thu Aug 22 2024 10:47:31 GMT-0500 (Central Daylight Time),605952.0,A,sk,O,k,223,1,899.3999999985099,605052.6000000015,7017,WL,B,7.0
5,14.611999988555908,learn,60000.0,Thu Aug 22 2024 10:47:31 GMT-0500 (Central Daylight Time),606201.8000000045,A,ski,O,i,238,1,1149.2000000029802,605052.6000000015,7017,WL,B,7.0
5,14.763000011444092,learn,60000.0,Thu Aug 22 2024 10:47:31 GMT-0500 (Central Daylight Time),606352.8999999985,A,skin,O,n,140,1,1300.2999999970198,605052.6000000015,7017,WL,B,7.0
5,14.979000091552734,learn,60000.0,Thu Aug 22 2024 10:47:31 GMT-0500 (Central Daylight Time),606568.3000000045,A,skinenter,O,enter,205,1,1515.7000000029802,605052.6000000015,7017,WL,B,7.0
5,16.411999940872192,learn,60000.0,Thu Aug 22 2024 10:47:31 GMT-0500 (Central Daylight Time),608001.3999999985,A,p,O,p,1421,1,1432.7999999970198,606568.6000000015,7017,WL,B,8.0
5,16.67799997329712,learn,60000.0,Thu Aug 22 2024 10:47:31 GMT-0500 (Central Daylight Time),608267.8000000045,A,pu,O,u,252,1,1699.2000000029802,606568.6000000015,7017,WL,B,8.0
5,16.894999980926514,learn,60000.0,Thu Aug 22 2024 10:47:31 GMT-0500 (Central Daylight Time),608484.5,A,pup,O,p,210,1,1915.8999999985099,606568.6000000015,7017,WL,B,8.0
5,17.161999940872192,learn,60000.0,Thu Aug 22 2024 10:47:31 GMT-0500 (Central Daylight Time),608751.3000000045,A,pupi,O,i,257,1,2182.7000000029802,606568.6000000015,7017,WL,B,8.0
5,17.378000020980835,learn,60000.0,Thu Aug 22 2024 10:47:31 GMT-0500 (Central Daylight Time),608967.700000003,A,pupil,O,l,198,1,2399.10000000149,606568.6000000015,7017,WL,B,8.0
5,17.57800006866455,learn,60000.0,Thu Aug 22 2024 10:47:31 GMT-0500 (Central Daylight Time),609167.6000000015,A,pupilenter,O,enter,182,1,2599.0,606568.6000000015,7017,WL,B,8.0
5,18.460999965667725,learn,60000.0,Thu Aug 22 2024 10:47:31 GMT-0500 (Central Daylight Time),610050.8999999985,A,c,O,c,863,1,882.8999999985099,609168.0,7017,WL,B,9.0
5,18.727999925613403,learn,60000.0,Thu Aug 22 2024 10:47:31 GMT-0500 (Central Daylight Time),610317.3000000045,A,ci,O,i,260,1,1149.3000000044703,609168.0,7017,WL,B,9.0
5,19.26099991798401,learn,60000.0,Thu Aug 22 2024 10:47:31 GMT-0500 (Central Daylight Time),610850.5,A,cit,O,t,512,1,1682.5,609168.0,7017,WL,B,9.0
5,19.528000116348267,learn,60000.0,Thu Aug 22 2024 10:47:31 GMT-0500 (Central Daylight Time),611117.200000003,A,city,O,y,251,1,1949.2000000029802,609168.0,7017,WL,B,9.0
5,19.66100001335144,learn,60000.0,Thu Aug 22 2024 10:47:31 GMT-0500 (Central Daylight Time),611250.3999999985,A,cityenter,O,enter,129,1,2082.39999999851,609168.0,7017,WL,B,9.0
5,19.97699999809265,learn,60000.0,Thu Aug 22 2024 10:47:31 GMT-0500 (Central Daylight Time),611566.8000000045,A,c,O,c,307,1,316.0,611250.8000000045,7017,WL,B,10.0
5,20.177000045776367,learn,60000.0,Thu Aug 22 2024 10:47:31 GMT-0500 (Central Daylight Time),611766.8000000045,A,ca,O,a,183,1,516.0,611250.8000000045,7017,WL,B,10.0
5,20.39400005340576,learn,60000.0,Thu Aug 22 2024 10:47:31 GMT-0500 (Central Daylight Time),611983.5,A,cab,O,b,207,1,732.6999999955297,611250.8000000045,7017,WL,B,10.0
5,20.611000061035156,learn,60000.0,Thu Aug 22 2024 10:47:31 GMT-0500 (Central Daylight Time),612200.1000000015,A,cabi,O,i,198,1,949.2999999970198,611250.8000000045,7017,WL,B,10.0
5,20.710000038146973,learn,60000.0,Thu Aug 22 2024 10:47:31 GMT-0500 (Central Daylight Time),612299.8999999985,A,cabin,O,n,93,1,1049.0999999940395,611250.8000000045,7017,WL,B,10.0
5,20.927000045776367,learn,60000.0,Thu Aug 22 2024 10:47:31 GMT-0500 (Central Daylight Time),612516.6000000015,A,cabinenter,O,enter,209,1,1265.7999999970198,611250.8000000045,7017,WL,B,10.0
5,21.276999950408936,learn,60000.0,Thu Aug 22 2024 10:47:31 GMT-0500 (Central Daylight Time),612866.3999999985,A,l,O,l,345,1,349.3999999985099,612517.0,7017,WL,B,11.0
5,21.427000045776367,learn,60000.0,Thu Aug 22 2024 10:47:31 GMT-0500 (Central Daylight Time),613016.6000000015,A,la,O,a,139,1,499.6000000014901,612517.0,7017,WL,B,11.0
5,21.55999994277954,learn,60000.0,Thu Aug 22 2024 10:47:31 GMT-0500 (Central Daylight Time),613149.700000003,A,lak,O,k,125,1,632.7000000029802,612517.0,7017,WL,B,11.0
5,21.710000038146973,learn,60000.0,Thu Aug 22 2024 10:47:31 GMT-0500 (Central Daylight Time),613299.700000003,A,lake,O,e,136,1,782.7000000029802,612517.0,7017,WL,B,11.0
5,21.877000093460083,learn,60000.0,Thu Aug 22 2024 10:47:31 GMT-0500 (Central Daylight Time),613466.3999999985,A,lakeenter,O,enter,162,1,949.3999999985099,612517.0,7017,WL,B,11.0
5,23.210000038146973,learn,60000.0,Thu Aug 22 2024 10:47:31 GMT-0500 (Central Daylight Time),614799.3000000045,A,f,O,f,1316,1,1332.7000000029802,613466.6000000015,7017,WL,B,12.0
5,23.342999935150146,learn,60000.0,Thu Aug 22 2024 10:47:31 GMT-0500 (Central Daylight Time),614932.8000000045,A,fi,O,i,118,1,1466.2000000029802,613466.6000000015,7017,WL,B,12.0
5,23.4760000705719,learn,60000.0,Thu Aug 22 2024 10:47:31 GMT-0500 (Central Daylight Time),615065.8000000045,A,fir,O,r,121,1,1599.2000000029802,613466.6000000015,7017,WL,B,12.0
5,23.66000008583069,learn,60000.0,Thu Aug 22 2024 10:47:31 GMT-0500 (Central Daylight Time),615249.200000003,A,fire,O,e,164,1,1782.6000000014901,613466.6000000015,7017,WL,B,12.0
5,23.875999927520752,learn,60000.0,Thu Aug 22 2024 10:47:31 GMT-0500 (Central Daylight Time),615465.700000003,A,fireenter,O,enter,197,1,1999.1000000014901,613466.6000000015,7017,WL,B,12.0
5,24.676000118255615,learn,60000.0,Thu Aug 22 2024 10:47:31 GMT-0500 (Central Daylight Time),616265.6000000015,A,p,O,p,788,1,799.6000000014901,615466.0,7017,WL,B,13.0
5,24.858999967575073,learn,60000.0,Thu Aug 22 2024 10:47:31 GMT-0500 (Central Daylight Time),616448.700000003,A,pi,O,i,164,1,982.7000000029802,615466.0,7017,WL,B,13.0
5,25.092999935150146,learn,60000.0,Thu Aug 22 2024 10:47:31 GMT-0500 (Central Daylight Time),616682.200000003,A,pip,O,p,221,1,1216.2000000029802,615466.0,7017,WL,B,13.0
5,25.29200005531311,learn,60000.0,Thu Aug 22 2024 10:47:31 GMT-0500 (Central Daylight Time),616881.8000000045,A,pipe,O,e,188,1,1415.8000000044703,615466.0,7017,WL,B,13.0
5,25.538000106811523,learn,60000.0,Thu Aug 22 2024 10:47:31 GMT-0500 (Central Daylight Time),617128.1000000015,A,pipeenter,O,enter,242,1,1662.1000000014901,615466.0,7017,WL,B,13.0
5,42.05399990081787,learn,60000.0,Thu Aug 22 2024 10:47:31 GMT-0500 (Central Daylight Time),633643.200000003,A,enter,O,enter,16510,1,16514.80000000447,617128.3999999985,7017,WL,B,14.0
5,42.2039999961853,learn,60000.0,Thu Aug 22 2024 10:47:31 GMT-0500 (Central Daylight Time),633793.200000003,A,enter,O,enter,138,1,149.70000000298023,633643.5,7017,WL,B,15.0
6,1.6160001754760742,distr,58383.999824523926,Thu Aug 22 2024 10:47:31 GMT-0500 (Central Daylight Time),706703.8000000045,B,b,O,b,1599,1,1616.2000000029802,705087.6000000015,7017,WL,B,1.0
6,1.7330000400543213,distr,58266.99995994568,Thu Aug 22 2024 10:47:31 GMT-0500 (Central Daylight Time),706820.3000000045,B,ba,O,a,109,1,1732.7000000029802,705087.6000000015,7017,WL,B,1.0
6,1.8990001678466797,distr,58100.99983215332,Thu Aug 22 2024 10:47:31 GMT-0500 (Central Daylight Time),706986.8999999985,B,bab,O,b,153,1,1899.2999999970198,705087.6000000015,7017,WL,B,1.0
6,2.1490001678466797,distr,57850.99983215332,Thu Aug 22 2024 10:47:31 GMT-0500 (Central Daylight Time),707236.8000000045,B,baby,O,y,243,1,2149.2000000029802,705087.6000000015,7017,WL,B,1.0
6,2.932000160217285,distr,57067.999839782715,Thu Aug 22 2024 10:47:31 GMT-0500 (Central Daylight Time),708019.8000000045,B,babyo,O,o,777,1,2932.2000000029802,705087.6000000015,7017,WL,B,1.0
6,3.4650001525878906,distr,56534.99984741211,Thu Aug 22 2024 10:47:31 GMT-0500 (Central Daylight Time),708552.8000000045,B,babyoc,O,c,520,1,3465.2000000029802,705087.6000000015,7017,WL,B,1.0
6,3.7150001525878906,distr,56284.99984741211,Thu Aug 22 2024 10:47:31 GMT-0500 (Central Daylight Time),708802.700000003,B,babyoce,O,e,237,1,3715.10000000149,705087.6000000015,7017,WL,B,1.0
6,3.8980000019073486,distr,56101.99999809265,Thu Aug 22 2024 10:47:31 GMT-0500 (Central Daylight Time),708986.0,B,babyocea,O,a,171,1,3898.39999999851,705087.6000000015,7017,WL,B,1.0
6,4.04800009727478,distr,55951.99990272522,Thu Aug 22 2024 10:47:31 GMT-0500 (Central Daylight Time),709135.8000000045,B,babyocean,O,n,139,1,4048.2000000029802,705087.6000000015,7017,WL,B,1.0
6,4.515000104904175,distr,55484.999895095825,Thu Aug 22 2024 10:47:31 GMT-0500 (Central Daylight Time),709602.8999999985,B,babyoceanp,O,p,446,1,4515.29999999702,705087.6000000015,7017,WL,B,1.0
6,4.648000001907349,distr,55351.99999809265,Thu Aug 22 2024 10:47:31 GMT-0500 (Central Daylight Time),709736.1000000015,B,babyoceanpa,O,a,115,1,4648.5,705087.6000000015,7017,WL,B,1.0
6,4.748000144958496,distr,55251.999855041504,Thu Aug 22 2024 10:47:31 GMT-0500 (Central Daylight Time),709836.1000000015,B,babyoceanpal,O,l,94,1,4748.5,705087.6000000015,7017,WL,B,1.0
6,4.9150002002716064,distr,55084.99979972839,Thu Aug 22 2024 10:47:31 GMT-0500 (Central Daylight Time),710002.700000003,B,babyoceanpala,O,a,162,1,4915.10000000149,705087.6000000015,7017,WL,B,1.0
6,5.29800009727478,distr,54701.99990272522,Thu Aug 22 2024 10:47:31 GMT-0500 (Central Daylight Time),710386.1000000015,B,babyoceanpalac,O,c,363,1,5298.5,705087.6000000015,7017,WL,B,1.0
6,5.465000152587891,distr,54534.99984741211,Thu Aug 22 2024 10:47:31 GMT-0500 (Central Daylight Time),710552.6000000015,B,babyoceanpalace,O,e,156,1,5465.0,705087.6000000015,7017,WL,B,1.0
6,7.914000034332275,distr,52085.999965667725,Thu Aug 22 2024 10:47:31 GMT-0500 (Central Daylight Time),713001.3000000045,B,babyoceanpalac,O,backspace,2437,1,7913.70000000298,705087.6000000015,7017,WL,B,1.0
6,9.047000169754028,distr,50952.99983024597,Thu Aug 22 2024 10:47:31 GMT-0500 (Central Daylight Time),714134.700000003,B,babyoceanpala,O,backspace,1125,1,9047.10000000149,705087.6000000015,7017,WL,B,1.0
6,9.247000217437744,distr,50752.999782562256,Thu Aug 22 2024 10:47:31 GMT-0500 (Central Daylight Time),714334.5,B,babyoceanpal,O,backspace,183,1,9246.89999999851,705087.6000000015,7017,WL,B,1.0
6,9.69700002670288,distr,50302.99997329712,Thu Aug 22 2024 10:47:31 GMT-0500 (Central Daylight Time),714784.3999999985,B,babyoceanpa,O,backspace,432,1,9696.79999999702,705087.6000000015,7017,WL,B,1.0
6,9.864000082015991,distr,50135.99991798401,Thu Aug 22 2024 10:47:31 GMT-0500 (Central Daylight Time),714951.3000000045,B,babyoceanp,O,backspace,149,1,9863.70000000298,705087.6000000015,7017,WL,B,1.0
6,10.03000020980835,distr,49969.99979019165,Thu Aug 22 2024 10:47:31 GMT-0500 (Central Daylight Time),715117.700000003,B,babyocean,O,backspace,151,1,10030.10000000149,705087.6000000015,7017,WL,B,1.0
6,10.19700002670288,distr,49802.99997329712,Thu Aug 22 2024 10:47:31 GMT-0500 (Central Daylight Time),715284.3000000045,B,babyocea,O,backspace,161,1,10196.70000000298,705087.6000000015,7017,WL,B,1.0
6,10.36300015449524,distr,49636.99984550476,Thu Aug 22 2024 10:47:31 GMT-0500 (Central Daylight Time),715450.8000000045,B,babyoce,O,backspace,162,1,10363.20000000298,705087.6000000015,7017,WL,B,1.0
6,10.547000169754028,distr,49452.99983024597,Thu Aug 22 2024 10:47:31 GMT-0500 (Central Daylight Time),715634.5,B,babyoc,O,backspace,163,1,10546.89999999851,705087.6000000015,7017,WL,B,1.0
6,10.746000051498413,distr,49253.99994850159,Thu Aug 22 2024 10:47:31 GMT-0500 (Central Daylight Time),715834.200000003,B,babyo,O,backspace,179,1,10746.60000000149,705087.6000000015,7017,WL,B,1.0
6,10.930000066757202,distr,49069.9999332428,Thu Aug 22 2024 10:47:31 GMT-0500 (Central Daylight Time),716017.6000000015,B,baby,O,backspace,163,1,10930.0,705087.6000000015,7017,WL,B,1.0
6,11.828999996185303,distr,48171.0000038147,Thu Aug 22 2024 10:47:31 GMT-0500 (Central Daylight Time),716917.200000003,B,babyenter,O,enter,884,1,11829.60000000149,705087.6000000015,7017,WL,B,1.0
6,12.729000091552734,distr,47270.999908447266,Thu Aug 22 2024 10:47:31 GMT-0500 (Central Daylight Time),717816.8000000045,B,o,O,o,880,1,899.3000000044703,716917.5,7017,WL,B,2.0
6,12.912000179290771,distr,47087.99982070923,Thu Aug 22 2024 10:47:31 GMT-0500 (Central Daylight Time),717999.8999999985,B,oc,O,c,173,1,1082.3999999985099,716917.5,7017,WL,B,2.0
6,13.146000146865845,distr,46853.999853134155,Thu Aug 22 2024 10:47:31 GMT-0500 (Central Daylight Time),718233.3999999985,B,oce,O,e,222,1,1315.8999999985099,716917.5,7017,WL,B,2.0
6,13.311000108718872,distr,46688.99989128113,Thu Aug 22 2024 10:47:31 GMT-0500 (Central Daylight Time),718400.0,B,ocea,O,a,148,1,1482.5,716917.5,7017,WL,B,2.0
6,13.49400019645691,distr,46505.99980354309,Thu Aug 22 2024 10:47:31 GMT-0500 (Central Daylight Time),718583.5,B,ocean,O,n,166,1,1666.0,716917.5,7017,WL,B,2.0
6,13.778000116348267,distr,46221.99988365173,Thu Aug 22 2024 10:47:31 GMT-0500 (Central Daylight Time),718866.6000000015,B,oceanenter,O,enter,262,1,1949.1000000014901,716917.5,7017,WL,B,2.0
6,14.561000108718872,distr,45438.99989128113,Thu Aug 22 2024 10:47:31 GMT-0500 (Central Daylight Time),719649.700000003,B,p,O,p,763,1,782.7000000029802,718867.0,7017,WL,B,3.0
6,14.677000045776367,distr,45322.99995422363,Thu Aug 22 2024 10:47:31 GMT-0500 (Central Daylight Time),719766.3999999985,B,pa,O,a,100,1,899.3999999985099,718867.0,7017,WL,B,3.0
6,14.794000148773193,distr,45205.99985122681,Thu Aug 22 2024 10:47:31 GMT-0500 (Central Daylight Time),719882.6000000015,B,pal,O,l,111,1,1015.6000000014901,718867.0,7017,WL,B,3.0
6,14.927000045776367,distr,45072.99995422363,Thu Aug 22 2024 10:47:31 GMT-0500 (Central Daylight Time),720016.1000000015,B,pala,O,a,123,1,1149.1000000014901,718867.0,7017,WL,B,3.0
6,15.24400019645691,distr,44755.99980354309,Thu Aug 22 2024 10:47:31 GMT-0500 (Central Daylight Time),720332.8999999985,B,palac,O,c,302,1,1465.8999999985099,718867.0,7017,WL,B,3.0
6,15.394000053405762,distr,44605.99994659424,Thu Aug 22 2024 10:47:31 GMT-0500 (Central Daylight Time),720482.6000000015,B,palace,O,e,137,1,1615.6000000014901,718867.0,7017,WL,B,3.0
6,15.510000228881836,distr,44489.999771118164,Thu Aug 22 2024 10:47:31 GMT-0500 (Central Daylight Time),720599.3999999985,B,palaceenter,O,enter,107,1,1732.3999999985099,718867.0,7017,WL,B,3.0
6,22.592000007629395,distr,37407.999992370605,Thu Aug 22 2024 10:47:31 GMT-0500 (Central Daylight Time),727680.6000000015,B,a,O,a,7063,1,7080.89999999851,720599.700000003,7017,WL,B,4.0
6,22.85800004005432,distr,37141.99995994568,Thu Aug 22 2024 10:47:31 GMT-0500 (Central Daylight Time),727947.1000000015,B,ar,O,r,262,1,7347.39999999851,720599.700000003,7017,WL,B,4.0
6,23.70800018310547,distr,36291.99981689453,Thu Aug 22 2024 10:47:31 GMT-0500 (Central Daylight Time),728797.0,B,arn,O,n,834,1,8197.29999999702,720599.700000003,7017,WL,B,4.0
6,23.85800004005432,distr,36141.99995994568,Thu Aug 22 2024 10:47:31 GMT-0500 (Central Daylight Time),728946.700000003,B,arny,O,y,145,1,8347.0,720599.700000003,7017,WL,B,4.0
6,24.091000080108643,distr,35908.99991989136,Thu Aug 22 2024 10:47:31 GMT-0500 (Central Daylight Time),729180.1000000015,B,arnyenter,O,enter,219,1,8580.39999999851,720599.700000003,7017,WL,B,4.0
6,24.624000072479248,distr,35375.99992752075,Thu Aug 22 2024 10:47:31 GMT-0500 (Central Daylight Time),729713.1000000015,B,c,O,c,522,1,532.6000000014901,729180.5,7017,WL,B,5.0
6,24.874000072479248,distr,35125.99992752075,Thu Aug 22 2024 10:47:31 GMT-0500 (Central Daylight Time),729963.1000000015,B,ce,O,e,229,1,782.6000000014901,729180.5,7017,WL,B,5.0
6,25.074000120162964,distr,34925.999879837036,Thu Aug 22 2024 10:47:31 GMT-0500 (Central Daylight Time),730163.0,B,cel,O,l,196,1,982.5,729180.5,7017,WL,B,5.0
6,25.257000207901,distr,34742.999792099,Thu Aug 22 2024 10:47:31 GMT-0500 (Central Daylight Time),730346.3000000045,B,cell,O,l,163,1,1165.8000000044703,729180.5,7017,WL,B,5.0
6,25.44100022315979,distr,34558.99977684021,Thu Aug 22 2024 10:47:31 GMT-0500 (Central Daylight Time),730529.6000000015,B,cellenter,O,enter,163,1,1349.1000000014901,729180.5,7017,WL,B,5.0
6,30.08900022506714,distr,29910.99977493286,Thu Aug 22 2024 10:47:31 GMT-0500 (Central Daylight Time),735178.0,B,b,O,b,4636,1,4648.0,730530.0,7017,WL,B,6.0
6,30.289000034332275,distr,29710.999965667725,Thu Aug 22 2024 10:47:31 GMT-0500 (Central Daylight Time),735378.1000000015,B,bu,O,u,188,1,4848.10000000149,730530.0,7017,WL,B,6.0
6,30.456000089645386,distr,29543.999910354614,Thu Aug 22 2024 10:47:31 GMT-0500 (Central Daylight Time),735544.8000000045,B,bui,O,i,157,1,5014.80000000447,730530.0,7017,WL,B,6.0
6,30.65500020980835,distr,29344.99979019165,Thu Aug 22 2024 10:47:31 GMT-0500 (Central Daylight Time),735744.5,B,buil,O,l,181,1,5214.5,730530.0,7017,WL,B,6.0
6,30.82200002670288,distr,29177.99997329712,Thu Aug 22 2024 10:47:31 GMT-0500 (Central Daylight Time),735911.3999999985,B,build,O,d,157,1,5381.39999999851,730530.0,7017,WL,B,6.0
6,30.92200016975403,distr,29077.99983024597,Thu Aug 22 2024 10:47:31 GMT-0500 (Central Daylight Time),736011.200000003,B,buildi,O,i,86,1,5481.20000000298,730530.0,7017,WL,B,6.0
6,31.039000034332275,distr,28960.999965667725,Thu Aug 22 2024 10:47:31 GMT-0500 (Central Daylight Time),736127.700000003,B,buildin,O,n,99,1,5597.70000000298,730530.0,7017,WL,B,6.0
6,31.122000217437744,distr,28877.999782562256,Thu Aug 22 2024 10:47:31 GMT-0500 (Central Daylight Time),736210.8999999985,B,building,O,g,78,1,5680.89999999851,730530.0,7017,WL,B,6.0
6,31.272000074386597,distr,28727.999925613403,Thu Aug 22 2024 10:47:31 GMT-0500 (Central Daylight Time),736361.1000000015,B,buildingenter,O,enter,131,1,5831.10000000149,730530.0,7017,WL,B,6.0
6,33.12100005149841,distr,26878.999948501587,Thu Aug 22 2024 10:47:31 GMT-0500 (Central Daylight Time),738210.5,B,enter,O,enter,1837,1,1849.1000000014901,736361.3999999985,7017,WL,B,7.0
6,33.3050000667572,distr,26694.999933242798,Thu Aug 22 2024 10:47:31 GMT-0500 (Central Daylight Time),738393.700000003,B,enter,O,enter,163,1,182.89999999850988,738210.8000000045,7017,WL,B,8.0
6,33.47100019454956,distr,26528.99980545044,Thu Aug 22 2024 10:47:31 GMT-0500 (Central Daylight Time),738560.3000000045,B,enter,O,enter,149,1,166.30000000447035,738394.0,7017,WL,B,9.0
6,33.605000019073486,distr,26394.999980926514,Thu Aug 22 2024 10:47:31 GMT-0500 (Central Daylight Time),738693.6000000015,B,enter,O,enter,125,1,132.89999999850988,738560.700000003,7017,WL,B,10.0
6,33.9210000038147,distr,26078.999996185303,Thu Aug 22 2024 10:47:31 GMT-0500 (Central Daylight Time),739010.5,B,enter,O,enter,296,1,316.5,738694.0,7017,WL,B,11.0
6,34.13800001144409,distr,25861.99998855591,Thu Aug 22 2024 10:47:31 GMT-0500 (Central Daylight Time),739226.8000000045,B,enter,O,enter,211,1,215.90000000596046,739010.8999999985,7017,WL,B,12.0
6,34.48800015449524,distr,25511.99984550476,Thu Aug 22 2024 10:47:31 GMT-0500 (Central Daylight Time),739576.700000003,B,enter,O,enter,339,1,349.6000000014901,739227.1000000015,7017,WL,B,13.0
6,34.7039999961853,distr,25296.000003814697,Thu Aug 22 2024 10:47:31 GMT-0500 (Central Daylight Time),739793.3999999985,B,enter,O,enter,197,1,216.39999999850988,739577.0,7017,WL,B,14.0
6,34.938000202178955,distr,25061.999797821045,Thu Aug 22 2024 10:47:31 GMT-0500 (Central Daylight Time),740026.6000000015,B,enter,O,enter,213,1,232.89999999850988,739793.700000003,7017,WL,B,15.0
7,1.1329998970031738,immed,58867.000102996826,Thu Aug 22 2024 10:47:31 GMT-0500 (Central Daylight Time),754821.8999999985,A,g,O,g,1127,1,1132.8999999985099,753689.0,7017,WL,B,1.0
7,1.3329999446868896,immed,58667.00005531311,Thu Aug 22 2024 10:47:31 GMT-0500 (Central Daylight Time),755021.8000000045,A,gr,O,r,185,1,1332.8000000044703,753689.0,7017,WL,B,1.0
7,1.5499999523162842,immed,58450.000047683716,Thu Aug 22 2024 10:47:31 GMT-0500 (Central Daylight Time),755238.6000000015,A,gre,O,e,209,1,1549.6000000014901,753689.0,7017,WL,B,1.0
7,2.0160000324249268,immed,57983.99996757507,Thu Aug 22 2024 10:47:31 GMT-0500 (Central Daylight Time),755705.0,A,gr,O,backspace,447,1,2016.0,753689.0,7017,WL,B,1.0
7,2.181999921798706,immed,57818.000078201294,Thu Aug 22 2024 10:47:31 GMT-0500 (Central Daylight Time),755871.6000000015,A,gra,O,a,149,1,2182.60000000149,753689.0,7017,WL,B,1.0
7,2.365999937057495,immed,57634.000062942505,Thu Aug 22 2024 10:47:31 GMT-0500 (Central Daylight Time),756055.0,A,gras,O,s,166,1,2366.0,753689.0,7017,WL,B,1.0
7,2.5160000324249268,immed,57483.99996757507,Thu Aug 22 2024 10:47:31 GMT-0500 (Central Daylight Time),756204.8000000045,A,grass,O,s,135,1,2515.8000000044703,753689.0,7017,WL,B,1.0
7,2.999000072479248,immed,57000.99992752075,Thu Aug 22 2024 10:47:31 GMT-0500 (Central Daylight Time),756687.8999999985,A,grassenter,O,enter,473,1,2998.89999999851,753689.0,7017,WL,B,1.0
7,4.065000057220459,immed,55934.99994277954,Thu Aug 22 2024 10:47:31 GMT-0500 (Central Daylight Time),757754.3999999985,A,s,O,s,1053,1,1066.0999999940395,756688.3000000045,7017,WL,B,2.0
7,4.2820000648498535,immed,55717.99993515015,Thu Aug 22 2024 10:47:31 GMT-0500 (Central Daylight Time),757970.8000000045,A,st,O,t,211,1,1282.5,756688.3000000045,7017,WL,B,2.0
7,4.431999921798706,immed,55568.000078201294,Thu Aug 22 2024 10:47:31 GMT-0500 (Central Daylight Time),758121.1000000015,A,str,O,r,139,1,1432.7999999970198,756688.3000000045,7017,WL,B,2.0
7,4.792999982833862,immed,55207.00001716614,Thu Aug 22 2024 10:47:31 GMT-0500 (Central Daylight Time),758482.3999999985,A,stre,O,e,211,1,1794.0999999940395,756688.3000000045,7017,WL,B,2.0
7,4.88100004196167,immed,55118.99995803833,Thu Aug 22 2024 10:47:31 GMT-0500 (Central Daylight Time),758570.3000000045,A,stree,O,e,83,1,1882.0,756688.3000000045,7017,WL,B,2.0
7,5.082000017166138,immed,54917.99998283386,Thu Aug 22 2024 10:47:31 GMT-0500 (Central Daylight Time),758770.700000003,A,street,O,t,185,1,2082.39999999851,756688.3000000045,7017,WL,B,2.0
7,5.2820000648498535,immed,54717.99993515015,Thu Aug 22 2024 10:47:31 GMT-0500 (Central Daylight Time),758970.700000003,A,streetenter,O,enter,179,1,2282.39999999851,756688.3000000045,7017,WL,B,2.0
7,6.0980000495910645,immed,53901.999950408936,Thu Aug 22 2024 10:47:31 GMT-0500 (Central Daylight Time),759787.0,A,w,O,w,812,1,816.0,758971.0,7017,WL,B,3.0
7,6.315000057220459,immed,53684.99994277954,Thu Aug 22 2024 10:47:31 GMT-0500 (Central Daylight Time),760003.6000000015,A,wi,O,i,204,1,1032.6000000014901,758971.0,7017,WL,B,3.0
7,6.5980000495910645,immed,53401.999950408936,Thu Aug 22 2024 10:47:31 GMT-0500 (Central Daylight Time),760286.8999999985,A,wif,O,f,266,1,1315.8999999985099,758971.0,7017,WL,B,3.0
7,6.749000072479248,immed,53250.99992752075,Thu Aug 22 2024 10:47:31 GMT-0500 (Central Daylight Time),760437.8000000045,A,wife,O,e,143,1,1466.8000000044703,758971.0,7017,WL,B,3.0
7,6.914000034332275,immed,53085.999965667725,Thu Aug 22 2024 10:47:31 GMT-0500 (Central Daylight Time),760603.3999999985,A,wifeenter,O,enter,152,1,1632.3999999985099,758971.0,7017,WL,B,3.0
7,8.246999979019165,immed,51753.000020980835,Thu Aug 22 2024 10:47:31 GMT-0500 (Central Daylight Time),761936.5,A,d,O,d,1322,1,1332.6999999955297,760603.8000000045,7017,WL,B,4.0
7,8.563999891281128,immed,51436.00010871887,Thu Aug 22 2024 10:47:31 GMT-0500 (Central Daylight Time),762252.8999999985,A,do,O,o,302,1,1649.0999999940395,760603.8000000045,7017,WL,B,4.0
7,8.730000019073486,immed,51269.999980926514,Thu Aug 22 2024 10:47:31 GMT-0500 (Central Daylight Time),762419.3999999985,A,doo,O,o,162,1,1815.5999999940395,760603.8000000045,7017,WL,B,4.0
7,8.914000034332275,immed,51085.999965667725,Thu Aug 22 2024 10:47:31 GMT-0500 (Central Daylight Time),762602.8000000045,A,door,O,r,163,1,1999.0,760603.8000000045,7017,WL,B,4.0
7,9.079999923706055,immed,50920.000076293945,Thu Aug 22 2024 10:47:31 GMT-0500 (Central Daylight Time),762769.6000000015,A,doorenter,O,enter,147,1,2165.7999999970198,760603.8000000045,7017,WL,B,4.0
7,9.897000074386597,immed,50102.9999256134,Thu Aug 22 2024 10:47:31 GMT-0500 (Central Daylight Time),763585.8000000045,A,a,O,a,804,1,815.9000000059605,762769.8999999985,7017,WL,B,5.0
7,10.13100004196167,immed,49868.99995803833,Thu Aug 22 2024 10:47:31 GMT-0500 (Central Daylight Time),763820.3000000045,A,ar,O,r,221,1,1050.4000000059605,762769.8999999985,7017,WL,B,5.0
7,10.463000059127808,immed,49536.99994087219,Thu Aug 22 2024 10:47:31 GMT-0500 (Central Daylight Time),764152.3000000045,A,arn,O,n,323,1,1382.4000000059605,762769.8999999985,7017,WL,B,5.0
7,11.230000019073486,immed,48769.999980926514,Thu Aug 22 2024 10:47:31 GMT-0500 (Central Daylight Time),764918.700000003,A,ar,O,backspace,757,1,2148.8000000044703,762769.8999999985,7017,WL,B,5.0
7,11.713000059127808,immed,48286.99994087219,Thu Aug 22 2024 10:47:31 GMT-0500 (Central Daylight Time),765401.700000003,A,arm,O,m,463,1,2631.8000000044703,762769.8999999985,7017,WL,B,5.0
7,11.912999868392944,immed,48087.000131607056,Thu Aug 22 2024 10:47:31 GMT-0500 (Central Daylight Time),765601.8999999985,A,armenter,O,enter,189,1,2832.0,762769.8999999985,7017,WL,B,5.0
7,12.36299991607666,immed,47637.00008392334,Thu Aug 22 2024 10:47:31 GMT-0500 (Central Daylight Time),766051.700000003,A,s,O,s,436,1,449.5,765602.200000003,7017,WL,B,6.0
7,12.578999996185303,immed,47421.0000038147,Thu Aug 22 2024 10:47:31 GMT-0500 (Central Daylight Time),766268.3000000045,A,st,O,t,202,1,666.1000000014901,765602.200000003,7017,WL,B,6.0
7,12.861999988555908,immed,47138.00001144409,Thu Aug 22 2024 10:47:31 GMT-0500 (Central Daylight Time),766551.3999999985,A,sta,O,a,265,1,949.1999999955297,765602.200000003,7017,WL,B,6.0
7,13.078999996185303,immed,46921.0000038147,Thu Aug 22 2024 10:47:31 GMT-0500 (Central Daylight Time),766768.1000000015,A,star,O,r,207,1,1165.8999999985099,765602.200000003,7017,WL,B,6.0
7,13.296000003814697,immed,46703.9999961853,Thu Aug 22 2024 10:47:31 GMT-0500 (Central Daylight Time),766985.0,A,starenter,O,enter,206,1,1382.7999999970198,765602.200000003,7017,WL,B,6.0
7,13.645999908447266,immed,46354.000091552734,Thu Aug 22 2024 10:47:31 GMT-0500 (Central Daylight Time),767334.6000000015,A,s,O,s,334,1,349.29999999701977,766985.3000000045,7017,WL,B,7.0
7,14.295000076293945,immed,45704.999923706055,Thu Aug 22 2024 10:47:31 GMT-0500 (Central Daylight Time),767984.3999999985,A,sk,O,k,639,1,999.0999999940395,766985.3000000045,7017,WL,B,7.0
7,14.494999885559082,immed,45505.00011444092,Thu Aug 22 2024 10:47:31 GMT-0500 (Central Daylight Time),768184.3999999985,A,ski,O,i,181,1,1199.0999999940395,766985.3000000045,7017,WL,B,7.0
7,14.59500002861023,immed,45404.99997138977,Thu Aug 22 2024 10:47:31 GMT-0500 (Central Daylight Time),768284.3999999985,A,skin,O,n,94,1,1299.0999999940395,766985.3000000045,7017,WL,B,7.0
7,14.84500002861023,immed,45154.99997138977,Thu Aug 22 2024 10:47:31 GMT-0500 (Central Daylight Time),768534.3999999985,A,skinenter,O,enter,233,1,1549.0999999940395,766985.3000000045,7017,WL,B,7.0
7,15.277999877929688,immed,44722.00012207031,Thu Aug 22 2024 10:47:31 GMT-0500 (Central Daylight Time),768967.5,A,c,O,c,417,1,432.79999999701977,768534.700000003,7017,WL,B,8.0
7,15.461999893188477,immed,44538.00010681152,Thu Aug 22 2024 10:47:31 GMT-0500 (Central Daylight Time),769150.8000000045,A,ca,O,a,166,1,616.1000000014901,768534.700000003,7017,WL,B,8.0
7,15.67799997329712,immed,44322.00002670288,Thu Aug 22 2024 10:47:31 GMT-0500 (Central Daylight Time),769367.5,A,cab,O,b,207,1,832.7999999970198,768534.700000003,7017,WL,B,8.0
7,16.161999940872192,immed,43838.00005912781,Thu Aug 22 2024 10:47:31 GMT-0500 (Central Daylight Time),769850.700000003,A,cabi,O,i,462,1,1316.0,768534.700000003,7017,WL,B,8.0
7,16.32800006866455,immed,43671.99993133545,Thu Aug 22 2024 10:47:31 GMT-0500 (Central Daylight Time),770017.3000000045,A,cabin,O,n,147,1,1482.6000000014901,768534.700000003,7017,WL,B,8.0
7,16.57800006866455,immed,43421.99993133545,Thu Aug 22 2024 10:47:31 GMT-0500 (Central Daylight Time),770266.8999999985,A,cabinenter,O,enter,237,1,1732.1999999955297,768534.700000003,7017,WL,B,8.0
7,17.444000005722046,immed,42555.999994277954,Thu Aug 22 2024 10:47:31 GMT-0500 (Central Daylight Time),771133.6000000015,A,l,O,l,850,1,866.3999999985099,770267.200000003,7017,WL,B,9.0
7,17.694000005722046,immed,42305.999994277954,Thu Aug 22 2024 10:47:31 GMT-0500 (Central Daylight Time),771383.6000000015,A,la,O,a,232,1,1116.3999999985099,770267.200000003,7017,WL,B,9.0
7,18.51099991798401,immed,41489.00008201599,Thu Aug 22 2024 10:47:31 GMT-0500 (Central Daylight Time),772199.6000000015,A,lak,O,k,798,1,1932.3999999985099,770267.200000003,7017,WL,B,9.0
7,18.64400005340576,immed,41355.99994659424,Thu Aug 22 2024 10:47:31 GMT-0500 (Central Daylight Time),772333.0,A,lake,O,e,118,1,2065.7999999970198,770267.200000003,7017,WL,B,9.0
7,18.74399995803833,immed,41256.00004196167,Thu Aug 22 2024 10:47:31 GMT-0500 (Central Daylight Time),772433.0,A,lakeenter,O,enter,82,1,2165.7999999970198,770267.200000003,7017,WL,B,9.0
7,19.026999950408936,immed,40973.000049591064,Thu Aug 22 2024 10:47:31 GMT-0500 (Central Daylight Time),772716.3999999985,A,p,O,p,278,1,283.09999999403954,772433.3000000045,7017,WL,B,10.0
7,19.210000038146973,immed,40789.99996185303,Thu Aug 22 2024 10:47:31 GMT-0500 (Central Daylight Time),772899.3999999985,A,pi,O,i,177,1,466.09999999403954,772433.3000000045,7017,WL,B,10.0
7,19.376999855041504,immed,40623.000144958496,Thu Aug 22 2024 10:47:31 GMT-0500 (Central Daylight Time),773066.1000000015,A,pip,O,p,155,1,632.7999999970198,772433.3000000045,7017,WL,B,10.0
7,19.57699990272522,immed,40423.00009727478,Thu Aug 22 2024 10:47:31 GMT-0500 (Central Daylight Time),773266.3999999985,A,pipe,O,e,180,1,833.0999999940395,772433.3000000045,7017,WL,B,10.0
7,19.72699999809265,immed,40273.00000190735,Thu Aug 22 2024 10:47:31 GMT-0500 (Central Daylight Time),773416.0,A,pipeenter,O,enter,139,1,982.6999999955297,772433.3000000045,7017,WL,B,10.0
7,21.07699990272522,immed,38923.00009727478,Thu Aug 22 2024 10:47:31 GMT-0500 (Central Daylight Time),774765.700000003,A,f,O,f,1342,1,1349.5,773416.200000003,7017,WL,B,11.0
7,21.16000008583069,immed,38839.99991416931,Thu Aug 22 2024 10:47:31 GMT-0500 (Central Daylight Time),774849.1000000015,A,fi,O,i,72,1,1432.8999999985099,773416.200000003,7017,WL,B,11.0
7,21.276000022888184,immed,38723.99997711182,Thu Aug 22 2024 10:47:31 GMT-0500 (Central Daylight Time),774965.3999999985,A,fir,O,r,109,1,1549.1999999955297,773416.200000003,7017,WL,B,11.0
7,21.359999895095825,immed,38640.000104904175,Thu Aug 22 2024 10:47:31 GMT-0500 (Central Daylight Time),775049.1000000015,A,fire,O,e,64,1,1632.8999999985099,773416.200000003,7017,WL,B,11.0
7,21.493000030517578,immed,38506.99996948242,Thu Aug 22 2024 10:47:31 GMT-0500 (Central Daylight Time),775182.3000000045,A,fireenter,O,enter,124,1,1766.1000000014901,773416.200000003,7017,WL,B,11.0
7,22.493000030517578,immed,37506.99996948242,Thu Aug 22 2024 10:47:31 GMT-0500 (Central Daylight Time),776182.0,A,c,O,c,983,1,999.2999999970198,775182.700000003,7017,WL,B,12.0
7,22.625999927520752,immed,37374.00007247925,Thu Aug 22 2024 10:47:31 GMT-0500 (Central Daylight Time),776315.0,A,ci,O,i,128,1,1132.2999999970198,775182.700000003,7017,WL,B,12.0
7,22.759000062942505,immed,37240.999937057495,Thu Aug 22 2024 10:47:31 GMT-0500 (Central Daylight Time),776448.5,A,cit,O,t,115,1,1265.7999999970198,775182.700000003,7017,WL,B,12.0
7,22.89299988746643,immed,37107.00011253357,Thu Aug 22 2024 10:47:31 GMT-0500 (Central Daylight Time),776581.6000000015,A,city,O,y,117,1,1398.8999999985099,775182.700000003,7017,WL,B,12.0
7,23.175999879837036,immed,36824.000120162964,Thu Aug 22 2024 10:47:31 GMT-0500 (Central Daylight Time),776865.1000000015,A,cityenter,O,enter,264,1,1682.3999999985099,775182.700000003,7017,WL,B,12.0
7,28.872999906539917,immed,31127.000093460083,Thu Aug 22 2024 10:47:31 GMT-0500 (Central Daylight Time),782563.0,A,p,O,p,5693,1,5697.60000000149,776865.3999999985,7017,WL,B,13.0
7,29.138999938964844,immed,30861.000061035156,Thu Aug 22 2024 10:47:31 GMT-0500 (Central Daylight Time),782829.8000000045,A,pu,O,u,259,1,5964.4000000059605,776865.3999999985,7017,WL,B,13.0
7,29.622999906539917,immed,30377.000093460083,Thu Aug 22 2024 10:47:31 GMT-0500 (Central Daylight Time),783313.0,A,pup,O,p,464,1,6447.60000000149,776865.3999999985,7017,WL,B,13.0
7,29.805999994277954,immed,30194.000005722046,Thu Aug 22 2024 10:47:31 GMT-0500 (Central Daylight Time),783496.3000000045,A,pupi,O,i,173,1,6630.9000000059605,776865.3999999985,7017,WL,B,13.0
7,30.022000074386597,immed,29977.999925613403,Thu Aug 22 2024 10:47:31 GMT-0500 (Central Daylight Time),783712.700000003,A,pupil,O,l,197,1,6847.30000000447,776865.3999999985,7017,WL,B,13.0
7,30.205999851226807,immed,29794.000148773193,Thu Aug 22 2024 10:47:31 GMT-0500 (Central Daylight Time),783896.1000000015,A,pupilenter,O,enter,165,1,7030.70000000298,776865.3999999985,7017,WL,B,13.0
7,33.65499997138977,immed,26345.00002861023,Thu Aug 22 2024 10:47:31 GMT-0500 (Central Daylight Time),787344.8999999985,A,c,O,c,3431,1,3448.39999999851,783896.5,7017,WL,B,14.0
7,33.75499987602234,immed,26245.00012397766,Thu Aug 22 2024 10:47:31 GMT-0500 (Central Daylight Time),787444.8999999985,A,cl,O,l,85,1,3548.39999999851,783896.5,7017,WL,B,14.0
7,33.92199993133545,immed,26078.00006866455,Thu Aug 22 2024 10:47:31 GMT-0500 (Central Daylight Time),787612.8000000045,A,clo,O,o,161,1,3716.3000000044703,783896.5,7017,WL,B,14.0
7,34.00499987602234,immed,25995.00012397766,Thu Aug 22 2024 10:47:31 GMT-0500 (Central Daylight Time),787694.8000000045,A,cloc,O,c,65,1,3798.3000000044703,783896.5,7017,WL,B,14.0
7,34.15400004386902,immed,25845.99995613098,Thu Aug 22 2024 10:47:31 GMT-0500 (Central Daylight Time),787844.8000000045,A,clock,O,k,135,1,3948.3000000044703,783896.5,7017,WL,B,14.0
7,34.88800001144409,immed,25111.99998855591,Thu Aug 22 2024 10:47:31 GMT-0500 (Central Daylight Time),788577.8999999985,A,clockenter,O,enter,721,1,4681.39999999851,783896.5,7017,WL,B,14.0
7,45.18400001525879,immed,14815.999984741211,Thu Aug 22 2024 10:47:31 GMT-0500 (Central Daylight Time),798874.700000003,A,enter,O,enter,10284,1,10296.39999999851,788578.3000000045,7017,WL,B,15.0
