acc_sum,block,block_c,change,condition,correct,correct_response,datetime,endtime,face,project,response,response_time,row_sel,session_number,start_end,starttime,subject_id,task,task_vers,trial
0,prac,1,,1-Back,,,Tue Jul 29 2025 17:26:50 GMT-0500 (Central Daylight Time),,005_o_f_d_a.png,I,space,3610,1,2,,,8040,VNB,B,0
1,prac,1,0.0,1-Back,1,m,Tue Jul 29 2025 17:26:50 GMT-0500 (Central Daylight Time),105044.39999997616,020_y_f_n_a.png,I,m,1258,2,2,2137.600000023842,102906.79999995232,8040,VNB,B,1
2,prac,1,0.0,1-Back,1,m,Tue Jul 29 2025 17:26:50 GMT-0500 (Central Daylight Time),107077.09999990463,007_m_m_h_a.png,I,m,1144,3,2,2024.2999999523163,105052.79999995232,8040,VNB,B,2
3,prac,1,0.0,1-Back,1,m,Tue Jul 29 2025 17:26:50 GMT-0500 (Central Daylight Time),109010.89999997616,016_y_m_d_a.png,I,m,1055,4,2,1927.5,107083.39999997616,8040,VNB,B,3
4,prac,1,0.0,1-Back,1,m,Tue Jul 29 2025 17:26:50 GMT-0500 (Central Daylight Time),111026.79999995232,005_o_f_n_a.png,I,m,1119,5,2,2006.1000000238419,109020.69999992847,8040,VNB,B,4
5,prac,1,1.0,1-Back,1,z,Tue Jul 29 2025 17:26:50 GMT-0500 (Central Daylight Time),113041.69999992847,016_y_m_n_a.png,I,z,1110,6,2,2003.6999999284744,111038.0,8040,VNB,B,5
6,prac,1,0.0,1-Back,1,m,Tue Jul 29 2025 17:26:50 GMT-0500 (Central Daylight Time),114857.69999992847,004_o_m_h_a.png,I,m,947,7,2,1809.8999999761581,113047.79999995232,8040,VNB,B,6
7,prac,1,0.0,1-Back,1,m,Tue Jul 29 2025 17:26:50 GMT-0500 (Central Daylight Time),116888.5,011_m_f_d_a.png,I,m,1129,8,2,2019.3000000715256,114869.19999992847,8040,VNB,B,7
7,prac,1,1.0,1-Back,0,z,Tue Jul 29 2025 17:26:50 GMT-0500 (Central Daylight Time),118989.5,020_y_f_d_a.png,I,m,1219,9,2,2090.9000000953674,116898.59999990463,8040,VNB,B,8
8,prac,1,0.0,1-Back,1,m,Tue Jul 29 2025 17:26:50 GMT-0500 (Central Daylight Time),121023.09999990463,007_m_m_n_a.png,I,m,1106,10,2,2016.8999999761581,119006.19999992847,8040,VNB,B,9
9,prac,1,0.0,1-Back,1,m,Tue Jul 29 2025 17:26:50 GMT-0500 (Central Daylight Time),122972.89999997616,005_o_f_h_a.png,I,m,1051,11,2,1940.2000000476837,121032.69999992847,8040,VNB,B,10
10,prac,1,0.0,1-Back,1,m,Tue Jul 29 2025 17:26:50 GMT-0500 (Central Daylight Time),124889.0,016_y_m_d_a.png,I,m,1003,12,2,1907.1000000238419,122981.89999997616,8040,VNB,B,11
0,test,1,0.0,1-Back,,,Tue Jul 29 2025 17:26:50 GMT-0500 (Central Daylight Time),124889.0,020_y_f_d_a.png,I,space,6833,1,2,1907.1000000238419,122981.89999997616,8040,VNB,B,0
1,test,1,0.0,1-Back,1,m,Tue Jul 29 2025 17:26:50 GMT-0500 (Central Daylight Time),142249.69999992847,011_m_f_n_a.png,I,m,1350,2,2,2375.1999999284744,139874.5,8040,VNB,B,1
2,test,1,0.0,1-Back,1,m,Tue Jul 29 2025 17:26:50 GMT-0500 (Central Daylight Time),144281.5,004_o_m_h_a.png,I,m,1015,3,2,2024.1000000238419,142257.39999997616,8040,VNB,B,2
3,test,1,1.0,1-Back,1,z,Tue Jul 29 2025 17:26:50 GMT-0500 (Central Daylight Time),146380.09999990463,007_m_m_h_a.png,I,z,1080,4,2,2092.0,144288.09999990463,8040,VNB,B,3
4,test,1,0.0,1-Back,1,m,Tue Jul 29 2025 17:26:50 GMT-0500 (Central Daylight Time),148346.39999997616,005_o_f_n_a.png,I,m,938,5,2,1957.2000000476837,146389.19999992847,8040,VNB,B,4
5,test,1,0.0,1-Back,1,m,Tue Jul 29 2025 17:26:50 GMT-0500 (Central Daylight Time),150312.59999990463,016_y_m_d_a.png,I,m,941,6,2,1959.2999999523163,148353.29999995232,8040,VNB,B,5
5,test,1,1.0,1-Back,0,z,Tue Jul 29 2025 17:26:50 GMT-0500 (Central Daylight Time),152531.09999990463,011_m_f_d_a.png,I,m,1185,7,2,2212.0999999046326,150319.0,8040,VNB,B,6
6,test,1,0.0,1-Back,1,m,Tue Jul 29 2025 17:26:50 GMT-0500 (Central Daylight Time),154661.19999992847,020_y_f_h_a.png,I,m,1113,8,2,2122.7999999523163,152538.39999997616,8040,VNB,B,7
7,test,1,0.0,1-Back,1,m,Tue Jul 29 2025 17:26:50 GMT-0500 (Central Daylight Time),156794.69999992847,004_o_m_n_a.png,I,m,1105,9,2,2126.100000023842,154668.59999990463,8040,VNB,B,8
8,test,1,0.0,1-Back,1,m,Tue Jul 29 2025 17:26:50 GMT-0500 (Central Daylight Time),158994.5,016_y_m_h_a.png,I,m,1168,10,2,2193.2000000476837,156801.29999995232,8040,VNB,B,9
9,test,1,0.0,1-Back,1,m,Tue Jul 29 2025 17:26:50 GMT-0500 (Central Daylight Time),161191.69999992847,004_o_m_d_a.png,I,m,1174,11,2,2190.1999999284744,159001.5,8040,VNB,B,10
10,test,1,1.0,1-Back,1,z,Tue Jul 29 2025 17:26:50 GMT-0500 (Central Daylight Time),163325.29999995232,005_o_f_d_a.png,I,z,1114,12,2,2126.0,161199.29999995232,8040,VNB,B,11
11,test,1,0.0,1-Back,1,m,Tue Jul 29 2025 17:26:50 GMT-0500 (Central Daylight Time),165390.89999997616,007_m_m_n_a.png,I,m,1042,13,2,2057.0,163333.89999997616,8040,VNB,B,12
12,test,1,1.0,1-Back,1,z,Tue Jul 29 2025 17:26:50 GMT-0500 (Central Daylight Time),167724.0,020_y_f_n_a.png,I,z,1312,14,2,2325.600000023842,165398.39999997616,8040,VNB,B,13
13,test,1,0.0,1-Back,1,m,Tue Jul 29 2025 17:26:50 GMT-0500 (Central Daylight Time),169873.19999992847,011_m_f_h_a.png,I,m,1118,15,2,2143.100000023842,167730.09999990463,8040,VNB,B,14
14,test,1,0.0,1-Back,1,m,Tue Jul 29 2025 17:26:50 GMT-0500 (Central Daylight Time),172189.29999995232,007_m_m_d_a.png,I,m,1286,16,2,2308.899999976158,169880.39999997616,8040,VNB,B,15
15,test,1,0.0,1-Back,1,m,Tue Jul 29 2025 17:26:50 GMT-0500 (Central Daylight Time),175021.19999992847,016_y_m_n_a.png,I,m,1803,17,2,2824.399999976158,172196.79999995232,8040,VNB,B,16
16,test,1,0.0,1-Back,1,m,Tue Jul 29 2025 17:26:50 GMT-0500 (Central Daylight Time),177253.79999995232,005_o_f_h_a.png,I,m,1211,18,2,2224.0,175029.79999995232,8040,VNB,B,17
0,test,2,0.0,1-Back,,,Tue Jul 29 2025 17:26:50 GMT-0500 (Central Daylight Time),177253.79999995232,016_y_m_n_a.png,I,space,2635,1,2,2224.0,175029.79999995232,8040,VNB,B,0
1,test,2,0.0,1-Back,1,m,Tue Jul 29 2025 17:26:50 GMT-0500 (Central Daylight Time),183769.89999997616,020_y_f_h_a.png,I,m,824,2,2,1842.5,181927.39999997616,8040,VNB,B,1
2,test,2,1.0,1-Back,1,m,Tue Jul 29 2025 17:26:50 GMT-0500 (Central Daylight Time),185751.09999990463,004_o_m_n_a.png,I,m,960,3,2,1973.0999999046326,183778.0,8040,VNB,B,2
3,test,2,0.0,1-Back,1,m,Tue Jul 29 2025 17:26:50 GMT-0500 (Central Daylight Time),187836.29999995232,011_m_f_d_a.png,I,m,1068,4,2,2078.600000023842,185757.69999992847,8040,VNB,B,3
4,test,2,0.0,1-Back,1,z,Tue Jul 29 2025 17:26:50 GMT-0500 (Central Daylight Time),190267.5,007_m_m_d_a.png,I,z,1406,5,2,2423.100000023842,187844.39999997616,8040,VNB,B,4
5,test,2,0.0,1-Back,1,m,Tue Jul 29 2025 17:26:50 GMT-0500 (Central Daylight Time),192133.19999992847,016_y_m_h_a.png,I,m,846,6,2,1858.2999999523163,190274.89999997616,8040,VNB,B,5
6,test,2,1.0,1-Back,1,z,Tue Jul 29 2025 17:26:50 GMT-0500 (Central Daylight Time),194267.29999995232,005_o_f_h_a.png,I,z,1118,7,2,2126.600000023842,192140.69999992847,8040,VNB,B,6
7,test,2,0.0,1-Back,1,m,Tue Jul 29 2025 17:26:50 GMT-0500 (Central Daylight Time),196264.79999995232,011_m_f_n_a.png,I,m,976,8,2,1985.6000000238419,194279.19999992847,8040,VNB,B,7
8,test,2,0.0,1-Back,1,m,Tue Jul 29 2025 17:26:50 GMT-0500 (Central Daylight Time),198363.09999990463,020_y_f_d_a.png,I,m,1071,9,2,2091.899999976158,196271.19999992847,8040,VNB,B,8
9,test,2,0.0,1-Back,1,m,Tue Jul 29 2025 17:26:50 GMT-0500 (Central Daylight Time),200496.39999997616,007_m_m_n_a.png,I,m,1110,10,2,2127.0,198369.39999997616,8040,VNB,B,9
10,test,2,1.0,1-Back,1,m,Tue Jul 29 2025 17:26:50 GMT-0500 (Central Daylight Time),202514.5,011_m_f_h_a.png,I,m,992,11,2,2009.7000000476837,200504.79999995232,8040,VNB,B,10
11,test,2,0.0,1-Back,1,z,Tue Jul 29 2025 17:26:50 GMT-0500 (Central Daylight Time),204662.0,004_o_m_h_a.png,I,z,1120,12,2,2139.100000023842,202522.89999997616,8040,VNB,B,11
12,test,2,0.0,1-Back,1,m,Tue Jul 29 2025 17:26:50 GMT-0500 (Central Daylight Time),206478.5,016_y_m_d_a.png,I,m,796,13,2,1811.8000000715256,204666.69999992847,8040,VNB,B,12
13,test,2,0.0,1-Back,1,m,Tue Jul 29 2025 17:26:50 GMT-0500 (Central Daylight Time),208745.79999995232,005_o_f_n_a.png,I,m,1242,14,2,2258.899999976158,206486.89999997616,8040,VNB,B,13
14,test,2,0.0,1-Back,1,z,Tue Jul 29 2025 17:26:50 GMT-0500 (Central Daylight Time),210809.19999992847,020_y_f_n_a.png,I,z,1041,15,2,2054.1999999284744,208755.0,8040,VNB,B,14
15,test,2,1.0,1-Back,1,m,Tue Jul 29 2025 17:26:50 GMT-0500 (Central Daylight Time),212776.89999997616,007_m_m_h_a.png,I,m,934,16,2,1964.3000000715256,210812.59999990463,8040,VNB,B,15
16,test,2,0.0,1-Back,1,m,Tue Jul 29 2025 17:26:50 GMT-0500 (Central Daylight Time),215342.0,005_o_f_d_a.png,I,m,1535,17,2,2556.100000023842,212785.89999997616,8040,VNB,B,16
17,test,2,1.0,1-Back,1,z,Tue Jul 29 2025 17:26:50 GMT-0500 (Central Daylight Time),217392.69999992847,004_o_m_d_a.png,I,z,1020,18,2,2042.0,215350.69999992847,8040,VNB,B,17
0,test,3,1.0,1-Back,,,Tue Jul 29 2025 17:26:50 GMT-0500 (Central Daylight Time),217392.69999992847,005_o_f_h_a.png,I,space,16302,1,2,2042.0,215350.69999992847,8040,VNB,B,0
1,test,3,0.0,1-Back,1,m,Tue Jul 29 2025 17:26:50 GMT-0500 (Central Daylight Time),237786.29999995232,011_m_f_d_a.png,I,m,934,2,2,1958.1000000238419,235828.19999992847,8040,VNB,B,1
2,test,3,1.0,1-Back,1,m,Tue Jul 29 2025 17:26:50 GMT-0500 (Central Daylight Time),240252.0,007_m_m_n_a.png,I,m,1450,3,2,2457.2000000476837,237794.79999995232,8040,VNB,B,2
3,test,3,0.0,1-Back,1,z,Tue Jul 29 2025 17:26:50 GMT-0500 (Central Daylight Time),242270.5,005_o_f_n_a.png,I,z,1000,4,2,2011.2000000476837,240259.29999995232,8040,VNB,B,3
4,test,3,1.0,1-Back,1,m,Tue Jul 29 2025 17:26:50 GMT-0500 (Central Daylight Time),244234.0,004_o_m_d_a.png,I,m,942,5,2,1954.6000000238419,242279.39999997616,8040,VNB,B,4
5,test,3,0.0,1-Back,1,m,Tue Jul 29 2025 17:26:50 GMT-0500 (Central Daylight Time),246450.59999990463,020_y_f_h_a.png,I,m,1184,6,2,2208.899999976158,244241.69999992847,8040,VNB,B,5
6,test,3,0.0,1-Back,1,z,Tue Jul 29 2025 17:26:50 GMT-0500 (Central Daylight Time),248398.59999990463,016_y_m_h_a.png,I,z,927,7,2,1937.6999999284744,246460.89999997616,8040,VNB,B,6
7,test,3,0.0,1-Back,1,m,Tue Jul 29 2025 17:26:50 GMT-0500 (Central Daylight Time),250483.09999990463,011_m_f_n_a.png,I,m,1068,8,2,2077.5,248405.59999990463,8040,VNB,B,7
8,test,3,0.0,1-Back,1,m,Tue Jul 29 2025 17:26:50 GMT-0500 (Central Daylight Time),252514.19999992847,020_y_f_d_a.png,I,m,1010,9,2,2022.3999999761581,250491.79999995232,8040,VNB,B,8
9,test,3,1.0,1-Back,1,m,Tue Jul 29 2025 17:26:50 GMT-0500 (Central Daylight Time),254764.69999992847,004_o_m_n_a.png,I,m,1234,10,2,2244.100000023842,252520.59999990463,8040,VNB,B,9
10,test,3,0.0,1-Back,1,m,Tue Jul 29 2025 17:26:50 GMT-0500 (Central Daylight Time),256729.0,007_m_m_h_a.png,I,m,941,11,2,1955.6000000238419,254773.39999997616,8040,VNB,B,10
11,test,3,0.0,1-Back,1,z,Tue Jul 29 2025 17:26:50 GMT-0500 (Central Daylight Time),258628.69999992847,011_m_f_h_a.png,I,z,872,12,2,1890.2999999523163,256738.39999997616,8040,VNB,B,11
12,test,3,1.0,1-Back,1,m,Tue Jul 29 2025 17:26:50 GMT-0500 (Central Daylight Time),260543.29999995232,005_o_f_d_a.png,I,m,883,13,2,1906.1000000238419,258637.19999992847,8040,VNB,B,12
13,test,3,0.0,1-Back,1,z,Tue Jul 29 2025 17:26:50 GMT-0500 (Central Daylight Time),262525.6999999285,007_m_m_d_a.png,I,z,934,14,2,1978.8999999761581,260546.79999995232,8040,VNB,B,13
14,test,3,0.0,1-Back,1,m,Tue Jul 29 2025 17:26:50 GMT-0500 (Central Daylight Time),264527.39999997616,016_y_m_n_a.png,I,m,960,15,2,1997.3999999761581,262530.0,8040,VNB,B,14
15,test,3,1.0,1-Back,1,m,Tue Jul 29 2025 17:26:50 GMT-0500 (Central Daylight Time),266674.89999997616,004_o_m_h_a.png,I,m,1123,16,2,2140.5,264534.39999997616,8040,VNB,B,15
16,test,3,0.0,1-Back,1,m,Tue Jul 29 2025 17:26:50 GMT-0500 (Central Daylight Time),268608.6999999285,016_y_m_d_a.png,I,m,909,17,2,1926.1999999284744,266682.5,8040,VNB,B,16
17,test,3,1.0,1-Back,1,m,Tue Jul 29 2025 17:26:50 GMT-0500 (Central Daylight Time),270624.09999990463,020_y_f_n_a.png,I,m,991,18,2,2006.2999999523163,268617.7999999523,8040,VNB,B,17
0,test,4,1.0,1-Back,,,Tue Jul 29 2025 17:26:50 GMT-0500 (Central Daylight Time),270624.09999990463,007_m_m_d_a.png,I,space,1899,1,2,2006.2999999523163,268617.7999999523,8040,VNB,B,0
1,test,4,0.0,1-Back,1,z,Tue Jul 29 2025 17:26:50 GMT-0500 (Central Daylight Time),276538.39999997616,004_o_m_d_a.png,I,z,972,2,2,1991.2000000476837,274547.1999999285,8040,VNB,B,1
2,test,4,0.0,1-Back,1,m,Tue Jul 29 2025 17:26:50 GMT-0500 (Central Daylight Time),278421.39999997616,016_y_m_h_a.png,I,m,861,3,2,1874.6000000238419,276546.7999999523,8040,VNB,B,2
3,test,4,0.0,1-Back,1,m,Tue Jul 29 2025 17:26:50 GMT-0500 (Central Daylight Time),280420.39999997616,011_m_f_n_a.png,I,m,970,4,2,1988.3999999761581,278432.0,8040,VNB,B,3
4,test,4,1.0,1-Back,1,m,Tue Jul 29 2025 17:26:50 GMT-0500 (Central Daylight Time),282320.89999997616,005_o_f_h_a.png,I,m,876,5,2,1891.0,280429.89999997616,8040,VNB,B,4
5,test,4,0.0,1-Back,1,m,Tue Jul 29 2025 17:26:50 GMT-0500 (Central Daylight Time),284287.5,007_m_m_n_a.png,I,m,943,6,2,1958.9000000953674,282328.59999990463,8040,VNB,B,5
6,test,4,0.0,1-Back,1,m,Tue Jul 29 2025 17:26:50 GMT-0500 (Central Daylight Time),286153.89999997616,016_y_m_d_a.png,I,m,843,7,2,1859.5,284294.39999997616,8040,VNB,B,6
7,test,4,1.0,1-Back,1,z,Tue Jul 29 2025 17:26:50 GMT-0500 (Central Daylight Time),288152.0,020_y_f_d_a.png,I,z,970,8,2,1989.6000000238419,286162.39999997616,8040,VNB,B,7
8,test,4,0.0,1-Back,1,m,Tue Jul 29 2025 17:26:50 GMT-0500 (Central Daylight Time),290019.09999990463,011_m_f_h_a.png,I,m,841,9,2,1859.0999999046326,288160.0,8040,VNB,B,8
9,test,4,0.0,1-Back,1,z,Tue Jul 29 2025 17:26:50 GMT-0500 (Central Daylight Time),291867.59999990463,004_o_m_h_a.png,I,z,830,10,2,1840.0,290027.59999990463,8040,VNB,B,9
10,test,4,1.0,1-Back,1,m,Tue Jul 29 2025 17:26:50 GMT-0500 (Central Daylight Time),293983.2999999523,005_o_f_n_a.png,I,m,1093,11,2,2105.7000000476837,291877.59999990463,8040,VNB,B,10
11,test,4,0.0,1-Back,1,m,Tue Jul 29 2025 17:26:50 GMT-0500 (Central Daylight Time),296233.59999990463,011_m_f_d_a.png,I,m,1226,12,2,2242.0,293991.59999990463,8040,VNB,B,11
12,test,4,0.0,1-Back,1,m,Tue Jul 29 2025 17:26:50 GMT-0500 (Central Daylight Time),298616.2999999523,020_y_f_n_a.png,I,m,1350,13,2,2377.5,296238.7999999523,8040,VNB,B,12
12,test,4,0.0,1-Back,0,m,Tue Jul 29 2025 17:26:50 GMT-0500 (Central Daylight Time),300597.89999997616,005_o_f_d_a.png,I,z,963,14,2,1973.2000000476837,298624.6999999285,8040,VNB,B,13
13,test,4,0.0,1-Back,1,m,Tue Jul 29 2025 17:26:50 GMT-0500 (Central Daylight Time),302531.89999997616,020_y_f_h_a.png,I,m,906,15,2,1925.1000000238419,300606.7999999523,8040,VNB,B,14
14,test,4,1.0,1-Back,1,z,Tue Jul 29 2025 17:26:50 GMT-0500 (Central Daylight Time),304547.2999999523,007_m_m_h_a.png,I,z,988,16,2,2007.7999999523163,302539.5,8040,VNB,B,15
15,test,4,0.0,1-Back,1,m,Tue Jul 29 2025 17:26:50 GMT-0500 (Central Daylight Time),306448.1999999285,004_o_m_n_a.png,I,m,869,17,2,1894.1999999284744,304554.0,8040,VNB,B,16
16,test,4,1.0,1-Back,1,z,Tue Jul 29 2025 17:26:50 GMT-0500 (Central Daylight Time),308347.5,016_y_m_n_a.png,I,z,881,18,2,1892.5,306455.0,8040,VNB,B,17
0,test,5,1.0,1-Back,,,Tue Jul 29 2025 17:26:50 GMT-0500 (Central Daylight Time),308347.5,004_o_m_n_a.png,I,space,1614,1,2,1892.5,306455.0,8040,VNB,B,0
1,test,5,1.0,1-Back,1,m,Tue Jul 29 2025 17:26:50 GMT-0500 (Central Daylight Time),313927.59999990463,005_o_f_h_a.png,I,m,900,2,2,1921.6999999284744,312005.89999997616,8040,VNB,B,1
2,test,5,0.0,1-Back,1,m,Tue Jul 29 2025 17:26:50 GMT-0500 (Central Daylight Time),315876.09999990463,016_y_m_d_a.png,I,m,930,3,2,1940.3999999761581,313935.6999999285,8040,VNB,B,2
3,test,5,0.0,1-Back,1,z,Tue Jul 29 2025 17:26:50 GMT-0500 (Central Daylight Time),317776.09999990463,004_o_m_d_a.png,I,z,877,4,2,1890.2999999523163,315885.7999999523,8040,VNB,B,3
4,test,5,0.0,1-Back,1,m,Tue Jul 29 2025 17:26:50 GMT-0500 (Central Daylight Time),319591.89999997616,011_m_f_h_a.png,I,m,794,5,2,1806.1000000238419,317785.7999999523,8040,VNB,B,4
5,test,5,0.0,1-Back,1,m,Tue Jul 29 2025 17:26:50 GMT-0500 (Central Daylight Time),321739.09999990463,020_y_f_n_a.png,I,m,1118,6,2,2139.899999976158,319599.1999999285,8040,VNB,B,5
6,test,5,1.0,1-Back,1,z,Tue Jul 29 2025 17:26:50 GMT-0500 (Central Daylight Time),323657.6999999285,005_o_f_n_a.png,I,z,901,7,2,1915.6000000238419,321742.09999990463,8040,VNB,B,6
7,test,5,0.0,1-Back,1,m,Tue Jul 29 2025 17:26:50 GMT-0500 (Central Daylight Time),325575.59999990463,011_m_f_d_a.png,I,m,886,8,2,1913.2999999523163,323662.2999999523,8040,VNB,B,7
8,test,5,0.0,1-Back,1,m,Tue Jul 29 2025 17:26:50 GMT-0500 (Central Daylight Time),327572.09999990463,016_y_m_h_a.png,I,m,971,9,2,1989.2999999523163,325582.7999999523,8040,VNB,B,8
9,test,5,0.0,1-Back,1,m,Tue Jul 29 2025 17:26:50 GMT-0500 (Central Daylight Time),329473.89999997616,020_y_f_d_a.png,I,m,883,10,2,1892.8000000715256,327581.09999990463,8040,VNB,B,9
10,test,5,0.0,1-Back,1,m,Tue Jul 29 2025 17:26:50 GMT-0500 (Central Daylight Time),331487.7999999523,007_m_m_n_a.png,I,m,982,11,2,2007.7000000476837,329480.09999990463,8040,VNB,B,10
11,test,5,1.0,1-Back,1,z,Tue Jul 29 2025 17:26:50 GMT-0500 (Central Daylight Time),333437.1999999285,011_m_f_n_a.png,I,z,929,12,2,1943.0,331494.1999999285,8040,VNB,B,11
12,test,5,0.0,1-Back,1,m,Tue Jul 29 2025 17:26:50 GMT-0500 (Central Daylight Time),335387.09999990463,004_o_m_h_a.png,I,m,907,13,2,1933.1999999284744,333453.89999997616,8040,VNB,B,12
13,test,5,0.0,1-Back,1,z,Tue Jul 29 2025 17:26:50 GMT-0500 (Central Daylight Time),337354.0,007_m_m_h_a.png,I,z,942,14,2,1961.5,335392.5,8040,VNB,B,13
14,test,5,1.0,1-Back,1,m,Tue Jul 29 2025 17:26:50 GMT-0500 (Central Daylight Time),339203.09999990463,005_o_f_d_a.png,I,m,832,15,2,1842.2999999523163,337360.7999999523,8040,VNB,B,14
15,test,5,0.0,1-Back,1,m,Tue Jul 29 2025 17:26:50 GMT-0500 (Central Daylight Time),341354.89999997616,016_y_m_n_a.png,I,m,1136,16,2,2143.100000023842,339211.7999999523,8040,VNB,B,15
16,test,5,0.0,1-Back,1,m,Tue Jul 29 2025 17:26:50 GMT-0500 (Central Daylight Time),343285.39999997616,020_y_f_h_a.png,I,m,904,17,2,1923.2000000476837,341362.1999999285,8040,VNB,B,16
17,test,5,0.0,1-Back,1,m,Tue Jul 29 2025 17:26:50 GMT-0500 (Central Daylight Time),345584.09999990463,007_m_m_d_a.png,I,m,1277,18,2,2290.1999999284744,343293.89999997616,8040,VNB,B,17
0,prac,1,0.0,2-Back,,,Tue Jul 29 2025 17:26:50 GMT-0500 (Central Daylight Time),345584.09999990463,011_m_f_n_a.png,I,space,6474,1,2,2290.1999999284744,343293.89999997616,8040,VNB,B,0
0,prac,1,0.0,2-Back,,,Tue Jul 29 2025 17:26:50 GMT-0500 (Central Daylight Time),345584.09999990463,005_o_f_h_a.png,I,space,6474,2,2,2290.1999999284744,343293.89999997616,8040,VNB,B,0
1,prac,1,0.0,2-Back,1,m,Tue Jul 29 2025 17:26:50 GMT-0500 (Central Daylight Time),548651.2999999523,004_o_m_d_a.png,I,m,1650,3,2,2505.100000023842,546146.1999999285,8040,VNB,B,1
1,prac,1,1.0,2-Back,0,z,Tue Jul 29 2025 17:26:50 GMT-0500 (Central Daylight Time),551102.5999999046,007_m_m_h_a.png,I,m,1550,4,2,2441.5,548661.0999999046,8040,VNB,B,2
2,prac,1,0.0,2-Back,1,m,Tue Jul 29 2025 17:26:50 GMT-0500 (Central Daylight Time),553618.5999999046,020_y_f_n_a.png,I,m,1638,5,2,2507.0,551111.5999999046,8040,VNB,B,3
3,prac,1,1.0,2-Back,1,z,Tue Jul 29 2025 17:26:50 GMT-0500 (Central Daylight Time),555749.0999999046,004_o_m_h_a.png,I,z,1357,6,2,2121.399999976158,553627.6999999285,8040,VNB,B,4
4,prac,1,1.0,2-Back,1,z,Tue Jul 29 2025 17:26:50 GMT-0500 (Central Daylight Time),558083.8999999762,016_y_m_n_a.png,I,z,1452,7,2,2326.600000023842,555757.2999999523,8040,VNB,B,5
5,prac,1,0.0,2-Back,1,m,Tue Jul 29 2025 17:26:50 GMT-0500 (Central Daylight Time),560400.0,011_m_f_d_a.png,I,m,1431,8,2,2307.4000000953674,558092.5999999046,8040,VNB,B,6
6,prac,1,0.0,2-Back,1,m,Tue Jul 29 2025 17:26:50 GMT-0500 (Central Daylight Time),562615.1999999285,005_o_f_d_a.png,I,m,1330,9,2,2207.7999999523163,560407.3999999762,8040,VNB,B,7
7,prac,1,0.0,2-Back,1,m,Tue Jul 29 2025 17:26:50 GMT-0500 (Central Daylight Time),564966.0999999046,007_m_m_h_a.png,I,m,1584,10,2,2341.6999999284744,562624.3999999762,8040,VNB,B,8
7,prac,1,1.0,2-Back,0,z,Tue Jul 29 2025 17:26:50 GMT-0500 (Central Daylight Time),567348.1999999285,020_y_f_d_a.png,I,m,1500,11,2,2372.1999999284744,564976.0,8040,VNB,B,9
8,prac,1,0.0,2-Back,1,m,Tue Jul 29 2025 17:26:50 GMT-0500 (Central Daylight Time),569731.0,004_o_m_n_a.png,I,m,1509,12,2,2372.600000023842,567358.3999999762,8040,VNB,B,10
0,test,1,0.0,2-Back,,,Tue Jul 29 2025 17:26:50 GMT-0500 (Central Daylight Time),569731.0,016_y_m_h_a.png,I,space,8830,1,2,2372.600000023842,567358.3999999762,8040,VNB,B,0
0,test,1,0.0,2-Back,,,Tue Jul 29 2025 17:26:50 GMT-0500 (Central Daylight Time),569731.0,005_o_f_n_a.png,I,space,8830,2,2,2372.600000023842,567358.3999999762,8040,VNB,B,0
1,test,1,0.0,2-Back,1,z,Tue Jul 29 2025 17:26:50 GMT-0500 (Central Daylight Time),595404.5,004_o_m_h_a.png,I,z,972,3,2,1992.5,593412.0,8040,VNB,B,1
2,test,1,0.0,2-Back,1,m,Tue Jul 29 2025 17:26:50 GMT-0500 (Central Daylight Time),598237.0999999046,011_m_f_d_a.png,I,m,1800,4,2,2825.0,595412.0999999046,8040,VNB,B,2
3,test,1,1.0,2-Back,1,m,Tue Jul 29 2025 17:26:50 GMT-0500 (Central Daylight Time),600735.6999999285,016_y_m_n_a.png,I,m,1478,5,2,2489.6999999284744,598246.0,8040,VNB,B,3
4,test,1,0.0,2-Back,1,z,Tue Jul 29 2025 17:26:50 GMT-0500 (Central Daylight Time),603451.8999999762,020_y_f_d_a.png,I,z,1697,6,2,2708.7000000476837,600743.1999999285,8040,VNB,B,4
5,test,1,0.0,2-Back,1,m,Tue Jul 29 2025 17:26:50 GMT-0500 (Central Daylight Time),605867.1999999285,007_m_m_h_a.png,I,m,1389,7,2,2408.0,603459.1999999285,8040,VNB,B,5
6,test,1,1.0,2-Back,1,m,Tue Jul 29 2025 17:26:50 GMT-0500 (Central Daylight Time),608217.0999999046,020_y_f_n_a.png,I,m,1326,8,2,2342.5999999046326,605874.5,8040,VNB,B,6
7,test,1,0.0,2-Back,1,z,Tue Jul 29 2025 17:26:50 GMT-0500 (Central Daylight Time),610383.0,005_o_f_h_a.png,I,z,1144,9,2,2158.600000023842,608224.3999999762,8040,VNB,B,7
8,test,1,0.0,2-Back,1,m,Tue Jul 29 2025 17:26:50 GMT-0500 (Central Daylight Time),612598.0,004_o_m_d_a.png,I,m,1192,10,2,2206.7000000476837,610391.2999999523,8040,VNB,B,8
8,test,1,1.0,2-Back,0,m,Tue Jul 29 2025 17:26:50 GMT-0500 (Central Daylight Time),615614.3999999762,007_m_m_d_a.png,I,z,1994,11,2,3009.7000000476837,612604.6999999285,8040,VNB,B,9
9,test,1,0.0,2-Back,1,m,Tue Jul 29 2025 17:26:50 GMT-0500 (Central Daylight Time),618280.7999999523,011_m_f_n_a.png,I,m,1634,12,2,2657.100000023842,615623.6999999285,8040,VNB,B,10
10,test,1,0.0,2-Back,1,m,Tue Jul 29 2025 17:26:50 GMT-0500 (Central Daylight Time),620646.5999999046,020_y_f_h_a.png,I,m,1336,13,2,2357.5999999046326,618289.0,8040,VNB,B,11
10,test,1,0.0,2-Back,0,z,Tue Jul 29 2025 17:26:50 GMT-0500 (Central Daylight Time),623330.2999999523,007_m_m_n_a.png,I,m,1667,14,2,2677.100000023842,620653.1999999285,8040,VNB,B,12
11,test,1,0.0,2-Back,1,m,Tue Jul 29 2025 17:26:50 GMT-0500 (Central Daylight Time),625994.6999999285,016_y_m_d_a.png,I,m,1641,15,2,2657.399999976158,623337.2999999523,8040,VNB,B,13
12,test,1,1.0,2-Back,1,m,Tue Jul 29 2025 17:26:50 GMT-0500 (Central Daylight Time),628228.0999999046,011_m_f_h_a.png,I,m,1208,16,2,2224.5999999046326,626003.5,8040,VNB,B,14
12,test,1,0.0,2-Back,0,z,Tue Jul 29 2025 17:26:50 GMT-0500 (Central Daylight Time),631142.3999999762,005_o_f_d_a.png,I,m,1895,17,2,2906.100000023842,628236.2999999523,8040,VNB,B,15
13,test,1,0.0,2-Back,1,m,Tue Jul 29 2025 17:26:50 GMT-0500 (Central Daylight Time),633810.0999999046,004_o_m_n_a.png,I,m,1651,18,2,2661.0999999046326,631149.0,8040,VNB,B,16
0,test,2,0.0,2-Back,,,Tue Jul 29 2025 17:26:50 GMT-0500 (Central Daylight Time),633810.0999999046,007_m_m_h_a.png,I,space,3821,1,2,2661.0999999046326,631149.0,8040,VNB,B,0
0,test,2,0.0,2-Back,,,Tue Jul 29 2025 17:26:50 GMT-0500 (Central Daylight Time),633810.0999999046,020_y_f_n_a.png,I,space,3821,2,2,2661.0999999046326,631149.0,8040,VNB,B,0
1,test,2,1.0,2-Back,1,z,Tue Jul 29 2025 17:26:50 GMT-0500 (Central Daylight Time),644888.0999999046,005_o_f_h_a.png,I,z,983,3,2,2005.1999999284744,642882.8999999762,8040,VNB,B,1
2,test,2,0.0,2-Back,1,m,Tue Jul 29 2025 17:26:50 GMT-0500 (Central Daylight Time),647054.1999999285,004_o_m_d_a.png,I,m,1145,4,2,2160.0,644894.1999999285,8040,VNB,B,2
3,test,2,0.0,2-Back,1,m,Tue Jul 29 2025 17:26:50 GMT-0500 (Central Daylight Time),649287.0,011_m_f_d_a.png,I,m,1201,5,2,2225.9000000953674,647061.0999999046,8040,VNB,B,3
4,test,2,0.0,2-Back,1,m,Tue Jul 29 2025 17:26:50 GMT-0500 (Central Daylight Time),651469.6999999285,016_y_m_h_a.png,I,m,1153,6,2,2174.399999976158,649295.2999999523,8040,VNB,B,4
5,test,2,0.0,2-Back,1,m,Tue Jul 29 2025 17:26:50 GMT-0500 (Central Daylight Time),653652.1999999285,005_o_f_n_a.png,I,m,1155,7,2,2175.600000023842,651476.5999999046,8040,VNB,B,5
6,test,2,1.0,2-Back,1,z,Tue Jul 29 2025 17:26:50 GMT-0500 (Central Daylight Time),655701.5,004_o_m_h_a.png,I,z,1022,8,2,2040.7000000476837,653660.7999999523,8040,VNB,B,6
6,test,2,0.0,2-Back,0,m,Tue Jul 29 2025 17:26:50 GMT-0500 (Central Daylight Time),658667.5999999046,020_y_f_d_a.png,I,z,1939,9,2,2959.2999999523163,655708.2999999523,8040,VNB,B,7
6,test,2,0.0,2-Back,0,m,Tue Jul 29 2025 17:26:50 GMT-0500 (Central Daylight Time),661250.2999999523,016_y_m_d_a.png,I,z,1548,10,2,2576.399999976158,658673.8999999762,8040,VNB,B,8
7,test,2,0.0,2-Back,1,m,Tue Jul 29 2025 17:26:50 GMT-0500 (Central Daylight Time),663349.5,007_m_m_n_a.png,I,m,1073,11,2,2090.600000023842,661258.8999999762,8040,VNB,B,9
8,test,2,0.0,2-Back,1,m,Tue Jul 29 2025 17:26:50 GMT-0500 (Central Daylight Time),665316.3999999762,011_m_f_h_a.png,I,m,938,12,2,1956.8999999761581,663359.5,8040,VNB,B,10
9,test,2,1.0,2-Back,1,z,Tue Jul 29 2025 17:26:50 GMT-0500 (Central Daylight Time),667397.0,004_o_m_n_a.png,I,z,1062,13,2,2072.7000000476837,665324.2999999523,8040,VNB,B,11
10,test,2,0.0,2-Back,1,m,Tue Jul 29 2025 17:26:50 GMT-0500 (Central Daylight Time),669647.0,005_o_f_d_a.png,I,m,1227,14,2,2240.9000000953674,667406.0999999046,8040,VNB,B,12
11,test,2,0.0,2-Back,1,m,Tue Jul 29 2025 17:26:50 GMT-0500 (Central Daylight Time),672046.2999999523,020_y_f_h_a.png,I,m,1368,15,2,2392.399999976158,669653.8999999762,8040,VNB,B,13
12,test,2,0.0,2-Back,1,z,Tue Jul 29 2025 17:26:50 GMT-0500 (Central Daylight Time),674079.2999999523,007_m_m_d_a.png,I,z,1001,16,2,2024.7000000476837,672054.5999999046,8040,VNB,B,14
13,test,2,0.0,2-Back,1,m,Tue Jul 29 2025 17:26:50 GMT-0500 (Central Daylight Time),676278.6999999285,016_y_m_n_a.png,I,m,1169,17,2,2190.600000023842,674088.0999999046,8040,VNB,B,15
14,test,2,1.0,2-Back,1,m,Tue Jul 29 2025 17:26:50 GMT-0500 (Central Daylight Time),679127.8999999762,011_m_f_n_a.png,I,m,1826,18,2,2841.5,676286.3999999762,8040,VNB,B,16
0,test,3,1.0,2-Back,,,Tue Jul 29 2025 17:26:50 GMT-0500 (Central Daylight Time),679127.8999999762,004_o_m_n_a.png,I,space,2960,1,2,2841.5,676286.3999999762,8040,VNB,B,0
0,test,3,1.0,2-Back,,,Tue Jul 29 2025 17:26:50 GMT-0500 (Central Daylight Time),679127.8999999762,005_o_f_d_a.png,I,space,2960,2,2,2841.5,676286.3999999762,8040,VNB,B,0
1,test,3,0.0,2-Back,1,m,Tue Jul 29 2025 17:26:50 GMT-0500 (Central Daylight Time),689024.0,020_y_f_h_a.png,I,m,858,3,2,1871.6000000238419,687152.3999999762,8040,VNB,B,1
2,test,3,0.0,2-Back,1,z,Tue Jul 29 2025 17:26:50 GMT-0500 (Central Daylight Time),691408.2999999523,011_m_f_d_a.png,I,z,1361,4,2,2379.399999976158,689028.8999999762,8040,VNB,B,2
3,test,3,1.0,2-Back,1,m,Tue Jul 29 2025 17:26:50 GMT-0500 (Central Daylight Time),693540.0,016_y_m_n_a.png,I,m,1107,5,2,2121.5,691418.5,8040,VNB,B,3
4,test,3,0.0,2-Back,1,m,Tue Jul 29 2025 17:26:50 GMT-0500 (Central Daylight Time),695622.0999999046,004_o_m_h_a.png,I,m,1054,6,2,2073.5999999046326,693548.5,8040,VNB,B,4
5,test,3,0.0,2-Back,1,z,Tue Jul 29 2025 17:26:50 GMT-0500 (Central Daylight Time),697755.8999999762,020_y_f_n_a.png,I,z,1106,7,2,2124.399999976158,695631.5,8040,VNB,B,5
6,test,3,1.0,2-Back,1,m,Tue Jul 29 2025 17:26:50 GMT-0500 (Central Daylight Time),699922.1999999285,007_m_m_d_a.png,I,m,1133,8,2,2159.6999999284744,697762.5,8040,VNB,B,6
7,test,3,0.0,2-Back,1,m,Tue Jul 29 2025 17:26:50 GMT-0500 (Central Daylight Time),702103.6999999285,016_y_m_d_a.png,I,m,1151,9,2,2173.6999999284744,699930.0,8040,VNB,B,7
8,test,3,0.0,2-Back,1,m,Tue Jul 29 2025 17:26:50 GMT-0500 (Central Daylight Time),704536.8999999762,005_o_f_h_a.png,I,m,1411,10,2,2428.600000023842,702108.2999999523,8040,VNB,B,8
9,test,3,1.0,2-Back,1,m,Tue Jul 29 2025 17:26:50 GMT-0500 (Central Daylight Time),706853.7999999523,011_m_f_n_a.png,I,m,1300,11,2,2313.399999976158,704540.3999999762,8040,VNB,B,9
9,test,3,1.0,2-Back,0,z,Tue Jul 29 2025 17:26:50 GMT-0500 (Central Daylight Time),709201.1999999285,007_m_m_h_a.png,I,m,1324,12,2,2343.5,706857.6999999285,8040,VNB,B,10
10,test,3,0.0,2-Back,1,m,Tue Jul 29 2025 17:26:50 GMT-0500 (Central Daylight Time),711284.1999999285,020_y_f_d_a.png,I,m,1065,13,2,2075.7999999523163,709208.3999999762,8040,VNB,B,11
11,test,3,0.0,2-Back,1,m,Tue Jul 29 2025 17:26:50 GMT-0500 (Central Daylight Time),713617.3999999762,005_o_f_n_a.png,I,m,1309,14,2,2326.100000023842,711291.2999999523,8040,VNB,B,12
11,test,3,0.0,2-Back,0,z,Tue Jul 29 2025 17:26:50 GMT-0500 (Central Daylight Time),715900.5,004_o_m_d_a.png,I,m,1266,15,2,2273.4000000953674,713627.0999999046,8040,VNB,B,13
12,test,3,1.0,2-Back,1,m,Tue Jul 29 2025 17:26:50 GMT-0500 (Central Daylight Time),718049.6999999285,011_m_f_h_a.png,I,m,1133,16,2,2140.1999999284744,715909.5,8040,VNB,B,14
13,test,3,0.0,2-Back,1,m,Tue Jul 29 2025 17:26:50 GMT-0500 (Central Daylight Time),720331.3999999762,007_m_m_n_a.png,I,m,1255,17,2,2274.600000023842,718056.7999999523,8040,VNB,B,15
14,test,3,0.0,2-Back,1,z,Tue Jul 29 2025 17:26:50 GMT-0500 (Central Daylight Time),722397.8999999762,016_y_m_h_a.png,I,z,1037,18,2,2057.8000000715256,720340.0999999046,8040,VNB,B,16
0,test,4,0.0,2-Back,,,Tue Jul 29 2025 17:26:50 GMT-0500 (Central Daylight Time),722397.8999999762,011_m_f_n_a.png,I,space,2570,1,2,2057.8000000715256,720340.0999999046,8040,VNB,B,0
0,test,4,0.0,2-Back,,,Tue Jul 29 2025 17:26:50 GMT-0500 (Central Daylight Time),722397.8999999762,004_o_m_n_a.png,I,space,2570,2,2,2057.8000000715256,720340.0999999046,8040,VNB,B,0
1,test,4,1.0,2-Back,1,m,Tue Jul 29 2025 17:26:50 GMT-0500 (Central Daylight Time),732197.1999999285,016_y_m_h_a.png,I,m,952,3,2,1962.2999999523163,730234.8999999762,8040,VNB,B,1
2,test,4,1.0,2-Back,1,m,Tue Jul 29 2025 17:26:50 GMT-0500 (Central Daylight Time),734209.5999999046,005_o_f_d_a.png,I,m,983,4,2,2003.6999999284744,732205.8999999762,8040,VNB,B,2
3,test,4,0.0,2-Back,1,z,Tue Jul 29 2025 17:26:50 GMT-0500 (Central Daylight Time),736425.5,004_o_m_h_a.png,I,z,1184,5,2,2207.3000000715256,734218.1999999285,8040,VNB,B,3
3,test,4,0.0,2-Back,0,m,Tue Jul 29 2025 17:26:50 GMT-0500 (Central Daylight Time),738908.5,007_m_m_n_a.png,I,z,1456,6,2,2475.600000023842,736432.8999999762,8040,VNB,B,4
4,test,4,0.0,2-Back,1,m,Tue Jul 29 2025 17:26:50 GMT-0500 (Central Daylight Time),741074.2999999523,011_m_f_d_a.png,I,m,1140,7,2,2155.7999999523163,738918.5,8040,VNB,B,5
4,test,4,0.0,2-Back,0,z,Tue Jul 29 2025 17:26:50 GMT-0500 (Central Daylight Time),743457.7999999523,020_y_f_n_a.png,I,m,1366,8,2,2375.7999999523163,741082.0,8040,VNB,B,6
5,test,4,1.0,2-Back,1,m,Tue Jul 29 2025 17:26:50 GMT-0500 (Central Daylight Time),745856.0,005_o_f_h_a.png,I,m,1376,9,2,2390.5,743465.5,8040,VNB,B,7
6,test,4,0.0,2-Back,1,m,Tue Jul 29 2025 17:26:50 GMT-0500 (Central Daylight Time),748038.3999999762,007_m_m_h_a.png,I,m,1152,10,2,2176.2000000476837,745862.1999999285,8040,VNB,B,8
7,test,4,0.0,2-Back,1,m,Tue Jul 29 2025 17:26:50 GMT-0500 (Central Daylight Time),750621.6999999285,020_y_f_d_a.png,I,m,1554,11,2,2574.100000023842,748047.5999999046,8040,VNB,B,9
8,test,4,0.0,2-Back,1,m,Tue Jul 29 2025 17:26:50 GMT-0500 (Central Daylight Time),752954.1999999285,016_y_m_n_a.png,I,m,1315,12,2,2324.1999999284744,750630.0,8040,VNB,B,10
9,test,4,0.0,2-Back,1,z,Tue Jul 29 2025 17:26:50 GMT-0500 (Central Daylight Time),754953.1999999285,004_o_m_d_a.png,I,z,974,13,2,1991.1000000238419,752962.0999999046,8040,VNB,B,11
10,test,4,1.0,2-Back,1,m,Tue Jul 29 2025 17:26:50 GMT-0500 (Central Daylight Time),756969.3999999762,011_m_f_h_a.png,I,m,992,14,2,2008.1000000238419,754961.2999999523,8040,VNB,B,12
11,test,4,1.0,2-Back,1,m,Tue Jul 29 2025 17:26:50 GMT-0500 (Central Daylight Time),759334.5999999046,020_y_f_h_a.png,I,m,1334,15,2,2357.2999999523163,756977.2999999523,8040,VNB,B,13
12,test,4,0.0,2-Back,1,m,Tue Jul 29 2025 17:26:50 GMT-0500 (Central Daylight Time),761636.0999999046,005_o_f_n_a.png,I,m,1284,16,2,2291.6999999284744,759344.3999999762,8040,VNB,B,14
13,test,4,0.0,2-Back,1,m,Tue Jul 29 2025 17:26:50 GMT-0500 (Central Daylight Time),764018.0999999046,016_y_m_d_a.png,I,m,1351,17,2,2372.1999999284744,761645.8999999762,8040,VNB,B,15
13,test,4,1.0,2-Back,0,m,Tue Jul 29 2025 17:26:50 GMT-0500 (Central Daylight Time),766484.0,007_m_m_d_a.png,I,z,1450,18,2,2458.600000023842,764025.3999999762,8040,VNB,B,16
0,test,5,1.0,2-Back,,,Tue Jul 29 2025 17:26:50 GMT-0500 (Central Daylight Time),766484.0,020_y_f_d_a.png,I,space,2084,1,2,2458.600000023842,764025.3999999762,8040,VNB,B,0
0,test,5,1.0,2-Back,,,Tue Jul 29 2025 17:26:50 GMT-0500 (Central Daylight Time),766484.0,005_o_f_h_a.png,I,space,2084,2,2,2458.600000023842,764025.3999999762,8040,VNB,B,0
1,test,5,1.0,2-Back,1,z,Tue Jul 29 2025 17:26:50 GMT-0500 (Central Daylight Time),775480.1999999285,004_o_m_d_a.png,I,z,627,3,2,1642.2999999523163,773837.8999999762,8040,VNB,B,1
2,test,5,1.0,2-Back,1,m,Tue Jul 29 2025 17:26:50 GMT-0500 (Central Daylight Time),777498.0999999046,011_m_f_n_a.png,I,m,1001,4,2,2009.5999999046326,775488.5,8040,VNB,B,2
3,test,5,0.0,2-Back,1,m,Tue Jul 29 2025 17:26:50 GMT-0500 (Central Daylight Time),779878.1999999285,007_m_m_h_a.png,I,m,1359,5,2,2374.899999976158,777503.2999999523,8040,VNB,B,3
4,test,5,0.0,2-Back,1,z,Tue Jul 29 2025 17:26:50 GMT-0500 (Central Daylight Time),781961.0999999046,020_y_f_n_a.png,I,z,1049,6,2,2074.7999999523163,779886.2999999523,8040,VNB,B,4
5,test,5,0.0,2-Back,1,m,Tue Jul 29 2025 17:26:50 GMT-0500 (Central Daylight Time),784412.1999999285,005_o_f_d_a.png,I,m,1434,7,2,2445.0,781967.1999999285,8040,VNB,B,5
5,test,5,0.0,2-Back,0,m,Tue Jul 29 2025 17:26:50 GMT-0500 (Central Daylight Time),786810.1999999285,004_o_m_h_a.png,I,z,1374,8,2,2388.399999976158,784421.7999999523,8040,VNB,B,6
6,test,5,1.0,2-Back,1,z,Tue Jul 29 2025 17:26:50 GMT-0500 (Central Daylight Time),789309.1999999285,011_m_f_d_a.png,I,z,1471,9,2,2494.399999976158,786814.7999999523,8040,VNB,B,7
7,test,5,0.0,2-Back,1,m,Tue Jul 29 2025 17:26:50 GMT-0500 (Central Daylight Time),791558.3999999762,016_y_m_n_a.png,I,m,1219,10,2,2241.2000000476837,789317.1999999285,8040,VNB,B,8
8,test,5,0.0,2-Back,1,m,Tue Jul 29 2025 17:26:50 GMT-0500 (Central Daylight Time),793858.3999999762,007_m_m_n_a.png,I,m,1266,11,2,2291.399999976158,791567.0,8040,VNB,B,9
9,test,5,0.0,2-Back,1,m,Tue Jul 29 2025 17:26:50 GMT-0500 (Central Daylight Time),795956.8999999762,020_y_f_h_a.png,I,m,1069,12,2,2089.5,793867.3999999762,8040,VNB,B,10
10,test,5,0.0,2-Back,1,m,Tue Jul 29 2025 17:26:50 GMT-0500 (Central Daylight Time),798073.1999999285,016_y_m_d_a.png,I,m,1084,13,2,2108.399999976158,795964.7999999523,8040,VNB,B,11
11,test,5,1.0,2-Back,1,z,Tue Jul 29 2025 17:26:50 GMT-0500 (Central Daylight Time),800088.8999999762,011_m_f_h_a.png,I,z,983,14,2,2008.2000000476837,798080.6999999285,8040,VNB,B,12
12,test,5,0.0,2-Back,1,m,Tue Jul 29 2025 17:26:50 GMT-0500 (Central Daylight Time),802256.5999999046,004_o_m_n_a.png,I,m,1150,15,2,2159.399999976158,800097.1999999285,8040,VNB,B,13
13,test,5,0.0,2-Back,1,m,Tue Jul 29 2025 17:26:50 GMT-0500 (Central Daylight Time),804403.8999999762,007_m_m_d_a.png,I,m,1121,16,2,2144.8000000715256,802259.0999999046,8040,VNB,B,14
13,test,5,0.0,2-Back,0,z,Tue Jul 29 2025 17:26:50 GMT-0500 (Central Daylight Time),806771.1999999285,005_o_f_n_a.png,I,m,1342,17,2,2359.1999999284744,804412.0,8040,VNB,B,15
14,test,5,1.0,2-Back,1,m,Tue Jul 29 2025 17:26:50 GMT-0500 (Central Daylight Time),809053.7999999523,016_y_m_h_a.png,I,m,1254,18,2,2272.2999999523163,806781.5,8040,VNB,B,16
