acc_sum,block,block_c,change,condition,correct,correct_response,datetime,endtime,face,project,response,response_time,row_sel,session_number,start_end,starttime,subject_id,task,task_vers,trial
0,prac,1,,1-Back,,,Mon May 19 2025 16:59:03 GMT-0500 (Central Daylight Time),,012_o_f_d_a.png,I,space,5393,1,1,,,8040,VNB,C,0
1,prac,1,0.0,1-Back,1,m,Mon May 19 2025 16:59:03 GMT-0500 (Central Daylight Time),126903.30000007153,022_y_f_n_a.png,I,m,992,2,1,1890.3000000715256,125013.0,8040,VNB,C,1
2,prac,1,0.0,1-Back,1,m,Mon May 19 2025 16:59:03 GMT-0500 (Central Daylight Time),129419.80000007153,014_m_m_h_a.png,I,m,1619,3,1,2508.2000000476837,126911.60000002384,8040,VNB,C,2
2,prac,1,0.0,1-Back,0,m,Mon May 19 2025 16:59:03 GMT-0500 (Central Daylight Time),131868.5,025_y_m_d_a.png,I,z,1556,4,1,2442.5999999046326,129425.90000009537,8040,VNB,C,3
3,prac,1,0.0,1-Back,1,m,Mon May 19 2025 16:59:03 GMT-0500 (Central Daylight Time),133968.0,012_o_f_n_a.png,I,m,1190,5,1,2092.1999999284744,131875.80000007153,8040,VNB,C,4
3,prac,1,1.0,1-Back,0,z,Mon May 19 2025 16:59:03 GMT-0500 (Central Daylight Time),136117.20000004768,025_y_m_n_a.png,I,m,1256,6,1,2143.399999976158,133973.80000007153,8040,VNB,C,5
4,prac,1,0.0,1-Back,1,m,Mon May 19 2025 16:59:03 GMT-0500 (Central Daylight Time),138433.30000007153,015_o_m_h_a.png,I,m,1404,7,1,2308.2000000476837,136125.10000002384,8040,VNB,C,6
5,prac,1,0.0,1-Back,1,m,Mon May 19 2025 16:59:03 GMT-0500 (Central Daylight Time),140649.0,019_m_f_d_a.png,I,m,1299,8,1,2209.2999999523163,138439.70000004768,8040,VNB,C,7
6,prac,1,1.0,1-Back,1,z,Mon May 19 2025 16:59:03 GMT-0500 (Central Daylight Time),142898.60000002384,022_y_f_d_a.png,I,z,1338,9,1,2242.0,140656.60000002384,8040,VNB,C,8
7,prac,1,0.0,1-Back,1,m,Mon May 19 2025 16:59:03 GMT-0500 (Central Daylight Time),145347.60000002384,014_m_m_n_a.png,I,m,1562,10,1,2442.5,142905.10000002384,8040,VNB,C,9
8,prac,1,0.0,1-Back,1,m,Mon May 19 2025 16:59:03 GMT-0500 (Central Daylight Time),147730.5,012_o_f_h_a.png,I,m,1470,11,1,2376.5999999046326,145353.90000009537,8040,VNB,C,10
9,prac,1,0.0,1-Back,1,m,Mon May 19 2025 16:59:03 GMT-0500 (Central Daylight Time),149963.0,025_y_m_d_a.png,I,m,1347,12,1,2225.6999999284744,147737.30000007153,8040,VNB,C,11
0,test,1,0.0,1-Back,,,Mon May 19 2025 16:59:03 GMT-0500 (Central Daylight Time),149963.0,022_y_f_d_a.png,I,space,8607,1,1,2225.6999999284744,147737.30000007153,8040,VNB,C,0
1,test,1,0.0,1-Back,1,m,Mon May 19 2025 16:59:03 GMT-0500 (Central Daylight Time),169207.40000009537,019_m_f_n_a.png,I,m,825,2,1,1845.5,167361.90000009537,8040,VNB,C,1
2,test,1,0.0,1-Back,1,m,Mon May 19 2025 16:59:03 GMT-0500 (Central Daylight Time),171239.5,015_o_m_h_a.png,I,m,1015,3,1,2026.7999999523163,169212.70000004768,8040,VNB,C,2
3,test,1,1.0,1-Back,1,z,Mon May 19 2025 16:59:03 GMT-0500 (Central Daylight Time),173388.90000009537,014_m_m_h_a.png,I,z,1119,4,1,2145.0,171243.90000009537,8040,VNB,C,3
4,test,1,0.0,1-Back,1,m,Mon May 19 2025 16:59:03 GMT-0500 (Central Daylight Time),175338.40000009537,012_o_f_n_a.png,I,m,921,5,1,1945.2000000476837,173393.20000004768,8040,VNB,C,4
5,test,1,0.0,1-Back,1,m,Mon May 19 2025 16:59:03 GMT-0500 (Central Daylight Time),177321.0,025_y_m_d_a.png,I,m,956,6,1,1978.0999999046326,175342.90000009537,8040,VNB,C,5
5,test,1,1.0,1-Back,0,z,Mon May 19 2025 16:59:03 GMT-0500 (Central Daylight Time),179853.5,019_m_f_d_a.png,I,m,1501,7,1,2528.2999999523163,177325.20000004768,8040,VNB,C,6
6,test,1,0.0,1-Back,1,m,Mon May 19 2025 16:59:03 GMT-0500 (Central Daylight Time),181902.90000009537,022_y_f_h_a.png,I,m,1025,8,1,2044.8000000715256,179858.10000002384,8040,VNB,C,7
7,test,1,0.0,1-Back,1,m,Mon May 19 2025 16:59:03 GMT-0500 (Central Daylight Time),184052.20000004768,015_o_m_n_a.png,I,m,1127,9,1,2145.0,181907.20000004768,8040,VNB,C,8
8,test,1,0.0,1-Back,1,m,Mon May 19 2025 16:59:03 GMT-0500 (Central Daylight Time),186267.90000009537,025_y_m_h_a.png,I,m,1186,10,1,2211.4000000953674,184056.5,8040,VNB,C,9
9,test,1,0.0,1-Back,1,m,Mon May 19 2025 16:59:03 GMT-0500 (Central Daylight Time),188484.20000004768,015_o_m_d_a.png,I,m,1186,11,1,2211.2999999523163,186272.90000009537,8040,VNB,C,10
10,test,1,1.0,1-Back,1,z,Mon May 19 2025 16:59:03 GMT-0500 (Central Daylight Time),190783.30000007153,012_o_f_d_a.png,I,z,1282,12,1,2294.3000000715256,188489.0,8040,VNB,C,11
11,test,1,0.0,1-Back,1,m,Mon May 19 2025 16:59:03 GMT-0500 (Central Daylight Time),192766.10000002384,014_m_m_n_a.png,I,m,951,13,1,1977.8999999761581,190788.20000004768,8040,VNB,C,12
12,test,1,1.0,1-Back,1,z,Mon May 19 2025 16:59:03 GMT-0500 (Central Daylight Time),195148.80000007153,022_y_f_n_a.png,I,z,1352,14,1,2378.100000023842,192770.70000004768,8040,VNB,C,13
13,test,1,0.0,1-Back,1,m,Mon May 19 2025 16:59:03 GMT-0500 (Central Daylight Time),197181.5,019_m_f_h_a.png,I,m,1009,15,1,2028.2999999523163,195153.20000004768,8040,VNB,C,14
14,test,1,0.0,1-Back,1,m,Mon May 19 2025 16:59:03 GMT-0500 (Central Daylight Time),199280.80000007153,014_m_m_d_a.png,I,m,1081,16,1,2093.899999976158,197186.90000009537,8040,VNB,C,15
15,test,1,0.0,1-Back,1,m,Mon May 19 2025 16:59:03 GMT-0500 (Central Daylight Time),201413.5,025_y_m_n_a.png,I,m,1110,17,1,2128.6999999284744,199284.80000007153,8040,VNB,C,16
16,test,1,0.0,1-Back,1,m,Mon May 19 2025 16:59:03 GMT-0500 (Central Daylight Time),203462.90000009537,012_o_f_h_a.png,I,m,1017,18,1,2045.1000000238419,201417.80000007153,8040,VNB,C,17
0,test,2,0.0,1-Back,,,Mon May 19 2025 16:59:03 GMT-0500 (Central Daylight Time),203462.90000009537,025_y_m_n_a.png,I,space,3967,1,1,2045.1000000238419,201417.80000007153,8040,VNB,C,0
1,test,2,0.0,1-Back,1,m,Mon May 19 2025 16:59:03 GMT-0500 (Central Daylight Time),211343.5,022_y_f_h_a.png,I,m,866,2,1,1877.5999999046326,209465.90000009537,8040,VNB,C,1
2,test,2,1.0,1-Back,1,m,Mon May 19 2025 16:59:03 GMT-0500 (Central Daylight Time),213543.0,015_o_m_n_a.png,I,m,1166,3,1,2195.6999999284744,211347.30000007153,8040,VNB,C,2
3,test,2,0.0,1-Back,1,m,Mon May 19 2025 16:59:03 GMT-0500 (Central Daylight Time),215593.30000007153,019_m_f_d_a.png,I,m,1031,4,1,2046.0,213547.30000007153,8040,VNB,C,3
4,test,2,0.0,1-Back,1,z,Mon May 19 2025 16:59:03 GMT-0500 (Central Daylight Time),217542.80000007153,014_m_m_d_a.png,I,z,918,5,1,1944.5,215598.30000007153,8040,VNB,C,4
5,test,2,0.0,1-Back,1,m,Mon May 19 2025 16:59:03 GMT-0500 (Central Daylight Time),219641.20000004768,025_y_m_h_a.png,I,m,1080,6,1,2094.2000000476837,217547.0,8040,VNB,C,5
5,test,2,1.0,1-Back,0,z,Mon May 19 2025 16:59:03 GMT-0500 (Central Daylight Time),221790.40000009537,012_o_f_h_a.png,I,m,1117,7,1,2144.3000000715256,219646.10000002384,8040,VNB,C,6
6,test,2,0.0,1-Back,1,m,Mon May 19 2025 16:59:03 GMT-0500 (Central Daylight Time),223889.90000009537,019_m_f_n_a.png,I,m,1072,8,1,2094.5,221795.40000009537,8040,VNB,C,7
7,test,2,0.0,1-Back,1,m,Mon May 19 2025 16:59:03 GMT-0500 (Central Daylight Time),226022.40000009537,022_y_f_d_a.png,I,m,1100,9,1,2127.600000023842,223894.80000007153,8040,VNB,C,8
8,test,2,0.0,1-Back,1,m,Mon May 19 2025 16:59:03 GMT-0500 (Central Daylight Time),228138.5,014_m_m_n_a.png,I,m,1096,10,1,2111.7999999523163,226026.70000004768,8040,VNB,C,9
9,test,2,1.0,1-Back,1,m,Mon May 19 2025 16:59:03 GMT-0500 (Central Daylight Time),230404.30000007153,019_m_f_h_a.png,I,m,1236,11,1,2262.3000000715256,228142.0,8040,VNB,C,10
9,test,2,0.0,1-Back,0,z,Mon May 19 2025 16:59:03 GMT-0500 (Central Daylight Time),232770.30000007153,015_o_m_h_a.png,I,m,1346,12,1,2361.8000000715256,230408.5,8040,VNB,C,11
10,test,2,0.0,1-Back,1,m,Mon May 19 2025 16:59:03 GMT-0500 (Central Daylight Time),234936.20000004768,025_y_m_d_a.png,I,m,1140,13,1,2161.2999999523163,232774.90000009537,8040,VNB,C,12
11,test,2,0.0,1-Back,1,m,Mon May 19 2025 16:59:03 GMT-0500 (Central Daylight Time),236985.70000004768,012_o_f_n_a.png,I,m,1022,14,1,2044.6000000238419,234941.10000002384,8040,VNB,C,13
12,test,2,0.0,1-Back,1,z,Mon May 19 2025 16:59:03 GMT-0500 (Central Daylight Time),239351.60000002384,022_y_f_n_a.png,I,z,1333,15,1,2361.0,236990.60000002384,8040,VNB,C,14
13,test,2,1.0,1-Back,1,m,Mon May 19 2025 16:59:03 GMT-0500 (Central Daylight Time),241467.60000002384,014_m_m_h_a.png,I,m,1094,16,1,2112.0,239355.60000002384,8040,VNB,C,15
13,test,2,0.0,1-Back,0,m,Mon May 19 2025 16:59:03 GMT-0500 (Central Daylight Time),243466.80000007153,012_o_f_d_a.png,I,z,979,17,1,1994.3999999761581,241472.40000009537,8040,VNB,C,16
14,test,2,1.0,1-Back,1,z,Mon May 19 2025 16:59:03 GMT-0500 (Central Daylight Time),245899.60000002384,015_o_m_d_a.png,I,z,1403,18,1,2428.5,243471.10000002384,8040,VNB,C,17
0,test,3,1.0,1-Back,,,Mon May 19 2025 16:59:03 GMT-0500 (Central Daylight Time),245899.60000002384,012_o_f_h_a.png,I,space,3803,1,1,2428.5,243471.10000002384,8040,VNB,C,0
1,test,3,0.0,1-Back,1,m,Mon May 19 2025 16:59:03 GMT-0500 (Central Daylight Time),254013.70000004768,019_m_f_d_a.png,I,m,1126,2,1,2144.5,251869.20000004768,8040,VNB,C,1
2,test,3,1.0,1-Back,1,m,Mon May 19 2025 16:59:03 GMT-0500 (Central Daylight Time),256246.30000007153,014_m_m_n_a.png,I,m,1201,3,1,2227.7000000476837,254018.60000002384,8040,VNB,C,2
3,test,3,0.0,1-Back,1,z,Mon May 19 2025 16:59:03 GMT-0500 (Central Daylight Time),258328.90000009537,012_o_f_n_a.png,I,z,1056,4,1,2078.100000023842,256250.80000007153,8040,VNB,C,3
4,test,3,1.0,1-Back,1,m,Mon May 19 2025 16:59:03 GMT-0500 (Central Daylight Time),260378.40000009537,015_o_m_d_a.png,I,m,1029,5,1,2045.7000000476837,258332.70000004768,8040,VNB,C,4
5,test,3,0.0,1-Back,1,m,Mon May 19 2025 16:59:03 GMT-0500 (Central Daylight Time),262710.8000000715,022_y_f_h_a.png,I,m,1308,6,1,2328.100000023842,260382.70000004768,8040,VNB,C,5
6,test,3,0.0,1-Back,1,z,Mon May 19 2025 16:59:03 GMT-0500 (Central Daylight Time),264827.10000002384,025_y_m_h_a.png,I,z,1087,7,1,2112.600000023842,262714.5,8040,VNB,C,6
7,test,3,0.0,1-Back,1,m,Mon May 19 2025 16:59:03 GMT-0500 (Central Daylight Time),266793.0,019_m_f_n_a.png,I,m,939,8,1,1961.5,264831.5,8040,VNB,C,7
8,test,3,0.0,1-Back,1,m,Mon May 19 2025 16:59:03 GMT-0500 (Central Daylight Time),268975.7000000477,022_y_f_d_a.png,I,m,1165,9,1,2178.2999999523163,266797.40000009537,8040,VNB,C,8
9,test,3,1.0,1-Back,1,m,Mon May 19 2025 16:59:03 GMT-0500 (Central Daylight Time),271141.5,015_o_m_n_a.png,I,m,1135,10,1,2162.399999976158,268979.10000002384,8040,VNB,C,9
10,test,3,0.0,1-Back,1,m,Mon May 19 2025 16:59:03 GMT-0500 (Central Daylight Time),273191.0,014_m_m_h_a.png,I,m,1025,11,1,2044.3999999761581,271146.60000002384,8040,VNB,C,10
11,test,3,0.0,1-Back,1,z,Mon May 19 2025 16:59:03 GMT-0500 (Central Daylight Time),275439.90000009537,019_m_f_h_a.png,I,z,1231,12,1,2244.600000023842,273195.3000000715,8040,VNB,C,11
12,test,3,1.0,1-Back,1,m,Mon May 19 2025 16:59:03 GMT-0500 (Central Daylight Time),277573.0,012_o_f_d_a.png,I,m,1102,13,1,2128.5,275444.5,8040,VNB,C,12
12,test,3,0.0,1-Back,0,z,Mon May 19 2025 16:59:03 GMT-0500 (Central Daylight Time),279688.90000009537,014_m_m_d_a.png,I,m,1097,14,1,2111.0,277577.90000009537,8040,VNB,C,13
13,test,3,0.0,1-Back,1,m,Mon May 19 2025 16:59:03 GMT-0500 (Central Daylight Time),282121.3000000715,025_y_m_n_a.png,I,m,1413,15,1,2428.8000000715256,279692.5,8040,VNB,C,14
14,test,3,1.0,1-Back,1,m,Mon May 19 2025 16:59:03 GMT-0500 (Central Daylight Time),284287.40000009537,015_o_m_h_a.png,I,m,1141,16,1,2161.7000000476837,282125.7000000477,8040,VNB,C,15
15,test,3,0.0,1-Back,1,m,Mon May 19 2025 16:59:03 GMT-0500 (Central Daylight Time),286503.60000002384,025_y_m_d_a.png,I,m,1199,17,1,2212.6999999284744,284290.90000009537,8040,VNB,C,16
16,test,3,1.0,1-Back,1,m,Mon May 19 2025 16:59:03 GMT-0500 (Central Daylight Time),288669.5,022_y_f_n_a.png,I,m,1134,18,1,2161.399999976158,286508.10000002384,8040,VNB,C,17
0,test,4,1.0,1-Back,,,Mon May 19 2025 16:59:03 GMT-0500 (Central Daylight Time),288669.5,014_m_m_d_a.png,I,space,2721,1,1,2161.399999976158,286508.10000002384,8040,VNB,C,0
1,test,4,0.0,1-Back,1,z,Mon May 19 2025 16:59:03 GMT-0500 (Central Daylight Time),295467.2000000477,015_o_m_d_a.png,I,z,1020,2,1,2045.2999999523163,293421.90000009537,8040,VNB,C,1
2,test,4,0.0,1-Back,1,m,Mon May 19 2025 16:59:03 GMT-0500 (Central Daylight Time),297450.2000000477,025_y_m_h_a.png,I,m,954,3,1,1979.2000000476837,295471.0,8040,VNB,C,2
3,test,4,0.0,1-Back,1,m,Mon May 19 2025 16:59:03 GMT-0500 (Central Daylight Time),299699.3000000715,019_m_f_n_a.png,I,m,1228,4,1,2245.0,297454.3000000715,8040,VNB,C,3
4,test,4,1.0,1-Back,1,m,Mon May 19 2025 16:59:03 GMT-0500 (Central Daylight Time),301998.7000000477,012_o_f_h_a.png,I,m,1275,5,1,2294.899999976158,299703.8000000715,8040,VNB,C,4
5,test,4,0.0,1-Back,1,m,Mon May 19 2025 16:59:03 GMT-0500 (Central Daylight Time),304114.7000000477,014_m_m_n_a.png,I,m,1088,6,1,2111.100000023842,302003.60000002384,8040,VNB,C,5
6,test,4,0.0,1-Back,1,m,Mon May 19 2025 16:59:03 GMT-0500 (Central Daylight Time),306330.5,025_y_m_d_a.png,I,m,1196,7,1,2211.7999999523163,304118.7000000477,8040,VNB,C,6
7,test,4,1.0,1-Back,1,z,Mon May 19 2025 16:59:03 GMT-0500 (Central Daylight Time),308330.0,022_y_f_d_a.png,I,z,971,8,1,1995.5,306334.5,8040,VNB,C,7
8,test,4,0.0,1-Back,1,m,Mon May 19 2025 16:59:03 GMT-0500 (Central Daylight Time),310262.7000000477,019_m_f_h_a.png,I,m,900,9,1,1929.1000000238419,308333.60000002384,8040,VNB,C,8
9,test,4,0.0,1-Back,1,z,Mon May 19 2025 16:59:03 GMT-0500 (Central Daylight Time),312678.7000000477,015_o_m_h_a.png,I,z,1391,10,1,2411.899999976158,310266.8000000715,8040,VNB,C,9
10,test,4,1.0,1-Back,1,m,Mon May 19 2025 16:59:03 GMT-0500 (Central Daylight Time),315061.2000000477,012_o_f_n_a.png,I,m,1352,11,1,2376.7999999523163,312684.40000009537,8040,VNB,C,10
11,test,4,0.0,1-Back,1,m,Mon May 19 2025 16:59:03 GMT-0500 (Central Daylight Time),317577.0,019_m_f_d_a.png,I,m,1489,12,1,2512.0,315065.0,8040,VNB,C,11
12,test,4,0.0,1-Back,1,m,Mon May 19 2025 16:59:03 GMT-0500 (Central Daylight Time),319876.2000000477,022_y_f_n_a.png,I,m,1268,13,1,2294.7000000476837,317581.5,8040,VNB,C,12
13,test,4,0.0,1-Back,1,m,Mon May 19 2025 16:59:03 GMT-0500 (Central Daylight Time),322109.0,012_o_f_d_a.png,I,m,1199,14,1,2228.7999999523163,319880.2000000477,8040,VNB,C,13
14,test,4,0.0,1-Back,1,m,Mon May 19 2025 16:59:03 GMT-0500 (Central Daylight Time),324474.90000009537,022_y_f_h_a.png,I,m,1337,15,1,2362.100000023842,322112.8000000715,8040,VNB,C,14
15,test,4,1.0,1-Back,1,z,Mon May 19 2025 16:59:03 GMT-0500 (Central Daylight Time),326807.60000002384,014_m_m_h_a.png,I,z,1299,16,1,2328.600000023842,324479.0,8040,VNB,C,15
16,test,4,0.0,1-Back,1,m,Mon May 19 2025 16:59:03 GMT-0500 (Central Daylight Time),328990.2000000477,015_o_m_n_a.png,I,m,1151,17,1,2178.600000023842,326811.60000002384,8040,VNB,C,16
17,test,4,1.0,1-Back,1,z,Mon May 19 2025 16:59:03 GMT-0500 (Central Daylight Time),331122.90000009537,025_y_m_n_a.png,I,z,1112,18,1,2129.0,328993.90000009537,8040,VNB,C,17
0,test,5,1.0,1-Back,,,Mon May 19 2025 16:59:03 GMT-0500 (Central Daylight Time),331122.90000009537,015_o_m_n_a.png,I,space,2323,1,1,2129.0,328993.90000009537,8040,VNB,C,0
1,test,5,1.0,1-Back,1,m,Mon May 19 2025 16:59:03 GMT-0500 (Central Daylight Time),337470.90000009537,012_o_f_h_a.png,I,m,967,2,1,1995.3000000715256,335475.60000002384,8040,VNB,C,1
2,test,5,0.0,1-Back,1,m,Mon May 19 2025 16:59:03 GMT-0500 (Central Daylight Time),339920.0,025_y_m_d_a.png,I,m,1415,3,1,2445.1999999284744,337474.8000000715,8040,VNB,C,2
3,test,5,0.0,1-Back,1,z,Mon May 19 2025 16:59:03 GMT-0500 (Central Daylight Time),341935.7000000477,015_o_m_d_a.png,I,z,998,4,1,2011.6000000238419,339924.10000002384,8040,VNB,C,3
4,test,5,0.0,1-Back,1,m,Mon May 19 2025 16:59:03 GMT-0500 (Central Daylight Time),344035.40000009537,019_m_f_h_a.png,I,m,1070,5,1,2094.8000000715256,341940.60000002384,8040,VNB,C,4
5,test,5,0.0,1-Back,1,m,Mon May 19 2025 16:59:03 GMT-0500 (Central Daylight Time),346084.90000009537,022_y_f_n_a.png,I,m,1019,6,1,2045.5,344039.40000009537,8040,VNB,C,5
6,test,5,1.0,1-Back,1,z,Mon May 19 2025 16:59:03 GMT-0500 (Central Daylight Time),348150.90000009537,012_o_f_n_a.png,I,z,1033,7,1,2061.600000023842,346089.3000000715,8040,VNB,C,6
7,test,5,0.0,1-Back,1,m,Mon May 19 2025 16:59:03 GMT-0500 (Central Daylight Time),350250.2000000477,019_m_f_d_a.png,I,m,1071,8,1,2094.899999976158,348155.3000000715,8040,VNB,C,7
8,test,5,0.0,1-Back,1,m,Mon May 19 2025 16:59:03 GMT-0500 (Central Daylight Time),352399.7000000477,025_y_m_h_a.png,I,m,1116,9,1,2145.5,350254.2000000477,8040,VNB,C,8
9,test,5,0.0,1-Back,1,m,Mon May 19 2025 16:59:03 GMT-0500 (Central Daylight Time),354748.8000000715,022_y_f_d_a.png,I,m,1319,10,1,2344.5,352404.3000000715,8040,VNB,C,9
10,test,5,0.0,1-Back,1,m,Mon May 19 2025 16:59:03 GMT-0500 (Central Daylight Time),357065.40000009537,014_m_m_n_a.png,I,m,1297,11,1,2311.8000000715256,354753.60000002384,8040,VNB,C,10
11,test,5,1.0,1-Back,1,z,Mon May 19 2025 16:59:03 GMT-0500 (Central Daylight Time),359130.7000000477,019_m_f_n_a.png,I,z,1037,12,1,2061.7999999523163,357068.90000009537,8040,VNB,C,11
12,test,5,0.0,1-Back,1,m,Mon May 19 2025 16:59:03 GMT-0500 (Central Daylight Time),361179.90000009537,015_o_m_h_a.png,I,m,1028,13,1,2045.5,359134.40000009537,8040,VNB,C,12
12,test,5,0.0,1-Back,0,z,Mon May 19 2025 16:59:03 GMT-0500 (Central Daylight Time),363462.7000000477,014_m_m_h_a.png,I,m,1259,14,1,2278.7000000476837,361184.0,8040,VNB,C,13
13,test,5,1.0,1-Back,1,m,Mon May 19 2025 16:59:03 GMT-0500 (Central Daylight Time),365662.10000002384,012_o_f_d_a.png,I,m,1176,15,1,2195.2999999523163,363466.8000000715,8040,VNB,C,14
14,test,5,0.0,1-Back,1,m,Mon May 19 2025 16:59:03 GMT-0500 (Central Daylight Time),367873.0,025_y_m_n_a.png,I,m,1194,16,1,2207.5999999046326,365665.40000009537,8040,VNB,C,15
15,test,5,0.0,1-Back,1,m,Mon May 19 2025 16:59:03 GMT-0500 (Central Daylight Time),370177.40000009537,022_y_f_h_a.png,I,m,1272,17,1,2299.100000023842,367878.3000000715,8040,VNB,C,16
16,test,5,0.0,1-Back,1,m,Mon May 19 2025 16:59:03 GMT-0500 (Central Daylight Time),372493.3000000715,014_m_m_d_a.png,I,m,1285,18,1,2312.399999976158,370180.90000009537,8040,VNB,C,17
0,prac,1,0.0,2-Back,,,Mon May 19 2025 16:59:03 GMT-0500 (Central Daylight Time),372493.3000000715,019_m_f_n_a.png,I,space,6416,1,1,2312.399999976158,370180.90000009537,8040,VNB,C,0
0,prac,1,0.0,2-Back,,,Mon May 19 2025 16:59:03 GMT-0500 (Central Daylight Time),372493.3000000715,012_o_f_h_a.png,I,space,6416,2,1,2312.399999976158,370180.90000009537,8040,VNB,C,0
1,prac,1,0.0,2-Back,1,m,Mon May 19 2025 16:59:03 GMT-0500 (Central Daylight Time),477260.60000002384,015_o_m_d_a.png,I,m,1619,3,1,2527.1999999284744,474733.40000009537,8040,VNB,C,1
2,prac,1,1.0,2-Back,1,z,Mon May 19 2025 16:59:03 GMT-0500 (Central Daylight Time),479742.90000009537,014_m_m_h_a.png,I,z,1595,4,1,2474.4000000953674,477268.5,8040,VNB,C,2
3,prac,1,0.0,2-Back,1,m,Mon May 19 2025 16:59:03 GMT-0500 (Central Daylight Time),482108.90000009537,022_y_f_n_a.png,I,m,1444,5,1,2357.600000023842,479751.3000000715,8040,VNB,C,3
3,prac,1,1.0,2-Back,0,z,Mon May 19 2025 16:59:03 GMT-0500 (Central Daylight Time),484541.40000009537,015_o_m_h_a.png,I,m,1517,6,1,2424.8000000715256,482116.60000002384,8040,VNB,C,4
3,prac,1,1.0,2-Back,0,z,Mon May 19 2025 16:59:03 GMT-0500 (Central Daylight Time),486857.5,025_y_m_n_a.png,I,m,1431,7,1,2308.399999976158,484549.10000002384,8040,VNB,C,5
4,prac,1,0.0,2-Back,1,m,Mon May 19 2025 16:59:03 GMT-0500 (Central Daylight Time),489356.60000002384,019_m_f_d_a.png,I,m,1584,8,1,2491.899999976158,486864.7000000477,8040,VNB,C,6
5,prac,1,0.0,2-Back,1,m,Mon May 19 2025 16:59:03 GMT-0500 (Central Daylight Time),492122.5,012_o_f_d_a.png,I,m,1859,9,1,2758.7999999523163,489363.7000000477,8040,VNB,C,7
6,prac,1,0.0,2-Back,1,m,Mon May 19 2025 16:59:03 GMT-0500 (Central Daylight Time),494238.40000009537,014_m_m_h_a.png,I,m,1335,10,1,2110.100000023842,492128.3000000715,8040,VNB,C,8
7,prac,1,1.0,2-Back,1,z,Mon May 19 2025 16:59:03 GMT-0500 (Central Daylight Time),496321.0,022_y_f_d_a.png,I,z,1175,11,1,2076.6999999284744,494244.3000000715,8040,VNB,C,9
8,prac,1,0.0,2-Back,1,m,Mon May 19 2025 16:59:03 GMT-0500 (Central Daylight Time),498603.7000000477,015_o_m_n_a.png,I,m,1371,12,1,2276.7999999523163,496326.90000009537,8040,VNB,C,10
0,test,1,0.0,2-Back,,,Mon May 19 2025 16:59:03 GMT-0500 (Central Daylight Time),498603.7000000477,025_y_m_h_a.png,I,space,8055,1,1,2276.7999999523163,496326.90000009537,8040,VNB,C,0
0,test,1,0.0,2-Back,,,Mon May 19 2025 16:59:03 GMT-0500 (Central Daylight Time),498603.7000000477,012_o_f_n_a.png,I,space,8055,2,1,2276.7999999523163,496326.90000009537,8040,VNB,C,0
0,test,1,0.0,2-Back,0,z,Mon May 19 2025 16:59:03 GMT-0500 (Central Daylight Time),522663.0,015_o_m_h_a.png,I,m,1350,3,1,2378.899999976158,520284.10000002384,8040,VNB,C,1
1,test,1,0.0,2-Back,1,m,Mon May 19 2025 16:59:03 GMT-0500 (Central Daylight Time),525611.8000000715,019_m_f_d_a.png,I,m,1919,4,1,2944.5,522667.3000000715,8040,VNB,C,2
1,test,1,1.0,2-Back,0,m,Mon May 19 2025 16:59:03 GMT-0500 (Central Daylight Time),527877.8000000715,025_y_m_n_a.png,I,z,1242,5,1,2261.5,525616.3000000715,8040,VNB,C,3
1,test,1,0.0,2-Back,0,z,Mon May 19 2025 16:59:03 GMT-0500 (Central Daylight Time),530477.1000000238,022_y_f_d_a.png,I,m,1576,6,1,2595.5,527881.6000000238,8040,VNB,C,4
2,test,1,0.0,2-Back,1,m,Mon May 19 2025 16:59:03 GMT-0500 (Central Daylight Time),533476.0,014_m_m_h_a.png,I,m,1977,7,1,2995.5,530480.5,8040,VNB,C,5
2,test,1,1.0,2-Back,0,m,Mon May 19 2025 16:59:03 GMT-0500 (Central Daylight Time),535875.2000000477,022_y_f_n_a.png,I,z,1370,8,1,2395.5,533479.7000000477,8040,VNB,C,6
2,test,1,0.0,2-Back,0,z,Mon May 19 2025 16:59:03 GMT-0500 (Central Daylight Time),538457.9000000954,012_o_f_h_a.png,I,m,1563,9,1,2579.100000023842,535878.8000000715,8040,VNB,C,7
3,test,1,0.0,2-Back,1,m,Mon May 19 2025 16:59:03 GMT-0500 (Central Daylight Time),540807.1000000238,015_o_m_d_a.png,I,m,1324,10,1,2345.0,538462.1000000238,8040,VNB,C,8
4,test,1,1.0,2-Back,1,m,Mon May 19 2025 16:59:03 GMT-0500 (Central Daylight Time),543389.7000000477,014_m_m_d_a.png,I,m,1551,11,1,2579.0,540810.7000000477,8040,VNB,C,9
4,test,1,0.0,2-Back,0,m,Mon May 19 2025 16:59:03 GMT-0500 (Central Daylight Time),545805.4000000954,019_m_f_n_a.png,I,z,1393,12,1,2411.7000000476837,543393.7000000477,8040,VNB,C,10
5,test,1,0.0,2-Back,1,m,Mon May 19 2025 16:59:03 GMT-0500 (Central Daylight Time),548154.7000000477,022_y_f_h_a.png,I,m,1329,13,1,2345.399999976158,545809.3000000715,8040,VNB,C,11
5,test,1,0.0,2-Back,0,z,Mon May 19 2025 16:59:03 GMT-0500 (Central Daylight Time),550837.2000000477,014_m_m_n_a.png,I,m,1651,14,1,2678.7000000476837,548158.5,8040,VNB,C,12
6,test,1,0.0,2-Back,1,m,Mon May 19 2025 16:59:03 GMT-0500 (Central Daylight Time),553353.1000000238,025_y_m_d_a.png,I,m,1489,15,1,2511.5,550841.6000000238,8040,VNB,C,13
7,test,1,1.0,2-Back,1,m,Mon May 19 2025 16:59:03 GMT-0500 (Central Daylight Time),555851.9000000954,019_m_f_h_a.png,I,m,1469,16,1,2495.100000023842,553356.8000000715,8040,VNB,C,14
8,test,1,0.0,2-Back,1,z,Mon May 19 2025 16:59:03 GMT-0500 (Central Daylight Time),557851.3000000715,012_o_f_d_a.png,I,z,978,17,1,1994.8000000715256,555856.5,8040,VNB,C,15
8,test,1,0.0,2-Back,0,m,Mon May 19 2025 16:59:03 GMT-0500 (Central Daylight Time),560284.3000000715,015_o_m_n_a.png,I,z,1411,18,1,2428.100000023842,557856.2000000477,8040,VNB,C,16
0,test,2,0.0,2-Back,,,Mon May 19 2025 16:59:03 GMT-0500 (Central Daylight Time),560284.3000000715,014_m_m_h_a.png,I,space,4058,1,1,2428.100000023842,557856.2000000477,8040,VNB,C,0
0,test,2,0.0,2-Back,,,Mon May 19 2025 16:59:03 GMT-0500 (Central Daylight Time),560284.3000000715,022_y_f_n_a.png,I,space,4058,2,1,2428.100000023842,557856.2000000477,8040,VNB,C,0
1,test,2,1.0,2-Back,1,z,Mon May 19 2025 16:59:03 GMT-0500 (Central Daylight Time),571780.7000000477,012_o_f_h_a.png,I,z,1119,3,1,2145.0,569635.7000000477,8040,VNB,C,1
2,test,2,0.0,2-Back,1,m,Mon May 19 2025 16:59:03 GMT-0500 (Central Daylight Time),574013.4000000954,015_o_m_d_a.png,I,m,1209,4,1,2229.100000023842,571784.3000000715,8040,VNB,C,2
2,test,2,0.0,2-Back,0,m,Mon May 19 2025 16:59:03 GMT-0500 (Central Daylight Time),576329.0,019_m_f_d_a.png,I,z,1297,5,1,2311.5,574017.5,8040,VNB,C,3
2,test,2,0.0,2-Back,0,m,Mon May 19 2025 16:59:03 GMT-0500 (Central Daylight Time),579245.1000000238,025_y_m_h_a.png,I,z,1885,6,1,2911.899999976158,576333.2000000477,8040,VNB,C,4
3,test,2,0.0,2-Back,1,m,Mon May 19 2025 16:59:03 GMT-0500 (Central Daylight Time),581377.6000000238,012_o_f_n_a.png,I,m,1113,7,1,2128.2999999523163,579249.3000000715,8040,VNB,C,5
3,test,2,1.0,2-Back,0,z,Mon May 19 2025 16:59:03 GMT-0500 (Central Daylight Time),583761.4000000954,015_o_m_h_a.png,I,m,1364,8,1,2379.8000000715256,581381.6000000238,8040,VNB,C,6
4,test,2,0.0,2-Back,1,m,Mon May 19 2025 16:59:03 GMT-0500 (Central Daylight Time),586226.1000000238,022_y_f_d_a.png,I,m,1438,9,1,2460.600000023842,583765.5,8040,VNB,C,7
5,test,2,0.0,2-Back,1,m,Mon May 19 2025 16:59:03 GMT-0500 (Central Daylight Time),588642.1000000238,025_y_m_d_a.png,I,m,1396,10,1,2412.5,586229.6000000238,8040,VNB,C,8
5,test,2,0.0,2-Back,0,m,Mon May 19 2025 16:59:03 GMT-0500 (Central Daylight Time),590908.1000000238,014_m_m_n_a.png,I,z,1236,11,1,2262.100000023842,588646.0,8040,VNB,C,9
5,test,2,0.0,2-Back,0,m,Mon May 19 2025 16:59:03 GMT-0500 (Central Daylight Time),593607.2000000477,019_m_f_h_a.png,I,z,1674,12,1,2694.7999999523163,590912.4000000954,8040,VNB,C,10
5,test,2,1.0,2-Back,0,z,Mon May 19 2025 16:59:03 GMT-0500 (Central Daylight Time),595956.4000000954,015_o_m_n_a.png,I,m,1319,13,1,2345.5,593610.9000000954,8040,VNB,C,11
6,test,2,0.0,2-Back,1,m,Mon May 19 2025 16:59:03 GMT-0500 (Central Daylight Time),598355.7000000477,012_o_f_d_a.png,I,m,1378,14,1,2395.7000000476837,595960.0,8040,VNB,C,12
7,test,2,0.0,2-Back,1,m,Mon May 19 2025 16:59:03 GMT-0500 (Central Daylight Time),600871.6000000238,022_y_f_h_a.png,I,m,1482,15,1,2512.0,598359.6000000238,8040,VNB,C,13
8,test,2,0.0,2-Back,1,z,Mon May 19 2025 16:59:03 GMT-0500 (Central Daylight Time),602921.0,014_m_m_d_a.png,I,z,1023,16,1,2045.5999999046326,600875.4000000954,8040,VNB,C,14
9,test,2,0.0,2-Back,1,m,Mon May 19 2025 16:59:03 GMT-0500 (Central Daylight Time),605170.2000000477,025_y_m_n_a.png,I,m,1221,17,1,2245.0,602925.2000000477,8040,VNB,C,15
10,test,2,1.0,2-Back,1,m,Mon May 19 2025 16:59:03 GMT-0500 (Central Daylight Time),607752.5,019_m_f_n_a.png,I,m,1564,18,1,2578.2999999523163,605174.2000000477,8040,VNB,C,16
0,test,3,1.0,2-Back,,,Mon May 19 2025 16:59:03 GMT-0500 (Central Daylight Time),607752.5,015_o_m_n_a.png,I,space,3902,1,1,2578.2999999523163,605174.2000000477,8040,VNB,C,0
0,test,3,1.0,2-Back,,,Mon May 19 2025 16:59:03 GMT-0500 (Central Daylight Time),607752.5,012_o_f_d_a.png,I,space,3902,2,1,2578.2999999523163,605174.2000000477,8040,VNB,C,0
1,test,3,0.0,2-Back,1,m,Mon May 19 2025 16:59:03 GMT-0500 (Central Daylight Time),618999.1000000238,022_y_f_h_a.png,I,m,1249,3,1,2278.5,616720.6000000238,8040,VNB,C,1
2,test,3,0.0,2-Back,1,z,Mon May 19 2025 16:59:03 GMT-0500 (Central Daylight Time),620998.6000000238,019_m_f_d_a.png,I,z,975,4,1,1994.6999999284744,619003.9000000954,8040,VNB,C,2
3,test,3,1.0,2-Back,1,m,Mon May 19 2025 16:59:03 GMT-0500 (Central Daylight Time),623331.2000000477,025_y_m_n_a.png,I,m,1304,5,1,2327.600000023842,621003.6000000238,8040,VNB,C,3
4,test,3,0.0,2-Back,1,m,Mon May 19 2025 16:59:03 GMT-0500 (Central Daylight Time),625647.3000000715,015_o_m_h_a.png,I,m,1290,6,1,2311.5,623335.8000000715,8040,VNB,C,4
5,test,3,0.0,2-Back,1,z,Mon May 19 2025 16:59:03 GMT-0500 (Central Daylight Time),627846.5,022_y_f_n_a.png,I,z,1167,7,1,2194.899999976158,625651.6000000238,8040,VNB,C,5
6,test,3,1.0,2-Back,1,m,Mon May 19 2025 16:59:03 GMT-0500 (Central Daylight Time),630145.6000000238,014_m_m_d_a.png,I,m,1279,8,1,2295.1999999284744,627850.4000000954,8040,VNB,C,6
6,test,3,0.0,2-Back,0,m,Mon May 19 2025 16:59:03 GMT-0500 (Central Daylight Time),632578.4000000954,025_y_m_d_a.png,I,z,1412,9,1,2428.5,630149.9000000954,8040,VNB,C,7
7,test,3,0.0,2-Back,1,m,Mon May 19 2025 16:59:03 GMT-0500 (Central Daylight Time),635111.0,012_o_f_h_a.png,I,m,1508,10,1,2528.6999999284744,632582.3000000715,8040,VNB,C,8
8,test,3,1.0,2-Back,1,m,Mon May 19 2025 16:59:03 GMT-0500 (Central Daylight Time),637660.0,019_m_f_n_a.png,I,m,1527,11,1,2545.5999999046326,635114.4000000954,8040,VNB,C,9
8,test,3,1.0,2-Back,0,z,Mon May 19 2025 16:59:03 GMT-0500 (Central Daylight Time),640042.7000000477,014_m_m_h_a.png,I,m,1354,12,1,2378.399999976158,637664.3000000715,8040,VNB,C,10
9,test,3,0.0,2-Back,1,m,Mon May 19 2025 16:59:03 GMT-0500 (Central Daylight Time),642491.9000000954,022_y_f_d_a.png,I,m,1428,13,1,2445.4000000953674,640046.5,8040,VNB,C,11
9,test,3,0.0,2-Back,0,m,Mon May 19 2025 16:59:03 GMT-0500 (Central Daylight Time),644607.8000000715,012_o_f_n_a.png,I,z,1098,14,1,2112.7000000476837,642495.1000000238,8040,VNB,C,12
9,test,3,0.0,2-Back,0,z,Mon May 19 2025 16:59:03 GMT-0500 (Central Daylight Time),646790.5,015_o_m_d_a.png,I,m,1158,15,1,2178.5,644612.0,8040,VNB,C,13
10,test,3,1.0,2-Back,1,m,Mon May 19 2025 16:59:03 GMT-0500 (Central Daylight Time),649040.0,019_m_f_h_a.png,I,m,1223,16,1,2245.5,646794.5,8040,VNB,C,14
11,test,3,0.0,2-Back,1,m,Mon May 19 2025 16:59:03 GMT-0500 (Central Daylight Time),651472.3000000715,014_m_m_n_a.png,I,m,1406,17,1,2427.600000023842,649044.7000000477,8040,VNB,C,15
12,test,3,0.0,2-Back,1,z,Mon May 19 2025 16:59:03 GMT-0500 (Central Daylight Time),653804.9000000954,025_y_m_h_a.png,I,z,1310,18,1,2328.9000000953674,651476.0,8040,VNB,C,16
0,test,4,0.0,2-Back,,,Mon May 19 2025 16:59:03 GMT-0500 (Central Daylight Time),653804.9000000954,019_m_f_n_a.png,I,space,3897,1,1,2328.9000000953674,651476.0,8040,VNB,C,0
0,test,4,0.0,2-Back,,,Mon May 19 2025 16:59:03 GMT-0500 (Central Daylight Time),653804.9000000954,015_o_m_n_a.png,I,space,3897,2,1,2328.9000000953674,651476.0,8040,VNB,C,0
1,test,4,1.0,2-Back,1,m,Mon May 19 2025 16:59:03 GMT-0500 (Central Daylight Time),665167.9000000954,025_y_m_h_a.png,I,m,1148,3,1,2161.5,663006.4000000954,8040,VNB,C,1
2,test,4,1.0,2-Back,1,m,Mon May 19 2025 16:59:03 GMT-0500 (Central Daylight Time),667318.5,012_o_f_d_a.png,I,m,1118,4,1,2147.0999999046326,665171.4000000954,8040,VNB,C,2
3,test,4,0.0,2-Back,1,z,Mon May 19 2025 16:59:03 GMT-0500 (Central Daylight Time),669666.9000000954,015_o_m_h_a.png,I,z,1329,5,1,2344.0,667322.9000000954,8040,VNB,C,3
4,test,4,0.0,2-Back,1,m,Mon May 19 2025 16:59:03 GMT-0500 (Central Daylight Time),672149.2000000477,014_m_m_n_a.png,I,m,1451,6,1,2478.7999999523163,669670.4000000954,8040,VNB,C,4
5,test,4,0.0,2-Back,1,m,Mon May 19 2025 16:59:03 GMT-0500 (Central Daylight Time),674531.9000000954,019_m_f_d_a.png,I,m,1361,7,1,2378.4000000953674,672153.5,8040,VNB,C,5
5,test,4,0.0,2-Back,0,z,Mon May 19 2025 16:59:03 GMT-0500 (Central Daylight Time),676897.8000000715,022_y_f_n_a.png,I,m,1338,8,1,2361.899999976158,674535.9000000954,8040,VNB,C,6
6,test,4,1.0,2-Back,1,m,Mon May 19 2025 16:59:03 GMT-0500 (Central Daylight Time),679330.2000000477,012_o_f_h_a.png,I,m,1405,9,1,2428.600000023842,676901.6000000238,8040,VNB,C,7
6,test,4,0.0,2-Back,0,m,Mon May 19 2025 16:59:03 GMT-0500 (Central Daylight Time),681829.4000000954,014_m_m_h_a.png,I,z,1476,10,1,2495.3000000715256,679334.1000000238,8040,VNB,C,8
7,test,4,0.0,2-Back,1,m,Mon May 19 2025 16:59:03 GMT-0500 (Central Daylight Time),684145.4000000954,022_y_f_d_a.png,I,m,1289,11,1,2312.600000023842,681832.8000000715,8040,VNB,C,9
8,test,4,0.0,2-Back,1,m,Mon May 19 2025 16:59:03 GMT-0500 (Central Daylight Time),686778.2000000477,025_y_m_n_a.png,I,m,1605,12,1,2628.899999976158,684149.3000000715,8040,VNB,C,10
9,test,4,0.0,2-Back,1,z,Mon May 19 2025 16:59:03 GMT-0500 (Central Daylight Time),689110.6000000238,015_o_m_d_a.png,I,z,1300,13,1,2328.600000023842,686782.0,8040,VNB,C,11
10,test,4,1.0,2-Back,1,m,Mon May 19 2025 16:59:03 GMT-0500 (Central Daylight Time),691226.6000000238,019_m_f_h_a.png,I,m,1095,14,1,2111.6999999284744,689114.9000000954,8040,VNB,C,12
11,test,4,1.0,2-Back,1,m,Mon May 19 2025 16:59:03 GMT-0500 (Central Daylight Time),693609.3000000715,022_y_f_h_a.png,I,m,1364,15,1,2379.2000000476837,691230.1000000238,8040,VNB,C,13
12,test,4,0.0,2-Back,1,m,Mon May 19 2025 16:59:03 GMT-0500 (Central Daylight Time),696125.1000000238,012_o_f_n_a.png,I,m,1485,16,1,2512.1999999284744,693612.9000000954,8040,VNB,C,14
13,test,4,0.0,2-Back,1,m,Mon May 19 2025 16:59:03 GMT-0500 (Central Daylight Time),698724.2000000477,025_y_m_d_a.png,I,m,1577,17,1,2595.2999999523163,696128.9000000954,8040,VNB,C,15
13,test,4,1.0,2-Back,0,m,Mon May 19 2025 16:59:03 GMT-0500 (Central Daylight Time),701056.8000000715,014_m_m_d_a.png,I,z,1306,18,1,2328.600000023842,698728.2000000477,8040,VNB,C,16
0,test,5,1.0,2-Back,,,Mon May 19 2025 16:59:03 GMT-0500 (Central Daylight Time),701056.8000000715,022_y_f_d_a.png,I,space,4045,1,1,2328.600000023842,698728.2000000477,8040,VNB,C,0
0,test,5,1.0,2-Back,,,Mon May 19 2025 16:59:03 GMT-0500 (Central Daylight Time),701056.8000000715,012_o_f_h_a.png,I,space,4045,2,1,2328.600000023842,698728.2000000477,8040,VNB,C,0
1,test,5,1.0,2-Back,1,z,Mon May 19 2025 16:59:03 GMT-0500 (Central Daylight Time),712170.1000000238,015_o_m_d_a.png,I,z,738,3,1,1761.8999999761581,710408.2000000477,8040,VNB,C,1
2,test,5,1.0,2-Back,1,m,Mon May 19 2025 16:59:03 GMT-0500 (Central Daylight Time),714319.3000000715,019_m_f_n_a.png,I,m,1124,4,1,2145.899999976158,712173.4000000954,8040,VNB,C,2
3,test,5,0.0,2-Back,1,m,Mon May 19 2025 16:59:03 GMT-0500 (Central Daylight Time),716551.6000000238,014_m_m_h_a.png,I,m,1215,5,1,2228.1999999284744,714323.4000000954,8040,VNB,C,3
4,test,5,0.0,2-Back,1,z,Mon May 19 2025 16:59:03 GMT-0500 (Central Daylight Time),719185.5,022_y_f_n_a.png,I,z,1614,6,1,2629.7999999523163,716555.7000000477,8040,VNB,C,4
5,test,5,0.0,2-Back,1,m,Mon May 19 2025 16:59:03 GMT-0500 (Central Daylight Time),721650.4000000954,012_o_f_d_a.png,I,m,1446,7,1,2460.9000000953674,719189.5,8040,VNB,C,5
6,test,5,0.0,2-Back,1,m,Mon May 19 2025 16:59:03 GMT-0500 (Central Daylight Time),724283.0,015_o_m_h_a.png,I,m,1604,8,1,2628.2999999523163,721654.7000000477,8040,VNB,C,6
6,test,5,1.0,2-Back,0,z,Mon May 19 2025 16:59:03 GMT-0500 (Central Daylight Time),726848.8000000715,019_m_f_d_a.png,I,m,1547,9,1,2562.399999976158,724286.4000000954,8040,VNB,C,7
7,test,5,0.0,2-Back,1,m,Mon May 19 2025 16:59:03 GMT-0500 (Central Daylight Time),729347.7000000477,025_y_m_n_a.png,I,m,1477,10,1,2495.0,726852.7000000477,8040,VNB,C,8
7,test,5,0.0,2-Back,0,m,Mon May 19 2025 16:59:03 GMT-0500 (Central Daylight Time),731780.7000000477,014_m_m_n_a.png,I,z,1402,11,1,2429.5,729351.2000000477,8040,VNB,C,9
8,test,5,0.0,2-Back,1,m,Mon May 19 2025 16:59:03 GMT-0500 (Central Daylight Time),734113.1000000238,022_y_f_h_a.png,I,m,1314,12,1,2328.899999976158,731784.2000000477,8040,VNB,C,10
9,test,5,0.0,2-Back,1,m,Mon May 19 2025 16:59:03 GMT-0500 (Central Daylight Time),736545.7000000477,025_y_m_d_a.png,I,m,1405,13,1,2429.2999999523163,734116.4000000954,8040,VNB,C,11
9,test,5,1.0,2-Back,0,z,Mon May 19 2025 16:59:03 GMT-0500 (Central Daylight Time),738895.1000000238,019_m_f_h_a.png,I,m,1332,14,1,2345.7999999523163,736549.3000000715,8040,VNB,C,12
10,test,5,0.0,2-Back,1,m,Mon May 19 2025 16:59:03 GMT-0500 (Central Daylight Time),741394.4000000954,015_o_m_n_a.png,I,m,1471,15,1,2495.9000000953674,738898.5,8040,VNB,C,13
11,test,5,0.0,2-Back,1,m,Mon May 19 2025 16:59:03 GMT-0500 (Central Daylight Time),743743.3000000715,014_m_m_d_a.png,I,m,1317,16,1,2344.899999976158,741398.4000000954,8040,VNB,C,14
12,test,5,0.0,2-Back,1,z,Mon May 19 2025 16:59:03 GMT-0500 (Central Daylight Time),745876.1000000238,012_o_f_n_a.png,I,z,1071,17,1,2128.6999999284744,743747.4000000954,8040,VNB,C,15
13,test,5,1.0,2-Back,1,m,Mon May 19 2025 16:59:03 GMT-0500 (Central Daylight Time),748325.6000000238,025_y_m_h_a.png,I,m,1418,18,1,2445.600000023842,745880.0,8040,VNB,C,16
