block_c,block_dur,condition,countdown,datetime,endtime,list,multichar_response,project,response,response_time,session_number,start_end,starttime,subject_id,task,task_vers,trial
,,,,Wed Jul 16 2025 18:52:09 GMT-0500 (Central Daylight Time),,,,I,space,460,1,,,8060,WL,A,
prac,,0,,Wed Jul 16 2025 18:52:09 GMT-0500 (Central Daylight Time),,NA,b,I,b,5277,1,,,8060,WL,A,1.0
prac,,0,,Wed Jul 16 2025 18:52:09 GMT-0500 (Central Daylight Time),,NA,bo,I,o,245,1,,,8060,WL,A,1.0
prac,,0,,Wed Jul 16 2025 18:52:09 GMT-0500 (Central Daylight Time),,NA,boo,I,o,228,1,,,8060,WL,A,1.0
prac,,0,,Wed Jul 16 2025 18:52:09 GMT-0500 (Central Daylight Time),,NA,boos,I,s,251,1,,,8060,WL,A,1.0
prac,,0,,Wed Jul 16 2025 18:52:09 GMT-0500 (Central Daylight Time),,NA,boost,I,t,257,1,,,8060,WL,A,1.0
prac,,0,,Wed Jul 16 2025 18:52:09 GMT-0500 (Central Daylight Time),,NA,boostenter,I,enter,2942,1,,,8060,WL,A,1.0
1,1.065999984741211,learn,58934.00001525879,Wed Jul 16 2025 18:52:09 GMT-0500 (Central Daylight Time),148103.29999995232,A,b,I,b,1055,1,1066.0,147037.29999995232,8060,WL,A,1.0
1,1.315999984741211,learn,58684.00001525879,Wed Jul 16 2025 18:52:09 GMT-0500 (Central Daylight Time),148352.89999997616,A,bo,I,o,228,1,1315.6000000238419,147037.29999995232,8060,WL,A,1.0
1,1.4500000476837158,learn,58549.999952316284,Wed Jul 16 2025 18:52:09 GMT-0500 (Central Daylight Time),148486.39999997616,A,boo,I,o,122,1,1449.1000000238419,147037.29999995232,8060,WL,A,1.0
1,2.200000047683716,learn,57799.999952316284,Wed Jul 16 2025 18:52:09 GMT-0500 (Central Daylight Time),149236.39999997616,A,book,I,k,741,1,2199.100000023842,147037.29999995232,8060,WL,A,1.0
1,2.4830000400543213,learn,57516.99995994568,Wed Jul 16 2025 18:52:09 GMT-0500 (Central Daylight Time),149519.5,A,bookenter,I,enter,271,1,2482.2000000476837,147037.29999995232,8060,WL,A,1.0
1,2.881999969482422,learn,57118.00003051758,Wed Jul 16 2025 18:52:09 GMT-0500 (Central Daylight Time),149919.29999995232,A,f,I,f,388,1,399.2999999523163,149520.0,8060,WL,A,2.0
1,2.9489998817443848,learn,57051.000118255615,Wed Jul 16 2025 18:52:09 GMT-0500 (Central Daylight Time),149986.19999998808,A,fl,I,l,52,1,466.19999998807907,149520.0,8060,WL,A,2.0
1,3.1500000953674316,learn,56849.99990463257,Wed Jul 16 2025 18:52:09 GMT-0500 (Central Daylight Time),150187.09999996424,A,flo,I,o,194,1,667.0999999642372,149520.0,8060,WL,A,2.0
1,3.2319998741149902,learn,56768.00012588501,Wed Jul 16 2025 18:52:09 GMT-0500 (Central Daylight Time),150269.29999995232,A,flow,I,w,72,1,749.2999999523163,149520.0,8060,WL,A,2.0
1,3.4149999618530273,learn,56585.00003814697,Wed Jul 16 2025 18:52:09 GMT-0500 (Central Daylight Time),150452.29999995232,A,flowe,I,e,167,1,932.2999999523163,149520.0,8060,WL,A,2.0
1,3.5490000247955322,learn,56450.99997520447,Wed Jul 16 2025 18:52:09 GMT-0500 (Central Daylight Time),150585.69999998808,A,flower,I,r,127,1,1065.699999988079,149520.0,8060,WL,A,2.0
1,3.8320000171661377,learn,56167.99998283386,Wed Jul 16 2025 18:52:09 GMT-0500 (Central Daylight Time),150869.09999996424,A,flowerenter,I,enter,274,1,1349.0999999642372,149520.0,8060,WL,A,2.0
1,4.198999881744385,learn,55801.000118255615,Wed Jul 16 2025 18:52:09 GMT-0500 (Central Daylight Time),151235.39999997616,A,t,I,t,359,1,365.80000001192093,150869.59999996424,8060,WL,A,3.0
1,4.381999969482422,learn,55618.00003051758,Wed Jul 16 2025 18:52:09 GMT-0500 (Central Daylight Time),151418.69999998808,A,tr,I,r,168,1,549.1000000238419,150869.59999996424,8060,WL,A,3.0
1,4.448999881744385,learn,55551.000118255615,Wed Jul 16 2025 18:52:09 GMT-0500 (Central Daylight Time),151485.59999996424,A,tra,I,a,49,1,616.0,150869.59999996424,8060,WL,A,3.0
1,4.549000024795532,learn,55450.99997520447,Wed Jul 16 2025 18:52:09 GMT-0500 (Central Daylight Time),151585.39999997616,A,trai,I,i,94,1,715.8000000119209,150869.59999996424,8060,WL,A,3.0
1,4.749000072479248,learn,55250.99992752075,Wed Jul 16 2025 18:52:09 GMT-0500 (Central Daylight Time),151785.59999996424,A,train,I,n,179,1,916.0,150869.59999996424,8060,WL,A,3.0
1,4.931999921798706,learn,55068.000078201294,Wed Jul 16 2025 18:52:09 GMT-0500 (Central Daylight Time),151968.59999996424,A,trainenter,I,enter,162,1,1099.0,150869.59999996424,8060,WL,A,3.0
1,5.148000001907349,learn,54851.99999809265,Wed Jul 16 2025 18:52:09 GMT-0500 (Central Daylight Time),152185.29999995232,A,r,I,r,195,1,216.19999998807907,151969.09999996424,8060,WL,A,4.0
1,5.29800009727478,learn,54701.99990272522,Wed Jul 16 2025 18:52:09 GMT-0500 (Central Daylight Time),152335.19999998808,A,ru,I,u,139,1,366.10000002384186,151969.09999996424,8060,WL,A,4.0
1,6.815000057220459,learn,53184.99994277954,Wed Jul 16 2025 18:52:09 GMT-0500 (Central Daylight Time),153851.39999997616,A,rug,I,g,1501,1,1882.300000011921,151969.09999996424,8060,WL,A,4.0
1,6.997999906539917,learn,53002.00009346008,Wed Jul 16 2025 18:52:09 GMT-0500 (Central Daylight Time),154034.79999995232,A,rugenter,I,enter,177,1,2065.699999988079,151969.09999996424,8060,WL,A,4.0
1,7.398000001907349,learn,52601.99999809265,Wed Jul 16 2025 18:52:09 GMT-0500 (Central Daylight Time),154434.5,A,c,I,c,385,1,399.2000000476837,154035.29999995232,8060,WL,A,5.0
1,8.147000074386597,learn,51852.9999256134,Wed Jul 16 2025 18:52:09 GMT-0500 (Central Daylight Time),155184.29999995232,A,ch,I,h,738,1,1149.0,154035.29999995232,8060,WL,A,5.0
1,8.313999891281128,learn,51686.00010871887,Wed Jul 16 2025 18:52:09 GMT-0500 (Central Daylight Time),155351.0,A,chi,I,i,156,1,1315.7000000476837,154035.29999995232,8060,WL,A,5.0
1,8.563999891281128,learn,51436.00010871887,Wed Jul 16 2025 18:52:09 GMT-0500 (Central Daylight Time),155600.89999997616,A,chim,I,m,228,1,1565.6000000238419,154035.29999995232,8060,WL,A,5.0
1,8.71399998664856,learn,51286.00001335144,Wed Jul 16 2025 18:52:09 GMT-0500 (Central Daylight Time),155750.69999998808,A,chime,I,e,139,1,1715.4000000357628,154035.29999995232,8060,WL,A,5.0
1,8.864000082015991,learn,51135.99991798401,Wed Jul 16 2025 18:52:09 GMT-0500 (Central Daylight Time),155900.89999997616,A,chimen,I,n,142,1,1865.6000000238419,154035.29999995232,8060,WL,A,5.0
1,9.096999883651733,learn,50903.00011634827,Wed Jul 16 2025 18:52:09 GMT-0500 (Central Daylight Time),156134.19999998808,A,chimeny,I,y,223,1,2098.900000035763,154035.29999995232,8060,WL,A,5.0
1,11.879999876022339,learn,48120.00012397766,Wed Jul 16 2025 18:52:09 GMT-0500 (Central Daylight Time),158916.29999995232,A,chimenyenter,I,enter,2774,1,4881.0,154035.29999995232,8060,WL,A,5.0
1,13.546000003814697,learn,46453.9999961853,Wed Jul 16 2025 18:52:09 GMT-0500 (Central Daylight Time),160582.59999996424,A,g,I,g,1655,1,1665.699999988079,158916.89999997616,8060,WL,A,6.0
1,13.678999900817871,learn,46321.00009918213,Wed Jul 16 2025 18:52:09 GMT-0500 (Central Daylight Time),160716.0,A,go,I,o,116,1,1799.1000000238419,158916.89999997616,8060,WL,A,6.0
1,13.845999956130981,learn,46154.00004386902,Wed Jul 16 2025 18:52:09 GMT-0500 (Central Daylight Time),160882.5,A,gol,I,l,160,1,1965.6000000238419,158916.89999997616,8060,WL,A,6.0
1,13.94599986076355,learn,46054.00013923645,Wed Jul 16 2025 18:52:09 GMT-0500 (Central Daylight Time),160982.5,A,gold,I,d,90,1,2065.600000023842,158916.89999997616,8060,WL,A,6.0
1,14.19599986076355,learn,45804.00013923645,Wed Jul 16 2025 18:52:09 GMT-0500 (Central Daylight Time),161232.69999998808,A,goldenter,I,enter,228,1,2315.800000011921,158916.89999997616,8060,WL,A,6.0
1,14.944999933242798,learn,45055.0000667572,Wed Jul 16 2025 18:52:09 GMT-0500 (Central Daylight Time),161981.89999997616,A,r,I,r,740,1,748.8000000119209,161233.09999996424,8060,WL,A,7.0
1,15.09500002861023,learn,44904.99997138977,Wed Jul 16 2025 18:52:09 GMT-0500 (Central Daylight Time),162132.19999998808,A,ra,I,a,142,1,899.1000000238419,161233.09999996424,8060,WL,A,7.0
1,15.211999893188477,learn,44788.00010681152,Wed Jul 16 2025 18:52:09 GMT-0500 (Central Daylight Time),162249.09999996424,A,rat,I,t,104,1,1016.0,161233.09999996424,8060,WL,A,7.0
1,15.361999988555908,learn,44638.00001144409,Wed Jul 16 2025 18:52:09 GMT-0500 (Central Daylight Time),162399.0,A,ratt,I,t,139,1,1165.9000000357628,161233.09999996424,8060,WL,A,7.0
1,15.711999893188477,learn,44288.00010681152,Wed Jul 16 2025 18:52:09 GMT-0500 (Central Daylight Time),162748.79999995232,A,ratte,I,e,341,1,1515.699999988079,161233.09999996424,8060,WL,A,7.0
1,16.062000036239624,learn,43937.999963760376,Wed Jul 16 2025 18:52:09 GMT-0500 (Central Daylight Time),163098.5,A,ratt,I,backspace,335,1,1865.4000000357628,161233.09999996424,8060,WL,A,7.0
1,16.312000036239624,learn,43687.999963760376,Wed Jul 16 2025 18:52:09 GMT-0500 (Central Daylight Time),163348.39999997616,A,rattl,I,l,241,1,2115.300000011921,161233.09999996424,8060,WL,A,7.0
1,16.477999925613403,learn,43522.0000743866,Wed Jul 16 2025 18:52:09 GMT-0500 (Central Daylight Time),163515.09999996424,A,rattle,I,e,152,1,2282.0,161233.09999996424,8060,WL,A,7.0
1,16.810999870300293,learn,43189.00012969971,Wed Jul 16 2025 18:52:09 GMT-0500 (Central Daylight Time),163848.29999995232,A,rattleenter,I,enter,313,1,2615.199999988079,161233.09999996424,8060,WL,A,7.0
1,28.44099998474121,learn,31559.00001525879,Wed Jul 16 2025 18:52:09 GMT-0500 (Central Daylight Time),175478.09999996424,A,m,I,m,11612,1,11629.399999976158,163848.69999998808,8060,WL,A,8.0
1,28.506999969482422,learn,31493.000030517578,Wed Jul 16 2025 18:52:09 GMT-0500 (Central Daylight Time),175544.59999996424,A,me,I,e,54,1,11695.899999976158,163848.69999998808,8060,WL,A,8.0
1,28.60699987411499,learn,31393.00012588501,Wed Jul 16 2025 18:52:09 GMT-0500 (Central Daylight Time),175644.59999996424,A,mea,I,a,92,1,11795.899999976158,163848.69999998808,8060,WL,A,8.0
1,28.83999991416931,learn,31160.00008583069,Wed Jul 16 2025 18:52:09 GMT-0500 (Central Daylight Time),175877.89999997616,A,mead,I,d,224,1,12029.199999988079,163848.69999998808,8060,WL,A,8.0
1,29.157000064849854,learn,30842.999935150146,Wed Jul 16 2025 18:52:09 GMT-0500 (Central Daylight Time),176194.19999998808,A,meado,I,o,302,1,12345.5,163848.69999998808,8060,WL,A,8.0
1,29.407000064849854,learn,30592.999935150146,Wed Jul 16 2025 18:52:09 GMT-0500 (Central Daylight Time),176444.19999998808,A,meadow,I,w,242,1,12595.5,163848.69999998808,8060,WL,A,8.0
1,29.674000024795532,learn,30325.999975204468,Wed Jul 16 2025 18:52:09 GMT-0500 (Central Daylight Time),176711.09999996424,A,meadowenter,I,enter,256,1,12862.399999976158,163848.69999998808,8060,WL,A,8.0
1,39.187000036239624,learn,20812.999963760376,Wed Jul 16 2025 18:52:09 GMT-0500 (Central Daylight Time),186224.5,A,k,I,k,9501,1,9513.0,176711.5,8060,WL,A,9.0
1,39.30399990081787,learn,20696.00009918213,Wed Jul 16 2025 18:52:09 GMT-0500 (Central Daylight Time),186341.39999997616,A,ke,I,e,99,1,9629.899999976158,176711.5,8060,WL,A,9.0
1,39.48699998855591,learn,20513.00001144409,Wed Jul 16 2025 18:52:09 GMT-0500 (Central Daylight Time),186524.5,A,key,I,y,175,1,9813.0,176711.5,8060,WL,A,9.0
1,39.88700008392334,learn,20112.99991607666,Wed Jul 16 2025 18:52:09 GMT-0500 (Central Daylight Time),186924.59999996424,A,keyenter,I,enter,392,1,10213.099999964237,176711.5,8060,WL,A,9.0
1,56.98099994659424,learn,3019.0000534057617,Wed Jul 16 2025 18:52:09 GMT-0500 (Central Daylight Time),204018.89999997616,A,g,I,g,17088,1,17094.0,186924.89999997616,8060,WL,A,10.0
1,57.14800000190735,learn,2851.9999980926514,Wed Jul 16 2025 18:52:09 GMT-0500 (Central Daylight Time),204185.59999996424,A,go,I,o,146,1,17260.69999998808,186924.89999997616,8060,WL,A,10.0
1,57.36500000953674,learn,2634.999990463257,Wed Jul 16 2025 18:52:09 GMT-0500 (Central Daylight Time),204402.0,A,gol,I,l,211,1,17477.100000023842,186924.89999997616,8060,WL,A,10.0
1,57.41499996185303,learn,2585.0000381469727,Wed Jul 16 2025 18:52:09 GMT-0500 (Central Daylight Time),204452.09999996424,A,gold,I,d,35,1,17527.19999998808,186924.89999997616,8060,WL,A,10.0
1,59.14800000190735,learn,851.9999980926514,Wed Jul 16 2025 18:52:09 GMT-0500 (Central Daylight Time),206185.19999998808,A,goldenter,I,enter,1713,1,19260.30000001192,186924.89999997616,8060,WL,A,10.0
1,60.013999938964844,learn,-13.99993896484375,Wed Jul 16 2025 18:52:09 GMT-0500 (Central Daylight Time),207051.39999997616,A,None,I,None,861,1,865.8999999761581,206185.5,8060,WL,A,11.0
2,0.7170000076293945,learn,59282.999992370605,Wed Jul 16 2025 18:52:09 GMT-0500 (Central Daylight Time),278695.6999999881,A,b,I,b,705,1,716.8000000119209,277978.89999997616,8060,WL,A,1.0
2,0.9670000076293945,learn,59032.999992370605,Wed Jul 16 2025 18:52:09 GMT-0500 (Central Daylight Time),278945.7999999523,A,bo,I,o,227,1,966.8999999761581,277978.89999997616,8060,WL,A,1.0
2,1.1499998569488525,learn,58850.00014305115,Wed Jul 16 2025 18:52:09 GMT-0500 (Central Daylight Time),279128.6999999881,A,boo,I,o,162,1,1149.800000011921,277978.89999997616,8060,WL,A,1.0
2,1.366999864578247,learn,58633.00013542175,Wed Jul 16 2025 18:52:09 GMT-0500 (Central Daylight Time),279345.39999997616,A,book,I,k,204,1,1366.5,277978.89999997616,8060,WL,A,1.0
2,1.866999864578247,learn,58133.00013542175,Wed Jul 16 2025 18:52:09 GMT-0500 (Central Daylight Time),279845.2999999523,A,bookenter,I,enter,491,1,1866.3999999761581,277978.89999997616,8060,WL,A,1.0
2,2.25,learn,57750.0,Wed Jul 16 2025 18:52:09 GMT-0500 (Central Daylight Time),280228.39999997616,A,f,I,f,367,1,382.69999998807907,279845.6999999881,8060,WL,A,2.0
2,2.4830000400543213,learn,57516.99995994568,Wed Jul 16 2025 18:52:09 GMT-0500 (Central Daylight Time),280461.39999997616,A,fl,I,l,216,1,615.6999999880791,279845.6999999881,8060,WL,A,2.0
2,2.6659998893737793,learn,57334.00011062622,Wed Jul 16 2025 18:52:09 GMT-0500 (Central Daylight Time),280645.0,A,flo,I,o,175,1,799.3000000119209,279845.6999999881,8060,WL,A,2.0
2,2.7660000324249268,learn,57233.99996757507,Wed Jul 16 2025 18:52:09 GMT-0500 (Central Daylight Time),280745.0,A,flow,I,w,87,1,899.3000000119209,279845.6999999881,8060,WL,A,2.0
2,2.882999897003174,learn,57117.000102996826,Wed Jul 16 2025 18:52:09 GMT-0500 (Central Daylight Time),280861.5,A,flowe,I,e,107,1,1015.8000000119209,279845.6999999881,8060,WL,A,2.0
2,3.065999984741211,learn,56934.00001525879,Wed Jul 16 2025 18:52:09 GMT-0500 (Central Daylight Time),281044.89999997616,A,flower,I,r,167,1,1199.199999988079,279845.6999999881,8060,WL,A,2.0
2,3.1989998817443848,learn,56801.000118255615,Wed Jul 16 2025 18:52:09 GMT-0500 (Central Daylight Time),281177.7999999523,A,flowerenter,I,enter,127,1,1332.0999999642372,279845.6999999881,8060,WL,A,2.0
2,3.382999897003174,learn,56617.000102996826,Wed Jul 16 2025 18:52:09 GMT-0500 (Central Daylight Time),281361.1999999881,A,t,I,t,170,1,183.10000002384186,281178.09999996424,8060,WL,A,3.0
2,3.5829999446868896,learn,56417.00005531311,Wed Jul 16 2025 18:52:09 GMT-0500 (Central Daylight Time),281561.2999999523,A,tr,I,r,179,1,383.19999998807907,281178.09999996424,8060,WL,A,3.0
2,3.6659998893737793,learn,56334.00011062622,Wed Jul 16 2025 18:52:09 GMT-0500 (Central Daylight Time),281644.59999996424,A,tra,I,a,67,1,466.5,281178.09999996424,8060,WL,A,3.0
2,3.8329999446868896,learn,56167.00005531311,Wed Jul 16 2025 18:52:09 GMT-0500 (Central Daylight Time),281811.1999999881,A,trai,I,i,160,1,633.1000000238419,281178.09999996424,8060,WL,A,3.0
2,4.0329999923706055,learn,55967.000007629395,Wed Jul 16 2025 18:52:09 GMT-0500 (Central Daylight Time),282011.2999999523,A,train,I,n,185,1,833.1999999880791,281178.09999996424,8060,WL,A,3.0
2,4.549000024795532,learn,55450.99997520447,Wed Jul 16 2025 18:52:09 GMT-0500 (Central Daylight Time),282527.59999996424,A,trainenter,I,enter,505,1,1349.5,281178.09999996424,8060,WL,A,3.0
2,4.98199987411499,learn,55018.00012588501,Wed Jul 16 2025 18:52:09 GMT-0500 (Central Daylight Time),282960.89999997616,A,r,I,r,421,1,433.0,282527.89999997616,8060,WL,A,4.0
2,5.198999881744385,learn,54801.000118255615,Wed Jul 16 2025 18:52:09 GMT-0500 (Central Daylight Time),283177.39999997616,A,ru,I,u,203,1,649.5,282527.89999997616,8060,WL,A,4.0
2,5.448999881744385,learn,54551.000118255615,Wed Jul 16 2025 18:52:09 GMT-0500 (Central Daylight Time),283427.1999999881,A,rug,I,g,235,1,899.3000000119209,282527.89999997616,8060,WL,A,4.0
2,5.648999929428101,learn,54351.0000705719,Wed Jul 16 2025 18:52:09 GMT-0500 (Central Daylight Time),283627.39999997616,A,rugenter,I,enter,193,1,1099.5,282527.89999997616,8060,WL,A,4.0
2,6.07699990272522,learn,53923.00009727478,Wed Jul 16 2025 18:52:09 GMT-0500 (Central Daylight Time),284055.7999999523,A,e,I,e,423,1,428.0999999642372,283627.6999999881,8060,WL,A,5.0
2,6.224999904632568,learn,53775.00009536743,Wed Jul 16 2025 18:52:09 GMT-0500 (Central Daylight Time),284203.1999999881,A,ea,I,a,142,1,575.5,283627.6999999881,8060,WL,A,5.0
2,6.664999961853027,learn,53335.00003814697,Wed Jul 16 2025 18:52:09 GMT-0500 (Central Daylight Time),284643.39999997616,A,e,I,backspace,433,1,1015.6999999880791,283627.6999999881,8060,WL,A,5.0
2,6.830999851226807,learn,53169.00014877319,Wed Jul 16 2025 18:52:09 GMT-0500 (Central Daylight Time),284810.09999996424,A,,I,backspace,153,1,1182.3999999761581,283627.6999999881,8060,WL,A,5.0
2,7.381999969482422,learn,52618.00003051758,Wed Jul 16 2025 18:52:09 GMT-0500 (Central Daylight Time),285360.09999996424,A,m,I,m,530,1,1732.3999999761581,283627.6999999881,8060,WL,A,5.0
2,7.4649999141693115,learn,52535.00008583069,Wed Jul 16 2025 18:52:09 GMT-0500 (Central Daylight Time),285443.2999999523,A,me,I,e,76,1,1815.5999999642372,283627.6999999881,8060,WL,A,5.0
2,7.597999811172485,learn,52402.000188827515,Wed Jul 16 2025 18:52:09 GMT-0500 (Central Daylight Time),285576.59999996424,A,mea,I,a,121,1,1948.8999999761581,283627.6999999881,8060,WL,A,5.0
2,7.881999969482422,learn,52118.00003051758,Wed Jul 16 2025 18:52:09 GMT-0500 (Central Daylight Time),285860.1999999881,A,mead,I,d,268,1,2232.5,283627.6999999881,8060,WL,A,5.0
2,8.097999811172485,learn,51902.000188827515,Wed Jul 16 2025 18:52:09 GMT-0500 (Central Daylight Time),286076.5,A,meado,I,o,208,1,2448.800000011921,283627.6999999881,8060,WL,A,5.0
2,8.38099980354309,learn,51619.00019645691,Wed Jul 16 2025 18:52:09 GMT-0500 (Central Daylight Time),286359.7999999523,A,meadow,I,w,272,1,2732.099999964237,283627.6999999881,8060,WL,A,5.0
2,8.697999954223633,learn,51302.00004577637,Wed Jul 16 2025 18:52:09 GMT-0500 (Central Daylight Time),286676.39999997616,A,meadowenter,I,enter,301,1,3048.699999988079,283627.6999999881,8060,WL,A,5.0
2,9.347999811172485,learn,50652.000188827515,Wed Jul 16 2025 18:52:09 GMT-0500 (Central Daylight Time),287326.1999999881,A,s,I,s,640,1,649.5,286676.6999999881,8060,WL,A,6.0
2,9.44700002670288,learn,50552.99997329712,Wed Jul 16 2025 18:52:09 GMT-0500 (Central Daylight Time),287426.0,A,sa,I,a,94,1,749.3000000119209,286676.6999999881,8060,WL,A,6.0
2,9.613999843597412,learn,50386.00015640259,Wed Jul 16 2025 18:52:09 GMT-0500 (Central Daylight Time),287592.89999997616,A,sal,I,l,147,1,916.1999999880791,286676.6999999881,8060,WL,A,6.0
2,9.746999979019165,learn,50253.000020980835,Wed Jul 16 2025 18:52:09 GMT-0500 (Central Daylight Time),287726.0,A,salt,I,t,124,1,1049.300000011921,286676.6999999881,8060,WL,A,6.0
2,9.980999946594238,learn,50019.00005340576,Wed Jul 16 2025 18:52:09 GMT-0500 (Central Daylight Time),287959.39999997616,A,saltenter,I,enter,214,1,1282.699999988079,286676.6999999881,8060,WL,A,6.0
2,10.29699993133545,learn,49703.00006866455,Wed Jul 16 2025 18:52:09 GMT-0500 (Central Daylight Time),288276.0,A,l,I,l,309,1,316.30000001192093,287959.6999999881,8060,WL,A,7.0
2,10.513999938964844,learn,49486.000061035156,Wed Jul 16 2025 18:52:09 GMT-0500 (Central Daylight Time),288492.39999997616,A,lo,I,o,200,1,532.6999999880791,287959.6999999881,8060,WL,A,7.0
2,10.63099980354309,learn,49369.00019645691,Wed Jul 16 2025 18:52:09 GMT-0500 (Central Daylight Time),288609.1999999881,A,log,I,g,104,1,649.5,287959.6999999881,8060,WL,A,7.0
2,10.914000034332275,learn,49085.999965667725,Wed Jul 16 2025 18:52:09 GMT-0500 (Central Daylight Time),288892.2999999523,A,logenter,I,enter,275,1,932.5999999642372,287959.6999999881,8060,WL,A,7.0
2,11.79699993133545,learn,48203.00006866455,Wed Jul 16 2025 18:52:09 GMT-0500 (Central Daylight Time),289775.1999999881,A,c,I,c,872,1,882.5,288892.6999999881,8060,WL,A,8.0
2,11.929999828338623,learn,48070.00017166138,Wed Jul 16 2025 18:52:09 GMT-0500 (Central Daylight Time),289908.59999996424,A,ch,I,h,125,1,1015.8999999761581,288892.6999999881,8060,WL,A,8.0
2,11.996999979019165,learn,48003.000020980835,Wed Jul 16 2025 18:52:09 GMT-0500 (Central Daylight Time),289975.1999999881,A,chi,I,i,56,1,1082.5,288892.6999999881,8060,WL,A,8.0
2,12.19700002670288,learn,47802.99997329712,Wed Jul 16 2025 18:52:09 GMT-0500 (Central Daylight Time),290175.2999999523,A,chim,I,m,189,1,1282.5999999642372,288892.6999999881,8060,WL,A,8.0
2,12.27999997138977,learn,47720.00002861023,Wed Jul 16 2025 18:52:09 GMT-0500 (Central Daylight Time),290258.5,A,chime,I,e,69,1,1365.800000011921,288892.6999999881,8060,WL,A,8.0
2,12.480000019073486,learn,47519.999980926514,Wed Jul 16 2025 18:52:09 GMT-0500 (Central Daylight Time),290458.39999997616,A,chimen,I,n,186,1,1565.699999988079,288892.6999999881,8060,WL,A,8.0
2,12.930999994277954,learn,47069.000005722046,Wed Jul 16 2025 18:52:09 GMT-0500 (Central Daylight Time),290909.59999996424,A,chime,I,backspace,434,1,2016.8999999761581,288892.6999999881,8060,WL,A,8.0
2,13.095999956130981,learn,46904.00004386902,Wed Jul 16 2025 18:52:09 GMT-0500 (Central Daylight Time),291075.0,A,chim,I,backspace,151,1,2182.300000011921,288892.6999999881,8060,WL,A,8.0
2,13.329999923706055,learn,46670.000076293945,Wed Jul 16 2025 18:52:09 GMT-0500 (Central Daylight Time),291308.2999999523,A,chimn,I,n,217,1,2415.599999964237,288892.6999999881,8060,WL,A,8.0
2,13.495999813079834,learn,46504.000186920166,Wed Jul 16 2025 18:52:09 GMT-0500 (Central Daylight Time),291475.0,A,chimne,I,e,152,1,2582.300000011921,288892.6999999881,8060,WL,A,8.0
2,13.628999948501587,learn,46371.00005149841,Wed Jul 16 2025 18:52:09 GMT-0500 (Central Daylight Time),291608.09999996424,A,chimney,I,y,113,1,2715.399999976158,288892.6999999881,8060,WL,A,8.0
2,14.013000011444092,learn,45986.99998855591,Wed Jul 16 2025 18:52:09 GMT-0500 (Central Daylight Time),291991.2999999523,A,chimneyenter,I,enter,372,1,3098.599999964237,288892.6999999881,8060,WL,A,8.0
2,14.895999908447266,learn,45104.000091552734,Wed Jul 16 2025 18:52:09 GMT-0500 (Central Daylight Time),292874.5,A,r,I,r,869,1,882.9000000357628,291991.59999996424,8060,WL,A,9.0
2,15.062000036239624,learn,44937.999963760376,Wed Jul 16 2025 18:52:09 GMT-0500 (Central Daylight Time),293040.89999997616,A,ra,I,a,146,1,1049.300000011921,291991.59999996424,8060,WL,A,9.0
2,15.143999814987183,learn,44856.00018501282,Wed Jul 16 2025 18:52:09 GMT-0500 (Central Daylight Time),293124.09999996424,A,rat,I,t,67,1,1132.5,291991.59999996424,8060,WL,A,9.0
2,15.312000036239624,learn,44687.999963760376,Wed Jul 16 2025 18:52:09 GMT-0500 (Central Daylight Time),293291.1999999881,A,ratt,I,t,152,1,1299.6000000238419,291991.59999996424,8060,WL,A,9.0
2,15.444999933242798,learn,44555.0000667572,Wed Jul 16 2025 18:52:09 GMT-0500 (Central Daylight Time),293424.1999999881,A,rattl,I,l,113,1,1432.6000000238419,291991.59999996424,8060,WL,A,9.0
2,15.59500002861023,learn,44404.99997138977,Wed Jul 16 2025 18:52:09 GMT-0500 (Central Daylight Time),293574.1999999881,A,rattle,I,e,140,1,1582.6000000238419,291991.59999996424,8060,WL,A,9.0
2,15.760999917984009,learn,44239.00008201599,Wed Jul 16 2025 18:52:09 GMT-0500 (Central Daylight Time),293741.0,A,rattleenter,I,enter,150,1,1749.4000000357628,291991.59999996424,8060,WL,A,9.0
2,16.128000020980835,learn,43871.999979019165,Wed Jul 16 2025 18:52:09 GMT-0500 (Central Daylight Time),294107.2999999523,A,g,I,g,352,1,366.0,293741.2999999523,8060,WL,A,10.0
2,16.26099991798401,learn,43739.00008201599,Wed Jul 16 2025 18:52:09 GMT-0500 (Central Daylight Time),294240.6999999881,A,go,I,o,113,1,499.4000000357628,293741.2999999523,8060,WL,A,10.0
2,16.477999925613403,learn,43522.0000743866,Wed Jul 16 2025 18:52:09 GMT-0500 (Central Daylight Time),294457.39999997616,A,gol,I,l,196,1,716.1000000238419,293741.2999999523,8060,WL,A,10.0
2,16.527999877929688,learn,43472.00012207031,Wed Jul 16 2025 18:52:09 GMT-0500 (Central Daylight Time),294507.1999999881,A,gold,I,d,35,1,765.9000000357628,293741.2999999523,8060,WL,A,10.0
2,16.76099991798401,learn,43239.00008201599,Wed Jul 16 2025 18:52:09 GMT-0500 (Central Daylight Time),294740.5,A,goldenter,I,enter,218,1,999.2000000476837,293741.2999999523,8060,WL,A,10.0
2,18.460000038146973,learn,41539.99996185303,Wed Jul 16 2025 18:52:09 GMT-0500 (Central Daylight Time),296439.89999997616,A,k,I,k,1688,1,1699.1000000238419,294740.7999999523,8060,WL,A,11.0
2,18.57699990272522,learn,41423.00009727478,Wed Jul 16 2025 18:52:09 GMT-0500 (Central Daylight Time),296556.39999997616,A,ke,I,e,100,1,1815.6000000238419,294740.7999999523,8060,WL,A,11.0
2,18.743000030517578,learn,41256.99996948242,Wed Jul 16 2025 18:52:09 GMT-0500 (Central Daylight Time),296723.09999996424,A,key,I,y,160,1,1982.300000011921,294740.7999999523,8060,WL,A,11.0
2,19.05999994277954,learn,40940.00005722046,Wed Jul 16 2025 18:52:09 GMT-0500 (Central Daylight Time),297039.7999999523,A,keyenter,I,enter,305,1,2299.0,294740.7999999523,8060,WL,A,11.0
2,22.691999912261963,learn,37308.00008773804,Wed Jul 16 2025 18:52:09 GMT-0500 (Central Daylight Time),300672.09999996424,A,s,I,s,3613,1,3632.0,297040.09999996424,8060,WL,A,12.0
2,22.80900001525879,learn,37190.99998474121,Wed Jul 16 2025 18:52:09 GMT-0500 (Central Daylight Time),300788.59999996424,A,sa,I,a,100,1,3748.5,297040.09999996424,8060,WL,A,12.0
2,22.991999864578247,learn,37008.00013542175,Wed Jul 16 2025 18:52:09 GMT-0500 (Central Daylight Time),300971.6999999881,A,sal,I,l,168,1,3931.600000023842,297040.09999996424,8060,WL,A,12.0
2,23.125999927520752,learn,36874.00007247925,Wed Jul 16 2025 18:52:09 GMT-0500 (Central Daylight Time),301105.2999999523,A,salt,I,t,129,1,4065.199999988079,297040.09999996424,8060,WL,A,12.0
2,23.358999967575073,learn,36641.00003242493,Wed Jul 16 2025 18:52:09 GMT-0500 (Central Daylight Time),301338.39999997616,A,saltenter,I,enter,219,1,4298.300000011921,297040.09999996424,8060,WL,A,12.0
2,27.12399983406067,learn,32876.00016593933,Wed Jul 16 2025 18:52:09 GMT-0500 (Central Daylight Time),305103.89999997616,A,l,I,l,3754,1,3765.100000023842,301338.7999999523,8060,WL,A,13.0
2,27.340999841690063,learn,32659.000158309937,Wed Jul 16 2025 18:52:09 GMT-0500 (Central Daylight Time),305320.39999997616,A,lo,I,o,204,1,3981.600000023842,301338.7999999523,8060,WL,A,13.0
2,27.457000017166138,learn,32542.999982833862,Wed Jul 16 2025 18:52:09 GMT-0500 (Central Daylight Time),305437.09999996424,A,log,I,g,100,1,4098.300000011921,301338.7999999523,8060,WL,A,13.0
2,27.924000024795532,learn,32075.999975204468,Wed Jul 16 2025 18:52:09 GMT-0500 (Central Daylight Time),305903.7999999523,A,logenter,I,enter,455,1,4565.0,301338.7999999523,8060,WL,A,13.0
2,30.972999811172485,learn,29027.000188827515,Wed Jul 16 2025 18:52:09 GMT-0500 (Central Daylight Time),308952.6999999881,A,h,I,h,3029,1,3048.600000023842,305904.09999996424,8060,WL,A,14.0
2,31.072999954223633,learn,28927.000045776367,Wed Jul 16 2025 18:52:09 GMT-0500 (Central Daylight Time),309052.59999996424,A,ha,I,a,84,1,3148.5,305904.09999996424,8060,WL,A,14.0
2,31.238999843597412,learn,28761.000156402588,Wed Jul 16 2025 18:52:09 GMT-0500 (Central Daylight Time),309219.09999996424,A,hal,I,l,152,1,3315.0,305904.09999996424,8060,WL,A,14.0
2,31.6729998588562,learn,28327.0001411438,Wed Jul 16 2025 18:52:09 GMT-0500 (Central Daylight Time),309652.5,A,ha,I,backspace,417,1,3748.400000035763,305904.09999996424,8060,WL,A,14.0
2,31.75599980354309,learn,28244.00019645691,Wed Jul 16 2025 18:52:09 GMT-0500 (Central Daylight Time),309735.89999997616,A,har,I,r,72,1,3831.800000011921,305904.09999996424,8060,WL,A,14.0
2,31.938999891281128,learn,28061.000108718872,Wed Jul 16 2025 18:52:09 GMT-0500 (Central Daylight Time),309919.09999996424,A,harp,I,p,164,1,4015.0,305904.09999996424,8060,WL,A,14.0
2,32.57200002670288,learn,27427.99997329712,Wed Jul 16 2025 18:52:09 GMT-0500 (Central Daylight Time),310552.1999999881,A,harpenter,I,enter,621,1,4648.100000023842,305904.09999996424,8060,WL,A,14.0
2,42.30299997329712,learn,17697.00002670288,Wed Jul 16 2025 18:52:09 GMT-0500 (Central Daylight Time),320282.2999999523,A,f,I,f,9724,1,9729.799999952316,310552.5,8060,WL,A,15.0
2,42.43599987030029,learn,17564.000129699707,Wed Jul 16 2025 18:52:09 GMT-0500 (Central Daylight Time),320415.6999999881,A,fi,I,i,114,1,9863.199999988079,310552.5,8060,WL,A,15.0
2,42.6029999256134,learn,17397.000074386597,Wed Jul 16 2025 18:52:09 GMT-0500 (Central Daylight Time),320582.5,A,fin,I,n,157,1,10030.0,310552.5,8060,WL,A,15.0
2,42.68599987030029,learn,17314.000129699707,Wed Jul 16 2025 18:52:09 GMT-0500 (Central Daylight Time),320666.0,A,fing,I,g,70,1,10113.5,310552.5,8060,WL,A,15.0
2,42.918999910354614,learn,17081.000089645386,Wed Jul 16 2025 18:52:09 GMT-0500 (Central Daylight Time),320899.0,A,finge,I,e,227,1,10346.5,310552.5,8060,WL,A,15.0
2,43.069000005722046,learn,16930.999994277954,Wed Jul 16 2025 18:52:09 GMT-0500 (Central Daylight Time),321048.89999997616,A,finger,I,r,129,1,10496.399999976158,310552.5,8060,WL,A,15.0
2,43.95199990272522,learn,16048.00009727478,Wed Jul 16 2025 18:52:09 GMT-0500 (Central Daylight Time),321932.0,A,fingerenter,I,enter,875,1,11379.5,310552.5,8060,WL,A,15.0
3,0.7669999599456787,learn,59233.00004005432,Wed Jul 16 2025 18:52:09 GMT-0500 (Central Daylight Time),391060.2999999523,A,b,I,b,751,1,766.2999999523163,390294.0,8060,WL,A,1.0
3,0.9830000400543213,learn,59016.99995994568,Wed Jul 16 2025 18:52:09 GMT-0500 (Central Daylight Time),391276.6999999881,A,bo,I,o,208,1,982.6999999880791,390294.0,8060,WL,A,1.0
3,1.4830000400543213,learn,58516.99995994568,Wed Jul 16 2025 18:52:09 GMT-0500 (Central Daylight Time),391776.6999999881,A,boo,I,o,480,1,1482.699999988079,390294.0,8060,WL,A,1.0
3,1.8329999446868896,learn,58167.00005531311,Wed Jul 16 2025 18:52:09 GMT-0500 (Central Daylight Time),392126.59999996424,A,book,I,k,332,1,1832.5999999642372,390294.0,8060,WL,A,1.0
3,2.382999897003174,learn,57617.000102996826,Wed Jul 16 2025 18:52:09 GMT-0500 (Central Daylight Time),392676.2999999523,A,bookenter,I,enter,542,1,2382.2999999523163,390294.0,8060,WL,A,1.0
3,4.0320000648498535,learn,55967.99993515015,Wed Jul 16 2025 18:52:09 GMT-0500 (Central Daylight Time),394325.89999997616,A,t,I,t,1632,1,1649.300000011921,392676.59999996424,8060,WL,A,2.0
3,4.2159998416900635,learn,55784.00015830994,Wed Jul 16 2025 18:52:09 GMT-0500 (Central Daylight Time),394509.1999999881,A,tr,I,r,175,1,1832.6000000238419,392676.59999996424,8060,WL,A,2.0
3,4.315000057220459,learn,55684.99994277954,Wed Jul 16 2025 18:52:09 GMT-0500 (Central Daylight Time),394609.0,A,tra,I,a,79,1,1932.4000000357628,392676.59999996424,8060,WL,A,2.0
3,4.398999929428101,learn,55601.0000705719,Wed Jul 16 2025 18:52:09 GMT-0500 (Central Daylight Time),394692.59999996424,A,trai,I,i,68,1,2016.0,392676.59999996424,8060,WL,A,2.0
3,4.565000057220459,learn,55434.99994277954,Wed Jul 16 2025 18:52:09 GMT-0500 (Central Daylight Time),394858.89999997616,A,train,I,n,160,1,2182.300000011921,392676.59999996424,8060,WL,A,2.0
3,4.98199987411499,learn,55018.00012588501,Wed Jul 16 2025 18:52:09 GMT-0500 (Central Daylight Time),395275.7999999523,A,trainenter,I,enter,402,1,2599.199999988079,392676.59999996424,8060,WL,A,2.0
3,5.398000001907349,learn,54601.99999809265,Wed Jul 16 2025 18:52:09 GMT-0500 (Central Daylight Time),395692.09999996424,A,r,I,r,400,1,416.0,395276.09999996424,8060,WL,A,3.0
3,5.514999866485596,learn,54485.000133514404,Wed Jul 16 2025 18:52:09 GMT-0500 (Central Daylight Time),395808.6999999881,A,ru,I,u,104,1,532.6000000238419,395276.09999996424,8060,WL,A,3.0
3,6.0980000495910645,learn,53901.999950408936,Wed Jul 16 2025 18:52:09 GMT-0500 (Central Daylight Time),396392.09999996424,A,rug,I,g,572,1,1116.0,395276.09999996424,8060,WL,A,3.0
3,6.38100004196167,learn,53618.99995803833,Wed Jul 16 2025 18:52:09 GMT-0500 (Central Daylight Time),396675.1999999881,A,rugenter,I,enter,276,1,1399.1000000238419,395276.09999996424,8060,WL,A,3.0
3,6.747999906539917,learn,53252.00009346008,Wed Jul 16 2025 18:52:09 GMT-0500 (Central Daylight Time),397041.59999996424,A,m,I,m,361,1,366.0,396675.59999996424,8060,WL,A,4.0
3,6.865000009536743,learn,53134.99999046326,Wed Jul 16 2025 18:52:09 GMT-0500 (Central Daylight Time),397158.2999999523,A,me,I,e,99,1,482.69999998807907,396675.59999996424,8060,WL,A,4.0
3,7.164000034332275,learn,52835.999965667725,Wed Jul 16 2025 18:52:09 GMT-0500 (Central Daylight Time),397458.09999996424,A,mea,I,a,293,1,782.5,396675.59999996424,8060,WL,A,4.0
3,7.3480000495910645,learn,52651.999950408936,Wed Jul 16 2025 18:52:09 GMT-0500 (Central Daylight Time),397641.6999999881,A,meas,I,s,164,1,966.1000000238419,396675.59999996424,8060,WL,A,4.0
3,7.5980000495910645,learn,52401.999950408936,Wed Jul 16 2025 18:52:09 GMT-0500 (Central Daylight Time),397891.59999996424,A,measo,I,o,243,1,1216.0,396675.59999996424,8060,WL,A,4.0
3,7.947999954223633,learn,52052.00004577637,Wed Jul 16 2025 18:52:09 GMT-0500 (Central Daylight Time),398241.59999996424,A,meas,I,backspace,337,1,1566.0,396675.59999996424,8060,WL,A,4.0
3,8.098000049591064,learn,51901.999950408936,Wed Jul 16 2025 18:52:09 GMT-0500 (Central Daylight Time),398391.39999997616,A,mea,I,backspace,131,1,1715.800000011921,396675.59999996424,8060,WL,A,4.0
3,8.197999954223633,learn,51802.00004577637,Wed Jul 16 2025 18:52:09 GMT-0500 (Central Daylight Time),398491.39999997616,A,mead,I,d,93,1,1815.800000011921,396675.59999996424,8060,WL,A,4.0
3,8.397000074386597,learn,51602.9999256134,Wed Jul 16 2025 18:52:09 GMT-0500 (Central Daylight Time),398691.1999999881,A,meado,I,o,185,1,2015.6000000238419,396675.59999996424,8060,WL,A,4.0
3,8.63100004196167,learn,51368.99995803833,Wed Jul 16 2025 18:52:09 GMT-0500 (Central Daylight Time),398924.59999996424,A,meadow,I,w,217,1,2249.0,396675.59999996424,8060,WL,A,4.0
3,9.44700002670288,learn,50552.99997329712,Wed Jul 16 2025 18:52:09 GMT-0500 (Central Daylight Time),399740.89999997616,A,meadowenter,I,enter,808,1,3065.300000011921,396675.59999996424,8060,WL,A,4.0
3,9.980000019073486,learn,50019.999980926514,Wed Jul 16 2025 18:52:09 GMT-0500 (Central Daylight Time),400274.09999996424,A,f,I,f,519,1,532.8000000119209,399741.2999999523,8060,WL,A,5.0
3,10.113999843597412,learn,49886.00015640259,Wed Jul 16 2025 18:52:09 GMT-0500 (Central Daylight Time),400407.2999999523,A,fl,I,l,114,1,666.0,399741.2999999523,8060,WL,A,5.0
3,10.263000011444092,learn,49736.99998855591,Wed Jul 16 2025 18:52:09 GMT-0500 (Central Daylight Time),400557.1999999881,A,flo,I,o,141,1,815.9000000357628,399741.2999999523,8060,WL,A,5.0
3,10.29699993133545,learn,49703.00006866455,Wed Jul 16 2025 18:52:09 GMT-0500 (Central Daylight Time),400590.59999996424,A,flow,I,w,23,1,849.3000000119209,399741.2999999523,8060,WL,A,5.0
3,10.397000074386597,learn,49602.9999256134,Wed Jul 16 2025 18:52:09 GMT-0500 (Central Daylight Time),400690.5,A,flowe,I,e,94,1,949.2000000476837,399741.2999999523,8060,WL,A,5.0
3,10.563999891281128,learn,49436.00010871887,Wed Jul 16 2025 18:52:09 GMT-0500 (Central Daylight Time),400857.1999999881,A,flower,I,r,154,1,1115.9000000357628,399741.2999999523,8060,WL,A,5.0
3,10.79699993133545,learn,49203.00006866455,Wed Jul 16 2025 18:52:09 GMT-0500 (Central Daylight Time),401090.39999997616,A,flowerenter,I,enter,219,1,1349.1000000238419,399741.2999999523,8060,WL,A,5.0
3,11.621000051498413,learn,48378.99994850159,Wed Jul 16 2025 18:52:09 GMT-0500 (Central Daylight Time),401914.5,A,l,I,l,802,1,823.7000000476837,401090.7999999523,8060,WL,A,6.0
3,11.728999853134155,learn,48271.000146865845,Wed Jul 16 2025 18:52:09 GMT-0500 (Central Daylight Time),402023.2999999523,A,lo,I,o,92,1,932.5,401090.7999999523,8060,WL,A,6.0
3,11.812999963760376,learn,48187.000036239624,Wed Jul 16 2025 18:52:09 GMT-0500 (Central Daylight Time),402106.6999999881,A,log,I,g,77,1,1015.9000000357628,401090.7999999523,8060,WL,A,6.0
3,12.062999963760376,learn,47937.000036239624,Wed Jul 16 2025 18:52:09 GMT-0500 (Central Daylight Time),402356.89999997616,A,logenter,I,enter,242,1,1266.1000000238419,401090.7999999523,8060,WL,A,6.0
3,13.645999908447266,learn,46354.000091552734,Wed Jul 16 2025 18:52:09 GMT-0500 (Central Daylight Time),403939.5,A,c,I,c,1575,1,1582.300000011921,402357.1999999881,8060,WL,A,7.0
3,13.746000051498413,learn,46253.99994850159,Wed Jul 16 2025 18:52:09 GMT-0500 (Central Daylight Time),404039.5,A,ch,I,h,89,1,1682.300000011921,402357.1999999881,8060,WL,A,7.0
3,13.828999996185303,learn,46171.0000038147,Wed Jul 16 2025 18:52:09 GMT-0500 (Central Daylight Time),404122.89999997616,A,chi,I,i,77,1,1765.699999988079,402357.1999999881,8060,WL,A,7.0
3,14.046000003814697,learn,45953.9999961853,Wed Jul 16 2025 18:52:09 GMT-0500 (Central Daylight Time),404339.5,A,chim,I,m,202,1,1982.300000011921,402357.1999999881,8060,WL,A,7.0
3,14.161999940872192,learn,45838.00005912781,Wed Jul 16 2025 18:52:09 GMT-0500 (Central Daylight Time),404456.09999996424,A,chime,I,e,97,1,2098.899999976158,402357.1999999881,8060,WL,A,7.0
3,14.279000043869019,learn,45720.99995613098,Wed Jul 16 2025 18:52:09 GMT-0500 (Central Daylight Time),404572.59999996424,A,chimen,I,n,108,1,2215.399999976158,402357.1999999881,8060,WL,A,7.0
3,14.529000043869019,learn,45470.99995613098,Wed Jul 16 2025 18:52:09 GMT-0500 (Central Daylight Time),404822.6999999881,A,chimeny,I,y,240,1,2465.5,402357.1999999881,8060,WL,A,7.0
3,14.928999900817871,learn,45071.00009918213,Wed Jul 16 2025 18:52:09 GMT-0500 (Central Daylight Time),405222.5,A,chimenyenter,I,enter,382,1,2865.300000011921,402357.1999999881,8060,WL,A,7.0
3,17.8439998626709,learn,42156.0001373291,Wed Jul 16 2025 18:52:09 GMT-0500 (Central Daylight Time),408138.09999996424,A,s,I,s,2902,1,2915.300000011921,405222.7999999523,8060,WL,A,8.0
3,17.944000005722046,learn,42055.999994277954,Wed Jul 16 2025 18:52:09 GMT-0500 (Central Daylight Time),408238.1999999881,A,sa,I,a,90,1,3015.400000035763,405222.7999999523,8060,WL,A,8.0
3,18.128000020980835,learn,41871.999979019165,Wed Jul 16 2025 18:52:09 GMT-0500 (Central Daylight Time),408421.2999999523,A,sal,I,l,166,1,3198.5,405222.7999999523,8060,WL,A,8.0
3,18.26099991798401,learn,41739.00008201599,Wed Jul 16 2025 18:52:09 GMT-0500 (Central Daylight Time),408554.7999999523,A,salt,I,t,119,1,3332.0,405222.7999999523,8060,WL,A,8.0
3,18.47699999809265,learn,41523.00000190735,Wed Jul 16 2025 18:52:09 GMT-0500 (Central Daylight Time),408771.1999999881,A,saltenter,I,enter,210,1,3548.400000035763,405222.7999999523,8060,WL,A,8.0
3,18.876999855041504,learn,41123.000144958496,Wed Jul 16 2025 18:52:09 GMT-0500 (Central Daylight Time),409171.09999996424,A,h,I,h,385,1,399.5,408771.59999996424,8060,WL,A,9.0
3,19.026999950408936,learn,40973.000049591064,Wed Jul 16 2025 18:52:09 GMT-0500 (Central Daylight Time),409321.1999999881,A,ha,I,a,129,1,549.6000000238419,408771.59999996424,8060,WL,A,9.0
3,19.227999925613403,learn,40772.0000743866,Wed Jul 16 2025 18:52:09 GMT-0500 (Central Daylight Time),409521.2999999523,A,har,I,r,187,1,749.6999999880791,408771.59999996424,8060,WL,A,9.0
3,19.444000005722046,learn,40555.999994277954,Wed Jul 16 2025 18:52:09 GMT-0500 (Central Daylight Time),409737.59999996424,A,harp,I,p,193,1,966.0,408771.59999996424,8060,WL,A,9.0
3,19.99399995803833,learn,40006.00004196167,Wed Jul 16 2025 18:52:09 GMT-0500 (Central Daylight Time),410287.5,A,harpenter,I,enter,530,1,1515.9000000357628,408771.59999996424,8060,WL,A,9.0
3,20.39400005340576,learn,39605.99994659424,Wed Jul 16 2025 18:52:09 GMT-0500 (Central Daylight Time),410687.2999999523,A,f,I,f,389,1,399.39999997615814,410287.89999997616,8060,WL,A,10.0
3,20.49399995803833,learn,39506.00004196167,Wed Jul 16 2025 18:52:09 GMT-0500 (Central Daylight Time),410787.39999997616,A,fi,I,i,85,1,499.5,410287.89999997616,8060,WL,A,10.0
3,20.692999839782715,learn,39307.000160217285,Wed Jul 16 2025 18:52:09 GMT-0500 (Central Daylight Time),410987.1999999881,A,fin,I,n,193,1,699.3000000119209,410287.89999997616,8060,WL,A,10.0
3,20.759999990463257,learn,39240.00000953674,Wed Jul 16 2025 18:52:09 GMT-0500 (Central Daylight Time),411054.09999996424,A,fing,I,g,49,1,766.1999999880791,410287.89999997616,8060,WL,A,10.0
3,20.89400005340576,learn,39105.99994659424,Wed Jul 16 2025 18:52:09 GMT-0500 (Central Daylight Time),411187.6999999881,A,finge,I,e,118,1,899.8000000119209,410287.89999997616,8060,WL,A,10.0
3,21.07699990272522,learn,38923.00009727478,Wed Jul 16 2025 18:52:09 GMT-0500 (Central Daylight Time),411370.1999999881,A,finger,I,r,177,1,1082.300000011921,410287.89999997616,8060,WL,A,10.0
3,21.47699999809265,learn,38523.00000190735,Wed Jul 16 2025 18:52:09 GMT-0500 (Central Daylight Time),411770.1999999881,A,fingerenter,I,enter,394,1,1482.300000011921,410287.89999997616,8060,WL,A,10.0
3,23.840999841690063,learn,36159.00015830994,Wed Jul 16 2025 18:52:09 GMT-0500 (Central Daylight Time),414136.1999999881,A,a,I,a,2354,1,2365.600000023842,411770.59999996424,8060,WL,A,11.0
3,24.007999897003174,learn,35992.000102996826,Wed Jul 16 2025 18:52:09 GMT-0500 (Central Daylight Time),414302.89999997616,A,ap,I,p,148,1,2532.300000011921,411770.59999996424,8060,WL,A,11.0
3,24.141000032424927,learn,35858.99996757507,Wed Jul 16 2025 18:52:09 GMT-0500 (Central Daylight Time),414436.09999996424,A,app,I,p,126,1,2665.5,411770.59999996424,8060,WL,A,11.0
3,24.340999841690063,learn,35659.00015830994,Wed Jul 16 2025 18:52:09 GMT-0500 (Central Daylight Time),414636.0,A,appl,I,l,192,1,2865.400000035763,411770.59999996424,8060,WL,A,11.0
3,24.424999952316284,learn,35575.000047683716,Wed Jul 16 2025 18:52:09 GMT-0500 (Central Daylight Time),414719.5,A,apple,I,e,73,1,2948.900000035763,411770.59999996424,8060,WL,A,11.0
3,24.7739999294281,learn,35226.0000705719,Wed Jul 16 2025 18:52:09 GMT-0500 (Central Daylight Time),415069.2999999523,A,appleenter,I,enter,333,1,3298.699999988079,411770.59999996424,8060,WL,A,11.0
3,26.79099988937378,learn,33209.00011062622,Wed Jul 16 2025 18:52:09 GMT-0500 (Central Daylight Time),417085.2999999523,A,r,I,r,1999,1,2015.699999988079,415069.59999996424,8060,WL,A,12.0
3,26.973999977111816,learn,33026.00002288818,Wed Jul 16 2025 18:52:09 GMT-0500 (Central Daylight Time),417268.6999999881,A,ra,I,a,167,1,2199.100000023842,415069.59999996424,8060,WL,A,12.0
3,27.139999866485596,learn,32860.000133514404,Wed Jul 16 2025 18:52:09 GMT-0500 (Central Daylight Time),417435.2999999523,A,rat,I,t,152,1,2365.699999988079,415069.59999996424,8060,WL,A,12.0
3,27.2739999294281,learn,32726.0000705719,Wed Jul 16 2025 18:52:09 GMT-0500 (Central Daylight Time),417568.5,A,ratt,I,t,121,1,2498.900000035763,415069.59999996424,8060,WL,A,12.0
3,27.44099998474121,learn,32559.00001525879,Wed Jul 16 2025 18:52:09 GMT-0500 (Central Daylight Time),417735.2999999523,A,rattl,I,l,148,1,2665.699999988079,415069.59999996424,8060,WL,A,12.0
3,27.657000064849854,learn,32342.999935150146,Wed Jul 16 2025 18:52:09 GMT-0500 (Central Daylight Time),417951.6999999881,A,rattle,I,e,205,1,2882.100000023842,415069.59999996424,8060,WL,A,12.0
3,27.789999961853027,learn,32210.000038146973,Wed Jul 16 2025 18:52:09 GMT-0500 (Central Daylight Time),418085.09999996424,A,rattleenter,I,enter,124,1,3015.5,415069.59999996424,8060,WL,A,12.0
3,28.256999969482422,learn,31743.000030517578,Wed Jul 16 2025 18:52:09 GMT-0500 (Central Daylight Time),418551.5,A,g,I,g,447,1,466.0,418085.5,8060,WL,A,13.0
3,28.372999906539917,learn,31627.000093460083,Wed Jul 16 2025 18:52:09 GMT-0500 (Central Daylight Time),418668.1999999881,A,go,I,o,101,1,582.6999999880791,418085.5,8060,WL,A,13.0
3,28.556999921798706,learn,31443.000078201294,Wed Jul 16 2025 18:52:09 GMT-0500 (Central Daylight Time),418851.59999996424,A,gol,I,l,176,1,766.0999999642372,418085.5,8060,WL,A,13.0
3,28.707000017166138,learn,31292.999982833862,Wed Jul 16 2025 18:52:09 GMT-0500 (Central Daylight Time),419001.5,A,gold,I,d,137,1,916.0,418085.5,8060,WL,A,13.0
3,28.872999906539917,learn,31127.000093460083,Wed Jul 16 2025 18:52:09 GMT-0500 (Central Daylight Time),419168.1999999881,A,goldenter,I,enter,155,1,1082.699999988079,418085.5,8060,WL,A,13.0
3,29.223000049591064,learn,30776.999950408936,Wed Jul 16 2025 18:52:09 GMT-0500 (Central Daylight Time),419518.09999996424,A,k,I,k,332,1,349.5999999642372,419168.5,8060,WL,A,14.0
3,29.372999906539917,learn,30627.000093460083,Wed Jul 16 2025 18:52:09 GMT-0500 (Central Daylight Time),419668.0,A,ke,I,e,134,1,499.5,419168.5,8060,WL,A,14.0
3,29.52300000190735,learn,30476.99999809265,Wed Jul 16 2025 18:52:09 GMT-0500 (Central Daylight Time),419817.6999999881,A,key,I,y,145,1,649.1999999880791,419168.5,8060,WL,A,14.0
3,29.83999991416931,learn,30160.00008583069,Wed Jul 16 2025 18:52:09 GMT-0500 (Central Daylight Time),420134.39999997616,A,keyenter,I,enter,299,1,965.8999999761581,419168.5,8060,WL,A,14.0
3,47.73399996757507,learn,12266.000032424927,Wed Jul 16 2025 18:52:09 GMT-0500 (Central Daylight Time),438028.5,A,l,I,l,17878,1,17893.80000001192,420134.6999999881,8060,WL,A,15.0
3,47.93400001525879,learn,12065.999984741211,Wed Jul 16 2025 18:52:09 GMT-0500 (Central Daylight Time),438228.2999999523,A,lo,I,o,182,1,18093.599999964237,420134.6999999881,8060,WL,A,15.0
3,48.08399987220764,learn,11916.000127792358,Wed Jul 16 2025 18:52:09 GMT-0500 (Central Daylight Time),438378.5,A,log,I,g,136,1,18243.80000001192,420134.6999999881,8060,WL,A,15.0
3,50.0,learn,10000.0,Wed Jul 16 2025 18:52:09 GMT-0500 (Central Daylight Time),440294.7999999523,A,logenter,I,enter,1898,1,20160.099999964237,420134.6999999881,8060,WL,A,15.0
4,0.7000000476837158,learn,59299.999952316284,Wed Jul 16 2025 18:52:09 GMT-0500 (Central Daylight Time),507673.39999997616,A,b,I,b,695,1,699.3000000119209,506974.09999996424,8060,WL,A,1.0
4,0.9000000953674316,learn,59099.99990463257,Wed Jul 16 2025 18:52:09 GMT-0500 (Central Daylight Time),507873.39999997616,A,bo,I,o,194,1,899.3000000119209,506974.09999996424,8060,WL,A,1.0
4,1.1170001029968262,learn,58882.999897003174,Wed Jul 16 2025 18:52:09 GMT-0500 (Central Daylight Time),508090.39999997616,A,boo,I,o,203,1,1116.300000011921,506974.09999996424,8060,WL,A,1.0
4,1.2330000400543213,learn,58766.99995994568,Wed Jul 16 2025 18:52:09 GMT-0500 (Central Daylight Time),508206.59999996424,A,book,I,k,107,1,1232.5,506974.09999996424,8060,WL,A,1.0
4,1.5829999446868896,learn,58417.00005531311,Wed Jul 16 2025 18:52:09 GMT-0500 (Central Daylight Time),508556.59999996424,A,bookenter,I,enter,342,1,1582.5,506974.09999996424,8060,WL,A,1.0
4,2.0329999923706055,learn,57967.000007629395,Wed Jul 16 2025 18:52:09 GMT-0500 (Central Daylight Time),509006.5,A,f,I,f,432,1,449.5,508557.0,8060,WL,A,2.0
4,2.1500000953674316,learn,57849.99990463257,Wed Jul 16 2025 18:52:09 GMT-0500 (Central Daylight Time),509123.2999999523,A,fl,I,l,102,1,566.2999999523163,508557.0,8060,WL,A,2.0
4,2.3329999446868896,learn,57667.00005531311,Wed Jul 16 2025 18:52:09 GMT-0500 (Central Daylight Time),509306.39999997616,A,flo,I,o,169,1,749.3999999761581,508557.0,8060,WL,A,2.0
4,2.3489999771118164,learn,57651.00002288818,Wed Jul 16 2025 18:52:09 GMT-0500 (Central Daylight Time),509322.89999997616,A,flow,I,w,10,1,765.8999999761581,508557.0,8060,WL,A,2.0
4,2.4660000801086426,learn,57533.99991989136,Wed Jul 16 2025 18:52:09 GMT-0500 (Central Daylight Time),509439.59999996424,A,flowe,I,e,98,1,882.5999999642372,508557.0,8060,WL,A,2.0
4,2.6489999294281006,learn,57351.0000705719,Wed Jul 16 2025 18:52:09 GMT-0500 (Central Daylight Time),509623.0,A,flower,I,r,173,1,1066.0,508557.0,8060,WL,A,2.0
4,2.815999984741211,learn,57184.00001525879,Wed Jul 16 2025 18:52:09 GMT-0500 (Central Daylight Time),509789.59999996424,A,flowerenter,I,enter,149,1,1232.5999999642372,508557.0,8060,WL,A,2.0
4,3.065999984741211,learn,56934.00001525879,Wed Jul 16 2025 18:52:09 GMT-0500 (Central Daylight Time),510039.2999999523,A,t,I,t,239,1,249.39999997615814,509789.89999997616,8060,WL,A,3.0
4,3.2660000324249268,learn,56733.99996757507,Wed Jul 16 2025 18:52:09 GMT-0500 (Central Daylight Time),510239.2999999523,A,tr,I,r,181,1,449.39999997615814,509789.89999997616,8060,WL,A,3.0
4,3.3329999446868896,learn,56667.00005531311,Wed Jul 16 2025 18:52:09 GMT-0500 (Central Daylight Time),510306.1999999881,A,tra,I,a,53,1,516.3000000119209,509789.89999997616,8060,WL,A,3.0
4,3.4170000553131104,learn,56582.99994468689,Wed Jul 16 2025 18:52:09 GMT-0500 (Central Daylight Time),510390.2999999523,A,trai,I,i,74,1,600.3999999761581,509789.89999997616,8060,WL,A,3.0
4,3.615999937057495,learn,56384.000062942505,Wed Jul 16 2025 18:52:09 GMT-0500 (Central Daylight Time),510589.2999999523,A,train,I,n,190,1,799.3999999761581,509789.89999997616,8060,WL,A,3.0
4,3.9489998817443848,learn,56051.000118255615,Wed Jul 16 2025 18:52:09 GMT-0500 (Central Daylight Time),510922.39999997616,A,trainenter,I,enter,327,1,1132.5,509789.89999997616,8060,WL,A,3.0
4,4.5320000648498535,learn,55467.99993515015,Wed Jul 16 2025 18:52:09 GMT-0500 (Central Daylight Time),511505.59999996424,A,r,I,r,578,1,583.0,510922.59999996424,8060,WL,A,4.0
4,4.749000072479248,learn,55250.99992752075,Wed Jul 16 2025 18:52:09 GMT-0500 (Central Daylight Time),511722.39999997616,A,ru,I,u,203,1,799.8000000119209,510922.59999996424,8060,WL,A,4.0
4,4.950000047683716,learn,55049.999952316284,Wed Jul 16 2025 18:52:09 GMT-0500 (Central Daylight Time),511923.39999997616,A,rug,I,g,194,1,1000.8000000119209,510922.59999996424,8060,WL,A,4.0
4,5.181999921798706,learn,54818.000078201294,Wed Jul 16 2025 18:52:09 GMT-0500 (Central Daylight Time),512155.5,A,rugenter,I,enter,225,1,1232.9000000357628,510922.59999996424,8060,WL,A,4.0
4,5.615000009536743,learn,54384.99999046326,Wed Jul 16 2025 18:52:09 GMT-0500 (Central Daylight Time),512588.6999999881,A,m,I,m,417,1,432.9000000357628,512155.7999999523,8060,WL,A,5.0
4,5.733000040054321,learn,54266.99995994568,Wed Jul 16 2025 18:52:09 GMT-0500 (Central Daylight Time),512706.5,A,me,I,e,96,1,550.7000000476837,512155.7999999523,8060,WL,A,5.0
4,5.848999977111816,learn,54151.00002288818,Wed Jul 16 2025 18:52:09 GMT-0500 (Central Daylight Time),512822.1999999881,A,mea,I,a,98,1,666.4000000357628,512155.7999999523,8060,WL,A,5.0
4,5.9649999141693115,learn,54035.00008583069,Wed Jul 16 2025 18:52:09 GMT-0500 (Central Daylight Time),512938.39999997616,A,meas,I,s,110,1,782.6000000238419,512155.7999999523,8060,WL,A,5.0
4,6.148000001907349,learn,53851.99999809265,Wed Jul 16 2025 18:52:09 GMT-0500 (Central Daylight Time),513121.59999996424,A,measo,I,o,178,1,965.8000000119209,512155.7999999523,8060,WL,A,5.0
4,6.54800009727478,learn,53451.99990272522,Wed Jul 16 2025 18:52:09 GMT-0500 (Central Daylight Time),513521.6999999881,A,meas,I,backspace,380,1,1365.9000000357628,512155.7999999523,8060,WL,A,5.0
4,6.680999994277954,learn,53319.000005722046,Wed Jul 16 2025 18:52:09 GMT-0500 (Central Daylight Time),513654.89999997616,A,mea,I,backspace,115,1,1499.1000000238419,512155.7999999523,8060,WL,A,5.0
4,6.764999866485596,learn,53235.000133514404,Wed Jul 16 2025 18:52:09 GMT-0500 (Central Daylight Time),513738.39999997616,A,mead,I,d,69,1,1582.6000000238419,512155.7999999523,8060,WL,A,5.0
4,6.9649999141693115,learn,53035.00008583069,Wed Jul 16 2025 18:52:09 GMT-0500 (Central Daylight Time),513938.1999999881,A,meado,I,o,186,1,1782.4000000357628,512155.7999999523,8060,WL,A,5.0
4,7.115000009536743,learn,52884.99999046326,Wed Jul 16 2025 18:52:09 GMT-0500 (Central Daylight Time),514088.5,A,meadow,I,w,130,1,1932.7000000476837,512155.7999999523,8060,WL,A,5.0
4,7.414999961853027,learn,52585.00003814697,Wed Jul 16 2025 18:52:09 GMT-0500 (Central Daylight Time),514388.2999999523,A,meadowenter,I,enter,292,1,2232.5,512155.7999999523,8060,WL,A,5.0
4,7.747999906539917,learn,52252.00009346008,Wed Jul 16 2025 18:52:09 GMT-0500 (Central Daylight Time),514721.2999999523,A,h,I,h,328,1,332.5999999642372,514388.6999999881,8060,WL,A,6.0
4,7.864000082015991,learn,52135.99991798401,Wed Jul 16 2025 18:52:09 GMT-0500 (Central Daylight Time),514838.09999996424,A,ha,I,a,99,1,449.39999997615814,514388.6999999881,8060,WL,A,6.0
4,8.13100004196167,learn,51868.99995803833,Wed Jul 16 2025 18:52:09 GMT-0500 (Central Daylight Time),515104.59999996424,A,har,I,r,246,1,715.8999999761581,514388.6999999881,8060,WL,A,6.0
4,8.263999938964844,learn,51736.000061035156,Wed Jul 16 2025 18:52:09 GMT-0500 (Central Daylight Time),515237.89999997616,A,harp,I,p,116,1,849.1999999880791,514388.6999999881,8060,WL,A,6.0
4,8.513999938964844,learn,51486.000061035156,Wed Jul 16 2025 18:52:09 GMT-0500 (Central Daylight Time),515487.7999999523,A,harpenter,I,enter,231,1,1099.0999999642372,514388.6999999881,8060,WL,A,6.0
4,8.88100004196167,learn,51118.99995803833,Wed Jul 16 2025 18:52:09 GMT-0500 (Central Daylight Time),515854.09999996424,A,s,I,s,357,1,365.89999997615814,515488.1999999881,8060,WL,A,7.0
4,9.014999866485596,learn,50985.000133514404,Wed Jul 16 2025 18:52:09 GMT-0500 (Central Daylight Time),515988.39999997616,A,sa,I,a,118,1,500.19999998807907,515488.1999999881,8060,WL,A,7.0
4,9.180999994277954,learn,50819.000005722046,Wed Jul 16 2025 18:52:09 GMT-0500 (Central Daylight Time),516154.2999999523,A,sal,I,l,152,1,666.0999999642372,515488.1999999881,8060,WL,A,7.0
4,9.364000082015991,learn,50635.99991798401,Wed Jul 16 2025 18:52:09 GMT-0500 (Central Daylight Time),516337.6999999881,A,salt,I,t,162,1,849.5,515488.1999999881,8060,WL,A,7.0
4,9.496999979019165,learn,50503.000020980835,Wed Jul 16 2025 18:52:09 GMT-0500 (Central Daylight Time),516470.7999999523,A,saltenter,I,enter,123,1,982.5999999642372,515488.1999999881,8060,WL,A,7.0
4,9.780999898910522,learn,50219.00010108948,Wed Jul 16 2025 18:52:09 GMT-0500 (Central Daylight Time),516754.09999996424,A,a,I,a,269,1,283.0,516471.09999996424,8060,WL,A,8.0
4,9.980999946594238,learn,50019.00005340576,Wed Jul 16 2025 18:52:09 GMT-0500 (Central Daylight Time),516954.09999996424,A,ap,I,p,186,1,483.0,516471.09999996424,8060,WL,A,8.0
4,10.115999937057495,learn,49884.000062942505,Wed Jul 16 2025 18:52:09 GMT-0500 (Central Daylight Time),517089.39999997616,A,app,I,p,114,1,618.3000000119209,516471.09999996424,8060,WL,A,8.0
4,10.329999923706055,learn,49670.000076293945,Wed Jul 16 2025 18:52:09 GMT-0500 (Central Daylight Time),517303.89999997616,A,appl,I,l,203,1,832.8000000119209,516471.09999996424,8060,WL,A,8.0
4,10.480000019073486,learn,49519.999980926514,Wed Jul 16 2025 18:52:09 GMT-0500 (Central Daylight Time),517453.7999999523,A,apple,I,e,141,1,982.6999999880791,516471.09999996424,8060,WL,A,8.0
4,10.71399998664856,learn,49286.00001335144,Wed Jul 16 2025 18:52:09 GMT-0500 (Central Daylight Time),517687.2999999523,A,appleenter,I,enter,223,1,1216.199999988079,516471.09999996424,8060,WL,A,8.0
4,11.313999891281128,learn,48686.00010871887,Wed Jul 16 2025 18:52:09 GMT-0500 (Central Daylight Time),518287.09999996424,A,l,I,l,589,1,599.5,517687.59999996424,8060,WL,A,9.0
4,11.496999979019165,learn,48503.000020980835,Wed Jul 16 2025 18:52:09 GMT-0500 (Central Daylight Time),518470.1999999881,A,lo,I,o,166,1,782.6000000238419,517687.59999996424,8060,WL,A,9.0
4,11.662999868392944,learn,48337.000131607056,Wed Jul 16 2025 18:52:09 GMT-0500 (Central Daylight Time),518637.0,A,log,I,g,150,1,949.4000000357628,517687.59999996424,8060,WL,A,9.0
4,11.980000019073486,learn,48019.999980926514,Wed Jul 16 2025 18:52:09 GMT-0500 (Central Daylight Time),518953.7999999523,A,logenter,I,enter,295,1,1266.199999988079,517687.59999996424,8060,WL,A,9.0
4,12.329999923706055,learn,47670.000076293945,Wed Jul 16 2025 18:52:09 GMT-0500 (Central Daylight Time),519303.39999997616,A,c,I,c,331,1,349.30000001192093,518954.09999996424,8060,WL,A,10.0
4,13.046000003814697,learn,46953.9999961853,Wed Jul 16 2025 18:52:09 GMT-0500 (Central Daylight Time),520019.39999997616,A,ch,I,h,709,1,1065.300000011921,518954.09999996424,8060,WL,A,10.0
4,13.129999876022339,learn,46870.00012397766,Wed Jul 16 2025 18:52:09 GMT-0500 (Central Daylight Time),520103.09999996424,A,chi,I,i,65,1,1149.0,518954.09999996424,8060,WL,A,10.0
4,13.328999996185303,learn,46671.0000038147,Wed Jul 16 2025 18:52:09 GMT-0500 (Central Daylight Time),520303.0,A,chim,I,m,189,1,1348.9000000357628,518954.09999996424,8060,WL,A,10.0
4,13.611999988555908,learn,46388.00001144409,Wed Jul 16 2025 18:52:09 GMT-0500 (Central Daylight Time),520585.89999997616,A,chime,I,e,277,1,1631.800000011921,518954.09999996424,8060,WL,A,10.0
4,14.078999996185303,learn,45921.0000038147,Wed Jul 16 2025 18:52:09 GMT-0500 (Central Daylight Time),521052.6999999881,A,chim,I,backspace,451,1,2098.600000023842,518954.09999996424,8060,WL,A,10.0
4,14.611999988555908,learn,45388.00001144409,Wed Jul 16 2025 18:52:09 GMT-0500 (Central Daylight Time),521585.7999999523,A,chimn,I,n,512,1,2631.699999988079,518954.09999996424,8060,WL,A,10.0
4,14.796000003814697,learn,45203.9999961853,Wed Jul 16 2025 18:52:09 GMT-0500 (Central Daylight Time),521769.1999999881,A,chimne,I,e,171,1,2815.100000023842,518954.09999996424,8060,WL,A,10.0
4,14.944999933242798,learn,45055.0000667572,Wed Jul 16 2025 18:52:09 GMT-0500 (Central Daylight Time),521919.0,A,chimney,I,y,139,1,2964.900000035763,518954.09999996424,8060,WL,A,10.0
4,15.229000091552734,learn,44770.999908447266,Wed Jul 16 2025 18:52:09 GMT-0500 (Central Daylight Time),522202.2999999523,A,chimneyenter,I,enter,270,1,3248.199999988079,518954.09999996424,8060,WL,A,10.0
4,15.51200008392334,learn,44487.99991607666,Wed Jul 16 2025 18:52:09 GMT-0500 (Central Daylight Time),522485.5,A,b,I,b,266,1,282.80000001192093,522202.6999999881,8060,WL,A,11.0
4,15.729000091552734,learn,44270.999908447266,Wed Jul 16 2025 18:52:09 GMT-0500 (Central Daylight Time),522702.09999996424,A,bu,I,u,199,1,499.39999997615814,522202.6999999881,8060,WL,A,11.0
4,15.812000036239624,learn,44187.999963760376,Wed Jul 16 2025 18:52:09 GMT-0500 (Central Daylight Time),522785.5,A,but,I,t,78,1,582.8000000119209,522202.6999999881,8060,WL,A,11.0
4,15.994999885559082,learn,44005.00011444092,Wed Jul 16 2025 18:52:09 GMT-0500 (Central Daylight Time),522968.7999999523,A,butt,I,t,171,1,766.0999999642372,522202.6999999881,8060,WL,A,11.0
4,16.09500002861023,learn,43904.99997138977,Wed Jul 16 2025 18:52:09 GMT-0500 (Central Daylight Time),523068.89999997616,A,butto,I,o,92,1,866.1999999880791,522202.6999999881,8060,WL,A,11.0
4,16.295000076293945,learn,43704.999923706055,Wed Jul 16 2025 18:52:09 GMT-0500 (Central Daylight Time),523268.6999999881,A,button,I,n,192,1,1066.0,522202.6999999881,8060,WL,A,11.0
4,16.545000076293945,learn,43454.999923706055,Wed Jul 16 2025 18:52:09 GMT-0500 (Central Daylight Time),523518.6999999881,A,buttonenter,I,enter,240,1,1316.0,522202.6999999881,8060,WL,A,11.0
4,16.777999877929688,learn,43222.00012207031,Wed Jul 16 2025 18:52:09 GMT-0500 (Central Daylight Time),523751.89999997616,A,r,I,r,214,1,233.0,523518.89999997616,8060,WL,A,12.0
4,17.01200008392334,learn,42987.99991607666,Wed Jul 16 2025 18:52:09 GMT-0500 (Central Daylight Time),523985.2999999523,A,ra,I,a,220,1,466.39999997615814,523518.89999997616,8060,WL,A,12.0
4,17.194999933242798,learn,42805.0000667572,Wed Jul 16 2025 18:52:09 GMT-0500 (Central Daylight Time),524168.59999996424,A,rat,I,t,171,1,649.6999999880791,523518.89999997616,8060,WL,A,12.0
4,17.312000036239624,learn,42687.999963760376,Wed Jul 16 2025 18:52:09 GMT-0500 (Central Daylight Time),524285.09999996424,A,ratt,I,t,100,1,766.1999999880791,523518.89999997616,8060,WL,A,12.0
4,17.628000020980835,learn,42371.999979019165,Wed Jul 16 2025 18:52:09 GMT-0500 (Central Daylight Time),524601.5999999642,A,rattl,I,l,311,1,1082.699999988079,523518.89999997616,8060,WL,A,12.0
4,17.92799997329712,learn,42072.00002670288,Wed Jul 16 2025 18:52:09 GMT-0500 (Central Daylight Time),524901.3999999762,A,rattle,I,e,283,1,1382.5,523518.89999997616,8060,WL,A,12.0
4,18.09500002861023,learn,41904.99997138977,Wed Jul 16 2025 18:52:09 GMT-0500 (Central Daylight Time),525068.0999999642,A,rattleenter,I,enter,151,1,1549.199999988079,523518.89999997616,8060,WL,A,12.0
4,18.777999877929688,learn,41222.00012207031,Wed Jul 16 2025 18:52:09 GMT-0500 (Central Daylight Time),525751.2999999523,A,g,I,g,664,1,682.8999999761581,525068.3999999762,8060,WL,A,13.0
4,18.91100001335144,learn,41088.99998664856,Wed Jul 16 2025 18:52:09 GMT-0500 (Central Daylight Time),525884.5,A,go,I,o,117,1,816.1000000238419,525068.3999999762,8060,WL,A,13.0
4,19.32800006866455,learn,40671.99993133545,Wed Jul 16 2025 18:52:09 GMT-0500 (Central Daylight Time),526301.0999999642,A,gol,I,l,400,1,1232.699999988079,525068.3999999762,8060,WL,A,13.0
4,19.49399995803833,learn,40506.00004196167,Wed Jul 16 2025 18:52:09 GMT-0500 (Central Daylight Time),526467.5,A,gold,I,d,159,1,1399.1000000238419,525068.3999999762,8060,WL,A,13.0
4,19.67799997329712,learn,40322.00002670288,Wed Jul 16 2025 18:52:09 GMT-0500 (Central Daylight Time),526651.0999999642,A,goldenter,I,enter,169,1,1582.699999988079,525068.3999999762,8060,WL,A,13.0
4,20.01099991798401,learn,39989.00008201599,Wed Jul 16 2025 18:52:09 GMT-0500 (Central Daylight Time),526984.3999999762,A,k,I,k,322,1,333.0,526651.3999999762,8060,WL,A,14.0
4,20.16100001335144,learn,39838.99998664856,Wed Jul 16 2025 18:52:09 GMT-0500 (Central Daylight Time),527134.1999999881,A,ke,I,e,140,1,482.80000001192093,526651.3999999762,8060,WL,A,14.0
4,20.344000101089478,learn,39655.99989891052,Wed Jul 16 2025 18:52:09 GMT-0500 (Central Daylight Time),527317.2999999523,A,key,I,y,174,1,665.8999999761581,526651.3999999762,8060,WL,A,14.0
4,20.694000005722046,learn,39305.999994277954,Wed Jul 16 2025 18:52:09 GMT-0500 (Central Daylight Time),527667.2999999523,A,keyenter,I,enter,335,1,1015.8999999761581,526651.3999999762,8060,WL,A,14.0
4,31.27300000190735,learn,28726.99999809265,Wed Jul 16 2025 18:52:09 GMT-0500 (Central Daylight Time),538247.3999999762,A,s,I,s,10561,1,10579.699999988079,527667.6999999881,8060,WL,A,15.0
4,31.42300009727478,learn,28576.99990272522,Wed Jul 16 2025 18:52:09 GMT-0500 (Central Daylight Time),538397.2999999523,A,sa,I,a,133,1,10729.599999964237,527667.6999999881,8060,WL,A,15.0
4,31.52300000190735,learn,28476.99999809265,Wed Jul 16 2025 18:52:09 GMT-0500 (Central Daylight Time),538497.2999999523,A,sal,I,l,95,1,10829.599999964237,527667.6999999881,8060,WL,A,15.0
4,31.67300009727478,learn,28326.99990272522,Wed Jul 16 2025 18:52:09 GMT-0500 (Central Daylight Time),538647.2999999523,A,salt,I,t,131,1,10979.599999964237,527667.6999999881,8060,WL,A,15.0
4,33.62299990653992,learn,26377.000093460083,Wed Jul 16 2025 18:52:09 GMT-0500 (Central Daylight Time),540596.5,A,saltenter,I,enter,1933,1,12928.800000011921,527667.6999999881,8060,WL,A,15.0
5,0.6329998970031738,learn,60000.0,Wed Jul 16 2025 18:52:09 GMT-0500 (Central Daylight Time),607392.3999999762,A,b,I,b,622,1,633.1000000238419,606759.2999999523,8060,WL,A,1.0
5,0.8989999294281006,learn,60000.0,Wed Jul 16 2025 18:52:09 GMT-0500 (Central Daylight Time),607659.0,A,bo,I,o,252,1,899.7000000476837,606759.2999999523,8060,WL,A,1.0
5,1.065999984741211,learn,60000.0,Wed Jul 16 2025 18:52:09 GMT-0500 (Central Daylight Time),607825.5999999642,A,boo,I,o,162,1,1066.300000011921,606759.2999999523,8060,WL,A,1.0
5,1.2659997940063477,learn,60000.0,Wed Jul 16 2025 18:52:09 GMT-0500 (Central Daylight Time),608025.5,A,book,I,k,195,1,1266.2000000476837,606759.2999999523,8060,WL,A,1.0
5,1.5329999923706055,learn,60000.0,Wed Jul 16 2025 18:52:09 GMT-0500 (Central Daylight Time),608292.0999999642,A,bookenter,I,enter,251,1,1532.800000011921,606759.2999999523,8060,WL,A,1.0
5,1.931999921798706,learn,60000.0,Wed Jul 16 2025 18:52:09 GMT-0500 (Central Daylight Time),608692.0,A,f,I,f,392,1,399.60000002384186,608292.3999999762,8060,WL,A,2.0
5,2.132999897003174,learn,60000.0,Wed Jul 16 2025 18:52:09 GMT-0500 (Central Daylight Time),608892.0,A,fl,I,l,184,1,599.6000000238419,608292.3999999762,8060,WL,A,2.0
5,2.315999984741211,learn,60000.0,Wed Jul 16 2025 18:52:09 GMT-0500 (Central Daylight Time),609075.1999999881,A,flo,I,o,177,1,782.8000000119209,608292.3999999762,8060,WL,A,2.0
5,2.3989999294281006,learn,60000.0,Wed Jul 16 2025 18:52:09 GMT-0500 (Central Daylight Time),609158.2999999523,A,flow,I,w,73,1,865.8999999761581,608292.3999999762,8060,WL,A,2.0
5,2.548999786376953,learn,60000.0,Wed Jul 16 2025 18:52:09 GMT-0500 (Central Daylight Time),609308.1999999881,A,flowe,I,e,142,1,1015.8000000119209,608292.3999999762,8060,WL,A,2.0
5,2.7819998264312744,learn,60000.0,Wed Jul 16 2025 18:52:09 GMT-0500 (Central Daylight Time),609541.6999999881,A,flower,I,r,224,1,1249.300000011921,608292.3999999762,8060,WL,A,2.0
5,2.9649999141693115,learn,60000.0,Wed Jul 16 2025 18:52:09 GMT-0500 (Central Daylight Time),609724.8999999762,A,flowerenter,I,enter,167,1,1432.5,608292.3999999762,8060,WL,A,2.0
5,3.797999858856201,learn,60000.0,Wed Jul 16 2025 18:52:09 GMT-0500 (Central Daylight Time),610557.8999999762,A,t,I,t,822,1,832.3999999761581,609725.5,8060,WL,A,3.0
5,4.014999866485596,learn,60000.0,Wed Jul 16 2025 18:52:09 GMT-0500 (Central Daylight Time),610774.3999999762,A,tr,I,r,198,1,1048.8999999761581,609725.5,8060,WL,A,3.0
5,4.047999858856201,learn,60000.0,Wed Jul 16 2025 18:52:09 GMT-0500 (Central Daylight Time),610807.8999999762,A,tra,I,a,22,1,1082.3999999761581,609725.5,8060,WL,A,3.0
5,4.148000001907349,learn,60000.0,Wed Jul 16 2025 18:52:09 GMT-0500 (Central Daylight Time),610908.0,A,trai,I,i,93,1,1182.5,609725.5,8060,WL,A,3.0
5,4.31499981880188,learn,60000.0,Wed Jul 16 2025 18:52:09 GMT-0500 (Central Daylight Time),611074.5999999642,A,train,I,n,153,1,1349.0999999642372,609725.5,8060,WL,A,3.0
5,4.632999897003174,learn,60000.0,Wed Jul 16 2025 18:52:09 GMT-0500 (Central Daylight Time),611392.1999999881,A,trainenter,I,enter,298,1,1666.699999988079,609725.5,8060,WL,A,3.0
5,5.080999851226807,learn,60000.0,Wed Jul 16 2025 18:52:09 GMT-0500 (Central Daylight Time),611840.8999999762,A,r,I,r,428,1,448.30000001192093,611392.5999999642,8060,WL,A,4.0
5,5.281999826431274,learn,60000.0,Wed Jul 16 2025 18:52:09 GMT-0500 (Central Daylight Time),612041.5999999642,A,ru,I,u,196,1,649.0,611392.5999999642,8060,WL,A,4.0
5,5.430999994277954,learn,60000.0,Wed Jul 16 2025 18:52:09 GMT-0500 (Central Daylight Time),612190.5999999642,A,rug,I,g,131,1,798.0,611392.5999999642,8060,WL,A,4.0
5,5.615000009536743,learn,60000.0,Wed Jul 16 2025 18:52:09 GMT-0500 (Central Daylight Time),612374.0999999642,A,rugenter,I,enter,166,1,981.5,611392.5999999642,8060,WL,A,4.0
5,5.914999961853027,learn,60000.0,Wed Jul 16 2025 18:52:09 GMT-0500 (Central Daylight Time),612674.0,A,m,I,m,286,1,299.5,612374.5,8060,WL,A,5.0
5,5.997999906539917,learn,60000.0,Wed Jul 16 2025 18:52:09 GMT-0500 (Central Daylight Time),612757.2999999523,A,me,I,e,67,1,382.7999999523163,612374.5,8060,WL,A,5.0
5,6.148000001907349,learn,60000.0,Wed Jul 16 2025 18:52:09 GMT-0500 (Central Daylight Time),612907.3999999762,A,mea,I,a,135,1,532.8999999761581,612374.5,8060,WL,A,5.0
5,6.247999906539917,learn,60000.0,Wed Jul 16 2025 18:52:09 GMT-0500 (Central Daylight Time),613007.3999999762,A,meas,I,s,81,1,632.8999999761581,612374.5,8060,WL,A,5.0
5,7.107999801635742,learn,60000.0,Wed Jul 16 2025 18:52:09 GMT-0500 (Central Daylight Time),613867.5,A,mea,I,backspace,708,1,1493.0,612374.5,8060,WL,A,5.0
5,7.115000009536743,learn,60000.0,Wed Jul 16 2025 18:52:09 GMT-0500 (Central Daylight Time),613874.0999999642,A,mead,I,d,0,1,1499.5999999642372,612374.5,8060,WL,A,5.0
5,7.246999979019165,learn,60000.0,Wed Jul 16 2025 18:52:09 GMT-0500 (Central Daylight Time),614006.5999999642,A,meado,I,o,119,1,1632.0999999642372,612374.5,8060,WL,A,5.0
5,7.730999946594238,learn,60000.0,Wed Jul 16 2025 18:52:09 GMT-0500 (Central Daylight Time),614490.1999999881,A,meadow,I,w,470,1,2115.699999988079,612374.5,8060,WL,A,5.0
5,8.13099980354309,learn,60000.0,Wed Jul 16 2025 18:52:09 GMT-0500 (Central Daylight Time),614890.0999999642,A,meadowenter,I,enter,386,1,2515.599999964237,612374.5,8060,WL,A,5.0
5,9.29699993133545,learn,60000.0,Wed Jul 16 2025 18:52:09 GMT-0500 (Central Daylight Time),616056.2999999523,A,h,I,h,1147,1,1165.7999999523163,614890.5,8060,WL,A,6.0
5,9.379999876022339,learn,60000.0,Wed Jul 16 2025 18:52:09 GMT-0500 (Central Daylight Time),616139.5999999642,A,ha,I,a,68,1,1249.0999999642372,614890.5,8060,WL,A,6.0
5,9.496999979019165,learn,60000.0,Wed Jul 16 2025 18:52:09 GMT-0500 (Central Daylight Time),616256.0999999642,A,har,I,r,97,1,1365.5999999642372,614890.5,8060,WL,A,6.0
5,9.61299991607666,learn,60000.0,Wed Jul 16 2025 18:52:09 GMT-0500 (Central Daylight Time),616373.0,A,harp,I,p,109,1,1482.5,614890.5,8060,WL,A,6.0
5,9.86299991607666,learn,60000.0,Wed Jul 16 2025 18:52:09 GMT-0500 (Central Daylight Time),616622.5999999642,A,harpenter,I,enter,231,1,1732.0999999642372,614890.5,8060,WL,A,6.0
5,10.096999883651733,learn,60000.0,Wed Jul 16 2025 18:52:09 GMT-0500 (Central Daylight Time),616856.0,A,s,I,s,214,1,232.9000000357628,616623.0999999642,8060,WL,A,7.0
5,10.162999868392944,learn,60000.0,Wed Jul 16 2025 18:52:09 GMT-0500 (Central Daylight Time),616922.5999999642,A,sa,I,a,52,1,299.5,616623.0999999642,8060,WL,A,7.0
5,10.329999923706055,learn,60000.0,Wed Jul 16 2025 18:52:09 GMT-0500 (Central Daylight Time),617089.5,A,sal,I,l,161,1,466.4000000357628,616623.0999999642,8060,WL,A,7.0
5,10.546000003814697,learn,60000.0,Wed Jul 16 2025 18:52:09 GMT-0500 (Central Daylight Time),617305.7999999523,A,salt,I,t,203,1,682.6999999880791,616623.0999999642,8060,WL,A,7.0
5,10.745999813079834,learn,60000.0,Wed Jul 16 2025 18:52:09 GMT-0500 (Central Daylight Time),617505.5999999642,A,saltenter,I,enter,195,1,882.5,616623.0999999642,8060,WL,A,7.0
5,12.27899980545044,learn,60000.0,Wed Jul 16 2025 18:52:09 GMT-0500 (Central Daylight Time),619038.6999999881,A,a,I,a,1515,1,1532.800000011921,617505.8999999762,8060,WL,A,8.0
5,12.378999948501587,learn,60000.0,Wed Jul 16 2025 18:52:09 GMT-0500 (Central Daylight Time),619138.5,A,ap,I,p,86,1,1632.6000000238419,617505.8999999762,8060,WL,A,8.0
5,12.546000003814697,learn,60000.0,Wed Jul 16 2025 18:52:09 GMT-0500 (Central Daylight Time),619305.0,A,app,I,p,154,1,1799.1000000238419,617505.8999999762,8060,WL,A,8.0
5,12.745999813079834,learn,60000.0,Wed Jul 16 2025 18:52:09 GMT-0500 (Central Daylight Time),619505.1999999881,A,appl,I,l,188,1,1999.300000011921,617505.8999999762,8060,WL,A,8.0
5,12.828999996185303,learn,60000.0,Wed Jul 16 2025 18:52:09 GMT-0500 (Central Daylight Time),619588.2999999523,A,apple,I,e,67,1,2082.399999976158,617505.8999999762,8060,WL,A,8.0
5,12.994999885559082,learn,60000.0,Wed Jul 16 2025 18:52:09 GMT-0500 (Central Daylight Time),619755.0,A,appleenter,I,enter,161,1,2249.100000023842,617505.8999999762,8060,WL,A,8.0
5,13.245999813079834,learn,60000.0,Wed Jul 16 2025 18:52:09 GMT-0500 (Central Daylight Time),620005.0,A,f,I,f,233,1,249.9000000357628,619755.0999999642,8060,WL,A,9.0
5,13.328999996185303,learn,60000.0,Wed Jul 16 2025 18:52:09 GMT-0500 (Central Daylight Time),620088.3999999762,A,fi,I,i,71,1,333.30000001192093,619755.0999999642,8060,WL,A,9.0
5,13.52899980545044,learn,60000.0,Wed Jul 16 2025 18:52:09 GMT-0500 (Central Daylight Time),620288.3999999762,A,fin,I,n,180,1,533.3000000119209,619755.0999999642,8060,WL,A,9.0
5,13.628999948501587,learn,60000.0,Wed Jul 16 2025 18:52:09 GMT-0500 (Central Daylight Time),620388.3999999762,A,fing,I,g,84,1,633.3000000119209,619755.0999999642,8060,WL,A,9.0
5,13.77899980545044,learn,60000.0,Wed Jul 16 2025 18:52:09 GMT-0500 (Central Daylight Time),620538.2999999523,A,finge,I,e,135,1,783.1999999880791,619755.0999999642,8060,WL,A,9.0
5,13.928999900817871,learn,60000.0,Wed Jul 16 2025 18:52:09 GMT-0500 (Central Daylight Time),620688.0999999642,A,finger,I,r,130,1,933.0,619755.0999999642,8060,WL,A,9.0
5,14.144999980926514,learn,60000.0,Wed Jul 16 2025 18:52:09 GMT-0500 (Central Daylight Time),620904.5999999642,A,fingerenter,I,enter,196,1,1149.5,619755.0999999642,8060,WL,A,9.0
5,15.92799997329712,learn,60000.0,Wed Jul 16 2025 18:52:09 GMT-0500 (Central Daylight Time),622687.6999999881,A,l,I,l,1764,1,1782.699999988079,620905.0,8060,WL,A,10.0
5,16.127999782562256,learn,60000.0,Wed Jul 16 2025 18:52:09 GMT-0500 (Central Daylight Time),622887.2999999523,A,lo,I,o,180,1,1982.2999999523163,620905.0,8060,WL,A,10.0
5,16.227999925613403,learn,60000.0,Wed Jul 16 2025 18:52:09 GMT-0500 (Central Daylight Time),622987.3999999762,A,log,I,g,85,1,2082.399999976158,620905.0,8060,WL,A,10.0
5,16.477999925613403,learn,60000.0,Wed Jul 16 2025 18:52:09 GMT-0500 (Central Daylight Time),623237.1999999881,A,logenter,I,enter,241,1,2332.199999988079,620905.0,8060,WL,A,10.0
5,16.777999877929688,learn,60000.0,Wed Jul 16 2025 18:52:09 GMT-0500 (Central Daylight Time),623537.2999999523,A,c,I,c,295,1,299.7999999523163,623237.5,8060,WL,A,11.0
5,16.893999814987183,learn,60000.0,Wed Jul 16 2025 18:52:09 GMT-0500 (Central Daylight Time),623653.6999999881,A,ch,I,h,99,1,416.19999998807907,623237.5,8060,WL,A,11.0
5,16.977999925613403,learn,60000.0,Wed Jul 16 2025 18:52:09 GMT-0500 (Central Daylight Time),623737.2999999523,A,chi,I,i,62,1,499.7999999523163,623237.5,8060,WL,A,11.0
5,17.16100001335144,learn,60000.0,Wed Jul 16 2025 18:52:09 GMT-0500 (Central Daylight Time),623920.3999999762,A,chim,I,m,171,1,682.8999999761581,623237.5,8060,WL,A,11.0
5,17.32799983024597,learn,60000.0,Wed Jul 16 2025 18:52:09 GMT-0500 (Central Daylight Time),624087.0,A,chime,I,e,156,1,849.5,623237.5,8060,WL,A,11.0
5,17.460999965667725,learn,60000.0,Wed Jul 16 2025 18:52:09 GMT-0500 (Central Daylight Time),624220.3999999762,A,chimen,I,n,125,1,982.8999999761581,623237.5,8060,WL,A,11.0
5,17.74399995803833,learn,60000.0,Wed Jul 16 2025 18:52:09 GMT-0500 (Central Daylight Time),624503.3999999762,A,chimeny,I,y,272,1,1265.8999999761581,623237.5,8060,WL,A,11.0
5,18.110999822616577,learn,60000.0,Wed Jul 16 2025 18:52:09 GMT-0500 (Central Daylight Time),624870.0999999642,A,chimen,I,backspace,357,1,1632.5999999642372,623237.5,8060,WL,A,11.0
5,18.276999950408936,learn,60000.0,Wed Jul 16 2025 18:52:09 GMT-0500 (Central Daylight Time),625036.7999999523,A,chime,I,backspace,158,1,1799.2999999523163,623237.5,8060,WL,A,11.0
5,18.426999807357788,learn,60000.0,Wed Jul 16 2025 18:52:09 GMT-0500 (Central Daylight Time),625186.5999999642,A,chim,I,backspace,144,1,1949.0999999642372,623237.5,8060,WL,A,11.0
5,18.676999807357788,learn,60000.0,Wed Jul 16 2025 18:52:09 GMT-0500 (Central Daylight Time),625436.5999999642,A,chimn,I,n,241,1,2199.099999964237,623237.5,8060,WL,A,11.0
5,18.82699990272522,learn,60000.0,Wed Jul 16 2025 18:52:09 GMT-0500 (Central Daylight Time),625586.5999999642,A,chimne,I,e,144,1,2349.099999964237,623237.5,8060,WL,A,11.0
5,18.99399995803833,learn,60000.0,Wed Jul 16 2025 18:52:09 GMT-0500 (Central Daylight Time),625753.1999999881,A,chimney,I,y,162,1,2515.699999988079,623237.5,8060,WL,A,11.0
5,19.3439998626709,learn,60000.0,Wed Jul 16 2025 18:52:09 GMT-0500 (Central Daylight Time),626103.0999999642,A,chimneyenter,I,enter,339,1,2865.599999964237,623237.5,8060,WL,A,11.0
5,20.109999895095825,learn,60000.0,Wed Jul 16 2025 18:52:09 GMT-0500 (Central Daylight Time),626869.5999999642,A,r,I,r,750,1,766.0999999642372,626103.5,8060,WL,A,12.0
5,20.292999982833862,learn,60000.0,Wed Jul 16 2025 18:52:09 GMT-0500 (Central Daylight Time),627052.5,A,ra,I,a,167,1,949.0,626103.5,8060,WL,A,12.0
5,20.442999839782715,learn,60000.0,Wed Jul 16 2025 18:52:09 GMT-0500 (Central Daylight Time),627202.5999999642,A,rat,I,t,142,1,1099.0999999642372,626103.5,8060,WL,A,12.0
5,20.609999895095825,learn,60000.0,Wed Jul 16 2025 18:52:09 GMT-0500 (Central Daylight Time),627369.0999999642,A,ratt,I,t,154,1,1265.5999999642372,626103.5,8060,WL,A,12.0
5,20.72699999809265,learn,60000.0,Wed Jul 16 2025 18:52:09 GMT-0500 (Central Daylight Time),627486.1999999881,A,rattl,I,l,100,1,1382.699999988079,626103.5,8060,WL,A,12.0
5,20.859999895095825,learn,60000.0,Wed Jul 16 2025 18:52:09 GMT-0500 (Central Daylight Time),627619.3999999762,A,rattle,I,e,126,1,1515.8999999761581,626103.5,8060,WL,A,12.0
5,20.97599983215332,learn,60000.0,Wed Jul 16 2025 18:52:09 GMT-0500 (Central Daylight Time),627735.8999999762,A,rattleenter,I,enter,105,1,1632.3999999761581,626103.5,8060,WL,A,12.0
5,21.242999792099,learn,60000.0,Wed Jul 16 2025 18:52:09 GMT-0500 (Central Daylight Time),628002.5,A,g,I,g,253,1,266.2000000476837,627736.2999999523,8060,WL,A,13.0
5,21.359999895095825,learn,60000.0,Wed Jul 16 2025 18:52:09 GMT-0500 (Central Daylight Time),628119.2999999523,A,go,I,o,98,1,383.0,627736.2999999523,8060,WL,A,13.0
5,21.542999982833862,learn,60000.0,Wed Jul 16 2025 18:52:09 GMT-0500 (Central Daylight Time),628302.0999999642,A,gol,I,l,165,1,565.8000000119209,627736.2999999523,8060,WL,A,13.0
5,21.742999792099,learn,60000.0,Wed Jul 16 2025 18:52:09 GMT-0500 (Central Daylight Time),628502.0999999642,A,gold,I,d,182,1,765.8000000119209,627736.2999999523,8060,WL,A,13.0
5,21.859999895095825,learn,60000.0,Wed Jul 16 2025 18:52:09 GMT-0500 (Central Daylight Time),628619.0999999642,A,goldenter,I,enter,102,1,882.8000000119209,627736.2999999523,8060,WL,A,13.0
5,22.30900001525879,learn,60000.0,Wed Jul 16 2025 18:52:09 GMT-0500 (Central Daylight Time),629068.8999999762,A,k,I,k,433,1,449.5,628619.3999999762,8060,WL,A,14.0
5,22.408999919891357,learn,60000.0,Wed Jul 16 2025 18:52:09 GMT-0500 (Central Daylight Time),629168.7999999523,A,ke,I,e,87,1,549.3999999761581,628619.3999999762,8060,WL,A,14.0
5,22.592999935150146,learn,60000.0,Wed Jul 16 2025 18:52:09 GMT-0500 (Central Daylight Time),629352.0999999642,A,key,I,y,163,1,732.6999999880791,628619.3999999762,8060,WL,A,14.0
5,22.825999975204468,learn,60000.0,Wed Jul 16 2025 18:52:09 GMT-0500 (Central Daylight Time),629585.3999999762,A,keyenter,I,enter,220,1,966.0,628619.3999999762,8060,WL,A,14.0
5,34.638999938964844,learn,60000.0,Wed Jul 16 2025 18:52:09 GMT-0500 (Central Daylight Time),641398.5999999642,A,c,I,c,11795,1,11812.899999976158,629585.6999999881,8060,WL,A,15.0
5,35.13800001144409,learn,60000.0,Wed Jul 16 2025 18:52:09 GMT-0500 (Central Daylight Time),641897.8999999762,A,,I,backspace,493,1,12312.199999988079,629585.6999999881,8060,WL,A,15.0
5,38.82099986076355,learn,60000.0,Wed Jul 16 2025 18:52:09 GMT-0500 (Central Daylight Time),645580.3999999762,A,b,I,b,3675,1,15994.699999988079,629585.6999999881,8060,WL,A,15.0
5,39.03699994087219,learn,60000.0,Wed Jul 16 2025 18:52:09 GMT-0500 (Central Daylight Time),645796.8999999762,A,bu,I,u,200,1,16211.199999988079,629585.6999999881,8060,WL,A,15.0
5,39.08699989318848,learn,60000.0,Wed Jul 16 2025 18:52:09 GMT-0500 (Central Daylight Time),645846.6999999881,A,but,I,t,40,1,16261.0,629585.6999999881,8060,WL,A,15.0
5,39.270999908447266,learn,60000.0,Wed Jul 16 2025 18:52:09 GMT-0500 (Central Daylight Time),646030.1999999881,A,butt,I,t,174,1,16444.5,629585.6999999881,8060,WL,A,15.0
5,39.36999988555908,learn,60000.0,Wed Jul 16 2025 18:52:09 GMT-0500 (Central Daylight Time),646129.8999999762,A,butto,I,o,94,1,16544.19999998808,629585.6999999881,8060,WL,A,15.0
5,39.52199983596802,learn,60000.0,Wed Jul 16 2025 18:52:09 GMT-0500 (Central Daylight Time),646281.5,A,button,I,n,147,1,16695.80000001192,629585.6999999881,8060,WL,A,15.0
5,39.853999853134155,learn,60000.0,Wed Jul 16 2025 18:52:09 GMT-0500 (Central Daylight Time),646613.3999999762,A,buttonenter,I,enter,315,1,17027.69999998808,629585.6999999881,8060,WL,A,15.0
6,1.0989999771118164,distr,58901.00002288818,Wed Jul 16 2025 18:52:09 GMT-0500 (Central Daylight Time),719207.5,B,j,I,j,1088,1,1098.7000000476837,718108.7999999523,8060,WL,A,1.0
6,1.3320000171661377,distr,58667.99998283386,Wed Jul 16 2025 18:52:09 GMT-0500 (Central Daylight Time),719440.5,B,ju,I,u,212,1,1331.7000000476837,718108.7999999523,8060,WL,A,1.0
6,1.3819999694824219,distr,58618.00003051758,Wed Jul 16 2025 18:52:09 GMT-0500 (Central Daylight Time),719490.3999999762,B,jud,I,d,36,1,1381.6000000238419,718108.7999999523,8060,WL,A,1.0
6,1.5980000495910645,distr,58401.999950408936,Wed Jul 16 2025 18:52:09 GMT-0500 (Central Daylight Time),719706.8999999762,B,jude,I,e,210,1,1598.1000000238419,718108.7999999523,8060,WL,A,1.0
6,2.0980000495910645,distr,57901.999950408936,Wed Jul 16 2025 18:52:09 GMT-0500 (Central Daylight Time),720206.8999999762,B,jud,I,backspace,482,1,2098.100000023842,718108.7999999523,8060,WL,A,1.0
6,2.180999994277954,distr,57819.000005722046,Wed Jul 16 2025 18:52:09 GMT-0500 (Central Daylight Time),720289.7999999523,B,judg,I,g,78,1,2181.0,718108.7999999523,8060,WL,A,1.0
6,2.3480000495910645,distr,57651.999950408936,Wed Jul 16 2025 18:52:09 GMT-0500 (Central Daylight Time),720456.8999999762,B,judge,I,e,146,1,2348.100000023842,718108.7999999523,8060,WL,A,1.0
6,2.6480000019073486,distr,57351.99999809265,Wed Jul 16 2025 18:52:09 GMT-0500 (Central Daylight Time),720756.5999999642,B,judgeenter,I,enter,284,1,2647.800000011921,718108.7999999523,8060,WL,A,1.0
6,3.0810000896453857,distr,56918.999910354614,Wed Jul 16 2025 18:52:09 GMT-0500 (Central Daylight Time),721189.8999999762,B,p,I,p,416,1,433.10000002384186,720756.7999999523,8060,WL,A,2.0
6,3.38100004196167,distr,56618.99995803833,Wed Jul 16 2025 18:52:09 GMT-0500 (Central Daylight Time),721489.7999999523,B,po,I,o,287,1,733.0,720756.7999999523,8060,WL,A,2.0
6,3.5810000896453857,distr,56418.999910354614,Wed Jul 16 2025 18:52:09 GMT-0500 (Central Daylight Time),721689.8999999762,B,poo,I,o,180,1,933.1000000238419,720756.7999999523,8060,WL,A,2.0
6,3.814000129699707,distr,56185.99987030029,Wed Jul 16 2025 18:52:09 GMT-0500 (Central Daylight Time),721922.7999999523,B,pool,I,l,219,1,1166.0,720756.7999999523,8060,WL,A,2.0
6,4.065000057220459,distr,55934.99994277954,Wed Jul 16 2025 18:52:09 GMT-0500 (Central Daylight Time),722173.0,B,poolenter,I,enter,241,1,1416.2000000476837,720756.7999999523,8060,WL,A,2.0
6,4.38100004196167,distr,55618.99995803833,Wed Jul 16 2025 18:52:09 GMT-0500 (Central Daylight Time),722489.3999999762,B,g,I,g,303,1,316.0,722173.3999999762,8060,WL,A,3.0
6,4.581000089645386,distr,55418.999910354614,Wed Jul 16 2025 18:52:09 GMT-0500 (Central Daylight Time),722689.2999999523,B,gr,I,r,179,1,515.8999999761581,722173.3999999762,8060,WL,A,3.0
6,4.631999969482422,distr,55368.00003051758,Wed Jul 16 2025 18:52:09 GMT-0500 (Central Daylight Time),722740.0,B,gra,I,a,43,1,566.6000000238419,722173.3999999762,8060,WL,A,3.0
6,4.797000169754028,distr,55202.99983024597,Wed Jul 16 2025 18:52:09 GMT-0500 (Central Daylight Time),722905.6999999881,B,gran,I,n,159,1,732.3000000119209,722173.3999999762,8060,WL,A,3.0
6,4.947000026702881,distr,55052.99997329712,Wed Jul 16 2025 18:52:09 GMT-0500 (Central Daylight Time),723055.7999999523,B,grant,I,t,131,1,882.3999999761581,722173.3999999762,8060,WL,A,3.0
6,5.0980000495910645,distr,54901.999950408936,Wed Jul 16 2025 18:52:09 GMT-0500 (Central Daylight Time),723206.0999999642,B,grantenter,I,enter,140,1,1032.699999988079,722173.3999999762,8060,WL,A,3.0
6,5.397000074386597,distr,54602.9999256134,Wed Jul 16 2025 18:52:09 GMT-0500 (Central Daylight Time),723505.6999999881,B,i,I,i,295,1,299.4000000357628,723206.2999999523,8060,WL,A,4.0
6,5.5970001220703125,distr,54402.99987792969,Wed Jul 16 2025 18:52:09 GMT-0500 (Central Daylight Time),723705.7999999523,B,in,I,n,187,1,499.5,723206.2999999523,8060,WL,A,4.0
6,5.71399998664856,distr,54286.00001335144,Wed Jul 16 2025 18:52:09 GMT-0500 (Central Daylight Time),723822.3999999762,B,ins,I,s,99,1,616.1000000238419,723206.2999999523,8060,WL,A,4.0
6,5.947000026702881,distr,54052.99997329712,Wed Jul 16 2025 18:52:09 GMT-0500 (Central Daylight Time),724055.5999999642,B,inse,I,e,214,1,849.3000000119209,723206.2999999523,8060,WL,A,4.0
6,6.230000019073486,distr,53769.999980926514,Wed Jul 16 2025 18:52:09 GMT-0500 (Central Daylight Time),724338.8999999762,B,insec,I,c,269,1,1132.6000000238419,723206.2999999523,8060,WL,A,4.0
6,6.496999979019165,distr,53503.000020980835,Wed Jul 16 2025 18:52:09 GMT-0500 (Central Daylight Time),724605.5999999642,B,insect,I,t,250,1,1399.300000011921,723206.2999999523,8060,WL,A,4.0
6,6.697000026702881,distr,53302.99997329712,Wed Jul 16 2025 18:52:09 GMT-0500 (Central Daylight Time),724805.5,B,insectenter,I,enter,191,1,1599.2000000476837,723206.2999999523,8060,WL,A,4.0
6,20.359000205993652,distr,39640.99979400635,Wed Jul 16 2025 18:52:09 GMT-0500 (Central Daylight Time),738467.7999999523,B,s,I,s,13647,1,13661.899999976158,724805.8999999762,8060,WL,A,5.0
6,20.55900001525879,distr,39440.99998474121,Wed Jul 16 2025 18:52:09 GMT-0500 (Central Daylight Time),738667.6999999881,B,se,I,e,192,1,13861.800000011921,724805.8999999762,8060,WL,A,5.0
6,20.776000022888184,distr,39223.99997711182,Wed Jul 16 2025 18:52:09 GMT-0500 (Central Daylight Time),738884.2999999523,B,see,I,e,209,1,14078.399999976158,724805.8999999762,8060,WL,A,5.0
6,20.9760000705719,distr,39023.9999294281,Wed Jul 16 2025 18:52:09 GMT-0500 (Central Daylight Time),739084.5,B,seed,I,d,184,1,14278.600000023842,724805.8999999762,8060,WL,A,5.0
6,21.642000198364258,distr,38357.99980163574,Wed Jul 16 2025 18:52:09 GMT-0500 (Central Daylight Time),739750.5999999642,B,seedenter,I,enter,648,1,14944.699999988079,724805.8999999762,8060,WL,A,5.0
6,34.105000019073486,distr,25894.999980926514,Wed Jul 16 2025 18:52:09 GMT-0500 (Central Daylight Time),752213.3999999762,B,c,I,c,12454,1,12462.399999976158,739751.0,8060,WL,A,6.0
6,34.5550000667572,distr,25444.999933242798,Wed Jul 16 2025 18:52:09 GMT-0500 (Central Daylight Time),752663.1999999881,B,co,I,o,438,1,12912.199999988079,739751.0,8060,WL,A,6.0
6,35.62100005149841,distr,24378.999948501587,Wed Jul 16 2025 18:52:09 GMT-0500 (Central Daylight Time),753729.5,B,cou,I,u,1061,1,13978.5,739751.0,8060,WL,A,6.0
6,35.83800005912781,distr,24161.999940872192,Wed Jul 16 2025 18:52:09 GMT-0500 (Central Daylight Time),753946.1999999881,B,coun,I,n,203,1,14195.199999988079,739751.0,8060,WL,A,6.0
6,35.955000162124634,distr,24044.999837875366,Wed Jul 16 2025 18:52:09 GMT-0500 (Central Daylight Time),754063.0999999642,B,count,I,t,106,1,14312.099999964237,739751.0,8060,WL,A,6.0
6,36.13800001144409,distr,23861.99998855591,Wed Jul 16 2025 18:52:09 GMT-0500 (Central Daylight Time),754246.1999999881,B,county,I,y,165,1,14495.199999988079,739751.0,8060,WL,A,6.0
6,36.455000162124634,distr,23544.999837875366,Wed Jul 16 2025 18:52:09 GMT-0500 (Central Daylight Time),754562.8999999762,B,countyenter,I,enter,302,1,14811.899999976158,739751.0,8060,WL,A,6.0
6,60.01300001144409,distr,-13.000011444091797,Wed Jul 16 2025 18:52:09 GMT-0500 (Central Daylight Time),778122.0999999642,B,None,I,None,23555,1,23558.80000001192,754563.2999999523,8060,WL,A,7.0
7,0.7990000247955322,immed,59200.99997520447,Wed Jul 16 2025 18:52:09 GMT-0500 (Central Daylight Time),792534.1999999881,A,b,I,b,791,1,799.6999999880791,791734.5,8060,WL,A,1.0
7,0.998999834060669,immed,59001.00016593933,Wed Jul 16 2025 18:52:09 GMT-0500 (Central Daylight Time),792734.0999999642,A,bo,I,o,181,1,999.5999999642372,791734.5,8060,WL,A,1.0
7,1.1659998893737793,immed,58834.00011062622,Wed Jul 16 2025 18:52:09 GMT-0500 (Central Daylight Time),792900.6999999881,A,boo,I,o,150,1,1166.199999988079,791734.5,8060,WL,A,1.0
7,1.315999984741211,immed,58684.00001525879,Wed Jul 16 2025 18:52:09 GMT-0500 (Central Daylight Time),793050.3999999762,A,book,I,k,144,1,1315.8999999761581,791734.5,8060,WL,A,1.0
7,1.681999921798706,immed,58318.000078201294,Wed Jul 16 2025 18:52:09 GMT-0500 (Central Daylight Time),793417.0999999642,A,bookenter,I,enter,353,1,1682.5999999642372,791734.5,8060,WL,A,1.0
7,2.1489999294281006,immed,57851.0000705719,Wed Jul 16 2025 18:52:09 GMT-0500 (Central Daylight Time),793883.2999999523,A,r,I,r,459,1,465.89999997615814,793417.3999999762,8060,WL,A,2.0
7,2.31499981880188,immed,57685.00018119812,Wed Jul 16 2025 18:52:09 GMT-0500 (Central Daylight Time),794050.0,A,ru,I,u,151,1,632.6000000238419,793417.3999999762,8060,WL,A,2.0
7,2.4489998817443848,immed,57551.000118255615,Wed Jul 16 2025 18:52:09 GMT-0500 (Central Daylight Time),794183.3999999762,A,rug,I,g,122,1,766.0,793417.3999999762,8060,WL,A,2.0
7,2.6489999294281006,immed,57351.0000705719,Wed Jul 16 2025 18:52:09 GMT-0500 (Central Daylight Time),794383.5,A,rugenter,I,enter,187,1,966.1000000238419,793417.3999999762,8060,WL,A,2.0
7,2.881999969482422,immed,57118.00003051758,Wed Jul 16 2025 18:52:09 GMT-0500 (Central Daylight Time),794616.5999999642,A,t,I,t,218,1,232.69999998807907,794383.8999999762,8060,WL,A,3.0
7,3.0490000247955322,immed,56950.99997520447,Wed Jul 16 2025 18:52:09 GMT-0500 (Central Daylight Time),794783.2999999523,A,tr,I,r,155,1,399.39999997615814,794383.8999999762,8060,WL,A,3.0
7,3.1480000019073486,immed,56851.99999809265,Wed Jul 16 2025 18:52:09 GMT-0500 (Central Daylight Time),794883.0999999642,A,tra,I,a,85,1,499.19999998807907,794383.8999999762,8060,WL,A,3.0
7,3.2319998741149902,immed,56768.00012588501,Wed Jul 16 2025 18:52:09 GMT-0500 (Central Daylight Time),794966.6999999881,A,trai,I,i,65,1,582.8000000119209,794383.8999999762,8060,WL,A,3.0
7,3.381999969482422,immed,56618.00003051758,Wed Jul 16 2025 18:52:09 GMT-0500 (Central Daylight Time),795116.1999999881,A,train,I,n,131,1,732.3000000119209,794383.8999999762,8060,WL,A,3.0
7,3.797999858856201,immed,56202.0001411438,Wed Jul 16 2025 18:52:09 GMT-0500 (Central Daylight Time),795533.0,A,trainenter,I,enter,407,1,1149.1000000238419,794383.8999999762,8060,WL,A,3.0
7,4.080999851226807,immed,55919.00014877319,Wed Jul 16 2025 18:52:09 GMT-0500 (Central Daylight Time),795816.0999999642,A,f,I,f,263,1,282.89999997615814,795533.1999999881,8060,WL,A,4.0
7,4.164999961853027,immed,55835.00003814697,Wed Jul 16 2025 18:52:09 GMT-0500 (Central Daylight Time),795899.5,A,fl,I,l,74,1,366.30000001192093,795533.1999999881,8060,WL,A,4.0
7,4.347999811172485,immed,55652.000188827515,Wed Jul 16 2025 18:52:09 GMT-0500 (Central Daylight Time),796082.7999999523,A,flo,I,o,176,1,549.5999999642372,795533.1999999881,8060,WL,A,4.0
7,4.398000001907349,immed,55601.99999809265,Wed Jul 16 2025 18:52:09 GMT-0500 (Central Daylight Time),796132.6999999881,A,flow,I,w,33,1,599.5,795533.1999999881,8060,WL,A,4.0
7,4.497999906539917,immed,55502.00009346008,Wed Jul 16 2025 18:52:09 GMT-0500 (Central Daylight Time),796232.7999999523,A,flowe,I,e,87,1,699.5999999642372,795533.1999999881,8060,WL,A,4.0
7,4.648000001907349,immed,55351.99999809265,Wed Jul 16 2025 18:52:09 GMT-0500 (Central Daylight Time),796382.5999999642,A,flower,I,r,139,1,849.3999999761581,795533.1999999881,8060,WL,A,4.0
7,4.7809998989105225,immed,55219.00010108948,Wed Jul 16 2025 18:52:09 GMT-0500 (Central Daylight Time),796516.0,A,flowerenter,I,enter,118,1,982.8000000119209,795533.1999999881,8060,WL,A,4.0
7,5.047999858856201,immed,54952.0001411438,Wed Jul 16 2025 18:52:09 GMT-0500 (Central Daylight Time),796782.3999999762,A,c,I,c,248,1,266.10000002384186,796516.2999999523,8060,WL,A,5.0
7,5.115000009536743,immed,54884.99999046326,Wed Jul 16 2025 18:52:09 GMT-0500 (Central Daylight Time),796849.2999999523,A,ch,I,h,62,1,333.0,796516.2999999523,8060,WL,A,5.0
7,5.197999954223633,immed,54802.00004577637,Wed Jul 16 2025 18:52:09 GMT-0500 (Central Daylight Time),796932.5,A,chi,I,i,67,1,416.2000000476837,796516.2999999523,8060,WL,A,5.0
7,5.380999803543091,immed,54619.00019645691,Wed Jul 16 2025 18:52:09 GMT-0500 (Central Daylight Time),797115.8999999762,A,chim,I,m,167,1,599.6000000238419,796516.2999999523,8060,WL,A,5.0
7,5.5309998989105225,immed,54469.00010108948,Wed Jul 16 2025 18:52:09 GMT-0500 (Central Daylight Time),797265.6999999881,A,chime,I,e,144,1,749.4000000357628,796516.2999999523,8060,WL,A,5.0
7,5.613999843597412,immed,54386.00015640259,Wed Jul 16 2025 18:52:09 GMT-0500 (Central Daylight Time),797348.8999999762,A,chimen,I,n,74,1,832.6000000238419,796516.2999999523,8060,WL,A,5.0
7,5.847999811172485,immed,54152.000188827515,Wed Jul 16 2025 18:52:09 GMT-0500 (Central Daylight Time),797582.2999999523,A,chimeny,I,y,215,1,1066.0,796516.2999999523,8060,WL,A,5.0
7,6.230999946594238,immed,53769.00005340576,Wed Jul 16 2025 18:52:09 GMT-0500 (Central Daylight Time),797965.2999999523,A,chimen,I,backspace,366,1,1449.0,796516.2999999523,8060,WL,A,5.0
7,6.414000034332275,immed,53585.999965667725,Wed Jul 16 2025 18:52:09 GMT-0500 (Central Daylight Time),798148.5999999642,A,chime,I,backspace,167,1,1632.300000011921,796516.2999999523,8060,WL,A,5.0
7,6.563999891281128,immed,53436.00010871887,Wed Jul 16 2025 18:52:09 GMT-0500 (Central Daylight Time),798298.5999999642,A,chim,I,backspace,136,1,1782.300000011921,796516.2999999523,8060,WL,A,5.0
7,6.830999851226807,immed,53169.00014877319,Wed Jul 16 2025 18:52:09 GMT-0500 (Central Daylight Time),798565.3999999762,A,chimn,I,n,250,1,2049.100000023842,796516.2999999523,8060,WL,A,5.0
7,7.013999938964844,immed,52986.000061035156,Wed Jul 16 2025 18:52:09 GMT-0500 (Central Daylight Time),798748.3999999762,A,chimne,I,e,174,1,2232.100000023842,796516.2999999523,8060,WL,A,5.0
7,7.164000034332275,immed,52835.999965667725,Wed Jul 16 2025 18:52:09 GMT-0500 (Central Daylight Time),798898.3999999762,A,chimney,I,y,136,1,2382.100000023842,796516.2999999523,8060,WL,A,5.0
7,7.5299999713897705,immed,52470.00002861023,Wed Jul 16 2025 18:52:09 GMT-0500 (Central Daylight Time),799265.0999999642,A,chimneyenter,I,enter,362,1,2748.800000011921,796516.2999999523,8060,WL,A,5.0
7,7.980000019073486,immed,52019.999980926514,Wed Jul 16 2025 18:52:09 GMT-0500 (Central Daylight Time),799714.7999999523,A,l,I,l,443,1,449.39999997615814,799265.3999999762,8060,WL,A,6.0
7,8.162999868392944,immed,51837.000131607056,Wed Jul 16 2025 18:52:09 GMT-0500 (Central Daylight Time),799898.0999999642,A,lo,I,o,178,1,632.6999999880791,799265.3999999762,8060,WL,A,6.0
7,8.263999938964844,immed,51736.000061035156,Wed Jul 16 2025 18:52:09 GMT-0500 (Central Daylight Time),799998.2999999523,A,log,I,g,90,1,732.8999999761581,799265.3999999762,8060,WL,A,6.0
7,8.46399998664856,immed,51536.00001335144,Wed Jul 16 2025 18:52:09 GMT-0500 (Central Daylight Time),800198.3999999762,A,logenter,I,enter,189,1,933.0,799265.3999999762,8060,WL,A,6.0
7,8.86299991607666,immed,51137.00008392334,Wed Jul 16 2025 18:52:09 GMT-0500 (Central Daylight Time),800598.1999999881,A,b,I,b,382,1,399.5,800198.6999999881,8060,WL,A,7.0
7,9.113999843597412,immed,50886.00015640259,Wed Jul 16 2025 18:52:09 GMT-0500 (Central Daylight Time),800848.2999999523,A,bu,I,u,231,1,649.5999999642372,800198.6999999881,8060,WL,A,7.0
7,9.246999979019165,immed,50753.000020980835,Wed Jul 16 2025 18:52:09 GMT-0500 (Central Daylight Time),800981.5,A,but,I,t,124,1,782.8000000119209,800198.6999999881,8060,WL,A,7.0
7,9.396999835968018,immed,50603.00016403198,Wed Jul 16 2025 18:52:09 GMT-0500 (Central Daylight Time),801131.8999999762,A,butt,I,t,143,1,933.1999999880791,800198.6999999881,8060,WL,A,7.0
7,9.480000019073486,immed,50519.999980926514,Wed Jul 16 2025 18:52:09 GMT-0500 (Central Daylight Time),801214.6999999881,A,butto,I,o,74,1,1016.0,800198.6999999881,8060,WL,A,7.0
7,9.69700002670288,immed,50302.99997329712,Wed Jul 16 2025 18:52:09 GMT-0500 (Central Daylight Time),801431.2999999523,A,button,I,n,198,1,1232.5999999642372,800198.6999999881,8060,WL,A,7.0
7,9.912999868392944,immed,50087.000131607056,Wed Jul 16 2025 18:52:09 GMT-0500 (Central Daylight Time),801647.8999999762,A,buttonenter,I,enter,197,1,1449.199999988079,800198.6999999881,8060,WL,A,7.0
7,10.11299991607666,immed,49887.00008392334,Wed Jul 16 2025 18:52:09 GMT-0500 (Central Daylight Time),801847.8999999762,A,a,I,a,181,1,199.69999998807907,801648.1999999881,8060,WL,A,8.0
7,10.230000019073486,immed,49769.999980926514,Wed Jul 16 2025 18:52:09 GMT-0500 (Central Daylight Time),801964.5,A,ap,I,p,101,1,316.30000001192093,801648.1999999881,8060,WL,A,8.0
7,10.589999914169312,immed,49410.00008583069,Wed Jul 16 2025 18:52:09 GMT-0500 (Central Daylight Time),802324.7999999523,A,apl,I,l,356,1,676.5999999642372,801648.1999999881,8060,WL,A,8.0
7,10.712999820709229,immed,49287.00017929077,Wed Jul 16 2025 18:52:09 GMT-0500 (Central Daylight Time),802447.2999999523,A,aple,I,e,112,1,799.0999999642372,801648.1999999881,8060,WL,A,8.0
7,11.095999956130981,immed,48904.00004386902,Wed Jul 16 2025 18:52:09 GMT-0500 (Central Daylight Time),802831.0,A,apl,I,backspace,365,1,1182.800000011921,801648.1999999881,8060,WL,A,8.0
7,11.245999813079834,immed,48754.000186920166,Wed Jul 16 2025 18:52:09 GMT-0500 (Central Daylight Time),802980.8999999762,A,ap,I,backspace,141,1,1332.699999988079,801648.1999999881,8060,WL,A,8.0
7,11.51199984550476,immed,48488.00015449524,Wed Jul 16 2025 18:52:09 GMT-0500 (Central Daylight Time),803247.0999999642,A,app,I,p,256,1,1598.8999999761581,801648.1999999881,8060,WL,A,8.0
7,11.728999853134155,immed,48271.000146865845,Wed Jul 16 2025 18:52:09 GMT-0500 (Central Daylight Time),803463.6999999881,A,appl,I,l,195,1,1815.5,801648.1999999881,8060,WL,A,8.0
7,11.845999956130981,immed,48154.00004386902,Wed Jul 16 2025 18:52:09 GMT-0500 (Central Daylight Time),803580.3999999762,A,apple,I,e,98,1,1932.199999988079,801648.1999999881,8060,WL,A,8.0
7,11.978999853134155,immed,48021.000146865845,Wed Jul 16 2025 18:52:09 GMT-0500 (Central Daylight Time),803713.6999999881,A,appleenter,I,enter,128,1,2065.5,801648.1999999881,8060,WL,A,8.0
7,14.09500002861023,immed,45904.99997138977,Wed Jul 16 2025 18:52:09 GMT-0500 (Central Daylight Time),805829.8999999762,A,f,I,f,2098,1,2116.0,803713.8999999762,8060,WL,A,9.0
7,14.227999925613403,immed,45772.0000743866,Wed Jul 16 2025 18:52:09 GMT-0500 (Central Daylight Time),805963.0999999642,A,fi,I,i,117,1,2249.199999988079,803713.8999999762,8060,WL,A,9.0
7,14.378000020980835,immed,45621.999979019165,Wed Jul 16 2025 18:52:09 GMT-0500 (Central Daylight Time),806113.0,A,fin,I,n,145,1,2399.100000023842,803713.8999999762,8060,WL,A,9.0
7,14.444999933242798,immed,45555.0000667572,Wed Jul 16 2025 18:52:09 GMT-0500 (Central Daylight Time),806179.5999999642,A,fing,I,g,50,1,2465.699999988079,803713.8999999762,8060,WL,A,9.0
7,14.577999830245972,immed,45422.00016975403,Wed Jul 16 2025 18:52:09 GMT-0500 (Central Daylight Time),806312.8999999762,A,finge,I,e,121,1,2599.0,803713.8999999762,8060,WL,A,9.0
7,14.710999965667725,immed,45289.000034332275,Wed Jul 16 2025 18:52:09 GMT-0500 (Central Daylight Time),806445.8999999762,A,finger,I,r,122,1,2732.0,803713.8999999762,8060,WL,A,9.0
7,14.794999837875366,immed,45205.000162124634,Wed Jul 16 2025 18:52:09 GMT-0500 (Central Daylight Time),806529.6999999881,A,fingerenter,I,enter,71,1,2815.800000011921,803713.8999999762,8060,WL,A,9.0
7,15.144999980926514,immed,44855.000019073486,Wed Jul 16 2025 18:52:09 GMT-0500 (Central Daylight Time),806879.3999999762,A,s,I,s,330,1,349.39999997615814,806530.0,8060,WL,A,10.0
7,15.510999917984009,immed,44489.00008201599,Wed Jul 16 2025 18:52:09 GMT-0500 (Central Daylight Time),807245.8999999762,A,,I,backspace,349,1,715.8999999761581,806530.0,8060,WL,A,10.0
7,15.694000005722046,immed,44305.999994277954,Wed Jul 16 2025 18:52:09 GMT-0500 (Central Daylight Time),807429.1999999881,A,h,I,h,175,1,899.1999999880791,806530.0,8060,WL,A,10.0
7,15.793999910354614,immed,44206.000089645386,Wed Jul 16 2025 18:52:09 GMT-0500 (Central Daylight Time),807529.1999999881,A,ha,I,a,87,1,999.1999999880791,806530.0,8060,WL,A,10.0
7,15.960999965667725,immed,44039.000034332275,Wed Jul 16 2025 18:52:09 GMT-0500 (Central Daylight Time),807695.5999999642,A,har,I,r,147,1,1165.5999999642372,806530.0,8060,WL,A,10.0
7,16.426999807357788,immed,43573.00019264221,Wed Jul 16 2025 18:52:09 GMT-0500 (Central Daylight Time),808162.1999999881,A,harp,I,p,460,1,1632.199999988079,806530.0,8060,WL,A,10.0
7,16.66100001335144,immed,43338.99998664856,Wed Jul 16 2025 18:52:09 GMT-0500 (Central Daylight Time),808395.3999999762,A,harpenter,I,enter,226,1,1865.3999999761581,806530.0,8060,WL,A,10.0
7,16.99399995803833,immed,43006.00004196167,Wed Jul 16 2025 18:52:09 GMT-0500 (Central Daylight Time),808729.0999999642,A,s,I,s,329,1,333.39999997615814,808395.6999999881,8060,WL,A,11.0
7,17.16100001335144,immed,42838.99998664856,Wed Jul 16 2025 18:52:09 GMT-0500 (Central Daylight Time),808895.2999999523,A,sa,I,a,155,1,499.5999999642372,808395.6999999881,8060,WL,A,11.0
7,17.47699999809265,immed,42523.00000190735,Wed Jul 16 2025 18:52:09 GMT-0500 (Central Daylight Time),809211.7999999523,A,sat,I,t,309,1,816.0999999642372,808395.6999999881,8060,WL,A,11.0
