block_c,block_dur,condition,countdown,datetime,endtime,list,multichar_response,project,response,response_time,session_number,start_end,starttime,subject_id,task,task_vers,trial
,,,,Mon Feb 16 2026 09:22:25 GMT-0600 (Central Standard Time),,,,I,space,2616,3,,,8060,WL,C,
prac,,0,,Mon Feb 16 2026 09:22:25 GMT-0600 (Central Standard Time),,NA,b,I,b,1843,3,,,8060,WL,C,1.0
prac,,0,,Mon Feb 16 2026 09:22:25 GMT-0600 (Central Standard Time),,NA,bo,I,o,188,3,,,8060,WL,C,1.0
prac,,0,,Mon Feb 16 2026 09:22:25 GMT-0600 (Central Standard Time),,NA,boo,I,o,133,3,,,8060,WL,C,1.0
prac,,0,,Mon Feb 16 2026 09:22:25 GMT-0600 (Central Standard Time),,NA,boos,I,s,95,3,,,8060,WL,C,1.0
prac,,0,,Mon Feb 16 2026 09:22:25 GMT-0600 (Central Standard Time),,NA,boost,I,t,156,3,,,8060,WL,C,1.0
prac,,0,,Mon Feb 16 2026 09:22:25 GMT-0600 (Central Standard Time),,NA,boostenter,I,enter,388,3,,,8060,WL,C,1.0
1,0.8499999046325684,learn,59150.00009536743,Mon Feb 16 2026 09:22:25 GMT-0600 (Central Standard Time),110725.90000009537,A,t,I,t,838,3,849.7000000476837,109876.20000004768,8060,WL,C,1.0
1,0.9830000400543213,learn,59016.99995994568,Mon Feb 16 2026 09:22:25 GMT-0600 (Central Standard Time),110859.10000002384,A,to,I,o,117,3,982.8999999761581,109876.20000004768,8060,WL,C,1.0
1,1.0999999046325684,learn,58900.00009536743,Mon Feb 16 2026 09:22:25 GMT-0600 (Central Standard Time),110975.80000007153,A,tow,I,w,104,3,1099.6000000238419,109876.20000004768,8060,WL,C,1.0
1,1.3329999446868896,learn,58667.00005531311,Mon Feb 16 2026 09:22:25 GMT-0600 (Central Standard Time),111209.0,A,towe,I,e,212,3,1332.7999999523163,109876.20000004768,8060,WL,C,1.0
1,1.5329999923706055,learn,58467.000007629395,Mon Feb 16 2026 09:22:25 GMT-0600 (Central Standard Time),111409.20000004768,A,tower,I,r,187,3,1533.0,109876.20000004768,8060,WL,C,1.0
1,1.8989999294281006,learn,58101.0000705719,Mon Feb 16 2026 09:22:25 GMT-0600 (Central Standard Time),111775.5,A,towerenter,I,enter,353,3,1899.2999999523163,109876.20000004768,8060,WL,C,1.0
1,2.432999849319458,learn,57567.00015068054,Mon Feb 16 2026 09:22:25 GMT-0600 (Central Standard Time),112309.0,A,q,I,q,516,3,532.8999999761581,111776.10000002384,8060,WL,C,2.0
1,2.5820000171661377,learn,57417.99998283386,Mon Feb 16 2026 09:22:25 GMT-0600 (Central Standard Time),112458.70000004768,A,qu,I,u,142,3,682.6000000238419,111776.10000002384,8060,WL,C,2.0
1,2.7149999141693115,learn,57285.00008583069,Mon Feb 16 2026 09:22:25 GMT-0600 (Central Standard Time),112591.80000007153,A,que,I,e,112,3,815.7000000476837,111776.10000002384,8060,WL,C,2.0
1,2.8489999771118164,learn,57151.00002288818,Mon Feb 16 2026 09:22:25 GMT-0600 (Central Standard Time),112725.20000004768,A,quee,I,e,123,3,949.1000000238419,111776.10000002384,8060,WL,C,2.0
1,2.9659998416900635,learn,57034.00015830994,Mon Feb 16 2026 09:22:25 GMT-0600 (Central Standard Time),112841.80000007153,A,queen,I,n,100,3,1065.7000000476837,111776.10000002384,8060,WL,C,2.0
1,3.2149999141693115,learn,56785.00008583069,Mon Feb 16 2026 09:22:25 GMT-0600 (Central Standard Time),113091.70000004768,A,queenenter,I,enter,241,3,1315.6000000238419,111776.10000002384,8060,WL,C,2.0
1,3.748999834060669,learn,56251.00016593933,Mon Feb 16 2026 09:22:25 GMT-0600 (Central Standard Time),113624.90000009537,A,w,I,w,520,3,532.8000000715256,113092.10000002384,8060,WL,C,3.0
1,3.9649999141693115,learn,56035.00008583069,Mon Feb 16 2026 09:22:25 GMT-0600 (Central Standard Time),113841.5,A,wh,I,h,202,3,749.3999999761581,113092.10000002384,8060,WL,C,3.0
1,4.115000009536743,learn,55884.99999046326,Mon Feb 16 2026 09:22:25 GMT-0600 (Central Standard Time),113991.5,A,whe,I,e,139,3,899.3999999761581,113092.10000002384,8060,WL,C,3.0
1,4.447999954223633,learn,55552.00004577637,Mon Feb 16 2026 09:22:25 GMT-0600 (Central Standard Time),114324.70000004768,A,whea,I,a,315,3,1232.6000000238419,113092.10000002384,8060,WL,C,3.0
1,4.598999977111816,learn,55401.00002288818,Mon Feb 16 2026 09:22:25 GMT-0600 (Central Standard Time),114475.10000002384,A,wheat,I,t,134,3,1383.0,113092.10000002384,8060,WL,C,3.0
1,4.764999866485596,learn,55235.000133514404,Mon Feb 16 2026 09:22:25 GMT-0600 (Central Standard Time),114641.30000007153,A,wheatenter,I,enter,152,3,1549.2000000476837,113092.10000002384,8060,WL,C,3.0
1,5.031999826431274,learn,54968.000173568726,Mon Feb 16 2026 09:22:25 GMT-0600 (Central Standard Time),114907.90000009537,A,s,I,s,258,3,266.2000000476837,114641.70000004768,8060,WL,C,4.0
1,5.164999961853027,learn,54835.00003814697,Mon Feb 16 2026 09:22:25 GMT-0600 (Central Standard Time),115041.20000004768,A,su,I,u,112,3,399.5,114641.70000004768,8060,WL,C,4.0
1,5.31499981880188,learn,54685.00018119812,Mon Feb 16 2026 09:22:25 GMT-0600 (Central Standard Time),115191.30000007153,A,sug,I,g,137,3,549.6000000238419,114641.70000004768,8060,WL,C,4.0
1,5.497999906539917,learn,54502.00009346008,Mon Feb 16 2026 09:22:25 GMT-0600 (Central Standard Time),115374.40000009537,A,suga,I,a,172,3,732.7000000476837,114641.70000004768,8060,WL,C,4.0
1,5.598999977111816,learn,54401.00002288818,Mon Feb 16 2026 09:22:25 GMT-0600 (Central Standard Time),115475.5,A,sugar,I,r,86,3,833.7999999523163,114641.70000004768,8060,WL,C,4.0
1,6.047999858856201,learn,53952.0001411438,Mon Feb 16 2026 09:22:25 GMT-0600 (Central Standard Time),115924.0,A,sugarenter,I,enter,433,3,1282.2999999523163,114641.70000004768,8060,WL,C,4.0
1,6.398000001907349,learn,53601.99999809265,Mon Feb 16 2026 09:22:25 GMT-0600 (Central Standard Time),116274.20000004768,A,c,I,c,343,3,349.7999999523163,115924.40000009537,8060,WL,C,5.0
1,6.480999946594238,learn,53519.00005340576,Mon Feb 16 2026 09:22:25 GMT-0600 (Central Standard Time),116357.40000009537,A,co,I,o,73,3,433.0,115924.40000009537,8060,WL,C,5.0
1,6.664000034332275,learn,53335.999965667725,Mon Feb 16 2026 09:22:25 GMT-0600 (Central Standard Time),116540.80000007153,A,cor,I,r,166,3,616.3999999761581,115924.40000009537,8060,WL,C,5.0
1,6.797999858856201,learn,53202.0001411438,Mon Feb 16 2026 09:22:25 GMT-0600 (Central Standard Time),116674.20000004768,A,corn,I,n,120,3,749.7999999523163,115924.40000009537,8060,WL,C,5.0
1,6.997999906539917,learn,53002.00009346008,Mon Feb 16 2026 09:22:25 GMT-0600 (Central Standard Time),116874.0,A,cornenter,I,enter,185,3,949.5999999046326,115924.40000009537,8060,WL,C,5.0
1,7.263999938964844,learn,52736.000061035156,Mon Feb 16 2026 09:22:25 GMT-0600 (Central Standard Time),117140.5,A,c,I,c,257,3,266.09999990463257,116874.40000009537,8060,WL,C,6.0
1,7.480999946594238,learn,52519.00005340576,Mon Feb 16 2026 09:22:25 GMT-0600 (Central Standard Time),117357.20000004768,A,ca,I,a,199,3,482.7999999523163,116874.40000009537,8060,WL,C,6.0
1,7.63100004196167,learn,52368.99995803833,Mon Feb 16 2026 09:22:25 GMT-0600 (Central Standard Time),117507.10000002384,A,cat,I,t,135,3,632.6999999284744,116874.40000009537,8060,WL,C,6.0
1,7.7809998989105225,learn,52219.00010108948,Mon Feb 16 2026 09:22:25 GMT-0600 (Central Standard Time),117657.20000004768,A,catt,I,t,129,3,782.7999999523163,116874.40000009537,8060,WL,C,6.0
1,7.896999835968018,learn,52103.00016403198,Mon Feb 16 2026 09:22:25 GMT-0600 (Central Standard Time),117773.80000007153,A,cattl,I,l,98,3,899.3999999761581,116874.40000009537,8060,WL,C,6.0
1,8.080999851226807,learn,51919.00014877319,Mon Feb 16 2026 09:22:25 GMT-0600 (Central Standard Time),117956.90000009537,A,cattle,I,e,173,3,1082.5,116874.40000009537,8060,WL,C,6.0
1,8.496999979019165,learn,51503.000020980835,Mon Feb 16 2026 09:22:25 GMT-0600 (Central Standard Time),118373.60000002384,A,cattleenter,I,enter,407,3,1499.1999999284744,116874.40000009537,8060,WL,C,6.0
1,8.829999923706055,learn,51170.000076293945,Mon Feb 16 2026 09:22:25 GMT-0600 (Central Standard Time),118706.70000004768,A,c,I,c,319,3,332.7000000476837,118374.0,8060,WL,C,7.0
1,8.929999828338623,learn,51070.00017166138,Mon Feb 16 2026 09:22:25 GMT-0600 (Central Standard Time),118806.60000002384,A,ca,I,a,89,3,432.60000002384186,118374.0,8060,WL,C,7.0
1,9.096999883651733,learn,50903.00011634827,Mon Feb 16 2026 09:22:25 GMT-0600 (Central Standard Time),118973.40000009537,A,cam,I,m,150,3,599.4000000953674,118374.0,8060,WL,C,7.0
1,9.346999883651733,learn,50653.00011634827,Mon Feb 16 2026 09:22:25 GMT-0600 (Central Standard Time),119223.80000007153,A,camp,I,p,230,3,849.8000000715256,118374.0,8060,WL,C,7.0
1,9.596999883651733,learn,50403.00011634827,Mon Feb 16 2026 09:22:25 GMT-0600 (Central Standard Time),119472.90000009537,A,campenter,I,enter,235,3,1098.9000000953674,118374.0,8060,WL,C,7.0
1,9.679999828338623,learn,50320.00017166138,Mon Feb 16 2026 09:22:25 GMT-0600 (Central Standard Time),119556.70000004768,A,enter,I,enter,66,3,83.5,119473.20000004768,8060,WL,C,8.0
1,9.980000019073486,learn,50019.999980926514,Mon Feb 16 2026 09:22:25 GMT-0600 (Central Standard Time),119856.30000007153,A,f,I,f,287,3,299.2000000476837,119557.10000002384,8060,WL,C,9.0
1,10.346999883651733,learn,49653.00011634827,Mon Feb 16 2026 09:22:25 GMT-0600 (Central Standard Time),120222.90000009537,A,fl,I,l,355,3,665.8000000715256,119557.10000002384,8060,WL,C,9.0
1,10.54699993133545,learn,49453.00006866455,Mon Feb 16 2026 09:22:25 GMT-0600 (Central Standard Time),120422.90000009537,A,fla,I,a,181,3,865.8000000715256,119557.10000002384,8060,WL,C,9.0
1,10.77999997138977,learn,49220.00002861023,Mon Feb 16 2026 09:22:25 GMT-0600 (Central Standard Time),120656.20000004768,A,flag,I,g,212,3,1099.1000000238419,119557.10000002384,8060,WL,C,9.0
1,10.995999813079834,learn,49004.000186920166,Mon Feb 16 2026 09:22:25 GMT-0600 (Central Standard Time),120872.60000002384,A,flagenter,I,enter,196,3,1315.5,119557.10000002384,8060,WL,C,9.0
1,11.263000011444092,learn,48736.99998855591,Mon Feb 16 2026 09:22:25 GMT-0600 (Central Standard Time),121139.10000002384,A,b,I,b,252,3,266.10000002384186,120873.0,8060,WL,C,10.0
1,11.429999828338623,learn,48570.00017166138,Mon Feb 16 2026 09:22:25 GMT-0600 (Central Standard Time),121305.90000009537,A,bo,I,o,153,3,432.90000009536743,120873.0,8060,WL,C,10.0
1,11.645999908447266,learn,48354.000091552734,Mon Feb 16 2026 09:22:25 GMT-0600 (Central Standard Time),121522.60000002384,A,boy,I,y,203,3,649.6000000238419,120873.0,8060,WL,C,10.0
1,11.94599986076355,learn,48054.00013923645,Mon Feb 16 2026 09:22:25 GMT-0600 (Central Standard Time),121822.30000007153,A,boyenter,I,enter,289,3,949.3000000715256,120873.0,8060,WL,C,10.0
1,12.424000024795532,learn,47575.99997520447,Mon Feb 16 2026 09:22:25 GMT-0600 (Central Standard Time),122300.70000004768,A,n,I,n,460,3,478.0,121822.70000004768,8060,WL,C,11.0
1,12.44599986076355,learn,47554.00013923645,Mon Feb 16 2026 09:22:25 GMT-0600 (Central Standard Time),122321.80000007153,A,na,I,a,14,3,499.10000002384186,121822.70000004768,8060,WL,C,11.0
1,12.611999988555908,learn,47388.00001144409,Mon Feb 16 2026 09:22:25 GMT-0600 (Central Standard Time),122488.70000004768,A,nai,I,i,145,3,666.0,121822.70000004768,8060,WL,C,11.0
1,12.812000036239624,learn,47187.999963760376,Mon Feb 16 2026 09:22:25 GMT-0600 (Central Standard Time),122688.70000004768,A,nail,I,l,195,3,866.0,121822.70000004768,8060,WL,C,11.0
1,13.044999837875366,learn,46955.000162124634,Mon Feb 16 2026 09:22:25 GMT-0600 (Central Standard Time),122921.70000004768,A,nailenter,I,enter,227,3,1099.0,121822.70000004768,8060,WL,C,11.0
1,28.79099988937378,learn,31209.00011062622,Mon Feb 16 2026 09:22:25 GMT-0600 (Central Standard Time),138667.60000002384,A,s,I,s,15739,3,15745.600000023842,122922.0,8060,WL,C,12.0
1,29.090999841690063,learn,30909.000158309937,Mon Feb 16 2026 09:22:25 GMT-0600 (Central Standard Time),138967.0,A,so,I,o,288,3,16045.0,122922.0,8060,WL,C,12.0
1,29.556999921798706,learn,30443.000078201294,Mon Feb 16 2026 09:22:25 GMT-0600 (Central Standard Time),139433.60000002384,A,s,I,backspace,453,3,16511.600000023842,122922.0,8060,WL,C,12.0
1,29.79099988937378,learn,30209.00011062622,Mon Feb 16 2026 09:22:25 GMT-0600 (Central Standard Time),139666.80000007153,A,sh,I,h,226,3,16744.800000071526,122922.0,8060,WL,C,12.0
1,29.906999826431274,learn,30093.000173568726,Mon Feb 16 2026 09:22:25 GMT-0600 (Central Standard Time),139783.5,A,sho,I,o,104,3,16861.5,122922.0,8060,WL,C,12.0
1,30.073999881744385,learn,29926.000118255615,Mon Feb 16 2026 09:22:25 GMT-0600 (Central Standard Time),139950.40000009537,A,shor,I,r,149,3,17028.400000095367,122922.0,8060,WL,C,12.0
1,30.207000017166138,learn,29792.999982833862,Mon Feb 16 2026 09:22:25 GMT-0600 (Central Standard Time),140083.40000009537,A,shore,I,e,117,3,17161.400000095367,122922.0,8060,WL,C,12.0
1,30.5239999294281,learn,29476.0000705719,Mon Feb 16 2026 09:22:25 GMT-0600 (Central Standard Time),140400.0,A,shoreenter,I,enter,305,3,17478.0,122922.0,8060,WL,C,12.0
1,33.43899989128113,learn,26561.000108718872,Mon Feb 16 2026 09:22:25 GMT-0600 (Central Standard Time),143315.40000009537,A,b,I,b,2907,3,2915.100000023842,140400.30000007153,8060,WL,C,13.0
1,33.555999994277954,learn,26444.000005722046,Mon Feb 16 2026 09:22:25 GMT-0600 (Central Standard Time),143432.60000002384,A,bo,I,o,111,3,3032.2999999523163,140400.30000007153,8060,WL,C,13.0
1,33.72199988365173,learn,26278.000116348267,Mon Feb 16 2026 09:22:25 GMT-0600 (Central Standard Time),143598.60000002384,A,bod,I,d,146,3,3198.2999999523163,140400.30000007153,8060,WL,C,13.0
1,33.90599989891052,learn,26094.000101089478,Mon Feb 16 2026 09:22:25 GMT-0600 (Central Standard Time),143782.30000007153,A,body,I,y,172,3,3382.0,140400.30000007153,8060,WL,C,13.0
1,34.32200002670288,learn,25677.99997329712,Mon Feb 16 2026 09:22:25 GMT-0600 (Central Standard Time),144198.70000004768,A,bodyenter,I,enter,405,3,3798.399999976158,140400.30000007153,8060,WL,C,13.0
1,60.014999866485596,learn,-14.999866485595703,Mon Feb 16 2026 09:22:25 GMT-0600 (Central Standard Time),169890.90000009537,A,None,I,None,25688,3,25691.800000071526,144199.10000002384,8060,WL,C,14.0
2,0.5999999046325684,learn,59400.00009536743,Mon Feb 16 2026 09:22:25 GMT-0600 (Central Standard Time),238136.10000002384,A,c,I,c,580,3,599.6999999284744,237536.40000009537,8060,WL,C,1.0
2,0.7839999198913574,learn,59216.00008010864,Mon Feb 16 2026 09:22:25 GMT-0600 (Central Standard Time),238319.5,A,ca,I,a,162,3,783.0999999046326,237536.40000009537,8060,WL,C,1.0
2,0.9500000476837158,learn,59049.999952316284,Mon Feb 16 2026 09:22:25 GMT-0600 (Central Standard Time),238486.0,A,cat,I,t,149,3,949.5999999046326,237536.40000009537,8060,WL,C,1.0
2,1.066999912261963,learn,58933.00008773804,Mon Feb 16 2026 09:22:25 GMT-0600 (Central Standard Time),238602.5,A,catt,I,t,109,3,1066.0999999046326,237536.40000009537,8060,WL,C,1.0
2,1.2339999675750732,learn,58766.00003242493,Mon Feb 16 2026 09:22:25 GMT-0600 (Central Standard Time),238769.40000009537,A,cattl,I,l,154,3,1233.0,237536.40000009537,8060,WL,C,1.0
2,1.4170000553131104,learn,58582.99994468689,Mon Feb 16 2026 09:22:25 GMT-0600 (Central Standard Time),238952.60000002384,A,cattle,I,e,170,3,1416.1999999284744,237536.40000009537,8060,WL,C,1.0
2,1.6329998970031738,learn,58367.000102996826,Mon Feb 16 2026 09:22:25 GMT-0600 (Central Standard Time),239169.20000004768,A,cattleenter,I,enter,204,3,1632.7999999523163,237536.40000009537,8060,WL,C,1.0
2,1.7829999923706055,learn,58217.000007629395,Mon Feb 16 2026 09:22:25 GMT-0600 (Central Standard Time),239319.0,A,s,I,s,131,3,149.5,239169.5,8060,WL,C,2.0
2,2.0,learn,58000.0,Mon Feb 16 2026 09:22:25 GMT-0600 (Central Standard Time),239535.70000004768,A,sh,I,h,205,3,366.2000000476837,239169.5,8060,WL,C,2.0
2,2.0999999046325684,learn,57900.00009536743,Mon Feb 16 2026 09:22:25 GMT-0600 (Central Standard Time),239635.60000002384,A,sho,I,o,93,3,466.10000002384186,239169.5,8060,WL,C,2.0
2,2.25,learn,57750.0,Mon Feb 16 2026 09:22:25 GMT-0600 (Central Standard Time),239785.80000007153,A,shor,I,r,129,3,616.3000000715256,239169.5,8060,WL,C,2.0
2,2.5950000286102295,learn,57404.99997138977,Mon Feb 16 2026 09:22:25 GMT-0600 (Central Standard Time),240131.10000002384,A,short,I,t,203,3,961.6000000238419,239169.5,8060,WL,C,2.0
2,3.049999952316284,learn,56950.000047683716,Mon Feb 16 2026 09:22:25 GMT-0600 (Central Standard Time),240585.70000004768,A,shor,I,backspace,441,3,1416.2000000476837,239169.5,8060,WL,C,2.0
2,3.2330000400543213,learn,56766.99995994568,Mon Feb 16 2026 09:22:25 GMT-0600 (Central Standard Time),240768.5,A,shore,I,e,171,3,1599.0,239169.5,8060,WL,C,2.0
2,3.4830000400543213,learn,56516.99995994568,Mon Feb 16 2026 09:22:25 GMT-0600 (Central Standard Time),241018.60000002384,A,shoreenter,I,enter,236,3,1849.1000000238419,239169.5,8060,WL,C,2.0
2,3.8489999771118164,learn,56151.00002288818,Mon Feb 16 2026 09:22:25 GMT-0600 (Central Standard Time),241385.0,A,b,I,b,354,3,366.09999990463257,241018.90000009537,8060,WL,C,3.0
2,4.016000032424927,learn,55983.99996757507,Mon Feb 16 2026 09:22:25 GMT-0600 (Central Standard Time),241551.60000002384,A,bo,I,o,154,3,532.6999999284744,241018.90000009537,8060,WL,C,3.0
2,4.216000080108643,learn,55783.99991989136,Mon Feb 16 2026 09:22:25 GMT-0600 (Central Standard Time),241751.60000002384,A,bod,I,d,180,3,732.6999999284744,241018.90000009537,8060,WL,C,3.0
2,4.381999969482422,learn,55618.00003051758,Mon Feb 16 2026 09:22:25 GMT-0600 (Central Standard Time),241918.10000002384,A,body,I,y,147,3,899.1999999284744,241018.90000009537,8060,WL,C,3.0
2,4.615999937057495,learn,55384.000062942505,Mon Feb 16 2026 09:22:25 GMT-0600 (Central Standard Time),242151.30000007153,A,bodyenter,I,enter,213,3,1132.3999999761581,241018.90000009537,8060,WL,C,3.0
2,4.916000127792358,learn,55083.99987220764,Mon Feb 16 2026 09:22:25 GMT-0600 (Central Standard Time),242451.5,A,l,I,l,285,3,299.7999999523163,242151.70000004768,8060,WL,C,4.0
2,5.049000024795532,learn,54950.99997520447,Mon Feb 16 2026 09:22:25 GMT-0600 (Central Standard Time),242584.70000004768,A,le,I,e,120,3,433.0,242151.70000004768,8060,WL,C,4.0
2,5.299000024795532,learn,54700.99997520447,Mon Feb 16 2026 09:22:25 GMT-0600 (Central Standard Time),242834.5,A,let,I,t,244,3,682.7999999523163,242151.70000004768,8060,WL,C,4.0
2,5.482000112533569,learn,54517.99988746643,Mon Feb 16 2026 09:22:25 GMT-0600 (Central Standard Time),243018.0,A,lett,I,t,170,3,866.2999999523163,242151.70000004768,8060,WL,C,4.0
2,5.598999977111816,learn,54401.00002288818,Mon Feb 16 2026 09:22:25 GMT-0600 (Central Standard Time),243134.60000002384,A,lette,I,e,97,3,982.8999999761581,242151.70000004768,8060,WL,C,4.0
2,5.7149999141693115,learn,54285.00008583069,Mon Feb 16 2026 09:22:25 GMT-0600 (Central Standard Time),243251.20000004768,A,letter,I,r,110,3,1099.5,242151.70000004768,8060,WL,C,4.0
2,5.848999977111816,learn,54151.00002288818,Mon Feb 16 2026 09:22:25 GMT-0600 (Central Standard Time),243384.80000007153,A,letterenter,I,enter,112,3,1233.1000000238419,242151.70000004768,8060,WL,C,4.0
2,6.2149999141693115,learn,53785.00008583069,Mon Feb 16 2026 09:22:25 GMT-0600 (Central Standard Time),243751.10000002384,A,t,I,t,347,3,366.0,243385.10000002384,8060,WL,C,5.0
2,6.348999977111816,learn,53651.00002288818,Mon Feb 16 2026 09:22:25 GMT-0600 (Central Standard Time),243884.30000007153,A,to,I,o,116,3,499.2000000476837,243385.10000002384,8060,WL,C,5.0
2,6.4649999141693115,learn,53535.00008583069,Mon Feb 16 2026 09:22:25 GMT-0600 (Central Standard Time),244000.90000009537,A,tow,I,w,104,3,615.8000000715256,243385.10000002384,8060,WL,C,5.0
2,6.765000104904175,learn,53234.999895095825,Mon Feb 16 2026 09:22:25 GMT-0600 (Central Standard Time),244301.0,A,towe,I,e,291,3,915.8999999761581,243385.10000002384,8060,WL,C,5.0
2,6.914999961853027,learn,53085.00003814697,Mon Feb 16 2026 09:22:25 GMT-0600 (Central Standard Time),244450.90000009537,A,tower,I,r,143,3,1065.8000000715256,243385.10000002384,8060,WL,C,5.0
2,7.2820000648498535,learn,52717.99993515015,Mon Feb 16 2026 09:22:25 GMT-0600 (Central Standard Time),244817.30000007153,A,towerenter,I,enter,352,3,1432.2000000476837,243385.10000002384,8060,WL,C,5.0
2,7.631999969482422,learn,52368.00003051758,Mon Feb 16 2026 09:22:25 GMT-0600 (Central Standard Time),245167.30000007153,A,w,I,w,339,3,349.60000002384186,244817.70000004768,8060,WL,C,6.0
2,7.815000057220459,learn,52184.99994277954,Mon Feb 16 2026 09:22:25 GMT-0600 (Central Standard Time),245350.60000002384,A,wh,I,h,173,3,532.8999999761581,244817.70000004768,8060,WL,C,6.0
2,7.898000001907349,learn,52101.99999809265,Mon Feb 16 2026 09:22:25 GMT-0600 (Central Standard Time),245433.5,A,whe,I,e,78,3,615.7999999523163,244817.70000004768,8060,WL,C,6.0
2,8.030999898910522,learn,51969.00010108948,Mon Feb 16 2026 09:22:25 GMT-0600 (Central Standard Time),245567.20000004768,A,whea,I,a,115,3,749.5,244817.70000004768,8060,WL,C,6.0
2,8.148000001907349,learn,51851.99999809265,Mon Feb 16 2026 09:22:25 GMT-0600 (Central Standard Time),245683.80000007153,A,wheat,I,t,109,3,866.1000000238419,244817.70000004768,8060,WL,C,6.0
2,8.331000089645386,learn,51668.999910354614,Mon Feb 16 2026 09:22:25 GMT-0600 (Central Standard Time),245867.0,A,wheatenter,I,enter,168,3,1049.2999999523163,244817.70000004768,8060,WL,C,6.0
2,8.598000049591064,learn,51401.999950408936,Mon Feb 16 2026 09:22:25 GMT-0600 (Central Standard Time),246133.80000007153,A,q,I,q,256,3,266.39999997615814,245867.40000009537,8060,WL,C,7.0
2,8.730999946594238,learn,51269.00005340576,Mon Feb 16 2026 09:22:25 GMT-0600 (Central Standard Time),246267.20000004768,A,qu,I,u,119,3,399.7999999523163,245867.40000009537,8060,WL,C,7.0
2,8.88100004196167,learn,51118.99995803833,Mon Feb 16 2026 09:22:25 GMT-0600 (Central Standard Time),246416.90000009537,A,que,I,e,137,3,549.5,245867.40000009537,8060,WL,C,7.0
2,9.04800009727478,learn,50951.99990272522,Mon Feb 16 2026 09:22:25 GMT-0600 (Central Standard Time),246583.5,A,quee,I,e,155,3,716.0999999046326,245867.40000009537,8060,WL,C,7.0
2,9.180999994277954,learn,50819.000005722046,Mon Feb 16 2026 09:22:25 GMT-0600 (Central Standard Time),246716.90000009537,A,queen,I,n,124,3,849.5,245867.40000009537,8060,WL,C,7.0
2,9.430999994277954,learn,50569.000005722046,Mon Feb 16 2026 09:22:25 GMT-0600 (Central Standard Time),246966.80000007153,A,queenenter,I,enter,232,3,1099.3999999761581,245867.40000009537,8060,WL,C,7.0
2,9.897000074386597,learn,50102.9999256134,Mon Feb 16 2026 09:22:25 GMT-0600 (Central Standard Time),247433.20000004768,A,n,I,n,461,3,466.10000002384186,246967.10000002384,8060,WL,C,8.0
2,10.030999898910522,learn,49969.00010108948,Mon Feb 16 2026 09:22:25 GMT-0600 (Central Standard Time),247566.60000002384,A,na,I,a,123,3,599.5,246967.10000002384,8060,WL,C,8.0
2,10.13100004196167,learn,49868.99995803833,Mon Feb 16 2026 09:22:25 GMT-0600 (Central Standard Time),247666.5,A,nai,I,i,93,3,699.3999999761581,246967.10000002384,8060,WL,C,8.0
2,10.282000064849854,learn,49717.99993515015,Mon Feb 16 2026 09:22:25 GMT-0600 (Central Standard Time),247817.40000009537,A,nail,I,l,137,3,850.3000000715256,246967.10000002384,8060,WL,C,8.0
2,10.513999938964844,learn,49486.000061035156,Mon Feb 16 2026 09:22:25 GMT-0600 (Central Standard Time),248049.80000007153,A,nailenter,I,enter,218,3,1082.7000000476837,246967.10000002384,8060,WL,C,8.0
2,10.96399998664856,learn,49036.00001335144,Mon Feb 16 2026 09:22:25 GMT-0600 (Central Standard Time),248499.70000004768,A,b,I,b,443,3,449.60000002384186,248050.10000002384,8060,WL,C,9.0
2,11.19700002670288,learn,48802.99997329712,Mon Feb 16 2026 09:22:25 GMT-0600 (Central Standard Time),248733.0,A,bo,I,o,224,3,682.8999999761581,248050.10000002384,8060,WL,C,9.0
2,11.414000034332275,learn,48585.999965667725,Mon Feb 16 2026 09:22:25 GMT-0600 (Central Standard Time),248949.40000009537,A,boy,I,y,207,3,899.3000000715256,248050.10000002384,8060,WL,C,9.0
2,11.647000074386597,learn,48352.9999256134,Mon Feb 16 2026 09:22:25 GMT-0600 (Central Standard Time),249182.40000009537,A,boyenter,I,enter,214,3,1132.3000000715256,248050.10000002384,8060,WL,C,9.0
2,11.914000034332275,learn,48085.999965667725,Mon Feb 16 2026 09:22:25 GMT-0600 (Central Standard Time),249449.30000007153,A,c,I,c,254,3,266.5,249182.80000007153,8060,WL,C,10.0
2,11.997999906539917,learn,48002.00009346008,Mon Feb 16 2026 09:22:25 GMT-0600 (Central Standard Time),249533.70000004768,A,ca,I,a,67,3,350.89999997615814,249182.80000007153,8060,WL,C,10.0
2,12.147000074386597,learn,47852.9999256134,Mon Feb 16 2026 09:22:25 GMT-0600 (Central Standard Time),249682.5,A,cam,I,m,134,3,499.6999999284744,249182.80000007153,8060,WL,C,10.0
2,12.312999963760376,learn,47687.000036239624,Mon Feb 16 2026 09:22:25 GMT-0600 (Central Standard Time),249849.20000004768,A,camp,I,p,154,3,666.3999999761581,249182.80000007153,8060,WL,C,10.0
2,12.54699993133545,learn,47453.00006866455,Mon Feb 16 2026 09:22:25 GMT-0600 (Central Standard Time),250082.40000009537,A,campenter,I,enter,218,3,899.6000000238419,249182.80000007153,8060,WL,C,10.0
2,13.013000011444092,learn,46986.99998855591,Mon Feb 16 2026 09:22:25 GMT-0600 (Central Standard Time),250549.0,A,f,I,f,458,3,466.1999999284744,250082.80000007153,8060,WL,C,11.0
2,13.21399998664856,learn,46786.00001335144,Mon Feb 16 2026 09:22:25 GMT-0600 (Central Standard Time),250749.40000009537,A,fl,I,l,183,3,666.6000000238419,250082.80000007153,8060,WL,C,11.0
2,13.36299991607666,learn,46637.00008392334,Mon Feb 16 2026 09:22:25 GMT-0600 (Central Standard Time),250898.90000009537,A,fla,I,a,135,3,816.1000000238419,250082.80000007153,8060,WL,C,11.0
2,13.529000043869019,learn,46470.99995613098,Mon Feb 16 2026 09:22:25 GMT-0600 (Central Standard Time),251065.20000004768,A,flag,I,g,161,3,982.3999999761581,250082.80000007153,8060,WL,C,11.0
2,13.713000059127808,learn,46286.99994087219,Mon Feb 16 2026 09:22:25 GMT-0600 (Central Standard Time),251248.5,A,flagenter,I,enter,171,3,1165.6999999284744,250082.80000007153,8060,WL,C,11.0
2,13.913000106811523,learn,46086.99989318848,Mon Feb 16 2026 09:22:25 GMT-0600 (Central Standard Time),251448.40000009537,A,d,I,d,195,3,199.5,251248.90000009537,8060,WL,C,12.0
2,14.078999996185303,learn,45921.0000038147,Mon Feb 16 2026 09:22:25 GMT-0600 (Central Standard Time),251615.20000004768,A,do,I,o,148,3,366.2999999523163,251248.90000009537,8060,WL,C,12.0
2,14.178999900817871,learn,45821.00009918213,Mon Feb 16 2026 09:22:25 GMT-0600 (Central Standard Time),251715.30000007153,A,doc,I,c,85,3,466.39999997615814,251248.90000009537,8060,WL,C,12.0
2,14.463000059127808,learn,45536.99994087219,Mon Feb 16 2026 09:22:25 GMT-0600 (Central Standard Time),251998.40000009537,A,doct,I,t,264,3,749.5,251248.90000009537,8060,WL,C,12.0
2,14.663000106811523,learn,45336.99989318848,Mon Feb 16 2026 09:22:25 GMT-0600 (Central Standard Time),252198.30000007153,A,docto,I,o,189,3,949.3999999761581,251248.90000009537,8060,WL,C,12.0
2,14.812999963760376,learn,45187.000036239624,Mon Feb 16 2026 09:22:25 GMT-0600 (Central Standard Time),252348.40000009537,A,doctor,I,r,142,3,1099.5,251248.90000009537,8060,WL,C,12.0
2,15.029000043869019,learn,44970.99995613098,Mon Feb 16 2026 09:22:25 GMT-0600 (Central Standard Time),252564.80000007153,A,doctorenter,I,enter,208,3,1315.8999999761581,251248.90000009537,8060,WL,C,12.0
2,15.312999963760376,learn,44687.000036239624,Mon Feb 16 2026 09:22:25 GMT-0600 (Central Standard Time),252848.30000007153,A,h,I,h,271,3,283.2000000476837,252565.10000002384,8060,WL,C,13.0
2,15.428999900817871,learn,44571.00009918213,Mon Feb 16 2026 09:22:25 GMT-0600 (Central Standard Time),252964.80000007153,A,ho,I,o,100,3,399.7000000476837,252565.10000002384,8060,WL,C,13.0
2,15.595999956130981,learn,44404.00004386902,Mon Feb 16 2026 09:22:25 GMT-0600 (Central Standard Time),253131.5,A,hom,I,m,160,3,566.3999999761581,252565.10000002384,8060,WL,C,13.0
2,15.69700002670288,learn,44302.99997329712,Mon Feb 16 2026 09:22:25 GMT-0600 (Central Standard Time),253232.20000004768,A,home,I,e,96,3,667.1000000238419,252565.10000002384,8060,WL,C,13.0
2,16.347000122070312,learn,43652.99987792969,Mon Feb 16 2026 09:22:25 GMT-0600 (Central Standard Time),253882.30000007153,A,homeenter,I,enter,643,3,1317.2000000476837,252565.10000002384,8060,WL,C,13.0
2,21.41100001335144,learn,38588.99998664856,Mon Feb 16 2026 09:22:25 GMT-0600 (Central Standard Time),258946.40000009537,A,s,I,s,5057,3,5063.700000047684,253882.70000004768,8060,WL,C,14.0
2,21.57699990272522,learn,38423.00009727478,Mon Feb 16 2026 09:22:25 GMT-0600 (Central Standard Time),259112.5,A,su,I,u,161,3,5229.799999952316,253882.70000004768,8060,WL,C,14.0
2,21.694000005722046,learn,38305.999994277954,Mon Feb 16 2026 09:22:25 GMT-0600 (Central Standard Time),259229.5,A,sug,I,g,100,3,5346.799999952316,253882.70000004768,8060,WL,C,14.0
2,21.844000101089478,learn,38155.99989891052,Mon Feb 16 2026 09:22:25 GMT-0600 (Central Standard Time),259379.40000009537,A,suga,I,a,135,3,5496.700000047684,253882.70000004768,8060,WL,C,14.0
2,21.960999965667725,learn,38039.000034332275,Mon Feb 16 2026 09:22:25 GMT-0600 (Central Standard Time),259496.30000007153,A,sugar,I,r,96,3,5613.600000023842,253882.70000004768,8060,WL,C,14.0
2,22.677000045776367,learn,37322.99995422363,Mon Feb 16 2026 09:22:25 GMT-0600 (Central Standard Time),260212.40000009537,A,sugarenter,I,enter,700,3,6329.700000047684,253882.70000004768,8060,WL,C,14.0
2,50.76800012588501,learn,9231.99987411499,Mon Feb 16 2026 09:22:25 GMT-0600 (Central Standard Time),288303.7000000477,A,f,I,f,28079,3,28090.899999976158,260212.80000007153,8060,WL,C,15.0
2,50.93499994277954,learn,9065.000057220459,Mon Feb 16 2026 09:22:25 GMT-0600 (Central Standard Time),288470.40000009537,A,fl,I,l,147,3,28257.600000023842,260212.80000007153,8060,WL,C,15.0
2,51.01800012588501,learn,8981.99987411499,Mon Feb 16 2026 09:22:25 GMT-0600 (Central Standard Time),288553.8000000715,A,fla,I,a,70,3,28341.0,260212.80000007153,8060,WL,C,15.0
2,51.16799998283386,learn,8832.000017166138,Mon Feb 16 2026 09:22:25 GMT-0600 (Central Standard Time),288703.60000002384,A,flag,I,g,129,3,28490.799999952316,260212.80000007153,8060,WL,C,15.0
2,60.015000104904175,learn,-15.000104904174805,Mon Feb 16 2026 09:22:25 GMT-0600 (Central Standard Time),297550.90000009537,A,flagNone,I,None,8843,3,37338.10000002384,260212.80000007153,8060,WL,C,15.0
3,0.43400001525878906,learn,59565.99998474121,Mon Feb 16 2026 09:22:25 GMT-0600 (Central Standard Time),365780.0,A,t,I,t,426,3,433.5,365346.5,8060,WL,C,1.0
3,0.6170001029968262,learn,59382.999897003174,Mon Feb 16 2026 09:22:25 GMT-0600 (Central Standard Time),365963.3000000715,A,to,I,o,175,3,616.8000000715256,365346.5,8060,WL,C,1.0
3,0.9330000877380371,learn,59066.99991226196,Mon Feb 16 2026 09:22:25 GMT-0600 (Central Standard Time),366279.5,A,tow,I,w,305,3,933.0,365346.5,8060,WL,C,1.0
3,1.1660001277923584,learn,58833.99987220764,Mon Feb 16 2026 09:22:25 GMT-0600 (Central Standard Time),366512.7000000477,A,towe,I,e,220,3,1166.2000000476837,365346.5,8060,WL,C,1.0
3,1.4010000228881836,learn,58598.99997711182,Mon Feb 16 2026 09:22:25 GMT-0600 (Central Standard Time),366747.2000000477,A,tower,I,r,228,3,1400.7000000476837,365346.5,8060,WL,C,1.0
3,1.633000135421753,learn,58366.99986457825,Mon Feb 16 2026 09:22:25 GMT-0600 (Central Standard Time),366979.3000000715,A,towerenter,I,enter,224,3,1632.8000000715256,365346.5,8060,WL,C,1.0
3,1.999000072479248,learn,58000.99992752075,Mon Feb 16 2026 09:22:25 GMT-0600 (Central Standard Time),367345.7000000477,A,w,I,w,360,3,366.0,366979.7000000477,8060,WL,C,2.0
3,2.1490001678466797,learn,57850.99983215332,Mon Feb 16 2026 09:22:25 GMT-0600 (Central Standard Time),367495.60000002384,A,wh,I,h,139,3,515.8999999761581,366979.7000000477,8060,WL,C,2.0
3,2.2660000324249268,learn,57733.99996757507,Mon Feb 16 2026 09:22:25 GMT-0600 (Central Standard Time),367612.5,A,whe,I,e,109,3,632.7999999523163,366979.7000000477,8060,WL,C,2.0
3,2.5329999923706055,learn,57467.000007629395,Mon Feb 16 2026 09:22:25 GMT-0600 (Central Standard Time),367879.10000002384,A,whea,I,a,248,3,899.3999999761581,366979.7000000477,8060,WL,C,2.0
3,2.7330000400543213,learn,57266.99995994568,Mon Feb 16 2026 09:22:25 GMT-0600 (Central Standard Time),368079.10000002384,A,wheat,I,t,181,3,1099.3999999761581,366979.7000000477,8060,WL,C,2.0
3,2.9170000553131104,learn,57082.99994468689,Mon Feb 16 2026 09:22:25 GMT-0600 (Central Standard Time),368263.5,A,wheatenter,I,enter,164,3,1283.7999999523163,366979.7000000477,8060,WL,C,2.0
3,3.182000160217285,learn,56817.999839782715,Mon Feb 16 2026 09:22:25 GMT-0600 (Central Standard Time),368528.7000000477,A,q,I,q,260,3,264.89999997615814,368263.8000000715,8060,WL,C,3.0
3,3.3320000171661377,learn,56667.99998283386,Mon Feb 16 2026 09:22:25 GMT-0600 (Central Standard Time),368678.90000009537,A,qu,I,u,131,3,415.10000002384186,368263.8000000715,8060,WL,C,3.0
3,3.449000120162964,learn,56550.999879837036,Mon Feb 16 2026 09:22:25 GMT-0600 (Central Standard Time),368795.3000000715,A,que,I,e,102,3,531.5,368263.8000000715,8060,WL,C,3.0
3,3.5989999771118164,learn,56401.00002288818,Mon Feb 16 2026 09:22:25 GMT-0600 (Central Standard Time),368945.0,A,quee,I,e,144,3,681.1999999284744,368263.8000000715,8060,WL,C,3.0
3,3.749000072479248,learn,56250.99992752075,Mon Feb 16 2026 09:22:25 GMT-0600 (Central Standard Time),369095.40000009537,A,queen,I,n,130,3,831.6000000238419,368263.8000000715,8060,WL,C,3.0
3,4.049000024795532,learn,55950.99997520447,Mon Feb 16 2026 09:22:25 GMT-0600 (Central Standard Time),369395.3000000715,A,queenenter,I,enter,285,3,1131.5,368263.8000000715,8060,WL,C,3.0
3,5.197999954223633,learn,54802.00004577637,Mon Feb 16 2026 09:22:25 GMT-0600 (Central Standard Time),370544.7000000477,A,s,I,s,1137,3,1148.8999999761581,369395.8000000715,8060,WL,C,4.0
3,5.381999969482422,learn,54618.00003051758,Mon Feb 16 2026 09:22:25 GMT-0600 (Central Standard Time),370728.2000000477,A,su,I,u,172,3,1332.3999999761581,369395.8000000715,8060,WL,C,4.0
3,5.449000120162964,learn,54550.999879837036,Mon Feb 16 2026 09:22:25 GMT-0600 (Central Standard Time),370794.90000009537,A,sug,I,g,51,3,1399.1000000238419,369395.8000000715,8060,WL,C,4.0
3,5.5980000495910645,learn,54401.999950408936,Mon Feb 16 2026 09:22:25 GMT-0600 (Central Standard Time),370944.60000002384,A,suga,I,a,136,3,1548.7999999523163,369395.8000000715,8060,WL,C,4.0
3,5.748000144958496,learn,54251.999855041504,Mon Feb 16 2026 09:22:25 GMT-0600 (Central Standard Time),371094.8000000715,A,sugar,I,r,140,3,1699.0,369395.8000000715,8060,WL,C,4.0
3,6.015000104904175,learn,53984.999895095825,Mon Feb 16 2026 09:22:25 GMT-0600 (Central Standard Time),371361.0,A,sugarenter,I,enter,262,3,1965.1999999284744,369395.8000000715,8060,WL,C,4.0
3,7.930999994277954,learn,52069.000005722046,Mon Feb 16 2026 09:22:25 GMT-0600 (Central Standard Time),373277.0,A,l,I,l,1909,3,1915.6999999284744,371361.3000000715,8060,WL,C,5.0
3,8.031000137329102,learn,51968.9998626709,Mon Feb 16 2026 09:22:25 GMT-0600 (Central Standard Time),373377.0,A,le,I,e,96,3,2015.6999999284744,371361.3000000715,8060,WL,C,5.0
3,8.180999994277954,learn,51819.000005722046,Mon Feb 16 2026 09:22:25 GMT-0600 (Central Standard Time),373527.40000009537,A,let,I,t,140,3,2166.100000023842,371361.3000000715,8060,WL,C,5.0
3,8.364000082015991,learn,51635.99991798401,Mon Feb 16 2026 09:22:25 GMT-0600 (Central Standard Time),373710.5,A,lett,I,t,164,3,2349.1999999284744,371361.3000000715,8060,WL,C,5.0
3,8.44700002670288,learn,51552.99997329712,Mon Feb 16 2026 09:22:25 GMT-0600 (Central Standard Time),373793.3000000715,A,lette,I,e,77,3,2432.0,371361.3000000715,8060,WL,C,5.0
3,8.580000162124634,learn,51419.999837875366,Mon Feb 16 2026 09:22:25 GMT-0600 (Central Standard Time),373926.7000000477,A,letter,I,r,113,3,2565.399999976158,371361.3000000715,8060,WL,C,5.0
3,8.797000169754028,learn,51202.99983024597,Mon Feb 16 2026 09:22:25 GMT-0600 (Central Standard Time),374143.5,A,letterenter,I,enter,195,3,2782.1999999284744,371361.3000000715,8060,WL,C,5.0
3,10.663000106811523,learn,49336.99989318848,Mon Feb 16 2026 09:22:25 GMT-0600 (Central Standard Time),376009.5,A,h,I,h,1860,3,1865.5999999046326,374143.90000009537,8060,WL,C,6.0
3,10.746999979019165,learn,49253.000020980835,Mon Feb 16 2026 09:22:25 GMT-0600 (Central Standard Time),376093.10000002384,A,ho,I,o,75,3,1949.1999999284744,374143.90000009537,8060,WL,C,6.0
3,10.930000066757202,learn,49069.9999332428,Mon Feb 16 2026 09:22:25 GMT-0600 (Central Standard Time),376276.40000009537,A,hom,I,m,175,3,2132.5,374143.90000009537,8060,WL,C,6.0
3,11.062999963760376,learn,48937.000036239624,Mon Feb 16 2026 09:22:25 GMT-0600 (Central Standard Time),376409.7000000477,A,home,I,e,111,3,2265.7999999523163,374143.90000009537,8060,WL,C,6.0
3,11.263000011444092,learn,48736.99998855591,Mon Feb 16 2026 09:22:25 GMT-0600 (Central Standard Time),376609.40000009537,A,homeenter,I,enter,187,3,2465.5,374143.90000009537,8060,WL,C,6.0
3,11.580000162124634,learn,48419.999837875366,Mon Feb 16 2026 09:22:25 GMT-0600 (Central Standard Time),376926.10000002384,A,b,I,b,298,3,316.2999999523163,376609.8000000715,8060,WL,C,7.0
3,11.763000011444092,learn,48236.99998855591,Mon Feb 16 2026 09:22:25 GMT-0600 (Central Standard Time),377109.40000009537,A,bo,I,o,165,3,499.60000002384186,376609.8000000715,8060,WL,C,7.0
3,11.930000066757202,learn,48069.9999332428,Mon Feb 16 2026 09:22:25 GMT-0600 (Central Standard Time),377276.0,A,boy,I,y,150,3,666.1999999284744,376609.8000000715,8060,WL,C,7.0
3,12.27999997138977,learn,47720.00002861023,Mon Feb 16 2026 09:22:25 GMT-0600 (Central Standard Time),377626.0,A,boyenter,I,enter,335,3,1016.1999999284744,376609.8000000715,8060,WL,C,7.0
3,13.213000059127808,learn,46786.99994087219,Mon Feb 16 2026 09:22:25 GMT-0600 (Central Standard Time),378559.10000002384,A,c,I,c,915,3,932.8999999761581,377626.2000000477,8060,WL,C,8.0
3,13.312999963760376,learn,46687.000036239624,Mon Feb 16 2026 09:22:25 GMT-0600 (Central Standard Time),378658.90000009537,A,ca,I,a,93,3,1032.7000000476837,377626.2000000477,8060,WL,C,8.0
3,13.42900013923645,learn,46570.99986076355,Mon Feb 16 2026 09:22:25 GMT-0600 (Central Standard Time),378775.40000009537,A,cam,I,m,98,3,1149.2000000476837,377626.2000000477,8060,WL,C,8.0
3,13.529000043869019,learn,46470.99995613098,Mon Feb 16 2026 09:22:25 GMT-0600 (Central Standard Time),378875.10000002384,A,camp,I,p,93,3,1248.8999999761581,377626.2000000477,8060,WL,C,8.0
3,13.796000003814697,learn,46203.9999961853,Mon Feb 16 2026 09:22:25 GMT-0600 (Central Standard Time),379142.0,A,campenter,I,enter,250,3,1515.7999999523163,377626.2000000477,8060,WL,C,8.0
3,14.095999956130981,learn,45904.00004386902,Mon Feb 16 2026 09:22:25 GMT-0600 (Central Standard Time),379442.2000000477,A,f,I,f,286,3,299.7000000476837,379142.5,8060,WL,C,9.0
3,14.279000043869019,learn,45720.99995613098,Mon Feb 16 2026 09:22:25 GMT-0600 (Central Standard Time),379625.5,A,fl,I,l,170,3,483.0,379142.5,8060,WL,C,9.0
3,14.479000091552734,learn,45520.999908447266,Mon Feb 16 2026 09:22:25 GMT-0600 (Central Standard Time),379825.40000009537,A,fla,I,a,187,3,682.9000000953674,379142.5,8060,WL,C,9.0
3,14.76200008392334,learn,45237.99991607666,Mon Feb 16 2026 09:22:25 GMT-0600 (Central Standard Time),380108.5,A,flag,I,g,275,3,966.0,379142.5,8060,WL,C,9.0
3,14.995000123977661,learn,45004.99987602234,Mon Feb 16 2026 09:22:25 GMT-0600 (Central Standard Time),380341.7000000477,A,flagenter,I,enter,215,3,1199.2000000476837,379142.5,8060,WL,C,9.0
3,16.460999965667725,learn,43539.000034332275,Mon Feb 16 2026 09:22:25 GMT-0600 (Central Standard Time),381807.60000002384,A,d,I,d,1446,3,1465.6000000238419,380342.0,8060,WL,C,10.0
3,16.59500002861023,learn,43404.99997138977,Mon Feb 16 2026 09:22:25 GMT-0600 (Central Standard Time),381941.10000002384,A,do,I,o,117,3,1599.1000000238419,380342.0,8060,WL,C,10.0
3,16.710999965667725,learn,43289.000034332275,Mon Feb 16 2026 09:22:25 GMT-0600 (Central Standard Time),382057.8000000715,A,doc,I,c,110,3,1715.8000000715256,380342.0,8060,WL,C,10.0
3,16.91100001335144,learn,43088.99998664856,Mon Feb 16 2026 09:22:25 GMT-0600 (Central Standard Time),382257.5,A,doct,I,t,194,3,1915.5,380342.0,8060,WL,C,10.0
3,17.07800006866455,learn,42921.99993133545,Mon Feb 16 2026 09:22:25 GMT-0600 (Central Standard Time),382424.40000009537,A,docto,I,o,155,3,2082.4000000953674,380342.0,8060,WL,C,10.0
3,17.210999965667725,learn,42789.000034332275,Mon Feb 16 2026 09:22:25 GMT-0600 (Central Standard Time),382557.7000000477,A,doctor,I,r,124,3,2215.7000000476837,380342.0,8060,WL,C,10.0
3,17.478000164031982,learn,42521.99983596802,Mon Feb 16 2026 09:22:25 GMT-0600 (Central Standard Time),382824.2000000477,A,doctorenter,I,enter,246,3,2482.2000000476837,380342.0,8060,WL,C,10.0
3,19.927000045776367,learn,40072.99995422363,Mon Feb 16 2026 09:22:25 GMT-0600 (Central Standard Time),385273.3000000715,A,n,I,n,2444,3,2448.8000000715256,382824.5,8060,WL,C,11.0
3,20.044000148773193,learn,39955.99985122681,Mon Feb 16 2026 09:22:25 GMT-0600 (Central Standard Time),385390.3000000715,A,na,I,a,99,3,2565.8000000715256,382824.5,8060,WL,C,11.0
3,20.128000020980835,learn,39871.999979019165,Mon Feb 16 2026 09:22:25 GMT-0600 (Central Standard Time),385474.60000002384,A,nai,I,i,63,3,2650.100000023842,382824.5,8060,WL,C,11.0
3,20.22699999809265,learn,39773.00000190735,Mon Feb 16 2026 09:22:25 GMT-0600 (Central Standard Time),385573.5,A,nail,I,l,89,3,2749.0,382824.5,8060,WL,C,11.0
3,20.47699999809265,learn,39523.00000190735,Mon Feb 16 2026 09:22:25 GMT-0600 (Central Standard Time),385823.3000000715,A,nailenter,I,enter,231,3,2998.8000000715256,382824.5,8060,WL,C,11.0
3,20.710000038146973,learn,39289.99996185303,Mon Feb 16 2026 09:22:25 GMT-0600 (Central Standard Time),386056.60000002384,A,s,I,s,221,3,233.0,385823.60000002384,8060,WL,C,12.0
3,20.877000093460083,learn,39122.99990653992,Mon Feb 16 2026 09:22:25 GMT-0600 (Central Standard Time),386223.2000000477,A,sh,I,h,148,3,399.60000002384186,385823.60000002384,8060,WL,C,12.0
3,20.944000005722046,learn,39055.999994277954,Mon Feb 16 2026 09:22:25 GMT-0600 (Central Standard Time),386289.8000000715,A,sho,I,o,46,3,466.2000000476837,385823.60000002384,8060,WL,C,12.0
3,21.0770001411438,learn,38922.9998588562,Mon Feb 16 2026 09:22:25 GMT-0600 (Central Standard Time),386423.2000000477,A,shor,I,r,115,3,599.6000000238419,385823.60000002384,8060,WL,C,12.0
3,21.39400005340576,learn,38605.99994659424,Mon Feb 16 2026 09:22:25 GMT-0600 (Central Standard Time),386739.8000000715,A,shore,I,e,300,3,916.2000000476837,385823.60000002384,8060,WL,C,12.0
3,21.627000093460083,learn,38372.99990653992,Mon Feb 16 2026 09:22:25 GMT-0600 (Central Standard Time),386972.90000009537,A,shoreenter,I,enter,216,3,1149.3000000715256,385823.60000002384,8060,WL,C,12.0
3,21.97699999809265,learn,38023.00000190735,Mon Feb 16 2026 09:22:25 GMT-0600 (Central Standard Time),387323.0,A,c,I,c,343,3,349.7999999523163,386973.2000000477,8060,WL,C,13.0
3,22.16000008583069,learn,37839.99991416931,Mon Feb 16 2026 09:22:25 GMT-0600 (Central Standard Time),387506.10000002384,A,ca,I,a,178,3,532.8999999761581,386973.2000000477,8060,WL,C,13.0
3,22.276000022888184,learn,37723.99997711182,Mon Feb 16 2026 09:22:25 GMT-0600 (Central Standard Time),387622.7000000477,A,cat,I,t,97,3,649.5,386973.2000000477,8060,WL,C,13.0
3,22.544000148773193,learn,37455.99985122681,Mon Feb 16 2026 09:22:25 GMT-0600 (Central Standard Time),387890.10000002384,A,catt,I,t,253,3,916.8999999761581,386973.2000000477,8060,WL,C,13.0
3,22.743000030517578,learn,37256.99996948242,Mon Feb 16 2026 09:22:25 GMT-0600 (Central Standard Time),388089.0,A,cattl,I,l,195,3,1115.7999999523163,386973.2000000477,8060,WL,C,13.0
3,23.009000062942505,learn,36990.999937057495,Mon Feb 16 2026 09:22:25 GMT-0600 (Central Standard Time),388355.8000000715,A,cattle,I,e,251,3,1382.6000000238419,386973.2000000477,8060,WL,C,13.0
3,23.14300012588501,learn,36856.99987411499,Mon Feb 16 2026 09:22:25 GMT-0600 (Central Standard Time),388489.10000002384,A,cattleenter,I,enter,128,3,1515.8999999761581,386973.2000000477,8060,WL,C,13.0
3,23.493000030517578,learn,36506.99996948242,Mon Feb 16 2026 09:22:25 GMT-0600 (Central Standard Time),388839.2000000477,A,b,I,b,332,3,349.89999997615814,388489.3000000715,8060,WL,C,14.0
3,23.64300012588501,learn,36356.99987411499,Mon Feb 16 2026 09:22:25 GMT-0600 (Central Standard Time),388988.90000009537,A,bo,I,o,140,3,499.60000002384186,388489.3000000715,8060,WL,C,14.0
3,23.776000022888184,learn,36223.99997711182,Mon Feb 16 2026 09:22:25 GMT-0600 (Central Standard Time),389121.90000009537,A,bod,I,d,127,3,632.6000000238419,388489.3000000715,8060,WL,C,14.0
3,23.943000078201294,learn,36056.999921798706,Mon Feb 16 2026 09:22:25 GMT-0600 (Central Standard Time),389289.0,A,body,I,y,163,3,799.6999999284744,388489.3000000715,8060,WL,C,14.0
3,24.259000062942505,learn,35740.999937057495,Mon Feb 16 2026 09:22:25 GMT-0600 (Central Standard Time),389605.2000000477,A,bodyenter,I,enter,308,3,1115.8999999761581,388489.3000000715,8060,WL,C,14.0
3,30.924000024795532,learn,29075.999975204468,Mon Feb 16 2026 09:22:25 GMT-0600 (Central Standard Time),396270.3000000715,A,s,I,s,6647,3,6664.399999976158,389605.90000009537,8060,WL,C,15.0
3,31.09000015258789,learn,28909.99984741211,Mon Feb 16 2026 09:22:25 GMT-0600 (Central Standard Time),396436.7000000477,A,su,I,u,158,3,6830.799999952316,389605.90000009537,8060,WL,C,15.0
3,31.223000049591064,learn,28776.999950408936,Mon Feb 16 2026 09:22:25 GMT-0600 (Central Standard Time),396569.7000000477,A,sug,I,g,128,3,6963.799999952316,389605.90000009537,8060,WL,C,15.0
3,31.35700011253357,learn,28642.99988746643,Mon Feb 16 2026 09:22:25 GMT-0600 (Central Standard Time),396703.2000000477,A,suga,I,a,114,3,7097.299999952316,389605.90000009537,8060,WL,C,15.0
3,31.473000049591064,learn,28526.999950408936,Mon Feb 16 2026 09:22:25 GMT-0600 (Central Standard Time),396819.8000000715,A,sugar,I,r,109,3,7213.899999976158,389605.90000009537,8060,WL,C,15.0
3,32.473999977111816,learn,27526.000022888184,Mon Feb 16 2026 09:22:25 GMT-0600 (Central Standard Time),397819.90000009537,A,sugarenter,I,enter,984,3,8214.0,389605.90000009537,8060,WL,C,15.0
4,0.5,learn,59500.0,Mon Feb 16 2026 09:22:25 GMT-0600 (Central Standard Time),465332.0,A,t,I,t,485,3,499.89999997615814,464832.10000002384,8060,WL,C,1.0
4,0.7670001983642578,learn,59232.99980163574,Mon Feb 16 2026 09:22:25 GMT-0600 (Central Standard Time),465598.40000009537,A,to,I,o,254,3,766.3000000715256,464832.10000002384,8060,WL,C,1.0
4,0.9340000152587891,learn,59065.99998474121,Mon Feb 16 2026 09:22:25 GMT-0600 (Central Standard Time),465765.3000000715,A,tow,I,w,150,3,933.2000000476837,464832.10000002384,8060,WL,C,1.0
4,1.067000150680542,learn,58932.99984931946,Mon Feb 16 2026 09:22:25 GMT-0600 (Central Standard Time),465898.40000009537,A,towe,I,e,119,3,1066.3000000715256,464832.10000002384,8060,WL,C,1.0
4,1.2829999923706055,learn,58717.000007629395,Mon Feb 16 2026 09:22:25 GMT-0600 (Central Standard Time),466115.10000002384,A,tower,I,r,202,3,1283.0,464832.10000002384,8060,WL,C,1.0
4,1.5,learn,58500.0,Mon Feb 16 2026 09:22:25 GMT-0600 (Central Standard Time),466331.60000002384,A,towerenter,I,enter,210,3,1499.5,464832.10000002384,8060,WL,C,1.0
4,1.9660000801086426,learn,58033.99991989136,Mon Feb 16 2026 09:22:25 GMT-0600 (Central Standard Time),466798.0,A,w,I,w,457,3,466.0,466332.0,8060,WL,C,2.0
4,2.1660001277923584,learn,57833.99987220764,Mon Feb 16 2026 09:22:25 GMT-0600 (Central Standard Time),466998.0,A,wh,I,h,182,3,666.0,466332.0,8060,WL,C,2.0
4,2.315999984741211,learn,57684.00001525879,Mon Feb 16 2026 09:22:25 GMT-0600 (Central Standard Time),467148.10000002384,A,whe,I,e,141,3,816.1000000238419,466332.0,8060,WL,C,2.0
4,2.5,learn,57500.0,Mon Feb 16 2026 09:22:25 GMT-0600 (Central Standard Time),467331.2000000477,A,whea,I,a,175,3,999.2000000476837,466332.0,8060,WL,C,2.0
4,2.616000175476074,learn,57383.999824523926,Mon Feb 16 2026 09:22:25 GMT-0600 (Central Standard Time),467447.90000009537,A,wheat,I,t,104,3,1115.9000000953674,466332.0,8060,WL,C,2.0
4,2.75,learn,57250.0,Mon Feb 16 2026 09:22:25 GMT-0600 (Central Standard Time),467581.2000000477,A,wheatenter,I,enter,125,3,1249.2000000476837,466332.0,8060,WL,C,2.0
4,2.9830000400543213,learn,57016.99995994568,Mon Feb 16 2026 09:22:25 GMT-0600 (Central Standard Time),467814.5,A,q,I,q,214,3,233.0,467581.5,8060,WL,C,3.0
4,3.2160000801086426,learn,56783.99991989136,Mon Feb 16 2026 09:22:25 GMT-0600 (Central Standard Time),468047.60000002384,A,qu,I,u,222,3,466.10000002384186,467581.5,8060,WL,C,3.0
4,3.4170000553131104,learn,56582.99994468689,Mon Feb 16 2026 09:22:25 GMT-0600 (Central Standard Time),468248.7000000477,A,que,I,e,189,3,667.2000000476837,467581.5,8060,WL,C,3.0
4,3.565999984741211,learn,56434.00001525879,Mon Feb 16 2026 09:22:25 GMT-0600 (Central Standard Time),468397.7000000477,A,quee,I,e,139,3,816.2000000476837,467581.5,8060,WL,C,3.0
4,3.7320001125335693,learn,56267.99988746643,Mon Feb 16 2026 09:22:25 GMT-0600 (Central Standard Time),468564.10000002384,A,queen,I,n,150,3,982.6000000238419,467581.5,8060,WL,C,3.0
4,3.9820001125335693,learn,56017.99988746643,Mon Feb 16 2026 09:22:25 GMT-0600 (Central Standard Time),468814.10000002384,A,queenenter,I,enter,240,3,1232.6000000238419,467581.5,8060,WL,C,3.0
4,5.264000177383423,learn,54735.99982261658,Mon Feb 16 2026 09:22:25 GMT-0600 (Central Standard Time),470096.8000000715,A,s,I,s,1277,3,1282.3999999761581,468814.40000009537,8060,WL,C,4.0
4,5.397000074386597,learn,54602.9999256134,Mon Feb 16 2026 09:22:25 GMT-0600 (Central Standard Time),470230.3000000715,A,su,I,u,124,3,1415.8999999761581,468814.40000009537,8060,WL,C,4.0
4,5.54800009727478,learn,54451.99990272522,Mon Feb 16 2026 09:22:25 GMT-0600 (Central Standard Time),470380.40000009537,A,sug,I,g,134,3,1566.0,468814.40000009537,8060,WL,C,4.0
4,5.63100004196167,learn,54368.99995803833,Mon Feb 16 2026 09:22:25 GMT-0600 (Central Standard Time),470463.5,A,suga,I,a,71,3,1649.0999999046326,468814.40000009537,8060,WL,C,4.0
4,5.781000137329102,learn,54218.9998626709,Mon Feb 16 2026 09:22:25 GMT-0600 (Central Standard Time),470613.60000002384,A,sugar,I,r,132,3,1799.1999999284744,468814.40000009537,8060,WL,C,4.0
4,5.997000217437744,learn,54002.999782562256,Mon Feb 16 2026 09:22:25 GMT-0600 (Central Standard Time),470830.10000002384,A,sugarenter,I,enter,199,3,2015.6999999284744,468814.40000009537,8060,WL,C,4.0
4,8.147000074386597,learn,51852.9999256134,Mon Feb 16 2026 09:22:25 GMT-0600 (Central Standard Time),472979.7000000477,A,h,I,h,2134,3,2149.399999976158,470830.3000000715,8060,WL,C,5.0
4,8.263000011444092,learn,51736.99998855591,Mon Feb 16 2026 09:22:25 GMT-0600 (Central Standard Time),473095.8000000715,A,ho,I,o,95,3,2265.5,470830.3000000715,8060,WL,C,5.0
4,8.463000059127808,learn,51536.99994087219,Mon Feb 16 2026 09:22:25 GMT-0600 (Central Standard Time),473295.90000009537,A,hom,I,m,187,3,2465.600000023842,470830.3000000715,8060,WL,C,5.0
4,8.61300015449524,learn,51386.99984550476,Mon Feb 16 2026 09:22:25 GMT-0600 (Central Standard Time),473445.90000009537,A,home,I,e,133,3,2615.600000023842,470830.3000000715,8060,WL,C,5.0
4,8.763000011444092,learn,51236.99998855591,Mon Feb 16 2026 09:22:25 GMT-0600 (Central Standard Time),473596.0,A,homeenter,I,enter,143,3,2765.6999999284744,470830.3000000715,8060,WL,C,5.0
4,9.046000003814697,learn,50953.9999961853,Mon Feb 16 2026 09:22:25 GMT-0600 (Central Standard Time),473879.2000000477,A,b,I,b,273,3,282.7999999523163,473596.40000009537,8060,WL,C,6.0
4,9.213000059127808,learn,50786.99994087219,Mon Feb 16 2026 09:22:25 GMT-0600 (Central Standard Time),474045.8000000715,A,bo,I,o,156,3,449.39999997615814,473596.40000009537,8060,WL,C,6.0
4,9.396000146865845,learn,50603.999853134155,Mon Feb 16 2026 09:22:25 GMT-0600 (Central Standard Time),474229.0,A,boy,I,y,167,3,632.5999999046326,473596.40000009537,8060,WL,C,6.0
4,9.630000114440918,learn,50369.99988555908,Mon Feb 16 2026 09:22:25 GMT-0600 (Central Standard Time),474462.5,A,boyenter,I,enter,224,3,866.0999999046326,473596.40000009537,8060,WL,C,6.0
4,10.146000146865845,learn,49853.999853134155,Mon Feb 16 2026 09:22:25 GMT-0600 (Central Standard Time),474978.7000000477,A,d,I,d,510,3,516.0,474462.7000000477,8060,WL,C,7.0
4,10.26200008392334,learn,49737.99991607666,Mon Feb 16 2026 09:22:25 GMT-0600 (Central Standard Time),475095.40000009537,A,do,I,o,97,3,632.7000000476837,474462.7000000477,8060,WL,C,7.0
4,10.413000106811523,learn,49586.99989318848,Mon Feb 16 2026 09:22:25 GMT-0600 (Central Standard Time),475245.5,A,doc,I,c,133,3,782.7999999523163,474462.7000000477,8060,WL,C,7.0
4,10.59600019454956,learn,49403.99980545044,Mon Feb 16 2026 09:22:25 GMT-0600 (Central Standard Time),475429.0,A,doct,I,t,174,3,966.2999999523163,474462.7000000477,8060,WL,C,7.0
4,10.713000059127808,learn,49286.99994087219,Mon Feb 16 2026 09:22:25 GMT-0600 (Central Standard Time),475545.5,A,docto,I,o,103,3,1082.7999999523163,474462.7000000477,8060,WL,C,7.0
4,10.828999996185303,learn,49171.0000038147,Mon Feb 16 2026 09:22:25 GMT-0600 (Central Standard Time),475662.10000002384,A,doctor,I,r,107,3,1199.3999999761581,474462.7000000477,8060,WL,C,7.0
4,11.190999984741211,learn,48809.00001525879,Mon Feb 16 2026 09:22:25 GMT-0600 (Central Standard Time),476024.0,A,doctorenter,I,enter,210,3,1561.2999999523163,474462.7000000477,8060,WL,C,7.0
4,11.245000123977661,learn,48754.99987602234,Mon Feb 16 2026 09:22:25 GMT-0600 (Central Standard Time),476078.3000000715,A,l,I,l,43,3,54.0,476024.3000000715,8060,WL,C,8.0
4,11.76200008392334,learn,48237.99991607666,Mon Feb 16 2026 09:22:25 GMT-0600 (Central Standard Time),476595.0,A,le,I,e,501,3,570.6999999284744,476024.3000000715,8060,WL,C,8.0
4,11.92900013923645,learn,48070.99986076355,Mon Feb 16 2026 09:22:25 GMT-0600 (Central Standard Time),476761.8000000715,A,let,I,t,154,3,737.5,476024.3000000715,8060,WL,C,8.0
4,12.111999988555908,learn,47888.00001144409,Mon Feb 16 2026 09:22:25 GMT-0600 (Central Standard Time),476944.90000009537,A,lett,I,t,163,3,920.6000000238419,476024.3000000715,8060,WL,C,8.0
4,12.212000131607056,learn,47787.999868392944,Mon Feb 16 2026 09:22:25 GMT-0600 (Central Standard Time),477045.10000002384,A,lette,I,e,83,3,1020.7999999523163,476024.3000000715,8060,WL,C,8.0
4,12.312000036239624,learn,47687.999963760376,Mon Feb 16 2026 09:22:25 GMT-0600 (Central Standard Time),477144.8000000715,A,letter,I,r,87,3,1120.5,476024.3000000715,8060,WL,C,8.0
4,12.59500002861023,learn,47404.99997138977,Mon Feb 16 2026 09:22:25 GMT-0600 (Central Standard Time),477427.8000000715,A,letterenter,I,enter,276,3,1403.5,476024.3000000715,8060,WL,C,8.0
4,13.978000164031982,learn,46021.99983596802,Mon Feb 16 2026 09:22:25 GMT-0600 (Central Standard Time),478810.7000000477,A,c,I,c,1369,3,1382.5,477428.2000000477,8060,WL,C,9.0
4,14.045000076293945,learn,45954.999923706055,Mon Feb 16 2026 09:22:25 GMT-0600 (Central Standard Time),478877.60000002384,A,ca,I,a,58,3,1449.3999999761581,477428.2000000477,8060,WL,C,9.0
4,14.195000171661377,learn,45804.99982833862,Mon Feb 16 2026 09:22:25 GMT-0600 (Central Standard Time),479027.40000009537,A,cam,I,m,135,3,1599.2000000476837,477428.2000000477,8060,WL,C,9.0
4,14.295000076293945,learn,45704.999923706055,Mon Feb 16 2026 09:22:25 GMT-0600 (Central Standard Time),479127.40000009537,A,camp,I,p,88,3,1699.2000000476837,477428.2000000477,8060,WL,C,9.0
4,14.57800006866455,learn,45421.99993133545,Mon Feb 16 2026 09:22:25 GMT-0600 (Central Standard Time),479410.7000000477,A,campenter,I,enter,269,3,1982.5,477428.2000000477,8060,WL,C,9.0
4,14.944000005722046,learn,45055.999994277954,Mon Feb 16 2026 09:22:25 GMT-0600 (Central Standard Time),479777.10000002384,A,f,I,f,362,3,366.10000002384186,479411.0,8060,WL,C,10.0
4,15.145000219345093,learn,44854.99978065491,Mon Feb 16 2026 09:22:25 GMT-0600 (Central Standard Time),479977.40000009537,A,fl,I,l,188,3,566.4000000953674,479411.0,8060,WL,C,10.0
4,15.261000156402588,learn,44738.99984359741,Mon Feb 16 2026 09:22:25 GMT-0600 (Central Standard Time),480093.7000000477,A,fla,I,a,107,3,682.7000000476837,479411.0,8060,WL,C,10.0
4,15.444000005722046,learn,44555.999994277954,Mon Feb 16 2026 09:22:25 GMT-0600 (Central Standard Time),480277.0,A,flag,I,g,175,3,866.0,479411.0,8060,WL,C,10.0
4,15.66100001335144,learn,44338.99998664856,Mon Feb 16 2026 09:22:25 GMT-0600 (Central Standard Time),480493.7000000477,A,flagenter,I,enter,199,3,1082.7000000476837,479411.0,8060,WL,C,10.0
4,16.07800006866455,learn,43921.99993133545,Mon Feb 16 2026 09:22:25 GMT-0600 (Central Standard Time),480910.7000000477,A,c,I,c,399,3,416.7000000476837,480494.0,8060,WL,C,11.0
4,16.211000204086304,learn,43788.999795913696,Mon Feb 16 2026 09:22:25 GMT-0600 (Central Standard Time),481043.7000000477,A,co,I,o,126,3,549.7000000476837,480494.0,8060,WL,C,11.0
4,16.427000045776367,learn,43572.99995422363,Mon Feb 16 2026 09:22:25 GMT-0600 (Central Standard Time),481260.10000002384,A,cor,I,r,201,3,766.1000000238419,480494.0,8060,WL,C,11.0
4,16.5770001411438,learn,43422.9998588562,Mon Feb 16 2026 09:22:25 GMT-0600 (Central Standard Time),481409.90000009537,A,corn,I,n,136,3,915.9000000953674,480494.0,8060,WL,C,11.0
4,16.927000045776367,learn,43072.99995422363,Mon Feb 16 2026 09:22:25 GMT-0600 (Central Standard Time),481760.2000000477,A,cornenter,I,enter,329,3,1266.2000000476837,480494.0,8060,WL,C,11.0
4,17.694000005722046,learn,42305.999994277954,Mon Feb 16 2026 09:22:25 GMT-0600 (Central Standard Time),482526.40000009537,A,s,I,s,756,3,766.0,481760.40000009537,8060,WL,C,12.0
4,17.8270001411438,learn,42172.9998588562,Mon Feb 16 2026 09:22:25 GMT-0600 (Central Standard Time),482660.10000002384,A,sh,I,h,118,3,899.6999999284744,481760.40000009537,8060,WL,C,12.0
4,17.89400005340576,learn,42105.99994659424,Mon Feb 16 2026 09:22:25 GMT-0600 (Central Standard Time),482726.5,A,sho,I,o,57,3,966.0999999046326,481760.40000009537,8060,WL,C,12.0
4,17.960000038146973,learn,42039.99996185303,Mon Feb 16 2026 09:22:25 GMT-0600 (Central Standard Time),482793.10000002384,A,shor,I,r,62,3,1032.6999999284744,481760.40000009537,8060,WL,C,12.0
4,18.110000133514404,learn,41889.999866485596,Mon Feb 16 2026 09:22:25 GMT-0600 (Central Standard Time),482943.2000000477,A,shore,I,e,132,3,1182.7999999523163,481760.40000009537,8060,WL,C,12.0
4,18.3270001411438,learn,41672.9998588562,Mon Feb 16 2026 09:22:25 GMT-0600 (Central Standard Time),483159.60000002384,A,shoreenter,I,enter,204,3,1399.1999999284744,481760.40000009537,8060,WL,C,12.0
4,18.677000045776367,learn,41322.99995422363,Mon Feb 16 2026 09:22:25 GMT-0600 (Central Standard Time),483509.5,A,c,I,c,341,3,349.5,483160.0,8060,WL,C,13.0
4,18.759999990463257,learn,41240.00000953674,Mon Feb 16 2026 09:22:25 GMT-0600 (Central Standard Time),483592.90000009537,A,ca,I,a,63,3,432.90000009536743,483160.0,8060,WL,C,13.0
4,18.960000038146973,learn,41039.99996185303,Mon Feb 16 2026 09:22:25 GMT-0600 (Central Standard Time),483792.60000002384,A,cat,I,t,188,3,632.6000000238419,483160.0,8060,WL,C,13.0
4,19.093000173568726,learn,40906.999826431274,Mon Feb 16 2026 09:22:25 GMT-0600 (Central Standard Time),483926.2000000477,A,catt,I,t,124,3,766.2000000476837,483160.0,8060,WL,C,13.0
4,19.243000030517578,learn,40756.99996948242,Mon Feb 16 2026 09:22:25 GMT-0600 (Central Standard Time),484076.10000002384,A,cattl,I,l,133,3,916.1000000238419,483160.0,8060,WL,C,13.0
4,19.360000133514404,learn,40639.999866485596,Mon Feb 16 2026 09:22:25 GMT-0600 (Central Standard Time),484193.0,A,cattle,I,e,111,3,1033.0,483160.0,8060,WL,C,13.0
4,19.610000133514404,learn,40389.999866485596,Mon Feb 16 2026 09:22:25 GMT-0600 (Central Standard Time),484442.60000002384,A,cattleenter,I,enter,244,3,1282.6000000238419,483160.0,8060,WL,C,13.0
4,20.026000022888184,learn,39973.99997711182,Mon Feb 16 2026 09:22:25 GMT-0600 (Central Standard Time),484859.10000002384,A,b,I,b,410,3,416.1999999284744,484442.90000009537,8060,WL,C,14.0
4,20.176000118255615,learn,39823.999881744385,Mon Feb 16 2026 09:22:25 GMT-0600 (Central Standard Time),485008.7000000477,A,bo,I,o,129,3,565.7999999523163,484442.90000009537,8060,WL,C,14.0
4,20.276000022888184,learn,39723.99997711182,Mon Feb 16 2026 09:22:25 GMT-0600 (Central Standard Time),485108.8000000715,A,bod,I,d,92,3,665.8999999761581,484442.90000009537,8060,WL,C,14.0
4,20.426000118255615,learn,39573.999881744385,Mon Feb 16 2026 09:22:25 GMT-0600 (Central Standard Time),485258.90000009537,A,body,I,y,144,3,816.0,484442.90000009537,8060,WL,C,14.0
4,20.7260000705719,learn,39273.9999294281,Mon Feb 16 2026 09:22:25 GMT-0600 (Central Standard Time),485558.90000009537,A,bodyenter,I,enter,282,3,1116.0,484442.90000009537,8060,WL,C,14.0
4,38.254000186920166,learn,21745.999813079834,Mon Feb 16 2026 09:22:25 GMT-0600 (Central Standard Time),503086.90000009537,A,l,I,l,17510,3,17527.600000023842,485559.3000000715,8060,WL,C,15.0
4,38.37000012397766,learn,21629.99987602234,Mon Feb 16 2026 09:22:25 GMT-0600 (Central Standard Time),503203.10000002384,A,le,I,e,101,3,17643.799999952316,485559.3000000715,8060,WL,C,15.0
4,38.53700017929077,learn,21462.99982070923,Mon Feb 16 2026 09:22:25 GMT-0600 (Central Standard Time),503369.90000009537,A,let,I,t,145,3,17810.600000023842,485559.3000000715,8060,WL,C,15.0
4,38.7039999961853,learn,21296.000003814697,Mon Feb 16 2026 09:22:25 GMT-0600 (Central Standard Time),503536.8000000715,A,lett,I,t,162,3,17977.5,485559.3000000715,8060,WL,C,15.0
4,38.90400004386902,learn,21095.99995613098,Mon Feb 16 2026 09:22:25 GMT-0600 (Central Standard Time),503736.5,A,lette,I,e,180,3,18177.199999928474,485559.3000000715,8060,WL,C,15.0
4,39.07000017166138,learn,20929.999828338623,Mon Feb 16 2026 09:22:25 GMT-0600 (Central Standard Time),503903.0,A,letter,I,r,148,3,18343.699999928474,485559.3000000715,8060,WL,C,15.0
4,40.85300016403198,learn,19146.999835968018,Mon Feb 16 2026 09:22:25 GMT-0600 (Central Standard Time),505686.0,A,letterenter,I,enter,1773,3,20126.699999928474,485559.3000000715,8060,WL,C,15.0
5,0.5160000324249268,learn,60000.0,Mon Feb 16 2026 09:22:25 GMT-0600 (Central Standard Time),573514.6000000238,A,t,I,t,512,3,516.0,572998.6000000238,8060,WL,C,1.0
5,0.6670000553131104,learn,60000.0,Mon Feb 16 2026 09:22:25 GMT-0600 (Central Standard Time),573664.8000000715,A,to,I,o,142,3,666.2000000476837,572998.6000000238,8060,WL,C,1.0
5,0.7660000324249268,learn,60000.0,Mon Feb 16 2026 09:22:25 GMT-0600 (Central Standard Time),573764.5,A,tow,I,w,92,3,765.8999999761581,572998.6000000238,8060,WL,C,1.0
5,0.8990001678466797,learn,60000.0,Mon Feb 16 2026 09:22:25 GMT-0600 (Central Standard Time),573897.6000000238,A,towe,I,e,128,3,899.0,572998.6000000238,8060,WL,C,1.0
5,1.1010000705718994,learn,60000.0,Mon Feb 16 2026 09:22:25 GMT-0600 (Central Standard Time),574098.8000000715,A,tower,I,r,195,3,1100.2000000476837,572998.6000000238,8060,WL,C,1.0
5,1.4160001277923584,learn,60000.0,Mon Feb 16 2026 09:22:25 GMT-0600 (Central Standard Time),574414.6000000238,A,towerenter,I,enter,298,3,1416.0,572998.6000000238,8060,WL,C,1.0
5,1.934000015258789,learn,60000.0,Mon Feb 16 2026 09:22:25 GMT-0600 (Central Standard Time),574932.0,A,w,I,w,510,3,517.0999999046326,574414.9000000954,8060,WL,C,2.0
5,2.0830001831054688,learn,60000.0,Mon Feb 16 2026 09:22:25 GMT-0600 (Central Standard Time),575080.7000000477,A,wh,I,h,128,3,665.7999999523163,574414.9000000954,8060,WL,C,2.0
5,2.183000087738037,learn,60000.0,Mon Feb 16 2026 09:22:25 GMT-0600 (Central Standard Time),575180.7000000477,A,whe,I,e,84,3,765.7999999523163,574414.9000000954,8060,WL,C,2.0
5,2.315999984741211,learn,60000.0,Mon Feb 16 2026 09:22:25 GMT-0600 (Central Standard Time),575314.0,A,whea,I,a,120,3,899.0999999046326,574414.9000000954,8060,WL,C,2.0
5,2.4660000801086426,learn,60000.0,Mon Feb 16 2026 09:22:25 GMT-0600 (Central Standard Time),575464.2000000477,A,wheat,I,t,138,3,1049.2999999523163,574414.9000000954,8060,WL,C,2.0
5,2.616000175476074,learn,60000.0,Mon Feb 16 2026 09:22:25 GMT-0600 (Central Standard Time),575614.1000000238,A,wheatenter,I,enter,132,3,1199.1999999284744,574414.9000000954,8060,WL,C,2.0
5,2.815999984741211,learn,60000.0,Mon Feb 16 2026 09:22:25 GMT-0600 (Central Standard Time),575814.0,A,q,I,q,183,3,199.59999990463257,575614.4000000954,8060,WL,C,3.0
5,2.949000120162964,learn,60000.0,Mon Feb 16 2026 09:22:25 GMT-0600 (Central Standard Time),575947.3000000715,A,qu,I,u,118,3,332.89999997615814,575614.4000000954,8060,WL,C,3.0
5,3.067000150680542,learn,60000.0,Mon Feb 16 2026 09:22:25 GMT-0600 (Central Standard Time),576065.1000000238,A,que,I,e,105,3,450.6999999284744,575614.4000000954,8060,WL,C,3.0
5,3.2330000400543213,learn,60000.0,Mon Feb 16 2026 09:22:25 GMT-0600 (Central Standard Time),576230.8000000715,A,quee,I,e,147,3,616.3999999761581,575614.4000000954,8060,WL,C,3.0
5,3.3320000171661377,learn,60000.0,Mon Feb 16 2026 09:22:25 GMT-0600 (Central Standard Time),576330.3000000715,A,queen,I,n,86,3,715.8999999761581,575614.4000000954,8060,WL,C,3.0
5,3.5320000648498535,learn,60000.0,Mon Feb 16 2026 09:22:25 GMT-0600 (Central Standard Time),576530.2000000477,A,queenenter,I,enter,194,3,915.7999999523163,575614.4000000954,8060,WL,C,3.0
5,5.315000057220459,learn,60000.0,Mon Feb 16 2026 09:22:25 GMT-0600 (Central Standard Time),578313.6000000238,A,s,I,s,1762,3,1783.1999999284744,576530.4000000954,8060,WL,C,4.0
5,5.414999961853027,learn,60000.0,Mon Feb 16 2026 09:22:25 GMT-0600 (Central Standard Time),578413.4000000954,A,su,I,u,83,3,1883.0,576530.4000000954,8060,WL,C,4.0
5,5.582000017166138,learn,60000.0,Mon Feb 16 2026 09:22:25 GMT-0600 (Central Standard Time),578579.9000000954,A,sug,I,g,159,3,2049.5,576530.4000000954,8060,WL,C,4.0
5,5.715000152587891,learn,60000.0,Mon Feb 16 2026 09:22:25 GMT-0600 (Central Standard Time),578713.3000000715,A,suga,I,a,113,3,2182.899999976158,576530.4000000954,8060,WL,C,4.0
5,5.832000017166138,learn,60000.0,Mon Feb 16 2026 09:22:25 GMT-0600 (Central Standard Time),578829.8000000715,A,sugar,I,r,107,3,2299.399999976158,576530.4000000954,8060,WL,C,4.0
5,6.065000057220459,learn,60000.0,Mon Feb 16 2026 09:22:25 GMT-0600 (Central Standard Time),579062.9000000954,A,sugarenter,I,enter,215,3,2532.5,576530.4000000954,8060,WL,C,4.0
5,7.015000104904175,learn,60000.0,Mon Feb 16 2026 09:22:25 GMT-0600 (Central Standard Time),580012.7000000477,A,h,I,h,942,3,949.5,579063.2000000477,8060,WL,C,5.0
5,7.0980000495910645,learn,60000.0,Mon Feb 16 2026 09:22:25 GMT-0600 (Central Standard Time),580096.2000000477,A,ho,I,o,72,3,1033.0,579063.2000000477,8060,WL,C,5.0
5,7.281000137329102,learn,60000.0,Mon Feb 16 2026 09:22:25 GMT-0600 (Central Standard Time),580279.3000000715,A,hom,I,m,164,3,1216.1000000238419,579063.2000000477,8060,WL,C,5.0
5,7.365000009536743,learn,60000.0,Mon Feb 16 2026 09:22:25 GMT-0600 (Central Standard Time),580363.6000000238,A,home,I,e,77,3,1300.3999999761581,579063.2000000477,8060,WL,C,5.0
5,7.547000169754028,learn,60000.0,Mon Feb 16 2026 09:22:25 GMT-0600 (Central Standard Time),580545.5,A,homeenter,I,enter,177,3,1482.2999999523163,579063.2000000477,8060,WL,C,5.0
5,7.864000082015991,learn,60000.0,Mon Feb 16 2026 09:22:25 GMT-0600 (Central Standard Time),580862.3000000715,A,b,I,b,307,3,316.60000002384186,580545.7000000477,8060,WL,C,6.0
5,8.031000137329102,learn,60000.0,Mon Feb 16 2026 09:22:25 GMT-0600 (Central Standard Time),581029.2000000477,A,bo,I,o,158,3,483.5,580545.7000000477,8060,WL,C,6.0
5,8.246999979019165,learn,60000.0,Mon Feb 16 2026 09:22:25 GMT-0600 (Central Standard Time),581245.6000000238,A,boy,I,y,207,3,699.8999999761581,580545.7000000477,8060,WL,C,6.0
5,8.496999979019165,learn,60000.0,Mon Feb 16 2026 09:22:25 GMT-0600 (Central Standard Time),581495.4000000954,A,boyenter,I,enter,231,3,949.7000000476837,580545.7000000477,8060,WL,C,6.0
5,9.064000129699707,learn,60000.0,Mon Feb 16 2026 09:22:25 GMT-0600 (Central Standard Time),582062.2000000477,A,d,I,d,549,3,566.5,581495.7000000477,8060,WL,C,7.0
5,9.331000089645386,learn,60000.0,Mon Feb 16 2026 09:22:25 GMT-0600 (Central Standard Time),582328.7000000477,A,do,I,o,246,3,833.0,581495.7000000477,8060,WL,C,7.0
5,9.44700002670288,learn,60000.0,Mon Feb 16 2026 09:22:25 GMT-0600 (Central Standard Time),582445.4000000954,A,doc,I,c,108,3,949.7000000476837,581495.7000000477,8060,WL,C,7.0
5,9.664000034332275,learn,60000.0,Mon Feb 16 2026 09:22:25 GMT-0600 (Central Standard Time),582661.6000000238,A,doct,I,t,207,3,1165.8999999761581,581495.7000000477,8060,WL,C,7.0
5,9.763000011444092,learn,60000.0,Mon Feb 16 2026 09:22:25 GMT-0600 (Central Standard Time),582761.4000000954,A,docto,I,o,94,3,1265.7000000476837,581495.7000000477,8060,WL,C,7.0
5,9.914000034332275,learn,60000.0,Mon Feb 16 2026 09:22:25 GMT-0600 (Central Standard Time),582911.7000000477,A,doctor,I,r,130,3,1416.0,581495.7000000477,8060,WL,C,7.0
5,10.081000089645386,learn,60000.0,Mon Feb 16 2026 09:22:25 GMT-0600 (Central Standard Time),583078.8000000715,A,doctorenter,I,enter,149,3,1583.1000000238419,581495.7000000477,8060,WL,C,7.0
5,10.44700002670288,learn,60000.0,Mon Feb 16 2026 09:22:25 GMT-0600 (Central Standard Time),583444.8000000715,A,l,I,l,350,3,365.7000000476837,583079.1000000238,8060,WL,C,8.0
5,10.597000122070312,learn,60000.0,Mon Feb 16 2026 09:22:25 GMT-0600 (Central Standard Time),583594.9000000954,A,le,I,e,136,3,515.8000000715256,583079.1000000238,8060,WL,C,8.0
5,10.71500015258789,learn,60000.0,Mon Feb 16 2026 09:22:25 GMT-0600 (Central Standard Time),583712.8000000715,A,let,I,t,113,3,633.7000000476837,583079.1000000238,8060,WL,C,8.0
5,10.897000074386597,learn,60000.0,Mon Feb 16 2026 09:22:25 GMT-0600 (Central Standard Time),583894.9000000954,A,lett,I,t,173,3,815.8000000715256,583079.1000000238,8060,WL,C,8.0
5,11.02999997138977,learn,60000.0,Mon Feb 16 2026 09:22:25 GMT-0600 (Central Standard Time),584028.4000000954,A,lette,I,e,118,3,949.3000000715256,583079.1000000238,8060,WL,C,8.0
5,11.163000106811523,learn,60000.0,Mon Feb 16 2026 09:22:25 GMT-0600 (Central Standard Time),584161.3000000715,A,letter,I,r,120,3,1082.2000000476837,583079.1000000238,8060,WL,C,8.0
5,11.463000059127808,learn,60000.0,Mon Feb 16 2026 09:22:25 GMT-0600 (Central Standard Time),584461.3000000715,A,letterenter,I,enter,283,3,1382.2000000476837,583079.1000000238,8060,WL,C,8.0
5,11.763000011444092,learn,60000.0,Mon Feb 16 2026 09:22:25 GMT-0600 (Central Standard Time),584761.1000000238,A,n,I,n,295,3,299.5,584461.6000000238,8060,WL,C,9.0
5,11.896000146865845,learn,60000.0,Mon Feb 16 2026 09:22:25 GMT-0600 (Central Standard Time),584894.6000000238,A,na,I,a,124,3,433.0,584461.6000000238,8060,WL,C,9.0
5,11.979000091552734,learn,60000.0,Mon Feb 16 2026 09:22:25 GMT-0600 (Central Standard Time),584977.4000000954,A,nai,I,i,62,3,515.8000000715256,584461.6000000238,8060,WL,C,9.0
5,12.080000162124634,learn,60000.0,Mon Feb 16 2026 09:22:25 GMT-0600 (Central Standard Time),585077.8000000715,A,nail,I,l,92,3,616.2000000476837,584461.6000000238,8060,WL,C,9.0
5,12.296000003814697,learn,60000.0,Mon Feb 16 2026 09:22:25 GMT-0600 (Central Standard Time),585294.1000000238,A,nailenter,I,enter,207,3,832.5,584461.6000000238,8060,WL,C,9.0
5,14.611999988555908,learn,60000.0,Mon Feb 16 2026 09:22:25 GMT-0600 (Central Standard Time),587610.3000000715,A,s,I,s,2310,3,2315.899999976158,585294.4000000954,8060,WL,C,10.0
5,14.779000043869019,learn,60000.0,Mon Feb 16 2026 09:22:25 GMT-0600 (Central Standard Time),587776.9000000954,A,sh,I,h,154,3,2482.5,585294.4000000954,8060,WL,C,10.0
5,14.878999948501587,learn,60000.0,Mon Feb 16 2026 09:22:25 GMT-0600 (Central Standard Time),587876.9000000954,A,sho,I,o,84,3,2582.5,585294.4000000954,8060,WL,C,10.0
5,14.995000123977661,learn,60000.0,Mon Feb 16 2026 09:22:25 GMT-0600 (Central Standard Time),587993.1000000238,A,shor,I,r,112,3,2698.6999999284744,585294.4000000954,8060,WL,C,10.0
5,15.111999988555908,learn,60000.0,Mon Feb 16 2026 09:22:25 GMT-0600 (Central Standard Time),588110.1000000238,A,shore,I,e,108,3,2815.6999999284744,585294.4000000954,8060,WL,C,10.0
5,15.295000076293945,learn,60000.0,Mon Feb 16 2026 09:22:25 GMT-0600 (Central Standard Time),588293.5,A,shoreenter,I,enter,174,3,2999.0999999046326,585294.4000000954,8060,WL,C,10.0
5,15.611999988555908,learn,60000.0,Mon Feb 16 2026 09:22:25 GMT-0600 (Central Standard Time),588609.9000000954,A,c,I,c,303,3,316.10000002384186,588293.8000000715,8060,WL,C,11.0
5,15.779000043869019,learn,60000.0,Mon Feb 16 2026 09:22:25 GMT-0600 (Central Standard Time),588776.9000000954,A,ca,I,a,154,3,483.10000002384186,588293.8000000715,8060,WL,C,11.0
5,15.878999948501587,learn,60000.0,Mon Feb 16 2026 09:22:25 GMT-0600 (Central Standard Time),588876.7000000477,A,cat,I,t,92,3,582.8999999761581,588293.8000000715,8060,WL,C,11.0
5,16.045000076293945,learn,60000.0,Mon Feb 16 2026 09:22:25 GMT-0600 (Central Standard Time),589043.2000000477,A,catt,I,t,160,3,749.3999999761581,588293.8000000715,8060,WL,C,11.0
5,16.17799997329712,learn,60000.0,Mon Feb 16 2026 09:22:25 GMT-0600 (Central Standard Time),589176.5,A,cattl,I,l,113,3,882.6999999284744,588293.8000000715,8060,WL,C,11.0
5,16.378000020980835,learn,60000.0,Mon Feb 16 2026 09:22:25 GMT-0600 (Central Standard Time),589376.5,A,cattle,I,e,180,3,1082.6999999284744,588293.8000000715,8060,WL,C,11.0
5,16.49500012397766,learn,60000.0,Mon Feb 16 2026 09:22:25 GMT-0600 (Central Standard Time),589492.9000000954,A,cattleenter,I,enter,100,3,1199.1000000238419,588293.8000000715,8060,WL,C,11.0
5,16.795000076293945,learn,60000.0,Mon Feb 16 2026 09:22:25 GMT-0600 (Central Standard Time),589792.7000000477,A,b,I,b,280,3,299.39999997615814,589493.3000000715,8060,WL,C,12.0
5,16.91100001335144,learn,60000.0,Mon Feb 16 2026 09:22:25 GMT-0600 (Central Standard Time),589909.6000000238,A,bo,I,o,108,3,416.2999999523163,589493.3000000715,8060,WL,C,12.0
5,17.045000076293945,learn,60000.0,Mon Feb 16 2026 09:22:25 GMT-0600 (Central Standard Time),590042.9000000954,A,bod,I,d,119,3,549.6000000238419,589493.3000000715,8060,WL,C,12.0
5,17.177000045776367,learn,60000.0,Mon Feb 16 2026 09:22:25 GMT-0600 (Central Standard Time),590175.9000000954,A,body,I,y,122,3,682.6000000238419,589493.3000000715,8060,WL,C,12.0
5,17.47699999809265,learn,60000.0,Mon Feb 16 2026 09:22:25 GMT-0600 (Central Standard Time),590476.0,A,bodyenter,I,enter,293,3,982.6999999284744,589493.3000000715,8060,WL,C,12.0
5,19.325999975204468,learn,60000.0,Mon Feb 16 2026 09:22:25 GMT-0600 (Central Standard Time),592325.5,A,c,I,c,1833,3,1849.0999999046326,590476.4000000954,8060,WL,C,13.0
5,19.409000158309937,learn,60000.0,Mon Feb 16 2026 09:22:25 GMT-0600 (Central Standard Time),592408.8000000715,A,co,I,o,71,3,1932.3999999761581,590476.4000000954,8060,WL,C,13.0
5,19.542999982833862,learn,60000.0,Mon Feb 16 2026 09:22:25 GMT-0600 (Central Standard Time),592542.2000000477,A,cor,I,r,116,3,2065.7999999523163,590476.4000000954,8060,WL,C,13.0
5,19.64199995994568,learn,60000.0,Mon Feb 16 2026 09:22:25 GMT-0600 (Central Standard Time),592641.9000000954,A,corn,I,n,93,3,2165.5,590476.4000000954,8060,WL,C,13.0
5,19.926000118255615,learn,60000.0,Mon Feb 16 2026 09:22:25 GMT-0600 (Central Standard Time),592925.4000000954,A,cornenter,I,enter,274,3,2449.0,590476.4000000954,8060,WL,C,13.0
5,29.09000015258789,learn,60000.0,Mon Feb 16 2026 09:22:25 GMT-0600 (Central Standard Time),602089.2000000477,A,c,I,c,9143,3,9163.600000023842,592925.6000000238,8060,WL,C,14.0
5,29.1560001373291,learn,60000.0,Mon Feb 16 2026 09:22:25 GMT-0600 (Central Standard Time),602155.8000000715,A,ca,I,a,59,3,9230.200000047684,592925.6000000238,8060,WL,C,14.0
5,29.4060001373291,learn,60000.0,Mon Feb 16 2026 09:22:25 GMT-0600 (Central Standard Time),602405.8000000715,A,cam,I,m,232,3,9480.200000047684,592925.6000000238,8060,WL,C,14.0
5,29.606000185012817,learn,60000.0,Mon Feb 16 2026 09:22:25 GMT-0600 (Central Standard Time),602605.8000000715,A,camp,I,p,183,3,9680.200000047684,592925.6000000238,8060,WL,C,14.0
5,29.84000015258789,learn,60000.0,Mon Feb 16 2026 09:22:25 GMT-0600 (Central Standard Time),602839.6000000238,A,campenter,I,enter,214,3,9914.0,592925.6000000238,8060,WL,C,14.0
5,30.072999954223633,learn,60000.0,Mon Feb 16 2026 09:22:25 GMT-0600 (Central Standard Time),603072.1000000238,A,f,I,f,212,3,232.39999997615814,602839.7000000477,8060,WL,C,15.0
5,30.206000089645386,learn,60000.0,Mon Feb 16 2026 09:22:25 GMT-0600 (Central Standard Time),603205.5,A,fl,I,l,117,3,365.7999999523163,602839.7000000477,8060,WL,C,15.0
5,30.305999994277954,learn,60000.0,Mon Feb 16 2026 09:22:25 GMT-0600 (Central Standard Time),603305.2000000477,A,fla,I,a,95,3,465.5,602839.7000000477,8060,WL,C,15.0
5,30.473000049591064,learn,60000.0,Mon Feb 16 2026 09:22:25 GMT-0600 (Central Standard Time),603472.2000000477,A,flag,I,g,156,3,632.5,602839.7000000477,8060,WL,C,15.0
5,30.75600004196167,learn,60000.0,Mon Feb 16 2026 09:22:25 GMT-0600 (Central Standard Time),603755.5,A,flagenter,I,enter,276,3,915.7999999523163,602839.7000000477,8060,WL,C,15.0
6,0.5339999198913574,distr,59466.00008010864,Mon Feb 16 2026 09:22:25 GMT-0600 (Central Standard Time),671884.1000000238,B,s,I,s,519,3,533.1999999284744,671350.9000000954,8060,WL,C,1.0
6,0.6169998645782471,distr,59383.00013542175,Mon Feb 16 2026 09:22:25 GMT-0600 (Central Standard Time),671967.6000000238,B,sk,I,k,63,3,616.6999999284744,671350.9000000954,8060,WL,C,1.0
6,0.8329999446868896,distr,59167.00005531311,Mon Feb 16 2026 09:22:25 GMT-0600 (Central Standard Time),672183.8000000715,B,sky,I,y,205,3,832.8999999761581,671350.9000000954,8060,WL,C,1.0
6,1.0829999446868896,distr,58917.00005531311,Mon Feb 16 2026 09:22:25 GMT-0600 (Central Standard Time),672433.5,B,skyenter,I,enter,245,3,1082.5999999046326,671350.9000000954,8060,WL,C,1.0
6,1.4670000076293945,distr,58532.999992370605,Mon Feb 16 2026 09:22:25 GMT-0600 (Central Standard Time),672816.9000000954,B,d,I,d,371,3,383.10000002384186,672433.8000000715,8060,WL,C,2.0
6,1.5829999446868896,distr,58417.00005531311,Mon Feb 16 2026 09:22:25 GMT-0600 (Central Standard Time),672933.8000000715,B,do,I,o,99,3,500.0,672433.8000000715,8060,WL,C,2.0
6,1.7669999599456787,distr,58233.00004005432,Mon Feb 16 2026 09:22:25 GMT-0600 (Central Standard Time),673117.0,B,dol,I,l,167,3,683.1999999284744,672433.8000000715,8060,WL,C,2.0
6,1.8829998970031738,distr,58117.000102996826,Mon Feb 16 2026 09:22:25 GMT-0600 (Central Standard Time),673233.3000000715,B,doll,I,l,111,3,799.5,672433.8000000715,8060,WL,C,2.0
6,2.065999984741211,distr,57934.00001525879,Mon Feb 16 2026 09:22:25 GMT-0600 (Central Standard Time),673416.8000000715,B,dolla,I,a,171,3,983.0,672433.8000000715,8060,WL,C,2.0
6,2.25,distr,57750.0,Mon Feb 16 2026 09:22:25 GMT-0600 (Central Standard Time),673600.4000000954,B,dollar,I,r,173,3,1166.6000000238419,672433.8000000715,8060,WL,C,2.0
6,2.3499999046325684,distr,57650.00009536743,Mon Feb 16 2026 09:22:25 GMT-0600 (Central Standard Time),673700.1000000238,B,dollarenter,I,enter,92,3,1266.2999999523163,672433.8000000715,8060,WL,C,2.0
6,2.615999937057495,distr,57384.000062942505,Mon Feb 16 2026 09:22:25 GMT-0600 (Central Standard Time),673966.6000000238,B,m,I,m,249,3,266.1999999284744,673700.4000000954,8060,WL,C,3.0
6,2.6999998092651367,distr,57300.00019073486,Mon Feb 16 2026 09:22:25 GMT-0600 (Central Standard Time),674050.3000000715,B,mo,I,o,70,3,349.89999997615814,673700.4000000954,8060,WL,C,3.0
6,2.8329999446868896,distr,57167.00005531311,Mon Feb 16 2026 09:22:25 GMT-0600 (Central Standard Time),674183.3000000715,B,mot,I,t,115,3,482.89999997615814,673700.4000000954,8060,WL,C,3.0
6,2.9159998893737793,distr,57084.00011062622,Mon Feb 16 2026 09:22:25 GMT-0600 (Central Standard Time),674266.5,B,moth,I,h,69,3,566.0999999046326,673700.4000000954,8060,WL,C,3.0
6,3.0160000324249268,distr,56983.99996757507,Mon Feb 16 2026 09:22:25 GMT-0600 (Central Standard Time),674366.7000000477,B,mothe,I,e,82,3,666.2999999523163,673700.4000000954,8060,WL,C,3.0
6,3.115999937057495,distr,56884.000062942505,Mon Feb 16 2026 09:22:25 GMT-0600 (Central Standard Time),674466.2000000477,B,mother,I,r,94,3,765.7999999523163,673700.4000000954,8060,WL,C,3.0
6,3.248999834060669,distr,56751.00016593933,Mon Feb 16 2026 09:22:25 GMT-0600 (Central Standard Time),674599.9000000954,B,motherenter,I,enter,114,3,899.5,673700.4000000954,8060,WL,C,3.0
6,3.815999984741211,distr,56184.00001525879,Mon Feb 16 2026 09:22:25 GMT-0600 (Central Standard Time),675166.3000000715,B,c,I,c,549,3,566.1000000238419,674600.2000000477,8060,WL,C,4.0
6,3.931999921798706,distr,56068.000078201294,Mon Feb 16 2026 09:22:25 GMT-0600 (Central Standard Time),675282.6000000238,B,ch,I,h,101,3,682.3999999761581,674600.2000000477,8060,WL,C,4.0
6,4.082000017166138,distr,55917.99998283386,Mon Feb 16 2026 09:22:25 GMT-0600 (Central Standard Time),675432.6000000238,B,chr,I,r,129,3,832.3999999761581,674600.2000000477,8060,WL,C,4.0
6,4.198999881744385,distr,55801.000118255615,Mon Feb 16 2026 09:22:25 GMT-0600 (Central Standard Time),675549.4000000954,B,chri,I,i,100,3,949.2000000476837,674600.2000000477,8060,WL,C,4.0
6,4.332000017166138,distr,55667.99998283386,Mon Feb 16 2026 09:22:25 GMT-0600 (Central Standard Time),675682.7000000477,B,chris,I,s,127,3,1082.5,674600.2000000477,8060,WL,C,4.0
6,4.48199987411499,distr,55518.00012588501,Mon Feb 16 2026 09:22:25 GMT-0600 (Central Standard Time),675832.7000000477,B,christ,I,t,130,3,1232.5,674600.2000000477,8060,WL,C,4.0
6,4.615999937057495,distr,55384.000062942505,Mon Feb 16 2026 09:22:25 GMT-0600 (Central Standard Time),675966.1000000238,B,christa,I,a,124,3,1365.8999999761581,674600.2000000477,8060,WL,C,4.0
6,4.766000032424927,distr,55233.99996757507,Mon Feb 16 2026 09:22:25 GMT-0600 (Central Standard Time),676116.0,B,christam,I,m,134,3,1515.7999999523163,674600.2000000477,8060,WL,C,4.0
6,4.98199987411499,distr,55018.00012588501,Mon Feb 16 2026 09:22:25 GMT-0600 (Central Standard Time),676332.4000000954,B,christams,I,s,209,3,1732.2000000476837,674600.2000000477,8060,WL,C,4.0
6,5.365000009536743,distr,54634.99999046326,Mon Feb 16 2026 09:22:25 GMT-0600 (Central Standard Time),676716.0,B,christam,I,backspace,368,3,2115.7999999523163,674600.2000000477,8060,WL,C,4.0
6,5.531999826431274,distr,54468.000173568726,Mon Feb 16 2026 09:22:25 GMT-0600 (Central Standard Time),676882.7000000477,B,christa,I,backspace,152,3,2282.5,674600.2000000477,8060,WL,C,4.0
6,5.681999921798706,distr,54318.000078201294,Mon Feb 16 2026 09:22:25 GMT-0600 (Central Standard Time),677032.5,B,christ,I,backspace,138,3,2432.2999999523163,674600.2000000477,8060,WL,C,4.0
6,5.931999921798706,distr,54068.000078201294,Mon Feb 16 2026 09:22:25 GMT-0600 (Central Standard Time),677282.5,B,christm,I,m,236,3,2682.2999999523163,674600.2000000477,8060,WL,C,4.0
6,6.065999984741211,distr,53934.00001525879,Mon Feb 16 2026 09:22:25 GMT-0600 (Central Standard Time),677416.2000000477,B,christma,I,a,122,3,2816.0,674600.2000000477,8060,WL,C,4.0
6,6.197999954223633,distr,53802.00004577637,Mon Feb 16 2026 09:22:25 GMT-0600 (Central Standard Time),677548.9000000954,B,christmas,I,s,124,3,2948.7000000476837,674600.2000000477,8060,WL,C,4.0
6,6.914999961853027,distr,53085.00003814697,Mon Feb 16 2026 09:22:25 GMT-0600 (Central Standard Time),678265.2000000477,B,christmasenter,I,enter,704,3,3665.0,674600.2000000477,8060,WL,C,4.0
6,9.596999883651733,distr,50403.00011634827,Mon Feb 16 2026 09:22:25 GMT-0600 (Central Standard Time),680947.5,B,p,I,p,2677,3,2682.0,678265.5,8060,WL,C,5.0
6,9.780999898910522,distr,50219.00010108948,Mon Feb 16 2026 09:22:25 GMT-0600 (Central Standard Time),681131.1000000238,B,pl,I,l,169,3,2865.600000023842,678265.5,8060,WL,C,5.0
6,9.846999883651733,distr,50153.00011634827,Mon Feb 16 2026 09:22:25 GMT-0600 (Central Standard Time),681197.7000000477,B,pla,I,a,49,3,2932.2000000476837,678265.5,8060,WL,C,5.0
6,9.96399998664856,distr,50036.00001335144,Mon Feb 16 2026 09:22:25 GMT-0600 (Central Standard Time),681314.4000000954,B,plan,I,n,103,3,3048.9000000953674,678265.5,8060,WL,C,5.0
6,10.080999851226807,distr,49919.00014877319,Mon Feb 16 2026 09:22:25 GMT-0600 (Central Standard Time),681431.1000000238,B,plant,I,t,98,3,3165.600000023842,678265.5,8060,WL,C,5.0
6,10.330999851226807,distr,49669.00014877319,Mon Feb 16 2026 09:22:25 GMT-0600 (Central Standard Time),681681.0,B,plantenter,I,enter,245,3,3415.5,678265.5,8060,WL,C,5.0
6,15.478999853134155,distr,44521.000146865845,Mon Feb 16 2026 09:22:25 GMT-0600 (Central Standard Time),686829.4000000954,B,m,I,m,5132,3,5148.100000023842,681681.3000000715,8060,WL,C,6.0
6,15.578999996185303,distr,44421.0000038147,Mon Feb 16 2026 09:22:25 GMT-0600 (Central Standard Time),686929.5,B,me,I,e,87,3,5248.199999928474,681681.3000000715,8060,WL,C,6.0
6,15.678999900817871,distr,44321.00009918213,Mon Feb 16 2026 09:22:25 GMT-0600 (Central Standard Time),687029.3000000715,B,mea,I,a,83,3,5348.0,681681.3000000715,8060,WL,C,6.0
6,15.812000036239624,distr,44187.999963760376,Mon Feb 16 2026 09:22:25 GMT-0600 (Central Standard Time),687162.6000000238,B,meat,I,t,127,3,5481.299999952316,681681.3000000715,8060,WL,C,6.0
6,16.111999988555908,distr,43888.00001144409,Mon Feb 16 2026 09:22:25 GMT-0600 (Central Standard Time),687462.3000000715,B,meatenter,I,enter,282,3,5781.0,681681.3000000715,8060,WL,C,6.0
6,46.401999950408936,distr,13598.000049591064,Mon Feb 16 2026 09:22:25 GMT-0600 (Central Standard Time),717752.9000000954,B,t,I,t,30278,3,30290.300000071526,687462.6000000238,8060,WL,C,7.0
6,46.63499999046326,distr,13365.000009536743,Mon Feb 16 2026 09:22:25 GMT-0600 (Central Standard Time),717986.2000000477,B,to,I,o,219,3,30523.600000023842,687462.6000000238,8060,WL,C,7.0
6,46.76899981498718,distr,13231.000185012817,Mon Feb 16 2026 09:22:25 GMT-0600 (Central Standard Time),718119.7000000477,B,too,I,o,122,3,30657.100000023842,687462.6000000238,8060,WL,C,7.0
6,46.96799993515015,distr,13032.000064849854,Mon Feb 16 2026 09:22:25 GMT-0600 (Central Standard Time),718319.3000000715,B,tool,I,l,188,3,30856.700000047684,687462.6000000238,8060,WL,C,7.0
6,47.21799993515015,distr,12782.000064849854,Mon Feb 16 2026 09:22:25 GMT-0600 (Central Standard Time),718569.3000000715,B,toolenter,I,enter,237,3,31106.700000047684,687462.6000000238,8060,WL,C,7.0
6,60.014999866485596,distr,-14.999866485595703,Mon Feb 16 2026 09:22:25 GMT-0600 (Central Standard Time),731365.5,B,None,I,None,12792,3,12795.899999976158,718569.6000000238,8060,WL,C,8.0
7,0.48399996757507324,immed,59516.00003242493,Mon Feb 16 2026 09:22:25 GMT-0600 (Central Standard Time),736280.7000000477,A,t,I,t,472,3,483.0,735797.7000000477,8060,WL,C,1.0
7,0.6830000877380371,immed,59316.99991226196,Mon Feb 16 2026 09:22:25 GMT-0600 (Central Standard Time),736480.5,A,tw,I,w,179,3,682.7999999523163,735797.7000000477,8060,WL,C,1.0
7,0.817000150680542,immed,59182.99984931946,Mon Feb 16 2026 09:22:25 GMT-0600 (Central Standard Time),736613.8000000715,A,two,I,o,124,3,816.1000000238419,735797.7000000477,8060,WL,C,1.0
7,1.2999999523162842,immed,58700.000047683716,Mon Feb 16 2026 09:22:25 GMT-0600 (Central Standard Time),737096.9000000954,A,tw,I,backspace,471,3,1299.2000000476837,735797.7000000477,8060,WL,C,1.0
7,1.4500000476837158,immed,58549.999952316284,Mon Feb 16 2026 09:22:25 GMT-0600 (Central Standard Time),737246.8000000715,A,t,I,backspace,132,3,1449.1000000238419,735797.7000000477,8060,WL,C,1.0
7,1.7170000076293945,immed,58282.999992370605,Mon Feb 16 2026 09:22:25 GMT-0600 (Central Standard Time),737513.6000000238,A,to,I,o,262,3,1715.8999999761581,735797.7000000477,8060,WL,C,1.0
7,1.8660001754760742,immed,58133.999824523926,Mon Feb 16 2026 09:22:25 GMT-0600 (Central Standard Time),737663.4000000954,A,tow,I,w,131,3,1865.7000000476837,735797.7000000477,8060,WL,C,1.0
7,2.0,immed,58000.0,Mon Feb 16 2026 09:22:25 GMT-0600 (Central Standard Time),737796.8000000715,A,towe,I,e,125,3,1999.1000000238419,735797.7000000477,8060,WL,C,1.0
7,2.2170000076293945,immed,57782.999992370605,Mon Feb 16 2026 09:22:25 GMT-0600 (Central Standard Time),738013.6000000238,A,tower,I,r,199,3,2215.899999976158,735797.7000000477,8060,WL,C,1.0
7,2.3510000705718994,immed,57648.9999294281,Mon Feb 16 2026 09:22:25 GMT-0600 (Central Standard Time),738147.6000000238,A,towerenter,I,enter,128,3,2349.899999976158,735797.7000000477,8060,WL,C,1.0
7,2.7330000400543213,immed,57266.99995994568,Mon Feb 16 2026 09:22:25 GMT-0600 (Central Standard Time),738529.7000000477,A,w,I,w,369,3,381.7999999523163,738147.9000000954,8060,WL,C,2.0
7,2.8990001678466797,immed,57100.99983215332,Mon Feb 16 2026 09:22:25 GMT-0600 (Central Standard Time),738696.4000000954,A,wh,I,h,146,3,548.5,738147.9000000954,8060,WL,C,2.0
7,3.0160000324249268,immed,56983.99996757507,Mon Feb 16 2026 09:22:25 GMT-0600 (Central Standard Time),738813.1000000238,A,whe,I,e,100,3,665.1999999284744,738147.9000000954,8060,WL,C,2.0
7,3.4830000400543213,immed,56516.99995994568,Mon Feb 16 2026 09:22:25 GMT-0600 (Central Standard Time),739279.7000000477,A,whea,I,a,448,3,1131.7999999523163,738147.9000000954,8060,WL,C,2.0
7,3.7160000801086426,immed,56283.99991989136,Mon Feb 16 2026 09:22:25 GMT-0600 (Central Standard Time),739513.1000000238,A,wheat,I,t,213,3,1365.1999999284744,738147.9000000954,8060,WL,C,2.0
7,3.8489999771118164,immed,56151.00002288818,Mon Feb 16 2026 09:22:25 GMT-0600 (Central Standard Time),739646.2000000477,A,wheatenter,I,enter,114,3,1498.2999999523163,738147.9000000954,8060,WL,C,2.0
7,4.182000160217285,immed,55817.999839782715,Mon Feb 16 2026 09:22:25 GMT-0600 (Central Standard Time),739979.2000000477,A,q,I,q,319,3,332.7000000476837,739646.5,8060,WL,C,3.0
7,4.299000024795532,immed,55700.99997520447,Mon Feb 16 2026 09:22:25 GMT-0600 (Central Standard Time),740095.9000000954,A,qu,I,u,97,3,449.40000009536743,739646.5,8060,WL,C,3.0
7,4.449000120162964,immed,55550.999879837036,Mon Feb 16 2026 09:22:25 GMT-0600 (Central Standard Time),740246.0,A,que,I,e,141,3,599.5,739646.5,8060,WL,C,3.0
7,4.631999969482422,immed,55368.00003051758,Mon Feb 16 2026 09:22:25 GMT-0600 (Central Standard Time),740429.2000000477,A,quee,I,e,175,3,782.7000000476837,739646.5,8060,WL,C,3.0
7,4.749000072479248,immed,55250.99992752075,Mon Feb 16 2026 09:22:25 GMT-0600 (Central Standard Time),740545.9000000954,A,queen,I,n,104,3,899.4000000953674,739646.5,8060,WL,C,3.0
7,4.965000152587891,immed,55034.99984741211,Mon Feb 16 2026 09:22:25 GMT-0600 (Central Standard Time),740762.2000000477,A,queenenter,I,enter,211,3,1115.7000000476837,739646.5,8060,WL,C,3.0
7,5.182000160217285,immed,54817.999839782715,Mon Feb 16 2026 09:22:25 GMT-0600 (Central Standard Time),740978.9000000954,A,s,I,s,210,3,216.40000009536743,740762.5,8060,WL,C,4.0
7,5.315000057220459,immed,54684.99994277954,Mon Feb 16 2026 09:22:25 GMT-0600 (Central Standard Time),741112.0,A,su,I,u,113,3,349.5,740762.5,8060,WL,C,4.0
7,5.432000160217285,immed,54567.999839782715,Mon Feb 16 2026 09:22:25 GMT-0600 (Central Standard Time),741229.0,A,sug,I,g,100,3,466.5,740762.5,8060,WL,C,4.0
7,5.5320000648498535,immed,54467.99993515015,Mon Feb 16 2026 09:22:25 GMT-0600 (Central Standard Time),741329.2000000477,A,suga,I,a,80,3,566.7000000476837,740762.5,8060,WL,C,4.0
7,5.682000160217285,immed,54317.999839782715,Mon Feb 16 2026 09:22:25 GMT-0600 (Central Standard Time),741478.9000000954,A,sugar,I,r,132,3,716.4000000953674,740762.5,8060,WL,C,4.0
7,5.865000009536743,immed,54134.99999046326,Mon Feb 16 2026 09:22:25 GMT-0600 (Central Standard Time),741662.4000000954,A,sugarenter,I,enter,165,3,899.9000000953674,740762.5,8060,WL,C,4.0
7,6.164999961853027,immed,53835.00003814697,Mon Feb 16 2026 09:22:25 GMT-0600 (Central Standard Time),741961.8000000715,A,h,I,h,294,3,299.2000000476837,741662.6000000238,8060,WL,C,5.0
7,6.315000057220459,immed,53684.99994277954,Mon Feb 16 2026 09:22:25 GMT-0600 (Central Standard Time),742111.9000000954,A,ho,I,o,131,3,449.3000000715256,741662.6000000238,8060,WL,C,5.0
7,6.499000072479248,immed,53500.99992752075,Mon Feb 16 2026 09:22:25 GMT-0600 (Central Standard Time),742295.7000000477,A,hom,I,m,165,3,633.1000000238419,741662.6000000238,8060,WL,C,5.0
7,6.582000017166138,immed,53417.99998283386,Mon Feb 16 2026 09:22:25 GMT-0600 (Central Standard Time),742378.7000000477,A,home,I,e,77,3,716.1000000238419,741662.6000000238,8060,WL,C,5.0
7,6.748000144958496,immed,53251.999855041504,Mon Feb 16 2026 09:22:25 GMT-0600 (Central Standard Time),742545.2000000477,A,homeenter,I,enter,154,3,882.6000000238419,741662.6000000238,8060,WL,C,5.0
7,7.13100004196167,immed,52868.99995803833,Mon Feb 16 2026 09:22:25 GMT-0600 (Central Standard Time),742928.2000000477,A,b,I,b,370,3,382.7999999523163,742545.4000000954,8060,WL,C,6.0
7,7.29800009727478,immed,52701.99990272522,Mon Feb 16 2026 09:22:25 GMT-0600 (Central Standard Time),743094.7000000477,A,bo,I,o,148,3,549.2999999523163,742545.4000000954,8060,WL,C,6.0
7,7.498000144958496,immed,52501.999855041504,Mon Feb 16 2026 09:22:25 GMT-0600 (Central Standard Time),743294.7000000477,A,boy,I,y,189,3,749.2999999523163,742545.4000000954,8060,WL,C,6.0
7,7.71399998664856,immed,52286.00001335144,Mon Feb 16 2026 09:22:25 GMT-0600 (Central Standard Time),743511.1000000238,A,boyenter,I,enter,206,3,965.6999999284744,742545.4000000954,8060,WL,C,6.0
7,8.331000089645386,immed,51668.999910354614,Mon Feb 16 2026 09:22:25 GMT-0600 (Central Standard Time),744127.8000000715,A,d,I,d,606,3,616.3999999761581,743511.4000000954,8060,WL,C,7.0
7,8.46500015258789,immed,51534.99984741211,Mon Feb 16 2026 09:22:25 GMT-0600 (Central Standard Time),744261.5,A,do,I,o,125,3,750.0999999046326,743511.4000000954,8060,WL,C,7.0
7,8.63100004196167,immed,51368.99995803833,Mon Feb 16 2026 09:22:25 GMT-0600 (Central Standard Time),744428.1000000238,A,doc,I,c,151,3,916.6999999284744,743511.4000000954,8060,WL,C,7.0
7,8.848000049591064,immed,51151.999950408936,Mon Feb 16 2026 09:22:25 GMT-0600 (Central Standard Time),744644.6000000238,A,doct,I,t,208,3,1133.1999999284744,743511.4000000954,8060,WL,C,7.0
7,8.94700002670288,immed,51052.99997329712,Mon Feb 16 2026 09:22:25 GMT-0600 (Central Standard Time),744744.3000000715,A,docto,I,o,88,3,1232.8999999761581,743511.4000000954,8060,WL,C,7.0
7,9.14900016784668,immed,50850.99983215332,Mon Feb 16 2026 09:22:25 GMT-0600 (Central Standard Time),744945.9000000954,A,doctor,I,r,180,3,1434.5,743511.4000000954,8060,WL,C,7.0
7,9.281000137329102,immed,50718.9998626709,Mon Feb 16 2026 09:22:25 GMT-0600 (Central Standard Time),745078.1000000238,A,doctorenter,I,enter,116,3,1566.6999999284744,743511.4000000954,8060,WL,C,7.0
7,9.580000162124634,immed,50419.999837875366,Mon Feb 16 2026 09:22:25 GMT-0600 (Central Standard Time),745377.4000000954,A,l,I,l,286,3,299.0,745078.4000000954,8060,WL,C,8.0
7,9.69700002670288,immed,50302.99997329712,Mon Feb 16 2026 09:22:25 GMT-0600 (Central Standard Time),745494.5,A,le,I,e,99,3,416.09999990463257,745078.4000000954,8060,WL,C,8.0
7,9.96500015258789,immed,50034.99984741211,Mon Feb 16 2026 09:22:25 GMT-0600 (Central Standard Time),745762.1000000238,A,let,I,t,254,3,683.6999999284744,745078.4000000954,8060,WL,C,8.0
7,10.164000034332275,immed,49835.999965667725,Mon Feb 16 2026 09:22:25 GMT-0600 (Central Standard Time),745961.0,A,lett,I,t,186,3,882.5999999046326,745078.4000000954,8060,WL,C,8.0
7,10.297000169754028,immed,49702.99983024597,Mon Feb 16 2026 09:22:25 GMT-0600 (Central Standard Time),746094.2000000477,A,lette,I,e,124,3,1015.7999999523163,745078.4000000954,8060,WL,C,8.0
7,10.397000074386597,immed,49602.9999256134,Mon Feb 16 2026 09:22:25 GMT-0600 (Central Standard Time),746194.2000000477,A,letter,I,r,94,3,1115.7999999523163,745078.4000000954,8060,WL,C,8.0
7,10.480000019073486,immed,49519.999980926514,Mon Feb 16 2026 09:22:25 GMT-0600 (Central Standard Time),746277.4000000954,A,letterenter,I,enter,75,3,1199.0,745078.4000000954,8060,WL,C,8.0
7,10.764000177383423,immed,49235.99982261658,Mon Feb 16 2026 09:22:25 GMT-0600 (Central Standard Time),746560.6000000238,A,n,I,n,271,3,282.89999997615814,746277.7000000477,8060,WL,C,9.0
7,10.847000122070312,immed,49152.99987792969,Mon Feb 16 2026 09:22:25 GMT-0600 (Central Standard Time),746644.2000000477,A,na,I,a,68,3,366.5,746277.7000000477,8060,WL,C,9.0
7,10.963000059127808,immed,49036.99994087219,Mon Feb 16 2026 09:22:25 GMT-0600 (Central Standard Time),746760.5,A,nai,I,i,104,3,482.7999999523163,746277.7000000477,8060,WL,C,9.0
7,11.097000122070312,immed,48902.99987792969,Mon Feb 16 2026 09:22:25 GMT-0600 (Central Standard Time),746894.0,A,nail,I,l,116,3,616.2999999523163,746277.7000000477,8060,WL,C,9.0
7,11.380000114440918,immed,48619.99988555908,Mon Feb 16 2026 09:22:25 GMT-0600 (Central Standard Time),747177.2000000477,A,nailenter,I,enter,263,3,899.5,746277.7000000477,8060,WL,C,9.0
7,12.397000074386597,immed,47602.9999256134,Mon Feb 16 2026 09:22:25 GMT-0600 (Central Standard Time),748193.7000000477,A,c,I,c,994,3,1015.8999999761581,747177.8000000715,8060,WL,C,10.0
7,12.580000162124634,immed,47419.999837875366,Mon Feb 16 2026 09:22:25 GMT-0600 (Central Standard Time),748376.8000000715,A,ca,I,a,162,3,1199.0,747177.8000000715,8060,WL,C,10.0
7,12.67900013923645,immed,47320.99986076355,Mon Feb 16 2026 09:22:25 GMT-0600 (Central Standard Time),748476.5,A,cat,I,t,92,3,1298.6999999284744,747177.8000000715,8060,WL,C,10.0
7,12.828999996185303,immed,47171.0000038147,Mon Feb 16 2026 09:22:25 GMT-0600 (Central Standard Time),748626.4000000954,A,catt,I,t,144,3,1448.6000000238419,747177.8000000715,8060,WL,C,10.0
7,12.963000059127808,immed,47036.99994087219,Mon Feb 16 2026 09:22:25 GMT-0600 (Central Standard Time),748759.9000000954,A,cattl,I,l,114,3,1582.1000000238419,747177.8000000715,8060,WL,C,10.0
7,13.080000162124634,immed,46919.999837875366,Mon Feb 16 2026 09:22:25 GMT-0600 (Central Standard Time),748876.6000000238,A,cattle,I,e,110,3,1698.7999999523163,747177.8000000715,8060,WL,C,10.0
7,13.229000091552734,immed,46770.999908447266,Mon Feb 16 2026 09:22:25 GMT-0600 (Central Standard Time),749026.4000000954,A,cattleenter,I,enter,144,3,1848.6000000238419,747177.8000000715,8060,WL,C,10.0
7,13.413000106811523,immed,46586.99989318848,Mon Feb 16 2026 09:22:25 GMT-0600 (Central Standard Time),749209.7000000477,A,s,I,s,170,3,183.10000002384186,749026.6000000238,8060,WL,C,11.0
7,13.578999996185303,immed,46421.0000038147,Mon Feb 16 2026 09:22:25 GMT-0600 (Central Standard Time),749376.3000000715,A,sh,I,h,155,3,349.7000000476837,749026.6000000238,8060,WL,C,11.0
7,13.61300015449524,immed,46386.99984550476,Mon Feb 16 2026 09:22:25 GMT-0600 (Central Standard Time),749410.0,A,sho,I,o,20,3,383.39999997615814,749026.6000000238,8060,WL,C,11.0
7,13.763000011444092,immed,46236.99998855591,Mon Feb 16 2026 09:22:25 GMT-0600 (Central Standard Time),749559.7000000477,A,shor,I,r,131,3,533.1000000238419,749026.6000000238,8060,WL,C,11.0
7,13.913000106811523,immed,46086.99989318848,Mon Feb 16 2026 09:22:25 GMT-0600 (Central Standard Time),749709.6000000238,A,shore,I,e,133,3,683.0,749026.6000000238,8060,WL,C,11.0
7,14.046000003814697,immed,45953.9999961853,Mon Feb 16 2026 09:22:25 GMT-0600 (Central Standard Time),749842.9000000954,A,shoreenter,I,enter,127,3,816.3000000715256,749026.6000000238,8060,WL,C,11.0
7,14.361999988555908,immed,45638.00001144409,Mon Feb 16 2026 09:22:25 GMT-0600 (Central Standard Time),750159.5,A,b,I,b,306,3,316.39999997615814,749843.1000000238,8060,WL,C,12.0
7,14.496000051498413,immed,45503.99994850159,Mon Feb 16 2026 09:22:25 GMT-0600 (Central Standard Time),750292.6000000238,A,bo,I,o,118,3,449.5,749843.1000000238,8060,WL,C,12.0
7,14.611999988555908,immed,45388.00001144409,Mon Feb 16 2026 09:22:25 GMT-0600 (Central Standard Time),750409.2000000477,A,bod,I,d,112,3,566.1000000238419,749843.1000000238,8060,WL,C,12.0
7,14.77999997138977,immed,45220.00002861023,Mon Feb 16 2026 09:22:25 GMT-0600 (Central Standard Time),750577.2000000477,A,body,I,y,156,3,734.1000000238419,749843.1000000238,8060,WL,C,12.0
7,15.013000011444092,immed,44986.99998855591,Mon Feb 16 2026 09:22:25 GMT-0600 (Central Standard Time),750809.6000000238,A,bodyenter,I,enter,211,3,966.5,749843.1000000238,8060,WL,C,12.0
7,15.84500002861023,immed,44154.99997138977,Mon Feb 16 2026 09:22:25 GMT-0600 (Central Standard Time),751642.3000000715,A,c,I,c,827,3,832.3999999761581,750809.9000000954,8060,WL,C,13.0
7,15.945000171661377,immed,44054.99982833862,Mon Feb 16 2026 09:22:25 GMT-0600 (Central Standard Time),751742.3000000715,A,ca,I,a,82,3,932.3999999761581,750809.9000000954,8060,WL,C,13.0
7,16.07800006866455,immed,43921.99993133545,Mon Feb 16 2026 09:22:25 GMT-0600 (Central Standard Time),751875.4000000954,A,cam,I,m,126,3,1065.5,750809.9000000954,8060,WL,C,13.0
7,16.212000131607056,immed,43787.999868392944,Mon Feb 16 2026 09:22:25 GMT-0600 (Central Standard Time),752009.0,A,camp,I,p,113,3,1199.0999999046326,750809.9000000954,8060,WL,C,13.0
