block_c,block_dur,condition,countdown,datetime,endtime,list,multichar_response,project,response,response_time,session_number,start_end,starttime,subject_id,task,task_vers,trial
,,,,Wed Sep 24 2025 18:44:21 GMT-0500 (Central Daylight Time),,,,I,space,378,2,,,8060,WL,B,
prac,,0,,Wed Sep 24 2025 18:44:21 GMT-0500 (Central Daylight Time),,NA,b,I,b,2835,2,,,8060,WL,B,1.0
prac,,0,,Wed Sep 24 2025 18:44:21 GMT-0500 (Central Daylight Time),,NA,bo,I,o,526,2,,,8060,WL,B,1.0
prac,,0,,Wed Sep 24 2025 18:44:21 GMT-0500 (Central Daylight Time),,NA,boo,I,o,242,2,,,8060,WL,B,1.0
prac,,0,,Wed Sep 24 2025 18:44:21 GMT-0500 (Central Daylight Time),,NA,boos,I,s,279,2,,,8060,WL,B,1.0
prac,,0,,Wed Sep 24 2025 18:44:21 GMT-0500 (Central Daylight Time),,NA,boost,I,t,283,2,,,8060,WL,B,1.0
prac,,0,,Wed Sep 24 2025 18:44:21 GMT-0500 (Central Daylight Time),,NA,boostenter,I,enter,4391,2,,,8060,WL,B,1.0
1,0.8499999046325684,learn,59150.00009536743,Wed Sep 24 2025 18:44:21 GMT-0500 (Central Daylight Time),141768.20000000298,A,c,I,c,844,2,849.2999999970198,140918.90000000596,8060,WL,B,1.0
1,1.066999912261963,learn,58933.00008773804,Wed Sep 24 2025 18:44:21 GMT-0500 (Central Daylight Time),141984.79999999702,A,ci,I,i,210,2,1065.8999999910593,140918.90000000596,8060,WL,B,1.0
1,1.25,learn,58750.0,Wed Sep 24 2025 18:44:21 GMT-0500 (Central Daylight Time),142167.90000000596,A,cit,I,t,178,2,1249.0,140918.90000000596,8060,WL,B,1.0
1,1.4500000476837158,learn,58549.999952316284,Wed Sep 24 2025 18:44:21 GMT-0500 (Central Daylight Time),142367.70000000298,A,city,I,y,186,2,1448.7999999970198,140918.90000000596,8060,WL,B,1.0
1,1.7000000476837158,learn,58299.999952316284,Wed Sep 24 2025 18:44:21 GMT-0500 (Central Daylight Time),142617.5,A,cityenter,I,enter,234,2,1698.5999999940395,140918.90000000596,8060,WL,B,1.0
1,1.9830000400543213,learn,58016.99995994568,Wed Sep 24 2025 18:44:21 GMT-0500 (Central Daylight Time),142900.90000000596,A,g,I,g,273,2,283.1000000089407,142617.79999999702,8060,WL,B,2.0
1,2.3299999237060547,learn,57670.000076293945,Wed Sep 24 2025 18:44:21 GMT-0500 (Central Daylight Time),143247.60000000894,A,gr,I,r,341,2,629.8000000119209,142617.79999999702,8060,WL,B,2.0
1,2.385999917984009,learn,57614.00008201599,Wed Sep 24 2025 18:44:21 GMT-0500 (Central Daylight Time),143303.60000000894,A,gra,I,a,35,2,685.8000000119209,142617.79999999702,8060,WL,B,2.0
1,2.5329999923706055,learn,57467.000007629395,Wed Sep 24 2025 18:44:21 GMT-0500 (Central Daylight Time),143450.79999999702,A,gras,I,s,139,2,833.0,142617.79999999702,8060,WL,B,2.0
1,2.683000087738037,learn,57316.99991226196,Wed Sep 24 2025 18:44:21 GMT-0500 (Central Daylight Time),143600.60000000894,A,grass,I,s,144,2,982.8000000119209,142617.79999999702,8060,WL,B,2.0
1,2.882999897003174,learn,57117.000102996826,Wed Sep 24 2025 18:44:21 GMT-0500 (Central Daylight Time),143800.70000000298,A,grassenter,I,enter,186,2,1182.9000000059605,142617.79999999702,8060,WL,B,2.0
1,3.1489999294281006,learn,56851.0000705719,Wed Sep 24 2025 18:44:21 GMT-0500 (Central Daylight Time),144067.40000000596,A,c,I,c,258,2,266.20000000298023,143801.20000000298,8060,WL,B,3.0
1,3.249000072479248,learn,56750.99992752075,Wed Sep 24 2025 18:44:21 GMT-0500 (Central Daylight Time),144167.5,A,ca,I,a,80,2,366.29999999701977,143801.20000000298,8060,WL,B,3.0
1,3.382999897003174,learn,56617.000102996826,Wed Sep 24 2025 18:44:21 GMT-0500 (Central Daylight Time),144300.5,A,cab,I,b,124,2,499.29999999701977,143801.20000000298,8060,WL,B,3.0
1,3.5490000247955322,learn,56450.99997520447,Wed Sep 24 2025 18:44:21 GMT-0500 (Central Daylight Time),144467.20000000298,A,cabi,I,i,159,2,666.0,143801.20000000298,8060,WL,B,3.0
1,3.683000087738037,learn,56316.99991226196,Wed Sep 24 2025 18:44:21 GMT-0500 (Central Daylight Time),144600.60000000894,A,cabin,I,n,120,2,799.4000000059605,143801.20000000298,8060,WL,B,3.0
1,3.881999969482422,learn,56118.00003051758,Wed Sep 24 2025 18:44:21 GMT-0500 (Central Daylight Time),144800.29999999702,A,cabinenter,I,enter,187,2,999.0999999940395,143801.20000000298,8060,WL,B,3.0
1,4.198999881744385,learn,55801.000118255615,Wed Sep 24 2025 18:44:21 GMT-0500 (Central Daylight Time),145117.0,A,l,I,l,306,2,316.09999999403954,144800.90000000596,8060,WL,B,4.0
1,4.25,learn,55750.0,Wed Sep 24 2025 18:44:21 GMT-0500 (Central Daylight Time),145167.60000000894,A,la,I,a,45,2,366.70000000298023,144800.90000000596,8060,WL,B,4.0
1,4.448999881744385,learn,55551.000118255615,Wed Sep 24 2025 18:44:21 GMT-0500 (Central Daylight Time),145367.0,A,lak,I,k,179,2,566.0999999940395,144800.90000000596,8060,WL,B,4.0
1,4.549999952316284,learn,55450.000047683716,Wed Sep 24 2025 18:44:21 GMT-0500 (Central Daylight Time),145468.10000000894,A,lake,I,e,92,2,667.2000000029802,144800.90000000596,8060,WL,B,4.0
1,4.764999866485596,learn,55235.000133514404,Wed Sep 24 2025 18:44:21 GMT-0500 (Central Daylight Time),145683.29999999702,A,lakeenter,I,enter,199,2,882.3999999910593,144800.90000000596,8060,WL,B,4.0
1,5.216000080108643,learn,54783.99991989136,Wed Sep 24 2025 18:44:21 GMT-0500 (Central Daylight Time),146134.40000000596,A,f,I,f,440,2,450.6000000089407,145683.79999999702,8060,WL,B,5.0
1,5.332000017166138,learn,54667.99998283386,Wed Sep 24 2025 18:44:21 GMT-0500 (Central Daylight Time),146249.90000000596,A,fi,I,i,109,2,566.1000000089407,145683.79999999702,8060,WL,B,5.0
1,5.48199987411499,learn,54518.00012588501,Wed Sep 24 2025 18:44:21 GMT-0500 (Central Daylight Time),146399.90000000596,A,fir,I,r,129,2,716.1000000089407,145683.79999999702,8060,WL,B,5.0
1,5.615000009536743,learn,54384.99999046326,Wed Sep 24 2025 18:44:21 GMT-0500 (Central Daylight Time),146533.20000000298,A,fire,I,e,123,2,849.4000000059605,145683.79999999702,8060,WL,B,5.0
1,5.764999866485596,learn,54235.000133514404,Wed Sep 24 2025 18:44:21 GMT-0500 (Central Daylight Time),146682.90000000596,A,fireenter,I,enter,134,2,999.1000000089407,145683.79999999702,8060,WL,B,5.0
1,6.29800009727478,learn,53701.99990272522,Wed Sep 24 2025 18:44:21 GMT-0500 (Central Daylight Time),147216.20000000298,A,a,I,a,512,2,532.7999999970198,146683.40000000596,8060,WL,B,6.0
1,6.497999906539917,learn,53502.00009346008,Wed Sep 24 2025 18:44:21 GMT-0500 (Central Daylight Time),147416.10000000894,A,ar,I,r,186,2,732.7000000029802,146683.40000000596,8060,WL,B,6.0
1,6.681999921798706,learn,53318.000078201294,Wed Sep 24 2025 18:44:21 GMT-0500 (Central Daylight Time),147599.5,A,arm,I,m,163,2,916.0999999940395,146683.40000000596,8060,WL,B,6.0
1,6.898000001907349,learn,53101.99999809265,Wed Sep 24 2025 18:44:21 GMT-0500 (Central Daylight Time),147816.0,A,armenter,I,enter,204,2,1132.5999999940395,146683.40000000596,8060,WL,B,6.0
1,7.2149999141693115,learn,52785.00008583069,Wed Sep 24 2025 18:44:21 GMT-0500 (Central Daylight Time),148132.5,A,s,I,s,307,2,315.8999999910593,147816.60000000894,8060,WL,B,7.0
1,7.3480000495910645,learn,52651.999950408936,Wed Sep 24 2025 18:44:21 GMT-0500 (Central Daylight Time),148266.10000000894,A,sk,I,k,125,2,449.5,147816.60000000894,8060,WL,B,7.0
1,7.5309998989105225,learn,52469.00010108948,Wed Sep 24 2025 18:44:21 GMT-0500 (Central Daylight Time),148449.0,A,ski,I,i,177,2,632.3999999910593,147816.60000000894,8060,WL,B,7.0
1,7.747999906539917,learn,52252.00009346008,Wed Sep 24 2025 18:44:21 GMT-0500 (Central Daylight Time),148665.70000000298,A,skin,I,n,209,2,849.0999999940395,147816.60000000894,8060,WL,B,7.0
1,7.997999906539917,learn,52002.00009346008,Wed Sep 24 2025 18:44:21 GMT-0500 (Central Daylight Time),148915.60000000894,A,skinenter,I,enter,234,2,1099.0,147816.60000000894,8060,WL,B,7.0
1,10.629999876022339,learn,49370.00012397766,Wed Sep 24 2025 18:44:21 GMT-0500 (Central Daylight Time),151548.29999999702,A,s,I,s,2615,2,2632.3999999910593,148915.90000000596,8060,WL,B,8.0
1,10.77999997138977,learn,49220.00002861023,Wed Sep 24 2025 18:44:21 GMT-0500 (Central Daylight Time),151698.20000000298,A,st,I,t,134,2,2782.2999999970198,148915.90000000596,8060,WL,B,8.0
1,10.96399998664856,learn,49036.00001335144,Wed Sep 24 2025 18:44:21 GMT-0500 (Central Daylight Time),151881.60000000894,A,str,I,r,177,2,2965.7000000029802,148915.90000000596,8060,WL,B,8.0
1,11.11299991607666,learn,48887.00008392334,Wed Sep 24 2025 18:44:21 GMT-0500 (Central Daylight Time),152031.40000000596,A,stre,I,e,138,2,3115.5,148915.90000000596,8060,WL,B,8.0
1,11.263000011444092,learn,48736.99998855591,Wed Sep 24 2025 18:44:21 GMT-0500 (Central Daylight Time),152181.40000000596,A,stree,I,e,132,2,3265.5,148915.90000000596,8060,WL,B,8.0
1,11.44700002670288,learn,48552.99997329712,Wed Sep 24 2025 18:44:21 GMT-0500 (Central Daylight Time),152364.70000000298,A,street,I,t,174,2,3448.7999999970198,148915.90000000596,8060,WL,B,8.0
1,11.812999963760376,learn,48187.000036239624,Wed Sep 24 2025 18:44:21 GMT-0500 (Central Daylight Time),152731.20000000298,A,streetenter,I,enter,359,2,3815.2999999970198,148915.90000000596,8060,WL,B,8.0
1,18.777999877929688,learn,41222.00012207031,Wed Sep 24 2025 18:44:21 GMT-0500 (Central Daylight Time),159695.70000000298,A,l,I,l,6952,2,6964.20000000298,152731.5,8060,WL,B,9.0
1,18.82800006866455,learn,41171.99993133545,Wed Sep 24 2025 18:44:21 GMT-0500 (Central Daylight Time),159745.5,A,la,I,a,35,2,7014.0,152731.5,8060,WL,B,9.0
1,18.99399995803833,learn,41006.00004196167,Wed Sep 24 2025 18:44:21 GMT-0500 (Central Daylight Time),159912.20000000298,A,lak,I,k,146,2,7180.70000000298,152731.5,8060,WL,B,9.0
1,19.24399995803833,learn,40756.00004196167,Wed Sep 24 2025 18:44:21 GMT-0500 (Central Daylight Time),160162.20000000298,A,lakenter,I,enter,235,2,7430.70000000298,152731.5,8060,WL,B,9.0
1,20.14400005340576,learn,39855.99994659424,Wed Sep 24 2025 18:44:21 GMT-0500 (Central Daylight Time),161062.0,A,l,I,l,889,2,899.5,160162.5,8060,WL,B,10.0
1,20.26099991798401,learn,39739.00008201599,Wed Sep 24 2025 18:44:21 GMT-0500 (Central Daylight Time),161178.5,A,la,I,a,101,2,1016.0,160162.5,8060,WL,B,10.0
1,20.427000045776367,learn,39572.99995422363,Wed Sep 24 2025 18:44:21 GMT-0500 (Central Daylight Time),161345.0,A,lak,I,k,152,2,1182.5,160162.5,8060,WL,B,10.0
1,20.57699990272522,learn,39423.00009727478,Wed Sep 24 2025 18:44:21 GMT-0500 (Central Daylight Time),161495.29999999702,A,lake,I,e,130,2,1332.7999999970198,160162.5,8060,WL,B,10.0
1,20.859999895095825,learn,39140.000104904175,Wed Sep 24 2025 18:44:21 GMT-0500 (Central Daylight Time),161778.20000000298,A,lakeenter,I,enter,268,2,1615.7000000029802,160162.5,8060,WL,B,10.0
1,25.45899987220764,learn,34541.00012779236,Wed Sep 24 2025 18:44:21 GMT-0500 (Central Daylight Time),166377.20000000298,A,s,I,s,4586,2,4598.70000000298,161778.5,8060,WL,B,11.0
1,25.723000049591064,learn,34276.999950408936,Wed Sep 24 2025 18:44:21 GMT-0500 (Central Daylight Time),166641.29999999702,A,sa,I,a,259,2,4862.79999999702,161778.5,8060,WL,B,11.0
1,25.871000051498413,learn,34128.99994850159,Wed Sep 24 2025 18:44:21 GMT-0500 (Central Daylight Time),166788.60000000894,A,sar,I,r,142,2,5010.100000008941,161778.5,8060,WL,B,11.0
1,26.507999897003174,learn,33492.000102996826,Wed Sep 24 2025 18:44:21 GMT-0500 (Central Daylight Time),167426.40000000596,A,sa,I,backspace,629,2,5647.9000000059605,161778.5,8060,WL,B,11.0
1,26.691999912261963,learn,33308.00008773804,Wed Sep 24 2025 18:44:21 GMT-0500 (Central Daylight Time),167609.79999999702,A,s,I,backspace,169,2,5831.29999999702,161778.5,8060,WL,B,11.0
1,26.858999967575073,learn,33141.00003242493,Wed Sep 24 2025 18:44:21 GMT-0500 (Central Daylight Time),167776.5,A,st,I,t,146,2,5998.0,161778.5,8060,WL,B,11.0
1,26.991999864578247,learn,33008.00013542175,Wed Sep 24 2025 18:44:21 GMT-0500 (Central Daylight Time),167909.70000000298,A,sta,I,a,123,2,6131.20000000298,161778.5,8060,WL,B,11.0
1,27.158999919891357,learn,32841.00008010864,Wed Sep 24 2025 18:44:21 GMT-0500 (Central Daylight Time),168076.60000000894,A,star,I,r,159,2,6298.100000008941,161778.5,8060,WL,B,11.0
1,27.441999912261963,learn,32558.000087738037,Wed Sep 24 2025 18:44:21 GMT-0500 (Central Daylight Time),168359.79999999702,A,starenter,I,enter,278,2,6581.29999999702,161778.5,8060,WL,B,11.0
1,28.907999992370605,learn,31092.000007629395,Wed Sep 24 2025 18:44:21 GMT-0500 (Central Daylight Time),169826.0,A,p,I,p,1460,2,1466.0,168360.0,8060,WL,B,12.0
1,29.058000087738037,learn,30941.999912261963,Wed Sep 24 2025 18:44:21 GMT-0500 (Central Daylight Time),169975.79999999702,A,pu,I,u,145,2,1615.7999999970198,168360.0,8060,WL,B,12.0
1,29.257999897003174,learn,30742.000102996826,Wed Sep 24 2025 18:44:21 GMT-0500 (Central Daylight Time),170175.79999999702,A,pup,I,p,196,2,1815.7999999970198,168360.0,8060,WL,B,12.0
1,29.473999977111816,learn,30526.000022888184,Wed Sep 24 2025 18:44:21 GMT-0500 (Central Daylight Time),170392.29999999702,A,pupi,I,i,203,2,2032.2999999970198,168360.0,8060,WL,B,12.0
1,29.657999992370605,learn,30342.000007629395,Wed Sep 24 2025 18:44:21 GMT-0500 (Central Daylight Time),170575.70000000298,A,pupil,I,l,178,2,2215.7000000029802,168360.0,8060,WL,B,12.0
1,29.891000032424927,learn,30108.999967575073,Wed Sep 24 2025 18:44:21 GMT-0500 (Central Daylight Time),170808.90000000596,A,pupilenter,I,enter,220,2,2448.9000000059605,168360.0,8060,WL,B,12.0
1,45.55299997329712,learn,14447.00002670288,Wed Sep 24 2025 18:44:21 GMT-0500 (Central Daylight Time),186470.90000000596,A,l,I,l,15651,2,15661.60000000894,170809.29999999702,8060,WL,B,13.0
1,46.01900005340576,learn,13980.999946594238,Wed Sep 24 2025 18:44:21 GMT-0500 (Central Daylight Time),186937.20000000298,A,,I,backspace,452,2,16127.90000000596,170809.29999999702,8060,WL,B,13.0
1,60.014999866485596,learn,-14.999866485595703,Wed Sep 24 2025 18:44:21 GMT-0500 (Central Daylight Time),200932.79999999702,A,None,I,None,13992,2,30123.5,170809.29999999702,8060,WL,B,13.0
2,0.8829998970031738,learn,59117.000102996826,Wed Sep 24 2025 18:44:21 GMT-0500 (Central Daylight Time),268495.0,A,c,I,c,864,2,883.0,267612.0,8060,WL,B,1.0
2,1.0169999599456787,learn,58983.00004005432,Wed Sep 24 2025 18:44:21 GMT-0500 (Central Daylight Time),268628.10000000894,A,cl,I,l,115,2,1016.1000000089407,267612.0,8060,WL,B,1.0
2,1.1999998092651367,learn,58800.00019073486,Wed Sep 24 2025 18:44:21 GMT-0500 (Central Daylight Time),268811.5,A,clo,I,o,175,2,1199.5,267612.0,8060,WL,B,1.0
2,1.3829998970031738,learn,58617.000102996826,Wed Sep 24 2025 18:44:21 GMT-0500 (Central Daylight Time),268994.799999997,A,cloc,I,c,168,2,1382.7999999970198,267612.0,8060,WL,B,1.0
2,1.5,learn,58500.0,Wed Sep 24 2025 18:44:21 GMT-0500 (Central Daylight Time),269111.299999997,A,clock,I,k,104,2,1499.2999999970198,267612.0,8060,WL,B,1.0
2,1.7659997940063477,learn,58234.00020599365,Wed Sep 24 2025 18:44:21 GMT-0500 (Central Daylight Time),269377.90000000596,A,clockenter,I,enter,251,2,1765.9000000059605,267612.0,8060,WL,B,1.0
2,2.1499998569488525,learn,57850.00014305115,Wed Sep 24 2025 18:44:21 GMT-0500 (Central Daylight Time),269761.299999997,A,c,I,c,370,2,383.09999999403954,269378.200000003,8060,WL,B,2.0
2,2.3489999771118164,learn,57651.00002288818,Wed Sep 24 2025 18:44:21 GMT-0500 (Central Daylight Time),269961.0,A,ci,I,i,193,2,582.7999999970198,269378.200000003,8060,WL,B,2.0
2,2.548999786376953,learn,57451.00021362305,Wed Sep 24 2025 18:44:21 GMT-0500 (Central Daylight Time),270161.0,A,cit,I,t,187,2,782.7999999970198,269378.200000003,8060,WL,B,2.0
2,2.7159998416900635,learn,57284.00015830994,Wed Sep 24 2025 18:44:21 GMT-0500 (Central Daylight Time),270327.40000000596,A,city,I,y,146,2,949.2000000029802,269378.200000003,8060,WL,B,2.0
2,2.934000015258789,learn,57065.99998474121,Wed Sep 24 2025 18:44:21 GMT-0500 (Central Daylight Time),270545.299999997,A,cityenter,I,enter,197,2,1167.0999999940395,269378.200000003,8060,WL,B,2.0
2,3.1659998893737793,learn,56834.00011062622,Wed Sep 24 2025 18:44:21 GMT-0500 (Central Daylight Time),270777.5,A,s,I,s,225,2,231.8999999910593,270545.60000000894,8060,WL,B,3.0
2,3.2829999923706055,learn,56717.000007629395,Wed Sep 24 2025 18:44:21 GMT-0500 (Central Daylight Time),270894.200000003,A,st,I,t,107,2,348.59999999403954,270545.60000000894,8060,WL,B,3.0
2,3.498999834060669,learn,56501.00016593933,Wed Sep 24 2025 18:44:21 GMT-0500 (Central Daylight Time),271110.700000003,A,str,I,r,205,2,565.0999999940395,270545.60000000894,8060,WL,B,3.0
2,3.5820000171661377,learn,56417.99998283386,Wed Sep 24 2025 18:44:21 GMT-0500 (Central Daylight Time),271193.799999997,A,stre,I,e,69,2,648.1999999880791,270545.60000000894,8060,WL,B,3.0
2,3.7819998264312744,learn,56218.000173568726,Wed Sep 24 2025 18:44:21 GMT-0500 (Central Daylight Time),271393.90000000596,A,stree,I,e,194,2,848.2999999970198,270545.60000000894,8060,WL,B,3.0
2,3.9659998416900635,learn,56034.00015830994,Wed Sep 24 2025 18:44:21 GMT-0500 (Central Daylight Time),271577.200000003,A,street,I,t,169,2,1031.5999999940395,270545.60000000894,8060,WL,B,3.0
2,4.082000017166138,learn,55917.99998283386,Wed Sep 24 2025 18:44:21 GMT-0500 (Central Daylight Time),271693.799999997,A,streetenter,I,enter,106,2,1148.199999988079,270545.60000000894,8060,WL,B,3.0
2,4.281999826431274,learn,55718.000173568726,Wed Sep 24 2025 18:44:21 GMT-0500 (Central Daylight Time),271893.700000003,A,g,I,g,180,2,199.40000000596046,271694.299999997,8060,WL,B,4.0
2,4.4659998416900635,learn,55534.00015830994,Wed Sep 24 2025 18:44:21 GMT-0500 (Central Daylight Time),272077.200000003,A,gr,I,r,165,2,382.90000000596046,271694.299999997,8060,WL,B,4.0
2,4.56499981880188,learn,55435.00018119812,Wed Sep 24 2025 18:44:21 GMT-0500 (Central Daylight Time),272176.799999997,A,gra,I,a,86,2,482.5,271694.299999997,8060,WL,B,4.0
2,4.798999786376953,learn,55201.00021362305,Wed Sep 24 2025 18:44:21 GMT-0500 (Central Daylight Time),272410.299999997,A,gras,I,s,226,2,716.0,271694.299999997,8060,WL,B,4.0
2,4.98199987411499,learn,55018.00012588501,Wed Sep 24 2025 18:44:21 GMT-0500 (Central Daylight Time),272593.299999997,A,grass,I,s,177,2,899.0,271694.299999997,8060,WL,B,4.0
2,5.248999834060669,learn,54751.00016593933,Wed Sep 24 2025 18:44:21 GMT-0500 (Central Daylight Time),272860.40000000596,A,grassenter,I,enter,250,2,1166.1000000089407,271694.299999997,8060,WL,B,4.0
2,5.56499981880188,learn,54435.00018119812,Wed Sep 24 2025 18:44:21 GMT-0500 (Central Daylight Time),273176.40000000596,A,p,I,p,311,2,315.6000000089407,272860.799999997,8060,WL,B,5.0
2,5.765999794006348,learn,54234.00020599365,Wed Sep 24 2025 18:44:21 GMT-0500 (Central Daylight Time),273377.200000003,A,pu,I,u,187,2,516.4000000059605,272860.799999997,8060,WL,B,5.0
2,6.031999826431274,learn,53968.000173568726,Wed Sep 24 2025 18:44:21 GMT-0500 (Central Daylight Time),273643.200000003,A,pup,I,p,258,2,782.4000000059605,272860.799999997,8060,WL,B,5.0
2,6.264999866485596,learn,53735.000133514404,Wed Sep 24 2025 18:44:21 GMT-0500 (Central Daylight Time),273876.60000000894,A,pupi,I,i,216,2,1015.8000000119209,272860.799999997,8060,WL,B,5.0
2,6.480999946594238,learn,53519.00005340576,Wed Sep 24 2025 18:44:21 GMT-0500 (Central Daylight Time),274093.10000000894,A,pupil,I,l,199,2,1232.300000011921,272860.799999997,8060,WL,B,5.0
2,6.680999994277954,learn,53319.000005722046,Wed Sep 24 2025 18:44:21 GMT-0500 (Central Daylight Time),274292.90000000596,A,pupilenter,I,enter,182,2,1432.1000000089407,272860.799999997,8060,WL,B,5.0
2,6.914999961853027,learn,53085.00003814697,Wed Sep 24 2025 18:44:21 GMT-0500 (Central Daylight Time),274526.700000003,A,s,I,s,215,2,233.5,274293.200000003,8060,WL,B,6.0
2,7.080999851226807,learn,52919.00014877319,Wed Sep 24 2025 18:44:21 GMT-0500 (Central Daylight Time),274692.60000000894,A,st,I,t,157,2,399.40000000596046,274293.200000003,8060,WL,B,6.0
2,7.247999906539917,learn,52752.00009346008,Wed Sep 24 2025 18:44:21 GMT-0500 (Central Daylight Time),274859.60000000894,A,sta,I,a,159,2,566.4000000059605,274293.200000003,8060,WL,B,6.0
2,7.398000001907349,learn,52601.99999809265,Wed Sep 24 2025 18:44:21 GMT-0500 (Central Daylight Time),275009.60000000894,A,star,I,r,136,2,716.4000000059605,274293.200000003,8060,WL,B,6.0
2,7.747999906539917,learn,52252.00009346008,Wed Sep 24 2025 18:44:21 GMT-0500 (Central Daylight Time),275359.5,A,starenter,I,enter,329,2,1066.2999999970198,274293.200000003,8060,WL,B,6.0
2,8.080999851226807,learn,51919.00014877319,Wed Sep 24 2025 18:44:21 GMT-0500 (Central Daylight Time),275692.799999997,A,p,I,p,324,2,333.0,275359.799999997,8060,WL,B,7.0
2,8.297999858856201,learn,51702.0001411438,Wed Sep 24 2025 18:44:21 GMT-0500 (Central Daylight Time),275909.299999997,A,pi,I,i,197,2,549.5,275359.799999997,8060,WL,B,7.0
2,8.446999788284302,learn,51553.0002117157,Wed Sep 24 2025 18:44:21 GMT-0500 (Central Daylight Time),276059.10000000894,A,pip,I,p,142,2,699.3000000119209,275359.799999997,8060,WL,B,7.0
2,8.663999795913696,learn,51336.000204086304,Wed Sep 24 2025 18:44:21 GMT-0500 (Central Daylight Time),276275.700000003,A,pipe,I,e,200,2,915.9000000059605,275359.799999997,8060,WL,B,7.0
2,8.930999994277954,learn,51069.000005722046,Wed Sep 24 2025 18:44:21 GMT-0500 (Central Daylight Time),276542.200000003,A,pipeenter,I,enter,248,2,1182.4000000059605,275359.799999997,8060,WL,B,7.0
2,10.496999979019165,learn,49503.000020980835,Wed Sep 24 2025 18:44:21 GMT-0500 (Central Daylight Time),278108.5,A,c,I,c,1548,2,1565.8999999910593,276542.60000000894,8060,WL,B,8.0
2,10.563999891281128,learn,49436.00010871887,Wed Sep 24 2025 18:44:21 GMT-0500 (Central Daylight Time),278175.40000000596,A,ca,I,a,55,2,1632.7999999970198,276542.60000000894,8060,WL,B,8.0
2,10.714999914169312,learn,49285.00008583069,Wed Sep 24 2025 18:44:21 GMT-0500 (Central Daylight Time),278326.40000000596,A,cab,I,b,140,2,1783.7999999970198,276542.60000000894,8060,WL,B,8.0
2,10.846999883651733,learn,49153.00011634827,Wed Sep 24 2025 18:44:21 GMT-0500 (Central Daylight Time),278458.299999997,A,cabi,I,i,125,2,1915.699999988079,276542.60000000894,8060,WL,B,8.0
2,10.96399998664856,learn,49036.00001335144,Wed Sep 24 2025 18:44:21 GMT-0500 (Central Daylight Time),278575.299999997,A,cabin,I,n,96,2,2032.699999988079,276542.60000000894,8060,WL,B,8.0
2,11.329999923706055,learn,48670.000076293945,Wed Sep 24 2025 18:44:21 GMT-0500 (Central Daylight Time),278941.5,A,cabinenter,I,enter,348,2,2398.8999999910593,276542.60000000894,8060,WL,B,8.0
2,11.662999868392944,learn,48337.000131607056,Wed Sep 24 2025 18:44:21 GMT-0500 (Central Daylight Time),279274.90000000596,A,l,I,l,318,2,333.0,278941.90000000596,8060,WL,B,9.0
2,11.746999979019165,learn,48253.000020980835,Wed Sep 24 2025 18:44:21 GMT-0500 (Central Daylight Time),279358.200000003,A,la,I,a,73,2,416.29999999701977,278941.90000000596,8060,WL,B,9.0
2,11.895999908447266,learn,48104.000091552734,Wed Sep 24 2025 18:44:21 GMT-0500 (Central Daylight Time),279508.10000000894,A,lak,I,k,133,2,566.2000000029802,278941.90000000596,8060,WL,B,9.0
2,11.995999813079834,learn,48004.000186920166,Wed Sep 24 2025 18:44:21 GMT-0500 (Central Daylight Time),279607.90000000596,A,lake,I,e,87,2,666.0,278941.90000000596,8060,WL,B,9.0
2,12.245999813079834,learn,47754.000186920166,Wed Sep 24 2025 18:44:21 GMT-0500 (Central Daylight Time),279857.799999997,A,lakeenter,I,enter,235,2,915.8999999910593,278941.90000000596,8060,WL,B,9.0
2,13.19599986076355,learn,46804.00013923645,Wed Sep 24 2025 18:44:21 GMT-0500 (Central Daylight Time),280807.90000000596,A,a,I,a,938,2,949.7999999970198,279858.10000000894,8060,WL,B,10.0
2,13.36299991607666,learn,46637.00008392334,Wed Sep 24 2025 18:44:21 GMT-0500 (Central Daylight Time),280974.299999997,A,ar,I,r,155,2,1116.199999988079,279858.10000000894,8060,WL,B,10.0
2,13.495999813079834,learn,46504.000186920166,Wed Sep 24 2025 18:44:21 GMT-0500 (Central Daylight Time),281107.5,A,arm,I,m,125,2,1249.3999999910593,279858.10000000894,8060,WL,B,10.0
2,13.728999853134155,learn,46271.000146865845,Wed Sep 24 2025 18:44:21 GMT-0500 (Central Daylight Time),281340.90000000596,A,armenter,I,enter,215,2,1482.7999999970198,279858.10000000894,8060,WL,B,10.0
2,13.995999813079834,learn,46004.000186920166,Wed Sep 24 2025 18:44:21 GMT-0500 (Central Daylight Time),281607.40000000596,A,s,I,s,255,2,266.1000000089407,281341.299999997,8060,WL,B,11.0
2,14.11299991607666,learn,45887.00008392334,Wed Sep 24 2025 18:44:21 GMT-0500 (Central Daylight Time),281724.299999997,A,sk,I,k,99,2,383.0,281341.299999997,8060,WL,B,11.0
2,14.328999996185303,learn,45671.0000038147,Wed Sep 24 2025 18:44:21 GMT-0500 (Central Daylight Time),281940.799999997,A,ski,I,i,199,2,599.5,281341.299999997,8060,WL,B,11.0
2,14.495999813079834,learn,45504.000186920166,Wed Sep 24 2025 18:44:21 GMT-0500 (Central Daylight Time),282107.5,A,skin,I,n,151,2,766.2000000029802,281341.299999997,8060,WL,B,11.0
2,14.794999837875366,learn,45205.000162124634,Wed Sep 24 2025 18:44:21 GMT-0500 (Central Daylight Time),282407.0,A,skinenter,I,enter,280,2,1065.7000000029802,281341.299999997,8060,WL,B,11.0
2,15.09499979019165,learn,44905.00020980835,Wed Sep 24 2025 18:44:21 GMT-0500 (Central Daylight Time),282707.10000000894,A,w,I,w,285,2,299.90000000596046,282407.200000003,8060,WL,B,12.0
2,15.211999893188477,learn,44788.00010681152,Wed Sep 24 2025 18:44:21 GMT-0500 (Central Daylight Time),282823.60000000894,A,wi,I,i,104,2,416.40000000596046,282407.200000003,8060,WL,B,12.0
2,15.428999900817871,learn,44571.00009918213,Wed Sep 24 2025 18:44:21 GMT-0500 (Central Daylight Time),283040.200000003,A,wif,I,f,212,2,633.0,282407.200000003,8060,WL,B,12.0
2,15.628999948501587,learn,44371.00005149841,Wed Sep 24 2025 18:44:21 GMT-0500 (Central Daylight Time),283240.10000000894,A,wife,I,e,180,2,832.9000000059605,282407.200000003,8060,WL,B,12.0
2,15.944999933242798,learn,44055.0000667572,Wed Sep 24 2025 18:44:21 GMT-0500 (Central Daylight Time),283556.799999997,A,wifeenter,I,enter,307,2,1149.5999999940395,282407.200000003,8060,WL,B,12.0
2,16.26099991798401,learn,43739.00008201599,Wed Sep 24 2025 18:44:21 GMT-0500 (Central Daylight Time),283873.0,A,s,I,s,311,2,315.8999999910593,283557.10000000894,8060,WL,B,13.0
2,16.411999940872192,learn,43588.00005912781,Wed Sep 24 2025 18:44:21 GMT-0500 (Central Daylight Time),284023.40000000596,A,so,I,o,130,2,466.29999999701977,283557.10000000894,8060,WL,B,13.0
2,16.59599995613098,learn,43404.00004386902,Wed Sep 24 2025 18:44:21 GMT-0500 (Central Daylight Time),284207.700000003,A,soo,I,o,180,2,650.5999999940395,283557.10000000894,8060,WL,B,13.0
2,17.34499979019165,learn,42655.00020980835,Wed Sep 24 2025 18:44:21 GMT-0500 (Central Daylight Time),284956.200000003,A,so,I,backspace,740,2,1399.0999999940395,283557.10000000894,8060,WL,B,13.0
2,17.527999877929688,learn,42472.00012207031,Wed Sep 24 2025 18:44:21 GMT-0500 (Central Daylight Time),285139.799999997,A,s,I,backspace,167,2,1582.699999988079,283557.10000000894,8060,WL,B,13.0
2,17.694999933242798,learn,42305.0000667572,Wed Sep 24 2025 18:44:21 GMT-0500 (Central Daylight Time),285306.5,A,,I,backspace,152,2,1749.3999999910593,283557.10000000894,8060,WL,B,13.0
2,17.810999870300293,learn,42189.00012969971,Wed Sep 24 2025 18:44:21 GMT-0500 (Central Daylight Time),285422.90000000596,A,d,I,d,105,2,1865.7999999970198,283557.10000000894,8060,WL,B,13.0
2,18.01099991798401,learn,41989.00008201599,Wed Sep 24 2025 18:44:21 GMT-0500 (Central Daylight Time),285623.10000000894,A,do,I,o,180,2,2066.0,283557.10000000894,8060,WL,B,13.0
2,18.17799997329712,learn,41822.00002670288,Wed Sep 24 2025 18:44:21 GMT-0500 (Central Daylight Time),285789.60000000894,A,doo,I,o,149,2,2232.5,283557.10000000894,8060,WL,B,13.0
2,18.310999870300293,learn,41689.00012969971,Wed Sep 24 2025 18:44:21 GMT-0500 (Central Daylight Time),285922.90000000596,A,door,I,r,118,2,2365.7999999970198,283557.10000000894,8060,WL,B,13.0
2,18.57799983024597,learn,41422.00016975403,Wed Sep 24 2025 18:44:21 GMT-0500 (Central Daylight Time),286189.299999997,A,doorenter,I,enter,256,2,2632.199999988079,283557.10000000894,8060,WL,B,13.0
2,18.8439998626709,learn,41156.0001373291,Wed Sep 24 2025 18:44:21 GMT-0500 (Central Daylight Time),286456.0,A,w,I,w,254,2,266.20000000298023,286189.799999997,8060,WL,B,14.0
2,18.961999893188477,learn,41038.00010681152,Wed Sep 24 2025 18:44:21 GMT-0500 (Central Daylight Time),286573.90000000596,A,wi,I,i,108,2,384.1000000089407,286189.799999997,8060,WL,B,14.0
2,19.143999814987183,learn,40856.00018501282,Wed Sep 24 2025 18:44:21 GMT-0500 (Central Daylight Time),286755.700000003,A,win,I,n,174,2,565.9000000059605,286189.799999997,8060,WL,B,14.0
2,19.310999870300293,learn,40689.00012969971,Wed Sep 24 2025 18:44:21 GMT-0500 (Central Daylight Time),286922.60000000894,A,wind,I,d,152,2,732.8000000119209,286189.799999997,8060,WL,B,14.0
2,19.66100001335144,learn,40338.99998664856,Wed Sep 24 2025 18:44:21 GMT-0500 (Central Daylight Time),287272.40000000596,A,windo,I,o,336,2,1082.6000000089407,286189.799999997,8060,WL,B,14.0
2,19.776999950408936,learn,40223.000049591064,Wed Sep 24 2025 18:44:21 GMT-0500 (Central Daylight Time),287389.10000000894,A,window,I,w,107,2,1199.300000011921,286189.799999997,8060,WL,B,14.0
2,20.259999990463257,learn,39740.00000953674,Wed Sep 24 2025 18:44:21 GMT-0500 (Central Daylight Time),287872.10000000894,A,windowenter,I,enter,471,2,1682.300000011921,286189.799999997,8060,WL,B,14.0
2,23.408999919891357,learn,36591.00008010864,Wed Sep 24 2025 18:44:21 GMT-0500 (Central Daylight Time),291021.10000000894,A,f,I,f,3139,2,3148.6000000089407,287872.5,8060,WL,B,15.0
2,23.658999919891357,learn,36341.00008010864,Wed Sep 24 2025 18:44:21 GMT-0500 (Central Daylight Time),291270.90000000596,A,fi,I,i,238,2,3398.4000000059605,287872.5,8060,WL,B,15.0
2,23.758999824523926,learn,36241.000175476074,Wed Sep 24 2025 18:44:21 GMT-0500 (Central Daylight Time),291370.90000000596,A,fir,I,r,85,2,3498.4000000059605,287872.5,8060,WL,B,15.0
2,23.89299988746643,learn,36107.00011253357,Wed Sep 24 2025 18:44:21 GMT-0500 (Central Daylight Time),291504.60000000894,A,fire,I,e,112,2,3632.1000000089407,287872.5,8060,WL,B,15.0
2,24.325999975204468,learn,35674.00002479553,Wed Sep 24 2025 18:44:21 GMT-0500 (Central Daylight Time),291937.299999997,A,fireenter,I,enter,427,2,4064.7999999970198,287872.5,8060,WL,B,15.0
3,0.38300013542175293,learn,59616.99986457825,Wed Sep 24 2025 18:44:21 GMT-0500 (Central Daylight Time),357583.299999997,A,c,I,c,372,2,382.69999998807907,357200.60000000894,8060,WL,B,1.0
3,0.5,learn,59500.0,Wed Sep 24 2025 18:44:21 GMT-0500 (Central Daylight Time),357700.200000003,A,cl,I,l,107,2,499.59999999403954,357200.60000000894,8060,WL,B,1.0
3,0.6840000152587891,learn,59315.99998474121,Wed Sep 24 2025 18:44:21 GMT-0500 (Central Daylight Time),357883.5,A,clo,I,o,175,2,682.8999999910593,357200.60000000894,8060,WL,B,1.0
3,0.817000150680542,learn,59182.99984931946,Wed Sep 24 2025 18:44:21 GMT-0500 (Central Daylight Time),358016.700000003,A,cloc,I,c,120,2,816.0999999940395,357200.60000000894,8060,WL,B,1.0
3,0.9500000476837158,learn,59049.999952316284,Wed Sep 24 2025 18:44:21 GMT-0500 (Central Daylight Time),358150.10000000894,A,clock,I,k,115,2,949.5,357200.60000000894,8060,WL,B,1.0
3,1.2000000476837158,learn,58799.999952316284,Wed Sep 24 2025 18:44:21 GMT-0500 (Central Daylight Time),358399.799999997,A,clockenter,I,enter,244,2,1199.199999988079,357200.60000000894,8060,WL,B,1.0
3,1.4830000400543213,learn,58516.99995994568,Wed Sep 24 2025 18:44:21 GMT-0500 (Central Daylight Time),358683.200000003,A,s,I,s,268,2,283.09999999403954,358400.10000000894,8060,WL,B,2.0
3,1.633000135421753,learn,58366.99986457825,Wed Sep 24 2025 18:44:21 GMT-0500 (Central Daylight Time),358833.0,A,st,I,t,144,2,432.8999999910593,358400.10000000894,8060,WL,B,2.0
3,1.8330001831054688,learn,58166.99981689453,Wed Sep 24 2025 18:44:21 GMT-0500 (Central Daylight Time),359032.799999997,A,str,I,r,195,2,632.6999999880791,358400.10000000894,8060,WL,B,2.0
3,1.9500000476837158,learn,58049.999952316284,Wed Sep 24 2025 18:44:21 GMT-0500 (Central Daylight Time),359149.799999997,A,stre,I,e,99,2,749.6999999880791,358400.10000000894,8060,WL,B,2.0
3,2.133000135421753,learn,57866.99986457825,Wed Sep 24 2025 18:44:21 GMT-0500 (Central Daylight Time),359332.90000000596,A,stree,I,e,173,2,932.7999999970198,358400.10000000894,8060,WL,B,2.0
3,2.315999984741211,learn,57684.00001525879,Wed Sep 24 2025 18:44:21 GMT-0500 (Central Daylight Time),359516.299999997,A,street,I,t,174,2,1116.199999988079,358400.10000000894,8060,WL,B,2.0
3,2.433000087738037,learn,57566.99991226196,Wed Sep 24 2025 18:44:21 GMT-0500 (Central Daylight Time),359632.700000003,A,streetenter,I,enter,102,2,1232.5999999940395,358400.10000000894,8060,WL,B,2.0
3,2.633000135421753,learn,57366.99986457825,Wed Sep 24 2025 18:44:21 GMT-0500 (Central Daylight Time),359832.60000000894,A,c,I,c,194,2,199.70000000298023,359632.90000000596,8060,WL,B,3.0
3,2.7660000324249268,learn,57233.99996757507,Wed Sep 24 2025 18:44:21 GMT-0500 (Central Daylight Time),359966.200000003,A,ci,I,i,115,2,333.29999999701977,359632.90000000596,8060,WL,B,3.0
3,2.9160001277923584,learn,57083.99987220764,Wed Sep 24 2025 18:44:21 GMT-0500 (Central Daylight Time),360116.299999997,A,cit,I,t,133,2,483.3999999910593,359632.90000000596,8060,WL,B,3.0
3,3.065999984741211,learn,56934.00001525879,Wed Sep 24 2025 18:44:21 GMT-0500 (Central Daylight Time),360266.200000003,A,city,I,y,134,2,633.2999999970198,359632.90000000596,8060,WL,B,3.0
3,3.2660000324249268,learn,56733.99996757507,Wed Sep 24 2025 18:44:21 GMT-0500 (Central Daylight Time),360465.90000000596,A,cityenter,I,enter,184,2,833.0,359632.90000000596,8060,WL,B,3.0
3,3.5820000171661377,learn,56417.99998283386,Wed Sep 24 2025 18:44:21 GMT-0500 (Central Daylight Time),360782.60000000894,A,g,I,g,297,2,316.30000001192093,360466.299999997,8060,WL,B,4.0
3,3.7820000648498535,learn,56217.99993515015,Wed Sep 24 2025 18:44:21 GMT-0500 (Central Daylight Time),360982.60000000894,A,gr,I,r,181,2,516.3000000119209,360466.299999997,8060,WL,B,4.0
3,3.8320000171661377,learn,56167.99998283386,Wed Sep 24 2025 18:44:21 GMT-0500 (Central Daylight Time),361032.10000000894,A,gra,I,a,44,2,565.8000000119209,360466.299999997,8060,WL,B,4.0
3,4.0320000648498535,learn,55967.99993515015,Wed Sep 24 2025 18:44:21 GMT-0500 (Central Daylight Time),361232.40000000596,A,gras,I,s,187,2,766.1000000089407,360466.299999997,8060,WL,B,4.0
3,4.182000160217285,learn,55817.999839782715,Wed Sep 24 2025 18:44:21 GMT-0500 (Central Daylight Time),361382.5,A,grass,I,s,139,2,916.2000000029802,360466.299999997,8060,WL,B,4.0
3,4.348999977111816,learn,55651.00002288818,Wed Sep 24 2025 18:44:21 GMT-0500 (Central Daylight Time),361549.0,A,grassenter,I,enter,157,2,1082.7000000029802,360466.299999997,8060,WL,B,4.0
3,4.5320000648498535,learn,55467.99993515015,Wed Sep 24 2025 18:44:21 GMT-0500 (Central Daylight Time),361732.10000000894,A,a,I,a,175,2,182.70000000298023,361549.40000000596,8060,WL,B,5.0
3,4.699000120162964,learn,55300.999879837036,Wed Sep 24 2025 18:44:21 GMT-0500 (Central Daylight Time),361899.10000000894,A,ar,I,r,152,2,349.70000000298023,361549.40000000596,8060,WL,B,5.0
3,4.8480000495910645,learn,55151.999950408936,Wed Sep 24 2025 18:44:21 GMT-0500 (Central Daylight Time),362048.700000003,A,arm,I,m,144,2,499.29999999701977,361549.40000000596,8060,WL,B,5.0
3,5.065000057220459,learn,54934.99994277954,Wed Sep 24 2025 18:44:21 GMT-0500 (Central Daylight Time),362265.10000000894,A,armenter,I,enter,211,2,715.7000000029802,361549.40000000596,8060,WL,B,5.0
3,5.265000104904175,learn,54734.999895095825,Wed Sep 24 2025 18:44:21 GMT-0500 (Central Daylight Time),362465.60000000894,A,s,I,s,187,2,200.20000000298023,362265.40000000596,8060,WL,B,6.0
3,5.432000160217285,learn,54567.999839782715,Wed Sep 24 2025 18:44:21 GMT-0500 (Central Daylight Time),362632.10000000894,A,sk,I,k,146,2,366.70000000298023,362265.40000000596,8060,WL,B,6.0
3,5.5980000495910645,learn,54401.999950408936,Wed Sep 24 2025 18:44:21 GMT-0500 (Central Daylight Time),362798.60000000894,A,ski,I,i,155,2,533.2000000029802,362265.40000000596,8060,WL,B,6.0
3,5.7820000648498535,learn,54217.99993515015,Wed Sep 24 2025 18:44:21 GMT-0500 (Central Daylight Time),362982.10000000894,A,skin,I,n,165,2,716.7000000029802,362265.40000000596,8060,WL,B,6.0
3,6.0980000495910645,learn,53901.999950408936,Wed Sep 24 2025 18:44:21 GMT-0500 (Central Daylight Time),363298.299999997,A,skinenter,I,enter,309,2,1032.8999999910593,362265.40000000596,8060,WL,B,6.0
3,6.4150002002716064,learn,53584.99979972839,Wed Sep 24 2025 18:44:21 GMT-0500 (Central Daylight Time),363615.0,A,p,I,p,296,2,316.29999999701977,363298.700000003,8060,WL,B,7.0
3,6.54800009727478,learn,53451.99990272522,Wed Sep 24 2025 18:44:21 GMT-0500 (Central Daylight Time),363748.299999997,A,pi,I,i,125,2,449.59999999403954,363298.700000003,8060,WL,B,7.0
3,6.715000152587891,learn,53284.99984741211,Wed Sep 24 2025 18:44:21 GMT-0500 (Central Daylight Time),363914.90000000596,A,pip,I,p,150,2,616.2000000029802,363298.700000003,8060,WL,B,7.0
3,6.998000144958496,learn,53001.999855041504,Wed Sep 24 2025 18:44:21 GMT-0500 (Central Daylight Time),364197.90000000596,A,pipe,I,e,264,2,899.2000000029802,363298.700000003,8060,WL,B,7.0
3,7.148000001907349,learn,52851.99999809265,Wed Sep 24 2025 18:44:21 GMT-0500 (Central Daylight Time),364348.299999997,A,pipeenter,I,enter,142,2,1049.5999999940395,363298.700000003,8060,WL,B,7.0
3,7.46399998664856,learn,52536.00001335144,Wed Sep 24 2025 18:44:21 GMT-0500 (Central Daylight Time),364664.60000000894,A,w,I,w,303,2,316.0,364348.60000000894,8060,WL,B,8.0
3,7.614000082015991,learn,52385.99991798401,Wed Sep 24 2025 18:44:21 GMT-0500 (Central Daylight Time),364814.5,A,wi,I,i,139,2,465.8999999910593,364348.60000000894,8060,WL,B,8.0
3,7.8480000495910645,learn,52151.999950408936,Wed Sep 24 2025 18:44:21 GMT-0500 (Central Daylight Time),365047.799999997,A,wif,I,f,212,2,699.1999999880791,364348.60000000894,8060,WL,B,8.0
3,8.064000129699707,learn,51935.99987030029,Wed Sep 24 2025 18:44:21 GMT-0500 (Central Daylight Time),365264.60000000894,A,wife,I,e,204,2,916.0,364348.60000000894,8060,WL,B,8.0
3,8.38100004196167,learn,51618.99995803833,Wed Sep 24 2025 18:44:21 GMT-0500 (Central Daylight Time),365581.0,A,wifeenter,I,enter,307,2,1232.3999999910593,364348.60000000894,8060,WL,B,8.0
3,10.812999963760376,learn,49187.000036239624,Wed Sep 24 2025 18:44:21 GMT-0500 (Central Daylight Time),368013.60000000894,A,c,I,c,2414,2,2432.2000000029802,365581.40000000596,8060,WL,B,9.0
3,10.880000114440918,learn,49119.99988555908,Wed Sep 24 2025 18:44:21 GMT-0500 (Central Daylight Time),368080.5,A,ca,I,a,62,2,2499.0999999940395,365581.40000000596,8060,WL,B,9.0
3,11.047000169754028,learn,48952.99983024597,Wed Sep 24 2025 18:44:21 GMT-0500 (Central Daylight Time),368246.799999997,A,cab,I,b,146,2,2665.3999999910593,365581.40000000596,8060,WL,B,9.0
3,11.19700002670288,learn,48802.99997329712,Wed Sep 24 2025 18:44:21 GMT-0500 (Central Daylight Time),368396.90000000596,A,cabi,I,i,141,2,2815.5,365581.40000000596,8060,WL,B,9.0
3,11.27999997138977,learn,48720.00002861023,Wed Sep 24 2025 18:44:21 GMT-0500 (Central Daylight Time),368479.90000000596,A,cabin,I,n,79,2,2898.5,365581.40000000596,8060,WL,B,9.0
3,11.52999997138977,learn,48470.00002861023,Wed Sep 24 2025 18:44:21 GMT-0500 (Central Daylight Time),368730.10000000894,A,cabinenter,I,enter,236,2,3148.7000000029802,365581.40000000596,8060,WL,B,9.0
3,11.84600019454956,learn,48153.99980545044,Wed Sep 24 2025 18:44:21 GMT-0500 (Central Daylight Time),369046.5,A,l,I,l,306,2,316.0,368730.5,8060,WL,B,10.0
3,11.880000114440918,learn,48119.99988555908,Wed Sep 24 2025 18:44:21 GMT-0500 (Central Daylight Time),369079.700000003,A,la,I,a,21,2,349.20000000298023,368730.5,8060,WL,B,10.0
3,12.330000162124634,learn,47669.999837875366,Wed Sep 24 2025 18:44:21 GMT-0500 (Central Daylight Time),369529.799999997,A,lak,I,k,444,2,799.2999999970198,368730.5,8060,WL,B,10.0
3,12.513000011444092,learn,47486.99998855591,Wed Sep 24 2025 18:44:21 GMT-0500 (Central Daylight Time),369712.90000000596,A,lake,I,e,170,2,982.4000000059605,368730.5,8060,WL,B,10.0
3,12.663000106811523,learn,47336.99989318848,Wed Sep 24 2025 18:44:21 GMT-0500 (Central Daylight Time),369863.0,A,lakeenter,I,enter,130,2,1132.5,368730.5,8060,WL,B,10.0
3,12.896000146865845,learn,47103.999853134155,Wed Sep 24 2025 18:44:21 GMT-0500 (Central Daylight Time),370095.90000000596,A,f,I,f,228,2,232.6000000089407,369863.299999997,8060,WL,B,11.0
3,13.046000003814697,learn,46953.9999961853,Wed Sep 24 2025 18:44:21 GMT-0500 (Central Daylight Time),370246.0,A,fi,I,i,132,2,382.70000000298023,369863.299999997,8060,WL,B,11.0
3,13.146000146865845,learn,46853.999853134155,Wed Sep 24 2025 18:44:21 GMT-0500 (Central Daylight Time),370346.200000003,A,fir,I,r,86,2,482.90000000596046,369863.299999997,8060,WL,B,11.0
3,13.296000003814697,learn,46703.9999961853,Wed Sep 24 2025 18:44:21 GMT-0500 (Central Daylight Time),370496.200000003,A,fire,I,e,129,2,632.9000000059605,369863.299999997,8060,WL,B,11.0
3,13.59600019454956,learn,46403.99980545044,Wed Sep 24 2025 18:44:21 GMT-0500 (Central Daylight Time),370796.200000003,A,fireenter,I,enter,291,2,932.9000000059605,369863.299999997,8060,WL,B,11.0
3,14.962000131607056,learn,45037.999868392944,Wed Sep 24 2025 18:44:21 GMT-0500 (Central Daylight Time),372162.299999997,A,w,I,w,1352,2,1365.7999999970198,370796.5,8060,WL,B,12.0
3,15.045000076293945,learn,44954.999923706055,Wed Sep 24 2025 18:44:21 GMT-0500 (Central Daylight Time),372245.60000000894,A,wi,I,i,64,2,1449.1000000089407,370796.5,8060,WL,B,12.0
3,15.195000171661377,learn,44804.99982833862,Wed Sep 24 2025 18:44:21 GMT-0500 (Central Daylight Time),372395.60000000894,A,win,I,n,142,2,1599.1000000089407,370796.5,8060,WL,B,12.0
3,15.330000162124634,learn,44669.999837875366,Wed Sep 24 2025 18:44:21 GMT-0500 (Central Daylight Time),372529.90000000596,A,wind,I,d,128,2,1733.4000000059605,370796.5,8060,WL,B,12.0
3,15.478000164031982,learn,44521.99983596802,Wed Sep 24 2025 18:44:21 GMT-0500 (Central Daylight Time),372678.60000000894,A,windo,I,o,136,2,1882.1000000089407,370796.5,8060,WL,B,12.0
3,15.712000131607056,learn,44287.999868392944,Wed Sep 24 2025 18:44:21 GMT-0500 (Central Daylight Time),372912.10000000894,A,window,I,w,221,2,2115.6000000089407,370796.5,8060,WL,B,12.0
3,15.84600019454956,learn,44153.99980545044,Wed Sep 24 2025 18:44:21 GMT-0500 (Central Daylight Time),373046.5,A,windowenter,I,enter,115,2,2250.0,370796.5,8060,WL,B,12.0
3,16.361000061035156,learn,43638.999938964844,Wed Sep 24 2025 18:44:21 GMT-0500 (Central Daylight Time),373561.60000000894,A,d,I,d,509,2,514.8000000119209,373046.799999997,8060,WL,B,13.0
3,16.478000164031982,learn,43521.99983596802,Wed Sep 24 2025 18:44:21 GMT-0500 (Central Daylight Time),373678.60000000894,A,do,I,o,97,2,631.8000000119209,373046.799999997,8060,WL,B,13.0
3,16.629000186920166,learn,43370.999813079834,Wed Sep 24 2025 18:44:21 GMT-0500 (Central Daylight Time),373828.799999997,A,doo,I,o,133,2,782.0,373046.799999997,8060,WL,B,13.0
3,16.712000131607056,learn,43287.999868392944,Wed Sep 24 2025 18:44:21 GMT-0500 (Central Daylight Time),373911.799999997,A,door,I,r,71,2,865.0,373046.799999997,8060,WL,B,13.0
3,17.028000116348267,learn,42971.99988365173,Wed Sep 24 2025 18:44:21 GMT-0500 (Central Daylight Time),374228.40000000596,A,doorenter,I,enter,308,2,1181.6000000089407,373046.799999997,8060,WL,B,13.0
3,18.111000061035156,learn,41888.999938964844,Wed Sep 24 2025 18:44:21 GMT-0500 (Central Daylight Time),375311.200000003,A,p,I,p,1062,2,1082.4000000059605,374228.799999997,8060,WL,B,14.0
3,18.278000116348267,learn,41721.99988365173,Wed Sep 24 2025 18:44:21 GMT-0500 (Central Daylight Time),375478.0,A,pu,I,u,148,2,1249.2000000029802,374228.799999997,8060,WL,B,14.0
3,18.377000093460083,learn,41622.99990653992,Wed Sep 24 2025 18:44:21 GMT-0500 (Central Daylight Time),375577.700000003,A,pup,I,p,87,2,1348.9000000059605,374228.799999997,8060,WL,B,14.0
3,18.5770001411438,learn,41422.9998588562,Wed Sep 24 2025 18:44:21 GMT-0500 (Central Daylight Time),375777.700000003,A,pupi,I,i,185,2,1548.9000000059605,374228.799999997,8060,WL,B,14.0
3,18.74400019645691,learn,41255.99980354309,Wed Sep 24 2025 18:44:21 GMT-0500 (Central Daylight Time),375944.10000000894,A,pupil,I,l,161,2,1715.300000011921,374228.799999997,8060,WL,B,14.0
3,18.944000005722046,learn,41055.999994277954,Wed Sep 24 2025 18:44:21 GMT-0500 (Central Daylight Time),376144.40000000596,A,pupilenter,I,enter,196,2,1915.6000000089407,374228.799999997,8060,WL,B,14.0
3,21.8270001411438,learn,38172.9998588562,Wed Sep 24 2025 18:44:21 GMT-0500 (Central Daylight Time),379026.700000003,A,s,I,s,2874,2,2882.0999999940395,376144.60000000894,8060,WL,B,15.0
3,21.91600012779236,learn,38083.99987220764,Wed Sep 24 2025 18:44:21 GMT-0500 (Central Daylight Time),379116.60000000894,A,st,I,t,69,2,2972.0,376144.60000000894,8060,WL,B,15.0
3,22.009999990463257,learn,37990.00000953674,Wed Sep 24 2025 18:44:21 GMT-0500 (Central Daylight Time),379209.90000000596,A,sta,I,a,86,2,3065.2999999970198,376144.60000000894,8060,WL,B,15.0
3,22.12600016593933,learn,37873.99983406067,Wed Sep 24 2025 18:44:21 GMT-0500 (Central Daylight Time),379326.60000000894,A,star,I,r,106,2,3182.0,376144.60000000894,8060,WL,B,15.0
3,22.64300012588501,learn,37356.99987411499,Wed Sep 24 2025 18:44:21 GMT-0500 (Central Daylight Time),379843.5,A,starenter,I,enter,508,2,3698.8999999910593,376144.60000000894,8060,WL,B,15.0
4,0.43400001525878906,learn,59565.99998474121,Wed Sep 24 2025 18:44:21 GMT-0500 (Central Daylight Time),445456.200000003,A,c,I,c,414,2,433.40000000596046,445022.799999997,8060,WL,B,1.0
4,0.5329999923706055,learn,59467.000007629395,Wed Sep 24 2025 18:44:21 GMT-0500 (Central Daylight Time),445555.90000000596,A,cl,I,l,91,2,533.1000000089407,445022.799999997,8060,WL,B,1.0
4,0.7330000400543213,learn,59266.99995994568,Wed Sep 24 2025 18:44:21 GMT-0500 (Central Daylight Time),445755.799999997,A,clo,I,o,183,2,733.0,445022.799999997,8060,WL,B,1.0
4,0.8670001029968262,learn,59132.999897003174,Wed Sep 24 2025 18:44:21 GMT-0500 (Central Daylight Time),445889.10000000894,A,cloc,I,c,119,2,866.3000000119209,445022.799999997,8060,WL,B,1.0
4,1.0169999599456787,learn,58983.00004005432,Wed Sep 24 2025 18:44:21 GMT-0500 (Central Daylight Time),446039.5,A,clock,I,k,129,2,1016.7000000029802,445022.799999997,8060,WL,B,1.0
4,1.25,learn,58750.0,Wed Sep 24 2025 18:44:21 GMT-0500 (Central Daylight Time),446272.200000003,A,clockenter,I,enter,212,2,1249.4000000059605,445022.799999997,8060,WL,B,1.0
4,1.565999984741211,learn,58434.00001525879,Wed Sep 24 2025 18:44:21 GMT-0500 (Central Daylight Time),446588.799999997,A,w,I,w,307,2,316.09999999403954,446272.700000003,8060,WL,B,2.0
4,1.9170000553131104,learn,58082.99994468689,Wed Sep 24 2025 18:44:21 GMT-0500 (Central Daylight Time),446939.799999997,A,,I,backspace,335,2,667.0999999940395,446272.700000003,8060,WL,B,2.0
4,2.450000047683716,learn,57549.999952316284,Wed Sep 24 2025 18:44:21 GMT-0500 (Central Daylight Time),447472.200000003,A,p,I,p,512,2,1199.5,446272.700000003,8060,WL,B,2.0
4,2.633000135421753,learn,57366.99986457825,Wed Sep 24 2025 18:44:21 GMT-0500 (Central Daylight Time),447655.60000000894,A,pi,I,i,162,2,1382.9000000059605,446272.700000003,8060,WL,B,2.0
4,2.7829999923706055,learn,57217.000007629395,Wed Sep 24 2025 18:44:21 GMT-0500 (Central Daylight Time),447805.200000003,A,pip,I,p,140,2,1532.5,446272.700000003,8060,WL,B,2.0
4,2.949000120162964,learn,57050.999879837036,Wed Sep 24 2025 18:44:21 GMT-0500 (Central Daylight Time),447971.799999997,A,pipe,I,e,150,2,1699.0999999940395,446272.700000003,8060,WL,B,2.0
4,3.183000087738037,learn,56816.99991226196,Wed Sep 24 2025 18:44:21 GMT-0500 (Central Daylight Time),448205.299999997,A,pipeenter,I,enter,224,2,1932.5999999940395,446272.700000003,8060,WL,B,2.0
4,3.499000072479248,learn,56500.99992752075,Wed Sep 24 2025 18:44:21 GMT-0500 (Central Daylight Time),448521.90000000596,A,w,I,w,303,2,316.40000000596046,448205.5,8060,WL,B,3.0
4,3.615999937057495,learn,56384.000062942505,Wed Sep 24 2025 18:44:21 GMT-0500 (Central Daylight Time),448638.299999997,A,wi,I,i,105,2,432.79999999701977,448205.5,8060,WL,B,3.0
4,3.8489999771118164,learn,56151.00002288818,Wed Sep 24 2025 18:44:21 GMT-0500 (Central Daylight Time),448871.5,A,wif,I,f,212,2,666.0,448205.5,8060,WL,B,3.0
4,4.131999969482422,learn,55868.00003051758,Wed Sep 24 2025 18:44:21 GMT-0500 (Central Daylight Time),449154.799999997,A,wife,I,e,268,2,949.2999999970198,448205.5,8060,WL,B,3.0
4,4.2820000648498535,learn,55717.99993515015,Wed Sep 24 2025 18:44:21 GMT-0500 (Central Daylight Time),449304.90000000596,A,wifeenter,I,enter,137,2,1099.4000000059605,448205.5,8060,WL,B,3.0
4,4.5950000286102295,learn,55404.99997138977,Wed Sep 24 2025 18:44:21 GMT-0500 (Central Daylight Time),449617.90000000596,A,w,I,w,309,2,312.70000000298023,449305.200000003,8060,WL,B,4.0
4,4.743000030517578,learn,55256.99996948242,Wed Sep 24 2025 18:44:21 GMT-0500 (Central Daylight Time),449765.90000000596,A,wi,I,i,143,2,460.70000000298023,449305.200000003,8060,WL,B,4.0
4,4.916000127792358,learn,55083.99987220764,Wed Sep 24 2025 18:44:21 GMT-0500 (Central Daylight Time),449938.700000003,A,win,I,n,165,2,633.5,449305.200000003,8060,WL,B,4.0
4,5.082000017166138,learn,54917.99998283386,Wed Sep 24 2025 18:44:21 GMT-0500 (Central Daylight Time),450104.700000003,A,wind,I,d,153,2,799.5,449305.200000003,8060,WL,B,4.0
4,5.249000072479248,learn,54750.99992752075,Wed Sep 24 2025 18:44:21 GMT-0500 (Central Daylight Time),450271.200000003,A,windo,I,o,146,2,966.0,449305.200000003,8060,WL,B,4.0
4,5.398000001907349,learn,54601.99999809265,Wed Sep 24 2025 18:44:21 GMT-0500 (Central Daylight Time),450421.0,A,window,I,w,132,2,1115.7999999970198,449305.200000003,8060,WL,B,4.0
4,5.5320000648498535,learn,54467.99993515015,Wed Sep 24 2025 18:44:21 GMT-0500 (Central Daylight Time),450554.60000000894,A,windowenter,I,enter,119,2,1249.4000000059605,449305.200000003,8060,WL,B,4.0
4,5.881999969482422,learn,54118.00003051758,Wed Sep 24 2025 18:44:21 GMT-0500 (Central Daylight Time),450904.40000000596,A,d,I,d,329,2,349.6000000089407,450554.799999997,8060,WL,B,5.0
4,6.0320000648498535,learn,53967.99993515015,Wed Sep 24 2025 18:44:21 GMT-0500 (Central Daylight Time),451054.0,A,do,I,o,130,2,499.20000000298023,450554.799999997,8060,WL,B,5.0
4,6.197999954223633,learn,53802.00004577637,Wed Sep 24 2025 18:44:21 GMT-0500 (Central Daylight Time),451220.700000003,A,doo,I,o,149,2,665.9000000059605,450554.799999997,8060,WL,B,5.0
4,6.315000057220459,learn,53684.99994277954,Wed Sep 24 2025 18:44:21 GMT-0500 (Central Daylight Time),451337.5,A,door,I,r,103,2,782.7000000029802,450554.799999997,8060,WL,B,5.0
4,6.615000009536743,learn,53384.99999046326,Wed Sep 24 2025 18:44:21 GMT-0500 (Central Daylight Time),451637.200000003,A,doorenter,I,enter,282,2,1082.4000000059605,450554.799999997,8060,WL,B,5.0
4,6.881999969482422,learn,53118.00003051758,Wed Sep 24 2025 18:44:21 GMT-0500 (Central Daylight Time),451904.10000000894,A,s,I,s,254,2,266.6000000089407,451637.5,8060,WL,B,6.0
4,7.04800009727478,learn,52951.99990272522,Wed Sep 24 2025 18:44:21 GMT-0500 (Central Daylight Time),452070.799999997,A,st,I,t,148,2,433.29999999701977,451637.5,8060,WL,B,6.0
4,7.281000137329102,learn,52718.9998626709,Wed Sep 24 2025 18:44:21 GMT-0500 (Central Daylight Time),452303.60000000894,A,str,I,r,213,2,666.1000000089407,451637.5,8060,WL,B,6.0
4,7.482000112533569,learn,52517.99988746643,Wed Sep 24 2025 18:44:21 GMT-0500 (Central Daylight Time),452504.0,A,stre,I,e,180,2,866.5,451637.5,8060,WL,B,6.0
4,7.664999961853027,learn,52335.00003814697,Wed Sep 24 2025 18:44:21 GMT-0500 (Central Daylight Time),452688.10000000894,A,stree,I,e,162,2,1050.6000000089407,451637.5,8060,WL,B,6.0
4,7.864000082015991,learn,52135.99991798401,Wed Sep 24 2025 18:44:21 GMT-0500 (Central Daylight Time),452886.90000000596,A,street,I,t,187,2,1249.4000000059605,451637.5,8060,WL,B,6.0
4,7.980999946594238,learn,52019.00005340576,Wed Sep 24 2025 18:44:21 GMT-0500 (Central Daylight Time),453003.5,A,streetenter,I,enter,101,2,1366.0,451637.5,8060,WL,B,6.0
4,8.230999946594238,learn,51769.00005340576,Wed Sep 24 2025 18:44:21 GMT-0500 (Central Daylight Time),453253.60000000894,A,c,I,c,240,2,249.70000000298023,453003.90000000596,8060,WL,B,7.0
4,8.364000082015991,learn,51635.99991798401,Wed Sep 24 2025 18:44:21 GMT-0500 (Central Daylight Time),453386.700000003,A,ci,I,i,125,2,382.79999999701977,453003.90000000596,8060,WL,B,7.0
4,8.531000137329102,learn,51468.9998626709,Wed Sep 24 2025 18:44:21 GMT-0500 (Central Daylight Time),453553.40000000596,A,cit,I,t,152,2,549.5,453003.90000000596,8060,WL,B,7.0
4,8.680999994277954,learn,51319.000005722046,Wed Sep 24 2025 18:44:21 GMT-0500 (Central Daylight Time),453703.5,A,city,I,y,129,2,699.5999999940395,453003.90000000596,8060,WL,B,7.0
4,8.864000082015991,learn,51135.99991798401,Wed Sep 24 2025 18:44:21 GMT-0500 (Central Daylight Time),453886.700000003,A,cityenter,I,enter,171,2,882.7999999970198,453003.90000000596,8060,WL,B,7.0
4,9.031000137329102,learn,50968.9998626709,Wed Sep 24 2025 18:44:21 GMT-0500 (Central Daylight Time),454053.10000000894,A,g,I,g,157,2,166.0,453887.10000000894,8060,WL,B,8.0
4,9.21399998664856,learn,50786.00001335144,Wed Sep 24 2025 18:44:21 GMT-0500 (Central Daylight Time),454236.40000000596,A,gr,I,r,174,2,349.29999999701977,453887.10000000894,8060,WL,B,8.0
4,9.315000057220459,learn,50684.99994277954,Wed Sep 24 2025 18:44:21 GMT-0500 (Central Daylight Time),454337.299999997,A,gra,I,a,87,2,450.19999998807907,453887.10000000894,8060,WL,B,8.0
4,9.496999979019165,learn,50503.000020980835,Wed Sep 24 2025 18:44:21 GMT-0500 (Central Daylight Time),454520.0,A,gras,I,s,170,2,632.8999999910593,453887.10000000894,8060,WL,B,8.0
4,9.647000074386597,learn,50352.9999256134,Wed Sep 24 2025 18:44:21 GMT-0500 (Central Daylight Time),454669.90000000596,A,grass,I,s,140,2,782.7999999970198,453887.10000000894,8060,WL,B,8.0
4,9.831000089645386,learn,50168.999910354614,Wed Sep 24 2025 18:44:21 GMT-0500 (Central Daylight Time),454853.0,A,grassenter,I,enter,165,2,965.8999999910593,453887.10000000894,8060,WL,B,8.0
4,10.031000137329102,learn,49968.9998626709,Wed Sep 24 2025 18:44:21 GMT-0500 (Central Daylight Time),455053.299999997,A,s,I,s,191,2,199.8999999910593,454853.40000000596,8060,WL,B,9.0
4,10.164000034332275,learn,49835.999965667725,Wed Sep 24 2025 18:44:21 GMT-0500 (Central Daylight Time),455186.10000000894,A,st,I,t,118,2,332.70000000298023,454853.40000000596,8060,WL,B,9.0
4,10.331000089645386,learn,49668.999910354614,Wed Sep 24 2025 18:44:21 GMT-0500 (Central Daylight Time),455353.10000000894,A,sta,I,a,153,2,499.70000000298023,454853.40000000596,8060,WL,B,9.0
4,10.430000066757202,learn,49569.9999332428,Wed Sep 24 2025 18:44:21 GMT-0500 (Central Daylight Time),455452.799999997,A,star,I,r,82,2,599.3999999910593,454853.40000000596,8060,WL,B,9.0
4,10.847000122070312,learn,49152.99987792969,Wed Sep 24 2025 18:44:21 GMT-0500 (Central Daylight Time),455869.40000000596,A,starenter,I,enter,399,2,1016.0,454853.40000000596,8060,WL,B,9.0
4,11.630000114440918,learn,48369.99988555908,Wed Sep 24 2025 18:44:21 GMT-0500 (Central Daylight Time),456652.40000000596,A,c,I,c,773,2,782.7000000029802,455869.700000003,8060,WL,B,10.0
4,11.77999997138977,learn,48220.00002861023,Wed Sep 24 2025 18:44:21 GMT-0500 (Central Daylight Time),456802.200000003,A,ca,I,a,143,2,932.5,455869.700000003,8060,WL,B,10.0
4,11.930000066757202,learn,48069.9999332428,Wed Sep 24 2025 18:44:21 GMT-0500 (Central Daylight Time),456952.299999997,A,cab,I,b,138,2,1082.5999999940395,455869.700000003,8060,WL,B,10.0
4,12.130000114440918,learn,47869.99988555908,Wed Sep 24 2025 18:44:21 GMT-0500 (Central Daylight Time),457152.200000003,A,cabi,I,i,187,2,1282.5,455869.700000003,8060,WL,B,10.0
4,12.196000099182129,learn,47803.99990081787,Wed Sep 24 2025 18:44:21 GMT-0500 (Central Daylight Time),457218.90000000596,A,cabin,I,n,51,2,1349.2000000029802,455869.700000003,8060,WL,B,10.0
4,12.413000106811523,learn,47586.99989318848,Wed Sep 24 2025 18:44:21 GMT-0500 (Central Daylight Time),457435.5,A,cabinenter,I,enter,201,2,1565.7999999970198,455869.700000003,8060,WL,B,10.0
4,12.996000051498413,learn,47003.99994850159,Wed Sep 24 2025 18:44:21 GMT-0500 (Central Daylight Time),458018.60000000894,A,f,I,f,568,2,582.7000000029802,457435.90000000596,8060,WL,B,11.0
4,13.11300015449524,learn,46886.99984550476,Wed Sep 24 2025 18:44:21 GMT-0500 (Central Daylight Time),458135.40000000596,A,fi,I,i,96,2,699.5,457435.90000000596,8060,WL,B,11.0
4,13.229000091552734,learn,46770.999908447266,Wed Sep 24 2025 18:44:21 GMT-0500 (Central Daylight Time),458251.90000000596,A,fir,I,r,108,2,816.0,457435.90000000596,8060,WL,B,11.0
4,13.378999948501587,learn,46621.00005149841,Wed Sep 24 2025 18:44:21 GMT-0500 (Central Daylight Time),458401.799999997,A,fire,I,e,143,2,965.8999999910593,457435.90000000596,8060,WL,B,11.0
4,13.546000003814697,learn,46453.9999961853,Wed Sep 24 2025 18:44:21 GMT-0500 (Central Daylight Time),458568.5,A,fireenter,I,enter,153,2,1132.5999999940395,457435.90000000596,8060,WL,B,11.0
4,13.946000099182129,learn,46053.99990081787,Wed Sep 24 2025 18:44:21 GMT-0500 (Central Daylight Time),458968.299999997,A,l,I,l,387,2,399.5,458568.799999997,8060,WL,B,12.0
4,14.029000043869019,learn,45970.99995613098,Wed Sep 24 2025 18:44:21 GMT-0500 (Central Daylight Time),459051.40000000596,A,la,I,a,75,2,482.6000000089407,458568.799999997,8060,WL,B,12.0
4,14.196000099182129,learn,45803.99990081787,Wed Sep 24 2025 18:44:21 GMT-0500 (Central Daylight Time),459218.40000000596,A,lak,I,k,160,2,649.6000000089407,458568.799999997,8060,WL,B,12.0
4,14.312000036239624,learn,45687.999963760376,Wed Sep 24 2025 18:44:21 GMT-0500 (Central Daylight Time),459335.0,A,lake,I,e,96,2,766.2000000029802,458568.799999997,8060,WL,B,12.0
4,14.696000099182129,learn,45303.99990081787,Wed Sep 24 2025 18:44:21 GMT-0500 (Central Daylight Time),459718.10000000894,A,lakeenter,I,enter,365,2,1149.300000011921,458568.799999997,8060,WL,B,12.0
4,16.09500002861023,learn,43904.99997138977,Wed Sep 24 2025 18:44:21 GMT-0500 (Central Daylight Time),461117.700000003,A,p,I,p,1389,2,1399.2000000029802,459718.5,8060,WL,B,13.0
4,16.695000171661377,learn,43304.99982833862,Wed Sep 24 2025 18:44:21 GMT-0500 (Central Daylight Time),461717.5,A,pu,I,u,589,2,1999.0,459718.5,8060,WL,B,13.0
4,16.894999980926514,learn,43105.000019073486,Wed Sep 24 2025 18:44:21 GMT-0500 (Central Daylight Time),461917.40000000596,A,pup,I,p,190,2,2198.9000000059605,459718.5,8060,WL,B,13.0
4,17.195000171661377,learn,42804.99982833862,Wed Sep 24 2025 18:44:21 GMT-0500 (Central Daylight Time),462217.200000003,A,pupi,I,i,286,2,2498.7000000029802,459718.5,8060,WL,B,13.0
4,17.361000061035156,learn,42638.999938964844,Wed Sep 24 2025 18:44:21 GMT-0500 (Central Daylight Time),462383.90000000596,A,pupil,I,l,162,2,2665.4000000059605,459718.5,8060,WL,B,13.0
4,19.344000101089478,learn,40655.99989891052,Wed Sep 24 2025 18:44:21 GMT-0500 (Central Daylight Time),464366.799999997,A,pupilenter,I,enter,1963,2,4648.29999999702,459718.5,8060,WL,B,13.0
4,55.48300004005432,learn,4516.999959945679,Wed Sep 24 2025 18:44:21 GMT-0500 (Central Daylight Time),500505.40000000596,A,w,I,w,36125,2,36138.29999999702,464367.10000000894,8060,WL,B,14.0
4,55.615999937057495,learn,4384.000062942505,Wed Sep 24 2025 18:44:21 GMT-0500 (Central Daylight Time),500638.799999997,A,wi,I,i,122,2,36271.69999998808,464367.10000000894,8060,WL,B,14.0
4,55.74900007247925,learn,4250.999927520752,Wed Sep 24 2025 18:44:21 GMT-0500 (Central Daylight Time),500771.90000000596,A,wif,I,f,124,2,36404.79999999702,464367.10000000894,8060,WL,B,14.0
4,55.89900016784668,learn,4100.99983215332,Wed Sep 24 2025 18:44:21 GMT-0500 (Central Daylight Time),500921.700000003,A,wife,I,e,143,2,36554.59999999404,464367.10000000894,8060,WL,B,14.0
4,56.81599998474121,learn,3184.000015258789,Wed Sep 24 2025 18:44:21 GMT-0500 (Central Daylight Time),501838.40000000596,A,wif,I,backspace,906,2,37471.29999999702,464367.10000000894,8060,WL,B,14.0
4,57.03200006484985,learn,2967.9999351501465,Wed Sep 24 2025 18:44:21 GMT-0500 (Central Daylight Time),502055.0,A,wi,I,backspace,204,2,37687.89999999106,464367.10000000894,8060,WL,B,14.0
4,57.21500015258789,learn,2784.9998474121094,Wed Sep 24 2025 18:44:21 GMT-0500 (Central Daylight Time),502237.90000000596,A,w,I,backspace,165,2,37870.79999999702,464367.10000000894,8060,WL,B,14.0
4,57.36500000953674,learn,2634.999990463257,Wed Sep 24 2025 18:44:21 GMT-0500 (Central Daylight Time),502388.299999997,A,,I,backspace,132,2,38021.19999998808,464367.10000000894,8060,WL,B,14.0
4,59.46500015258789,learn,534.9998474121094,Wed Sep 24 2025 18:44:21 GMT-0500 (Central Daylight Time),504487.60000000894,A,w,I,w,2088,2,40120.5,464367.10000000894,8060,WL,B,14.0
4,59.598000049591064,learn,401.99995040893555,Wed Sep 24 2025 18:44:21 GMT-0500 (Central Daylight Time),504620.799999997,A,wi,I,i,124,2,40253.69999998808,464367.10000000894,8060,WL,B,14.0
4,59.71399998664856,learn,286.00001335144043,Wed Sep 24 2025 18:44:21 GMT-0500 (Central Daylight Time),504737.299999997,A,wif,I,f,111,2,40370.19999998808,464367.10000000894,8060,WL,B,14.0
4,59.88100004196167,learn,118.99995803833008,Wed Sep 24 2025 18:44:21 GMT-0500 (Central Daylight Time),504904.0,A,wife,I,e,154,2,40536.89999999106,464367.10000000894,8060,WL,B,14.0
4,60.013999938964844,learn,-13.99993896484375,Wed Sep 24 2025 18:44:21 GMT-0500 (Central Daylight Time),505037.10000000894,A,wifeNone,I,None,129,2,40670.0,464367.10000000894,8060,WL,B,14.0
5,0.6669998168945312,learn,60000.0,Wed Sep 24 2025 18:44:21 GMT-0500 (Central Daylight Time),571050.1000000089,A,s,I,s,653,2,666.4000000059605,570383.700000003,8060,WL,B,1.0
5,1.0829999446868896,learn,60000.0,Wed Sep 24 2025 18:44:21 GMT-0500 (Central Daylight Time),571466.5,A,sr,I,r,400,2,1082.7999999970198,570383.700000003,8060,WL,B,1.0
5,1.4169998168945312,learn,60000.0,Wed Sep 24 2025 18:44:21 GMT-0500 (Central Daylight Time),571799.900000006,A,s,I,backspace,312,2,1416.2000000029802,570383.700000003,8060,WL,B,1.0
5,1.4659998416900635,learn,60000.0,Wed Sep 24 2025 18:44:21 GMT-0500 (Central Daylight Time),571849.400000006,A,st,I,t,35,2,1465.7000000029802,570383.700000003,8060,WL,B,1.0
5,1.6499998569488525,learn,60000.0,Wed Sep 24 2025 18:44:21 GMT-0500 (Central Daylight Time),572032.700000003,A,str,I,r,178,2,1649.0,570383.700000003,8060,WL,B,1.0
5,1.7999999523162842,learn,60000.0,Wed Sep 24 2025 18:44:21 GMT-0500 (Central Daylight Time),572182.799999997,A,stre,I,e,138,2,1799.0999999940395,570383.700000003,8060,WL,B,1.0
5,1.9830000400543213,learn,60000.0,Wed Sep 24 2025 18:44:21 GMT-0500 (Central Daylight Time),572366.299999997,A,stree,I,e,173,2,1982.5999999940395,570383.700000003,8060,WL,B,1.0
5,2.1659998893737793,learn,60000.0,Wed Sep 24 2025 18:44:21 GMT-0500 (Central Daylight Time),572549.400000006,A,street,I,t,165,2,2165.7000000029802,570383.700000003,8060,WL,B,1.0
5,2.2829999923706055,learn,60000.0,Wed Sep 24 2025 18:44:21 GMT-0500 (Central Daylight Time),572666.1000000089,A,streetenter,I,enter,110,2,2282.4000000059605,570383.700000003,8060,WL,B,1.0
5,2.5329999923706055,learn,60000.0,Wed Sep 24 2025 18:44:21 GMT-0500 (Central Daylight Time),572915.900000006,A,g,I,g,234,2,249.5,572666.400000006,8060,WL,B,2.0
5,2.7339999675750732,learn,60000.0,Wed Sep 24 2025 18:44:21 GMT-0500 (Central Daylight Time),573117.0,A,gr,I,r,190,2,450.59999999403954,572666.400000006,8060,WL,B,2.0
5,2.8499999046325684,learn,60000.0,Wed Sep 24 2025 18:44:21 GMT-0500 (Central Daylight Time),573232.700000003,A,gra,I,a,102,2,566.2999999970198,572666.400000006,8060,WL,B,2.0
5,3.0329999923706055,learn,60000.0,Wed Sep 24 2025 18:44:21 GMT-0500 (Central Daylight Time),573415.900000006,A,gras,I,s,171,2,749.5,572666.400000006,8060,WL,B,2.0
5,3.1989998817443848,learn,60000.0,Wed Sep 24 2025 18:44:21 GMT-0500 (Central Daylight Time),573582.200000003,A,grass,I,s,156,2,915.7999999970198,572666.400000006,8060,WL,B,2.0
5,3.3989999294281006,learn,60000.0,Wed Sep 24 2025 18:44:21 GMT-0500 (Central Daylight Time),573782.5,A,grassenter,I,enter,189,2,1116.0999999940395,572666.400000006,8060,WL,B,2.0
5,3.7660000324249268,learn,60000.0,Wed Sep 24 2025 18:44:21 GMT-0500 (Central Daylight Time),574148.799999997,A,c,I,c,357,2,365.8999999910593,573782.900000006,8060,WL,B,3.0
5,3.8989999294281006,learn,60000.0,Wed Sep 24 2025 18:44:21 GMT-0500 (Central Daylight Time),574282.1000000089,A,ci,I,i,119,2,499.20000000298023,573782.900000006,8060,WL,B,3.0
5,4.06499981880188,learn,60000.0,Wed Sep 24 2025 18:44:21 GMT-0500 (Central Daylight Time),574448.5,A,cit,I,t,160,2,665.5999999940395,573782.900000006,8060,WL,B,3.0
5,4.23199987411499,learn,60000.0,Wed Sep 24 2025 18:44:21 GMT-0500 (Central Daylight Time),574615.299999997,A,city,I,y,155,2,832.3999999910593,573782.900000006,8060,WL,B,3.0
5,4.483000040054321,learn,60000.0,Wed Sep 24 2025 18:44:21 GMT-0500 (Central Daylight Time),574866.400000006,A,cityenter,I,enter,235,2,1083.5,573782.900000006,8060,WL,B,3.0
5,4.865000009536743,learn,60000.0,Wed Sep 24 2025 18:44:21 GMT-0500 (Central Daylight Time),575248.5,A,a,I,a,369,2,381.79999999701977,574866.700000003,8060,WL,B,4.0
5,5.049000024795532,learn,60000.0,Wed Sep 24 2025 18:44:21 GMT-0500 (Central Daylight Time),575431.799999997,A,ar,I,r,179,2,565.0999999940395,574866.700000003,8060,WL,B,4.0
5,5.198999881744385,learn,60000.0,Wed Sep 24 2025 18:44:21 GMT-0500 (Central Daylight Time),575581.900000006,A,arm,I,m,132,2,715.2000000029802,574866.700000003,8060,WL,B,4.0
5,5.398999929428101,learn,60000.0,Wed Sep 24 2025 18:44:21 GMT-0500 (Central Daylight Time),575781.799999997,A,armenter,I,enter,190,2,915.0999999940395,574866.700000003,8060,WL,B,4.0
5,5.681999921798706,learn,60000.0,Wed Sep 24 2025 18:44:21 GMT-0500 (Central Daylight Time),576064.900000006,A,s,I,s,270,2,282.79999999701977,575782.1000000089,8060,WL,B,5.0
5,5.797999858856201,learn,60000.0,Wed Sep 24 2025 18:44:21 GMT-0500 (Central Daylight Time),576181.5,A,sk,I,k,98,2,399.3999999910593,575782.1000000089,8060,WL,B,5.0
5,5.998999834060669,learn,60000.0,Wed Sep 24 2025 18:44:21 GMT-0500 (Central Daylight Time),576381.700000003,A,ski,I,i,181,2,599.5999999940395,575782.1000000089,8060,WL,B,5.0
5,6.181999921798706,learn,60000.0,Wed Sep 24 2025 18:44:21 GMT-0500 (Central Daylight Time),576564.799999997,A,skin,I,n,165,2,782.6999999880791,575782.1000000089,8060,WL,B,5.0
5,6.4649999141693115,learn,60000.0,Wed Sep 24 2025 18:44:21 GMT-0500 (Central Daylight Time),576848.200000003,A,skinenter,I,enter,279,2,1066.0999999940395,575782.1000000089,8060,WL,B,5.0
5,8.080999851226807,learn,60000.0,Wed Sep 24 2025 18:44:21 GMT-0500 (Central Daylight Time),578464.0,A,c,I,c,1604,2,1615.3999999910593,576848.6000000089,8060,WL,B,6.0
5,8.180999994277954,learn,60000.0,Wed Sep 24 2025 18:44:21 GMT-0500 (Central Daylight Time),578564.200000003,A,ca,I,a,91,2,1715.5999999940395,576848.6000000089,8060,WL,B,6.0
5,8.330999851226807,learn,60000.0,Wed Sep 24 2025 18:44:21 GMT-0500 (Central Daylight Time),578714.0,A,cab,I,b,135,2,1865.3999999910593,576848.6000000089,8060,WL,B,6.0
5,8.480999946594238,learn,60000.0,Wed Sep 24 2025 18:44:21 GMT-0500 (Central Daylight Time),578864.0,A,cabi,I,i,138,2,2015.3999999910593,576848.6000000089,8060,WL,B,6.0
5,8.563999891281128,learn,60000.0,Wed Sep 24 2025 18:44:21 GMT-0500 (Central Daylight Time),578947.1000000089,A,cabin,I,n,76,2,2098.5,576848.6000000089,8060,WL,B,6.0
5,8.763999938964844,learn,60000.0,Wed Sep 24 2025 18:44:21 GMT-0500 (Central Daylight Time),579147.299999997,A,cabinenter,I,enter,184,2,2298.699999988079,576848.6000000089,8060,WL,B,6.0
5,9.063999891281128,learn,60000.0,Wed Sep 24 2025 18:44:21 GMT-0500 (Central Daylight Time),579447.200000003,A,l,I,l,289,2,299.59999999403954,579147.6000000089,8060,WL,B,7.0
5,9.180999994277954,learn,60000.0,Wed Sep 24 2025 18:44:21 GMT-0500 (Central Daylight Time),579563.700000003,A,la,I,a,108,2,416.09999999403954,579147.6000000089,8060,WL,B,7.0
5,9.29699993133545,learn,60000.0,Wed Sep 24 2025 18:44:21 GMT-0500 (Central Daylight Time),579680.400000006,A,lak,I,k,104,2,532.7999999970198,579147.6000000089,8060,WL,B,7.0
5,9.414000034332275,learn,60000.0,Wed Sep 24 2025 18:44:21 GMT-0500 (Central Daylight Time),579797.1000000089,A,lake,I,e,106,2,649.5,579147.6000000089,8060,WL,B,7.0
5,9.63099980354309,learn,60000.0,Wed Sep 24 2025 18:44:21 GMT-0500 (Central Daylight Time),580013.799999997,A,lakeenter,I,enter,197,2,866.1999999880791,579147.6000000089,8060,WL,B,7.0
5,9.929999828338623,learn,60000.0,Wed Sep 24 2025 18:44:21 GMT-0500 (Central Daylight Time),580313.6000000089,A,f,I,f,286,2,299.40000000596046,580014.200000003,8060,WL,B,8.0
5,10.04699993133545,learn,60000.0,Wed Sep 24 2025 18:44:21 GMT-0500 (Central Daylight Time),580430.299999997,A,fi,I,i,98,2,416.09999999403954,580014.200000003,8060,WL,B,8.0
5,10.164000034332275,learn,60000.0,Wed Sep 24 2025 18:44:21 GMT-0500 (Central Daylight Time),580547.200000003,A,fir,I,r,101,2,533.0,580014.200000003,8060,WL,B,8.0
5,10.29699993133545,learn,60000.0,Wed Sep 24 2025 18:44:21 GMT-0500 (Central Daylight Time),580680.299999997,A,fire,I,e,112,2,666.0999999940395,580014.200000003,8060,WL,B,8.0
5,10.52999997138977,learn,60000.0,Wed Sep 24 2025 18:44:21 GMT-0500 (Central Daylight Time),580913.299999997,A,fireenter,I,enter,227,2,899.0999999940395,580014.200000003,8060,WL,B,8.0
5,11.079999923706055,learn,60000.0,Wed Sep 24 2025 18:44:21 GMT-0500 (Central Daylight Time),581463.0,A,s,I,s,538,2,549.3999999910593,580913.6000000089,8060,WL,B,9.0
5,11.230000019073486,learn,60000.0,Wed Sep 24 2025 18:44:21 GMT-0500 (Central Daylight Time),581613.200000003,A,st,I,t,131,2,699.5999999940395,580913.6000000089,8060,WL,B,9.0
5,11.329999923706055,learn,60000.0,Wed Sep 24 2025 18:44:21 GMT-0500 (Central Daylight Time),581713.1000000089,A,sta,I,a,94,2,799.5,580913.6000000089,8060,WL,B,9.0
5,11.496999979019165,learn,60000.0,Wed Sep 24 2025 18:44:21 GMT-0500 (Central Daylight Time),581879.900000006,A,star,I,r,154,2,966.2999999970198,580913.6000000089,8060,WL,B,9.0
5,11.79699993133545,learn,60000.0,Wed Sep 24 2025 18:44:21 GMT-0500 (Central Daylight Time),582179.700000003,A,starenter,I,enter,283,2,1266.0999999940395,580913.6000000089,8060,WL,B,9.0
5,12.096999883651733,learn,60000.0,Wed Sep 24 2025 18:44:21 GMT-0500 (Central Daylight Time),582479.6000000089,A,p,I,p,280,2,299.5,582180.1000000089,8060,WL,B,10.0
5,12.263000011444092,learn,60000.0,Wed Sep 24 2025 18:44:21 GMT-0500 (Central Daylight Time),582646.0,A,pu,I,u,156,2,465.8999999910593,582180.1000000089,8060,WL,B,10.0
5,12.395999908447266,learn,60000.0,Wed Sep 24 2025 18:44:21 GMT-0500 (Central Daylight Time),582779.6000000089,A,pup,I,p,117,2,599.5,582180.1000000089,8060,WL,B,10.0
5,12.562999963760376,learn,60000.0,Wed Sep 24 2025 18:44:21 GMT-0500 (Central Daylight Time),582946.1000000089,A,pupi,I,i,159,2,766.0,582180.1000000089,8060,WL,B,10.0
5,12.728999853134155,learn,60000.0,Wed Sep 24 2025 18:44:21 GMT-0500 (Central Daylight Time),583112.6000000089,A,pupil,I,l,162,2,932.5,582180.1000000089,8060,WL,B,10.0
5,12.94700002670288,learn,60000.0,Wed Sep 24 2025 18:44:21 GMT-0500 (Central Daylight Time),583330.200000003,A,pupilenter,I,enter,211,2,1150.0999999940395,582180.1000000089,8060,WL,B,10.0
5,13.245999813079834,learn,60000.0,Wed Sep 24 2025 18:44:21 GMT-0500 (Central Daylight Time),583629.299999997,A,p,I,p,289,2,298.8999999910593,583330.400000006,8060,WL,B,11.0
5,13.412999868392944,learn,60000.0,Wed Sep 24 2025 18:44:21 GMT-0500 (Central Daylight Time),583795.799999997,A,pi,I,i,159,2,465.3999999910593,583330.400000006,8060,WL,B,11.0
5,13.578999996185303,learn,60000.0,Wed Sep 24 2025 18:44:21 GMT-0500 (Central Daylight Time),583962.6000000089,A,pip,I,p,160,2,632.2000000029802,583330.400000006,8060,WL,B,11.0
5,14.02899980545044,learn,60000.0,Wed Sep 24 2025 18:44:21 GMT-0500 (Central Daylight Time),584412.200000003,A,pipe,I,e,433,2,1081.7999999970198,583330.400000006,8060,WL,B,11.0
5,14.52999997138977,learn,60000.0,Wed Sep 24 2025 18:44:21 GMT-0500 (Central Daylight Time),584913.299999997,A,pipeenter,I,enter,479,2,1582.8999999910593,583330.400000006,8060,WL,B,11.0
5,14.978999853134155,learn,60000.0,Wed Sep 24 2025 18:44:21 GMT-0500 (Central Daylight Time),585362.0,A,w,I,w,441,2,448.3999999910593,584913.6000000089,8060,WL,B,12.0
5,15.111999988555908,learn,60000.0,Wed Sep 24 2025 18:44:21 GMT-0500 (Central Daylight Time),585495.299999997,A,wi,I,i,121,2,581.6999999880791,584913.6000000089,8060,WL,B,12.0
5,15.27899980545044,learn,60000.0,Wed Sep 24 2025 18:44:21 GMT-0500 (Central Daylight Time),585661.900000006,A,wif,I,f,147,2,748.2999999970198,584913.6000000089,8060,WL,B,12.0
5,15.51199984550476,learn,60000.0,Wed Sep 24 2025 18:44:21 GMT-0500 (Central Daylight Time),585895.1000000089,A,wife,I,e,221,2,981.5,584913.6000000089,8060,WL,B,12.0
5,15.694999933242798,learn,60000.0,Wed Sep 24 2025 18:44:21 GMT-0500 (Central Daylight Time),586078.400000006,A,wifeenter,I,enter,163,2,1164.7999999970198,584913.6000000089,8060,WL,B,12.0
5,15.961999893188477,learn,60000.0,Wed Sep 24 2025 18:44:21 GMT-0500 (Central Daylight Time),586344.799999997,A,c,I,c,262,2,266.09999999403954,586078.700000003,8060,WL,B,13.0
5,16.062999963760376,learn,60000.0,Wed Sep 24 2025 18:44:21 GMT-0500 (Central Daylight Time),586446.0,A,cl,I,l,91,2,367.29999999701977,586078.700000003,8060,WL,B,13.0
5,16.294999837875366,learn,60000.0,Wed Sep 24 2025 18:44:21 GMT-0500 (Central Daylight Time),586678.400000006,A,clo,I,o,213,2,599.7000000029802,586078.700000003,8060,WL,B,13.0
5,16.378999948501587,learn,60000.0,Wed Sep 24 2025 18:44:21 GMT-0500 (Central Daylight Time),586761.6000000089,A,cloc,I,c,68,2,682.9000000059605,586078.700000003,8060,WL,B,13.0
5,16.544999837875366,learn,60000.0,Wed Sep 24 2025 18:44:21 GMT-0500 (Central Daylight Time),586928.299999997,A,clock,I,k,154,2,849.5999999940395,586078.700000003,8060,WL,B,13.0
5,16.878000020980835,learn,60000.0,Wed Sep 24 2025 18:44:21 GMT-0500 (Central Daylight Time),587261.200000003,A,clockenter,I,enter,315,2,1182.5,586078.700000003,8060,WL,B,13.0
5,19.610999822616577,learn,60000.0,Wed Sep 24 2025 18:44:21 GMT-0500 (Central Daylight Time),589993.900000006,A,w,I,w,2718,2,2732.4000000059605,587261.5,8060,WL,B,14.0
5,19.759999990463257,learn,60000.0,Wed Sep 24 2025 18:44:21 GMT-0500 (Central Daylight Time),590143.5,A,wi,I,i,129,2,2882.0,587261.5,8060,WL,B,14.0
5,19.893999814987183,learn,60000.0,Wed Sep 24 2025 18:44:21 GMT-0500 (Central Daylight Time),590276.900000006,A,win,I,n,115,2,3015.4000000059605,587261.5,8060,WL,B,14.0
5,20.01099991798401,learn,60000.0,Wed Sep 24 2025 18:44:21 GMT-0500 (Central Daylight Time),590393.700000003,A,wind,I,d,110,2,3132.2000000029802,587261.5,8060,WL,B,14.0
5,20.128000020980835,learn,60000.0,Wed Sep 24 2025 18:44:21 GMT-0500 (Central Daylight Time),590510.6000000089,A,windo,I,o,106,2,3249.1000000089407,587261.5,8060,WL,B,14.0
5,20.393999814987183,learn,60000.0,Wed Sep 24 2025 18:44:21 GMT-0500 (Central Daylight Time),590776.900000006,A,window,I,w,252,2,3515.4000000059605,587261.5,8060,WL,B,14.0
5,20.855000019073486,learn,60000.0,Wed Sep 24 2025 18:44:21 GMT-0500 (Central Daylight Time),591237.799999997,A,windowenter,I,enter,309,2,3976.2999999970198,587261.5,8060,WL,B,14.0
5,20.994999885559082,learn,60000.0,Wed Sep 24 2025 18:44:21 GMT-0500 (Central Daylight Time),591377.700000003,A,d,I,d,119,2,139.59999999403954,591238.1000000089,8060,WL,B,15.0
5,21.26099991798401,learn,60000.0,Wed Sep 24 2025 18:44:21 GMT-0500 (Central Daylight Time),591643.700000003,A,do,I,o,250,2,405.59999999403954,591238.1000000089,8060,WL,B,15.0
5,21.426999807357788,learn,60000.0,Wed Sep 24 2025 18:44:21 GMT-0500 (Central Daylight Time),591809.900000006,A,doo,I,o,160,2,571.7999999970198,591238.1000000089,8060,WL,B,15.0
5,21.57699990272522,learn,60000.0,Wed Sep 24 2025 18:44:21 GMT-0500 (Central Daylight Time),591959.900000006,A,door,I,r,137,2,721.7999999970198,591238.1000000089,8060,WL,B,15.0
5,21.942999839782715,learn,60000.0,Wed Sep 24 2025 18:44:21 GMT-0500 (Central Daylight Time),592326.299999997,A,doorenter,I,enter,347,2,1088.199999988079,591238.1000000089,8060,WL,B,15.0
6,0.36700010299682617,distr,59632.999897003174,Wed Sep 24 2025 18:44:21 GMT-0500 (Central Daylight Time),659172.299999997,B,c,I,c,358,2,366.3999999910593,658805.900000006,8060,WL,B,1.0
6,0.5329999923706055,distr,59467.000007629395,Wed Sep 24 2025 18:44:21 GMT-0500 (Central Daylight Time),659338.6000000089,B,ce,I,e,157,2,532.7000000029802,658805.900000006,8060,WL,B,1.0
6,0.7000000476837158,distr,59299.999952316284,Wed Sep 24 2025 18:44:21 GMT-0500 (Central Daylight Time),659505.6000000089,B,cel,I,l,153,2,699.7000000029802,658805.900000006,8060,WL,B,1.0
6,0.8499999046325684,distr,59150.00009536743,Wed Sep 24 2025 18:44:21 GMT-0500 (Central Daylight Time),659655.200000003,B,cell,I,l,129,2,849.2999999970198,658805.900000006,8060,WL,B,1.0
6,1.1500000953674316,distr,58849.99990463257,Wed Sep 24 2025 18:44:21 GMT-0500 (Central Daylight Time),659955.1000000089,B,cellenter,I,enter,284,2,1149.2000000029802,658805.900000006,8060,WL,B,1.0
6,1.7330000400543213,distr,58266.99995994568,Wed Sep 24 2025 18:44:21 GMT-0500 (Central Daylight Time),660538.6000000089,B,b,I,b,568,2,583.2000000029802,659955.400000006,8060,WL,B,2.0
6,1.8489999771118164,distr,58151.00002288818,Wed Sep 24 2025 18:44:21 GMT-0500 (Central Daylight Time),660655.0,B,ba,I,a,96,2,699.5999999940395,659955.400000006,8060,WL,B,2.0
6,1.9159998893737793,distr,58084.00011062622,Wed Sep 24 2025 18:44:21 GMT-0500 (Central Daylight Time),660721.700000003,B,bab,I,b,52,2,766.2999999970198,659955.400000006,8060,WL,B,2.0
6,2.132999897003174,distr,57867.000102996826,Wed Sep 24 2025 18:44:21 GMT-0500 (Central Daylight Time),660938.299999997,B,baby,I,y,210,2,982.8999999910593,659955.400000006,8060,WL,B,2.0
6,2.3989999294281006,distr,57601.0000705719,Wed Sep 24 2025 18:44:21 GMT-0500 (Central Daylight Time),661205.0,B,babyenter,I,enter,256,2,1249.5999999940395,659955.400000006,8060,WL,B,2.0
6,3.2669999599456787,distr,56733.00004005432,Wed Sep 24 2025 18:44:21 GMT-0500 (Central Daylight Time),662072.5,B,o,I,o,846,2,867.2000000029802,661205.299999997,8060,WL,B,3.0
6,3.431999921798706,distr,56568.000078201294,Wed Sep 24 2025 18:44:21 GMT-0500 (Central Daylight Time),662237.700000003,B,oc,I,c,146,2,1032.4000000059605,661205.299999997,8060,WL,B,3.0
6,3.5820000171661377,distr,56417.99998283386,Wed Sep 24 2025 18:44:21 GMT-0500 (Central Daylight Time),662387.799999997,B,oce,I,e,141,2,1182.5,661205.299999997,8060,WL,B,3.0
6,3.6989998817443848,distr,56301.000118255615,Wed Sep 24 2025 18:44:21 GMT-0500 (Central Daylight Time),662504.400000006,B,ocea,I,a,104,2,1299.1000000089407,661205.299999997,8060,WL,B,3.0
6,3.865000009536743,distr,56134.99999046326,Wed Sep 24 2025 18:44:21 GMT-0500 (Central Daylight Time),662671.0,B,ocean,I,n,146,2,1465.7000000029802,661205.299999997,8060,WL,B,3.0
6,4.065000057220459,distr,55934.99994277954,Wed Sep 24 2025 18:44:21 GMT-0500 (Central Daylight Time),662871.1000000089,B,oceanenter,I,enter,189,2,1665.800000011921,661205.299999997,8060,WL,B,3.0
6,4.5980000495910645,distr,55401.999950408936,Wed Sep 24 2025 18:44:21 GMT-0500 (Central Daylight Time),663404.0,B,a,I,a,524,2,532.5999999940395,662871.400000006,8060,WL,B,4.0
6,4.73199987411499,distr,55268.00012588501,Wed Sep 24 2025 18:44:21 GMT-0500 (Central Daylight Time),663537.5,B,ar,I,r,126,2,666.0999999940395,662871.400000006,8060,WL,B,4.0
6,4.865000009536743,distr,55134.99999046326,Wed Sep 24 2025 18:44:21 GMT-0500 (Central Daylight Time),663670.700000003,B,arm,I,m,122,2,799.2999999970198,662871.400000006,8060,WL,B,4.0
6,5.115000009536743,distr,54884.99999046326,Wed Sep 24 2025 18:44:21 GMT-0500 (Central Daylight Time),663920.400000006,B,army,I,y,245,2,1049.0,662871.400000006,8060,WL,B,4.0
6,5.365000009536743,distr,54634.99999046326,Wed Sep 24 2025 18:44:21 GMT-0500 (Central Daylight Time),664170.5,B,armyenter,I,enter,243,2,1299.0999999940395,662871.400000006,8060,WL,B,4.0
6,5.648000001907349,distr,54351.99999809265,Wed Sep 24 2025 18:44:21 GMT-0500 (Central Daylight Time),664453.900000006,B,f,I,f,273,2,283.1000000089407,664170.799999997,8060,WL,B,5.0
6,5.865000009536743,distr,54134.99999046326,Wed Sep 24 2025 18:44:21 GMT-0500 (Central Daylight Time),664670.400000006,B,fr,I,r,197,2,499.6000000089407,664170.799999997,8060,WL,B,5.0
6,5.947999954223633,distr,54052.00004577637,Wed Sep 24 2025 18:44:21 GMT-0500 (Central Daylight Time),664753.5,B,fri,I,i,77,2,582.7000000029802,664170.799999997,8060,WL,B,5.0
6,6.065000057220459,distr,53934.99994277954,Wed Sep 24 2025 18:44:21 GMT-0500 (Central Daylight Time),664870.6000000089,B,frie,I,e,106,2,699.8000000119209,664170.799999997,8060,WL,B,5.0
6,6.230999946594238,distr,53769.00005340576,Wed Sep 24 2025 18:44:21 GMT-0500 (Central Daylight Time),665036.900000006,B,frien,I,n,157,2,866.1000000089407,664170.799999997,8060,WL,B,5.0
6,6.365000009536743,distr,53634.99999046326,Wed Sep 24 2025 18:44:21 GMT-0500 (Central Daylight Time),665170.299999997,B,friend,I,d,127,2,999.5,664170.799999997,8060,WL,B,5.0
6,6.5309998989105225,distr,53469.00010108948,Wed Sep 24 2025 18:44:21 GMT-0500 (Central Daylight Time),665336.6000000089,B,friendenter,I,enter,161,2,1165.800000011921,664170.799999997,8060,WL,B,5.0
6,6.832000017166138,distr,53167.99998283386,Wed Sep 24 2025 18:44:21 GMT-0500 (Central Daylight Time),665637.1000000089,B,b,I,b,291,2,300.20000000298023,665336.900000006,8060,WL,B,6.0
6,7.54800009727478,distr,52451.99990272522,Wed Sep 24 2025 18:44:21 GMT-0500 (Central Daylight Time),666354.1000000089,B,bu,I,u,710,2,1017.2000000029802,665336.900000006,8060,WL,B,6.0
6,7.71399998664856,distr,52286.00001335144,Wed Sep 24 2025 18:44:21 GMT-0500 (Central Daylight Time),666519.799999997,B,bui,I,i,146,2,1182.8999999910593,665336.900000006,8060,WL,B,6.0
6,7.898000001907349,distr,52101.99999809265,Wed Sep 24 2025 18:44:21 GMT-0500 (Central Daylight Time),666703.299999997,B,buil,I,l,164,2,1366.3999999910593,665336.900000006,8060,WL,B,6.0
6,8.114000082015991,distr,51885.99991798401,Wed Sep 24 2025 18:44:21 GMT-0500 (Central Daylight Time),666919.700000003,B,build,I,d,195,2,1582.7999999970198,665336.900000006,8060,WL,B,6.0
6,8.230999946594238,distr,51769.00005340576,Wed Sep 24 2025 18:44:21 GMT-0500 (Central Daylight Time),667036.5,B,buildi,I,i,100,2,1699.5999999940395,665336.900000006,8060,WL,B,6.0
6,8.414000034332275,distr,51585.999965667725,Wed Sep 24 2025 18:44:21 GMT-0500 (Central Daylight Time),667219.6000000089,B,buildin,I,n,175,2,1882.7000000029802,665336.900000006,8060,WL,B,6.0
6,8.54800009727478,distr,51451.99990272522,Wed Sep 24 2025 18:44:21 GMT-0500 (Central Daylight Time),667353.299999997,B,building,I,g,119,2,2016.3999999910593,665336.900000006,8060,WL,B,6.0
6,8.780999898910522,distr,51219.00010108948,Wed Sep 24 2025 18:44:21 GMT-0500 (Central Daylight Time),667586.400000006,B,buildingenter,I,enter,218,2,2249.5,665336.900000006,8060,WL,B,6.0
6,9.69700002670288,distr,50302.99997329712,Wed Sep 24 2025 18:44:21 GMT-0500 (Central Daylight Time),668502.299999997,B,c,I,c,905,2,915.5,667586.799999997,8060,WL,B,7.0
6,9.747999906539917,distr,50252.00009346008,Wed Sep 24 2025 18:44:21 GMT-0500 (Central Daylight Time),668553.700000003,B,co,I,o,45,2,966.9000000059605,667586.799999997,8060,WL,B,7.0
6,9.846999883651733,distr,50153.00011634827,Wed Sep 24 2025 18:44:21 GMT-0500 (Central Daylight Time),668652.5,B,coi,I,i,82,2,1065.7000000029802,667586.799999997,8060,WL,B,7.0
6,10.04699993133545,distr,49953.00006866455,Wed Sep 24 2025 18:44:21 GMT-0500 (Central Daylight Time),668852.5,B,coin,I,n,191,2,1265.7000000029802,667586.799999997,8060,WL,B,7.0
6,10.346999883651733,distr,49653.00011634827,Wed Sep 24 2025 18:44:21 GMT-0500 (Central Daylight Time),669152.299999997,B,coinenter,I,enter,287,2,1565.5,667586.799999997,8060,WL,B,7.0
6,12.86299991607666,distr,47137.00008392334,Wed Sep 24 2025 18:44:21 GMT-0500 (Central Daylight Time),671668.5,B,r,I,r,2499,2,2515.8999999910593,669152.6000000089,8060,WL,B,8.0
6,12.963000059127808,distr,47036.99994087219,Wed Sep 24 2025 18:44:21 GMT-0500 (Central Daylight Time),671768.299999997,B,ro,I,o,87,2,2615.699999988079,669152.6000000089,8060,WL,B,8.0
6,13.11299991607666,distr,46887.00008392334,Wed Sep 24 2025 18:44:21 GMT-0500 (Central Daylight Time),671918.200000003,B,roc,I,c,139,2,2765.5999999940395,669152.6000000089,8060,WL,B,8.0
6,13.196000099182129,distr,46803.99990081787,Wed Sep 24 2025 18:44:21 GMT-0500 (Central Daylight Time),672001.5,B,rock,I,k,69,2,2848.8999999910593,669152.6000000089,8060,WL,B,8.0
6,13.479000091552734,distr,46520.999908447266,Wed Sep 24 2025 18:44:21 GMT-0500 (Central Daylight Time),672284.700000003,B,rockenter,I,enter,265,2,3132.0999999940395,669152.6000000089,8060,WL,B,8.0
6,20.210000038146973,distr,39789.99996185303,Wed Sep 24 2025 18:44:21 GMT-0500 (Central Daylight Time),679016.1000000089,B,p,I,p,6727,2,6731.0,672285.1000000089,8060,WL,B,9.0
6,20.344000101089478,distr,39655.99989891052,Wed Sep 24 2025 18:44:21 GMT-0500 (Central Daylight Time),679149.400000006,B,pa,I,a,123,2,6864.29999999702,672285.1000000089,8060,WL,B,9.0
6,20.509999990463257,distr,39490.00000953674,Wed Sep 24 2025 18:44:21 GMT-0500 (Central Daylight Time),679315.900000006,B,pal,I,l,150,2,7030.79999999702,672285.1000000089,8060,WL,B,9.0
6,20.609999895095825,distr,39390.000104904175,Wed Sep 24 2025 18:44:21 GMT-0500 (Central Daylight Time),679415.700000003,B,pala,I,a,80,2,7130.5999999940395,672285.1000000089,8060,WL,B,9.0
6,20.943000078201294,distr,39056.999921798706,Wed Sep 24 2025 18:44:21 GMT-0500 (Central Daylight Time),679749.0,B,palac,I,c,324,2,7463.899999991059,672285.1000000089,8060,WL,B,9.0
6,21.07699990272522,distr,38923.00009727478,Wed Sep 24 2025 18:44:21 GMT-0500 (Central Daylight Time),679882.299999997,B,palace,I,e,118,2,7597.199999988079,672285.1000000089,8060,WL,B,9.0
6,21.977999925613403,distr,38022.0000743866,Wed Sep 24 2025 18:44:21 GMT-0500 (Central Daylight Time),680783.299999997,B,palaceenter,I,enter,881,2,8498.199999988079,672285.1000000089,8060,WL,B,9.0
6,27.257999897003174,distr,32742.000102996826,Wed Sep 24 2025 18:44:21 GMT-0500 (Central Daylight Time),686063.700000003,B,c,I,c,5268,2,5280.0999999940395,680783.6000000089,8060,WL,B,10.0
6,27.52500009536743,distr,32474.99990463257,Wed Sep 24 2025 18:44:21 GMT-0500 (Central Daylight Time),686330.299999997,B,ce,I,e,251,2,5546.699999988079,680783.6000000089,8060,WL,B,10.0
6,28.223999977111816,distr,31776.000022888184,Wed Sep 24 2025 18:44:21 GMT-0500 (Central Daylight Time),687029.900000006,B,c,I,backspace,688,2,6246.29999999702,680783.6000000089,8060,WL,B,10.0
6,28.424000024795532,distr,31575.999975204468,Wed Sep 24 2025 18:44:21 GMT-0500 (Central Daylight Time),687230.1000000089,B,,I,backspace,190,2,6446.5,680783.6000000089,8060,WL,B,10.0
6,38.00499987602234,distr,21995.00012397766,Wed Sep 24 2025 18:44:21 GMT-0500 (Central Daylight Time),696810.299999997,B,d,I,d,9574,2,16026.699999988079,680783.6000000089,8060,WL,B,10.0
6,38.22099995613098,distr,21779.00004386902,Wed Sep 24 2025 18:44:21 GMT-0500 (Central Daylight Time),697027.200000003,B,dr,I,r,201,2,16243.59999999404,680783.6000000089,8060,WL,B,10.0
6,38.33800005912781,distr,21661.999940872192,Wed Sep 24 2025 18:44:21 GMT-0500 (Central Daylight Time),697143.400000006,B,dre,I,e,104,2,16359.79999999702,680783.6000000089,8060,WL,B,10.0
6,38.520999908447266,distr,21479.000091552734,Wed Sep 24 2025 18:44:21 GMT-0500 (Central Daylight Time),697326.900000006,B,dres,I,s,163,2,16543.29999999702,680783.6000000089,8060,WL,B,10.0
6,38.65499997138977,distr,21345.00002861023,Wed Sep 24 2025 18:44:21 GMT-0500 (Central Daylight Time),697460.299999997,B,dress,I,s,116,2,16676.69999998808,680783.6000000089,8060,WL,B,10.0
6,38.854000091552734,distr,21145.999908447266,Wed Sep 24 2025 18:44:21 GMT-0500 (Central Daylight Time),697659.900000006,B,dressenter,I,enter,184,2,16876.29999999702,680783.6000000089,8060,WL,B,10.0
6,44.18600010871887,distr,15813.999891281128,Wed Sep 24 2025 18:44:21 GMT-0500 (Central Daylight Time),702991.6000000089,B,s,I,s,5327,2,5331.4000000059605,697660.200000003,8060,WL,B,11.0
6,44.36899995803833,distr,15631.00004196167,Wed Sep 24 2025 18:44:21 GMT-0500 (Central Daylight Time),703175.1000000089,B,st,I,t,171,2,5514.9000000059605,697660.200000003,8060,WL,B,11.0
6,44.486000061035156,distr,15513.999938964844,Wed Sep 24 2025 18:44:21 GMT-0500 (Central Daylight Time),703291.700000003,B,ste,I,e,109,2,5631.5,697660.200000003,8060,WL,B,11.0
6,44.6029999256134,distr,15397.000074386597,Wed Sep 24 2025 18:44:21 GMT-0500 (Central Daylight Time),703408.400000006,B,stea,I,a,104,2,5748.20000000298,697660.200000003,8060,WL,B,11.0
6,44.80299997329712,distr,15197.00002670288,Wed Sep 24 2025 18:44:21 GMT-0500 (Central Daylight Time),703608.5,B,steam,I,m,179,2,5948.29999999702,697660.200000003,8060,WL,B,11.0
6,45.11899995803833,distr,14881.00004196167,Wed Sep 24 2025 18:44:21 GMT-0500 (Central Daylight Time),703924.799999997,B,steamenter,I,enter,299,2,6264.5999999940395,697660.200000003,8060,WL,B,11.0
6,60.015000104904175,distr,-15.000104904174805,Wed Sep 24 2025 18:44:21 GMT-0500 (Central Daylight Time),718820.299999997,B,None,I,None,14891,2,14895.199999988079,703925.1000000089,8060,WL,B,12.0
7,0.5339999198913574,immed,59466.00008010864,Wed Sep 24 2025 18:44:21 GMT-0500 (Central Daylight Time),736614.5,A,s,I,s,514,2,533.0,736081.5,8060,WL,B,1.0
7,0.68399977684021,immed,59316.00022315979,Wed Sep 24 2025 18:44:21 GMT-0500 (Central Daylight Time),736764.5,A,st,I,t,140,2,683.0,736081.5,8060,WL,B,1.0
7,0.8829998970031738,immed,59117.000102996826,Wed Sep 24 2025 18:44:21 GMT-0500 (Central Daylight Time),736964.299999997,A,str,I,r,191,2,882.7999999970198,736081.5,8060,WL,B,1.0
7,1.0,immed,59000.0,Wed Sep 24 2025 18:44:21 GMT-0500 (Central Daylight Time),737080.700000003,A,stre,I,e,111,2,999.2000000029802,736081.5,8060,WL,B,1.0
7,1.1999998092651367,immed,58800.00019073486,Wed Sep 24 2025 18:44:21 GMT-0500 (Central Daylight Time),737280.6000000089,A,stree,I,e,195,2,1199.1000000089407,736081.5,8060,WL,B,1.0
7,1.366999864578247,immed,58633.00013542175,Wed Sep 24 2025 18:44:21 GMT-0500 (Central Daylight Time),737447.6000000089,A,street,I,t,154,2,1366.1000000089407,736081.5,8060,WL,B,1.0
7,1.5829999446868896,immed,58417.00005531311,Wed Sep 24 2025 18:44:21 GMT-0500 (Central Daylight Time),737664.400000006,A,streetenter,I,enter,212,2,1582.9000000059605,736081.5,8060,WL,B,1.0
7,1.932999849319458,immed,58067.00015068054,Wed Sep 24 2025 18:44:21 GMT-0500 (Central Daylight Time),738014.299999997,A,g,I,g,339,2,349.69999998807907,737664.6000000089,8060,WL,B,2.0
7,2.132999897003174,immed,57867.000102996826,Wed Sep 24 2025 18:44:21 GMT-0500 (Central Daylight Time),738213.900000006,A,gr,I,r,181,2,549.2999999970198,737664.6000000089,8060,WL,B,2.0
7,2.1999998092651367,immed,57800.00019073486,Wed Sep 24 2025 18:44:21 GMT-0500 (Central Daylight Time),738280.799999997,A,gra,I,a,54,2,616.1999999880791,737664.6000000089,8060,WL,B,2.0
7,2.382999897003174,immed,57617.000102996826,Wed Sep 24 2025 18:44:21 GMT-0500 (Central Daylight Time),738464.0,A,gras,I,s,163,2,799.3999999910593,737664.6000000089,8060,WL,B,2.0
7,2.5329999923706055,immed,57467.000007629395,Wed Sep 24 2025 18:44:21 GMT-0500 (Central Daylight Time),738613.900000006,A,grass,I,s,138,2,949.2999999970198,737664.6000000089,8060,WL,B,2.0
7,2.6999998092651367,immed,57300.00019073486,Wed Sep 24 2025 18:44:21 GMT-0500 (Central Daylight Time),738780.700000003,A,grassenter,I,enter,150,2,1116.0999999940395,737664.6000000089,8060,WL,B,2.0
7,2.932999849319458,immed,57067.00015068054,Wed Sep 24 2025 18:44:21 GMT-0500 (Central Daylight Time),739014.0,A,c,I,c,223,2,233.0,738781.0,8060,WL,B,3.0
7,3.0329999923706055,immed,56967.000007629395,Wed Sep 24 2025 18:44:21 GMT-0500 (Central Daylight Time),739113.700000003,A,ci,I,i,94,2,332.70000000298023,738781.0,8060,WL,B,3.0
7,3.2159998416900635,immed,56784.00015830994,Wed Sep 24 2025 18:44:21 GMT-0500 (Central Daylight Time),739296.799999997,A,cit,I,t,178,2,515.7999999970198,738781.0,8060,WL,B,3.0
7,3.365999937057495,immed,56634.000062942505,Wed Sep 24 2025 18:44:21 GMT-0500 (Central Daylight Time),739447.0,A,city,I,y,139,2,666.0,738781.0,8060,WL,B,3.0
7,3.631999969482422,immed,56368.00003051758,Wed Sep 24 2025 18:44:21 GMT-0500 (Central Daylight Time),739713.299999997,A,cityenter,I,enter,261,2,932.2999999970198,738781.0,8060,WL,B,3.0
7,4.0329999923706055,immed,55967.000007629395,Wed Sep 24 2025 18:44:21 GMT-0500 (Central Daylight Time),740113.5,A,a,I,a,394,2,399.8999999910593,739713.6000000089,8060,WL,B,4.0
7,4.2159998416900635,immed,55784.00015830994,Wed Sep 24 2025 18:44:21 GMT-0500 (Central Daylight Time),740296.799999997,A,ar,I,r,170,2,583.1999999880791,739713.6000000089,8060,WL,B,4.0
7,4.398999929428101,immed,55601.0000705719,Wed Sep 24 2025 18:44:21 GMT-0500 (Central Daylight Time),740480.1000000089,A,arm,I,m,163,2,766.5,739713.6000000089,8060,WL,B,4.0
7,4.598999977111816,immed,55401.00002288818,Wed Sep 24 2025 18:44:21 GMT-0500 (Central Daylight Time),740680.0,A,armenter,I,enter,179,2,966.3999999910593,739713.6000000089,8060,WL,B,4.0
7,4.73199987411499,immed,55268.00012588501,Wed Sep 24 2025 18:44:21 GMT-0500 (Central Daylight Time),740813.0,A,s,I,s,116,2,132.70000000298023,740680.299999997,8060,WL,B,5.0
7,4.881999969482422,immed,55118.00003051758,Wed Sep 24 2025 18:44:21 GMT-0500 (Central Daylight Time),740963.1000000089,A,sk,I,k,134,2,282.80000001192093,740680.299999997,8060,WL,B,5.0
7,5.081999778747559,immed,54918.00022125244,Wed Sep 24 2025 18:44:21 GMT-0500 (Central Daylight Time),741162.900000006,A,ski,I,i,184,2,482.6000000089407,740680.299999997,8060,WL,B,5.0
7,5.23199987411499,immed,54768.00012588501,Wed Sep 24 2025 18:44:21 GMT-0500 (Central Daylight Time),741313.0,A,skin,I,n,136,2,632.7000000029802,740680.299999997,8060,WL,B,5.0
7,5.431999921798706,immed,54568.000078201294,Wed Sep 24 2025 18:44:21 GMT-0500 (Central Daylight Time),741512.700000003,A,skinenter,I,enter,194,2,832.4000000059605,740680.299999997,8060,WL,B,5.0
7,5.7149999141693115,immed,54285.00008583069,Wed Sep 24 2025 18:44:21 GMT-0500 (Central Daylight Time),741796.299999997,A,p,I,p,267,2,283.29999999701977,741513.0,8060,WL,B,6.0
7,5.865000009536743,immed,54134.99999046326,Wed Sep 24 2025 18:44:21 GMT-0500 (Central Daylight Time),741946.1000000089,A,pi,I,i,135,2,433.1000000089407,741513.0,8060,WL,B,6.0
7,6.014999866485596,immed,53985.000133514404,Wed Sep 24 2025 18:44:21 GMT-0500 (Central Daylight Time),742096.1000000089,A,pip,I,p,129,2,583.1000000089407,741513.0,8060,WL,B,6.0
7,6.198999881744385,immed,53801.000118255615,Wed Sep 24 2025 18:44:21 GMT-0500 (Central Daylight Time),742279.6000000089,A,pipe,I,e,170,2,766.6000000089407,741513.0,8060,WL,B,6.0
7,6.381999969482422,immed,53618.00003051758,Wed Sep 24 2025 18:44:21 GMT-0500 (Central Daylight Time),742462.799999997,A,pipeenter,I,enter,164,2,949.7999999970198,741513.0,8060,WL,B,6.0
7,7.4649999141693115,immed,52535.00008583069,Wed Sep 24 2025 18:44:21 GMT-0500 (Central Daylight Time),743545.5,A,p,I,p,1069,2,1082.3999999910593,742463.1000000089,8060,WL,B,7.0
7,7.697999954223633,immed,52302.00004577637,Wed Sep 24 2025 18:44:21 GMT-0500 (Central Daylight Time),743779.0,A,pu,I,u,218,2,1315.8999999910593,742463.1000000089,8060,WL,B,7.0
7,7.865000009536743,immed,52134.99999046326,Wed Sep 24 2025 18:44:21 GMT-0500 (Central Daylight Time),743945.5,A,pup,I,p,161,2,1482.3999999910593,742463.1000000089,8060,WL,B,7.0
7,8.06499981880188,immed,51935.00018119812,Wed Sep 24 2025 18:44:21 GMT-0500 (Central Daylight Time),744145.5,A,pupi,I,i,194,2,1682.3999999910593,742463.1000000089,8060,WL,B,7.0
7,8.247999906539917,immed,51752.00009346008,Wed Sep 24 2025 18:44:21 GMT-0500 (Central Daylight Time),744328.900000006,A,pupil,I,l,170,2,1865.7999999970198,742463.1000000089,8060,WL,B,7.0
7,8.664999961853027,immed,51335.00003814697,Wed Sep 24 2025 18:44:21 GMT-0500 (Central Daylight Time),744745.799999997,A,pupilenter,I,enter,403,2,2282.699999988079,742463.1000000089,8060,WL,B,7.0
7,8.830999851226807,immed,51169.00014877319,Wed Sep 24 2025 18:44:21 GMT-0500 (Central Daylight Time),744911.900000006,A,s,I,s,162,2,165.90000000596046,744746.0,8060,WL,B,8.0
7,9.047999858856201,immed,50952.0001411438,Wed Sep 24 2025 18:44:21 GMT-0500 (Central Daylight Time),745128.700000003,A,st,I,t,204,2,382.70000000298023,744746.0,8060,WL,B,8.0
7,9.163999795913696,immed,50836.000204086304,Wed Sep 24 2025 18:44:21 GMT-0500 (Central Daylight Time),745245.299999997,A,sta,I,a,107,2,499.29999999701977,744746.0,8060,WL,B,8.0
7,9.346999883651733,immed,50653.00011634827,Wed Sep 24 2025 18:44:21 GMT-0500 (Central Daylight Time),745428.299999997,A,star,I,r,174,2,682.2999999970198,744746.0,8060,WL,B,8.0
7,9.54699993133545,immed,50453.00006866455,Wed Sep 24 2025 18:44:21 GMT-0500 (Central Daylight Time),745628.400000006,A,starenter,I,enter,190,2,882.4000000059605,744746.0,8060,WL,B,8.0
7,9.846999883651733,immed,50153.00011634827,Wed Sep 24 2025 18:44:21 GMT-0500 (Central Daylight Time),745928.1000000089,A,c,I,c,287,2,299.30000001192093,745628.799999997,8060,WL,B,9.0
7,9.980999946594238,immed,50019.00005340576,Wed Sep 24 2025 18:44:21 GMT-0500 (Central Daylight Time),746061.400000006,A,ca,I,a,116,2,432.6000000089407,745628.799999997,8060,WL,B,9.0
7,10.163999795913696,immed,49836.000204086304,Wed Sep 24 2025 18:44:21 GMT-0500 (Central Daylight Time),746244.700000003,A,cab,I,b,173,2,615.9000000059605,745628.799999997,8060,WL,B,9.0
7,10.596999883651733,immed,49403.00011634827,Wed Sep 24 2025 18:44:21 GMT-0500 (Central Daylight Time),746678.0,A,cabi,I,i,422,2,1049.2000000029802,745628.799999997,8060,WL,B,9.0
7,10.913999795913696,immed,49086.000204086304,Wed Sep 24 2025 18:44:21 GMT-0500 (Central Daylight Time),746994.6000000089,A,cabin,I,n,302,2,1365.800000011921,745628.799999997,8060,WL,B,9.0
7,11.146999835968018,immed,48853.00016403198,Wed Sep 24 2025 18:44:21 GMT-0500 (Central Daylight Time),747227.900000006,A,cabinenter,I,enter,225,2,1599.1000000089407,745628.799999997,8060,WL,B,9.0
7,11.46399998664856,immed,48536.00001335144,Wed Sep 24 2025 18:44:21 GMT-0500 (Central Daylight Time),747544.5,A,l,I,l,304,2,316.29999999701977,747228.200000003,8060,WL,B,10.0
7,11.52999997138977,immed,48470.00002861023,Wed Sep 24 2025 18:44:21 GMT-0500 (Central Daylight Time),747611.299999997,A,la,I,a,51,2,383.09999999403954,747228.200000003,8060,WL,B,10.0
7,11.696999788284302,immed,48303.0002117157,Wed Sep 24 2025 18:44:21 GMT-0500 (Central Daylight Time),747777.900000006,A,lak,I,k,151,2,549.7000000029802,747228.200000003,8060,WL,B,10.0
7,11.813999891281128,immed,48186.00010871887,Wed Sep 24 2025 18:44:21 GMT-0500 (Central Daylight Time),747894.5,A,lake,I,e,106,2,666.2999999970198,747228.200000003,8060,WL,B,10.0
7,12.02999997138977,immed,47970.00002861023,Wed Sep 24 2025 18:44:21 GMT-0500 (Central Daylight Time),748111.0,A,lakeenter,I,enter,205,2,882.7999999970198,747228.200000003,8060,WL,B,10.0
7,12.562999963760376,immed,47437.000036239624,Wed Sep 24 2025 18:44:21 GMT-0500 (Central Daylight Time),748644.1000000089,A,f,I,f,524,2,532.8000000119209,748111.299999997,8060,WL,B,11.0
7,12.729999780654907,immed,47270.00021934509,Wed Sep 24 2025 18:44:21 GMT-0500 (Central Daylight Time),748810.799999997,A,fi,I,i,158,2,699.5,748111.299999997,8060,WL,B,11.0
7,12.845999956130981,immed,47154.00004386902,Wed Sep 24 2025 18:44:21 GMT-0500 (Central Daylight Time),748927.1000000089,A,fir,I,r,96,2,815.8000000119209,748111.299999997,8060,WL,B,11.0
7,12.979999780654907,immed,47020.00021934509,Wed Sep 24 2025 18:44:21 GMT-0500 (Central Daylight Time),749060.6000000089,A,fire,I,e,117,2,949.3000000119209,748111.299999997,8060,WL,B,11.0
7,13.312999963760376,immed,46687.000036239624,Wed Sep 24 2025 18:44:21 GMT-0500 (Central Daylight Time),749393.900000006,A,fireenter,I,enter,319,2,1282.6000000089407,748111.299999997,8060,WL,B,11.0
7,14.178999900817871,immed,45821.00009918213,Wed Sep 24 2025 18:44:21 GMT-0500 (Central Daylight Time),750260.299999997,A,w,I,w,850,2,866.0999999940395,749394.200000003,8060,WL,B,12.0
7,14.263000011444092,immed,45736.99998855591,Wed Sep 24 2025 18:44:21 GMT-0500 (Central Daylight Time),750343.400000006,A,wi,I,i,62,2,949.2000000029802,749394.200000003,8060,WL,B,12.0
