acc_sum,block,block_c,change,condition,correct,correct_response,datetime,endtime,face,project,response,response_time,row_sel,session_number,start_end,starttime,subject_id,task,task_vers,trial
0,prac,1,,1-Back,,,Fri Nov 14 2025 14:12:03 GMT-0600 (Central Standard Time),,012_o_f_d_a.png,O,space,3754,1,,,,7240,VNB,C,0
1,prac,1,0.0,1-Back,1.0,m,Fri Nov 14 2025 14:12:03 GMT-0600 (Central Standard Time),122208.39999997616,022_y_f_n_a.png,O,m,934,2,,1793.0,120415.39999997616,7240,VNB,C,1
2,prac,1,0.0,1-Back,1.0,m,Fri Nov 14 2025 14:12:03 GMT-0600 (Central Standard Time),123890.70000004768,014_m_m_h_a.png,O,m,832,3,,1676.0,122214.70000004768,7240,VNB,C,2
3,prac,1,0.0,1-Back,1.0,m,Fri Nov 14 2025 14:12:03 GMT-0600 (Central Standard Time),125490.79999995232,025_y_m_d_a.png,O,m,735,4,,1590.1999999284744,123900.60000002384,7240,VNB,C,3
4,prac,1,0.0,1-Back,1.0,m,Fri Nov 14 2025 14:12:03 GMT-0600 (Central Standard Time),127306.20000004768,012_o_f_n_a.png,O,m,964,5,,1809.7000000476837,125496.5,7240,VNB,C,4
5,prac,1,1.0,1-Back,1.0,z,Fri Nov 14 2025 14:12:03 GMT-0600 (Central Standard Time),129006.89999997616,025_y_m_n_a.png,O,z,849,6,,1693.6000000238419,127313.29999995232,7240,VNB,C,5
6,prac,1,0.0,1-Back,1.0,m,Fri Nov 14 2025 14:12:03 GMT-0600 (Central Standard Time),130588.29999995232,015_o_m_h_a.png,O,m,711,7,,1575.6999999284744,129012.60000002384,7240,VNB,C,6
7,prac,1,0.0,1-Back,1.0,m,Fri Nov 14 2025 14:12:03 GMT-0600 (Central Standard Time),132055.0,019_m_f_d_a.png,O,m,593,8,,1459.7999999523163,130595.20000004768,7240,VNB,C,7
8,prac,1,1.0,1-Back,1.0,z,Fri Nov 14 2025 14:12:03 GMT-0600 (Central Standard Time),133604.10000002384,022_y_f_d_a.png,O,z,685,9,,1540.8999999761581,132063.20000004768,7240,VNB,C,8
9,prac,1,0.0,1-Back,1.0,m,Fri Nov 14 2025 14:12:03 GMT-0600 (Central Standard Time),135272.29999995232,014_m_m_n_a.png,O,m,819,10,,1661.3999999761581,133610.89999997616,7240,VNB,C,9
10,prac,1,0.0,1-Back,1.0,m,Fri Nov 14 2025 14:12:03 GMT-0600 (Central Standard Time),136937.0,012_o_f_h_a.png,O,m,797,11,,1657.7999999523163,135279.20000004768,7240,VNB,C,10
11,prac,1,0.0,1-Back,1.0,m,Fri Nov 14 2025 14:12:03 GMT-0600 (Central Standard Time),138319.89999997616,025_y_m_d_a.png,O,m,525,12,,1374.7999999523163,136945.10000002384,7240,VNB,C,11
0,test,1,0.0,1-Back,,,Fri Nov 14 2025 14:12:03 GMT-0600 (Central Standard Time),138319.89999997616,022_y_f_d_a.png,O,space,5570,1,,1374.7999999523163,136945.10000002384,7240,VNB,C,0
1,test,1,0.0,1-Back,1.0,m,Fri Nov 14 2025 14:12:03 GMT-0600 (Central Standard Time),152915.29999995232,019_m_f_n_a.png,O,m,876,2,,1895.3999999761581,151019.89999997616,7240,VNB,C,1
2,test,1,0.0,1-Back,1.0,m,Fri Nov 14 2025 14:12:03 GMT-0600 (Central Standard Time),154681.70000004768,015_o_m_h_a.png,O,m,744,3,,1761.8000000715256,152919.89999997616,7240,VNB,C,2
3,test,1,1.0,1-Back,1.0,z,Fri Nov 14 2025 14:12:03 GMT-0600 (Central Standard Time),156297.0,014_m_m_h_a.png,O,z,587,4,,1612.0,154685.0,7240,VNB,C,3
4,test,1,0.0,1-Back,1.0,m,Fri Nov 14 2025 14:12:03 GMT-0600 (Central Standard Time),157913.29999995232,012_o_f_n_a.png,O,m,586,5,,1611.8999999761581,156301.39999997616,7240,VNB,C,4
5,test,1,0.0,1-Back,1.0,m,Fri Nov 14 2025 14:12:03 GMT-0600 (Central Standard Time),159480.0,025_y_m_d_a.png,O,m,546,6,,1562.8999999761581,157917.10000002384,7240,VNB,C,5
6,test,1,1.0,1-Back,1.0,z,Fri Nov 14 2025 14:12:03 GMT-0600 (Central Standard Time),161045.60000002384,019_m_f_d_a.png,O,z,539,7,,1562.3999999761581,159483.20000004768,7240,VNB,C,6
7,test,1,0.0,1-Back,1.0,m,Fri Nov 14 2025 14:12:03 GMT-0600 (Central Standard Time),162729.0,022_y_f_h_a.png,O,m,653,8,,1680.0,161049.0,7240,VNB,C,7
8,test,1,0.0,1-Back,1.0,m,Fri Nov 14 2025 14:12:03 GMT-0600 (Central Standard Time),164395.0,015_o_m_n_a.png,O,m,634,9,,1663.0,162732.0,7240,VNB,C,8
9,test,1,0.0,1-Back,1.0,m,Fri Nov 14 2025 14:12:03 GMT-0600 (Central Standard Time),166144.20000004768,025_y_m_h_a.png,O,m,729,10,,1745.9000000953674,164398.29999995232,7240,VNB,C,9
10,test,1,0.0,1-Back,1.0,m,Fri Nov 14 2025 14:12:03 GMT-0600 (Central Standard Time),167660.89999997616,015_o_m_d_a.png,O,m,483,11,,1512.7999999523163,166148.10000002384,7240,VNB,C,10
11,test,1,1.0,1-Back,1.0,z,Fri Nov 14 2025 14:12:03 GMT-0600 (Central Standard Time),169293.0,012_o_f_d_a.png,O,z,607,12,,1629.0,167664.0,7240,VNB,C,11
12,test,1,0.0,1-Back,1.0,m,Fri Nov 14 2025 14:12:03 GMT-0600 (Central Standard Time),170976.29999995232,014_m_m_n_a.png,O,m,654,13,,1680.2999999523163,169296.0,7240,VNB,C,12
13,test,1,1.0,1-Back,1.0,z,Fri Nov 14 2025 14:12:03 GMT-0600 (Central Standard Time),172625.60000002384,022_y_f_n_a.png,O,z,619,14,,1645.7000000476837,170979.89999997616,7240,VNB,C,13
14,test,1,0.0,1-Back,1.0,m,Fri Nov 14 2025 14:12:03 GMT-0600 (Central Standard Time),174241.20000004768,019_m_f_h_a.png,O,m,586,15,,1612.3000000715256,172628.89999997616,7240,VNB,C,14
15,test,1,0.0,1-Back,1.0,m,Fri Nov 14 2025 14:12:03 GMT-0600 (Central Standard Time),175857.70000004768,014_m_m_d_a.png,O,m,586,16,,1613.1000000238419,174244.60000002384,7240,VNB,C,15
16,test,1,0.0,1-Back,1.0,m,Fri Nov 14 2025 14:12:03 GMT-0600 (Central Standard Time),177557.79999995232,025_y_m_n_a.png,O,m,682,17,,1696.6999999284744,175861.10000002384,7240,VNB,C,16
17,test,1,0.0,1-Back,1.0,m,Fri Nov 14 2025 14:12:03 GMT-0600 (Central Standard Time),179106.20000004768,012_o_f_h_a.png,O,m,526,18,,1544.8000000715256,177561.39999997616,7240,VNB,C,17
0,test,2,0.0,1-Back,,,Fri Nov 14 2025 14:12:03 GMT-0600 (Central Standard Time),179106.20000004768,025_y_m_n_a.png,O,space,1025,1,,1544.8000000715256,177561.39999997616,7240,VNB,C,0
1,test,2,0.0,1-Back,1.0,m,Fri Nov 14 2025 14:12:03 GMT-0600 (Central Standard Time),183938.39999997616,022_y_f_h_a.png,O,m,759,2,,1778.2999999523163,182160.10000002384,7240,VNB,C,1
2,test,2,1.0,1-Back,1.0,m,Fri Nov 14 2025 14:12:03 GMT-0600 (Central Standard Time),185471.39999997616,015_o_m_n_a.png,O,m,513,3,,1529.1999999284744,183942.20000004768,7240,VNB,C,2
3,test,2,0.0,1-Back,1.0,m,Fri Nov 14 2025 14:12:03 GMT-0600 (Central Standard Time),187320.60000002384,019_m_f_d_a.png,O,m,820,4,,1846.0,185474.60000002384,7240,VNB,C,3
3,test,2,0.0,1-Back,0.0,z,Fri Nov 14 2025 14:12:03 GMT-0600 (Central Standard Time),188904.29999995232,014_m_m_d_a.png,O,m,563,5,,1579.7999999523163,187324.5,7240,VNB,C,4
4,test,2,0.0,1-Back,1.0,m,Fri Nov 14 2025 14:12:03 GMT-0600 (Central Standard Time),190653.79999995232,025_y_m_h_a.png,O,m,723,6,,1746.3999999761581,188907.39999997616,7240,VNB,C,5
5,test,2,1.0,1-Back,1.0,z,Fri Nov 14 2025 14:12:03 GMT-0600 (Central Standard Time),192085.89999997616,012_o_f_h_a.png,O,z,406,7,,1428.8999999761581,190657.0,7240,VNB,C,6
6,test,2,0.0,1-Back,1.0,m,Fri Nov 14 2025 14:12:03 GMT-0600 (Central Standard Time),193735.89999997616,019_m_f_n_a.png,O,m,629,8,,1646.6000000238419,192089.29999995232,7240,VNB,C,7
7,test,2,0.0,1-Back,1.0,m,Fri Nov 14 2025 14:12:03 GMT-0600 (Central Standard Time),195402.29999995232,022_y_f_d_a.png,O,m,636,9,,1663.1999999284744,193739.10000002384,7240,VNB,C,8
8,test,2,0.0,1-Back,1.0,m,Fri Nov 14 2025 14:12:03 GMT-0600 (Central Standard Time),197285.10000002384,014_m_m_n_a.png,O,m,866,10,,1878.8999999761581,195406.20000004768,7240,VNB,C,9
9,test,2,1.0,1-Back,1.0,m,Fri Nov 14 2025 14:12:03 GMT-0600 (Central Standard Time),198950.39999997616,019_m_f_h_a.png,O,m,646,11,,1661.6000000238419,197288.79999995232,7240,VNB,C,10
10,test,2,0.0,1-Back,1.0,z,Fri Nov 14 2025 14:12:03 GMT-0600 (Central Standard Time),200616.70000004768,015_o_m_h_a.png,O,z,636,12,,1663.3000000715256,198953.39999997616,7240,VNB,C,11
11,test,2,0.0,1-Back,1.0,m,Fri Nov 14 2025 14:12:03 GMT-0600 (Central Standard Time),202333.20000004768,025_y_m_d_a.png,O,m,698,13,,1713.4000000953674,200619.79999995232,7240,VNB,C,12
12,test,2,0.0,1-Back,1.0,m,Fri Nov 14 2025 14:12:03 GMT-0600 (Central Standard Time),204165.39999997616,012_o_f_n_a.png,O,m,804,14,,1828.8999999761581,202336.5,7240,VNB,C,13
13,test,2,0.0,1-Back,1.0,z,Fri Nov 14 2025 14:12:03 GMT-0600 (Central Standard Time),205914.5,022_y_f_n_a.png,O,z,726,15,,1744.6000000238419,204169.89999997616,7240,VNB,C,14
14,test,2,1.0,1-Back,1.0,m,Fri Nov 14 2025 14:12:03 GMT-0600 (Central Standard Time),207497.60000002384,014_m_m_h_a.png,O,m,553,16,,1579.3999999761581,205918.20000004768,7240,VNB,C,15
15,test,2,0.0,1-Back,1.0,m,Fri Nov 14 2025 14:12:03 GMT-0600 (Central Standard Time),209048.29999995232,012_o_f_d_a.png,O,m,522,17,,1545.2999999523163,207503.0,7240,VNB,C,16
16,test,2,1.0,1-Back,1.0,z,Fri Nov 14 2025 14:12:03 GMT-0600 (Central Standard Time),211014.20000004768,015_o_m_d_a.png,O,z,938,18,,1962.7000000476837,209051.5,7240,VNB,C,17
0,test,3,1.0,1-Back,,,Fri Nov 14 2025 14:12:03 GMT-0600 (Central Standard Time),211014.20000004768,012_o_f_h_a.png,O,space,732,1,,1962.7000000476837,209051.5,7240,VNB,C,0
1,test,3,0.0,1-Back,1.0,m,Fri Nov 14 2025 14:12:03 GMT-0600 (Central Standard Time),215479.5,019_m_f_d_a.png,O,m,588,2,,1613.7000000476837,213865.79999995232,7240,VNB,C,1
2,test,3,1.0,1-Back,1.0,m,Fri Nov 14 2025 14:12:03 GMT-0600 (Central Standard Time),217095.10000002384,014_m_m_n_a.png,O,m,597,3,,1611.6000000238419,215483.5,7240,VNB,C,2
3,test,3,0.0,1-Back,1.0,z,Fri Nov 14 2025 14:12:03 GMT-0600 (Central Standard Time),218711.10000002384,012_o_f_n_a.png,O,z,580,4,,1612.2000000476837,217098.89999997616,7240,VNB,C,3
4,test,3,1.0,1-Back,1.0,m,Fri Nov 14 2025 14:12:03 GMT-0600 (Central Standard Time),220293.39999997616,015_o_m_d_a.png,O,m,564,5,,1577.8999999761581,218715.5,7240,VNB,C,4
5,test,3,0.0,1-Back,1.0,m,Fri Nov 14 2025 14:12:03 GMT-0600 (Central Standard Time),222077.20000004768,022_y_f_h_a.png,O,m,765,6,,1780.6000000238419,220296.60000002384,7240,VNB,C,5
6,test,3,0.0,1-Back,1.0,z,Fri Nov 14 2025 14:12:03 GMT-0600 (Central Standard Time),223459.79999995232,025_y_m_h_a.png,O,z,366,7,,1379.2999999523163,222080.5,7240,VNB,C,6
7,test,3,0.0,1-Back,1.0,m,Fri Nov 14 2025 14:12:03 GMT-0600 (Central Standard Time),224992.70000004768,019_m_f_n_a.png,O,m,504,8,,1528.5,223464.20000004768,7240,VNB,C,7
8,test,3,0.0,1-Back,1.0,m,Fri Nov 14 2025 14:12:03 GMT-0600 (Central Standard Time),226542.10000002384,022_y_f_d_a.png,O,m,523,9,,1546.3000000715256,224995.79999995232,7240,VNB,C,8
9,test,3,1.0,1-Back,1.0,m,Fri Nov 14 2025 14:12:03 GMT-0600 (Central Standard Time),228274.29999995232,015_o_m_n_a.png,O,m,700,10,,1728.5999999046326,226545.70000004768,7240,VNB,C,9
10,test,3,0.0,1-Back,1.0,m,Fri Nov 14 2025 14:12:03 GMT-0600 (Central Standard Time),230240.39999997616,014_m_m_h_a.png,O,m,937,11,,1962.5,228277.89999997616,7240,VNB,C,10
11,test,3,0.0,1-Back,1.0,z,Fri Nov 14 2025 14:12:03 GMT-0600 (Central Standard Time),231674.20000004768,019_m_f_h_a.png,O,z,403,12,,1430.5,230243.70000004768,7240,VNB,C,11
12,test,3,1.0,1-Back,1.0,m,Fri Nov 14 2025 14:12:03 GMT-0600 (Central Standard Time),233589.79999995232,012_o_f_d_a.png,O,m,890,13,,1912.0999999046326,231677.70000004768,7240,VNB,C,12
13,test,3,0.0,1-Back,1.0,z,Fri Nov 14 2025 14:12:03 GMT-0600 (Central Standard Time),235488.60000002384,014_m_m_d_a.png,O,z,878,14,,1895.6000000238419,233593.0,7240,VNB,C,13
14,test,3,0.0,1-Back,1.0,m,Fri Nov 14 2025 14:12:03 GMT-0600 (Central Standard Time),237105.5,025_y_m_n_a.png,O,m,586,15,,1614.0,235491.5,7240,VNB,C,14
15,test,3,1.0,1-Back,1.0,m,Fri Nov 14 2025 14:12:03 GMT-0600 (Central Standard Time),238704.29999995232,015_o_m_h_a.png,O,m,571,16,,1596.0999999046326,237108.20000004768,7240,VNB,C,15
16,test,3,0.0,1-Back,1.0,m,Fri Nov 14 2025 14:12:03 GMT-0600 (Central Standard Time),240304.5,025_y_m_d_a.png,O,m,572,17,,1596.5,238708.0,7240,VNB,C,16
17,test,3,1.0,1-Back,1.0,m,Fri Nov 14 2025 14:12:03 GMT-0600 (Central Standard Time),241987.0,022_y_f_n_a.png,O,m,651,18,,1679.2000000476837,240307.79999995232,7240,VNB,C,17
0,test,4,1.0,1-Back,,,Fri Nov 14 2025 14:12:03 GMT-0600 (Central Standard Time),241987.0,014_m_m_d_a.png,O,space,866,1,,1679.2000000476837,240307.79999995232,7240,VNB,C,0
1,test,4,0.0,1-Back,1.0,z,Fri Nov 14 2025 14:12:03 GMT-0600 (Central Standard Time),246319.20000004768,015_o_m_d_a.png,O,z,430,2,,1447.0,244872.20000004768,7240,VNB,C,1
2,test,4,0.0,1-Back,1.0,m,Fri Nov 14 2025 14:12:03 GMT-0600 (Central Standard Time),247884.60000002384,025_y_m_h_a.png,O,m,549,3,,1561.8999999761581,246322.70000004768,7240,VNB,C,2
3,test,4,0.0,1-Back,1.0,m,Fri Nov 14 2025 14:12:03 GMT-0600 (Central Standard Time),250200.60000002384,019_m_f_n_a.png,O,m,1286,4,,2313.2000000476837,247887.39999997616,7240,VNB,C,3
4,test,4,1.0,1-Back,1.0,m,Fri Nov 14 2025 14:12:03 GMT-0600 (Central Standard Time),252067.0,012_o_f_h_a.png,O,m,842,5,,1862.7000000476837,250204.29999995232,7240,VNB,C,4
5,test,4,0.0,1-Back,1.0,m,Fri Nov 14 2025 14:12:03 GMT-0600 (Central Standard Time),253732.70000004768,014_m_m_n_a.png,O,m,640,6,,1662.1000000238419,252070.60000002384,7240,VNB,C,5
6,test,4,0.0,1-Back,1.0,m,Fri Nov 14 2025 14:12:03 GMT-0600 (Central Standard Time),255449.39999997616,025_y_m_d_a.png,O,m,686,7,,1713.5,253735.89999997616,7240,VNB,C,6
7,test,4,1.0,1-Back,1.0,z,Fri Nov 14 2025 14:12:03 GMT-0600 (Central Standard Time),256948.60000002384,022_y_f_d_a.png,O,z,466,8,,1495.3000000715256,255453.29999995232,7240,VNB,C,7
8,test,4,0.0,1-Back,1.0,m,Fri Nov 14 2025 14:12:03 GMT-0600 (Central Standard Time),258615.10000002384,019_m_f_h_a.png,O,m,647,9,,1663.3999999761581,256951.70000004768,7240,VNB,C,8
9,test,4,0.0,1-Back,1.0,z,Fri Nov 14 2025 14:12:03 GMT-0600 (Central Standard Time),260330.70000004768,015_o_m_h_a.png,O,z,693,10,,1712.3000000715256,258618.39999997616,7240,VNB,C,9
10,test,4,1.0,1-Back,1.0,m,Fri Nov 14 2025 14:12:03 GMT-0600 (Central Standard Time),261947.10000002384,012_o_f_n_a.png,O,m,593,11,,1612.8999999761581,260334.20000004768,7240,VNB,C,10
11,test,4,0.0,1-Back,1.0,m,Fri Nov 14 2025 14:12:03 GMT-0600 (Central Standard Time),263729.89999997616,019_m_f_d_a.png,O,m,753,12,,1779.6999999284744,261950.20000004768,7240,VNB,C,11
12,test,4,0.0,1-Back,1.0,m,Fri Nov 14 2025 14:12:03 GMT-0600 (Central Standard Time),265362.2000000477,022_y_f_n_a.png,O,m,602,13,,1629.3000000715256,263732.89999997616,7240,VNB,C,12
13,test,4,0.0,1-Back,1.0,m,Fri Nov 14 2025 14:12:03 GMT-0600 (Central Standard Time),267062.10000002384,012_o_f_d_a.png,O,m,673,14,,1696.3999999761581,265365.7000000477,7240,VNB,C,13
14,test,4,0.0,1-Back,1.0,m,Fri Nov 14 2025 14:12:03 GMT-0600 (Central Standard Time),269011.7000000477,022_y_f_h_a.png,O,m,926,15,,1945.9000000953674,267065.7999999523,7240,VNB,C,14
15,test,4,1.0,1-Back,1.0,z,Fri Nov 14 2025 14:12:03 GMT-0600 (Central Standard Time),270611.2000000477,014_m_m_h_a.png,O,z,576,16,,1595.5,269015.7000000477,7240,VNB,C,15
16,test,4,0.0,1-Back,1.0,m,Fri Nov 14 2025 14:12:03 GMT-0600 (Central Standard Time),272260.7000000477,015_o_m_n_a.png,O,m,626,17,,1646.8000000715256,270613.89999997616,7240,VNB,C,16
17,test,4,1.0,1-Back,1.0,z,Fri Nov 14 2025 14:12:03 GMT-0600 (Central Standard Time),274217.2999999523,025_y_m_n_a.png,O,z,927,18,,1953.0999999046326,272264.2000000477,7240,VNB,C,17
0,test,5,1.0,1-Back,,,Fri Nov 14 2025 14:12:03 GMT-0600 (Central Standard Time),274217.2999999523,015_o_m_n_a.png,O,space,1098,1,,1953.0999999046326,272264.2000000477,7240,VNB,C,0
1,test,5,1.0,1-Back,1.0,m,Fri Nov 14 2025 14:12:03 GMT-0600 (Central Standard Time),278925.39999997616,012_o_f_h_a.png,O,m,565,2,,1579.6000000238419,277345.7999999523,7240,VNB,C,1
2,test,5,0.0,1-Back,1.0,m,Fri Nov 14 2025 14:12:03 GMT-0600 (Central Standard Time),280440.7999999523,025_y_m_d_a.png,O,m,488,3,,1512.2999999523163,278928.5,7240,VNB,C,2
3,test,5,0.0,1-Back,1.0,z,Fri Nov 14 2025 14:12:03 GMT-0600 (Central Standard Time),282191.5,015_o_m_d_a.png,O,z,722,4,,1747.6000000238419,280443.89999997616,7240,VNB,C,3
4,test,5,0.0,1-Back,1.0,m,Fri Nov 14 2025 14:12:03 GMT-0600 (Central Standard Time),283806.7000000477,019_m_f_h_a.png,O,m,589,5,,1611.9000000953674,282194.7999999523,7240,VNB,C,4
5,test,5,0.0,1-Back,1.0,m,Fri Nov 14 2025 14:12:03 GMT-0600 (Central Standard Time),285322.2999999523,022_y_f_n_a.png,O,m,493,6,,1512.3999999761581,283809.89999997616,7240,VNB,C,5
6,test,5,1.0,1-Back,1.0,z,Fri Nov 14 2025 14:12:03 GMT-0600 (Central Standard Time),286955.7000000477,012_o_f_n_a.png,O,z,601,7,,1630.3000000715256,285325.39999997616,7240,VNB,C,6
7,test,5,0.0,1-Back,1.0,m,Fri Nov 14 2025 14:12:03 GMT-0600 (Central Standard Time),288588.89999997616,019_m_f_d_a.png,O,m,609,8,,1629.6999999284744,286959.2000000477,7240,VNB,C,7
8,test,5,0.0,1-Back,1.0,m,Fri Nov 14 2025 14:12:03 GMT-0600 (Central Standard Time),290238.60000002384,025_y_m_h_a.png,O,m,630,9,,1642.6000000238419,288596.0,7240,VNB,C,8
8,test,5,0.0,1-Back,0.0,m,Fri Nov 14 2025 14:12:03 GMT-0600 (Central Standard Time),291887.7000000477,022_y_f_d_a.png,O,z,621,10,,1646.0,290241.7000000477,7240,VNB,C,9
9,test,5,0.0,1-Back,1.0,m,Fri Nov 14 2025 14:12:03 GMT-0600 (Central Standard Time),293570.7000000477,014_m_m_n_a.png,O,m,660,11,,1680.1000000238419,291890.60000002384,7240,VNB,C,10
10,test,5,1.0,1-Back,1.0,z,Fri Nov 14 2025 14:12:03 GMT-0600 (Central Standard Time),295186.2999999523,019_m_f_n_a.png,O,z,593,12,,1612.5999999046326,293573.7000000477,7240,VNB,C,11
11,test,5,0.0,1-Back,1.0,m,Fri Nov 14 2025 14:12:03 GMT-0600 (Central Standard Time),296785.89999997616,015_o_m_h_a.png,O,m,576,13,,1595.8999999761581,295190.0,7240,VNB,C,12
12,test,5,0.0,1-Back,1.0,z,Fri Nov 14 2025 14:12:03 GMT-0600 (Central Standard Time),298235.39999997616,014_m_m_h_a.png,O,z,426,14,,1445.6000000238419,296789.7999999523,7240,VNB,C,13
13,test,5,1.0,1-Back,1.0,m,Fri Nov 14 2025 14:12:03 GMT-0600 (Central Standard Time),300001.7000000477,012_o_f_d_a.png,O,m,743,15,,1763.3000000715256,298238.39999997616,7240,VNB,C,14
14,test,5,0.0,1-Back,1.0,m,Fri Nov 14 2025 14:12:03 GMT-0600 (Central Standard Time),301568.2000000477,025_y_m_n_a.png,O,m,546,16,,1561.8000000715256,300006.39999997616,7240,VNB,C,15
15,test,5,0.0,1-Back,1.0,m,Fri Nov 14 2025 14:12:03 GMT-0600 (Central Standard Time),303067.60000002384,022_y_f_h_a.png,O,m,475,17,,1496.3999999761581,301571.2000000477,7240,VNB,C,16
16,test,5,0.0,1-Back,1.0,m,Fri Nov 14 2025 14:12:03 GMT-0600 (Central Standard Time),304583.10000002384,014_m_m_d_a.png,O,m,487,18,,1512.6000000238419,303070.5,7240,VNB,C,17
0,prac,1,0.0,2-Back,,,Fri Nov 14 2025 14:12:03 GMT-0600 (Central Standard Time),304583.10000002384,019_m_f_n_a.png,O,space,4477,1,,1512.6000000238419,303070.5,7240,VNB,C,0
0,prac,1,0.0,2-Back,,,Fri Nov 14 2025 14:12:03 GMT-0600 (Central Standard Time),304583.10000002384,012_o_f_h_a.png,O,space,4477,2,,1512.6000000238419,303070.5,7240,VNB,C,0
1,prac,1,0.0,2-Back,1.0,m,Fri Nov 14 2025 14:12:03 GMT-0600 (Central Standard Time),460568.39999997616,015_o_m_d_a.png,O,m,953,3,,1810.3999999761581,458758.0,7240,VNB,C,1
2,prac,1,1.0,2-Back,1.0,z,Fri Nov 14 2025 14:12:03 GMT-0600 (Central Standard Time),462385.89999997616,014_m_m_h_a.png,O,z,974,4,,1809.2999999523163,460576.60000002384,7240,VNB,C,2
2,prac,1,0.0,2-Back,0.0,m,Fri Nov 14 2025 14:12:03 GMT-0600 (Central Standard Time),464349.7000000477,022_y_f_n_a.png,O,z,1058,5,,1952.6000000238419,462397.10000002384,7240,VNB,C,3
3,prac,1,1.0,2-Back,1.0,z,Fri Nov 14 2025 14:12:03 GMT-0600 (Central Standard Time),466165.89999997616,015_o_m_h_a.png,O,z,1031,6,,1809.5,464356.39999997616,7240,VNB,C,4
3,prac,1,1.0,2-Back,0.0,z,Fri Nov 14 2025 14:12:03 GMT-0600 (Central Standard Time),468165.89999997616,025_y_m_n_a.png,O,m,1146,7,,1992.7999999523163,466173.10000002384,7240,VNB,C,5
4,prac,1,0.0,2-Back,1.0,m,Fri Nov 14 2025 14:12:03 GMT-0600 (Central Standard Time),470780.7999999523,019_m_f_d_a.png,O,m,1749,8,,2610.6999999284744,468170.10000002384,7240,VNB,C,6
4,prac,1,0.0,2-Back,0.0,m,Fri Nov 14 2025 14:12:03 GMT-0600 (Central Standard Time),472580.0,012_o_f_d_a.png,O,z,922,9,,1791.6000000238419,470788.39999997616,7240,VNB,C,7
5,prac,1,0.0,2-Back,1.0,m,Fri Nov 14 2025 14:12:03 GMT-0600 (Central Standard Time),474247.2000000477,014_m_m_h_a.png,O,m,890,10,,1661.6000000238419,472585.60000002384,7240,VNB,C,8
5,prac,1,1.0,2-Back,0.0,z,Fri Nov 14 2025 14:12:03 GMT-0600 (Central Standard Time),476229.10000002384,022_y_f_d_a.png,O,m,1138,11,,1974.8999999761581,474254.2000000477,7240,VNB,C,9
6,prac,1,0.0,2-Back,1.0,m,Fri Nov 14 2025 14:12:03 GMT-0600 (Central Standard Time),477861.5,015_o_m_n_a.png,O,m,764,12,,1626.7000000476837,476234.7999999523,7240,VNB,C,10
0,prac,2,0.0,2-Back,,,Fri Nov 14 2025 14:12:03 GMT-0600 (Central Standard Time),477861.5,019_m_f_n_a.png,O,a,5947,1,,1626.7000000476837,476234.7999999523,7240,VNB,C,0
0,prac,2,0.0,2-Back,,,Fri Nov 14 2025 14:12:03 GMT-0600 (Central Standard Time),477861.5,012_o_f_h_a.png,O,a,5947,2,,1626.7000000476837,476234.7999999523,7240,VNB,C,0
0,prac,2,0.0,2-Back,0.0,m,Fri Nov 14 2025 14:12:03 GMT-0600 (Central Standard Time),491907.7999999523,015_o_m_d_a.png,O,None,2007,3,,2859.7999999523163,489048.0,7240,VNB,C,1
1,prac,2,1.0,2-Back,1.0,z,Fri Nov 14 2025 14:12:03 GMT-0600 (Central Standard Time),493640.10000002384,014_m_m_h_a.png,O,z,945,4,,1726.0,491914.10000002384,7240,VNB,C,2
2,prac,2,0.0,2-Back,1.0,m,Fri Nov 14 2025 14:12:03 GMT-0600 (Central Standard Time),495390.7000000477,022_y_f_n_a.png,O,m,884,5,,1744.8000000715256,493645.89999997616,7240,VNB,C,3
3,prac,2,1.0,2-Back,1.0,z,Fri Nov 14 2025 14:12:03 GMT-0600 (Central Standard Time),497172.0,015_o_m_h_a.png,O,z,913,6,,1774.1000000238419,495397.89999997616,7240,VNB,C,4
4,prac,2,1.0,2-Back,1.0,z,Fri Nov 14 2025 14:12:03 GMT-0600 (Central Standard Time),498938.2999999523,025_y_m_n_a.png,O,z,908,7,,1759.7999999523163,497178.5,7240,VNB,C,5
5,prac,2,0.0,2-Back,1.0,m,Fri Nov 14 2025 14:12:03 GMT-0600 (Central Standard Time),500471.10000002384,019_m_f_d_a.png,O,m,668,8,,1527.0,498944.10000002384,7240,VNB,C,6
5,prac,2,0.0,2-Back,0.0,m,Fri Nov 14 2025 14:12:03 GMT-0600 (Central Standard Time),502120.7999999523,012_o_f_d_a.png,O,z,799,9,,1644.0,500476.7999999523,7240,VNB,C,7
5,prac,2,0.0,2-Back,0.0,m,Fri Nov 14 2025 14:12:03 GMT-0600 (Central Standard Time),503770.10000002384,014_m_m_h_a.png,O,z,861,10,,1643.8000000715256,502126.2999999523,7240,VNB,C,8
5,prac,2,1.0,2-Back,0.0,z,Fri Nov 14 2025 14:12:03 GMT-0600 (Central Standard Time),505235.89999997616,022_y_f_d_a.png,O,m,596,11,,1459.7999999523163,503776.10000002384,7240,VNB,C,9
5,prac,2,0.0,2-Back,0.0,m,Fri Nov 14 2025 14:12:03 GMT-0600 (Central Standard Time),508102.10000002384,015_o_m_n_a.png,O,None,2006,12,,2861.899999976158,505240.2000000477,7240,VNB,C,10
0,test,1,0.0,2-Back,,,Fri Nov 14 2025 14:12:03 GMT-0600 (Central Standard Time),508102.10000002384,025_y_m_h_a.png,O,space,10173,1,,2861.899999976158,505240.2000000477,7240,VNB,C,0
0,test,1,0.0,2-Back,,,Fri Nov 14 2025 14:12:03 GMT-0600 (Central Standard Time),508102.10000002384,012_o_f_n_a.png,O,space,10173,2,,2861.899999976158,505240.2000000477,7240,VNB,C,0
1,test,1,0.0,2-Back,1.0,z,Fri Nov 14 2025 14:12:03 GMT-0600 (Central Standard Time),532295.1000000238,015_o_m_h_a.png,O,z,888,3,,1912.1000000238419,530383.0,7240,VNB,C,1
2,test,1,0.0,2-Back,1.0,m,Fri Nov 14 2025 14:12:03 GMT-0600 (Central Standard Time),534094.2999999523,019_m_f_d_a.png,O,m,781,4,,1795.8999999761581,532298.3999999762,7240,VNB,C,2
3,test,1,1.0,2-Back,1.0,m,Fri Nov 14 2025 14:12:03 GMT-0600 (Central Standard Time),536693.5,025_y_m_n_a.png,O,m,1580,5,,2596.100000023842,534097.3999999762,7240,VNB,C,3
4,test,1,0.0,2-Back,1.0,z,Fri Nov 14 2025 14:12:03 GMT-0600 (Central Standard Time),538675.5,022_y_f_d_a.png,O,z,959,6,,1978.7000000476837,536696.7999999523,7240,VNB,C,4
5,test,1,0.0,2-Back,1.0,m,Fri Nov 14 2025 14:12:03 GMT-0600 (Central Standard Time),541091.7999999523,014_m_m_h_a.png,O,m,1383,7,,2413.2999999523163,538678.5,7240,VNB,C,5
5,test,1,1.0,2-Back,0.0,m,Fri Nov 14 2025 14:12:03 GMT-0600 (Central Standard Time),543324.2000000477,022_y_f_n_a.png,O,z,1199,8,,2229.5,541094.7000000477,7240,VNB,C,6
6,test,1,0.0,2-Back,1.0,z,Fri Nov 14 2025 14:12:03 GMT-0600 (Central Standard Time),545506.3999999762,012_o_f_h_a.png,O,z,1151,9,,2178.899999976158,543327.5,7240,VNB,C,7
7,test,1,0.0,2-Back,1.0,m,Fri Nov 14 2025 14:12:03 GMT-0600 (Central Standard Time),547505.7999999523,015_o_m_d_a.png,O,m,969,10,,1996.1999999284744,545509.6000000238,7240,VNB,C,8
8,test,1,1.0,2-Back,1.0,m,Fri Nov 14 2025 14:12:03 GMT-0600 (Central Standard Time),549972.2000000477,014_m_m_d_a.png,O,m,1448,11,,2463.100000023842,547509.1000000238,7240,VNB,C,9
9,test,1,0.0,2-Back,1.0,m,Fri Nov 14 2025 14:12:03 GMT-0600 (Central Standard Time),552737.8999999762,019_m_f_n_a.png,O,m,1735,12,,2762.100000023842,549975.7999999523,7240,VNB,C,10
10,test,1,0.0,2-Back,1.0,m,Fri Nov 14 2025 14:12:03 GMT-0600 (Central Standard Time),554438.2000000477,022_y_f_h_a.png,O,m,683,13,,1697.0,552741.2000000477,7240,VNB,C,11
11,test,1,0.0,2-Back,1.0,z,Fri Nov 14 2025 14:12:03 GMT-0600 (Central Standard Time),556022.0,014_m_m_n_a.png,O,z,557,14,,1581.2000000476837,554440.7999999523,7240,VNB,C,12
12,test,1,0.0,2-Back,1.0,m,Fri Nov 14 2025 14:12:03 GMT-0600 (Central Standard Time),558785.6000000238,025_y_m_d_a.png,O,m,1735,15,,2760.5,556025.1000000238,7240,VNB,C,13
12,test,1,1.0,2-Back,0.0,m,Fri Nov 14 2025 14:12:03 GMT-0600 (Central Standard Time),560335.6000000238,019_m_f_h_a.png,O,z,529,16,,1546.8999999761581,558788.7000000477,7240,VNB,C,14
12,test,1,0.0,2-Back,0.0,z,Fri Nov 14 2025 14:12:03 GMT-0600 (Central Standard Time),562652.2000000477,012_o_f_d_a.png,O,m,1292,17,,2310.5,560341.7000000477,7240,VNB,C,15
13,test,1,0.0,2-Back,1.0,m,Fri Nov 14 2025 14:12:03 GMT-0600 (Central Standard Time),565016.7000000477,015_o_m_n_a.png,O,m,1344,18,,2361.2000000476837,562655.5,7240,VNB,C,16
0,test,2,0.0,2-Back,,,Fri Nov 14 2025 14:12:03 GMT-0600 (Central Standard Time),565016.7000000477,014_m_m_h_a.png,O,space,2603,1,,2361.2000000476837,562655.5,7240,VNB,C,0
0,test,2,0.0,2-Back,,,Fri Nov 14 2025 14:12:03 GMT-0600 (Central Standard Time),565016.7000000477,022_y_f_n_a.png,O,space,2603,2,,2361.2000000476837,562655.5,7240,VNB,C,0
1,test,2,1.0,2-Back,1.0,z,Fri Nov 14 2025 14:12:03 GMT-0600 (Central Standard Time),574547.6000000238,012_o_f_h_a.png,O,z,691,3,,1713.3000000715256,572834.2999999523,7240,VNB,C,1
2,test,2,0.0,2-Back,1.0,m,Fri Nov 14 2025 14:12:03 GMT-0600 (Central Standard Time),577047.2000000477,015_o_m_d_a.png,O,m,1481,4,,2496.5,574550.7000000477,7240,VNB,C,2
3,test,2,0.0,2-Back,1.0,m,Fri Nov 14 2025 14:12:03 GMT-0600 (Central Standard Time),579095.6000000238,019_m_f_d_a.png,O,m,1028,5,,2045.1000000238419,577050.5,7240,VNB,C,3
3,test,2,0.0,2-Back,0.0,m,Fri Nov 14 2025 14:12:03 GMT-0600 (Central Standard Time),581178.3999999762,025_y_m_h_a.png,O,z,1053,6,,2079.100000023842,579099.2999999523,7240,VNB,C,4
4,test,2,0.0,2-Back,1.0,m,Fri Nov 14 2025 14:12:03 GMT-0600 (Central Standard Time),583178.7000000477,012_o_f_n_a.png,O,m,969,7,,1997.4000000953674,581181.2999999523,7240,VNB,C,5
5,test,2,1.0,2-Back,1.0,z,Fri Nov 14 2025 14:12:03 GMT-0600 (Central Standard Time),585211.1000000238,015_o_m_h_a.png,O,z,1014,8,,2029.7000000476837,583181.3999999762,7240,VNB,C,6
6,test,2,0.0,2-Back,1.0,m,Fri Nov 14 2025 14:12:03 GMT-0600 (Central Standard Time),586976.7000000477,022_y_f_d_a.png,O,m,744,9,,1762.4000000953674,585214.2999999523,7240,VNB,C,7
6,test,2,0.0,2-Back,0.0,m,Fri Nov 14 2025 14:12:03 GMT-0600 (Central Standard Time),589025.1000000238,025_y_m_d_a.png,O,z,1025,10,,2045.0,586980.1000000238,7240,VNB,C,8
6,test,2,0.0,2-Back,0.0,m,Fri Nov 14 2025 14:12:03 GMT-0600 (Central Standard Time),590859.0,014_m_m_n_a.png,O,z,809,11,,1827.7999999523163,589031.2000000477,7240,VNB,C,9
7,test,2,0.0,2-Back,1.0,m,Fri Nov 14 2025 14:12:03 GMT-0600 (Central Standard Time),592992.1000000238,019_m_f_h_a.png,O,m,1104,12,,2129.8000000715256,590862.2999999523,7240,VNB,C,10
8,test,2,1.0,2-Back,1.0,z,Fri Nov 14 2025 14:12:03 GMT-0600 (Central Standard Time),594991.2000000477,015_o_m_n_a.png,O,z,972,13,,1994.7000000476837,592996.5,7240,VNB,C,11
9,test,2,0.0,2-Back,1.0,m,Fri Nov 14 2025 14:12:03 GMT-0600 (Central Standard Time),596807.2000000477,012_o_f_d_a.png,O,m,795,14,,1811.7000000476837,594995.5,7240,VNB,C,12
9,test,2,0.0,2-Back,0.0,m,Fri Nov 14 2025 14:12:03 GMT-0600 (Central Standard Time),598590.2000000477,022_y_f_h_a.png,O,z,756,15,,1777.7000000476837,596812.5,7240,VNB,C,13
9,test,2,0.0,2-Back,0.0,z,Fri Nov 14 2025 14:12:03 GMT-0600 (Central Standard Time),600106.5,014_m_m_d_a.png,O,m,493,16,,1512.2000000476837,598594.2999999523,7240,VNB,C,14
9,test,2,0.0,2-Back,0.0,m,Fri Nov 14 2025 14:12:03 GMT-0600 (Central Standard Time),601855.0,025_y_m_n_a.png,O,z,729,17,,1745.3999999761581,600109.6000000238,7240,VNB,C,15
9,test,2,1.0,2-Back,0.0,m,Fri Nov 14 2025 14:12:03 GMT-0600 (Central Standard Time),603561.1000000238,019_m_f_n_a.png,O,z,675,18,,1703.2000000476837,601857.8999999762,7240,VNB,C,16
0,test,3,1.0,2-Back,,,Fri Nov 14 2025 14:12:03 GMT-0600 (Central Standard Time),603561.1000000238,015_o_m_n_a.png,O,space,2603,1,,1703.2000000476837,601857.8999999762,7240,VNB,C,0
0,test,3,1.0,2-Back,,,Fri Nov 14 2025 14:12:03 GMT-0600 (Central Standard Time),603561.1000000238,012_o_f_d_a.png,O,space,2603,2,,1703.2000000476837,601857.8999999762,7240,VNB,C,0
1,test,3,0.0,2-Back,1.0,m,Fri Nov 14 2025 14:12:03 GMT-0600 (Central Standard Time),613019.3999999762,022_y_f_h_a.png,O,m,784,3,,1813.6000000238419,611205.7999999523,7240,VNB,C,1
2,test,3,0.0,2-Back,1.0,z,Fri Nov 14 2025 14:12:03 GMT-0600 (Central Standard Time),614801.7999999523,019_m_f_d_a.png,O,z,761,4,,1779.1999999284744,613022.6000000238,7240,VNB,C,2
2,test,3,1.0,2-Back,0.0,m,Fri Nov 14 2025 14:12:03 GMT-0600 (Central Standard Time),616983.3999999762,025_y_m_n_a.png,O,z,1162,5,,2178.6999999284744,614804.7000000477,7240,VNB,C,3
3,test,3,0.0,2-Back,1.0,m,Fri Nov 14 2025 14:12:03 GMT-0600 (Central Standard Time),618750.7999999523,015_o_m_h_a.png,O,m,748,6,,1764.2999999523163,616986.5,7240,VNB,C,4
4,test,3,0.0,2-Back,1.0,z,Fri Nov 14 2025 14:12:03 GMT-0600 (Central Standard Time),620550.2999999523,022_y_f_n_a.png,O,z,773,7,,1796.5,618753.7999999523,7240,VNB,C,5
5,test,3,1.0,2-Back,1.0,m,Fri Nov 14 2025 14:12:03 GMT-0600 (Central Standard Time),622449.7999999523,014_m_m_d_a.png,O,m,877,8,,1896.7999999523163,620553.0,7240,VNB,C,6
6,test,3,0.0,2-Back,1.0,m,Fri Nov 14 2025 14:12:03 GMT-0600 (Central Standard Time),624381.7000000477,025_y_m_d_a.png,O,m,916,9,,1928.6000000238419,622453.1000000238,7240,VNB,C,7
6,test,3,0.0,2-Back,0.0,m,Fri Nov 14 2025 14:12:03 GMT-0600 (Central Standard Time),626115.1000000238,012_o_f_h_a.png,O,z,710,10,,1730.1000000238419,624385.0,7240,VNB,C,8
7,test,3,1.0,2-Back,1.0,m,Fri Nov 14 2025 14:12:03 GMT-0600 (Central Standard Time),627764.2999999523,019_m_f_n_a.png,O,m,625,11,,1645.5999999046326,626118.7000000477,7240,VNB,C,9
8,test,3,1.0,2-Back,1.0,z,Fri Nov 14 2025 14:12:03 GMT-0600 (Central Standard Time),629547.1000000238,014_m_m_h_a.png,O,z,751,12,,1779.6000000238419,627767.5,7240,VNB,C,10
9,test,3,0.0,2-Back,1.0,m,Fri Nov 14 2025 14:12:03 GMT-0600 (Central Standard Time),631212.8999999762,022_y_f_d_a.png,O,m,650,13,,1661.0,629551.8999999762,7240,VNB,C,11
9,test,3,0.0,2-Back,0.0,m,Fri Nov 14 2025 14:12:03 GMT-0600 (Central Standard Time),633045.6000000238,012_o_f_n_a.png,O,z,806,14,,1829.6000000238419,631216.0,7240,VNB,C,12
9,test,3,0.0,2-Back,0.0,z,Fri Nov 14 2025 14:12:03 GMT-0600 (Central Standard Time),634895.2000000477,015_o_m_d_a.png,O,m,821,15,,1846.0,633049.2000000477,7240,VNB,C,13
9,test,3,1.0,2-Back,0.0,m,Fri Nov 14 2025 14:12:03 GMT-0600 (Central Standard Time),636594.5,019_m_f_h_a.png,O,z,668,16,,1696.2999999523163,634898.2000000477,7240,VNB,C,14
10,test,3,0.0,2-Back,1.0,m,Fri Nov 14 2025 14:12:03 GMT-0600 (Central Standard Time),638193.7999999523,014_m_m_n_a.png,O,m,569,17,,1595.7999999523163,636598.0,7240,VNB,C,15
10,test,3,0.0,2-Back,0.0,z,Fri Nov 14 2025 14:12:03 GMT-0600 (Central Standard Time),639710.7000000477,025_y_m_h_a.png,O,m,497,18,,1513.6000000238419,638197.1000000238,7240,VNB,C,16
0,test,4,0.0,2-Back,,,Fri Nov 14 2025 14:12:03 GMT-0600 (Central Standard Time),639710.7000000477,019_m_f_n_a.png,O,space,1877,1,,1513.6000000238419,638197.1000000238,7240,VNB,C,0
0,test,4,0.0,2-Back,,,Fri Nov 14 2025 14:12:03 GMT-0600 (Central Standard Time),639710.7000000477,015_o_m_n_a.png,O,space,1877,2,,1513.6000000238419,638197.1000000238,7240,VNB,C,0
1,test,4,1.0,2-Back,1.0,m,Fri Nov 14 2025 14:12:03 GMT-0600 (Central Standard Time),648824.1000000238,025_y_m_h_a.png,O,m,987,3,,2012.8000000715256,646811.2999999523,7240,VNB,C,1
2,test,4,1.0,2-Back,1.0,m,Fri Nov 14 2025 14:12:03 GMT-0600 (Central Standard Time),650674.2000000477,012_o_f_d_a.png,O,m,830,4,,1847.5,648826.7000000477,7240,VNB,C,2
3,test,4,0.0,2-Back,1.0,z,Fri Nov 14 2025 14:12:03 GMT-0600 (Central Standard Time),652539.6000000238,015_o_m_h_a.png,O,z,841,5,,1862.7000000476837,650676.8999999762,7240,VNB,C,3
3,test,4,0.0,2-Back,0.0,m,Fri Nov 14 2025 14:12:03 GMT-0600 (Central Standard Time),654471.6000000238,014_m_m_n_a.png,O,z,912,6,,1928.2000000476837,652543.3999999762,7240,VNB,C,4
4,test,4,0.0,2-Back,1.0,m,Fri Nov 14 2025 14:12:03 GMT-0600 (Central Standard Time),656188.0,019_m_f_d_a.png,O,m,699,7,,1713.3999999761581,654474.6000000238,7240,VNB,C,5
4,test,4,0.0,2-Back,0.0,z,Fri Nov 14 2025 14:12:03 GMT-0600 (Central Standard Time),658589.0,022_y_f_n_a.png,O,m,1375,8,,2397.7000000476837,656191.2999999523,7240,VNB,C,6
4,test,4,1.0,2-Back,0.0,m,Fri Nov 14 2025 14:12:03 GMT-0600 (Central Standard Time),660170.2999999523,012_o_f_h_a.png,O,z,552,9,,1577.5999999046326,658592.7000000477,7240,VNB,C,7
4,test,4,0.0,2-Back,0.0,m,Fri Nov 14 2025 14:12:03 GMT-0600 (Central Standard Time),661855.0,014_m_m_h_a.png,O,z,665,10,,1680.5,660174.5,7240,VNB,C,8
5,test,4,0.0,2-Back,1.0,m,Fri Nov 14 2025 14:12:03 GMT-0600 (Central Standard Time),663535.7000000477,022_y_f_d_a.png,O,m,661,11,,1676.8000000715256,661858.8999999762,7240,VNB,C,9
6,test,4,0.0,2-Back,1.0,m,Fri Nov 14 2025 14:12:03 GMT-0600 (Central Standard Time),665318.2999999523,025_y_m_n_a.png,O,m,763,12,,1779.0,663539.2999999523,7240,VNB,C,10
7,test,4,0.0,2-Back,1.0,z,Fri Nov 14 2025 14:12:03 GMT-0600 (Central Standard Time),666684.8999999762,015_o_m_d_a.png,O,z,340,13,,1363.1999999284744,665321.7000000477,7240,VNB,C,11
8,test,4,1.0,2-Back,1.0,m,Fri Nov 14 2025 14:12:03 GMT-0600 (Central Standard Time),668101.5,019_m_f_h_a.png,O,m,391,14,,1413.3999999761581,666688.1000000238,7240,VNB,C,12
9,test,4,1.0,2-Back,1.0,m,Fri Nov 14 2025 14:12:03 GMT-0600 (Central Standard Time),669584.1000000238,022_y_f_h_a.png,O,m,454,15,,1478.6000000238419,668105.5,7240,VNB,C,13
9,test,4,0.0,2-Back,0.0,m,Fri Nov 14 2025 14:12:03 GMT-0600 (Central Standard Time),671067.2000000477,012_o_f_n_a.png,O,z,451,16,,1479.7000000476837,669587.5,7240,VNB,C,14
10,test,4,0.0,2-Back,1.0,m,Fri Nov 14 2025 14:12:03 GMT-0600 (Central Standard Time),672632.8999999762,025_y_m_d_a.png,O,m,544,17,,1562.2999999523163,671070.6000000238,7240,VNB,C,15
11,test,4,1.0,2-Back,1.0,m,Fri Nov 14 2025 14:12:03 GMT-0600 (Central Standard Time),674222.3999999762,014_m_m_d_a.png,O,m,562,18,,1586.2999999523163,672636.1000000238,7240,VNB,C,16
0,test,5,1.0,2-Back,,,Fri Nov 14 2025 14:12:03 GMT-0600 (Central Standard Time),674222.3999999762,022_y_f_d_a.png,O,space,1669,1,,1586.2999999523163,672636.1000000238,7240,VNB,C,0
0,test,5,1.0,2-Back,,,Fri Nov 14 2025 14:12:03 GMT-0600 (Central Standard Time),674222.3999999762,012_o_f_h_a.png,O,space,1669,2,,1586.2999999523163,672636.1000000238,7240,VNB,C,0
1,test,5,1.0,2-Back,1.0,z,Fri Nov 14 2025 14:12:03 GMT-0600 (Central Standard Time),683280.2000000477,015_o_m_d_a.png,O,z,1163,3,,2178.0,681102.2000000477,7240,VNB,C,1
2,test,5,1.0,2-Back,1.0,m,Fri Nov 14 2025 14:12:03 GMT-0600 (Central Standard Time),684979.1000000238,019_m_f_n_a.png,O,m,675,4,,1695.8000000715256,683283.2999999523,7240,VNB,C,2
3,test,5,0.0,2-Back,1.0,m,Fri Nov 14 2025 14:12:03 GMT-0600 (Central Standard Time),687411.7000000477,014_m_m_h_a.png,O,m,1408,5,,2428.9000000953674,684982.7999999523,7240,VNB,C,3
4,test,5,0.0,2-Back,1.0,z,Fri Nov 14 2025 14:12:03 GMT-0600 (Central Standard Time),689294.2999999523,022_y_f_n_a.png,O,z,849,6,,1879.3999999761581,687414.8999999762,7240,VNB,C,4
4,test,5,0.0,2-Back,0.0,m,Fri Nov 14 2025 14:12:03 GMT-0600 (Central Standard Time),691344.2000000477,012_o_f_d_a.png,O,z,1021,7,,2046.7000000476837,689297.5,7240,VNB,C,5
4,test,5,0.0,2-Back,0.0,m,Fri Nov 14 2025 14:12:03 GMT-0600 (Central Standard Time),692909.8999999762,015_o_m_h_a.png,O,z,539,8,,1562.0,691347.8999999762,7240,VNB,C,6
4,test,5,1.0,2-Back,0.0,z,Fri Nov 14 2025 14:12:03 GMT-0600 (Central Standard Time),694626.1000000238,019_m_f_d_a.png,O,m,685,9,,1712.5,692913.6000000238,7240,VNB,C,7
5,test,5,0.0,2-Back,1.0,m,Fri Nov 14 2025 14:12:03 GMT-0600 (Central Standard Time),696492.2000000477,025_y_m_n_a.png,O,m,832,10,,1862.9000000953674,694629.2999999523,7240,VNB,C,8
6,test,5,0.0,2-Back,1.0,m,Fri Nov 14 2025 14:12:03 GMT-0600 (Central Standard Time),698908.8999999762,014_m_m_n_a.png,O,m,1392,11,,2413.7999999523163,696495.1000000238,7240,VNB,C,9
6,test,5,0.0,2-Back,0.0,m,Fri Nov 14 2025 14:12:03 GMT-0600 (Central Standard Time),700541.1000000238,022_y_f_h_a.png,O,z,617,12,,1629.0,698912.1000000238,7240,VNB,C,10
6,test,5,0.0,2-Back,0.0,m,Fri Nov 14 2025 14:12:03 GMT-0600 (Central Standard Time),702657.6000000238,025_y_m_d_a.png,O,z,1083,13,,2113.100000023842,700544.5,7240,VNB,C,11
7,test,5,1.0,2-Back,1.0,z,Fri Nov 14 2025 14:12:03 GMT-0600 (Central Standard Time),704456.5,019_m_f_h_a.png,O,z,770,14,,1795.6000000238419,702660.8999999762,7240,VNB,C,12
8,test,5,0.0,2-Back,1.0,m,Fri Nov 14 2025 14:12:03 GMT-0600 (Central Standard Time),706624.3999999762,015_o_m_n_a.png,O,m,1138,15,,2165.0,704459.3999999762,7240,VNB,C,13
8,test,5,0.0,2-Back,0.0,m,Fri Nov 14 2025 14:12:03 GMT-0600 (Central Standard Time),708670.7999999523,014_m_m_d_a.png,O,z,1021,16,,2043.5999999046326,706627.2000000477,7240,VNB,C,14
8,test,5,0.0,2-Back,0.0,z,Fri Nov 14 2025 14:12:03 GMT-0600 (Central Standard Time),710521.6000000238,012_o_f_n_a.png,O,m,828,17,,1847.7000000476837,708673.8999999762,7240,VNB,C,15
9,test,5,1.0,2-Back,1.0,m,Fri Nov 14 2025 14:12:03 GMT-0600 (Central Standard Time),712404.6000000238,025_y_m_h_a.png,O,m,849,18,,1879.8999999761581,710524.7000000477,7240,VNB,C,16
