Number,acc_sum,block,block_c,block_cond,con_img,correct,correct_response,datetime,endtime,jitter,project,response,response_time,row_sel,session_number,start_end,starttime,subject_id,task,task_vers,trial
6,0,prac,1,A,circle.png,0,m,Tue Feb 24 2026 10:10:30 GMT-0600 (Central Standard Time),71165.09999999404,1900,O,None,1514,5,1,4190.0999999940395,66975.0,7759,NTS,B,1
4,1,prac,1,A,circle.png,1,z,Tue Feb 24 2026 10:10:30 GMT-0600 (Central Standard Time),74080.29999999702,1400,O,z,732,4,1,2910.2999999970198,71170.0,7759,NTS,B,2
6,2,prac,1,A,circle.png,1,m,Tue Feb 24 2026 10:10:30 GMT-0600 (Central Standard Time),77628.59999999404,1900,O,m,848,5,1,3541.7999999970198,74086.79999999702,7759,NTS,B,3
7,3,prac,1,A,circle.png,1,m,Tue Feb 24 2026 10:10:30 GMT-0600 (Central Standard Time),80928.59999999404,1700,O,m,802,6,1,3295.4000000059605,77633.19999998808,7759,NTS,B,4
7,4,prac,1,A,circle.png,1,m,Tue Feb 24 2026 10:10:30 GMT-0600 (Central Standard Time),83877.69999998808,1700,O,m,473,6,1,2944.3999999910593,80933.29999999702,7759,NTS,B,5
1,5,prac,1,A,circle.png,1,z,Tue Feb 24 2026 10:10:30 GMT-0600 (Central Standard Time),86410.89999999106,1000,O,z,735,1,1,2527.5,83883.39999999106,7759,NTS,B,6
2,6,prac,1,A,circle.png,1,z,Tue Feb 24 2026 10:10:30 GMT-0600 (Central Standard Time),90162.0,2000,O,z,950,2,1,3744.5,86417.5,7759,NTS,B,7
3,7,prac,1,A,circle.png,1,z,Tue Feb 24 2026 10:10:30 GMT-0600 (Central Standard Time),92724.69999998808,1200,O,z,576,3,1,2555.7999999970198,90168.89999999106,7759,NTS,B,8
9,8,prac,1,A,circle.png,1,m,Tue Feb 24 2026 10:10:30 GMT-0600 (Central Standard Time),95640.5,1500,O,m,616,8,1,2908.0,92732.5,7759,NTS,B,9
2,9,prac,1,A,circle.png,1,z,Tue Feb 24 2026 10:10:30 GMT-0600 (Central Standard Time),99023.59999999404,2000,O,z,583,2,1,3377.2000000029802,95646.39999999106,7759,NTS,B,10
4,10,prac,1,A,circle.png,1,z,Tue Feb 24 2026 10:10:30 GMT-0600 (Central Standard Time),101855.69999998808,1400,O,z,649,4,1,2824.5999999940395,99031.09999999404,7759,NTS,B,11
8,11,prac,1,A,circle.png,1,m,Tue Feb 24 2026 10:10:30 GMT-0600 (Central Standard Time),104920.79999999702,1600,O,m,680,7,1,3057.1000000089407,101863.69999998808,7759,NTS,B,12
4,1,prac,1,B,triangle.png,1,m,Tue Feb 24 2026 10:10:30 GMT-0600 (Central Standard Time),135494.69999998808,1500,O,m,742,4,1,3025.5999999940395,132469.09999999404,7759,NTS,B,1
8,2,prac,1,B,triangle.png,1,m,Tue Feb 24 2026 10:10:30 GMT-0600 (Central Standard Time),138310.29999999702,1200,O,m,824,7,1,2809.5,135500.79999999702,7759,NTS,B,2
7,3,prac,1,B,triangle.png,1,z,Tue Feb 24 2026 10:10:30 GMT-0600 (Central Standard Time),142126.69999998808,2000,O,z,1042,6,1,3809.7999999970198,138316.89999999106,7759,NTS,B,3
3,4,prac,1,B,triangle.png,1,z,Tue Feb 24 2026 10:10:30 GMT-0600 (Central Standard Time),145108.69999998808,1600,O,z,611,3,1,2975.7999999970198,142132.89999999106,7759,NTS,B,4
2,5,prac,1,B,triangle.png,1,m,Tue Feb 24 2026 10:10:30 GMT-0600 (Central Standard Time),148657.59999999404,1700,O,m,1081,2,1,3542.9000000059605,145114.69999998808,7759,NTS,B,5
1,6,prac,1,B,triangle.png,1,z,Tue Feb 24 2026 10:10:30 GMT-0600 (Central Standard Time),152089.89999999106,1900,O,z,750,1,1,3426.2999999970198,148663.59999999404,7759,NTS,B,6
4,7,prac,1,B,triangle.png,1,m,Tue Feb 24 2026 10:10:30 GMT-0600 (Central Standard Time),155054.79999999702,1500,O,m,673,4,1,2959.9000000059605,152094.89999999106,7759,NTS,B,7
6,8,prac,1,B,triangle.png,1,m,Tue Feb 24 2026 10:10:30 GMT-0600 (Central Standard Time),157386.5,1000,O,m,536,5,1,2325.1000000089407,155061.39999999106,7759,NTS,B,8
7,9,prac,1,B,triangle.png,1,z,Tue Feb 24 2026 10:10:30 GMT-0600 (Central Standard Time),161422.19999998808,2000,O,z,1245,6,1,4029.5,157392.69999998808,7759,NTS,B,9
1,10,prac,1,B,triangle.png,1,z,Tue Feb 24 2026 10:10:30 GMT-0600 (Central Standard Time),164901.5,1900,O,z,785,1,1,3473.4000000059605,161428.09999999404,7759,NTS,B,10
9,10,prac,1,B,triangle.png,0,z,Tue Feb 24 2026 10:10:30 GMT-0600 (Central Standard Time),167717.89999999106,1400,O,m,616,8,1,2812.2999999970198,164905.59999999404,7759,NTS,B,11
6,11,prac,1,B,triangle.png,1,m,Tue Feb 24 2026 10:10:30 GMT-0600 (Central Standard Time),170500.69999998808,1000,O,m,994,5,1,2777.5999999940395,167723.09999999404,7759,NTS,B,12
2,1,test,1,A,circle.png,1,z,Tue Feb 24 2026 10:10:30 GMT-0600 (Central Standard Time),199557.69999998808,2000,O,z,910,2,1,2924.7999999970198,196632.89999999106,7759,NTS,B,1
3,2,test,1,A,circle.png,1,z,Tue Feb 24 2026 10:10:30 GMT-0600 (Central Standard Time),201590.19999998808,1200,O,z,810,3,1,2027.8999999910593,199562.29999999702,7759,NTS,B,2
1,3,test,1,A,circle.png,1,z,Tue Feb 24 2026 10:10:30 GMT-0600 (Central Standard Time),203139.19999998808,1000,O,z,530,1,1,1545.0999999940395,201594.09999999404,7759,NTS,B,3
2,4,test,1,A,circle.png,1,z,Tue Feb 24 2026 10:10:30 GMT-0600 (Central Standard Time),205805.79999999702,2000,O,z,637,2,1,2663.5,203142.29999999702,7759,NTS,B,4
9,5,test,1,A,circle.png,1,m,Tue Feb 24 2026 10:10:30 GMT-0600 (Central Standard Time),207971.39999999106,1500,O,m,632,8,1,2160.2000000029802,205811.19999998808,7759,NTS,B,5
1,6,test,1,A,circle.png,1,z,Tue Feb 24 2026 10:10:30 GMT-0600 (Central Standard Time),209504.09999999404,1000,O,z,508,1,1,1529.0999999940395,207975.0,7759,NTS,B,6
6,7,test,1,A,circle.png,1,m,Tue Feb 24 2026 10:10:30 GMT-0600 (Central Standard Time),212102.19999998808,1900,O,m,668,5,1,2592.2999999970198,209509.89999999106,7759,NTS,B,7
3,8,test,1,A,circle.png,1,z,Tue Feb 24 2026 10:10:30 GMT-0600 (Central Standard Time),214003.0,1200,O,z,669,3,1,1895.9000000059605,212107.09999999404,7759,NTS,B,8
6,9,test,1,A,circle.png,1,m,Tue Feb 24 2026 10:10:30 GMT-0600 (Central Standard Time),216535.5,1900,O,m,601,5,1,2526.9000000059605,214008.59999999404,7759,NTS,B,9
7,10,test,1,A,circle.png,1,m,Tue Feb 24 2026 10:10:30 GMT-0600 (Central Standard Time),218884.0,1700,O,m,628,6,1,2341.300000011921,216542.69999998808,7759,NTS,B,10
8,11,test,1,A,circle.png,1,m,Tue Feb 24 2026 10:10:30 GMT-0600 (Central Standard Time),221416.89999999106,1600,O,m,907,7,1,2527.5,218889.39999999106,7759,NTS,B,11
8,12,test,1,A,circle.png,1,m,Tue Feb 24 2026 10:10:30 GMT-0600 (Central Standard Time),223583.5,1600,O,m,534,7,1,2160.5,221423.0,7759,NTS,B,12
7,13,test,1,A,circle.png,1,m,Tue Feb 24 2026 10:10:30 GMT-0600 (Central Standard Time),225765.5,1700,O,m,461,6,1,2174.4000000059605,223591.09999999404,7759,NTS,B,13
9,14,test,1,A,circle.png,1,m,Tue Feb 24 2026 10:10:30 GMT-0600 (Central Standard Time),227698.5,1500,O,m,414,8,1,1926.6000000089407,225771.89999999106,7759,NTS,B,14
8,15,test,1,A,circle.png,1,m,Tue Feb 24 2026 10:10:30 GMT-0600 (Central Standard Time),229813.29999999702,1600,O,m,483,7,1,2109.0,227704.29999999702,7759,NTS,B,15
7,16,test,1,A,circle.png,1,m,Tue Feb 24 2026 10:10:30 GMT-0600 (Central Standard Time),231980.0,1700,O,m,436,6,1,2163.6000000089407,229816.39999999106,7759,NTS,B,16
2,17,test,1,A,circle.png,1,z,Tue Feb 24 2026 10:10:30 GMT-0600 (Central Standard Time),234564.19999998808,2000,O,z,562,2,1,2578.699999988079,231985.5,7759,NTS,B,17
3,18,test,1,A,circle.png,1,z,Tue Feb 24 2026 10:10:30 GMT-0600 (Central Standard Time),236228.69999998808,1200,O,z,445,3,1,1658.3999999910593,234570.29999999702,7759,NTS,B,18
6,19,test,1,A,circle.png,1,m,Tue Feb 24 2026 10:10:30 GMT-0600 (Central Standard Time),238728.29999999702,1900,O,m,575,5,1,2493.0,236235.29999999702,7759,NTS,B,19
4,20,test,1,A,circle.png,1,z,Tue Feb 24 2026 10:10:30 GMT-0600 (Central Standard Time),240978.09999999404,1400,O,z,831,4,1,2244.9000000059605,238733.19999998808,7759,NTS,B,20
2,21,test,1,A,circle.png,1,z,Tue Feb 24 2026 10:10:30 GMT-0600 (Central Standard Time),243543.0,2000,O,z,535,2,1,2560.0,240983.0,7759,NTS,B,21
4,22,test,1,A,circle.png,1,z,Tue Feb 24 2026 10:10:30 GMT-0600 (Central Standard Time),245442.59999999404,1400,O,z,481,4,1,1895.5,243547.09999999404,7759,NTS,B,22
1,23,test,1,A,circle.png,1,z,Tue Feb 24 2026 10:10:30 GMT-0600 (Central Standard Time),246960.19999998808,1000,O,z,485,1,1,1513.7999999970198,245446.39999999106,7759,NTS,B,23
8,24,test,1,A,circle.png,1,m,Tue Feb 24 2026 10:10:30 GMT-0600 (Central Standard Time),249243.0,1600,O,m,652,7,1,2278.6000000089407,246964.39999999106,7759,NTS,B,24
3,1,test,1,B,triangle.png,1,z,Tue Feb 24 2026 10:10:30 GMT-0600 (Central Standard Time),270618.09999999404,2000,O,z,807,11,1,2830.2999999970198,267787.799999997,7759,NTS,B,1
3,2,test,1,B,triangle.png,1,z,Tue Feb 24 2026 10:10:30 GMT-0600 (Central Standard Time),272750.6999999881,1600,O,z,501,3,1,2129.5999999940395,270621.09999999404,7759,NTS,B,2
7,3,test,1,B,triangle.png,1,z,Tue Feb 24 2026 10:10:30 GMT-0600 (Central Standard Time),275083.6999999881,1600,O,z,704,14,1,2328.7999999970198,272754.89999999106,7759,NTS,B,3
2,4,test,1,B,triangle.png,1,m,Tue Feb 24 2026 10:10:30 GMT-0600 (Central Standard Time),277183.1999999881,1200,O,m,870,10,1,2094.8999999910593,275088.299999997,7759,NTS,B,4
6,5,test,1,B,triangle.png,1,m,Tue Feb 24 2026 10:10:30 GMT-0600 (Central Standard Time),278865.59999999404,1000,O,m,657,5,1,1678.7999999970198,277186.799999997,7759,NTS,B,5
8,6,test,1,B,triangle.png,1,m,Tue Feb 24 2026 10:10:30 GMT-0600 (Central Standard Time),280682.5,1200,O,m,589,7,1,1813.7000000029802,278868.799999997,7759,NTS,B,6
4,7,test,1,B,triangle.png,1,m,Tue Feb 24 2026 10:10:30 GMT-0600 (Central Standard Time),282847.39999999106,1500,O,m,642,4,1,2161.2999999970198,280686.09999999404,7759,NTS,B,7
1,8,test,1,B,triangle.png,1,z,Tue Feb 24 2026 10:10:30 GMT-0600 (Central Standard Time),285297.39999999106,1900,O,z,517,1,1,2446.2000000029802,282851.1999999881,7759,NTS,B,8
4,9,test,1,B,triangle.png,1,m,Tue Feb 24 2026 10:10:30 GMT-0600 (Central Standard Time),286996.0,1000,O,m,681,12,1,1694.1000000089407,285301.89999999106,7759,NTS,B,9
8,10,test,1,B,triangle.png,1,m,Tue Feb 24 2026 10:10:30 GMT-0600 (Central Standard Time),288813.09999999404,1200,O,m,596,7,1,1814.0999999940395,286999.0,7759,NTS,B,10
6,11,test,1,B,triangle.png,1,m,Tue Feb 24 2026 10:10:30 GMT-0600 (Central Standard Time),290878.0,1500,O,m,543,13,1,2060.4000000059605,288817.59999999404,7759,NTS,B,11
9,12,test,1,B,triangle.png,1,z,Tue Feb 24 2026 10:10:30 GMT-0600 (Central Standard Time),293410.09999999404,1400,O,z,1103,8,1,2528.5999999940395,290881.5,7759,NTS,B,12
1,13,test,1,B,triangle.png,1,z,Tue Feb 24 2026 10:10:30 GMT-0600 (Central Standard Time),295976.299999997,1900,O,z,632,1,1,2562.5,293413.799999997,7759,NTS,B,13
6,14,test,1,B,triangle.png,1,m,Tue Feb 24 2026 10:10:30 GMT-0600 (Central Standard Time),298143.09999999404,1500,O,m,636,13,1,2163.5,295979.59999999404,7759,NTS,B,14
8,15,test,1,B,triangle.png,1,m,Tue Feb 24 2026 10:10:30 GMT-0600 (Central Standard Time),300441.59999999404,1700,O,m,575,15,1,2293.2999999970198,298148.299999997,7759,NTS,B,15
7,16,test,1,B,triangle.png,1,z,Tue Feb 24 2026 10:10:30 GMT-0600 (Central Standard Time),303074.299999997,1600,O,z,1007,14,1,2629.2999999970198,300445.0,7759,NTS,B,16
4,17,test,1,B,triangle.png,1,m,Tue Feb 24 2026 10:10:30 GMT-0600 (Central Standard Time),305123.799999997,1000,O,m,1022,12,1,2045.7999999970198,303078.0,7759,NTS,B,17
6,18,test,1,B,triangle.png,1,m,Tue Feb 24 2026 10:10:30 GMT-0600 (Central Standard Time),306739.89999999106,1000,O,m,596,5,1,1611.0999999940395,305128.799999997,7759,NTS,B,18
1,19,test,1,B,triangle.png,1,z,Tue Feb 24 2026 10:10:30 GMT-0600 (Central Standard Time),308706.0,1400,O,z,539,9,1,1960.9000000059605,306745.09999999404,7759,NTS,B,19
7,19,test,1,B,triangle.png,0,z,Tue Feb 24 2026 10:10:30 GMT-0600 (Central Standard Time),311371.5,2000,O,m,647,6,1,2661.2000000029802,308710.299999997,7759,NTS,B,20
2,20,test,1,B,triangle.png,1,m,Tue Feb 24 2026 10:10:30 GMT-0600 (Central Standard Time),314203.6999999881,1700,O,m,1104,2,1,2827.7999999970198,311375.89999999106,7759,NTS,B,21
4,21,test,1,B,triangle.png,1,m,Tue Feb 24 2026 10:10:30 GMT-0600 (Central Standard Time),316653.1999999881,1500,O,m,928,4,1,2446.2999999970198,314206.89999999106,7759,NTS,B,22
9,21,test,1,B,triangle.png,0,z,Tue Feb 24 2026 10:10:30 GMT-0600 (Central Standard Time),319406.59999999404,1900,O,m,829,16,1,2749.7999999970198,316656.799999997,7759,NTS,B,23
1,22,test,1,B,triangle.png,1,z,Tue Feb 24 2026 10:10:30 GMT-0600 (Central Standard Time),321785.1999999881,1400,O,z,956,9,1,2376.0,319409.1999999881,7759,NTS,B,24
7,0,prac,1,C,triangle.png,0,z,Tue Feb 24 2026 10:10:30 GMT-0600 (Central Standard Time),382848.09999999404,1200,O,None,1516,6,1,3489.7999999970198,379358.299999997,7759,NTS,B,1
2,1,prac,1,C,triangle.png,1,m,Tue Feb 24 2026 10:10:30 GMT-0600 (Central Standard Time),386265.39999999106,1600,O,m,1023,2,1,3413.2000000029802,382852.1999999881,7759,NTS,B,2
3,1,prac,1,C,triangle.png,0,z,Tue Feb 24 2026 10:10:30 GMT-0600 (Central Standard Time),390036.5,1500,O,None,1501,3,1,3767.300000011921,386269.1999999881,7759,NTS,B,3
3,2,prac,1,C,triangle.png,1,z,Tue Feb 24 2026 10:10:30 GMT-0600 (Central Standard Time),392979.5,1500,O,z,665,3,1,2939.5,390040.0,7759,NTS,B,4
9,3,prac,1,C,circle.png,1,m,Tue Feb 24 2026 10:10:30 GMT-0600 (Central Standard Time),397077.39999999106,1900,O,m,1401,8,1,4094.2000000029802,392983.1999999881,7759,NTS,B,5
7,3,prac,1,C,triangle.png,0,z,Tue Feb 24 2026 10:10:30 GMT-0600 (Central Standard Time),400559.89999999106,1200,O,None,1504,6,1,3475.5999999940395,397084.299999997,7759,NTS,B,6
2,3,prac,1,C,triangle.png,0,m,Tue Feb 24 2026 10:10:30 GMT-0600 (Central Standard Time),404442.5,1600,O,None,1501,2,1,3876.800000011921,400565.6999999881,7759,NTS,B,7
4,3,prac,1,C,circle.png,0,z,Tue Feb 24 2026 10:10:30 GMT-0600 (Central Standard Time),407741.89999999106,1000,O,None,1514,4,1,3294.2999999970198,404447.59999999404,7759,NTS,B,8
1,3,prac,1,C,circle.png,0,z,Tue Feb 24 2026 10:10:30 GMT-0600 (Central Standard Time),411724.1999999881,1700,O,None,1516,1,1,3976.699999988079,407747.5,7759,NTS,B,9
6,3,prac,1,C,circle.png,0,m,Tue Feb 24 2026 10:10:30 GMT-0600 (Central Standard Time),416022.89999999106,2000,O,None,1516,5,1,4293.0999999940395,411729.799999997,7759,NTS,B,10
8,3,prac,1,C,triangle.png,0,m,Tue Feb 24 2026 10:10:30 GMT-0600 (Central Standard Time),419704.09999999404,1400,O,None,1501,7,1,3674.5999999940395,416029.5,7759,NTS,B,11
4,3,prac,1,C,circle.png,0,z,Tue Feb 24 2026 10:10:30 GMT-0600 (Central Standard Time),423003.09999999404,1000,O,None,1515,4,1,3294.5,419708.59999999404,7759,NTS,B,12
6,0,test,1,C,triangle.png,0,m,Tue Feb 24 2026 10:10:30 GMT-0600 (Central Standard Time),779472.6999999881,1000,O,None,1516,13,1,2529.5999999940395,776943.099999994,7759,NTS,B,1
7,0,test,1,C,triangle.png,0,z,Tue Feb 24 2026 10:10:30 GMT-0600 (Central Standard Time),782705.599999994,1700,O,None,1517,6,1,3230.0999999940395,779475.5,7759,NTS,B,2
6,0,test,1,C,circle.png,0,m,Tue Feb 24 2026 10:10:30 GMT-0600 (Central Standard Time),786137.5,1900,O,None,1515,21,1,3426.9000000059605,782710.599999994,7759,NTS,B,3
4,1,test,1,C,triangle.png,1,m,Tue Feb 24 2026 10:10:30 GMT-0600 (Central Standard Time),788638.5,1500,O,m,972,12,1,2496.0,786142.5,7759,NTS,B,4
3,2,test,1,C,circle.png,1,z,Tue Feb 24 2026 10:10:30 GMT-0600 (Central Standard Time),791135.1999999881,1600,O,z,875,11,1,2492.8999999910593,788642.299999997,7759,NTS,B,5
8,3,test,1,C,triangle.png,1,m,Tue Feb 24 2026 10:10:30 GMT-0600 (Central Standard Time),793936.5,1600,O,m,1167,23,1,2797.5,791139.0,7759,NTS,B,6
1,4,test,1,C,triangle.png,1,z,Tue Feb 24 2026 10:10:30 GMT-0600 (Central Standard Time),797134.0,1900,O,z,1280,17,1,3194.6000000089407,793939.3999999911,7759,NTS,B,7
8,5,test,1,C,triangle.png,1,m,Tue Feb 24 2026 10:10:30 GMT-0600 (Central Standard Time),799699.799999997,1600,O,m,932,7,1,2562.1000000089407,797137.6999999881,7759,NTS,B,8
2,6,test,1,C,triangle.png,1,m,Tue Feb 24 2026 10:10:30 GMT-0600 (Central Standard Time),802882.1999999881,2000,O,m,1164,2,1,3177.5999999940395,799704.599999994,7759,NTS,B,9
1,6,test,1,C,circle.png,0,z,Tue Feb 24 2026 10:10:30 GMT-0600 (Central Standard Time),805398.799999997,1000,O,None,1501,1,1,2512.1000000089407,802886.6999999881,7759,NTS,B,10
3,7,test,1,C,circle.png,1,z,Tue Feb 24 2026 10:10:30 GMT-0600 (Central Standard Time),808231.3999999911,1600,O,z,1210,19,1,2827.3999999910593,805404.0,7759,NTS,B,11
6,8,test,1,C,circle.png,1,m,Tue Feb 24 2026 10:10:30 GMT-0600 (Central Standard Time),810978.099999994,1900,O,m,827,5,1,2741.7000000029802,808236.3999999911,7759,NTS,B,12
2,9,test,1,C,circle.png,1,z,Tue Feb 24 2026 10:10:30 GMT-0600 (Central Standard Time),814045.8999999911,1700,O,z,1345,18,1,3065.2000000029802,810980.6999999881,7759,NTS,B,13
9,10,test,1,C,triangle.png,1,z,Tue Feb 24 2026 10:10:30 GMT-0600 (Central Standard Time),816662.599999994,1400,O,z,1186,16,1,2611.9000000059605,814050.6999999881,7759,NTS,B,14
3,11,test,1,C,triangle.png,1,z,Tue Feb 24 2026 10:10:30 GMT-0600 (Central Standard Time),819226.6999999881,1200,O,z,1346,3,1,2557.0999999940395,816669.599999994,7759,NTS,B,15
1,12,test,1,C,triangle.png,1,z,Tue Feb 24 2026 10:10:30 GMT-0600 (Central Standard Time),822109.099999994,1900,O,z,961,9,1,2876.5,819232.599999994,7759,NTS,B,16
9,13,test,1,C,circle.png,1,m,Tue Feb 24 2026 10:10:30 GMT-0600 (Central Standard Time),824658.5,1500,O,m,1024,8,1,2541.0,822117.5,7759,NTS,B,17
4,14,test,1,C,triangle.png,1,m,Tue Feb 24 2026 10:10:30 GMT-0600 (Central Standard Time),827073.3999999911,1500,O,m,889,20,1,2409.3999999910593,824664.0,7759,NTS,B,18
2,15,test,1,C,circle.png,1,z,Tue Feb 24 2026 10:10:30 GMT-0600 (Central Standard Time),829889.6999999881,1700,O,z,1089,10,1,2811.7999999970198,827077.8999999911,7759,NTS,B,19
7,16,test,1,C,circle.png,1,m,Tue Feb 24 2026 10:10:30 GMT-0600 (Central Standard Time),833338.5,2000,O,m,1422,14,1,3444.5,829894.0,7759,NTS,B,20
9,17,test,1,C,circle.png,1,m,Tue Feb 24 2026 10:10:30 GMT-0600 (Central Standard Time),835472.099999994,1500,O,m,601,24,1,2127.2999999970198,833344.799999997,7759,NTS,B,21
8,18,test,1,C,circle.png,1,m,Tue Feb 24 2026 10:10:30 GMT-0600 (Central Standard Time),837438.599999994,1200,O,m,746,15,1,1959.5999999940395,835479.0,7759,NTS,B,22
4,19,test,1,C,circle.png,1,z,Tue Feb 24 2026 10:10:30 GMT-0600 (Central Standard Time),839737.1999999881,1400,O,z,882,4,1,2292.0999999940395,837445.099999994,7759,NTS,B,23
7,20,test,1,C,triangle.png,1,z,Tue Feb 24 2026 10:10:30 GMT-0600 (Central Standard Time),842369.6999999881,1700,O,z,907,22,1,2628.699999988079,839741.0,7759,NTS,B,24
6,1,test,2,C,triangle.png,1,m,Tue Feb 24 2026 10:10:30 GMT-0600 (Central Standard Time),880524.1999999881,1000,O,m,889,13,1,1911.5999999940395,878612.599999994,7759,NTS,B,1
3,2,test,2,C,triangle.png,1,z,Tue Feb 24 2026 10:10:30 GMT-0600 (Central Standard Time),882443.299999997,1200,O,z,684,3,1,1913.9000000059605,880529.3999999911,7759,NTS,B,2
8,3,test,2,C,circle.png,1,m,Tue Feb 24 2026 10:10:30 GMT-0600 (Central Standard Time),884906.799999997,1200,O,m,1240,23,1,2460.7999999970198,882446.0,7759,NTS,B,3
4,4,test,2,C,circle.png,1,z,Tue Feb 24 2026 10:10:30 GMT-0600 (Central Standard Time),887354.599999994,1400,O,z,1030,4,1,2444.0,884910.599999994,7759,NTS,B,4
7,4,test,2,C,triangle.png,0,z,Tue Feb 24 2026 10:10:30 GMT-0600 (Central Standard Time),889921.6999999881,1700,O,m,833,6,1,2564.5,887357.1999999881,7759,NTS,B,5
4,5,test,2,C,triangle.png,1,m,Tue Feb 24 2026 10:10:30 GMT-0600 (Central Standard Time),892786.599999994,1500,O,m,1339,20,1,2860.4000000059605,889926.1999999881,7759,NTS,B,6
4,6,test,2,C,triangle.png,1,m,Tue Feb 24 2026 10:10:30 GMT-0600 (Central Standard Time),895552.3999999911,1500,O,m,1241,12,1,2762.0,892790.3999999911,7759,NTS,B,7
2,7,test,2,C,circle.png,1,z,Tue Feb 24 2026 10:10:30 GMT-0600 (Central Standard Time),898218.6999999881,1700,O,z,949,10,1,2662.0999999940395,895556.599999994,7759,NTS,B,8
1,8,test,2,C,triangle.png,1,z,Tue Feb 24 2026 10:10:30 GMT-0600 (Central Standard Time),901151.799999997,1900,O,z,1002,17,1,2928.9000000059605,898222.8999999911,7759,NTS,B,9
1,9,test,2,C,circle.png,1,z,Tue Feb 24 2026 10:10:30 GMT-0600 (Central Standard Time),903367.799999997,1000,O,z,1185,1,1,2212.5,901155.299999997,7759,NTS,B,10
9,10,test,2,C,triangle.png,1,z,Tue Feb 24 2026 10:10:30 GMT-0600 (Central Standard Time),906234.1999999881,1400,O,z,1441,16,1,2862.2999999970198,903371.8999999911,7759,NTS,B,11
6,11,test,2,C,circle.png,1,m,Tue Feb 24 2026 10:10:30 GMT-0600 (Central Standard Time),909549.0,1900,O,m,1396,5,1,3310.800000011921,906238.1999999881,7759,NTS,B,12
8,12,test,2,C,circle.png,1,m,Tue Feb 24 2026 10:10:30 GMT-0600 (Central Standard Time),911580.0,1200,O,m,808,15,1,2027.800000011921,909552.1999999881,7759,NTS,B,13
3,13,test,2,C,circle.png,1,z,Tue Feb 24 2026 10:10:30 GMT-0600 (Central Standard Time),913929.5,1600,O,z,723,19,1,2345.1000000089407,911584.3999999911,7759,NTS,B,14
2,13,test,2,C,triangle.png,0,m,Tue Feb 24 2026 10:10:30 GMT-0600 (Central Standard Time),917262.299999997,2000,O,z,1309,2,1,3329.6000000089407,913932.6999999881,7759,NTS,B,15
3,13,test,2,C,circle.png,0,z,Tue Feb 24 2026 10:10:30 GMT-0600 (Central Standard Time),920379.299999997,1600,O,None,1501,11,1,3114.0,917265.299999997,7759,NTS,B,16
7,14,test,2,C,circle.png,1,m,Tue Feb 24 2026 10:10:30 GMT-0600 (Central Standard Time),923893.0,2000,O,m,1486,22,1,3510.4000000059605,920382.599999994,7759,NTS,B,17
6,15,test,2,C,triangle.png,1,m,Tue Feb 24 2026 10:10:30 GMT-0600 (Central Standard Time),926193.099999994,1000,O,m,1274,21,1,2297.7000000029802,923895.3999999911,7759,NTS,B,18
9,16,test,2,C,circle.png,1,m,Tue Feb 24 2026 10:10:30 GMT-0600 (Central Standard Time),929092.8999999911,1500,O,m,1372,8,1,2896.5,926196.3999999911,7759,NTS,B,19
1,17,test,2,C,triangle.png,1,z,Tue Feb 24 2026 10:10:30 GMT-0600 (Central Standard Time),932457.599999994,1900,O,z,1438,9,1,3360.0,929097.599999994,7759,NTS,B,20
2,17,test,2,C,circle.png,0,z,Tue Feb 24 2026 10:10:30 GMT-0600 (Central Standard Time),935690.0,1700,O,None,1516,18,1,3223.300000011921,932466.6999999881,7759,NTS,B,21
9,17,test,2,C,triangle.png,0,z,Tue Feb 24 2026 10:10:30 GMT-0600 (Central Standard Time),938622.099999994,1400,O,None,1516,24,1,2927.0999999940395,935695.0,7759,NTS,B,22
7,18,test,2,C,circle.png,1,m,Tue Feb 24 2026 10:10:30 GMT-0600 (Central Standard Time),941937.1999999881,2000,O,m,1299,14,1,3307.7999999970198,938629.3999999911,7759,NTS,B,23
8,19,test,2,C,triangle.png,1,m,Tue Feb 24 2026 10:10:30 GMT-0600 (Central Standard Time),944952.299999997,1600,O,m,1391,7,1,3011.4000000059605,941940.8999999911,7759,NTS,B,24
9,1,test,3,C,circle.png,1,m,Tue Feb 24 2026 10:10:30 GMT-0600 (Central Standard Time),953952.0,1500,O,m,887,24,1,2412.300000011921,951539.6999999881,7759,NTS,B,1
6,2,test,3,C,circle.png,1,m,Tue Feb 24 2026 10:10:30 GMT-0600 (Central Standard Time),956683.599999994,1900,O,m,804,21,1,2723.9000000059605,953959.6999999881,7759,NTS,B,2
9,3,test,3,C,triangle.png,1,z,Tue Feb 24 2026 10:10:30 GMT-0600 (Central Standard Time),959165.299999997,1400,O,z,1060,16,1,2476.0,956689.299999997,7759,NTS,B,3
8,4,test,3,C,triangle.png,1,m,Tue Feb 24 2026 10:10:30 GMT-0600 (Central Standard Time),961714.099999994,1600,O,m,922,23,1,2546.2999999970198,959167.799999997,7759,NTS,B,4
1,5,test,3,C,circle.png,1,z,Tue Feb 24 2026 10:10:30 GMT-0600 (Central Standard Time),963482.599999994,1000,O,z,741,1,1,1764.5999999940395,961718.0,7759,NTS,B,5
2,6,test,3,C,triangle.png,1,m,Tue Feb 24 2026 10:10:30 GMT-0600 (Central Standard Time),966779.8999999911,2000,O,m,1272,18,1,3293.8999999910593,963486.0,7759,NTS,B,6
7,6,test,3,C,triangle.png,0,z,Tue Feb 24 2026 10:10:30 GMT-0600 (Central Standard Time),970012.299999997,1700,O,None,1515,6,1,3228.9000000059605,966783.3999999911,7759,NTS,B,7
6,6,test,3,C,triangle.png,0,m,Tue Feb 24 2026 10:10:30 GMT-0600 (Central Standard Time),972544.799999997,1000,O,None,1516,13,1,2526.9000000059605,970017.8999999911,7759,NTS,B,8
9,7,test,3,C,circle.png,1,m,Tue Feb 24 2026 10:10:30 GMT-0600 (Central Standard Time),975428.8999999911,1500,O,m,1357,8,1,2877.8999999910593,972551.0,7759,NTS,B,9
6,8,test,3,C,circle.png,1,m,Tue Feb 24 2026 10:10:30 GMT-0600 (Central Standard Time),978260.3999999911,1900,O,m,914,5,1,2828.0999999940395,975432.299999997,7759,NTS,B,10
4,9,test,3,C,triangle.png,1,m,Tue Feb 24 2026 10:10:30 GMT-0600 (Central Standard Time),981109.5,1500,O,m,1310,12,1,2844.800000011921,978264.6999999881,7759,NTS,B,11
1,10,test,3,C,circle.png,1,z,Tue Feb 24 2026 10:10:30 GMT-0600 (Central Standard Time),982975.6999999881,1000,O,z,844,17,1,1861.2999999970198,981114.3999999911,7759,NTS,B,12
1,11,test,3,C,triangle.png,1,z,Tue Feb 24 2026 10:10:30 GMT-0600 (Central Standard Time),986191.099999994,1900,O,z,1286,9,1,3210.2999999970198,982980.799999997,7759,NTS,B,13
3,12,test,3,C,triangle.png,1,z,Tue Feb 24 2026 10:10:30 GMT-0600 (Central Standard Time),988490.3999999911,1200,O,z,1069,19,1,2295.7999999970198,986194.599999994,7759,NTS,B,14
8,12,test,3,C,circle.png,0,m,Tue Feb 24 2026 10:10:30 GMT-0600 (Central Standard Time),991223.0,1200,O,None,1516,15,1,2727.2000000029802,988495.799999997,7759,NTS,B,15
3,13,test,3,C,triangle.png,1,z,Tue Feb 24 2026 10:10:30 GMT-0600 (Central Standard Time),993787.599999994,1200,O,z,1334,3,1,2559.5,991228.099999994,7759,NTS,B,16
8,14,test,3,C,triangle.png,1,m,Tue Feb 24 2026 10:10:30 GMT-0600 (Central Standard Time),996221.299999997,1600,O,m,813,7,1,2428.7999999970198,993792.5,7759,NTS,B,17
7,15,test,3,C,triangle.png,1,z,Tue Feb 24 2026 10:10:30 GMT-0600 (Central Standard Time),998819.1999999881,1700,O,z,871,22,1,2594.0,996225.1999999881,7759,NTS,B,18
4,16,test,3,C,circle.png,1,z,Tue Feb 24 2026 10:10:30 GMT-0600 (Central Standard Time),1001586.1999999881,1400,O,z,1340,20,1,2764.199999988079,998822.0,7759,NTS,B,19
3,17,test,3,C,circle.png,1,z,Tue Feb 24 2026 10:10:30 GMT-0600 (Central Standard Time),1004101.299999997,1600,O,z,897,11,1,2511.0,1001590.299999997,7759,NTS,B,20
2,18,test,3,C,circle.png,1,z,Tue Feb 24 2026 10:10:30 GMT-0600 (Central Standard Time),1006468.5,1700,O,z,634,10,1,2363.800000011921,1004104.6999999881,7759,NTS,B,21
2,19,test,3,C,triangle.png,1,m,Tue Feb 24 2026 10:10:30 GMT-0600 (Central Standard Time),1009600.0,2000,O,m,1110,2,1,3128.6000000089407,1006471.3999999911,7759,NTS,B,22
7,20,test,3,C,circle.png,1,m,Tue Feb 24 2026 10:10:30 GMT-0600 (Central Standard Time),1012748.799999997,2000,O,m,1121,14,1,3145.5,1009603.299999997,7759,NTS,B,23
4,21,test,3,C,circle.png,1,z,Tue Feb 24 2026 10:10:30 GMT-0600 (Central Standard Time),1015331.799999997,1400,O,z,1155,4,1,2578.1000000089407,1012753.6999999881,7759,NTS,B,24
7,1,test,4,C,triangle.png,1,z,Tue Feb 24 2026 10:10:30 GMT-0600 (Central Standard Time),1023961.5,1700,O,z,1223,22,1,2944.5,1021017.0,7759,NTS,B,1
2,2,test,4,C,triangle.png,1,m,Tue Feb 24 2026 10:10:30 GMT-0600 (Central Standard Time),1027181.6999999881,2000,O,m,1187,2,1,3216.2999999970198,1023965.3999999911,7759,NTS,B,2
4,3,test,4,C,circle.png,1,z,Tue Feb 24 2026 10:10:30 GMT-0600 (Central Standard Time),1029561.3999999911,1400,O,z,952,20,1,2376.7999999970198,1027184.599999994,7759,NTS,B,3
1,4,test,4,C,triangle.png,1,z,Tue Feb 24 2026 10:10:30 GMT-0600 (Central Standard Time),1032325.5,1900,O,z,844,9,1,2758.800000011921,1029566.6999999881,7759,NTS,B,4
4,5,test,4,C,triangle.png,1,m,Tue Feb 24 2026 10:10:30 GMT-0600 (Central Standard Time),1034575.5,1500,O,m,720,12,1,2246.6000000089407,1032328.8999999911,7759,NTS,B,5
3,6,test,4,C,triangle.png,1,z,Tue Feb 24 2026 10:10:30 GMT-0600 (Central Standard Time),1036526.0,1200,O,z,731,19,1,1944.5,1034581.5,7759,NTS,B,6
9,7,test,4,C,triangle.png,1,z,Tue Feb 24 2026 10:10:30 GMT-0600 (Central Standard Time),1038940.0,1400,O,z,996,16,1,2409.2000000029802,1036530.799999997,7759,NTS,B,7
9,8,test,4,C,circle.png,1,m,Tue Feb 24 2026 10:10:30 GMT-0600 (Central Standard Time),1041340.6999999881,1500,O,m,873,24,1,2396.8999999910593,1038943.799999997,7759,NTS,B,8
8,9,test,4,C,triangle.png,1,m,Tue Feb 24 2026 10:10:30 GMT-0600 (Central Standard Time),1044321.6999999881,1600,O,m,1365,7,1,2975.0999999940395,1041346.599999994,7759,NTS,B,9
2,10,test,4,C,circle.png,1,z,Tue Feb 24 2026 10:10:30 GMT-0600 (Central Standard Time),1046937.299999997,1700,O,z,890,10,1,2610.7000000029802,1044326.599999994,7759,NTS,B,10
8,11,test,4,C,circle.png,1,m,Tue Feb 24 2026 10:10:30 GMT-0600 (Central Standard Time),1049637.699999988,1200,O,m,1471,15,1,2696.7999999970198,1046940.8999999911,7759,NTS,B,11
9,12,test,4,C,circle.png,1,m,Tue Feb 24 2026 10:10:30 GMT-0600 (Central Standard Time),1052452.199999988,1500,O,m,1289,8,1,2810.2999999970198,1049641.899999991,7759,NTS,B,12
1,13,test,4,C,circle.png,1,z,Tue Feb 24 2026 10:10:30 GMT-0600 (Central Standard Time),1054652.0,1000,O,z,1175,17,1,2194.7000000029802,1052457.299999997,7759,NTS,B,13
4,14,test,4,C,circle.png,1,z,Tue Feb 24 2026 10:10:30 GMT-0600 (Central Standard Time),1057319.5,1400,O,z,1244,4,1,2664.300000011921,1054655.199999988,7759,NTS,B,14
8,15,test,4,C,triangle.png,1,m,Tue Feb 24 2026 10:10:30 GMT-0600 (Central Standard Time),1059885.799999997,1600,O,m,940,23,1,2560.7999999970198,1057325.0,7759,NTS,B,15
1,16,test,4,C,circle.png,1,z,Tue Feb 24 2026 10:10:30 GMT-0600 (Central Standard Time),1062016.0,1000,O,z,1101,1,1,2124.300000011921,1059891.699999988,7759,NTS,B,16
7,17,test,4,C,triangle.png,1,z,Tue Feb 24 2026 10:10:30 GMT-0600 (Central Standard Time),1065014.899999991,1700,O,z,1268,6,1,2992.8999999910593,1062022.0,7759,NTS,B,17
7,18,test,4,C,circle.png,1,m,Tue Feb 24 2026 10:10:30 GMT-0600 (Central Standard Time),1068147.599999994,2000,O,m,1105,14,1,3127.2999999970198,1065020.299999997,7759,NTS,B,18
3,19,test,4,C,triangle.png,1,z,Tue Feb 24 2026 10:10:30 GMT-0600 (Central Standard Time),1070631.899999991,1200,O,z,1262,3,1,2480.0999999940395,1068151.799999997,7759,NTS,B,19
6,20,test,4,C,circle.png,1,m,Tue Feb 24 2026 10:10:30 GMT-0600 (Central Standard Time),1073679.0,1900,O,m,1119,5,1,3043.5,1070635.5,7759,NTS,B,20
2,21,test,4,C,triangle.png,1,m,Tue Feb 24 2026 10:10:30 GMT-0600 (Central Standard Time),1077026.799999997,2000,O,m,1320,18,1,3342.7000000029802,1073684.099999994,7759,NTS,B,21
6,22,test,4,C,triangle.png,1,m,Tue Feb 24 2026 10:10:30 GMT-0600 (Central Standard Time),1079095.0,1000,O,m,1037,13,1,2065.1000000089407,1077029.899999991,7759,NTS,B,22
6,23,test,4,C,circle.png,1,m,Tue Feb 24 2026 10:10:30 GMT-0600 (Central Standard Time),1081876.199999988,1900,O,m,854,21,1,2775.199999988079,1079101.0,7759,NTS,B,23
3,24,test,4,C,circle.png,1,z,Tue Feb 24 2026 10:10:30 GMT-0600 (Central Standard Time),1084792.399999991,1600,O,z,1289,11,1,2912.2000000029802,1081880.199999988,7759,NTS,B,24
