acc_sum,block,block_c,change,condition,correct,correct_response,datetime,endtime,face,project,response,response_time,row_sel,session_number,start_end,starttime,subject_id,task,task_vers,trial
0,prac,1,,1-Back,,,Thu May 07 2026 09:43:01 GMT-0500 (Central Daylight Time),,012_o_f_d_a.png,O,space,9497,1,1,,,7805,VNB,C,0
1,prac,1,0.0,1-Back,1.0,m,Thu May 07 2026 09:43:01 GMT-0500 (Central Daylight Time),116316.89999999106,022_y_f_n_a.png,O,m,787,2,1,1665.5,114651.39999999106,7805,VNB,C,1
1,prac,1,0.0,1-Back,0.0,m,Thu May 07 2026 09:43:01 GMT-0500 (Central Daylight Time),118234.59999999404,014_m_m_h_a.png,O,z,1071,3,1,1914.3999999910593,116320.20000000298,7805,VNB,C,2
2,prac,1,0.0,1-Back,1.0,m,Thu May 07 2026 09:43:01 GMT-0500 (Central Daylight Time),120051.5,025_y_m_d_a.png,O,m,958,4,1,1806.5,118245.0,7805,VNB,C,3
2,prac,1,0.0,1-Back,0.0,m,Thu May 07 2026 09:43:01 GMT-0500 (Central Daylight Time),121885.59999999404,012_o_f_n_a.png,O,z,980,5,1,1827.0999999940395,120058.5,7805,VNB,C,4
2,prac,1,1.0,1-Back,0.0,z,Thu May 07 2026 09:43:01 GMT-0500 (Central Daylight Time),124166.29999999702,025_y_m_n_a.png,O,m,1413,6,1,2270.2999999970198,121896.0,7805,VNB,C,5
3,prac,1,0.0,1-Back,1.0,m,Thu May 07 2026 09:43:01 GMT-0500 (Central Daylight Time),126301.70000000298,015_o_m_h_a.png,O,m,1274,7,1,2132.4000000059605,124169.29999999702,7805,VNB,C,6
4,prac,1,0.0,1-Back,1.0,m,Thu May 07 2026 09:43:01 GMT-0500 (Central Daylight Time),128266.39999999106,019_m_f_d_a.png,O,m,1086,8,1,1952.2999999970198,126314.09999999404,7805,VNB,C,7
5,prac,1,1.0,1-Back,1.0,z,Thu May 07 2026 09:43:01 GMT-0500 (Central Daylight Time),130015.59999999404,022_y_f_d_a.png,O,z,878,9,1,1742.3999999910593,128273.20000000298,7805,VNB,C,8
6,prac,1,0.0,1-Back,1.0,m,Thu May 07 2026 09:43:01 GMT-0500 (Central Daylight Time),131749.59999999404,014_m_m_n_a.png,O,m,884,10,1,1723.2999999970198,130026.29999999702,7805,VNB,C,9
6,prac,1,0.0,1-Back,0.0,m,Thu May 07 2026 09:43:01 GMT-0500 (Central Daylight Time),133499.20000000298,012_o_f_h_a.png,O,z,880,11,1,1742.2000000029802,131757.0,7805,VNB,C,10
7,prac,1,0.0,1-Back,1.0,m,Thu May 07 2026 09:43:01 GMT-0500 (Central Daylight Time),135231.79999999702,025_y_m_d_a.png,O,m,892,12,1,1719.7999999970198,133512.0,7805,VNB,C,11
0,prac,2,0.0,1-Back,,,Thu May 07 2026 09:43:01 GMT-0500 (Central Daylight Time),135231.79999999702,012_o_f_d_a.png,O,a,5958,1,1,1719.7999999970198,133512.0,7805,VNB,C,0
0,prac,2,0.0,1-Back,0.0,m,Thu May 07 2026 09:43:01 GMT-0500 (Central Daylight Time),146360.89999999106,022_y_f_n_a.png,O,z,1281,2,1,2145.0,144215.89999999106,7805,VNB,C,1
1,prac,2,0.0,1-Back,1.0,m,Thu May 07 2026 09:43:01 GMT-0500 (Central Daylight Time),148343.09999999404,014_m_m_h_a.png,O,m,1114,3,1,1971.5999999940395,146371.5,7805,VNB,C,2
2,prac,2,0.0,1-Back,1.0,m,Thu May 07 2026 09:43:01 GMT-0500 (Central Daylight Time),150060.79999999702,025_y_m_d_a.png,O,m,949,4,1,1711.7999999970198,148349.0,7805,VNB,C,3
2,prac,2,0.0,1-Back,0.0,m,Thu May 07 2026 09:43:01 GMT-0500 (Central Daylight Time),151859.20000000298,012_o_f_n_a.png,O,z,927,5,1,1789.0,150070.20000000298,7805,VNB,C,4
3,prac,2,1.0,1-Back,1.0,z,Thu May 07 2026 09:43:01 GMT-0500 (Central Daylight Time),154191.89999999106,025_y_m_n_a.png,O,z,1476,6,1,2325.8999999910593,151866.0,7805,VNB,C,5
4,prac,2,0.0,1-Back,1.0,m,Thu May 07 2026 09:43:01 GMT-0500 (Central Daylight Time),155841.79999999702,015_o_m_h_a.png,O,m,767,7,1,1640.0999999940395,154201.70000000298,7805,VNB,C,6
5,prac,2,0.0,1-Back,1.0,m,Thu May 07 2026 09:43:01 GMT-0500 (Central Daylight Time),157939.29999999702,019_m_f_d_a.png,O,m,1220,8,1,2091.2999999970198,155848.0,7805,VNB,C,7
6,prac,2,1.0,1-Back,1.0,z,Thu May 07 2026 09:43:01 GMT-0500 (Central Daylight Time),159674.0,022_y_f_d_a.png,O,z,849,9,1,1724.0,157950.0,7805,VNB,C,8
7,prac,2,0.0,1-Back,1.0,m,Thu May 07 2026 09:43:01 GMT-0500 (Central Daylight Time),161323.5,014_m_m_n_a.png,O,m,789,10,1,1643.2000000029802,159680.29999999702,7805,VNB,C,9
7,prac,2,0.0,1-Back,0.0,m,Thu May 07 2026 09:43:01 GMT-0500 (Central Daylight Time),163123.59999999404,012_o_f_h_a.png,O,z,939,11,1,1788.5999999940395,161335.0,7805,VNB,C,10
8,prac,2,0.0,1-Back,1.0,m,Thu May 07 2026 09:43:01 GMT-0500 (Central Daylight Time),164822.39999999106,025_y_m_d_a.png,O,m,842,12,1,1692.8999999910593,163129.5,7805,VNB,C,11
0,test,1,0.0,1-Back,,,Thu May 07 2026 09:43:01 GMT-0500 (Central Daylight Time),164822.39999999106,022_y_f_d_a.png,O,space,5723,1,1,1692.8999999910593,163129.5,7805,VNB,C,0
1,test,1,0.0,1-Back,1.0,m,Thu May 07 2026 09:43:01 GMT-0500 (Central Daylight Time),187265.0,019_m_f_n_a.png,O,m,590,2,1,1598.7999999970198,185666.20000000298,7805,VNB,C,1
2,test,1,0.0,1-Back,1.0,m,Thu May 07 2026 09:43:01 GMT-0500 (Central Daylight Time),189213.89999999106,015_o_m_h_a.png,O,m,916,3,1,1940.3999999910593,187273.5,7805,VNB,C,2
3,test,1,1.0,1-Back,1.0,z,Thu May 07 2026 09:43:01 GMT-0500 (Central Daylight Time),190947.20000000298,014_m_m_h_a.png,O,z,707,4,1,1730.1000000089407,189217.09999999404,7805,VNB,C,3
4,test,1,0.0,1-Back,1.0,m,Thu May 07 2026 09:43:01 GMT-0500 (Central Daylight Time),192646.20000000298,012_o_f_n_a.png,O,m,670,5,1,1689.6000000089407,190956.59999999404,7805,VNB,C,4
5,test,1,0.0,1-Back,1.0,m,Thu May 07 2026 09:43:01 GMT-0500 (Central Daylight Time),194712.39999999106,025_y_m_d_a.png,O,m,1035,6,1,2063.5,192648.89999999106,7805,VNB,C,5
5,test,1,1.0,1-Back,0.0,z,Thu May 07 2026 09:43:01 GMT-0500 (Central Daylight Time),196612.59999999404,019_m_f_d_a.png,O,m,873,7,1,1889.3999999910593,194723.20000000298,7805,VNB,C,6
6,test,1,0.0,1-Back,1.0,m,Thu May 07 2026 09:43:01 GMT-0500 (Central Daylight Time),198793.20000000298,022_y_f_h_a.png,O,m,1157,8,1,2177.2000000029802,196616.0,7805,VNB,C,7
7,test,1,0.0,1-Back,1.0,m,Thu May 07 2026 09:43:01 GMT-0500 (Central Daylight Time),200744.89999999106,015_o_m_n_a.png,O,m,917,9,1,1941.8999999910593,198803.0,7805,VNB,C,8
8,test,1,0.0,1-Back,1.0,m,Thu May 07 2026 09:43:01 GMT-0500 (Central Daylight Time),202743.29999999702,025_y_m_h_a.png,O,m,976,10,1,1995.7000000029802,200747.59999999404,7805,VNB,C,9
9,test,1,0.0,1-Back,1.0,m,Thu May 07 2026 09:43:01 GMT-0500 (Central Daylight Time),204574.70000000298,015_o_m_d_a.png,O,m,800,11,1,1826.6000000089407,202748.09999999404,7805,VNB,C,10
10,test,1,1.0,1-Back,1.0,z,Thu May 07 2026 09:43:01 GMT-0500 (Central Daylight Time),206526.59999999404,012_o_f_d_a.png,O,z,923,12,1,1949.3999999910593,204577.20000000298,7805,VNB,C,11
11,test,1,0.0,1-Back,1.0,m,Thu May 07 2026 09:43:01 GMT-0500 (Central Daylight Time),208458.79999999702,014_m_m_n_a.png,O,m,899,13,1,1924.0,206534.79999999702,7805,VNB,C,12
12,test,1,1.0,1-Back,1.0,z,Thu May 07 2026 09:43:01 GMT-0500 (Central Daylight Time),210789.89999999106,022_y_f_n_a.png,O,z,1301,14,1,2327.199999988079,208462.70000000298,7805,VNB,C,13
13,test,1,0.0,1-Back,1.0,m,Thu May 07 2026 09:43:01 GMT-0500 (Central Daylight Time),212572.0,019_m_f_h_a.png,O,m,763,15,1,1770.9000000059605,210801.09999999404,7805,VNB,C,14
14,test,1,0.0,1-Back,1.0,m,Thu May 07 2026 09:43:01 GMT-0500 (Central Daylight Time),214523.89999999106,014_m_m_d_a.png,O,m,924,16,1,1949.7999999970198,212574.09999999404,7805,VNB,C,15
15,test,1,0.0,1-Back,1.0,m,Thu May 07 2026 09:43:01 GMT-0500 (Central Daylight Time),216756.89999999106,025_y_m_n_a.png,O,m,1202,17,1,2224.8999999910593,214532.0,7805,VNB,C,16
16,test,1,0.0,1-Back,1.0,m,Thu May 07 2026 09:43:01 GMT-0500 (Central Daylight Time),218687.79999999702,012_o_f_h_a.png,O,m,908,18,1,1928.0999999940395,216759.70000000298,7805,VNB,C,17
0,test,2,0.0,1-Back,,,Thu May 07 2026 09:43:01 GMT-0500 (Central Daylight Time),218687.79999999702,025_y_m_n_a.png,O,space,3610,1,1,1928.0999999940395,216759.70000000298,7805,VNB,C,0
1,test,2,0.0,1-Back,1.0,m,Thu May 07 2026 09:43:01 GMT-0500 (Central Daylight Time),226035.70000000298,022_y_f_h_a.png,O,m,690,2,1,1711.0,224324.70000000298,7805,VNB,C,1
2,test,2,1.0,1-Back,1.0,m,Thu May 07 2026 09:43:01 GMT-0500 (Central Daylight Time),228183.89999999106,015_o_m_n_a.png,O,m,1126,3,1,2138.699999988079,226045.20000000298,7805,VNB,C,2
3,test,2,0.0,1-Back,1.0,m,Thu May 07 2026 09:43:01 GMT-0500 (Central Daylight Time),230100.79999999702,019_m_f_d_a.png,O,m,889,4,1,1910.7000000029802,228190.09999999404,7805,VNB,C,3
4,test,2,0.0,1-Back,1.0,z,Thu May 07 2026 09:43:01 GMT-0500 (Central Daylight Time),232398.89999999106,014_m_m_d_a.png,O,z,1268,5,1,2289.2999999970198,230109.59999999404,7805,VNB,C,4
5,test,2,0.0,1-Back,1.0,m,Thu May 07 2026 09:43:01 GMT-0500 (Central Daylight Time),234049.0,025_y_m_h_a.png,O,m,625,6,1,1646.5,232402.5,7805,VNB,C,5
6,test,2,1.0,1-Back,1.0,z,Thu May 07 2026 09:43:01 GMT-0500 (Central Daylight Time),236331.29999999702,012_o_f_h_a.png,O,z,1256,7,1,2270.2999999970198,234061.0,7805,VNB,C,6
7,test,2,0.0,1-Back,1.0,m,Thu May 07 2026 09:43:01 GMT-0500 (Central Daylight Time),238081.39999999106,019_m_f_n_a.png,O,m,718,8,1,1745.3999999910593,236336.0,7805,VNB,C,7
7,test,2,0.0,1-Back,0.0,m,Thu May 07 2026 09:43:01 GMT-0500 (Central Daylight Time),239931.0,022_y_f_d_a.png,O,z,825,9,1,1839.7000000029802,238091.29999999702,7805,VNB,C,8
8,test,2,0.0,1-Back,1.0,m,Thu May 07 2026 09:43:01 GMT-0500 (Central Daylight Time),242013.39999999106,014_m_m_n_a.png,O,m,1062,10,1,2076.0,239937.39999999106,7805,VNB,C,9
9,test,2,1.0,1-Back,1.0,m,Thu May 07 2026 09:43:01 GMT-0500 (Central Daylight Time),243980.29999999702,019_m_f_h_a.png,O,m,950,11,1,1959.0,242021.29999999702,7805,VNB,C,10
10,test,2,0.0,1-Back,1.0,z,Thu May 07 2026 09:43:01 GMT-0500 (Central Daylight Time),246126.5,015_o_m_h_a.png,O,z,1119,12,1,2142.6000000089407,243983.89999999106,7805,VNB,C,11
11,test,2,0.0,1-Back,1.0,m,Thu May 07 2026 09:43:01 GMT-0500 (Central Daylight Time),247894.5,025_y_m_d_a.png,O,m,744,13,1,1763.2000000029802,246131.29999999702,7805,VNB,C,12
12,test,2,0.0,1-Back,1.0,m,Thu May 07 2026 09:43:01 GMT-0500 (Central Daylight Time),250127.20000000298,012_o_f_n_a.png,O,m,1210,14,1,2226.300000011921,247900.89999999106,7805,VNB,C,13
13,test,2,0.0,1-Back,1.0,z,Thu May 07 2026 09:43:01 GMT-0500 (Central Daylight Time),252193.89999999106,022_y_f_n_a.png,O,z,1035,15,1,2055.0999999940395,250138.79999999702,7805,VNB,C,14
14,test,2,1.0,1-Back,1.0,m,Thu May 07 2026 09:43:01 GMT-0500 (Central Daylight Time),253878.29999999702,014_m_m_h_a.png,O,m,657,16,1,1682.0,252196.29999999702,7805,VNB,C,15
14,test,2,0.0,1-Back,0.0,m,Thu May 07 2026 09:43:01 GMT-0500 (Central Daylight Time),255712.0,012_o_f_d_a.png,O,z,788,17,1,1822.4000000059605,253889.59999999404,7805,VNB,C,16
14,test,2,1.0,1-Back,0.0,z,Thu May 07 2026 09:43:01 GMT-0500 (Central Daylight Time),258541.0,015_o_m_d_a.png,O,m,1804,18,1,2826.7000000029802,255714.29999999702,7805,VNB,C,17
0,test,3,1.0,1-Back,,,Thu May 07 2026 09:43:01 GMT-0500 (Central Daylight Time),258541.0,012_o_f_h_a.png,O,space,5683,1,1,2826.7000000029802,255714.29999999702,7805,VNB,C,0
1,test,3,0.0,1-Back,1.0,m,Thu May 07 2026 09:43:01 GMT-0500 (Central Daylight Time),268872.39999999106,019_m_f_d_a.png,O,m,1509,2,1,2531.199999988079,266341.200000003,7805,VNB,C,1
2,test,3,1.0,1-Back,1.0,m,Thu May 07 2026 09:43:01 GMT-0500 (Central Daylight Time),271004.5,014_m_m_n_a.png,O,m,1106,3,1,2129.2999999970198,268875.200000003,7805,VNB,C,2
3,test,3,0.0,1-Back,1.0,z,Thu May 07 2026 09:43:01 GMT-0500 (Central Daylight Time),272920.59999999404,012_o_f_n_a.png,O,z,892,4,1,1911.0999999940395,271009.5,7805,VNB,C,3
4,test,3,1.0,1-Back,1.0,m,Thu May 07 2026 09:43:01 GMT-0500 (Central Daylight Time),274803.700000003,015_o_m_d_a.png,O,m,850,5,1,1879.9000000059605,272923.799999997,7805,VNB,C,4
5,test,3,0.0,1-Back,1.0,m,Thu May 07 2026 09:43:01 GMT-0500 (Central Daylight Time),276936.89999999106,022_y_f_h_a.png,O,m,1111,6,1,2124.0,274812.89999999106,7805,VNB,C,5
6,test,3,0.0,1-Back,1.0,z,Thu May 07 2026 09:43:01 GMT-0500 (Central Daylight Time),278836.200000003,025_y_m_h_a.png,O,z,868,7,1,1896.0,276940.200000003,7805,VNB,C,6
7,test,3,0.0,1-Back,1.0,m,Thu May 07 2026 09:43:01 GMT-0500 (Central Daylight Time),280517.700000003,019_m_f_n_a.png,O,m,655,8,1,1672.7000000029802,278845.0,7805,VNB,C,7
7,test,3,0.0,1-Back,0.0,m,Thu May 07 2026 09:43:01 GMT-0500 (Central Daylight Time),282267.700000003,022_y_f_d_a.png,O,z,732,9,1,1746.4000000059605,280521.299999997,7805,VNB,C,8
8,test,3,1.0,1-Back,1.0,m,Thu May 07 2026 09:43:01 GMT-0500 (Central Daylight Time),284232.799999997,015_o_m_n_a.png,O,m,941,10,1,1954.7999999970198,282278.0,7805,VNB,C,9
9,test,3,0.0,1-Back,1.0,m,Thu May 07 2026 09:43:01 GMT-0500 (Central Daylight Time),286097.799999997,014_m_m_h_a.png,O,m,840,11,1,1863.2000000029802,284234.59999999404,7805,VNB,C,10
10,test,3,0.0,1-Back,1.0,z,Thu May 07 2026 09:43:01 GMT-0500 (Central Daylight Time),288115.59999999404,019_m_f_h_a.png,O,z,989,12,1,2014.7999999970198,286100.799999997,7805,VNB,C,11
11,test,3,1.0,1-Back,1.0,m,Thu May 07 2026 09:43:01 GMT-0500 (Central Daylight Time),289832.299999997,012_o_f_d_a.png,O,m,693,13,1,1714.5,288117.799999997,7805,VNB,C,12
12,test,3,0.0,1-Back,1.0,z,Thu May 07 2026 09:43:01 GMT-0500 (Central Daylight Time),292232.39999999106,014_m_m_d_a.png,O,z,1377,14,1,2391.5999999940395,289840.799999997,7805,VNB,C,13
13,test,3,0.0,1-Back,1.0,m,Thu May 07 2026 09:43:01 GMT-0500 (Central Daylight Time),293980.5,025_y_m_n_a.png,O,m,718,15,1,1746.2999999970198,292234.200000003,7805,VNB,C,14
14,test,3,1.0,1-Back,1.0,m,Thu May 07 2026 09:43:01 GMT-0500 (Central Daylight Time),296213.0,015_o_m_h_a.png,O,m,1206,16,1,2223.7000000029802,293989.299999997,7805,VNB,C,15
15,test,3,0.0,1-Back,1.0,m,Thu May 07 2026 09:43:01 GMT-0500 (Central Daylight Time),298111.5,025_y_m_d_a.png,O,m,875,17,1,1894.7000000029802,296216.799999997,7805,VNB,C,16
16,test,3,1.0,1-Back,1.0,m,Thu May 07 2026 09:43:01 GMT-0500 (Central Daylight Time),300246.299999997,022_y_f_n_a.png,O,m,1100,18,1,2127.4000000059605,298118.89999999106,7805,VNB,C,17
0,test,4,1.0,1-Back,,,Thu May 07 2026 09:43:01 GMT-0500 (Central Daylight Time),300246.299999997,014_m_m_d_a.png,O,space,4250,1,1,2127.4000000059605,298118.89999999106,7805,VNB,C,0
0,test,4,0.0,1-Back,0.0,z,Thu May 07 2026 09:43:01 GMT-0500 (Central Daylight Time),308675.39999999106,015_o_m_d_a.png,O,m,1130,2,1,2146.0,306529.39999999106,7805,VNB,C,1
1,test,4,0.0,1-Back,1.0,m,Thu May 07 2026 09:43:01 GMT-0500 (Central Daylight Time),310793.39999999106,025_y_m_h_a.png,O,m,1086,3,1,2115.2999999970198,308678.09999999404,7805,VNB,C,2
2,test,4,0.0,1-Back,1.0,m,Thu May 07 2026 09:43:01 GMT-0500 (Central Daylight Time),312625.299999997,019_m_f_n_a.png,O,m,800,4,1,1821.5,310803.799999997,7805,VNB,C,3
3,test,4,1.0,1-Back,1.0,m,Thu May 07 2026 09:43:01 GMT-0500 (Central Daylight Time),314373.0,012_o_f_h_a.png,O,m,728,5,1,1744.2999999970198,312628.700000003,7805,VNB,C,4
4,test,4,0.0,1-Back,1.0,m,Thu May 07 2026 09:43:01 GMT-0500 (Central Daylight Time),316173.5,014_m_m_n_a.png,O,m,778,6,1,1795.7999999970198,314377.700000003,7805,VNB,C,5
5,test,4,0.0,1-Back,1.0,m,Thu May 07 2026 09:43:01 GMT-0500 (Central Daylight Time),317973.59999999404,025_y_m_d_a.png,O,m,773,7,1,1797.0,316176.59999999404,7805,VNB,C,6
6,test,4,1.0,1-Back,1.0,z,Thu May 07 2026 09:43:01 GMT-0500 (Central Daylight Time),320004.89999999106,022_y_f_d_a.png,O,z,1011,8,1,2023.5999999940395,317981.299999997,7805,VNB,C,7
7,test,4,0.0,1-Back,1.0,m,Thu May 07 2026 09:43:01 GMT-0500 (Central Daylight Time),321671.09999999404,019_m_f_h_a.png,O,m,634,9,1,1663.7000000029802,320007.39999999106,7805,VNB,C,8
8,test,4,0.0,1-Back,1.0,z,Thu May 07 2026 09:43:01 GMT-0500 (Central Daylight Time),323754.0,015_o_m_h_a.png,O,z,1057,10,1,2072.6000000089407,321681.39999999106,7805,VNB,C,9
9,test,4,1.0,1-Back,1.0,m,Thu May 07 2026 09:43:01 GMT-0500 (Central Daylight Time),325421.299999997,012_o_f_n_a.png,O,m,647,11,1,1665.2999999970198,323756.0,7805,VNB,C,10
10,test,4,0.0,1-Back,1.0,m,Thu May 07 2026 09:43:01 GMT-0500 (Central Daylight Time),327420.89999999106,019_m_f_d_a.png,O,m,967,12,1,1991.7999999970198,325429.09999999404,7805,VNB,C,11
11,test,4,0.0,1-Back,1.0,m,Thu May 07 2026 09:43:01 GMT-0500 (Central Daylight Time),329319.39999999106,022_y_f_n_a.png,O,m,869,13,1,1895.3999999910593,327424.0,7805,VNB,C,12
12,test,4,0.0,1-Back,1.0,m,Thu May 07 2026 09:43:01 GMT-0500 (Central Daylight Time),331067.89999999106,012_o_f_d_a.png,O,m,730,14,1,1737.8999999910593,329330.0,7805,VNB,C,13
13,test,4,0.0,1-Back,1.0,m,Thu May 07 2026 09:43:01 GMT-0500 (Central Daylight Time),333051.200000003,022_y_f_h_a.png,O,m,948,15,1,1980.4000000059605,331070.799999997,7805,VNB,C,14
14,test,4,1.0,1-Back,1.0,z,Thu May 07 2026 09:43:01 GMT-0500 (Central Daylight Time),334734.09999999404,014_m_m_h_a.png,O,z,656,16,1,1675.5999999940395,333058.5,7805,VNB,C,15
15,test,4,0.0,1-Back,1.0,m,Thu May 07 2026 09:43:01 GMT-0500 (Central Daylight Time),336534.39999999106,015_o_m_n_a.png,O,m,783,17,1,1797.199999988079,334737.200000003,7805,VNB,C,16
15,test,4,1.0,1-Back,0.0,z,Thu May 07 2026 09:43:01 GMT-0500 (Central Daylight Time),338365.5,025_y_m_n_a.png,O,m,813,18,1,1823.6000000089407,336541.89999999106,7805,VNB,C,17
0,test,5,1.0,1-Back,,,Thu May 07 2026 09:43:01 GMT-0500 (Central Daylight Time),338365.5,015_o_m_n_a.png,O,space,3702,1,1,1823.6000000089407,336541.89999999106,7805,VNB,C,0
1,test,5,1.0,1-Back,1.0,m,Thu May 07 2026 09:43:01 GMT-0500 (Central Daylight Time),345996.799999997,012_o_f_h_a.png,O,m,868,2,1,1890.7999999970198,344106.0,7805,VNB,C,1
2,test,5,0.0,1-Back,1.0,m,Thu May 07 2026 09:43:01 GMT-0500 (Central Daylight Time),347896.0,025_y_m_d_a.png,O,m,876,3,1,1895.1000000089407,346000.89999999106,7805,VNB,C,2
3,test,5,0.0,1-Back,1.0,z,Thu May 07 2026 09:43:01 GMT-0500 (Central Daylight Time),349828.59999999404,015_o_m_d_a.png,O,z,907,4,1,1923.2000000029802,347905.39999999106,7805,VNB,C,3
4,test,5,0.0,1-Back,1.0,m,Thu May 07 2026 09:43:01 GMT-0500 (Central Daylight Time),351511.299999997,019_m_f_h_a.png,O,m,660,5,1,1677.4000000059605,349833.89999999106,7805,VNB,C,4
5,test,5,0.0,1-Back,1.0,m,Thu May 07 2026 09:43:01 GMT-0500 (Central Daylight Time),353262.5,022_y_f_n_a.png,O,m,718,6,1,1739.7000000029802,351522.799999997,7805,VNB,C,5
6,test,5,1.0,1-Back,1.0,z,Thu May 07 2026 09:43:01 GMT-0500 (Central Daylight Time),355227.700000003,012_o_f_n_a.png,O,z,941,7,1,1961.4000000059605,353266.299999997,7805,VNB,C,6
7,test,5,0.0,1-Back,1.0,m,Thu May 07 2026 09:43:01 GMT-0500 (Central Daylight Time),356909.89999999106,019_m_f_d_a.png,O,m,653,8,1,1673.0999999940395,355236.799999997,7805,VNB,C,7
8,test,5,0.0,1-Back,1.0,m,Thu May 07 2026 09:43:01 GMT-0500 (Central Daylight Time),358925.299999997,025_y_m_h_a.png,O,m,996,9,1,2011.9000000059605,356913.39999999106,7805,VNB,C,8
9,test,5,0.0,1-Back,1.0,m,Thu May 07 2026 09:43:01 GMT-0500 (Central Daylight Time),360659.200000003,022_y_f_d_a.png,O,m,708,10,1,1722.5,358936.700000003,7805,VNB,C,9
10,test,5,0.0,1-Back,1.0,m,Thu May 07 2026 09:43:01 GMT-0500 (Central Daylight Time),362374.59999999404,014_m_m_n_a.png,O,m,686,11,1,1712.2999999970198,360662.299999997,7805,VNB,C,10
11,test,5,1.0,1-Back,1.0,z,Thu May 07 2026 09:43:01 GMT-0500 (Central Daylight Time),364240.700000003,019_m_f_n_a.png,O,z,843,12,1,1856.0,362384.700000003,7805,VNB,C,11
12,test,5,0.0,1-Back,1.0,m,Thu May 07 2026 09:43:01 GMT-0500 (Central Daylight Time),365940.09999999404,015_o_m_h_a.png,O,m,671,13,1,1694.7000000029802,364245.39999999106,7805,VNB,C,12
13,test,5,0.0,1-Back,1.0,z,Thu May 07 2026 09:43:01 GMT-0500 (Central Daylight Time),367757.5,014_m_m_h_a.png,O,z,789,14,1,1810.0,365947.5,7805,VNB,C,13
14,test,5,1.0,1-Back,1.0,m,Thu May 07 2026 09:43:01 GMT-0500 (Central Daylight Time),369439.799999997,012_o_f_d_a.png,O,m,661,15,1,1677.2999999970198,367762.5,7805,VNB,C,14
15,test,5,0.0,1-Back,1.0,m,Thu May 07 2026 09:43:01 GMT-0500 (Central Daylight Time),371487.700000003,025_y_m_n_a.png,O,m,1025,16,1,2036.800000011921,369450.89999999106,7805,VNB,C,15
16,test,5,0.0,1-Back,1.0,m,Thu May 07 2026 09:43:01 GMT-0500 (Central Daylight Time),373488.5,022_y_f_h_a.png,O,m,976,17,1,1997.4000000059605,371491.09999999404,7805,VNB,C,16
17,test,5,0.0,1-Back,1.0,m,Thu May 07 2026 09:43:01 GMT-0500 (Central Daylight Time),375720.09999999404,014_m_m_d_a.png,O,m,1199,18,1,2222.0,373498.09999999404,7805,VNB,C,17
0,prac,1,0.0,2-Back,,,Thu May 07 2026 09:43:01 GMT-0500 (Central Daylight Time),375720.09999999404,019_m_f_n_a.png,O,space,6182,1,1,2222.0,373498.09999999404,7805,VNB,C,0
0,prac,1,0.0,2-Back,,,Thu May 07 2026 09:43:01 GMT-0500 (Central Daylight Time),375720.09999999404,012_o_f_h_a.png,O,space,6182,2,1,2222.0,373498.09999999404,7805,VNB,C,0
1,prac,1,0.0,2-Back,1.0,m,Thu May 07 2026 09:43:01 GMT-0500 (Central Daylight Time),465258.5,015_o_m_d_a.png,O,m,854,3,1,1709.4000000059605,463549.09999999404,7805,VNB,C,1
1,prac,1,1.0,2-Back,0.0,z,Thu May 07 2026 09:43:01 GMT-0500 (Central Daylight Time),467441.59999999404,014_m_m_h_a.png,O,m,1302,4,1,2168.5,465273.09999999404,7805,VNB,C,2
1,prac,1,0.0,2-Back,0.0,m,Thu May 07 2026 09:43:01 GMT-0500 (Central Daylight Time),469541.799999997,022_y_f_n_a.png,O,z,1236,5,1,2095.2999999970198,467446.5,7805,VNB,C,3
1,prac,1,1.0,2-Back,0.0,z,Thu May 07 2026 09:43:01 GMT-0500 (Central Daylight Time),471507.39999999106,015_o_m_h_a.png,O,m,1079,6,1,1953.699999988079,469553.700000003,7805,VNB,C,4
2,prac,1,1.0,2-Back,1.0,z,Thu May 07 2026 09:43:01 GMT-0500 (Central Daylight Time),473691.59999999404,025_y_m_n_a.png,O,z,1342,7,1,2177.2000000029802,471514.39999999106,7805,VNB,C,5
3,prac,1,0.0,2-Back,1.0,m,Thu May 07 2026 09:43:01 GMT-0500 (Central Daylight Time),475739.700000003,019_m_f_d_a.png,O,m,1194,8,1,2038.4000000059605,473701.299999997,7805,VNB,C,6
3,prac,1,0.0,2-Back,0.0,m,Thu May 07 2026 09:43:01 GMT-0500 (Central Daylight Time),478055.799999997,012_o_f_d_a.png,O,z,1448,9,1,2311.7000000029802,475744.09999999404,7805,VNB,C,7
4,prac,1,0.0,2-Back,1.0,m,Thu May 07 2026 09:43:01 GMT-0500 (Central Daylight Time),479971.09999999404,014_m_m_h_a.png,O,m,1123,10,1,1903.7999999970198,478067.299999997,7805,VNB,C,8
5,prac,1,1.0,2-Back,1.0,z,Thu May 07 2026 09:43:01 GMT-0500 (Central Daylight Time),482139.200000003,022_y_f_d_a.png,O,z,1297,11,1,2161.2000000029802,479978.0,7805,VNB,C,9
5,prac,1,0.0,2-Back,0.0,m,Thu May 07 2026 09:43:01 GMT-0500 (Central Daylight Time),484220.09999999404,015_o_m_n_a.png,O,z,1211,12,1,2074.7999999970198,482145.299999997,7805,VNB,C,10
0,prac,2,0.0,2-Back,,,Thu May 07 2026 09:43:01 GMT-0500 (Central Daylight Time),484220.09999999404,019_m_f_n_a.png,O,a,3519,1,1,2074.7999999970198,482145.299999997,7805,VNB,C,0
0,prac,2,0.0,2-Back,,,Thu May 07 2026 09:43:01 GMT-0500 (Central Daylight Time),484220.09999999404,012_o_f_h_a.png,O,a,3519,2,1,2074.7999999970198,482145.299999997,7805,VNB,C,0
1,prac,2,0.0,2-Back,1.0,m,Thu May 07 2026 09:43:01 GMT-0500 (Central Daylight Time),494700.799999997,015_o_m_d_a.png,O,m,888,3,1,1731.5,492969.299999997,7805,VNB,C,1
2,prac,2,1.0,2-Back,1.0,z,Thu May 07 2026 09:43:01 GMT-0500 (Central Daylight Time),496849.5,014_m_m_h_a.png,O,z,1366,4,1,2140.6000000089407,494708.89999999106,7805,VNB,C,2
3,prac,2,0.0,2-Back,1.0,m,Thu May 07 2026 09:43:01 GMT-0500 (Central Daylight Time),498682.299999997,022_y_f_n_a.png,O,m,956,5,1,1825.7000000029802,496856.59999999404,7805,VNB,C,3
4,prac,2,1.0,2-Back,1.0,z,Thu May 07 2026 09:43:01 GMT-0500 (Central Daylight Time),500714.89999999106,015_o_m_h_a.png,O,z,1130,6,1,2020.5,498694.39999999106,7805,VNB,C,4
4,prac,2,1.0,2-Back,0.0,z,Thu May 07 2026 09:43:01 GMT-0500 (Central Daylight Time),502664.89999999106,025_y_m_n_a.png,O,m,1087,7,1,1940.199999988079,500724.700000003,7805,VNB,C,5
5,prac,2,0.0,2-Back,1.0,m,Thu May 07 2026 09:43:01 GMT-0500 (Central Daylight Time),504879.39999999106,019_m_f_d_a.png,O,m,1326,8,1,2197.0999999940395,502682.299999997,7805,VNB,C,6
6,prac,2,0.0,2-Back,1.0,m,Thu May 07 2026 09:43:01 GMT-0500 (Central Daylight Time),507061.5,012_o_f_d_a.png,O,m,1303,9,1,2172.9000000059605,504888.59999999404,7805,VNB,C,7
7,prac,2,0.0,2-Back,1.0,m,Thu May 07 2026 09:43:01 GMT-0500 (Central Daylight Time),508927.700000003,014_m_m_h_a.png,O,m,1083,10,1,1855.4000000059605,507072.299999997,7805,VNB,C,8
8,prac,2,1.0,2-Back,1.0,z,Thu May 07 2026 09:43:01 GMT-0500 (Central Daylight Time),510428.700000003,022_y_f_d_a.png,O,z,628,11,1,1498.5,508930.200000003,7805,VNB,C,9
9,prac,2,0.0,2-Back,1.0,m,Thu May 07 2026 09:43:01 GMT-0500 (Central Daylight Time),512294.700000003,015_o_m_n_a.png,O,m,984,12,1,1854.800000011921,510439.89999999106,7805,VNB,C,10
0,test,1,0.0,2-Back,,,Thu May 07 2026 09:43:01 GMT-0500 (Central Daylight Time),512294.700000003,025_y_m_h_a.png,O,space,6015,1,1,1854.800000011921,510439.89999999106,7805,VNB,C,0
0,test,1,0.0,2-Back,,,Thu May 07 2026 09:43:01 GMT-0500 (Central Daylight Time),512294.700000003,012_o_f_n_a.png,O,space,6015,2,1,1854.800000011921,510439.89999999106,7805,VNB,C,0
1,test,1,0.0,2-Back,1.0,z,Thu May 07 2026 09:43:01 GMT-0500 (Central Daylight Time),534036.599999994,015_o_m_h_a.png,O,z,1029,3,1,2045.2999999970198,531991.299999997,7805,VNB,C,1
2,test,1,0.0,2-Back,1.0,m,Thu May 07 2026 09:43:01 GMT-0500 (Central Daylight Time),535952.8999999911,019_m_f_d_a.png,O,m,892,4,1,1910.5,534042.3999999911,7805,VNB,C,2
2,test,1,1.0,2-Back,0.0,m,Thu May 07 2026 09:43:01 GMT-0500 (Central Daylight Time),538003.3999999911,025_y_m_n_a.png,O,z,1024,5,1,2047.7999999970198,535955.599999994,7805,VNB,C,3
2,test,1,0.0,2-Back,0.0,z,Thu May 07 2026 09:43:01 GMT-0500 (Central Daylight Time),540053.200000003,022_y_f_d_a.png,O,m,1033,6,1,2042.1000000089407,538011.099999994,7805,VNB,C,4
2,test,1,0.0,2-Back,0.0,m,Thu May 07 2026 09:43:01 GMT-0500 (Central Daylight Time),542069.099999994,014_m_m_h_a.png,O,z,983,7,1,2013.8999999910593,540055.200000003,7805,VNB,C,5
3,test,1,1.0,2-Back,1.0,m,Thu May 07 2026 09:43:01 GMT-0500 (Central Daylight Time),544183.700000003,022_y_f_n_a.png,O,m,1084,8,1,2109.4000000059605,542074.299999997,7805,VNB,C,6
4,test,1,0.0,2-Back,1.0,z,Thu May 07 2026 09:43:01 GMT-0500 (Central Daylight Time),546617.3999999911,012_o_f_h_a.png,O,z,1400,9,1,2430.699999988079,544186.700000003,7805,VNB,C,7
5,test,1,0.0,2-Back,1.0,m,Thu May 07 2026 09:43:01 GMT-0500 (Central Daylight Time),548749.0,015_o_m_d_a.png,O,m,1104,10,1,2122.5,546626.5,7805,VNB,C,8
6,test,1,1.0,2-Back,1.0,m,Thu May 07 2026 09:43:01 GMT-0500 (Central Daylight Time),550832.0,014_m_m_d_a.png,O,m,1059,11,1,2080.7999999970198,548751.200000003,7805,VNB,C,9
7,test,1,0.0,2-Back,1.0,m,Thu May 07 2026 09:43:01 GMT-0500 (Central Daylight Time),552997.8999999911,019_m_f_n_a.png,O,m,1139,12,1,2155.699999988079,550842.200000003,7805,VNB,C,10
8,test,1,0.0,2-Back,1.0,m,Thu May 07 2026 09:43:01 GMT-0500 (Central Daylight Time),555132.799999997,022_y_f_h_a.png,O,m,1101,13,1,2132.2999999970198,553000.5,7805,VNB,C,11
9,test,1,0.0,2-Back,1.0,z,Thu May 07 2026 09:43:01 GMT-0500 (Central Daylight Time),556913.700000003,014_m_m_n_a.png,O,z,749,14,1,1774.1000000089407,555139.599999994,7805,VNB,C,12
10,test,1,0.0,2-Back,1.0,m,Thu May 07 2026 09:43:01 GMT-0500 (Central Daylight Time),558916.099999994,025_y_m_d_a.png,O,m,973,15,1,2000.0999999940395,556916.0,7805,VNB,C,13
10,test,1,1.0,2-Back,0.0,m,Thu May 07 2026 09:43:01 GMT-0500 (Central Daylight Time),561197.099999994,019_m_f_h_a.png,O,z,1252,16,1,2275.0,558922.099999994,7805,VNB,C,14
10,test,1,0.0,2-Back,0.0,z,Thu May 07 2026 09:43:01 GMT-0500 (Central Daylight Time),563579.0,012_o_f_d_a.png,O,m,1349,17,1,2379.2000000029802,561199.799999997,7805,VNB,C,15
11,test,1,0.0,2-Back,1.0,m,Thu May 07 2026 09:43:01 GMT-0500 (Central Daylight Time),565944.5,015_o_m_n_a.png,O,m,1344,18,1,2357.7000000029802,563586.799999997,7805,VNB,C,16
0,test,2,0.0,2-Back,,,Thu May 07 2026 09:43:01 GMT-0500 (Central Daylight Time),565944.5,014_m_m_h_a.png,O,space,3673,1,1,2357.7000000029802,563586.799999997,7805,VNB,C,0
0,test,2,0.0,2-Back,,,Thu May 07 2026 09:43:01 GMT-0500 (Central Daylight Time),565944.5,022_y_f_n_a.png,O,space,3673,2,1,2357.7000000029802,563586.799999997,7805,VNB,C,0
1,test,2,1.0,2-Back,1.0,z,Thu May 07 2026 09:43:01 GMT-0500 (Central Daylight Time),576692.700000003,012_o_f_h_a.png,O,z,835,3,1,1856.1000000089407,574836.599999994,7805,VNB,C,1
2,test,2,0.0,2-Back,1.0,m,Thu May 07 2026 09:43:01 GMT-0500 (Central Daylight Time),578757.799999997,015_o_m_d_a.png,O,m,1033,4,1,2062.4000000059605,576695.3999999911,7805,VNB,C,2
3,test,2,0.0,2-Back,1.0,m,Thu May 07 2026 09:43:01 GMT-0500 (Central Daylight Time),580855.200000003,019_m_f_d_a.png,O,m,1077,5,1,2091.300000011921,578763.8999999911,7805,VNB,C,3
4,test,2,0.0,2-Back,1.0,m,Thu May 07 2026 09:43:01 GMT-0500 (Central Daylight Time),582887.799999997,025_y_m_h_a.png,O,m,1001,6,1,2027.4000000059605,580860.3999999911,7805,VNB,C,4
5,test,2,0.0,2-Back,1.0,m,Thu May 07 2026 09:43:01 GMT-0500 (Central Daylight Time),585103.799999997,012_o_f_n_a.png,O,m,1193,7,1,2204.9000000059605,582898.8999999911,7805,VNB,C,5
6,test,2,1.0,2-Back,1.0,z,Thu May 07 2026 09:43:01 GMT-0500 (Central Daylight Time),586970.099999994,015_o_m_h_a.png,O,z,835,8,1,1860.2999999970198,585109.799999997,7805,VNB,C,6
7,test,2,0.0,2-Back,1.0,m,Thu May 07 2026 09:43:01 GMT-0500 (Central Daylight Time),588952.5,022_y_f_d_a.png,O,m,951,9,1,1975.7000000029802,586976.799999997,7805,VNB,C,7
8,test,2,0.0,2-Back,1.0,m,Thu May 07 2026 09:43:01 GMT-0500 (Central Daylight Time),591018.799999997,025_y_m_d_a.png,O,m,1034,10,1,2060.4000000059605,588958.3999999911,7805,VNB,C,8
9,test,2,0.0,2-Back,1.0,m,Thu May 07 2026 09:43:01 GMT-0500 (Central Daylight Time),593101.200000003,014_m_m_n_a.png,O,m,1063,11,1,2074.4000000059605,591026.799999997,7805,VNB,C,9
10,test,2,0.0,2-Back,1.0,m,Thu May 07 2026 09:43:01 GMT-0500 (Central Daylight Time),595233.700000003,019_m_f_h_a.png,O,m,1100,12,1,2127.0,593106.700000003,7805,VNB,C,10
11,test,2,1.0,2-Back,1.0,z,Thu May 07 2026 09:43:01 GMT-0500 (Central Daylight Time),597383.099999994,015_o_m_n_a.png,O,z,1126,13,1,2139.5,595243.599999994,7805,VNB,C,11
12,test,2,0.0,2-Back,1.0,m,Thu May 07 2026 09:43:01 GMT-0500 (Central Daylight Time),599182.599999994,012_o_f_d_a.png,O,m,770,14,1,1794.3999999910593,597388.200000003,7805,VNB,C,12
13,test,2,0.0,2-Back,1.0,m,Thu May 07 2026 09:43:01 GMT-0500 (Central Daylight Time),601365.5,022_y_f_h_a.png,O,m,1154,15,1,2173.6000000089407,599191.8999999911,7805,VNB,C,13
14,test,2,0.0,2-Back,1.0,z,Thu May 07 2026 09:43:01 GMT-0500 (Central Daylight Time),603797.8999999911,014_m_m_d_a.png,O,z,1405,16,1,2430.699999988079,601367.200000003,7805,VNB,C,14
15,test,2,0.0,2-Back,1.0,m,Thu May 07 2026 09:43:01 GMT-0500 (Central Daylight Time),605897.299999997,025_y_m_n_a.png,O,m,1068,17,1,2089.0999999940395,603808.200000003,7805,VNB,C,15
16,test,2,1.0,2-Back,1.0,m,Thu May 07 2026 09:43:01 GMT-0500 (Central Daylight Time),608279.3999999911,019_m_f_n_a.png,O,m,1351,18,1,2375.5999999940395,605903.799999997,7805,VNB,C,16
0,test,3,1.0,2-Back,,,Thu May 07 2026 09:43:01 GMT-0500 (Central Daylight Time),608279.3999999911,015_o_m_n_a.png,O,space,3089,1,1,2375.5999999940395,605903.799999997,7805,VNB,C,0
0,test,3,1.0,2-Back,,,Thu May 07 2026 09:43:01 GMT-0500 (Central Daylight Time),608279.3999999911,012_o_f_d_a.png,O,space,3089,2,1,2375.5999999940395,605903.799999997,7805,VNB,C,0
1,test,3,0.0,2-Back,1.0,m,Thu May 07 2026 09:43:01 GMT-0500 (Central Daylight Time),618393.200000003,022_y_f_h_a.png,O,m,951,3,1,1974.2000000029802,616419.0,7805,VNB,C,1
2,test,3,0.0,2-Back,1.0,z,Thu May 07 2026 09:43:01 GMT-0500 (Central Daylight Time),620909.700000003,019_m_f_d_a.png,O,z,1487,4,1,2513.4000000059605,618396.299999997,7805,VNB,C,2
3,test,3,1.0,2-Back,1.0,m,Thu May 07 2026 09:43:01 GMT-0500 (Central Daylight Time),622924.799999997,025_y_m_n_a.png,O,m,995,5,1,2005.0999999940395,620919.700000003,7805,VNB,C,3
3,test,3,0.0,2-Back,0.0,m,Thu May 07 2026 09:43:01 GMT-0500 (Central Daylight Time),625491.700000003,015_o_m_h_a.png,O,z,1533,6,1,2562.2000000029802,622929.5,7805,VNB,C,4
4,test,3,0.0,2-Back,1.0,z,Thu May 07 2026 09:43:01 GMT-0500 (Central Daylight Time),627689.299999997,022_y_f_n_a.png,O,z,1173,7,1,2187.7999999970198,625501.5,7805,VNB,C,5
5,test,3,1.0,2-Back,1.0,m,Thu May 07 2026 09:43:01 GMT-0500 (Central Daylight Time),629573.700000003,014_m_m_d_a.png,O,m,865,8,1,1882.300000011921,627691.3999999911,7805,VNB,C,6
6,test,3,0.0,2-Back,1.0,m,Thu May 07 2026 09:43:01 GMT-0500 (Central Daylight Time),631872.299999997,025_y_m_d_a.png,O,m,1276,9,1,2292.9000000059605,629579.3999999911,7805,VNB,C,7
7,test,3,0.0,2-Back,1.0,m,Thu May 07 2026 09:43:01 GMT-0500 (Central Daylight Time),634022.200000003,012_o_f_h_a.png,O,m,1118,10,1,2147.6000000089407,631874.599999994,7805,VNB,C,8
8,test,3,1.0,2-Back,1.0,m,Thu May 07 2026 09:43:01 GMT-0500 (Central Daylight Time),635988.799999997,019_m_f_n_a.png,O,m,948,11,1,1957.0999999940395,634031.700000003,7805,VNB,C,9
8,test,3,1.0,2-Back,0.0,z,Thu May 07 2026 09:43:01 GMT-0500 (Central Daylight Time),638322.0,014_m_m_h_a.png,O,m,1310,12,1,2329.4000000059605,635992.599999994,7805,VNB,C,10
9,test,3,0.0,2-Back,1.0,m,Thu May 07 2026 09:43:01 GMT-0500 (Central Daylight Time),640869.799999997,022_y_f_d_a.png,O,m,1530,13,1,2541.2000000029802,638328.599999994,7805,VNB,C,11
9,test,3,0.0,2-Back,0.0,m,Thu May 07 2026 09:43:01 GMT-0500 (Central Daylight Time),642770.3999999911,012_o_f_n_a.png,O,z,868,14,1,1897.5999999940395,640872.799999997,7805,VNB,C,12
9,test,3,0.0,2-Back,0.0,z,Thu May 07 2026 09:43:01 GMT-0500 (Central Daylight Time),644901.8999999911,015_o_m_d_a.png,O,m,1114,15,1,2124.5999999940395,642777.299999997,7805,VNB,C,13
9,test,3,1.0,2-Back,0.0,m,Thu May 07 2026 09:43:01 GMT-0500 (Central Daylight Time),647166.8999999911,019_m_f_h_a.png,O,z,1233,16,1,2261.5999999940395,644905.299999997,7805,VNB,C,14
10,test,3,0.0,2-Back,1.0,m,Thu May 07 2026 09:43:01 GMT-0500 (Central Daylight Time),649369.3999999911,014_m_m_n_a.png,O,m,1181,17,1,2195.8999999910593,647173.5,7805,VNB,C,15
11,test,3,0.0,2-Back,1.0,z,Thu May 07 2026 09:43:01 GMT-0500 (Central Daylight Time),651083.3999999911,025_y_m_h_a.png,O,z,690,18,1,1711.3999999910593,649372.0,7805,VNB,C,16
0,test,4,0.0,2-Back,,,Thu May 07 2026 09:43:01 GMT-0500 (Central Daylight Time),651083.3999999911,019_m_f_n_a.png,O,space,2950,1,1,1711.3999999910593,649372.0,7805,VNB,C,0
0,test,4,0.0,2-Back,,,Thu May 07 2026 09:43:01 GMT-0500 (Central Daylight Time),651083.3999999911,015_o_m_n_a.png,O,space,2950,2,1,1711.3999999910593,649372.0,7805,VNB,C,0
1,test,4,1.0,2-Back,1.0,m,Thu May 07 2026 09:43:01 GMT-0500 (Central Daylight Time),661163.3999999911,025_y_m_h_a.png,O,m,856,3,1,1872.5,659290.8999999911,7805,VNB,C,1
2,test,4,1.0,2-Back,1.0,m,Thu May 07 2026 09:43:01 GMT-0500 (Central Daylight Time),663346.200000003,012_o_f_d_a.png,O,m,1157,4,1,2180.300000011921,661165.8999999911,7805,VNB,C,2
3,test,4,0.0,2-Back,1.0,z,Thu May 07 2026 09:43:01 GMT-0500 (Central Daylight Time),665029.8999999911,015_o_m_h_a.png,O,z,665,5,1,1673.699999988079,663356.200000003,7805,VNB,C,3
4,test,4,0.0,2-Back,1.0,m,Thu May 07 2026 09:43:01 GMT-0500 (Central Daylight Time),667477.599999994,014_m_m_n_a.png,O,m,1429,6,1,2445.0,665032.599999994,7805,VNB,C,4
5,test,4,0.0,2-Back,1.0,m,Thu May 07 2026 09:43:01 GMT-0500 (Central Daylight Time),669544.299999997,019_m_f_d_a.png,O,m,1036,7,1,2056.2000000029802,667488.099999994,7805,VNB,C,5
6,test,4,0.0,2-Back,1.0,z,Thu May 07 2026 09:43:01 GMT-0500 (Central Daylight Time),671374.8999999911,022_y_f_n_a.png,O,z,808,8,1,1827.8999999910593,669547.0,7805,VNB,C,6
7,test,4,1.0,2-Back,1.0,m,Thu May 07 2026 09:43:01 GMT-0500 (Central Daylight Time),673443.599999994,012_o_f_h_a.png,O,m,1032,9,1,2062.7999999970198,671380.799999997,7805,VNB,C,7
8,test,4,0.0,2-Back,1.0,m,Thu May 07 2026 09:43:01 GMT-0500 (Central Daylight Time),675725.8999999911,014_m_m_h_a.png,O,m,1253,10,1,2279.199999988079,673446.700000003,7805,VNB,C,8
9,test,4,0.0,2-Back,1.0,m,Thu May 07 2026 09:43:01 GMT-0500 (Central Daylight Time),677941.200000003,022_y_f_d_a.png,O,m,1189,11,1,2211.7000000029802,675729.5,7805,VNB,C,9
10,test,4,0.0,2-Back,1.0,m,Thu May 07 2026 09:43:01 GMT-0500 (Central Daylight Time),680025.5,025_y_m_n_a.png,O,m,1060,12,1,2081.2000000029802,677944.299999997,7805,VNB,C,10
11,test,4,0.0,2-Back,1.0,z,Thu May 07 2026 09:43:01 GMT-0500 (Central Daylight Time),682158.700000003,015_o_m_d_a.png,O,z,1106,13,1,2126.9000000059605,680031.799999997,7805,VNB,C,11
12,test,4,1.0,2-Back,1.0,m,Thu May 07 2026 09:43:01 GMT-0500 (Central Daylight Time),684390.5,019_m_f_h_a.png,O,m,1204,14,1,2229.1000000089407,682161.3999999911,7805,VNB,C,12
13,test,4,1.0,2-Back,1.0,m,Thu May 07 2026 09:43:01 GMT-0500 (Central Daylight Time),686622.3999999911,022_y_f_h_a.png,O,m,1212,15,1,2223.0999999940395,684399.299999997,7805,VNB,C,13
14,test,4,0.0,2-Back,1.0,m,Thu May 07 2026 09:43:01 GMT-0500 (Central Daylight Time),688888.0,012_o_f_n_a.png,O,m,1234,16,1,2263.7999999970198,686624.200000003,7805,VNB,C,14
15,test,4,0.0,2-Back,1.0,m,Thu May 07 2026 09:43:01 GMT-0500 (Central Daylight Time),690754.799999997,025_y_m_d_a.png,O,m,835,17,1,1856.2000000029802,688898.599999994,7805,VNB,C,15
16,test,4,1.0,2-Back,1.0,m,Thu May 07 2026 09:43:01 GMT-0500 (Central Daylight Time),692869.0,014_m_m_d_a.png,O,m,1088,18,1,2112.6000000089407,690756.3999999911,7805,VNB,C,16
0,test,5,1.0,2-Back,,,Thu May 07 2026 09:43:01 GMT-0500 (Central Daylight Time),692869.0,022_y_f_d_a.png,O,space,3036,1,1,2112.6000000089407,690756.3999999911,7805,VNB,C,0
0,test,5,1.0,2-Back,,,Thu May 07 2026 09:43:01 GMT-0500 (Central Daylight Time),692869.0,012_o_f_h_a.png,O,space,3036,2,1,2112.6000000089407,690756.3999999911,7805,VNB,C,0
1,test,5,1.0,2-Back,1.0,z,Thu May 07 2026 09:43:01 GMT-0500 (Central Daylight Time),702883.0,015_o_m_d_a.png,O,z,718,3,1,1740.2999999970198,701142.700000003,7805,VNB,C,1
2,test,5,1.0,2-Back,1.0,m,Thu May 07 2026 09:43:01 GMT-0500 (Central Daylight Time),704749.0,019_m_f_n_a.png,O,m,838,4,1,1860.0,702889.0,7805,VNB,C,2
3,test,5,0.0,2-Back,1.0,m,Thu May 07 2026 09:43:01 GMT-0500 (Central Daylight Time),707115.0,014_m_m_h_a.png,O,m,1341,5,1,2356.4000000059605,704758.599999994,7805,VNB,C,3
4,test,5,0.0,2-Back,1.0,z,Thu May 07 2026 09:43:01 GMT-0500 (Central Daylight Time),709081.799999997,022_y_f_n_a.png,O,z,942,6,1,1963.0,707118.799999997,7805,VNB,C,4
5,test,5,0.0,2-Back,1.0,m,Thu May 07 2026 09:43:01 GMT-0500 (Central Daylight Time),711097.3999999911,012_o_f_d_a.png,O,m,992,7,1,2007.0999999940395,709090.299999997,7805,VNB,C,5
5,test,5,0.0,2-Back,0.0,m,Thu May 07 2026 09:43:01 GMT-0500 (Central Daylight Time),713196.200000003,015_o_m_h_a.png,O,z,1066,8,1,2094.4000000059605,711101.799999997,7805,VNB,C,6
6,test,5,1.0,2-Back,1.0,z,Thu May 07 2026 09:43:01 GMT-0500 (Central Daylight Time),715445.599999994,019_m_f_d_a.png,O,z,1220,9,1,2239.7000000029802,713205.8999999911,7805,VNB,C,7
7,test,5,0.0,2-Back,1.0,m,Thu May 07 2026 09:43:01 GMT-0500 (Central Daylight Time),717494.200000003,025_y_m_n_a.png,O,m,1018,10,1,2044.1000000089407,715450.099999994,7805,VNB,C,8
8,test,5,0.0,2-Back,1.0,m,Thu May 07 2026 09:43:01 GMT-0500 (Central Daylight Time),719577.5,014_m_m_n_a.png,O,m,1058,11,1,2073.9000000059605,717503.599999994,7805,VNB,C,9
9,test,5,0.0,2-Back,1.0,m,Thu May 07 2026 09:43:01 GMT-0500 (Central Daylight Time),721793.8999999911,022_y_f_h_a.png,O,m,1192,12,1,2212.7999999970198,719581.099999994,7805,VNB,C,10
10,test,5,0.0,2-Back,1.0,m,Thu May 07 2026 09:43:01 GMT-0500 (Central Daylight Time),723725.599999994,025_y_m_d_a.png,O,m,894,13,1,1911.2999999970198,721814.299999997,7805,VNB,C,11
11,test,5,1.0,2-Back,1.0,z,Thu May 07 2026 09:43:01 GMT-0500 (Central Daylight Time),725525.700000003,019_m_f_h_a.png,O,z,771,14,1,1796.1000000089407,723729.599999994,7805,VNB,C,12
12,test,5,0.0,2-Back,1.0,m,Thu May 07 2026 09:43:01 GMT-0500 (Central Daylight Time),727758.200000003,015_o_m_n_a.png,O,m,1203,15,1,2221.0,725537.200000003,7805,VNB,C,13
13,test,5,0.0,2-Back,1.0,m,Thu May 07 2026 09:43:01 GMT-0500 (Central Daylight Time),730308.299999997,014_m_m_d_a.png,O,m,1524,16,1,2544.7999999970198,727763.5,7805,VNB,C,14
14,test,5,0.0,2-Back,1.0,z,Thu May 07 2026 09:43:01 GMT-0500 (Central Daylight Time),732241.5,012_o_f_n_a.png,O,z,900,17,1,1924.1000000089407,730317.3999999911,7805,VNB,C,15
15,test,5,1.0,2-Back,1.0,m,Thu May 07 2026 09:43:01 GMT-0500 (Central Daylight Time),734123.799999997,025_y_m_h_a.png,O,m,851,18,1,1878.2000000029802,732245.599999994,7805,VNB,C,16
