block_c,block_dur,condition,countdown,datetime,endtime,list,multichar_response,project,response,response_time,session_number,start_end,starttime,subject_id,task,task_vers,trial
,,,,Fri May 09 2025 10:15:59 GMT-0500 (Central Daylight Time),,,,O,space,765,1,,,7140,WL,C,
prac,,0,,Fri May 09 2025 10:15:59 GMT-0500 (Central Daylight Time),,NA,b,O,b,7684,1,,,7140,WL,C,1.0
prac,,0,,Fri May 09 2025 10:15:59 GMT-0500 (Central Daylight Time),,NA,bo,O,o,437,1,,,7140,WL,C,1.0
prac,,0,,Fri May 09 2025 10:15:59 GMT-0500 (Central Daylight Time),,NA,boo,O,o,111,1,,,7140,WL,C,1.0
prac,,0,,Fri May 09 2025 10:15:59 GMT-0500 (Central Daylight Time),,NA,boos,O,s,163,1,,,7140,WL,C,1.0
prac,,0,,Fri May 09 2025 10:15:59 GMT-0500 (Central Daylight Time),,NA,boost,O,t,196,1,,,7140,WL,C,1.0
prac,,0,,Fri May 09 2025 10:15:59 GMT-0500 (Central Daylight Time),,NA,boostenter,O,enter,755,1,,,7140,WL,C,1.0
1,1.7170000076293945,learn,58282.999992370605,Fri May 09 2025 10:15:59 GMT-0500 (Central Daylight Time),162774.29999999702,A,t,O,t,1707,1,1715.9000000059605,161058.39999999106,7140,WL,C,1.0
1,2.0,learn,58000.0,Fri May 09 2025 10:15:59 GMT-0500 (Central Daylight Time),163057.39999999106,A,to,O,o,270,1,1999.0,161058.39999999106,7140,WL,C,1.0
1,2.2330000400543213,learn,57766.99995994568,Fri May 09 2025 10:15:59 GMT-0500 (Central Daylight Time),163290.59999999404,A,tow,O,w,218,1,2232.2000000029802,161058.39999999106,7140,WL,C,1.0
1,2.4830000400543213,learn,57516.99995994568,Fri May 09 2025 10:15:59 GMT-0500 (Central Daylight Time),163540.5,A,towe,O,e,234,1,2482.1000000089407,161058.39999999106,7140,WL,C,1.0
1,2.699000120162964,learn,57300.999879837036,Fri May 09 2025 10:15:59 GMT-0500 (Central Daylight Time),163757.19999998808,A,tower,O,r,208,1,2698.7999999970198,161058.39999999106,7140,WL,C,1.0
1,3.5160000324249268,learn,56483.99996757507,Fri May 09 2025 10:15:59 GMT-0500 (Central Daylight Time),164573.69999998808,A,towerw,O,w,799,1,3515.2999999970198,161058.39999999106,7140,WL,C,1.0
1,3.7160000801086426,learn,56283.99991989136,Fri May 09 2025 10:15:59 GMT-0500 (Central Daylight Time),164773.39999999106,A,towerwh,O,h,191,1,3715.0,161058.39999999106,7140,WL,C,1.0
1,3.882999897003174,learn,56117.000102996826,Fri May 09 2025 10:15:59 GMT-0500 (Central Daylight Time),164940.39999999106,A,towerwhe,O,e,151,1,3882.0,161058.39999999106,7140,WL,C,1.0
1,4.115999937057495,learn,55884.000062942505,Fri May 09 2025 10:15:59 GMT-0500 (Central Daylight Time),165173.29999999702,A,towerwhea,O,a,224,1,4114.9000000059605,161058.39999999106,7140,WL,C,1.0
1,4.233000040054321,learn,55766.99995994568,Fri May 09 2025 10:15:59 GMT-0500 (Central Daylight Time),165290.29999999702,A,towerwheat,O,t,103,1,4231.9000000059605,161058.39999999106,7140,WL,C,1.0
1,7.765000104904175,learn,52234.999895095825,Fri May 09 2025 10:15:59 GMT-0500 (Central Daylight Time),168822.39999999106,A,towerwhea,O,backspace,3522,1,7764.0,161058.39999999106,7140,WL,C,1.0
1,10.530999898910522,learn,49469.00010108948,Fri May 09 2025 10:15:59 GMT-0500 (Central Daylight Time),171588.29999999702,A,towerwhe,O,backspace,2758,1,10529.90000000596,161058.39999999106,7140,WL,C,1.0
1,11.845999956130981,learn,48154.00004386902,Fri May 09 2025 10:15:59 GMT-0500 (Central Daylight Time),172904.29999999702,A,towerwh,O,backspace,1297,1,11845.90000000596,161058.39999999106,7140,WL,C,1.0
1,11.996999979019165,learn,48003.000020980835,Fri May 09 2025 10:15:59 GMT-0500 (Central Daylight Time),173054.5,A,towerw,O,backspace,132,1,11996.10000000894,161058.39999999106,7140,WL,C,1.0
1,12.196000099182129,learn,47803.99990081787,Fri May 09 2025 10:15:59 GMT-0500 (Central Daylight Time),173254.29999999702,A,tower,O,backspace,190,1,12195.90000000596,161058.39999999106,7140,WL,C,1.0
1,14.828999996185303,learn,45171.0000038147,Fri May 09 2025 10:15:59 GMT-0500 (Central Daylight Time),175886.69999998808,A,towerenter,O,enter,2622,1,14828.29999999702,161058.39999999106,7140,WL,C,1.0
1,16.17799997329712,learn,43822.00002670288,Fri May 09 2025 10:15:59 GMT-0500 (Central Daylight Time),177236.09999999404,A,q,O,q,1342,1,1348.7999999970198,175887.29999999702,7140,WL,C,2.0
1,16.39400005340576,learn,43605.99994659424,Fri May 09 2025 10:15:59 GMT-0500 (Central Daylight Time),177453.0,A,qu,O,u,201,1,1565.7000000029802,175887.29999999702,7140,WL,C,2.0
1,16.64400005340576,learn,43355.99994659424,Fri May 09 2025 10:15:59 GMT-0500 (Central Daylight Time),177702.89999999106,A,que,O,e,232,1,1815.5999999940395,175887.29999999702,7140,WL,C,2.0
1,16.793999910354614,learn,43206.000089645386,Fri May 09 2025 10:15:59 GMT-0500 (Central Daylight Time),177852.69999998808,A,quee,O,e,133,1,1965.3999999910593,175887.29999999702,7140,WL,C,2.0
1,17.01099991798401,learn,42989.00008201599,Fri May 09 2025 10:15:59 GMT-0500 (Central Daylight Time),178069.39999999106,A,queen,O,n,200,1,2182.0999999940395,175887.29999999702,7140,WL,C,2.0
1,17.47699999809265,learn,42523.00000190735,Fri May 09 2025 10:15:59 GMT-0500 (Central Daylight Time),178535.59999999404,A,queenenter,O,enter,447,1,2648.2999999970198,175887.29999999702,7140,WL,C,2.0
1,17.877000093460083,learn,42122.99990653992,Fri May 09 2025 10:15:59 GMT-0500 (Central Daylight Time),178935.89999999106,A,n,O,n,388,1,400.0,178535.89999999106,7140,WL,C,3.0
1,18.07699990272522,learn,41923.00009727478,Fri May 09 2025 10:15:59 GMT-0500 (Central Daylight Time),179135.69999998808,A,na,O,a,189,1,599.7999999970198,178535.89999999106,7140,WL,C,3.0
1,18.16100001335144,learn,41838.99998664856,Fri May 09 2025 10:15:59 GMT-0500 (Central Daylight Time),179219.09999999404,A,nai,O,i,68,1,683.2000000029802,178535.89999999106,7140,WL,C,3.0
1,18.377000093460083,learn,41622.99990653992,Fri May 09 2025 10:15:59 GMT-0500 (Central Daylight Time),179435.59999999404,A,nail,O,l,201,1,899.7000000029802,178535.89999999106,7140,WL,C,3.0
1,18.74399995803833,learn,41256.00004196167,Fri May 09 2025 10:15:59 GMT-0500 (Central Daylight Time),179802.39999999106,A,nailenter,O,enter,345,1,1266.5,178535.89999999106,7140,WL,C,3.0
1,19.276999950408936,learn,40723.000049591064,Fri May 09 2025 10:15:59 GMT-0500 (Central Daylight Time),180335.39999999106,A,b,O,b,514,1,532.5999999940395,179802.79999999702,7140,WL,C,4.0
1,19.542999982833862,learn,40457.00001716614,Fri May 09 2025 10:15:59 GMT-0500 (Central Daylight Time),180602.0,A,bo,O,o,253,1,799.2000000029802,179802.79999999702,7140,WL,C,4.0
1,19.759999990463257,learn,40240.00000953674,Fri May 09 2025 10:15:59 GMT-0500 (Central Daylight Time),180818.79999999702,A,boy,O,y,203,1,1016.0,179802.79999999702,7140,WL,C,4.0
1,20.176000118255615,learn,39823.999881744385,Fri May 09 2025 10:15:59 GMT-0500 (Central Daylight Time),181235.0,A,boyenter,O,enter,410,1,1432.2000000029802,179802.79999999702,7140,WL,C,4.0
1,20.526000022888184,learn,39473.99997711182,Fri May 09 2025 10:15:59 GMT-0500 (Central Daylight Time),181584.69999998808,A,d,O,d,338,1,349.3999999910593,181235.29999999702,7140,WL,C,5.0
1,20.743000030517578,learn,39256.99996948242,Fri May 09 2025 10:15:59 GMT-0500 (Central Daylight Time),181801.59999999404,A,do,O,o,196,1,566.2999999970198,181235.29999999702,7140,WL,C,5.0
1,20.89300012588501,learn,39106.99987411499,Fri May 09 2025 10:15:59 GMT-0500 (Central Daylight Time),181951.5,A,doc,O,c,131,1,716.2000000029802,181235.29999999702,7140,WL,C,5.0
1,21.075999975204468,learn,38924.00002479553,Fri May 09 2025 10:15:59 GMT-0500 (Central Daylight Time),182134.79999999702,A,doct,O,t,164,1,899.5,181235.29999999702,7140,WL,C,5.0
1,21.609999895095825,learn,38390.000104904175,Fri May 09 2025 10:15:59 GMT-0500 (Central Daylight Time),182668.19999998808,A,docto,O,o,518,1,1432.8999999910593,181235.29999999702,7140,WL,C,5.0
1,21.776000022888184,learn,38223.99997711182,Fri May 09 2025 10:15:59 GMT-0500 (Central Daylight Time),182834.59999999404,A,doctor,O,r,161,1,1599.2999999970198,181235.29999999702,7140,WL,C,5.0
1,22.176000118255615,learn,37823.999881744385,Fri May 09 2025 10:15:59 GMT-0500 (Central Daylight Time),183234.59999999404,A,doctorenter,O,enter,395,1,1999.2999999970198,181235.29999999702,7140,WL,C,5.0
1,22.89199995994568,learn,37108.00004005432,Fri May 09 2025 10:15:59 GMT-0500 (Central Daylight Time),183950.89999999106,A,w,O,w,698,1,716.0999999940395,183234.79999999702,7140,WL,C,6.0
1,23.092000007629395,learn,36907.999992370605,Fri May 09 2025 10:15:59 GMT-0500 (Central Daylight Time),184151.0,A,wh,O,h,191,1,916.2000000029802,183234.79999999702,7140,WL,C,6.0
1,23.242000102996826,learn,36757.999897003174,Fri May 09 2025 10:15:59 GMT-0500 (Central Daylight Time),184300.69999998808,A,whe,O,e,142,1,1065.8999999910593,183234.79999999702,7140,WL,C,6.0
1,23.47499990463257,learn,36525.00009536743,Fri May 09 2025 10:15:59 GMT-0500 (Central Daylight Time),184534.09999999404,A,whea,O,a,224,1,1299.2999999970198,183234.79999999702,7140,WL,C,6.0
1,23.592000007629395,learn,36407.999992370605,Fri May 09 2025 10:15:59 GMT-0500 (Central Daylight Time),184650.69999998808,A,wheat,O,t,111,1,1415.8999999910593,183234.79999999702,7140,WL,C,6.0
1,24.125999927520752,learn,35874.00007247925,Fri May 09 2025 10:15:59 GMT-0500 (Central Daylight Time),185184.59999999404,A,wheatenter,O,enter,514,1,1949.7999999970198,183234.79999999702,7140,WL,C,6.0
1,25.342000007629395,learn,34657.999992370605,Fri May 09 2025 10:15:59 GMT-0500 (Central Daylight Time),186400.19999998808,A,c,O,c,1196,1,1215.2999999970198,185184.89999999106,7140,WL,C,7.0
1,25.60800004005432,learn,34391.99995994568,Fri May 09 2025 10:15:59 GMT-0500 (Central Daylight Time),186666.69999998808,A,ca,O,a,253,1,1481.7999999970198,185184.89999999106,7140,WL,C,7.0
1,25.808000087738037,learn,34191.99991226196,Fri May 09 2025 10:15:59 GMT-0500 (Central Daylight Time),186866.59999999404,A,cat,O,t,186,1,1681.7000000029802,185184.89999999106,7140,WL,C,7.0
1,25.97499990463257,learn,34025.00009536743,Fri May 09 2025 10:15:59 GMT-0500 (Central Daylight Time),187033.29999999702,A,catt,O,t,146,1,1848.4000000059605,185184.89999999106,7140,WL,C,7.0
1,26.407999992370605,learn,33592.000007629395,Fri May 09 2025 10:15:59 GMT-0500 (Central Daylight Time),187466.69999998808,A,cattl,O,l,413,1,2281.7999999970198,185184.89999999106,7140,WL,C,7.0
1,26.641000032424927,learn,33358.99996757507,Fri May 09 2025 10:15:59 GMT-0500 (Central Daylight Time),187699.69999998808,A,cattle,O,e,218,1,2514.7999999970198,185184.89999999106,7140,WL,C,7.0
1,26.990999937057495,learn,33009.000062942505,Fri May 09 2025 10:15:59 GMT-0500 (Central Daylight Time),188049.59999999404,A,cattleenter,O,enter,329,1,2864.7000000029802,185184.89999999106,7140,WL,C,7.0
1,33.539000034332275,learn,26460.999965667725,Fri May 09 2025 10:15:59 GMT-0500 (Central Daylight Time),194597.79999999702,A,d,O,d,6532,1,6547.79999999702,188050.0,7140,WL,C,8.0
1,33.73900008201599,learn,26260.99991798401,Fri May 09 2025 10:15:59 GMT-0500 (Central Daylight Time),194797.59999999404,A,dc,O,c,183,1,6747.5999999940395,188050.0,7140,WL,C,8.0
1,33.90599989891052,learn,26094.000101089478,Fri May 09 2025 10:15:59 GMT-0500 (Central Daylight Time),194964.19999998808,A,dco,O,o,152,1,6914.199999988079,188050.0,7140,WL,C,8.0
1,34.138999938964844,learn,25861.000061035156,Fri May 09 2025 10:15:59 GMT-0500 (Central Daylight Time),195197.39999999106,A,dcot,O,t,217,1,7147.399999991059,188050.0,7140,WL,C,8.0
1,34.32200002670288,learn,25677.99997329712,Fri May 09 2025 10:15:59 GMT-0500 (Central Daylight Time),195380.69999998808,A,dcoto,O,o,168,1,7330.699999988079,188050.0,7140,WL,C,8.0
1,34.454999923706055,learn,25545.000076293945,Fri May 09 2025 10:15:59 GMT-0500 (Central Daylight Time),195513.89999999106,A,dcotor,O,r,121,1,7463.899999991059,188050.0,7140,WL,C,8.0
1,34.72200012207031,learn,25277.999877929688,Fri May 09 2025 10:15:59 GMT-0500 (Central Daylight Time),195780.5,A,dcotorenter,O,enter,259,1,7730.5,188050.0,7140,WL,C,8.0
1,60.013999938964844,learn,-13.99993896484375,Fri May 09 2025 10:15:59 GMT-0500 (Central Daylight Time),221072.5,A,None,O,None,25287,1,25291.60000000894,195780.89999999106,7140,WL,C,9.0
2,1.3990001678466797,learn,58600.99983215332,Fri May 09 2025 10:15:59 GMT-0500 (Central Daylight Time),294682.89999999106,A,t,O,t,1395,1,1398.5,293284.39999999106,7140,WL,C,1.0
2,1.6019999980926514,learn,58398.00000190735,Fri May 09 2025 10:15:59 GMT-0500 (Central Daylight Time),294886.09999999404,A,to,O,o,180,1,1601.7000000029802,293284.39999999106,7140,WL,C,1.0
2,1.8990001678466797,learn,58100.99983215332,Fri May 09 2025 10:15:59 GMT-0500 (Central Daylight Time),295183.1999999881,A,toe,O,e,286,1,1898.7999999970198,293284.39999999106,7140,WL,C,1.0
2,2.2160000801086426,learn,57783.99991989136,Fri May 09 2025 10:15:59 GMT-0500 (Central Daylight Time),295500.59999999404,A,toew,O,w,310,1,2216.2000000029802,293284.39999999106,7140,WL,C,1.0
2,2.5490000247955322,learn,57450.99997520447,Fri May 09 2025 10:15:59 GMT-0500 (Central Daylight Time),295832.89999999106,A,toewr,O,r,320,1,2548.5,293284.39999999106,7140,WL,C,1.0
2,3.0320000648498535,learn,56967.99993515015,Fri May 09 2025 10:15:59 GMT-0500 (Central Daylight Time),296315.6999999881,A,toewrenter,O,enter,468,1,3031.2999999970198,293284.39999999106,7140,WL,C,1.0
2,3.7140002250671387,learn,56285.99977493286,Fri May 09 2025 10:15:59 GMT-0500 (Central Daylight Time),296999.09999999404,A,w,O,w,666,1,683.0,296316.09999999404,7140,WL,C,2.0
2,3.9810001850128174,learn,56018.99981498718,Fri May 09 2025 10:15:59 GMT-0500 (Central Daylight Time),297265.5,A,wh,O,h,246,1,949.4000000059605,296316.09999999404,7140,WL,C,2.0
2,4.514000177383423,learn,55485.99982261658,Fri May 09 2025 10:15:59 GMT-0500 (Central Daylight Time),297798.59999999404,A,wha,O,a,516,1,1482.5,296316.09999999404,7140,WL,C,2.0
2,5.914000034332275,learn,54085.999965667725,Fri May 09 2025 10:15:59 GMT-0500 (Central Daylight Time),299198.1999999881,A,wh,O,backspace,1391,1,2882.0999999940395,296316.09999999404,7140,WL,C,2.0
2,6.547000169754028,learn,53452.99983024597,Fri May 09 2025 10:15:59 GMT-0500 (Central Daylight Time),299831.299999997,A,whe,O,e,615,1,3515.2000000029802,296316.09999999404,7140,WL,C,2.0
2,6.797000169754028,learn,53202.99983024597,Fri May 09 2025 10:15:59 GMT-0500 (Central Daylight Time),300081.5,A,whea,O,a,229,1,3765.4000000059605,296316.09999999404,7140,WL,C,2.0
2,6.947000026702881,learn,53052.99997329712,Fri May 09 2025 10:15:59 GMT-0500 (Central Daylight Time),300231.6999999881,A,wheat,O,t,140,1,3915.5999999940395,296316.09999999404,7140,WL,C,2.0
2,7.78000020980835,learn,52219.99979019165,Fri May 09 2025 10:15:59 GMT-0500 (Central Daylight Time),301064.39999999106,A,wheatenter,O,enter,813,1,4748.29999999702,296316.09999999404,7140,WL,C,2.0
2,8.446000099182129,learn,51553.99990081787,Fri May 09 2025 10:15:59 GMT-0500 (Central Daylight Time),301730.799999997,A,q,O,q,653,1,666.1000000089407,301064.6999999881,7140,WL,C,3.0
2,8.76200008392334,learn,51237.99991607666,Fri May 09 2025 10:15:59 GMT-0500 (Central Daylight Time),302047.09999999404,A,qu,O,u,306,1,982.4000000059605,301064.6999999881,7140,WL,C,3.0
2,9.029000043869019,learn,50970.99995613098,Fri May 09 2025 10:15:59 GMT-0500 (Central Daylight Time),302314.0,A,que,O,e,246,1,1249.300000011921,301064.6999999881,7140,WL,C,3.0
2,9.196000099182129,learn,50803.99990081787,Fri May 09 2025 10:15:59 GMT-0500 (Central Daylight Time),302480.39999999106,A,quee,O,e,147,1,1415.7000000029802,301064.6999999881,7140,WL,C,3.0
2,9.361999988555908,learn,50638.00001144409,Fri May 09 2025 10:15:59 GMT-0500 (Central Daylight Time),302647.1999999881,A,queen,O,n,149,1,1582.5,301064.6999999881,7140,WL,C,3.0
2,9.812000036239624,learn,50187.999963760376,Fri May 09 2025 10:15:59 GMT-0500 (Central Daylight Time),303097.0,A,queenenter,O,enter,438,1,2032.300000011921,301064.6999999881,7140,WL,C,3.0
2,10.229000091552734,learn,49770.999908447266,Fri May 09 2025 10:15:59 GMT-0500 (Central Daylight Time),303513.59999999404,A,s,O,s,404,1,416.20000000298023,303097.39999999106,7140,WL,C,4.0
2,10.42900013923645,learn,49570.99986076355,Fri May 09 2025 10:15:59 GMT-0500 (Central Daylight Time),303713.799999997,A,su,O,u,187,1,616.4000000059605,303097.39999999106,7140,WL,C,4.0
2,10.729000091552734,learn,49270.999908447266,Fri May 09 2025 10:15:59 GMT-0500 (Central Daylight Time),304013.5,A,sug,O,g,283,1,916.1000000089407,303097.39999999106,7140,WL,C,4.0
2,10.861999988555908,learn,49138.00001144409,Fri May 09 2025 10:15:59 GMT-0500 (Central Daylight Time),304146.6999999881,A,suga,O,a,128,1,1049.2999999970198,303097.39999999106,7140,WL,C,4.0
2,11.129000186920166,learn,48870.999813079834,Fri May 09 2025 10:15:59 GMT-0500 (Central Daylight Time),304413.1999999881,A,sugar,O,r,259,1,1315.7999999970198,303097.39999999106,7140,WL,C,4.0
2,11.529000043869019,learn,48470.99995613098,Fri May 09 2025 10:15:59 GMT-0500 (Central Daylight Time),304813.299999997,A,sugarenter,O,enter,393,1,1715.9000000059605,303097.39999999106,7140,WL,C,4.0
2,13.028000116348267,learn,46971.99988365173,Fri May 09 2025 10:15:59 GMT-0500 (Central Daylight Time),306312.6999999881,A,h,O,h,1480,1,1499.0999999940395,304813.59999999404,7140,WL,C,5.0
2,13.311000108718872,learn,46688.99989128113,Fri May 09 2025 10:15:59 GMT-0500 (Central Daylight Time),306596.0,A,ho,O,o,268,1,1782.4000000059605,304813.59999999404,7140,WL,C,5.0
2,13.461000204086304,learn,46538.999795913696,Fri May 09 2025 10:15:59 GMT-0500 (Central Daylight Time),306746.0,A,hom,O,m,137,1,1932.4000000059605,304813.59999999404,7140,WL,C,5.0
2,13.694000005722046,learn,46305.999994277954,Fri May 09 2025 10:15:59 GMT-0500 (Central Daylight Time),306979.09999999404,A,home,O,e,227,1,2165.5,304813.59999999404,7140,WL,C,5.0
2,14.144000053405762,learn,45855.99994659424,Fri May 09 2025 10:15:59 GMT-0500 (Central Daylight Time),307429.09999999404,A,homeenter,O,enter,434,1,2615.5,304813.59999999404,7140,WL,C,5.0
2,15.16100001335144,learn,44838.99998664856,Fri May 09 2025 10:15:59 GMT-0500 (Central Daylight Time),308445.6999999881,A,b,O,b,1000,1,1016.2999999970198,307429.39999999106,7140,WL,C,6.0
2,15.444000005722046,learn,44555.999994277954,Fri May 09 2025 10:15:59 GMT-0500 (Central Daylight Time),308729.0,A,bo,O,o,271,1,1299.6000000089407,307429.39999999106,7140,WL,C,6.0
2,15.710000038146973,learn,44289.99996185303,Fri May 09 2025 10:15:59 GMT-0500 (Central Daylight Time),308994.89999999106,A,boy,O,y,260,1,1565.5,307429.39999999106,7140,WL,C,6.0
2,16.344000101089478,learn,43655.99989891052,Fri May 09 2025 10:15:59 GMT-0500 (Central Daylight Time),309628.39999999106,A,boyenter,O,enter,626,1,2199.0,307429.39999999106,7140,WL,C,6.0
2,18.493000030517578,learn,41506.99996948242,Fri May 09 2025 10:15:59 GMT-0500 (Central Daylight Time),311777.59999999404,A,c,O,c,2129,1,2148.9000000059605,309628.6999999881,7140,WL,C,7.0
2,18.576000213623047,learn,41423.99978637695,Fri May 09 2025 10:15:59 GMT-0500 (Central Daylight Time),311860.89999999106,A,ca,O,a,76,1,2232.2000000029802,309628.6999999881,7140,WL,C,7.0
2,18.776000022888184,learn,41223.99997711182,Fri May 09 2025 10:15:59 GMT-0500 (Central Daylight Time),312060.799999997,A,cam,O,m,192,1,2432.1000000089407,309628.6999999881,7140,WL,C,7.0
2,19.076000213623047,learn,40923.99978637695,Fri May 09 2025 10:15:59 GMT-0500 (Central Daylight Time),312360.89999999106,A,camp,O,p,289,1,2732.2000000029802,309628.6999999881,7140,WL,C,7.0
2,19.54300022125244,learn,40456.99977874756,Fri May 09 2025 10:15:59 GMT-0500 (Central Daylight Time),312827.5,A,campenter,O,enter,453,1,3198.800000011921,309628.6999999881,7140,WL,C,7.0
2,19.942000150680542,learn,40057.99984931946,Fri May 09 2025 10:15:59 GMT-0500 (Central Daylight Time),313227.1999999881,A,f,O,f,387,1,399.29999999701977,312827.89999999106,7140,WL,C,8.0
2,20.109000205993652,learn,39890.99979400635,Fri May 09 2025 10:15:59 GMT-0500 (Central Daylight Time),313393.6999999881,A,fl,O,l,154,1,565.7999999970198,312827.89999999106,7140,WL,C,8.0
2,20.30900001525879,learn,39690.99998474121,Fri May 09 2025 10:15:59 GMT-0500 (Central Daylight Time),313593.6999999881,A,fla,O,a,188,1,765.7999999970198,312827.89999999106,7140,WL,C,8.0
2,20.592000007629395,learn,39407.999992370605,Fri May 09 2025 10:15:59 GMT-0500 (Central Daylight Time),313876.89999999106,A,flag,O,g,276,1,1049.0,312827.89999999106,7140,WL,C,8.0
2,21.02500009536743,learn,38974.99990463257,Fri May 09 2025 10:15:59 GMT-0500 (Central Daylight Time),314310.09999999404,A,flagenter,O,enter,416,1,1482.2000000029802,312827.89999999106,7140,WL,C,8.0
2,21.392000198364258,learn,38607.99980163574,Fri May 09 2025 10:15:59 GMT-0500 (Central Daylight Time),314676.799999997,A,s,O,s,351,1,366.5,314310.299999997,7140,WL,C,9.0
2,21.54200005531311,learn,38457.99994468689,Fri May 09 2025 10:15:59 GMT-0500 (Central Daylight Time),314826.6999999881,A,sh,O,h,137,1,516.3999999910593,314310.299999997,7140,WL,C,9.0
2,21.742000102996826,learn,38257.999897003174,Fri May 09 2025 10:15:59 GMT-0500 (Central Daylight Time),315026.59999999404,A,sho,O,o,186,1,716.2999999970198,314310.299999997,7140,WL,C,9.0
2,21.942000150680542,learn,38057.99984931946,Fri May 09 2025 10:15:59 GMT-0500 (Central Daylight Time),315226.59999999404,A,shor,O,r,195,1,916.2999999970198,314310.299999997,7140,WL,C,9.0
2,22.04200005531311,learn,37957.99994468689,Fri May 09 2025 10:15:59 GMT-0500 (Central Daylight Time),315326.5,A,shore,O,e,83,1,1016.2000000029802,314310.299999997,7140,WL,C,9.0
2,22.342000007629395,learn,37657.999992370605,Fri May 09 2025 10:15:59 GMT-0500 (Central Daylight Time),315626.59999999404,A,shoreenter,O,enter,287,1,1316.2999999970198,314310.299999997,7140,WL,C,9.0
2,23.374000072479248,learn,36625.99992752075,Fri May 09 2025 10:15:59 GMT-0500 (Central Daylight Time),316659.1999999881,A,d,O,d,1027,1,1032.2999999970198,315626.89999999106,7140,WL,C,10.0
2,23.558000087738037,learn,36441.99991226196,Fri May 09 2025 10:15:59 GMT-0500 (Central Daylight Time),316842.6999999881,A,do,O,o,163,1,1215.7999999970198,315626.89999999106,7140,WL,C,10.0
2,23.675000190734863,learn,36324.99980926514,Fri May 09 2025 10:15:59 GMT-0500 (Central Daylight Time),316959.299999997,A,doc,O,c,106,1,1332.4000000059605,315626.89999999106,7140,WL,C,10.0
2,23.925000190734863,learn,36074.99980926514,Fri May 09 2025 10:15:59 GMT-0500 (Central Daylight Time),317209.39999999106,A,doct,O,t,238,1,1582.5,315626.89999999106,7140,WL,C,10.0
2,24.058000087738037,learn,35941.99991226196,Fri May 09 2025 10:15:59 GMT-0500 (Central Daylight Time),317342.6999999881,A,docto,O,o,116,1,1715.7999999970198,315626.89999999106,7140,WL,C,10.0
2,24.175000190734863,learn,35824.99980926514,Fri May 09 2025 10:15:59 GMT-0500 (Central Daylight Time),317459.299999997,A,doctor,O,r,103,1,1832.4000000059605,315626.89999999106,7140,WL,C,10.0
2,24.44100022315979,learn,35558.99977684021,Fri May 09 2025 10:15:59 GMT-0500 (Central Daylight Time),317725.799999997,A,doctorenter,O,enter,250,1,2098.9000000059605,315626.89999999106,7140,WL,C,10.0
2,28.9060001373291,learn,31093.9998626709,Fri May 09 2025 10:15:59 GMT-0500 (Central Daylight Time),322191.09999999404,A,c,O,c,4456,1,4465.0999999940395,317726.0,7140,WL,C,11.0
2,29.00600004196167,learn,30993.99995803833,Fri May 09 2025 10:15:59 GMT-0500 (Central Daylight Time),322291.09999999404,A,ca,O,a,86,1,4565.0999999940395,317726.0,7140,WL,C,11.0
2,29.290000200271606,learn,30709.999799728394,Fri May 09 2025 10:15:59 GMT-0500 (Central Daylight Time),322574.5,A,cat,O,t,266,1,4848.5,317726.0,7140,WL,C,11.0
2,29.44000005722046,learn,30559.99994277954,Fri May 09 2025 10:15:59 GMT-0500 (Central Daylight Time),322724.39999999106,A,catt,O,t,143,1,4998.399999991059,317726.0,7140,WL,C,11.0
2,29.890000104904175,learn,30109.999895095825,Fri May 09 2025 10:15:59 GMT-0500 (Central Daylight Time),323174.1999999881,A,cattl,O,l,433,1,5448.199999988079,317726.0,7140,WL,C,11.0
2,30.139000177383423,learn,29860.999822616577,Fri May 09 2025 10:15:59 GMT-0500 (Central Daylight Time),323424.0,A,cattle,O,e,231,1,5698.0,317726.0,7140,WL,C,11.0
2,30.4060001373291,learn,29593.9998626709,Fri May 09 2025 10:15:59 GMT-0500 (Central Daylight Time),323690.5,A,cattleenter,O,enter,246,1,5964.5,317726.0,7140,WL,C,11.0
2,30.805999994277954,learn,29194.000005722046,Fri May 09 2025 10:15:59 GMT-0500 (Central Daylight Time),324090.59999999404,A,n,O,n,379,1,399.70000000298023,323690.89999999106,7140,WL,C,12.0
2,31.00600004196167,learn,28993.99995803833,Fri May 09 2025 10:15:59 GMT-0500 (Central Daylight Time),324290.5,A,na,O,a,187,1,599.6000000089407,323690.89999999106,7140,WL,C,12.0
2,31.139000177383423,learn,28860.999822616577,Fri May 09 2025 10:15:59 GMT-0500 (Central Daylight Time),324423.6999999881,A,nai,O,i,115,1,732.7999999970198,323690.89999999106,7140,WL,C,12.0
2,31.356000185012817,learn,28643.999814987183,Fri May 09 2025 10:15:59 GMT-0500 (Central Daylight Time),324640.5,A,nail,O,l,206,1,949.6000000089407,323690.89999999106,7140,WL,C,12.0
2,31.856000185012817,learn,28143.999814987183,Fri May 09 2025 10:15:59 GMT-0500 (Central Daylight Time),325140.39999999106,A,nailenter,O,enter,493,1,1449.5,323690.89999999106,7140,WL,C,12.0
2,34.82100009918213,learn,25178.99990081787,Fri May 09 2025 10:15:59 GMT-0500 (Central Daylight Time),328105.89999999106,A,h,O,h,2945,1,2965.0999999940395,325140.799999997,7140,WL,C,13.0
2,35.021000146865845,learn,24978.999853134155,Fri May 09 2025 10:15:59 GMT-0500 (Central Daylight Time),328305.6999999881,A,ho,O,o,187,1,3164.8999999910593,325140.799999997,7140,WL,C,13.0
2,35.2039999961853,learn,24796.000003814697,Fri May 09 2025 10:15:59 GMT-0500 (Central Daylight Time),328489.1999999881,A,hom,O,m,164,1,3348.3999999910593,325140.799999997,7140,WL,C,13.0
2,35.6710000038147,learn,24328.999996185303,Fri May 09 2025 10:15:59 GMT-0500 (Central Daylight Time),328955.39999999106,A,ho,O,backspace,452,1,3814.5999999940395,325140.799999997,7140,WL,C,13.0
2,35.854000091552734,learn,24145.999908447266,Fri May 09 2025 10:15:59 GMT-0500 (Central Daylight Time),329138.6999999881,A,h,O,backspace,163,1,3997.8999999910593,325140.799999997,7140,WL,C,13.0
2,36.004000186920166,learn,23995.999813079834,Fri May 09 2025 10:15:59 GMT-0500 (Central Daylight Time),329288.89999999106,A,,O,backspace,139,1,4148.0999999940395,325140.799999997,7140,WL,C,13.0
2,36.1710000038147,learn,23828.999996185303,Fri May 09 2025 10:15:59 GMT-0500 (Central Daylight Time),329455.39999999106,A,,O,backspace,157,1,4314.5999999940395,325140.799999997,7140,WL,C,13.0
2,60.01300001144409,learn,-13.000011444091797,Fri May 09 2025 10:15:59 GMT-0500 (Central Daylight Time),353298.0,A,None,O,None,23838,1,28157.20000000298,325140.799999997,7140,WL,C,13.0
3,2.6659998893737793,learn,57334.00011062622,Fri May 09 2025 10:15:59 GMT-0500 (Central Daylight Time),425425.39999999106,A,t,O,t,2646,1,2665.5999999940395,422759.799999997,7140,WL,C,1.0
3,2.9649999141693115,learn,57035.00008583069,Fri May 09 2025 10:15:59 GMT-0500 (Central Daylight Time),425725.299999997,A,to,O,o,292,1,2965.5,422759.799999997,7140,WL,C,1.0
3,3.2649998664855957,learn,56735.000133514404,Fri May 09 2025 10:15:59 GMT-0500 (Central Daylight Time),426025.1999999881,A,tow,O,w,280,1,3265.3999999910593,422759.799999997,7140,WL,C,1.0
3,3.5319998264312744,learn,56468.000173568726,Fri May 09 2025 10:15:59 GMT-0500 (Central Daylight Time),426291.799999997,A,towe,O,e,260,1,3532.0,422759.799999997,7140,WL,C,1.0
3,3.7659997940063477,learn,56234.00020599365,Fri May 09 2025 10:15:59 GMT-0500 (Central Daylight Time),426525.299999997,A,tower,O,r,218,1,3765.5,422759.799999997,7140,WL,C,1.0
3,4.148000001907349,learn,55851.99999809265,Fri May 09 2025 10:15:59 GMT-0500 (Central Daylight Time),426908.299999997,A,towerenter,O,enter,377,1,4148.5,422759.799999997,7140,WL,C,1.0
3,4.847999811172485,learn,55152.000188827515,Fri May 09 2025 10:15:59 GMT-0500 (Central Daylight Time),427608.09999999404,A,q,O,q,682,1,699.5,426908.59999999404,7140,WL,C,2.0
3,5.130999803543091,learn,54869.00019645691,Fri May 09 2025 10:15:59 GMT-0500 (Central Daylight Time),427891.299999997,A,qu,O,u,277,1,982.7000000029802,426908.59999999404,7140,WL,C,2.0
3,5.414999961853027,learn,54585.00003814697,Fri May 09 2025 10:15:59 GMT-0500 (Central Daylight Time),428174.6999999881,A,que,O,e,266,1,1266.0999999940395,426908.59999999404,7140,WL,C,2.0
3,5.580999851226807,learn,54419.00014877319,Fri May 09 2025 10:15:59 GMT-0500 (Central Daylight Time),428341.1999999881,A,quee,O,e,160,1,1432.5999999940395,426908.59999999404,7140,WL,C,2.0
3,5.7809998989105225,learn,54219.00010108948,Fri May 09 2025 10:15:59 GMT-0500 (Central Daylight Time),428541.1999999881,A,queen,O,n,184,1,1632.5999999940395,426908.59999999404,7140,WL,C,2.0
3,6.330999851226807,learn,53669.00014877319,Fri May 09 2025 10:15:59 GMT-0500 (Central Daylight Time),429091.09999999404,A,queenenter,O,enter,545,1,2182.5,426908.59999999404,7140,WL,C,2.0
3,8.13099980354309,learn,51869.00019645691,Fri May 09 2025 10:15:59 GMT-0500 (Central Daylight Time),430890.59999999404,A,w,O,w,1778,1,1799.2000000029802,429091.39999999106,7140,WL,C,3.0
3,8.346999883651733,learn,51653.00011634827,Fri May 09 2025 10:15:59 GMT-0500 (Central Daylight Time),431107.09999999404,A,wh,O,h,204,1,2015.7000000029802,429091.39999999106,7140,WL,C,3.0
3,8.496999979019165,learn,51503.000020980835,Fri May 09 2025 10:15:59 GMT-0500 (Central Daylight Time),431256.89999999106,A,whe,O,e,138,1,2165.5,429091.39999999106,7140,WL,C,3.0
3,8.746999979019165,learn,51253.000020980835,Fri May 09 2025 10:15:59 GMT-0500 (Central Daylight Time),431506.89999999106,A,whea,O,a,229,1,2415.5,429091.39999999106,7140,WL,C,3.0
3,8.896999835968018,learn,51103.00016403198,Fri May 09 2025 10:15:59 GMT-0500 (Central Daylight Time),431657.0,A,wheat,O,t,138,1,2565.6000000089407,429091.39999999106,7140,WL,C,3.0
3,9.479999780654907,learn,50520.00021934509,Fri May 09 2025 10:15:59 GMT-0500 (Central Daylight Time),432240.0,A,wheatenter,O,enter,573,1,3148.6000000089407,429091.39999999106,7140,WL,C,3.0
3,10.579999923706055,learn,49420.000076293945,Fri May 09 2025 10:15:59 GMT-0500 (Central Daylight Time),433339.89999999106,A,s,O,s,1086,1,1099.5999999940395,432240.299999997,7140,WL,C,4.0
3,10.930999994277954,learn,49069.000005722046,Fri May 09 2025 10:15:59 GMT-0500 (Central Daylight Time),433690.59999999404,A,su,O,u,345,1,1450.2999999970198,432240.299999997,7140,WL,C,4.0
3,11.578999996185303,learn,48421.0000038147,Fri May 09 2025 10:15:59 GMT-0500 (Central Daylight Time),434339.1999999881,A,sug,O,g,643,1,2098.8999999910593,432240.299999997,7140,WL,C,4.0
3,11.745999813079834,learn,48254.000186920166,Fri May 09 2025 10:15:59 GMT-0500 (Central Daylight Time),434506.0,A,suga,O,a,154,1,2265.7000000029802,432240.299999997,7140,WL,C,4.0
3,12.02899980545044,learn,47971.00019454956,Fri May 09 2025 10:15:59 GMT-0500 (Central Daylight Time),434789.299999997,A,sugar,O,r,268,1,2549.0,432240.299999997,7140,WL,C,4.0
3,12.345999956130981,learn,47654.00004386902,Fri May 09 2025 10:15:59 GMT-0500 (Central Daylight Time),435105.799999997,A,sugarenter,O,enter,304,1,2865.5,432240.299999997,7140,WL,C,4.0
3,13.228999853134155,learn,46771.000146865845,Fri May 09 2025 10:15:59 GMT-0500 (Central Daylight Time),435989.09999999404,A,h,O,h,878,1,883.0,435106.09999999404,7140,WL,C,5.0
3,13.447999954223633,learn,46552.00004577637,Fri May 09 2025 10:15:59 GMT-0500 (Central Daylight Time),436208.0,A,ho,O,o,208,1,1101.9000000059605,435106.09999999404,7140,WL,C,5.0
3,13.645999908447266,learn,46354.000091552734,Fri May 09 2025 10:15:59 GMT-0500 (Central Daylight Time),436405.39999999106,A,hom,O,m,182,1,1299.2999999970198,435106.09999999404,7140,WL,C,5.0
3,13.861999988555908,learn,46138.00001144409,Fri May 09 2025 10:15:59 GMT-0500 (Central Daylight Time),436622.0,A,home,O,e,208,1,1515.9000000059605,435106.09999999404,7140,WL,C,5.0
3,14.27899980545044,learn,45721.00019454956,Fri May 09 2025 10:15:59 GMT-0500 (Central Daylight Time),437038.59999999404,A,homeenter,O,enter,400,1,1932.5,435106.09999999404,7140,WL,C,5.0
3,15.26199984550476,learn,44738.00015449524,Fri May 09 2025 10:15:59 GMT-0500 (Central Daylight Time),438021.5,A,b,O,b,976,1,982.6000000089407,437038.89999999106,7140,WL,C,6.0
3,15.561999797821045,learn,44438.000202178955,Fri May 09 2025 10:15:59 GMT-0500 (Central Daylight Time),438321.5,A,bo,O,o,279,1,1282.6000000089407,437038.89999999106,7140,WL,C,6.0
3,15.84499979019165,learn,44155.00020980835,Fri May 09 2025 10:15:59 GMT-0500 (Central Daylight Time),438604.6999999881,A,boy,O,y,276,1,1565.7999999970198,437038.89999999106,7140,WL,C,6.0
3,16.394999980926514,learn,43605.000019073486,Fri May 09 2025 10:15:59 GMT-0500 (Central Daylight Time),439154.59999999404,A,boyenter,O,enter,545,1,2115.7000000029802,437038.89999999106,7140,WL,C,6.0
3,17.043999910354614,learn,42956.000089645386,Fri May 09 2025 10:15:59 GMT-0500 (Central Daylight Time),439804.1999999881,A,d,O,d,644,1,649.2999999970198,439154.89999999106,7140,WL,C,7.0
3,17.3439998626709,learn,42656.0001373291,Fri May 09 2025 10:15:59 GMT-0500 (Central Daylight Time),440104.09999999404,A,dc,O,c,282,1,949.2000000029802,439154.89999999106,7140,WL,C,7.0
3,17.543999910354614,learn,42456.000089645386,Fri May 09 2025 10:15:59 GMT-0500 (Central Daylight Time),440304.299999997,A,dco,O,o,190,1,1149.4000000059605,439154.89999999106,7140,WL,C,7.0
3,17.860999822616577,learn,42139.00017738342,Fri May 09 2025 10:15:59 GMT-0500 (Central Daylight Time),440620.6999999881,A,dcot,O,t,310,1,1465.7999999970198,439154.89999999106,7140,WL,C,7.0
3,18.110999822616577,learn,41889.00017738342,Fri May 09 2025 10:15:59 GMT-0500 (Central Daylight Time),440870.39999999106,A,dcoto,O,o,240,1,1715.5,439154.89999999106,7140,WL,C,7.0
3,18.310999870300293,learn,41689.00012969971,Fri May 09 2025 10:15:59 GMT-0500 (Central Daylight Time),441070.59999999404,A,dcotor,O,r,184,1,1915.7000000029802,439154.89999999106,7140,WL,C,7.0
3,19.26099991798401,learn,40739.00008201599,Fri May 09 2025 10:15:59 GMT-0500 (Central Daylight Time),442020.39999999106,A,dcoto,O,backspace,943,1,2865.5,439154.89999999106,7140,WL,C,7.0
3,19.444000005722046,learn,40555.999994277954,Fri May 09 2025 10:15:59 GMT-0500 (Central Daylight Time),442203.39999999106,A,dcot,O,backspace,177,1,3048.5,439154.89999999106,7140,WL,C,7.0
3,19.610999822616577,learn,40389.00017738342,Fri May 09 2025 10:15:59 GMT-0500 (Central Daylight Time),442370.299999997,A,dco,O,backspace,146,1,3215.4000000059605,439154.89999999106,7140,WL,C,7.0
3,19.776999950408936,learn,40223.000049591064,Fri May 09 2025 10:15:59 GMT-0500 (Central Daylight Time),442536.799999997,A,dc,O,backspace,148,1,3381.9000000059605,439154.89999999106,7140,WL,C,7.0
3,20.22699999809265,learn,39773.00000190735,Fri May 09 2025 10:15:59 GMT-0500 (Central Daylight Time),442986.6999999881,A,d,O,backspace,430,1,3831.7999999970198,439154.89999999106,7140,WL,C,7.0
3,20.842999935150146,learn,39157.00006484985,Fri May 09 2025 10:15:59 GMT-0500 (Central Daylight Time),443603.1999999881,A,do,O,o,604,1,4448.29999999702,439154.89999999106,7140,WL,C,7.0
3,21.07699990272522,learn,38923.00009727478,Fri May 09 2025 10:15:59 GMT-0500 (Central Daylight Time),443836.5,A,doc,O,c,219,1,4681.600000008941,439154.89999999106,7140,WL,C,7.0
3,21.259999990463257,learn,38740.00000953674,Fri May 09 2025 10:15:59 GMT-0500 (Central Daylight Time),444019.6999999881,A,doct,O,t,169,1,4864.79999999702,439154.89999999106,7140,WL,C,7.0
3,21.525999784469604,learn,38474.000215530396,Fri May 09 2025 10:15:59 GMT-0500 (Central Daylight Time),444285.799999997,A,docto,O,o,250,1,5130.9000000059605,439154.89999999106,7140,WL,C,7.0
3,21.692999839782715,learn,38307.000160217285,Fri May 09 2025 10:15:59 GMT-0500 (Central Daylight Time),444453.09999999404,A,doctor,O,r,153,1,5298.20000000298,439154.89999999106,7140,WL,C,7.0
3,22.025999784469604,learn,37974.000215530396,Fri May 09 2025 10:15:59 GMT-0500 (Central Daylight Time),444786.1999999881,A,doctorenter,O,enter,312,1,5631.29999999702,439154.89999999106,7140,WL,C,7.0
3,23.859999895095825,learn,36140.000104904175,Fri May 09 2025 10:15:59 GMT-0500 (Central Daylight Time),446620.09999999404,A,c,O,c,1812,1,1833.5,444786.59999999404,7140,WL,C,8.0
3,24.04199981689453,learn,35958.00018310547,Fri May 09 2025 10:15:59 GMT-0500 (Central Daylight Time),446802.09999999404,A,co,O,o,170,1,2015.5,444786.59999999404,7140,WL,C,8.0
3,24.29199981689453,learn,35708.00018310547,Fri May 09 2025 10:15:59 GMT-0500 (Central Daylight Time),447052.1999999881,A,cor,O,r,243,1,2265.5999999940395,444786.59999999404,7140,WL,C,8.0
3,24.45899987220764,learn,35541.00012779236,Fri May 09 2025 10:15:59 GMT-0500 (Central Daylight Time),447218.5,A,corn,O,n,145,1,2431.9000000059605,444786.59999999404,7140,WL,C,8.0
3,24.89199995994568,learn,35108.00004005432,Fri May 09 2025 10:15:59 GMT-0500 (Central Daylight Time),447651.5,A,cornenter,O,enter,428,1,2864.9000000059605,444786.59999999404,7140,WL,C,8.0
3,25.691999912261963,learn,34308.00008773804,Fri May 09 2025 10:15:59 GMT-0500 (Central Daylight Time),448451.39999999106,A,c,O,c,794,1,799.5,447651.89999999106,7140,WL,C,9.0
3,25.79199981689453,learn,34208.00018310547,Fri May 09 2025 10:15:59 GMT-0500 (Central Daylight Time),448551.6999999881,A,ca,O,a,82,1,899.7999999970198,447651.89999999106,7140,WL,C,9.0
3,25.95799994468689,learn,34042.00005531311,Fri May 09 2025 10:15:59 GMT-0500 (Central Daylight Time),448718.1999999881,A,cam,O,m,158,1,1066.2999999970198,447651.89999999106,7140,WL,C,9.0
3,26.29099988937378,learn,33709.00011062622,Fri May 09 2025 10:15:59 GMT-0500 (Central Daylight Time),449051.299999997,A,camp,O,p,328,1,1399.4000000059605,447651.89999999106,7140,WL,C,9.0
3,26.757999897003174,learn,33242.000102996826,Fri May 09 2025 10:15:59 GMT-0500 (Central Daylight Time),449518.09999999404,A,campenter,O,enter,451,1,1866.2000000029802,447651.89999999106,7140,WL,C,9.0
3,27.72499990463257,learn,32275.00009536743,Fri May 09 2025 10:15:59 GMT-0500 (Central Daylight Time),450484.299999997,A,f,O,f,960,1,966.0,449518.299999997,7140,WL,C,10.0
3,27.857999801635742,learn,32142.000198364258,Fri May 09 2025 10:15:59 GMT-0500 (Central Daylight Time),450617.5,A,fl,O,l,113,1,1099.2000000029802,449518.299999997,7140,WL,C,10.0
3,28.073999881744385,learn,31926.000118255615,Fri May 09 2025 10:15:59 GMT-0500 (Central Daylight Time),450834.1999999881,A,fla,O,a,196,1,1315.8999999910593,449518.299999997,7140,WL,C,10.0
3,28.2739999294281,learn,31726.0000705719,Fri May 09 2025 10:15:59 GMT-0500 (Central Daylight Time),451034.09999999404,A,flag,O,g,179,1,1515.7999999970198,449518.299999997,7140,WL,C,10.0
3,29.156999826431274,learn,30843.000173568726,Fri May 09 2025 10:15:59 GMT-0500 (Central Daylight Time),451917.299999997,A,flagenter,O,enter,868,1,2399.0,449518.299999997,7140,WL,C,10.0
3,29.60699987411499,learn,30393.00012588501,Fri May 09 2025 10:15:59 GMT-0500 (Central Daylight Time),452367.09999999404,A,l,O,l,441,1,449.40000000596046,451917.6999999881,7140,WL,C,11.0
3,29.85699987411499,learn,30143.00012588501,Fri May 09 2025 10:15:59 GMT-0500 (Central Daylight Time),452616.89999999106,A,le,O,e,231,1,699.2000000029802,451917.6999999881,7140,WL,C,11.0
3,30.073999881744385,learn,29926.000118255615,Fri May 09 2025 10:15:59 GMT-0500 (Central Daylight Time),452833.5,A,let,O,t,205,1,915.8000000119209,451917.6999999881,7140,WL,C,11.0
3,30.256999969482422,learn,29743.000030517578,Fri May 09 2025 10:15:59 GMT-0500 (Central Daylight Time),453016.6999999881,A,lett,O,t,172,1,1099.0,451917.6999999881,7140,WL,C,11.0
3,30.473999977111816,learn,29526.000022888184,Fri May 09 2025 10:15:59 GMT-0500 (Central Daylight Time),453233.5,A,lette,O,e,205,1,1315.800000011921,451917.6999999881,7140,WL,C,11.0
3,30.62399983406067,learn,29376.00016593933,Fri May 09 2025 10:15:59 GMT-0500 (Central Daylight Time),453383.59999999404,A,letter,O,r,140,1,1465.9000000059605,451917.6999999881,7140,WL,C,11.0
3,31.10699987411499,learn,28893.00012588501,Fri May 09 2025 10:15:59 GMT-0500 (Central Daylight Time),453866.6999999881,A,letterenter,O,enter,461,1,1949.0,451917.6999999881,7140,WL,C,11.0
3,31.889999866485596,learn,28110.000133514404,Fri May 09 2025 10:15:59 GMT-0500 (Central Daylight Time),454649.59999999404,A,n,O,n,770,1,782.5,453867.09999999404,7140,WL,C,12.0
3,32.10699987411499,learn,27893.00012588501,Fri May 09 2025 10:15:59 GMT-0500 (Central Daylight Time),454866.39999999106,A,na,O,a,195,1,999.2999999970198,453867.09999999404,7140,WL,C,12.0
3,32.306999921798706,learn,27693.000078201294,Fri May 09 2025 10:15:59 GMT-0500 (Central Daylight Time),455066.299999997,A,nai,O,i,187,1,1199.2000000029802,453867.09999999404,7140,WL,C,12.0
3,32.58999991416931,learn,27410.00008583069,Fri May 09 2025 10:15:59 GMT-0500 (Central Daylight Time),455349.59999999404,A,nail,O,l,275,1,1482.5,453867.09999999404,7140,WL,C,12.0
3,33.138999938964844,learn,26861.000061035156,Fri May 09 2025 10:15:59 GMT-0500 (Central Daylight Time),455899.1999999881,A,nailenter,O,enter,544,1,2032.0999999940395,453867.09999999404,7140,WL,C,12.0
3,33.98899984359741,learn,26011.000156402588,Fri May 09 2025 10:15:59 GMT-0500 (Central Daylight Time),456749.09999999404,A,s,O,s,842,1,849.5999999940395,455899.5,7140,WL,C,13.0
3,34.15599989891052,learn,25844.000101089478,Fri May 09 2025 10:15:59 GMT-0500 (Central Daylight Time),456915.89999999106,A,sh,O,h,153,1,1016.3999999910593,455899.5,7140,WL,C,13.0
3,34.37299990653992,learn,25627.000093460083,Fri May 09 2025 10:15:59 GMT-0500 (Central Daylight Time),457132.39999999106,A,sho,O,o,209,1,1232.8999999910593,455899.5,7140,WL,C,13.0
3,34.65599989891052,learn,25344.000101089478,Fri May 09 2025 10:15:59 GMT-0500 (Central Daylight Time),457415.5,A,shor,O,r,273,1,1516.0,455899.5,7140,WL,C,13.0
3,34.75599980354309,learn,25244.00019645691,Fri May 09 2025 10:15:59 GMT-0500 (Central Daylight Time),457515.59999999404,A,shore,O,e,87,1,1616.0999999940395,455899.5,7140,WL,C,13.0
3,35.35599994659424,learn,24644.00005340576,Fri May 09 2025 10:15:59 GMT-0500 (Central Daylight Time),458115.59999999404,A,shoreenter,O,enter,579,1,2216.0999999940395,455899.5,7140,WL,C,13.0
3,36.52199983596802,learn,23478.000164031982,Fri May 09 2025 10:15:59 GMT-0500 (Central Daylight Time),459281.59999999404,A,b,O,b,1155,1,1165.7000000029802,458115.89999999106,7140,WL,C,14.0
3,36.91499996185303,learn,23085.000038146973,Fri May 09 2025 10:15:59 GMT-0500 (Central Daylight Time),459674.799999997,A,bo,O,o,389,1,1558.9000000059605,458115.89999999106,7140,WL,C,14.0
3,37.121999979019165,learn,22878.000020980835,Fri May 09 2025 10:15:59 GMT-0500 (Central Daylight Time),459881.5,A,bod,O,d,187,1,1765.6000000089407,458115.89999999106,7140,WL,C,14.0
3,37.33799982070923,learn,22662.00017929077,Fri May 09 2025 10:15:59 GMT-0500 (Central Daylight Time),460098.0,A,body,O,y,196,1,1982.1000000089407,458115.89999999106,7140,WL,C,14.0
3,37.83799982070923,learn,22162.00017929077,Fri May 09 2025 10:15:59 GMT-0500 (Central Daylight Time),460597.89999999106,A,bodyenter,O,enter,491,1,2482.0,458115.89999999106,7140,WL,C,14.0
3,43.90299987792969,learn,16097.000122070312,Fri May 09 2025 10:15:59 GMT-0500 (Central Daylight Time),466662.5,A,enter,O,enter,6057,1,6064.20000000298,460598.299999997,7140,WL,C,15.0
4,1.2999999523162842,learn,58700.000047683716,Fri May 09 2025 10:15:59 GMT-0500 (Central Daylight Time),534208.1999999881,A,t,O,t,1290,1,1299.5,532908.6999999881,7140,WL,C,1.0
4,1.5499999523162842,learn,58450.000047683716,Fri May 09 2025 10:15:59 GMT-0500 (Central Daylight Time),534458.099999994,A,to,O,o,238,1,1549.4000000059605,532908.6999999881,7140,WL,C,1.0
4,2.632999897003174,learn,57367.000102996826,Fri May 09 2025 10:15:59 GMT-0500 (Central Daylight Time),535540.8999999911,A,tow,O,w,1067,1,2632.2000000029802,532908.6999999881,7140,WL,C,1.0
4,2.865999937057495,learn,57134.000062942505,Fri May 09 2025 10:15:59 GMT-0500 (Central Daylight Time),535774.299999997,A,towe,O,e,225,1,2865.6000000089407,532908.6999999881,7140,WL,C,1.0
4,3.115999937057495,learn,56884.000062942505,Fri May 09 2025 10:15:59 GMT-0500 (Central Daylight Time),536024.1999999881,A,tower,O,r,232,1,3115.5,532908.6999999881,7140,WL,C,1.0
4,3.5989999771118164,learn,56401.00002288818,Fri May 09 2025 10:15:59 GMT-0500 (Central Daylight Time),536507.599999994,A,towerenter,O,enter,470,1,3598.9000000059605,532908.6999999881,7140,WL,C,1.0
4,4.73199987411499,learn,55268.00012588501,Fri May 09 2025 10:15:59 GMT-0500 (Central Daylight Time),537640.3999999911,A,q,O,q,1122,1,1132.5999999940395,536507.799999997,7140,WL,C,2.0
4,5.081999778747559,learn,54918.00022125244,Fri May 09 2025 10:15:59 GMT-0500 (Central Daylight Time),537990.299999997,A,qu,O,u,334,1,1482.5,536507.799999997,7140,WL,C,2.0
4,5.331999778747559,learn,54668.00022125244,Fri May 09 2025 10:15:59 GMT-0500 (Central Daylight Time),538240.3999999911,A,que,O,e,240,1,1732.5999999940395,536507.799999997,7140,WL,C,2.0
4,5.497999906539917,learn,54502.00009346008,Fri May 09 2025 10:15:59 GMT-0500 (Central Daylight Time),538406.6999999881,A,quee,O,e,157,1,1898.8999999910593,536507.799999997,7140,WL,C,2.0
4,5.664999961853027,learn,54335.00003814697,Fri May 09 2025 10:15:59 GMT-0500 (Central Daylight Time),538573.099999994,A,queen,O,n,159,1,2065.2999999970198,536507.799999997,7140,WL,C,2.0
4,6.148000001907349,learn,53851.99999809265,Fri May 09 2025 10:15:59 GMT-0500 (Central Daylight Time),539056.5,A,queenenter,O,enter,473,1,2548.7000000029802,536507.799999997,7140,WL,C,2.0
4,7.613999843597412,learn,52386.00015640259,Fri May 09 2025 10:15:59 GMT-0500 (Central Daylight Time),540522.799999997,A,w,O,w,1446,1,1466.0,539056.799999997,7140,WL,C,3.0
4,7.830999851226807,learn,52169.00014877319,Fri May 09 2025 10:15:59 GMT-0500 (Central Daylight Time),540739.6999999881,A,wh,O,h,203,1,1682.8999999910593,539056.799999997,7140,WL,C,3.0
4,7.997999906539917,learn,52002.00009346008,Fri May 09 2025 10:15:59 GMT-0500 (Central Daylight Time),540906.0,A,whe,O,e,154,1,1849.2000000029802,539056.799999997,7140,WL,C,3.0
4,8.21399998664856,learn,51786.00001335144,Fri May 09 2025 10:15:59 GMT-0500 (Central Daylight Time),541122.8999999911,A,whea,O,a,212,1,2066.0999999940395,539056.799999997,7140,WL,C,3.0
4,8.363999843597412,learn,51636.00015640259,Fri May 09 2025 10:15:59 GMT-0500 (Central Daylight Time),541272.599999994,A,wheat,O,t,139,1,2215.7999999970198,539056.799999997,7140,WL,C,3.0
4,8.913999795913696,learn,51086.000204086304,Fri May 09 2025 10:15:59 GMT-0500 (Central Daylight Time),541822.599999994,A,wheatenter,O,enter,533,1,2765.7999999970198,539056.799999997,7140,WL,C,3.0
4,9.846999883651733,learn,50153.00011634827,Fri May 09 2025 10:15:59 GMT-0500 (Central Daylight Time),542755.3999999911,A,s,O,s,919,1,932.3999999910593,541823.0,7140,WL,C,4.0
4,10.512999773025513,learn,49487.00022697449,Fri May 09 2025 10:15:59 GMT-0500 (Central Daylight Time),543421.799999997,A,su,O,u,651,1,1598.7999999970198,541823.0,7140,WL,C,4.0
4,10.77999997138977,learn,49220.00002861023,Fri May 09 2025 10:15:59 GMT-0500 (Central Daylight Time),543688.3999999911,A,sug,O,g,248,1,1865.3999999910593,541823.0,7140,WL,C,4.0
4,10.912999868392944,learn,49087.000131607056,Fri May 09 2025 10:15:59 GMT-0500 (Central Daylight Time),543821.3999999911,A,suga,O,a,124,1,1998.3999999910593,541823.0,7140,WL,C,4.0
4,11.179999828338623,learn,48820.00017166138,Fri May 09 2025 10:15:59 GMT-0500 (Central Daylight Time),544088.3999999911,A,sugar,O,r,249,1,2265.3999999910593,541823.0,7140,WL,C,4.0
4,11.479999780654907,learn,48520.00021934509,Fri May 09 2025 10:15:59 GMT-0500 (Central Daylight Time),544388.299999997,A,sugarenter,O,enter,294,1,2565.2999999970198,541823.0,7140,WL,C,4.0
4,12.245999813079834,learn,47754.000186920166,Fri May 09 2025 10:15:59 GMT-0500 (Central Daylight Time),545154.799999997,A,h,O,h,760,1,766.2000000029802,544388.599999994,7140,WL,C,5.0
4,12.52999997138977,learn,47470.00002861023,Fri May 09 2025 10:15:59 GMT-0500 (Central Daylight Time),545438.0,A,ho,O,o,275,1,1049.4000000059605,544388.599999994,7140,WL,C,5.0
4,12.712999820709229,learn,47287.00017929077,Fri May 09 2025 10:15:59 GMT-0500 (Central Daylight Time),545621.1999999881,A,hom,O,m,176,1,1232.5999999940395,544388.599999994,7140,WL,C,5.0
4,12.912999868392944,learn,47087.000131607056,Fri May 09 2025 10:15:59 GMT-0500 (Central Daylight Time),545821.299999997,A,home,O,e,193,1,1432.7000000029802,544388.599999994,7140,WL,C,5.0
4,13.245999813079834,learn,46754.000186920166,Fri May 09 2025 10:15:59 GMT-0500 (Central Daylight Time),546154.5,A,homeenter,O,enter,321,1,1765.9000000059605,544388.599999994,7140,WL,C,5.0
4,14.095999956130981,learn,45904.00004386902,Fri May 09 2025 10:15:59 GMT-0500 (Central Daylight Time),547004.1999999881,A,b,O,b,836,1,849.3999999910593,546154.799999997,7140,WL,C,6.0
4,14.412999868392944,learn,45587.000131607056,Fri May 09 2025 10:15:59 GMT-0500 (Central Daylight Time),547321.099999994,A,bo,O,o,297,1,1166.2999999970198,546154.799999997,7140,WL,C,6.0
4,14.678999900817871,learn,45321.00009918213,Fri May 09 2025 10:15:59 GMT-0500 (Central Daylight Time),547587.099999994,A,boy,O,y,261,1,1432.2999999970198,546154.799999997,7140,WL,C,6.0
4,15.228999853134155,learn,44771.000146865845,Fri May 09 2025 10:15:59 GMT-0500 (Central Daylight Time),548137.299999997,A,boyenter,O,enter,531,1,1982.5,546154.799999997,7140,WL,C,6.0
4,15.828999996185303,learn,44171.0000038147,Fri May 09 2025 10:15:59 GMT-0500 (Central Daylight Time),548737.1999999881,A,d,O,d,581,1,599.5999999940395,548137.599999994,7140,WL,C,7.0
4,16.078999996185303,learn,43921.0000038147,Fri May 09 2025 10:15:59 GMT-0500 (Central Daylight Time),548987.0,A,do,O,o,245,1,849.4000000059605,548137.599999994,7140,WL,C,7.0
4,16.561999797821045,learn,43438.000202178955,Fri May 09 2025 10:15:59 GMT-0500 (Central Daylight Time),549470.099999994,A,doc,O,c,475,1,1332.5,548137.599999994,7140,WL,C,7.0
4,16.84499979019165,learn,43155.00020980835,Fri May 09 2025 10:15:59 GMT-0500 (Central Daylight Time),549753.1999999881,A,doct,O,t,272,1,1615.5999999940395,548137.599999994,7140,WL,C,7.0
4,17.16099977493286,learn,42839.00022506714,Fri May 09 2025 10:15:59 GMT-0500 (Central Daylight Time),550069.799999997,A,docto,O,o,299,1,1932.2000000029802,548137.599999994,7140,WL,C,7.0
4,17.494999885559082,learn,42505.00011444092,Fri May 09 2025 10:15:59 GMT-0500 (Central Daylight Time),550403.099999994,A,doctor,O,r,313,1,2265.5,548137.599999994,7140,WL,C,7.0
4,17.960999965667725,learn,42039.000034332275,Fri May 09 2025 10:15:59 GMT-0500 (Central Daylight Time),550869.6999999881,A,doctorenter,O,enter,459,1,2732.0999999940395,548137.599999994,7140,WL,C,7.0
4,19.3439998626709,learn,40656.0001373291,Fri May 09 2025 10:15:59 GMT-0500 (Central Daylight Time),552252.3999999911,A,c,O,c,1376,1,1382.2000000029802,550870.1999999881,7140,WL,C,8.0
4,19.47699999809265,learn,40523.00000190735,Fri May 09 2025 10:15:59 GMT-0500 (Central Daylight Time),552385.6999999881,A,ca,O,a,121,1,1515.5,550870.1999999881,7140,WL,C,8.0
4,19.694000005722046,learn,40305.999994277954,Fri May 09 2025 10:15:59 GMT-0500 (Central Daylight Time),552602.5,A,cam,O,m,205,1,1732.300000011921,550870.1999999881,7140,WL,C,8.0
4,20.126999855041504,learn,39873.000144958496,Fri May 09 2025 10:15:59 GMT-0500 (Central Daylight Time),553035.3999999911,A,camp,O,p,428,1,2165.2000000029802,550870.1999999881,7140,WL,C,8.0
4,20.543999910354614,learn,39456.000089645386,Fri May 09 2025 10:15:59 GMT-0500 (Central Daylight Time),553452.099999994,A,campenter,O,enter,411,1,2581.9000000059605,550870.1999999881,7140,WL,C,8.0
4,21.11299991607666,learn,38887.00008392334,Fri May 09 2025 10:15:59 GMT-0500 (Central Daylight Time),554021.0,A,f,O,f,554,1,568.6000000089407,553452.3999999911,7140,WL,C,9.0
4,21.310999870300293,learn,38689.00012969971,Fri May 09 2025 10:15:59 GMT-0500 (Central Daylight Time),554218.8999999911,A,fl,O,l,193,1,766.5,553452.3999999911,7140,WL,C,9.0
4,21.526999950408936,learn,38473.000049591064,Fri May 09 2025 10:15:59 GMT-0500 (Central Daylight Time),554435.0,A,fla,O,a,212,1,982.6000000089407,553452.3999999911,7140,WL,C,9.0
4,21.759999990463257,learn,38240.00000953674,Fri May 09 2025 10:15:59 GMT-0500 (Central Daylight Time),554668.5,A,flag,O,g,227,1,1216.1000000089407,553452.3999999911,7140,WL,C,9.0
4,22.242999792099,learn,37757.000207901,Fri May 09 2025 10:15:59 GMT-0500 (Central Daylight Time),555151.599999994,A,flagenter,O,enter,474,1,1699.2000000029802,553452.3999999911,7140,WL,C,9.0
4,23.025999784469604,learn,36974.000215530396,Fri May 09 2025 10:15:59 GMT-0500 (Central Daylight Time),555934.599999994,A,l,O,l,774,1,782.5999999940395,555152.0,7140,WL,C,10.0
4,23.20899987220764,learn,36791.00012779236,Fri May 09 2025 10:15:59 GMT-0500 (Central Daylight Time),556117.8999999911,A,le,O,e,176,1,965.8999999910593,555152.0,7140,WL,C,10.0
4,23.442999839782715,learn,36557.000160217285,Fri May 09 2025 10:15:59 GMT-0500 (Central Daylight Time),556351.099999994,A,let,O,t,217,1,1199.0999999940395,555152.0,7140,WL,C,10.0
4,23.609999895095825,learn,36390.000104904175,Fri May 09 2025 10:15:59 GMT-0500 (Central Daylight Time),556517.8999999911,A,lett,O,t,151,1,1365.8999999910593,555152.0,7140,WL,C,10.0
4,23.80899977684021,learn,36191.00022315979,Fri May 09 2025 10:15:59 GMT-0500 (Central Daylight Time),556717.8999999911,A,lette,O,e,192,1,1565.8999999910593,555152.0,7140,WL,C,10.0
4,24.092999935150146,learn,35907.00006484985,Fri May 09 2025 10:15:59 GMT-0500 (Central Daylight Time),557001.0,A,letter,O,r,264,1,1849.0,555152.0,7140,WL,C,10.0
4,24.39299988746643,learn,35607.00011253357,Fri May 09 2025 10:15:59 GMT-0500 (Central Daylight Time),557301.1999999881,A,letterenter,O,enter,285,1,2149.199999988079,555152.0,7140,WL,C,10.0
4,24.875999927520752,learn,35124.00007247925,Fri May 09 2025 10:15:59 GMT-0500 (Central Daylight Time),557784.099999994,A,c,O,c,464,1,482.59999999403954,557301.5,7140,WL,C,11.0
4,25.108999967575073,learn,34891.00003242493,Fri May 09 2025 10:15:59 GMT-0500 (Central Daylight Time),558017.3999999911,A,co,O,o,214,1,715.8999999910593,557301.5,7140,WL,C,11.0
4,25.342000007629395,learn,34657.999992370605,Fri May 09 2025 10:15:59 GMT-0500 (Central Daylight Time),558250.799999997,A,cor,O,r,221,1,949.2999999970198,557301.5,7140,WL,C,11.0
4,25.508999824523926,learn,34491.000175476074,Fri May 09 2025 10:15:59 GMT-0500 (Central Daylight Time),558417.099999994,A,corn,O,n,148,1,1115.5999999940395,557301.5,7140,WL,C,11.0
4,26.04199981689453,learn,33958.00018310547,Fri May 09 2025 10:15:59 GMT-0500 (Central Daylight Time),558950.5,A,cornenter,O,enter,525,1,1649.0,557301.5,7140,WL,C,11.0
4,29.04099988937378,learn,30959.00011062622,Fri May 09 2025 10:15:59 GMT-0500 (Central Daylight Time),561949.3999999911,A,c,O,c,2992,1,2998.7000000029802,558950.6999999881,7140,WL,C,12.0
4,29.191999912261963,learn,30808.000087738037,Fri May 09 2025 10:15:59 GMT-0500 (Central Daylight Time),562100.599999994,A,ca,O,a,137,1,3149.9000000059605,558950.6999999881,7140,WL,C,12.0
4,29.45799994468689,learn,30542.00005531311,Fri May 09 2025 10:15:59 GMT-0500 (Central Daylight Time),562365.8999999911,A,cat,O,t,258,1,3415.2000000029802,558950.6999999881,7140,WL,C,12.0
4,29.62399983406067,learn,30376.00016593933,Fri May 09 2025 10:15:59 GMT-0500 (Central Daylight Time),562532.5,A,catt,O,t,152,1,3581.800000011921,558950.6999999881,7140,WL,C,12.0
4,30.156999826431274,learn,29843.000173568726,Fri May 09 2025 10:15:59 GMT-0500 (Central Daylight Time),563065.799999997,A,cattl,O,l,521,1,4115.100000008941,558950.6999999881,7140,WL,C,12.0
4,30.323999881744385,learn,29676.000118255615,Fri May 09 2025 10:15:59 GMT-0500 (Central Daylight Time),563232.6999999881,A,cattle,O,e,157,1,4282.0,558950.6999999881,7140,WL,C,12.0
4,30.60699987411499,learn,29393.00012588501,Fri May 09 2025 10:15:59 GMT-0500 (Central Daylight Time),563515.5,A,cattleenter,O,enter,277,1,4564.800000011921,558950.6999999881,7140,WL,C,12.0
4,31.68999981880188,learn,28310.00018119812,Fri May 09 2025 10:15:59 GMT-0500 (Central Daylight Time),564598.599999994,A,s,O,s,1075,1,1082.7000000029802,563515.8999999911,7140,WL,C,13.0
4,31.95699977874756,learn,28043.00022125244,Fri May 09 2025 10:15:59 GMT-0500 (Central Daylight Time),564865.099999994,A,sh,O,h,248,1,1349.2000000029802,563515.8999999911,7140,WL,C,13.0
4,32.139999866485596,learn,27860.000133514404,Fri May 09 2025 10:15:59 GMT-0500 (Central Daylight Time),565048.599999994,A,sho,O,o,164,1,1532.7000000029802,563515.8999999911,7140,WL,C,13.0
4,32.406999826431274,learn,27593.000173568726,Fri May 09 2025 10:15:59 GMT-0500 (Central Daylight Time),565315.099999994,A,shor,O,r,262,1,1799.2000000029802,563515.8999999911,7140,WL,C,13.0
4,32.472999811172485,learn,27527.000188827515,Fri May 09 2025 10:15:59 GMT-0500 (Central Daylight Time),565381.799999997,A,shore,O,e,59,1,1865.9000000059605,563515.8999999911,7140,WL,C,13.0
4,32.722999811172485,learn,27277.000188827515,Fri May 09 2025 10:15:59 GMT-0500 (Central Daylight Time),565631.599999994,A,shoreenter,O,enter,241,1,2115.7000000029802,563515.8999999911,7140,WL,C,13.0
4,33.45599985122681,learn,26544.000148773193,Fri May 09 2025 10:15:59 GMT-0500 (Central Daylight Time),566364.8999999911,A,b,O,b,719,1,733.0,565631.8999999911,7140,WL,C,14.0
4,33.68999981880188,learn,26310.00018119812,Fri May 09 2025 10:15:59 GMT-0500 (Central Daylight Time),566598.099999994,A,bo,O,o,217,1,966.2000000029802,565631.8999999911,7140,WL,C,14.0
4,33.90599989891052,learn,26094.000101089478,Fri May 09 2025 10:15:59 GMT-0500 (Central Daylight Time),566814.599999994,A,bod,O,d,201,1,1182.7000000029802,565631.8999999911,7140,WL,C,14.0
4,34.038999795913696,learn,25961.000204086304,Fri May 09 2025 10:15:59 GMT-0500 (Central Daylight Time),566947.8999999911,A,body,O,y,120,1,1316.0,565631.8999999911,7140,WL,C,14.0
4,34.65599989891052,learn,25344.000101089478,Fri May 09 2025 10:15:59 GMT-0500 (Central Daylight Time),567564.5,A,bodyenter,O,enter,602,1,1932.6000000089407,565631.8999999911,7140,WL,C,14.0
4,36.48899984359741,learn,23511.000156402588,Fri May 09 2025 10:15:59 GMT-0500 (Central Daylight Time),569397.1999999881,A,enter,O,enter,1826,1,1832.5,567564.6999999881,7140,WL,C,15.0
5,1.8340001106262207,learn,60000.0,Fri May 09 2025 10:15:59 GMT-0500 (Central Daylight Time),641458.1999999881,A,r,O,r,1814,1,1832.7999999970198,639625.3999999911,7140,WL,C,1.0
5,2.317000150680542,learn,60000.0,Fri May 09 2025 10:15:59 GMT-0500 (Central Daylight Time),641941.299999997,A,,O,backspace,476,1,2315.9000000059605,639625.3999999911,7140,WL,C,1.0
5,2.4830000400543213,learn,60000.0,Fri May 09 2025 10:15:59 GMT-0500 (Central Daylight Time),642107.5,A,t,O,t,160,1,2482.1000000089407,639625.3999999911,7140,WL,C,1.0
5,2.6660001277923584,learn,60000.0,Fri May 09 2025 10:15:59 GMT-0500 (Central Daylight Time),642291.0,A,to,O,o,171,1,2665.6000000089407,639625.3999999911,7140,WL,C,1.0
5,3.383000135421753,learn,60000.0,Fri May 09 2025 10:15:59 GMT-0500 (Central Daylight Time),643007.299999997,A,tow,O,w,698,1,3381.9000000059605,639625.3999999911,7140,WL,C,1.0
5,3.633000135421753,learn,60000.0,Fri May 09 2025 10:15:59 GMT-0500 (Central Daylight Time),643257.1999999881,A,towe,O,e,238,1,3631.7999999970198,639625.3999999911,7140,WL,C,1.0
5,3.865999937057495,learn,60000.0,Fri May 09 2025 10:15:59 GMT-0500 (Central Daylight Time),643490.299999997,A,tower,O,r,212,1,3864.9000000059605,639625.3999999911,7140,WL,C,1.0
5,4.183000087738037,learn,60000.0,Fri May 09 2025 10:15:59 GMT-0500 (Central Daylight Time),643807.299999997,A,towerenter,O,enter,300,1,4181.9000000059605,639625.3999999911,7140,WL,C,1.0
5,5.016000032424927,learn,60000.0,Fri May 09 2025 10:15:59 GMT-0500 (Central Daylight Time),644640.3999999911,A,q,O,q,815,1,832.7000000029802,643807.6999999881,7140,WL,C,2.0
5,5.265000104904175,learn,60000.0,Fri May 09 2025 10:15:59 GMT-0500 (Central Daylight Time),644890.099999994,A,qu,O,u,237,1,1082.4000000059605,643807.6999999881,7140,WL,C,2.0
5,5.499000072479248,learn,60000.0,Fri May 09 2025 10:15:59 GMT-0500 (Central Daylight Time),645123.5,A,que,O,e,220,1,1315.800000011921,643807.6999999881,7140,WL,C,2.0
5,5.682000160217285,learn,60000.0,Fri May 09 2025 10:15:59 GMT-0500 (Central Daylight Time),645306.6999999881,A,quee,O,e,170,1,1499.0,643807.6999999881,7140,WL,C,2.0
5,5.7820000648498535,learn,60000.0,Fri May 09 2025 10:15:59 GMT-0500 (Central Daylight Time),645406.6999999881,A,queen,O,n,92,1,1599.0,643807.6999999881,7140,WL,C,2.0
5,6.249000072479248,learn,60000.0,Fri May 09 2025 10:15:59 GMT-0500 (Central Daylight Time),645873.299999997,A,queenenter,O,enter,456,1,2065.6000000089407,643807.6999999881,7140,WL,C,2.0
5,7.947999954223633,learn,60000.0,Fri May 09 2025 10:15:59 GMT-0500 (Central Daylight Time),647572.8999999911,A,w,O,w,1693,1,1699.2000000029802,645873.6999999881,7140,WL,C,3.0
5,8.13100004196167,learn,60000.0,Fri May 09 2025 10:15:59 GMT-0500 (Central Daylight Time),647756.1999999881,A,wh,O,h,169,1,1882.5,645873.6999999881,7140,WL,C,3.0
5,8.364000082015991,learn,60000.0,Fri May 09 2025 10:15:59 GMT-0500 (Central Daylight Time),647988.3999999911,A,whe,O,e,227,1,2114.7000000029802,645873.6999999881,7140,WL,C,3.0
5,8.531000137329102,learn,60000.0,Fri May 09 2025 10:15:59 GMT-0500 (Central Daylight Time),648155.6999999881,A,whea,O,a,153,1,2282.0,645873.6999999881,7140,WL,C,3.0
5,8.680999994277954,learn,60000.0,Fri May 09 2025 10:15:59 GMT-0500 (Central Daylight Time),648305.599999994,A,wheat,O,t,130,1,2431.9000000059605,645873.6999999881,7140,WL,C,3.0
5,9.147000074386597,learn,60000.0,Fri May 09 2025 10:15:59 GMT-0500 (Central Daylight Time),648772.0,A,wheatenter,O,enter,452,1,2898.300000011921,645873.6999999881,7140,WL,C,3.0
5,9.697999954223633,learn,60000.0,Fri May 09 2025 10:15:59 GMT-0500 (Central Daylight Time),649322.299999997,A,s,O,s,538,1,550.1000000089407,648772.1999999881,7140,WL,C,4.0
5,9.930999994277954,learn,60000.0,Fri May 09 2025 10:15:59 GMT-0500 (Central Daylight Time),649555.3999999911,A,su,O,u,220,1,783.2000000029802,648772.1999999881,7140,WL,C,4.0
5,10.180999994277954,learn,60000.0,Fri May 09 2025 10:15:59 GMT-0500 (Central Daylight Time),649805.3999999911,A,sug,O,g,235,1,1033.2000000029802,648772.1999999881,7140,WL,C,4.0
5,10.29800009727478,learn,60000.0,Fri May 09 2025 10:15:59 GMT-0500 (Central Daylight Time),649922.1999999881,A,suga,O,a,105,1,1150.0,648772.1999999881,7140,WL,C,4.0
5,10.564000129699707,learn,60000.0,Fri May 09 2025 10:15:59 GMT-0500 (Central Daylight Time),650188.6999999881,A,sugar,O,r,252,1,1416.5,648772.1999999881,7140,WL,C,4.0
5,10.897000074386597,learn,60000.0,Fri May 09 2025 10:15:59 GMT-0500 (Central Daylight Time),650521.8999999911,A,sugarenter,O,enter,322,1,1749.7000000029802,648772.1999999881,7140,WL,C,4.0
5,11.54699993133545,learn,60000.0,Fri May 09 2025 10:15:59 GMT-0500 (Central Daylight Time),651171.3999999911,A,h,O,h,645,1,649.2000000029802,650522.1999999881,7140,WL,C,5.0
5,11.763000011444092,learn,60000.0,Fri May 09 2025 10:15:59 GMT-0500 (Central Daylight Time),651388.0,A,ho,O,o,211,1,865.8000000119209,650522.1999999881,7140,WL,C,5.0
5,11.914000034332275,learn,60000.0,Fri May 09 2025 10:15:59 GMT-0500 (Central Daylight Time),651538.299999997,A,hom,O,m,129,1,1016.1000000089407,650522.1999999881,7140,WL,C,5.0
5,12.080000162124634,learn,60000.0,Fri May 09 2025 10:15:59 GMT-0500 (Central Daylight Time),651704.8999999911,A,home,O,e,154,1,1182.7000000029802,650522.1999999881,7140,WL,C,5.0
5,12.496999979019165,learn,60000.0,Fri May 09 2025 10:15:59 GMT-0500 (Central Daylight Time),652121.299999997,A,homeenter,O,enter,406,1,1599.1000000089407,650522.1999999881,7140,WL,C,5.0
5,13.147000074386597,learn,60000.0,Fri May 09 2025 10:15:59 GMT-0500 (Central Daylight Time),652771.3999999911,A,b,O,b,629,1,649.7999999970198,652121.599999994,7140,WL,C,6.0
5,13.396000146865845,learn,60000.0,Fri May 09 2025 10:15:59 GMT-0500 (Central Daylight Time),653021.099999994,A,bo,O,o,243,1,899.5,652121.599999994,7140,WL,C,6.0
5,13.630000114440918,learn,60000.0,Fri May 09 2025 10:15:59 GMT-0500 (Central Daylight Time),653254.1999999881,A,boy,O,y,225,1,1132.5999999940395,652121.599999994,7140,WL,C,6.0
5,14.046000003814697,learn,60000.0,Fri May 09 2025 10:15:59 GMT-0500 (Central Daylight Time),653671.0,A,boyenter,O,enter,400,1,1549.4000000059605,652121.599999994,7140,WL,C,6.0
5,14.51200008392334,learn,60000.0,Fri May 09 2025 10:15:59 GMT-0500 (Central Daylight Time),654137.1999999881,A,d,O,d,448,1,465.8999999910593,653671.299999997,7140,WL,C,7.0
5,14.763000011444092,learn,60000.0,Fri May 09 2025 10:15:59 GMT-0500 (Central Daylight Time),654387.299999997,A,do,O,o,237,1,716.0,653671.299999997,7140,WL,C,7.0
5,14.963000059127808,learn,60000.0,Fri May 09 2025 10:15:59 GMT-0500 (Central Daylight Time),654587.5,A,doc,O,c,179,1,916.2000000029802,653671.299999997,7140,WL,C,7.0
5,15.196000099182129,learn,60000.0,Fri May 09 2025 10:15:59 GMT-0500 (Central Daylight Time),654820.599999994,A,doct,O,t,227,1,1149.2999999970198,653671.299999997,7140,WL,C,7.0
5,15.411999940872192,learn,60000.0,Fri May 09 2025 10:15:59 GMT-0500 (Central Daylight Time),655037.099999994,A,docto,O,o,202,1,1365.7999999970198,653671.299999997,7140,WL,C,7.0
5,15.578999996185303,learn,60000.0,Fri May 09 2025 10:15:59 GMT-0500 (Central Daylight Time),655203.6999999881,A,doctor,O,r,153,1,1532.3999999910593,653671.299999997,7140,WL,C,7.0
5,15.894999980926514,learn,60000.0,Fri May 09 2025 10:15:59 GMT-0500 (Central Daylight Time),655520.1999999881,A,doctorenter,O,enter,299,1,1848.8999999910593,653671.299999997,7140,WL,C,7.0
5,16.295000076293945,learn,60000.0,Fri May 09 2025 10:15:59 GMT-0500 (Central Daylight Time),655920.0,A,c,O,c,390,1,399.5,655520.5,7140,WL,C,8.0
5,16.42900013923645,learn,60000.0,Fri May 09 2025 10:15:59 GMT-0500 (Central Daylight Time),656053.3999999911,A,ca,O,a,127,1,532.8999999910593,655520.5,7140,WL,C,8.0
5,16.59500002861023,learn,60000.0,Fri May 09 2025 10:15:59 GMT-0500 (Central Daylight Time),656219.8999999911,A,cam,O,m,153,1,699.3999999910593,655520.5,7140,WL,C,8.0
5,16.894999980926514,learn,60000.0,Fri May 09 2025 10:15:59 GMT-0500 (Central Daylight Time),656519.8999999911,A,camp,O,p,283,1,999.3999999910593,655520.5,7140,WL,C,8.0
5,17.34500002861023,learn,60000.0,Fri May 09 2025 10:15:59 GMT-0500 (Central Daylight Time),656969.8999999911,A,campenter,O,enter,430,1,1449.3999999910593,655520.5,7140,WL,C,8.0
5,18.061000108718872,learn,60000.0,Fri May 09 2025 10:15:59 GMT-0500 (Central Daylight Time),657686.099999994,A,f,O,f,709,1,715.9000000059605,656970.1999999881,7140,WL,C,9.0
5,18.228000164031982,learn,60000.0,Fri May 09 2025 10:15:59 GMT-0500 (Central Daylight Time),657852.8999999911,A,fl,O,l,152,1,882.7000000029802,656970.1999999881,7140,WL,C,9.0
5,18.460999965667725,learn,60000.0,Fri May 09 2025 10:15:59 GMT-0500 (Central Daylight Time),658086.299999997,A,fla,O,a,226,1,1116.1000000089407,656970.1999999881,7140,WL,C,9.0
5,18.710999965667725,learn,60000.0,Fri May 09 2025 10:15:59 GMT-0500 (Central Daylight Time),658335.8999999911,A,flag,O,g,232,1,1365.7000000029802,656970.1999999881,7140,WL,C,9.0
5,19.261000156402588,learn,60000.0,Fri May 09 2025 10:15:59 GMT-0500 (Central Daylight Time),658885.799999997,A,flagenter,O,enter,542,1,1915.6000000089407,656970.1999999881,7140,WL,C,9.0
5,19.944000005722046,learn,60000.0,Fri May 09 2025 10:15:59 GMT-0500 (Central Daylight Time),659569.0,A,c,O,c,673,1,682.8000000119209,658886.1999999881,7140,WL,C,10.0
5,20.111000061035156,learn,60000.0,Fri May 09 2025 10:15:59 GMT-0500 (Central Daylight Time),659735.5,A,co,O,o,149,1,849.3000000119209,658886.1999999881,7140,WL,C,10.0
5,20.3270001411438,learn,60000.0,Fri May 09 2025 10:15:59 GMT-0500 (Central Daylight Time),659952.099999994,A,cor,O,r,207,1,1065.9000000059605,658886.1999999881,7140,WL,C,10.0
5,20.49399995803833,learn,60000.0,Fri May 09 2025 10:15:59 GMT-0500 (Central Daylight Time),660118.799999997,A,corn,O,n,150,1,1232.6000000089407,658886.1999999881,7140,WL,C,10.0
5,20.97699999809265,learn,60000.0,Fri May 09 2025 10:15:59 GMT-0500 (Central Daylight Time),660602.099999994,A,cornenter,O,enter,464,1,1715.9000000059605,658886.1999999881,7140,WL,C,10.0
5,21.30999994277954,learn,60000.0,Fri May 09 2025 10:15:59 GMT-0500 (Central Daylight Time),660935.1999999881,A,l,O,l,316,1,332.69999998807907,660602.5,7140,WL,C,11.0
5,21.509999990463257,learn,60000.0,Fri May 09 2025 10:15:59 GMT-0500 (Central Daylight Time),661135.0,A,le,O,e,191,1,532.5,660602.5,7140,WL,C,11.0
5,21.693000078201294,learn,60000.0,Fri May 09 2025 10:15:59 GMT-0500 (Central Daylight Time),661318.299999997,A,let,O,t,176,1,715.7999999970198,660602.5,7140,WL,C,11.0
5,21.860000133514404,learn,60000.0,Fri May 09 2025 10:15:59 GMT-0500 (Central Daylight Time),661485.1999999881,A,lett,O,t,152,1,882.6999999880791,660602.5,7140,WL,C,11.0
5,22.092999935150146,learn,60000.0,Fri May 09 2025 10:15:59 GMT-0500 (Central Daylight Time),661718.3999999911,A,lette,O,e,217,1,1115.8999999910593,660602.5,7140,WL,C,11.0
5,22.41000008583069,learn,60000.0,Fri May 09 2025 10:15:59 GMT-0500 (Central Daylight Time),662034.8999999911,A,letter,O,r,312,1,1432.3999999910593,660602.5,7140,WL,C,11.0
5,22.693000078201294,learn,60000.0,Fri May 09 2025 10:15:59 GMT-0500 (Central Daylight Time),662318.0,A,letterenter,O,enter,268,1,1715.5,660602.5,7140,WL,C,11.0
5,23.426000118255615,learn,60000.0,Fri May 09 2025 10:15:59 GMT-0500 (Central Daylight Time),663051.1999999881,A,n,O,n,713,1,732.7999999970198,662318.3999999911,7140,WL,C,12.0
5,23.575999975204468,learn,60000.0,Fri May 09 2025 10:15:59 GMT-0500 (Central Daylight Time),663201.1999999881,A,na,O,a,139,1,882.7999999970198,662318.3999999911,7140,WL,C,12.0
5,23.792999982833862,learn,60000.0,Fri May 09 2025 10:15:59 GMT-0500 (Central Daylight Time),663417.5,A,nai,O,i,196,1,1099.1000000089407,662318.3999999911,7140,WL,C,12.0
5,24.05999994277954,learn,60000.0,Fri May 09 2025 10:15:59 GMT-0500 (Central Daylight Time),663684.3999999911,A,nail,O,l,261,1,1366.0,662318.3999999911,7140,WL,C,12.0
5,24.693000078201294,learn,60000.0,Fri May 09 2025 10:15:59 GMT-0500 (Central Daylight Time),664317.5,A,nailenter,O,enter,626,1,1999.1000000089407,662318.3999999911,7140,WL,C,12.0
5,25.842000007629395,learn,60000.0,Fri May 09 2025 10:15:59 GMT-0500 (Central Daylight Time),665467.099999994,A,s,O,s,1145,1,1149.2999999970198,664317.799999997,7140,WL,C,13.0
5,25.992000102996826,learn,60000.0,Fri May 09 2025 10:15:59 GMT-0500 (Central Daylight Time),665617.0,A,sh,O,h,139,1,1299.2000000029802,664317.799999997,7140,WL,C,13.0
5,26.242000102996826,learn,60000.0,Fri May 09 2025 10:15:59 GMT-0500 (Central Daylight Time),665867.0,A,sho,O,o,229,1,1549.2000000029802,664317.799999997,7140,WL,C,13.0
5,26.442000150680542,learn,60000.0,Fri May 09 2025 10:15:59 GMT-0500 (Central Daylight Time),666066.8999999911,A,shor,O,r,188,1,1749.0999999940395,664317.799999997,7140,WL,C,13.0
5,26.592000007629395,learn,60000.0,Fri May 09 2025 10:15:59 GMT-0500 (Central Daylight Time),666216.8999999911,A,shore,O,e,140,1,1899.0999999940395,664317.799999997,7140,WL,C,13.0
5,26.842000007629395,learn,60000.0,Fri May 09 2025 10:15:59 GMT-0500 (Central Daylight Time),666467.0,A,shoreenter,O,enter,245,1,2149.2000000029802,664317.799999997,7140,WL,C,13.0
5,27.492000102996826,learn,60000.0,Fri May 09 2025 10:15:59 GMT-0500 (Central Daylight Time),667117.1999999881,A,b,O,b,643,1,650.0,666467.1999999881,7140,WL,C,14.0
5,27.70799994468689,learn,60000.0,Fri May 09 2025 10:15:59 GMT-0500 (Central Daylight Time),667333.1999999881,A,bo,O,o,209,1,866.0,666467.1999999881,7140,WL,C,14.0
5,27.942000150680542,learn,60000.0,Fri May 09 2025 10:15:59 GMT-0500 (Central Daylight Time),667566.5,A,bod,O,d,217,1,1099.300000011921,666467.1999999881,7140,WL,C,14.0
5,28.04200005531311,learn,60000.0,Fri May 09 2025 10:15:59 GMT-0500 (Central Daylight Time),667666.599999994,A,body,O,y,88,1,1199.4000000059605,666467.1999999881,7140,WL,C,14.0
5,28.375,learn,60000.0,Fri May 09 2025 10:15:59 GMT-0500 (Central Daylight Time),667999.799999997,A,bodyenter,O,enter,324,1,1532.6000000089407,666467.1999999881,7140,WL,C,14.0
5,29.157999992370605,learn,60000.0,Fri May 09 2025 10:15:59 GMT-0500 (Central Daylight Time),668782.8999999911,A,enter,O,enter,775,1,782.7999999970198,668000.099999994,7140,WL,C,15.0
6,22.89299988746643,distr,37107.00011253357,Fri May 09 2025 10:15:59 GMT-0500 (Central Daylight Time),772800.1999999881,B,t,O,t,22884,1,22892.89999999106,749907.299999997,7140,WL,C,1.0
6,23.210000038146973,distr,36789.99996185303,Fri May 09 2025 10:15:59 GMT-0500 (Central Daylight Time),773117.0,B,to,O,o,309,1,23209.70000000298,749907.299999997,7140,WL,C,1.0
6,23.609999895095825,distr,36390.000104904175,Fri May 09 2025 10:15:59 GMT-0500 (Central Daylight Time),773516.799999997,B,toe,O,e,394,1,23609.5,749907.299999997,7140,WL,C,1.0
6,24.05900001525879,distr,35940.99998474121,Fri May 09 2025 10:15:59 GMT-0500 (Central Daylight Time),773966.599999994,B,to,O,backspace,442,1,24059.29999999702,749907.299999997,7140,WL,C,1.0
6,24.276000022888184,distr,35723.99997711182,Fri May 09 2025 10:15:59 GMT-0500 (Central Daylight Time),774183.0,B,tow,O,w,208,1,24275.70000000298,749907.299999997,7140,WL,C,1.0
6,24.55900001525879,distr,35440.99998474121,Fri May 09 2025 10:15:59 GMT-0500 (Central Daylight Time),774466.299999997,B,towe,O,e,263,1,24559.0,749907.299999997,7140,WL,C,1.0
6,24.792999982833862,distr,35207.00001716614,Fri May 09 2025 10:15:59 GMT-0500 (Central Daylight Time),774699.6999999881,B,tower,O,r,220,1,24792.39999999106,749907.299999997,7140,WL,C,1.0
6,43.519999980926514,distr,16480.000019073486,Fri May 09 2025 10:15:59 GMT-0500 (Central Daylight Time),793427.5,B,towerenter,O,enter,18722,1,43520.20000000298,749907.299999997,7140,WL,C,1.0
6,45.28600001335144,distr,14713.99998664856,Fri May 09 2025 10:15:59 GMT-0500 (Central Daylight Time),795193.1999999881,B,q,O,q,1754,1,1765.3999999910593,793427.799999997,7140,WL,C,2.0
6,45.46900010108948,distr,14530.999898910522,Fri May 09 2025 10:15:59 GMT-0500 (Central Daylight Time),795376.5,B,qu,O,u,173,1,1948.7000000029802,793427.799999997,7140,WL,C,2.0
6,45.71900010108948,distr,14280.999898910522,Fri May 09 2025 10:15:59 GMT-0500 (Central Daylight Time),795626.599999994,B,que,O,e,230,1,2198.7999999970198,793427.799999997,7140,WL,C,2.0
6,45.918999910354614,distr,14081.000089645386,Fri May 09 2025 10:15:59 GMT-0500 (Central Daylight Time),795826.799999997,B,quee,O,e,180,1,2399.0,793427.799999997,7140,WL,C,2.0
6,46.03600001335144,distr,13963.99998664856,Fri May 09 2025 10:15:59 GMT-0500 (Central Daylight Time),795943.1999999881,B,queen,O,n,108,1,2515.3999999910593,793427.799999997,7140,WL,C,2.0
6,46.51900005340576,distr,13480.999946594238,Fri May 09 2025 10:15:59 GMT-0500 (Central Daylight Time),796426.099999994,B,queenenter,O,enter,471,1,2998.2999999970198,793427.799999997,7140,WL,C,2.0
6,47.38499999046326,distr,12615.000009536743,Fri May 09 2025 10:15:59 GMT-0500 (Central Daylight Time),797292.3999999911,B,w,O,w,860,1,865.8999999910593,796426.5,7140,WL,C,3.0
6,47.63499999046326,distr,12365.000009536743,Fri May 09 2025 10:15:59 GMT-0500 (Central Daylight Time),797542.599999994,B,wh,O,h,242,1,1116.0999999940395,796426.5,7140,WL,C,3.0
6,47.88499999046326,distr,12115.000009536743,Fri May 09 2025 10:15:59 GMT-0500 (Central Daylight Time),797792.5,B,whe,O,e,240,1,1366.0,796426.5,7140,WL,C,3.0
6,48.11800003051758,distr,11881.999969482422,Fri May 09 2025 10:15:59 GMT-0500 (Central Daylight Time),798025.8999999911,B,whea,O,a,214,1,1599.3999999910593,796426.5,7140,WL,C,3.0
6,48.26799988746643,distr,11732.00011253357,Fri May 09 2025 10:15:59 GMT-0500 (Central Daylight Time),798175.799999997,B,wheat,O,t,141,1,1749.2999999970198,796426.5,7140,WL,C,3.0
6,48.818000078201294,distr,11181.999921798706,Fri May 09 2025 10:15:59 GMT-0500 (Central Daylight Time),798725.5,B,wheatenter,O,enter,535,1,2299.0,796426.5,7140,WL,C,3.0
6,49.18599987030029,distr,10814.000129699707,Fri May 09 2025 10:15:59 GMT-0500 (Central Daylight Time),799093.1999999881,B,s,O,s,361,1,367.29999999701977,798725.8999999911,7140,WL,C,4.0
6,49.45099997520447,distr,10549.000024795532,Fri May 09 2025 10:15:59 GMT-0500 (Central Daylight Time),799358.799999997,B,su,O,u,257,1,632.9000000059605,798725.8999999911,7140,WL,C,4.0
6,49.68499994277954,distr,10315.000057220459,Fri May 09 2025 10:15:59 GMT-0500 (Central Daylight Time),799592.0,B,sug,O,g,216,1,866.1000000089407,798725.8999999911,7140,WL,C,4.0
6,49.78399991989136,distr,10216.000080108643,Fri May 09 2025 10:15:59 GMT-0500 (Central Daylight Time),799691.599999994,B,suga,O,a,94,1,965.7000000029802,798725.8999999911,7140,WL,C,4.0
6,50.050999879837036,distr,9949.000120162964,Fri May 09 2025 10:15:59 GMT-0500 (Central Daylight Time),799958.3999999911,B,sugar,O,r,250,1,1232.5,798725.8999999911,7140,WL,C,4.0
6,50.28399991989136,distr,9716.000080108643,Fri May 09 2025 10:15:59 GMT-0500 (Central Daylight Time),800191.6999999881,B,sugarenter,O,enter,216,1,1465.7999999970198,798725.8999999911,7140,WL,C,4.0
6,51.18400001525879,distr,8815.999984741211,Fri May 09 2025 10:15:59 GMT-0500 (Central Daylight Time),801091.5,B,h,O,h,895,1,899.5,800192.0,7140,WL,C,5.0
6,51.40000009536743,distr,8599.999904632568,Fri May 09 2025 10:15:59 GMT-0500 (Central Daylight Time),801307.799999997,B,ho,O,o,211,1,1115.7999999970198,800192.0,7140,WL,C,5.0
6,51.550999879837036,distr,8449.000120162964,Fri May 09 2025 10:15:59 GMT-0500 (Central Daylight Time),801458.0,B,hom,O,m,131,1,1266.0,800192.0,7140,WL,C,5.0
6,51.68400001525879,distr,8315.999984741211,Fri May 09 2025 10:15:59 GMT-0500 (Central Daylight Time),801591.099999994,B,home,O,e,116,1,1399.0999999940395,800192.0,7140,WL,C,5.0
6,52.134000062942505,distr,7865.999937057495,Fri May 09 2025 10:15:59 GMT-0500 (Central Daylight Time),802041.299999997,B,homeenter,O,enter,439,1,1849.2999999970198,800192.0,7140,WL,C,5.0
6,53.15000009536743,distr,6849.999904632568,Fri May 09 2025 10:15:59 GMT-0500 (Central Daylight Time),803057.3999999911,B,b,O,b,1005,1,1015.7999999970198,802041.599999994,7140,WL,C,6.0
6,53.43300008773804,distr,6566.999912261963,Fri May 09 2025 10:15:59 GMT-0500 (Central Daylight Time),803340.6999999881,B,bo,O,o,269,1,1299.0999999940395,802041.599999994,7140,WL,C,6.0
6,53.68300008773804,distr,6316.999912261963,Fri May 09 2025 10:15:59 GMT-0500 (Central Daylight Time),803590.599999994,B,boy,O,y,241,1,1549.0,802041.599999994,7140,WL,C,6.0
6,54.40000009536743,distr,5599.999904632568,Fri May 09 2025 10:15:59 GMT-0500 (Central Daylight Time),804307.0,B,boyenter,O,enter,696,1,2265.4000000059605,802041.599999994,7140,WL,C,6.0
6,55.0,distr,5000.0,Fri May 09 2025 10:15:59 GMT-0500 (Central Daylight Time),804906.799999997,B,d,O,d,579,1,599.5,804307.299999997,7140,WL,C,7.0
6,55.21600008010864,distr,4783.999919891357,Fri May 09 2025 10:15:59 GMT-0500 (Central Daylight Time),805123.5,B,do,O,o,195,1,816.2000000029802,804307.299999997,7140,WL,C,7.0
6,55.365999937057495,distr,4634.000062942505,Fri May 09 2025 10:15:59 GMT-0500 (Central Daylight Time),805273.299999997,B,doc,O,c,131,1,966.0,804307.299999997,7140,WL,C,7.0
6,55.549999952316284,distr,4450.000047683716,Fri May 09 2025 10:15:59 GMT-0500 (Central Daylight Time),805457.0,B,doct,O,t,165,1,1149.7000000029802,804307.299999997,7140,WL,C,7.0
6,55.76600003242493,distr,4233.999967575073,Fri May 09 2025 10:15:59 GMT-0500 (Central Daylight Time),805673.299999997,B,docto,O,o,205,1,1366.0,804307.299999997,7140,WL,C,7.0
6,55.93300008773804,distr,4066.999912261963,Fri May 09 2025 10:15:59 GMT-0500 (Central Daylight Time),805840.099999994,B,doctor,O,r,149,1,1532.7999999970198,804307.299999997,7140,WL,C,7.0
6,56.33299994468689,distr,3667.0000553131104,Fri May 09 2025 10:15:59 GMT-0500 (Central Daylight Time),806239.799999997,B,doctorenter,O,enter,390,1,1932.5,804307.299999997,7140,WL,C,7.0
6,59.13199996948242,distr,868.0000305175781,Fri May 09 2025 10:15:59 GMT-0500 (Central Daylight Time),809039.0,B,c,O,c,2791,1,2798.800000011921,806240.1999999881,7140,WL,C,8.0
6,59.264999866485596,distr,735.0001335144043,Fri May 09 2025 10:15:59 GMT-0500 (Central Daylight Time),809172.0,B,ca,O,a,127,1,2931.800000011921,806240.1999999881,7140,WL,C,8.0
6,59.41499996185303,distr,585.0000381469727,Fri May 09 2025 10:15:59 GMT-0500 (Central Daylight Time),809322.099999994,B,cam,O,m,131,1,3081.9000000059605,806240.1999999881,7140,WL,C,8.0
6,59.664000034332275,distr,335.9999656677246,Fri May 09 2025 10:15:59 GMT-0500 (Central Daylight Time),809571.799999997,B,camp,O,p,244,1,3331.6000000089407,806240.1999999881,7140,WL,C,8.0
6,59.99799990653992,distr,2.000093460083008,Fri May 09 2025 10:15:59 GMT-0500 (Central Daylight Time),809905.299999997,B,campenter,O,enter,315,1,3665.1000000089407,806240.1999999881,7140,WL,C,8.0
6,60.014999866485596,distr,-14.999866485595703,Fri May 09 2025 10:15:59 GMT-0500 (Central Daylight Time),809922.1999999881,B,None,O,None,11,1,16.69999998807907,809905.5,7140,WL,C,9.0
7,2.065999984741211,immed,57934.00001525879,Fri May 09 2025 10:15:59 GMT-0500 (Central Daylight Time),943163.799999997,A,t,O,t,2061,1,2066.0,941097.799999997,7140,WL,C,1.0
7,2.3489999771118164,immed,57651.00002288818,Fri May 09 2025 10:15:59 GMT-0500 (Central Daylight Time),943447.0,A,to,O,o,266,1,2349.2000000029802,941097.799999997,7140,WL,C,1.0
7,2.682000160217285,immed,57317.999839782715,Fri May 09 2025 10:15:59 GMT-0500 (Central Daylight Time),943779.8999999911,A,tow,O,w,327,1,2682.0999999940395,941097.799999997,7140,WL,C,1.0
7,2.9160001277923584,immed,57083.99987220764,Fri May 09 2025 10:15:59 GMT-0500 (Central Daylight Time),944013.3999999911,A,towe,O,e,227,1,2915.5999999940395,941097.799999997,7140,WL,C,1.0
7,3.1490001678466797,immed,56850.99983215332,Fri May 09 2025 10:15:59 GMT-0500 (Central Daylight Time),944246.599999994,A,tower,O,r,217,1,3148.7999999970198,941097.799999997,7140,WL,C,1.0
7,3.7320001125335693,immed,56267.99988746643,Fri May 09 2025 10:15:59 GMT-0500 (Central Daylight Time),944829.8999999911,A,towerenter,O,enter,567,1,3732.0999999940395,941097.799999997,7140,WL,C,1.0
7,4.482000112533569,immed,55517.99988746643,Fri May 09 2025 10:15:59 GMT-0500 (Central Daylight Time),945579.6999999881,A,q,O,q,729,1,749.5999999940395,944830.099999994,7140,WL,C,2.0
7,4.7820000648498535,immed,55217.99993515015,Fri May 09 2025 10:15:59 GMT-0500 (Central Daylight Time),945879.3999999911,A,qu,O,u,283,1,1049.2999999970198,944830.099999994,7140,WL,C,2.0
7,4.999000072479248,immed,55000.99992752075,Fri May 09 2025 10:15:59 GMT-0500 (Central Daylight Time),946096.299999997,A,que,O,e,199,1,1266.2000000029802,944830.099999994,7140,WL,C,2.0
7,5.632000207901001,immed,54367.999792099,Fri May 09 2025 10:15:59 GMT-0500 (Central Daylight Time),946729.099999994,A,quee,O,e,622,1,1899.0,944830.099999994,7140,WL,C,2.0
7,5.898000001907349,immed,54101.99999809265,Fri May 09 2025 10:15:59 GMT-0500 (Central Daylight Time),946995.6999999881,A,queen,O,n,253,1,2165.5999999940395,944830.099999994,7140,WL,C,2.0
7,6.332000017166138,immed,53667.99998283386,Fri May 09 2025 10:15:59 GMT-0500 (Central Daylight Time),947429.099999994,A,queenenter,O,enter,427,1,2599.0,944830.099999994,7140,WL,C,2.0
7,7.231000185012817,immed,52768.99981498718,Fri May 09 2025 10:15:59 GMT-0500 (Central Daylight Time),948328.799999997,A,s,O,s,889,1,899.4000000059605,947429.3999999911,7140,WL,C,3.0
7,7.54800009727478,immed,52451.99990272522,Fri May 09 2025 10:15:59 GMT-0500 (Central Daylight Time),948645.1999999881,A,su,O,u,309,1,1215.7999999970198,947429.3999999911,7140,WL,C,3.0
7,7.8470001220703125,immed,52152.99987792969,Fri May 09 2025 10:15:59 GMT-0500 (Central Daylight Time),948945.0,A,sug,O,g,281,1,1515.6000000089407,947429.3999999911,7140,WL,C,3.0
7,7.981000185012817,immed,52018.99981498718,Fri May 09 2025 10:15:59 GMT-0500 (Central Daylight Time),949078.5,A,suga,O,a,117,1,1649.1000000089407,947429.3999999911,7140,WL,C,3.0
7,8.281000137329102,immed,51718.9998626709,Fri May 09 2025 10:15:59 GMT-0500 (Central Daylight Time),949378.5,A,sugar,O,r,288,1,1949.1000000089407,947429.3999999911,7140,WL,C,3.0
7,9.44700002670288,immed,50552.99997329712,Fri May 09 2025 10:15:59 GMT-0500 (Central Daylight Time),950544.599999994,A,sugarenter,O,enter,1148,1,3115.2000000029802,947429.3999999911,7140,WL,C,3.0
7,10.164000034332275,immed,49835.999965667725,Fri May 09 2025 10:15:59 GMT-0500 (Central Daylight Time),951261.299999997,A,w,O,w,710,1,716.4000000059605,950544.8999999911,7140,WL,C,4.0
7,10.380000114440918,immed,49619.99988555908,Fri May 09 2025 10:15:59 GMT-0500 (Central Daylight Time),951477.599999994,A,wh,O,h,201,1,932.7000000029802,950544.8999999911,7140,WL,C,4.0
7,10.514000177383423,immed,49485.99982261658,Fri May 09 2025 10:15:59 GMT-0500 (Central Daylight Time),951611.1999999881,A,whe,O,e,129,1,1066.2999999970198,950544.8999999911,7140,WL,C,4.0
7,10.78000020980835,immed,49219.99979019165,Fri May 09 2025 10:15:59 GMT-0500 (Central Daylight Time),951877.599999994,A,whea,O,a,251,1,1332.7000000029802,950544.8999999911,7140,WL,C,4.0
7,10.897000074386597,immed,49102.9999256134,Fri May 09 2025 10:15:59 GMT-0500 (Central Daylight Time),951994.1999999881,A,wheat,O,t,97,1,1449.2999999970198,950544.8999999911,7140,WL,C,4.0
7,11.36300015449524,immed,48636.99984550476,Fri May 09 2025 10:15:59 GMT-0500 (Central Daylight Time),952460.799999997,A,wheatenter,O,enter,452,1,1915.9000000059605,950544.8999999911,7140,WL,C,4.0
7,12.11300015449524,immed,47886.99984550476,Fri May 09 2025 10:15:59 GMT-0500 (Central Daylight Time),953210.599999994,A,h,O,h,737,1,749.5,952461.099999994,7140,WL,C,5.0
7,12.330000162124634,immed,47669.999837875366,Fri May 09 2025 10:15:59 GMT-0500 (Central Daylight Time),953427.099999994,A,ho,O,o,204,1,966.0,952461.099999994,7140,WL,C,5.0
7,12.463000059127808,immed,47536.99994087219,Fri May 09 2025 10:15:59 GMT-0500 (Central Daylight Time),953560.1999999881,A,hom,O,m,115,1,1099.0999999940395,952461.099999994,7140,WL,C,5.0
7,12.61300015449524,immed,47386.99984550476,Fri May 09 2025 10:15:59 GMT-0500 (Central Daylight Time),953710.3999999911,A,home,O,e,134,1,1249.2999999970198,952461.099999994,7140,WL,C,5.0
7,13.058000087738037,immed,46941.99991226196,Fri May 09 2025 10:15:59 GMT-0500 (Central Daylight Time),954155.3999999911,A,homeenter,O,enter,440,1,1694.2999999970198,952461.099999994,7140,WL,C,5.0
7,13.84600019454956,immed,46153.99980545044,Fri May 09 2025 10:15:59 GMT-0500 (Central Daylight Time),954943.3999999911,A,b,O,b,771,1,787.7000000029802,954155.6999999881,7140,WL,C,6.0
7,14.111999988555908,immed,45888.00001144409,Fri May 09 2025 10:15:59 GMT-0500 (Central Daylight Time),955210.0,A,bo,O,o,247,1,1054.300000011921,954155.6999999881,7140,WL,C,6.0
7,14.296000003814697,immed,45703.9999961853,Fri May 09 2025 10:15:59 GMT-0500 (Central Daylight Time),955393.1999999881,A,boy,O,y,164,1,1237.5,954155.6999999881,7140,WL,C,6.0
7,14.729000091552734,immed,45270.999908447266,Fri May 09 2025 10:15:59 GMT-0500 (Central Daylight Time),955826.1999999881,A,boyenter,O,enter,413,1,1670.5,954155.6999999881,7140,WL,C,6.0
7,15.611999988555908,immed,44388.00001144409,Fri May 09 2025 10:15:59 GMT-0500 (Central Daylight Time),956709.299999997,A,d,O,d,868,1,882.7000000029802,955826.599999994,7140,WL,C,7.0
7,15.795000076293945,immed,44204.999923706055,Fri May 09 2025 10:15:59 GMT-0500 (Central Daylight Time),956892.8999999911,A,do,O,o,177,1,1066.2999999970198,955826.599999994,7140,WL,C,7.0
7,15.976999998092651,immed,44023.00000190735,Fri May 09 2025 10:15:59 GMT-0500 (Central Daylight Time),957075.799999997,A,doc,O,c,178,1,1249.2000000029802,955826.599999994,7140,WL,C,7.0
7,16.194000005722046,immed,43805.999994277954,Fri May 09 2025 10:15:59 GMT-0500 (Central Daylight Time),957292.599999994,A,doct,O,t,203,1,1466.0,955826.599999994,7140,WL,C,7.0
7,17.06000018119812,immed,42939.99981880188,Fri May 09 2025 10:15:59 GMT-0500 (Central Daylight Time),958159.0,A,docto,O,o,850,1,2332.4000000059605,955826.599999994,7140,WL,C,7.0
7,17.24400019645691,immed,42755.99980354309,Fri May 09 2025 10:15:59 GMT-0500 (Central Daylight Time),958342.5,A,doctor,O,r,168,1,2515.9000000059605,955826.599999994,7140,WL,C,7.0
7,17.526000022888184,immed,42473.99997711182,Fri May 09 2025 10:15:59 GMT-0500 (Central Daylight Time),958625.1999999881,A,doctorenter,O,enter,272,1,2798.5999999940395,955826.599999994,7140,WL,C,7.0
7,18.193000078201294,immed,41806.999921798706,Fri May 09 2025 10:15:59 GMT-0500 (Central Daylight Time),959292.0,A,c,O,c,661,1,666.5,958625.5,7140,WL,C,8.0
7,18.31000018119812,immed,41689.99981880188,Fri May 09 2025 10:15:59 GMT-0500 (Central Daylight Time),959408.5,A,ca,O,a,98,1,783.0,958625.5,7140,WL,C,8.0
7,18.460000038146973,immed,41539.99996185303,Fri May 09 2025 10:15:59 GMT-0500 (Central Daylight Time),959558.599999994,A,cam,O,m,142,1,933.0999999940395,958625.5,7140,WL,C,8.0
7,18.759999990463257,immed,41240.00000953674,Fri May 09 2025 10:15:59 GMT-0500 (Central Daylight Time),959858.3999999911,A,camp,O,p,280,1,1232.8999999910593,958625.5,7140,WL,C,8.0
7,19.261000156402588,immed,40738.99984359741,Fri May 09 2025 10:15:59 GMT-0500 (Central Daylight Time),960359.6999999881,A,campenter,O,enter,492,1,1734.199999988079,958625.5,7140,WL,C,8.0
7,20.2260000705719,immed,39773.9999294281,Fri May 09 2025 10:15:59 GMT-0500 (Central Daylight Time),961324.6999999881,A,f,O,f,959,1,964.6999999880791,960360.0,7140,WL,C,9.0
7,20.37600016593933,immed,39623.99983406067,Fri May 09 2025 10:15:59 GMT-0500 (Central Daylight Time),961474.599999994,A,fl,O,l,130,1,1114.5999999940395,960360.0,7140,WL,C,9.0
7,20.592000007629395,immed,39407.999992370605,Fri May 09 2025 10:15:59 GMT-0500 (Central Daylight Time),961691.1999999881,A,fla,O,a,204,1,1331.199999988079,960360.0,7140,WL,C,9.0
7,20.825000047683716,immed,39174.999952316284,Fri May 09 2025 10:15:59 GMT-0500 (Central Daylight Time),961924.3999999911,A,flag,O,g,219,1,1564.3999999910593,960360.0,7140,WL,C,9.0
7,21.30900001525879,immed,38690.99998474121,Fri May 09 2025 10:15:59 GMT-0500 (Central Daylight Time),962407.6999999881,A,flagenter,O,enter,466,1,2047.699999988079,960360.0,7140,WL,C,9.0
7,22.475000143051147,immed,37524.99985694885,Fri May 09 2025 10:15:59 GMT-0500 (Central Daylight Time),963574.099999994,A,l,O,l,1151,1,1166.2000000029802,962407.8999999911,7140,WL,C,10.0
7,22.659000158309937,immed,37340.99984169006,Fri May 09 2025 10:15:59 GMT-0500 (Central Daylight Time),963757.3999999911,A,le,O,e,176,1,1349.5,962407.8999999911,7140,WL,C,10.0
7,22.825000047683716,immed,37174.999952316284,Fri May 09 2025 10:15:59 GMT-0500 (Central Daylight Time),963923.8999999911,A,let,O,t,153,1,1516.0,962407.8999999911,7140,WL,C,10.0
7,22.992000102996826,immed,37007.999897003174,Fri May 09 2025 10:15:59 GMT-0500 (Central Daylight Time),964090.3999999911,A,lett,O,t,147,1,1682.5,962407.8999999911,7140,WL,C,10.0
7,23.125,immed,36875.0,Fri May 09 2025 10:15:59 GMT-0500 (Central Daylight Time),964223.6999999881,A,lette,O,e,124,1,1815.7999999970198,962407.8999999911,7140,WL,C,10.0
7,23.341000080108643,immed,36658.99991989136,Fri May 09 2025 10:15:59 GMT-0500 (Central Daylight Time),964440.1999999881,A,letter,O,r,207,1,2032.2999999970198,962407.8999999911,7140,WL,C,10.0
7,23.575000047683716,immed,36424.999952316284,Fri May 09 2025 10:15:59 GMT-0500 (Central Daylight Time),964673.599999994,A,letterenter,O,enter,214,1,2265.7000000029802,962407.8999999911,7140,WL,C,10.0
7,24.04100012779236,immed,35958.99987220764,Fri May 09 2025 10:15:59 GMT-0500 (Central Daylight Time),965140.299999997,A,c,O,c,453,1,466.40000000596046,964673.8999999911,7140,WL,C,11.0
7,24.27400016784668,immed,35725.99983215332,Fri May 09 2025 10:15:59 GMT-0500 (Central Daylight Time),965373.1999999881,A,co,O,o,218,1,699.2999999970198,964673.8999999911,7140,WL,C,11.0
7,24.44099998474121,immed,35559.00001525879,Fri May 09 2025 10:15:59 GMT-0500 (Central Daylight Time),965539.799999997,A,cor,O,r,161,1,865.9000000059605,964673.8999999911,7140,WL,C,11.0
7,24.625,immed,35375.0,Fri May 09 2025 10:15:59 GMT-0500 (Central Daylight Time),965723.3999999911,A,corn,O,n,179,1,1049.5,964673.8999999911,7140,WL,C,11.0
7,25.125,immed,34875.0,Fri May 09 2025 10:15:59 GMT-0500 (Central Daylight Time),966223.299999997,A,cornenter,O,enter,483,1,1549.4000000059605,964673.8999999911,7140,WL,C,11.0
7,31.08899998664856,immed,28911.00001335144,Fri May 09 2025 10:15:59 GMT-0500 (Central Daylight Time),972188.0,A,n,O,n,5951,1,5964.300000011921,966223.6999999881,7140,WL,C,12.0
7,31.23900008201599,immed,28760.99991798401,Fri May 09 2025 10:15:59 GMT-0500 (Central Daylight Time),972338.099999994,A,na,O,a,138,1,6114.4000000059605,966223.6999999881,7140,WL,C,12.0
7,31.356000185012817,immed,28643.999814987183,Fri May 09 2025 10:15:59 GMT-0500 (Central Daylight Time),972454.3999999911,A,nai,O,i,108,1,6230.70000000298,966223.6999999881,7140,WL,C,12.0
7,31.57200002670288,immed,28427.99997329712,Fri May 09 2025 10:15:59 GMT-0500 (Central Daylight Time),972671.299999997,A,nail,O,l,208,1,6447.600000008941,966223.6999999881,7140,WL,C,12.0
7,31.90500020980835,immed,28094.99979019165,Fri May 09 2025 10:15:59 GMT-0500 (Central Daylight Time),973004.099999994,A,nailenter,O,enter,327,1,6780.4000000059605,966223.6999999881,7140,WL,C,12.0
7,32.72200012207031,immed,27277.999877929688,Fri May 09 2025 10:15:59 GMT-0500 (Central Daylight Time),973820.799999997,A,c,O,c,811,1,816.5,973004.299999997,7140,WL,C,13.0
7,33.07200002670288,immed,26927.99997329712,Fri May 09 2025 10:15:59 GMT-0500 (Central Daylight Time),974170.599999994,A,ca,O,a,337,1,1166.2999999970198,973004.299999997,7140,WL,C,13.0
7,33.40500020980835,immed,26594.99979019165,Fri May 09 2025 10:15:59 GMT-0500 (Central Daylight Time),974503.799999997,A,cat,O,t,324,1,1499.5,973004.299999997,7140,WL,C,13.0
7,33.63800001144409,immed,26361.99998855591,Fri May 09 2025 10:15:59 GMT-0500 (Central Daylight Time),974737.1999999881,A,catl,O,l,222,1,1732.8999999910593,973004.299999997,7140,WL,C,13.0
7,33.8050000667572,immed,26194.999933242798,Fri May 09 2025 10:15:59 GMT-0500 (Central Daylight Time),974903.8999999911,A,catll,O,l,149,1,1899.5999999940395,973004.299999997,7140,WL,C,13.0
7,34.50500011444092,immed,25494.999885559082,Fri May 09 2025 10:15:59 GMT-0500 (Central Daylight Time),975603.6999999881,A,catl,O,backspace,680,1,2599.3999999910593,973004.299999997,7140,WL,C,13.0
7,34.63800001144409,immed,25361.99998855591,Fri May 09 2025 10:15:59 GMT-0500 (Central Daylight Time),975736.8999999911,A,cat,O,backspace,123,1,2732.5999999940395,973004.299999997,7140,WL,C,13.0
7,36.05400013923645,immed,23945.99986076355,Fri May 09 2025 10:15:59 GMT-0500 (Central Daylight Time),977153.299999997,A,catt,O,t,1397,1,4149.0,973004.299999997,7140,WL,C,13.0
7,36.254000186920166,immed,23745.999813079834,Fri May 09 2025 10:15:59 GMT-0500 (Central Daylight Time),977353.0,A,cattl,O,l,181,1,4348.70000000298,973004.299999997,7140,WL,C,13.0
7,36.4210000038147,immed,23578.999996185303,Fri May 09 2025 10:15:59 GMT-0500 (Central Daylight Time),977519.599999994,A,cattle,O,e,149,1,4515.29999999702,973004.299999997,7140,WL,C,13.0
7,36.769999980926514,immed,23230.000019073486,Fri May 09 2025 10:15:59 GMT-0500 (Central Daylight Time),977869.0,A,cattleenter,O,enter,327,1,4864.70000000298,973004.299999997,7140,WL,C,13.0
7,38.65300011634827,immed,21346.999883651733,Fri May 09 2025 10:15:59 GMT-0500 (Central Daylight Time),979752.3999999911,A,b,O,b,1873,1,1883.2000000029802,977869.1999999881,7140,WL,C,14.0
7,38.920000076293945,immed,21079.999923706055,Fri May 09 2025 10:15:59 GMT-0500 (Central Daylight Time),980018.799999997,A,bo,O,o,246,1,2149.6000000089407,977869.1999999881,7140,WL,C,14.0
7,39.187000036239624,immed,20812.999963760376,Fri May 09 2025 10:15:59 GMT-0500 (Central Daylight Time),980285.3999999911,A,bod,O,d,260,1,2416.2000000029802,977869.1999999881,7140,WL,C,14.0
7,39.336000204086304,immed,20663.999795913696,Fri May 09 2025 10:15:59 GMT-0500 (Central Daylight Time),980435.299999997,A,body,O,y,145,1,2566.1000000089407,977869.1999999881,7140,WL,C,14.0
7,40.13600015640259,immed,19863.999843597412,Fri May 09 2025 10:15:59 GMT-0500 (Central Daylight Time),981235.099999994,A,bodyenter,O,enter,787,1,3365.9000000059605,977869.1999999881,7140,WL,C,14.0
7,40.71900010108948,immed,19280.999898910522,Fri May 09 2025 10:15:59 GMT-0500 (Central Daylight Time),981818.1999999881,A,s,O,s,571,1,582.6999999880791,981235.5,7140,WL,C,15.0
7,40.91900014877319,immed,19080.999851226807,Fri May 09 2025 10:15:59 GMT-0500 (Central Daylight Time),982018.099999994,A,sh,O,h,188,1,782.5999999940395,981235.5,7140,WL,C,15.0
7,41.11900019645691,immed,18880.99980354309,Fri May 09 2025 10:15:59 GMT-0500 (Central Daylight Time),982218.299999997,A,sho,O,o,180,1,982.7999999970198,981235.5,7140,WL,C,15.0
7,41.26900005340576,immed,18730.99994659424,Fri May 09 2025 10:15:59 GMT-0500 (Central Daylight Time),982368.1999999881,A,shor,O,r,140,1,1132.699999988079,981235.5,7140,WL,C,15.0
7,41.38600015640259,immed,18613.999843597412,Fri May 09 2025 10:15:59 GMT-0500 (Central Daylight Time),982484.6999999881,A,shore,O,e,110,1,1249.199999988079,981235.5,7140,WL,C,15.0
7,41.75200009346008,immed,18247.999906539917,Fri May 09 2025 10:15:59 GMT-0500 (Central Daylight Time),982851.1999999881,A,shoreenter,O,enter,346,1,1615.699999988079,981235.5,7140,WL,C,15.0
