acc_sum,block,block_c,change,condition,correct,correct_response,datetime,endtime,face,project,response,response_time,row_sel,session_number,start_end,starttime,subject_id,task,task_vers,trial
0,prac,1,,1-Back,,,Mon Jul 21 2025 17:08:05 GMT-0500 (Central Daylight Time),,012_o_f_d_a.png,O,space,10859,1,1,,,7182,VNB,C,0
1,prac,1,0.0,1-Back,1.0,m,Mon Jul 21 2025 17:08:05 GMT-0500 (Central Daylight Time),139861.20000001788,022_y_f_n_a.png,O,m,1419,2,1,2347.300000011921,137513.90000000596,7182,VNB,C,1
1,prac,1,0.0,1-Back,0.0,m,Mon Jul 21 2025 17:08:05 GMT-0500 (Central Daylight Time),141843.40000000596,014_m_m_h_a.png,O,z,1050,3,1,1953.699999988079,139889.70000001788,7182,VNB,C,2
1,prac,1,0.0,1-Back,0.0,m,Mon Jul 21 2025 17:08:05 GMT-0500 (Central Daylight Time),144792.40000000596,025_y_m_d_a.png,O,None,2011,4,1,2912.9000000059605,141879.5,7182,VNB,C,3
2,prac,1,0.0,1-Back,1.0,m,Mon Jul 21 2025 17:08:05 GMT-0500 (Central Daylight Time),147041.90000000596,012_o_f_n_a.png,O,m,1290,5,1,2219.300000011921,144822.59999999404,7182,VNB,C,4
2,prac,1,1.0,1-Back,0.0,z,Mon Jul 21 2025 17:08:05 GMT-0500 (Central Daylight Time),149507.70000001788,025_y_m_n_a.png,O,m,1533,6,1,2432.9000000059605,147074.80000001192,7182,VNB,C,5
3,prac,1,0.0,1-Back,1.0,m,Mon Jul 21 2025 17:08:05 GMT-0500 (Central Daylight Time),151890.40000000596,015_o_m_h_a.png,O,m,1406,7,1,2342.5999999940395,149547.80000001192,7182,VNB,C,6
3,prac,1,0.0,1-Back,0.0,m,Mon Jul 21 2025 17:08:05 GMT-0500 (Central Daylight Time),153723.09999999404,019_m_f_d_a.png,O,z,852,8,1,1787.7999999821186,151935.30000001192,7182,VNB,C,7
3,prac,1,1.0,1-Back,0.0,z,Mon Jul 21 2025 17:08:05 GMT-0500 (Central Daylight Time),156139.09999999404,022_y_f_d_a.png,O,m,1438,9,1,2377.699999988079,153761.40000000596,7182,VNB,C,8
3,prac,1,0.0,1-Back,0.0,m,Mon Jul 21 2025 17:08:05 GMT-0500 (Central Daylight Time),159087.90000000596,014_m_m_n_a.png,O,None,2015,10,1,2917.800000011921,156170.09999999404,7182,VNB,C,9
3,prac,1,0.0,1-Back,0.0,m,Mon Jul 21 2025 17:08:05 GMT-0500 (Central Daylight Time),162070.09999999404,012_o_f_h_a.png,O,None,2016,11,1,2942.5,159127.59999999404,7182,VNB,C,10
4,prac,1,0.0,1-Back,1.0,m,Mon Jul 21 2025 17:08:05 GMT-0500 (Central Daylight Time),164503.0,025_y_m_d_a.png,O,m,1484,12,1,2397.199999988079,162105.80000001192,7182,VNB,C,11
0,prac,2,0.0,1-Back,,,Mon Jul 21 2025 17:08:05 GMT-0500 (Central Daylight Time),164503.0,012_o_f_d_a.png,O,a,14729,1,1,2397.199999988079,162105.80000001192,7182,VNB,C,0
1,prac,2,0.0,1-Back,1.0,m,Mon Jul 21 2025 17:08:05 GMT-0500 (Central Daylight Time),185263.0,022_y_f_n_a.png,O,m,1975,2,1,2914.5999999940395,182348.40000000596,7182,VNB,C,1
1,prac,2,0.0,1-Back,0.0,m,Mon Jul 21 2025 17:08:05 GMT-0500 (Central Daylight Time),187245.30000001192,014_m_m_h_a.png,O,z,1025,3,1,1942.9000000059605,185302.40000000596,7182,VNB,C,2
2,prac,2,0.0,1-Back,1.0,m,Mon Jul 21 2025 17:08:05 GMT-0500 (Central Daylight Time),189578.5,025_y_m_d_a.png,O,m,1386,4,1,2299.699999988079,187278.80000001192,7182,VNB,C,3
3,prac,2,0.0,1-Back,1.0,m,Mon Jul 21 2025 17:08:05 GMT-0500 (Central Daylight Time),191793.90000000596,012_o_f_n_a.png,O,m,1260,5,1,2187.9000000059605,189606.0,7182,VNB,C,4
3,prac,2,1.0,1-Back,0.0,z,Mon Jul 21 2025 17:08:05 GMT-0500 (Central Daylight Time),194326.70000001788,025_y_m_n_a.png,O,m,1593,6,1,2503.7000000178814,191823.0,7182,VNB,C,5
4,prac,2,0.0,1-Back,1.0,m,Mon Jul 21 2025 17:08:05 GMT-0500 (Central Daylight Time),196309.5,015_o_m_h_a.png,O,m,1003,7,1,1941.7999999821186,194367.70000001788,7182,VNB,C,6
5,prac,2,0.0,1-Back,1.0,m,Mon Jul 21 2025 17:08:05 GMT-0500 (Central Daylight Time),198258.5,019_m_f_d_a.png,O,m,954,8,1,1909.199999988079,196349.30000001192,7182,VNB,C,7
6,prac,2,1.0,1-Back,1.0,z,Mon Jul 21 2025 17:08:05 GMT-0500 (Central Daylight Time),200474.40000000596,022_y_f_d_a.png,O,z,1248,9,1,2180.5999999940395,198293.80000001192,7182,VNB,C,8
7,prac,2,0.0,1-Back,1.0,m,Mon Jul 21 2025 17:08:05 GMT-0500 (Central Daylight Time),202724.09999999404,014_m_m_n_a.png,O,m,1303,10,1,2208.7999999821186,200515.30000001192,7182,VNB,C,9
7,prac,2,0.0,1-Back,0.0,m,Mon Jul 21 2025 17:08:05 GMT-0500 (Central Daylight Time),204756.30000001192,012_o_f_h_a.png,O,z,1063,11,1,1989.9000000059605,202766.40000000596,7182,VNB,C,10
8,prac,2,0.0,1-Back,1.0,m,Mon Jul 21 2025 17:08:05 GMT-0500 (Central Daylight Time),207272.0,025_y_m_d_a.png,O,m,1572,12,1,2481.7999999821186,204790.20000001788,7182,VNB,C,11
0,test,1,0.0,1-Back,,,Mon Jul 21 2025 17:08:05 GMT-0500 (Central Daylight Time),207272.0,022_y_f_d_a.png,O,space,14840,1,1,2481.7999999821186,204790.20000001788,7182,VNB,C,0
0,test,1,0.0,1-Back,0.0,m,Mon Jul 21 2025 17:08:05 GMT-0500 (Central Daylight Time),236445.59999999404,019_m_f_n_a.png,O,z,1297,2,1,2311.699999988079,234133.90000000596,7182,VNB,C,1
1,test,1,0.0,1-Back,1.0,m,Mon Jul 21 2025 17:08:05 GMT-0500 (Central Daylight Time),239411.70000001788,015_o_m_h_a.png,O,m,1917,3,1,2938.2000000178814,236473.5,7182,VNB,C,2
2,test,1,1.0,1-Back,1.0,z,Mon Jul 21 2025 17:08:05 GMT-0500 (Central Daylight Time),242227.40000000596,014_m_m_h_a.png,O,z,1776,4,1,2786.9000000059605,239440.5,7182,VNB,C,3
3,test,1,0.0,1-Back,1.0,m,Mon Jul 21 2025 17:08:05 GMT-0500 (Central Daylight Time),244376.5,012_o_f_n_a.png,O,m,1094,5,1,2117.699999988079,242258.80000001192,7182,VNB,C,4
4,test,1,0.0,1-Back,1.0,m,Mon Jul 21 2025 17:08:05 GMT-0500 (Central Daylight Time),247075.70000001788,025_y_m_d_a.png,O,m,1634,6,1,2668.7000000178814,244407.0,7182,VNB,C,5
5,test,1,1.0,1-Back,1.0,z,Mon Jul 21 2025 17:08:05 GMT-0500 (Central Daylight Time),249258.30000001192,019_m_f_d_a.png,O,z,1127,7,1,2144.9000000059605,247113.40000000596,7182,VNB,C,6
6,test,1,0.0,1-Back,1.0,m,Mon Jul 21 2025 17:08:05 GMT-0500 (Central Daylight Time),251307.70000001788,022_y_f_h_a.png,O,m,1013,8,1,2021.2000000178814,249286.5,7182,VNB,C,7
7,test,1,0.0,1-Back,1.0,m,Mon Jul 21 2025 17:08:05 GMT-0500 (Central Daylight Time),253923.40000000596,015_o_m_n_a.png,O,m,1576,9,1,2591.4000000059605,251332.0,7182,VNB,C,8
8,test,1,0.0,1-Back,1.0,m,Mon Jul 21 2025 17:08:05 GMT-0500 (Central Daylight Time),256821.80000001192,025_y_m_h_a.png,O,m,1855,10,1,2868.4000000059605,253953.40000000596,7182,VNB,C,9
9,test,1,0.0,1-Back,1.0,m,Mon Jul 21 2025 17:08:05 GMT-0500 (Central Daylight Time),258922.0,015_o_m_d_a.png,O,m,1068,11,1,2092.5999999940395,256829.40000000596,7182,VNB,C,10
10,test,1,1.0,1-Back,1.0,z,Mon Jul 21 2025 17:08:05 GMT-0500 (Central Daylight Time),261320.80000001192,012_o_f_d_a.png,O,z,1360,12,1,2369.0,258951.80000001192,7182,VNB,C,11
11,test,1,0.0,1-Back,1.0,m,Mon Jul 21 2025 17:08:05 GMT-0500 (Central Daylight Time),263720.3000000119,014_m_m_n_a.png,O,m,1337,13,1,2368.5,261351.80000001192,7182,VNB,C,12
12,test,1,1.0,1-Back,1.0,z,Mon Jul 21 2025 17:08:05 GMT-0500 (Central Daylight Time),266036.09999999404,022_y_f_n_a.png,O,z,1276,14,1,2286.0999999940395,263750.0,7182,VNB,C,13
13,test,1,0.0,1-Back,1.0,m,Mon Jul 21 2025 17:08:05 GMT-0500 (Central Daylight Time),268085.40000000596,019_m_f_h_a.png,O,m,990,15,1,2017.5999999940395,266067.8000000119,7182,VNB,C,14
13,test,1,0.0,1-Back,0.0,m,Mon Jul 21 2025 17:08:05 GMT-0500 (Central Daylight Time),270151.40000000596,014_m_m_d_a.png,O,z,1029,16,1,2039.199999988079,268112.2000000179,7182,VNB,C,15
14,test,1,0.0,1-Back,1.0,m,Mon Jul 21 2025 17:08:05 GMT-0500 (Central Daylight Time),272550.7000000179,025_y_m_n_a.png,O,m,1347,17,1,2365.600000023842,270185.09999999404,7182,VNB,C,16
15,test,1,0.0,1-Back,1.0,m,Mon Jul 21 2025 17:08:05 GMT-0500 (Central Daylight Time),275033.3000000119,012_o_f_h_a.png,O,m,1419,18,1,2450.9000000059605,272582.40000000596,7182,VNB,C,17
0,test,2,0.0,1-Back,,,Mon Jul 21 2025 17:08:05 GMT-0500 (Central Daylight Time),275033.3000000119,025_y_m_n_a.png,O,space,1594,1,1,2450.9000000059605,272582.40000000596,7182,VNB,C,0
1,test,2,0.0,1-Back,1.0,m,Mon Jul 21 2025 17:08:05 GMT-0500 (Central Daylight Time),280748.0,022_y_f_h_a.png,O,m,1041,2,1,2067.699999988079,278680.3000000119,7182,VNB,C,1
2,test,2,1.0,1-Back,1.0,m,Mon Jul 21 2025 17:08:05 GMT-0500 (Central Daylight Time),282782.2000000179,015_o_m_n_a.png,O,m,1000,3,1,2014.0,280768.2000000179,7182,VNB,C,2
3,test,2,0.0,1-Back,1.0,m,Mon Jul 21 2025 17:08:05 GMT-0500 (Central Daylight Time),285379.90000000596,019_m_f_d_a.png,O,m,1558,4,1,2573.199999988079,282806.7000000179,7182,VNB,C,3
4,test,2,0.0,1-Back,1.0,z,Mon Jul 21 2025 17:08:05 GMT-0500 (Central Daylight Time),287662.5,014_m_m_d_a.png,O,z,1223,5,1,2252.2999999821186,285410.2000000179,7182,VNB,C,4
5,test,2,0.0,1-Back,1.0,m,Mon Jul 21 2025 17:08:05 GMT-0500 (Central Daylight Time),289928.2000000179,025_y_m_h_a.png,O,m,1203,6,1,2227.600000023842,287700.59999999404,7182,VNB,C,5
6,test,2,1.0,1-Back,1.0,z,Mon Jul 21 2025 17:08:05 GMT-0500 (Central Daylight Time),291961.0,012_o_f_h_a.png,O,z,986,7,1,2005.699999988079,289955.3000000119,7182,VNB,C,6
7,test,2,0.0,1-Back,1.0,m,Mon Jul 21 2025 17:08:05 GMT-0500 (Central Daylight Time),293860.40000000596,019_m_f_n_a.png,O,m,850,8,1,1869.5999999940395,291990.8000000119,7182,VNB,C,7
8,test,2,0.0,1-Back,1.0,m,Mon Jul 21 2025 17:08:05 GMT-0500 (Central Daylight Time),296742.40000000596,022_y_f_d_a.png,O,m,1846,9,1,2863.300000011921,293879.09999999404,7182,VNB,C,8
9,test,2,0.0,1-Back,1.0,m,Mon Jul 21 2025 17:08:05 GMT-0500 (Central Daylight Time),299024.7000000179,014_m_m_n_a.png,O,m,1235,10,1,2259.600000023842,296765.09999999404,7182,VNB,C,9
10,test,2,1.0,1-Back,1.0,m,Mon Jul 21 2025 17:08:05 GMT-0500 (Central Daylight Time),301256.90000000596,019_m_f_h_a.png,O,m,1209,11,1,2222.4000000059605,299034.5,7182,VNB,C,10
11,test,2,0.0,1-Back,1.0,z,Mon Jul 21 2025 17:08:05 GMT-0500 (Central Daylight Time),303290.59999999404,015_o_m_h_a.png,O,z,1004,12,1,2025.699999988079,301264.90000000596,7182,VNB,C,11
12,test,2,0.0,1-Back,1.0,m,Mon Jul 21 2025 17:08:05 GMT-0500 (Central Daylight Time),305406.3000000119,025_y_m_d_a.png,O,m,1080,13,1,2086.5999999940395,303319.7000000179,7182,VNB,C,12
13,test,2,0.0,1-Back,1.0,m,Mon Jul 21 2025 17:08:05 GMT-0500 (Central Daylight Time),308022.40000000596,012_o_f_n_a.png,O,m,1572,14,1,2589.800000011921,305432.59999999404,7182,VNB,C,13
14,test,2,0.0,1-Back,1.0,z,Mon Jul 21 2025 17:08:05 GMT-0500 (Central Daylight Time),310121.7000000179,022_y_f_n_a.png,O,z,1044,15,1,2066.100000023842,308055.59999999404,7182,VNB,C,14
15,test,2,1.0,1-Back,1.0,m,Mon Jul 21 2025 17:08:05 GMT-0500 (Central Daylight Time),312370.90000000596,014_m_m_h_a.png,O,m,1209,16,1,2224.699999988079,310146.2000000179,7182,VNB,C,15
16,test,2,0.0,1-Back,1.0,m,Mon Jul 21 2025 17:08:05 GMT-0500 (Central Daylight Time),314770.09999999404,012_o_f_d_a.png,O,m,1351,17,1,2374.0,312396.09999999404,7182,VNB,C,16
16,test,2,1.0,1-Back,0.0,z,Mon Jul 21 2025 17:08:05 GMT-0500 (Central Daylight Time),317534.90000000596,015_o_m_d_a.png,O,m,1727,18,1,2736.0999999940395,314798.8000000119,7182,VNB,C,17
0,test,3,1.0,1-Back,,,Mon Jul 21 2025 17:08:05 GMT-0500 (Central Daylight Time),317534.90000000596,012_o_f_h_a.png,O,space,1389,1,1,2736.0999999940395,314798.8000000119,7182,VNB,C,0
1,test,3,0.0,1-Back,1.0,m,Mon Jul 21 2025 17:08:05 GMT-0500 (Central Daylight Time),323183.3000000119,019_m_f_d_a.png,O,m,1019,2,1,2041.5,321141.8000000119,7182,VNB,C,1
2,test,3,1.0,1-Back,1.0,m,Mon Jul 21 2025 17:08:05 GMT-0500 (Central Daylight Time),325516.59999999404,014_m_m_n_a.png,O,m,1307,3,1,2327.5999999940395,323189.0,7182,VNB,C,2
3,test,3,0.0,1-Back,1.0,z,Mon Jul 21 2025 17:08:05 GMT-0500 (Central Daylight Time),327716.0,012_o_f_n_a.png,O,z,1135,4,1,2162.7999999821186,325553.2000000179,7182,VNB,C,3
4,test,3,1.0,1-Back,1.0,m,Mon Jul 21 2025 17:08:05 GMT-0500 (Central Daylight Time),329932.09999999404,015_o_m_d_a.png,O,m,1166,5,1,2188.699999988079,327743.40000000596,7182,VNB,C,4
5,test,3,0.0,1-Back,1.0,m,Mon Jul 21 2025 17:08:05 GMT-0500 (Central Daylight Time),331914.5,022_y_f_h_a.png,O,m,944,6,1,1952.5999999940395,329961.90000000596,7182,VNB,C,5
6,test,3,0.0,1-Back,1.0,z,Mon Jul 21 2025 17:08:05 GMT-0500 (Central Daylight Time),333797.2000000179,025_y_m_h_a.png,O,z,841,7,1,1860.800000011921,331936.40000000596,7182,VNB,C,6
7,test,3,0.0,1-Back,1.0,m,Mon Jul 21 2025 17:08:05 GMT-0500 (Central Daylight Time),336063.2000000179,019_m_f_n_a.png,O,m,1205,8,1,2225.5,333837.7000000179,7182,VNB,C,7
8,test,3,0.0,1-Back,1.0,m,Mon Jul 21 2025 17:08:05 GMT-0500 (Central Daylight Time),338762.2000000179,022_y_f_d_a.png,O,m,1659,9,1,2671.4000000059605,336090.8000000119,7182,VNB,C,8
8,test,3,1.0,1-Back,0.0,m,Mon Jul 21 2025 17:08:05 GMT-0500 (Central Daylight Time),340832.40000000596,015_o_m_n_a.png,O,z,1025,10,1,2041.300000011921,338791.09999999404,7182,VNB,C,9
9,test,3,0.0,1-Back,1.0,m,Mon Jul 21 2025 17:08:05 GMT-0500 (Central Daylight Time),343077.3000000119,014_m_m_h_a.png,O,m,1214,11,1,2219.7000000178814,340857.59999999404,7182,VNB,C,10
10,test,3,0.0,1-Back,1.0,z,Mon Jul 21 2025 17:08:05 GMT-0500 (Central Daylight Time),345476.8000000119,019_m_f_h_a.png,O,z,1341,12,1,2369.800000011921,343107.0,7182,VNB,C,11
11,test,3,1.0,1-Back,1.0,m,Mon Jul 21 2025 17:08:05 GMT-0500 (Central Daylight Time),347792.90000000596,012_o_f_d_a.png,O,m,1270,13,1,2290.0,345502.90000000596,7182,VNB,C,12
11,test,3,0.0,1-Back,0.0,z,Mon Jul 21 2025 17:08:05 GMT-0500 (Central Daylight Time),350458.40000000596,014_m_m_d_a.png,O,m,1601,14,1,2631.5999999940395,347826.8000000119,7182,VNB,C,13
12,test,3,0.0,1-Back,1.0,m,Mon Jul 21 2025 17:08:05 GMT-0500 (Central Daylight Time),352641.0,025_y_m_n_a.png,O,m,1145,15,1,2152.2999999821186,350488.7000000179,7182,VNB,C,14
13,test,3,1.0,1-Back,1.0,m,Mon Jul 21 2025 17:08:05 GMT-0500 (Central Daylight Time),354957.59999999404,015_o_m_h_a.png,O,m,1265,16,1,2277.5999999940395,352680.0,7182,VNB,C,15
14,test,3,0.0,1-Back,1.0,m,Mon Jul 21 2025 17:08:05 GMT-0500 (Central Daylight Time),356906.40000000596,025_y_m_d_a.png,O,m,911,17,1,1919.699999988079,354986.7000000179,7182,VNB,C,16
15,test,3,1.0,1-Back,1.0,m,Mon Jul 21 2025 17:08:05 GMT-0500 (Central Daylight Time),359005.3000000119,022_y_f_n_a.png,O,m,1031,18,1,2037.0,356968.3000000119,7182,VNB,C,17
0,test,4,1.0,1-Back,,,Mon Jul 21 2025 17:08:05 GMT-0500 (Central Daylight Time),359005.3000000119,014_m_m_d_a.png,O,space,1325,1,1,2037.0,356968.3000000119,7182,VNB,C,0
0,test,4,0.0,1-Back,0.0,z,Mon Jul 21 2025 17:08:05 GMT-0500 (Central Daylight Time),365170.3000000119,015_o_m_d_a.png,O,m,1626,2,1,2642.0999999940395,362528.2000000179,7182,VNB,C,1
1,test,4,0.0,1-Back,1.0,m,Mon Jul 21 2025 17:08:05 GMT-0500 (Central Daylight Time),367486.0,025_y_m_h_a.png,O,m,1281,3,1,2290.0999999940395,365195.90000000596,7182,VNB,C,2
2,test,4,0.0,1-Back,1.0,m,Mon Jul 21 2025 17:08:05 GMT-0500 (Central Daylight Time),369302.09999999404,019_m_f_n_a.png,O,m,765,4,1,1782.2999999821186,367519.8000000119,7182,VNB,C,3
3,test,4,1.0,1-Back,1.0,m,Mon Jul 21 2025 17:08:05 GMT-0500 (Central Daylight Time),371301.59999999404,012_o_f_h_a.png,O,m,956,5,1,1970.5,369331.09999999404,7182,VNB,C,4
4,test,4,0.0,1-Back,1.0,m,Mon Jul 21 2025 17:08:05 GMT-0500 (Central Daylight Time),373167.7000000179,014_m_m_n_a.png,O,m,813,6,1,1833.0,371334.7000000179,7182,VNB,C,5
5,test,4,0.0,1-Back,1.0,m,Mon Jul 21 2025 17:08:05 GMT-0500 (Central Daylight Time),375367.09999999404,025_y_m_d_a.png,O,m,1155,7,1,2173.899999976158,373193.2000000179,7182,VNB,C,6
6,test,4,1.0,1-Back,1.0,z,Mon Jul 21 2025 17:08:05 GMT-0500 (Central Daylight Time),377333.0,022_y_f_d_a.png,O,z,925,8,1,1940.5999999940395,375392.40000000596,7182,VNB,C,7
7,test,4,0.0,1-Back,1.0,m,Mon Jul 21 2025 17:08:05 GMT-0500 (Central Daylight Time),379349.40000000596,019_m_f_h_a.png,O,m,983,9,1,1988.800000011921,377360.59999999404,7182,VNB,C,8
8,test,4,0.0,1-Back,1.0,z,Mon Jul 21 2025 17:08:05 GMT-0500 (Central Daylight Time),381097.5,015_o_m_h_a.png,O,z,708,10,1,1721.4000000059605,379376.09999999404,7182,VNB,C,9
9,test,4,1.0,1-Back,1.0,m,Mon Jul 21 2025 17:08:05 GMT-0500 (Central Daylight Time),383314.3000000119,012_o_f_n_a.png,O,m,1185,11,1,2212.0,381102.3000000119,7182,VNB,C,10
10,test,4,0.0,1-Back,1.0,m,Mon Jul 21 2025 17:08:05 GMT-0500 (Central Daylight Time),385446.90000000596,019_m_f_d_a.png,O,m,1097,12,1,2103.0999999940395,383343.8000000119,7182,VNB,C,11
11,test,4,0.0,1-Back,1.0,m,Mon Jul 21 2025 17:08:05 GMT-0500 (Central Daylight Time),388312.7000000179,022_y_f_n_a.png,O,m,1819,13,1,2838.100000023842,385474.59999999404,7182,VNB,C,12
12,test,4,0.0,1-Back,1.0,m,Mon Jul 21 2025 17:08:05 GMT-0500 (Central Daylight Time),390695.09999999404,012_o_f_d_a.png,O,m,1347,14,1,2357.7999999821186,388337.3000000119,7182,VNB,C,13
13,test,4,0.0,1-Back,1.0,m,Mon Jul 21 2025 17:08:05 GMT-0500 (Central Daylight Time),392961.2000000179,022_y_f_h_a.png,O,m,1218,15,1,2235.2000000178814,390726.0,7182,VNB,C,14
14,test,4,1.0,1-Back,1.0,z,Mon Jul 21 2025 17:08:05 GMT-0500 (Central Daylight Time),394893.5,014_m_m_h_a.png,O,z,898,16,1,1902.699999988079,392990.8000000119,7182,VNB,C,15
15,test,4,0.0,1-Back,1.0,m,Mon Jul 21 2025 17:08:05 GMT-0500 (Central Daylight Time),397259.3000000119,015_o_m_n_a.png,O,m,1300,17,1,2336.0,394923.3000000119,7182,VNB,C,16
16,test,4,1.0,1-Back,1.0,z,Mon Jul 21 2025 17:08:05 GMT-0500 (Central Daylight Time),399259.2000000179,025_y_m_n_a.png,O,z,967,18,1,1988.1000000238419,397271.09999999404,7182,VNB,C,17
0,test,5,1.0,1-Back,,,Mon Jul 21 2025 17:08:05 GMT-0500 (Central Daylight Time),399259.2000000179,015_o_m_n_a.png,O,space,1199,1,1,1988.1000000238419,397271.09999999404,7182,VNB,C,0
1,test,5,1.0,1-Back,1.0,m,Mon Jul 21 2025 17:08:05 GMT-0500 (Central Daylight Time),404640.8000000119,012_o_f_h_a.png,O,m,912,2,1,1936.0999999940395,402704.7000000179,7182,VNB,C,1
2,test,5,0.0,1-Back,1.0,m,Mon Jul 21 2025 17:08:05 GMT-0500 (Central Daylight Time),406723.40000000596,025_y_m_d_a.png,O,m,1042,3,1,2058.800000011921,404664.59999999404,7182,VNB,C,2
2,test,5,0.0,1-Back,0.0,z,Mon Jul 21 2025 17:08:05 GMT-0500 (Central Daylight Time),409172.5,015_o_m_d_a.png,O,m,1384,4,1,2416.9000000059605,406755.59999999404,7182,VNB,C,3
3,test,5,0.0,1-Back,1.0,m,Mon Jul 21 2025 17:08:05 GMT-0500 (Central Daylight Time),411205.59999999404,019_m_f_h_a.png,O,m,999,5,1,2009.7999999821186,409195.8000000119,7182,VNB,C,4
4,test,5,0.0,1-Back,1.0,m,Mon Jul 21 2025 17:08:05 GMT-0500 (Central Daylight Time),413204.0,022_y_f_n_a.png,O,m,965,6,1,1974.0,411230.0,7182,VNB,C,5
5,test,5,1.0,1-Back,1.0,z,Mon Jul 21 2025 17:08:05 GMT-0500 (Central Daylight Time),415870.40000000596,012_o_f_n_a.png,O,z,1639,7,1,2651.800000011921,413218.59999999404,7182,VNB,C,6
6,test,5,0.0,1-Back,1.0,m,Mon Jul 21 2025 17:08:05 GMT-0500 (Central Daylight Time),418136.2000000179,019_m_f_d_a.png,O,m,1229,8,1,2239.600000023842,415896.59999999404,7182,VNB,C,7
7,test,5,0.0,1-Back,1.0,m,Mon Jul 21 2025 17:08:05 GMT-0500 (Central Daylight Time),420318.90000000596,025_y_m_h_a.png,O,m,1138,9,1,2163.9000000059605,418155.0,7182,VNB,C,8
8,test,5,0.0,1-Back,1.0,m,Mon Jul 21 2025 17:08:05 GMT-0500 (Central Daylight Time),422301.5,022_y_f_d_a.png,O,m,933,10,1,1952.9000000059605,420348.59999999404,7182,VNB,C,9
9,test,5,0.0,1-Back,1.0,m,Mon Jul 21 2025 17:08:05 GMT-0500 (Central Daylight Time),424317.8000000119,014_m_m_n_a.png,O,m,981,11,1,1993.4000000059605,422324.40000000596,7182,VNB,C,10
10,test,5,1.0,1-Back,1.0,z,Mon Jul 21 2025 17:08:05 GMT-0500 (Central Daylight Time),426400.2000000179,019_m_f_n_a.png,O,z,1046,12,1,2055.2000000178814,424345.0,7182,VNB,C,11
11,test,5,0.0,1-Back,1.0,m,Mon Jul 21 2025 17:08:05 GMT-0500 (Central Daylight Time),428616.2000000179,015_o_m_h_a.png,O,m,1171,13,1,2187.5,426428.7000000179,7182,VNB,C,12
12,test,5,0.0,1-Back,1.0,z,Mon Jul 21 2025 17:08:05 GMT-0500 (Central Daylight Time),430482.3000000119,014_m_m_h_a.png,O,z,826,14,1,1836.4000000059605,428645.90000000596,7182,VNB,C,13
13,test,5,1.0,1-Back,1.0,m,Mon Jul 21 2025 17:08:05 GMT-0500 (Central Daylight Time),432431.59999999404,012_o_f_d_a.png,O,m,912,15,1,1920.199999988079,430511.40000000596,7182,VNB,C,14
13,test,5,0.0,1-Back,0.0,m,Mon Jul 21 2025 17:08:05 GMT-0500 (Central Daylight Time),434764.2000000179,025_y_m_n_a.png,O,z,1292,16,1,2312.800000011921,432451.40000000596,7182,VNB,C,15
14,test,5,0.0,1-Back,1.0,m,Mon Jul 21 2025 17:08:05 GMT-0500 (Central Daylight Time),436729.3000000119,022_y_f_h_a.png,O,m,925,17,1,1935.4000000059605,434793.90000000596,7182,VNB,C,16
15,test,5,0.0,1-Back,1.0,m,Mon Jul 21 2025 17:08:05 GMT-0500 (Central Daylight Time),438829.5,014_m_m_d_a.png,O,m,1074,18,1,2095.4000000059605,436734.09999999404,7182,VNB,C,17
0,prac,1,0.0,2-Back,,,Mon Jul 21 2025 17:08:05 GMT-0500 (Central Daylight Time),438829.5,019_m_f_n_a.png,O,space,22893,1,1,2095.4000000059605,436734.09999999404,7182,VNB,C,0
0,prac,1,0.0,2-Back,,,Mon Jul 21 2025 17:08:05 GMT-0500 (Central Daylight Time),438829.5,012_o_f_h_a.png,O,space,22893,2,1,2095.4000000059605,436734.09999999404,7182,VNB,C,0
0,prac,1,0.0,2-Back,0.0,m,Mon Jul 21 2025 17:08:05 GMT-0500 (Central Daylight Time),573755.0,015_o_m_d_a.png,O,None,2002,3,1,2952.699999988079,570802.3000000119,7182,VNB,C,1
0,prac,1,1.0,2-Back,0.0,z,Mon Jul 21 2025 17:08:05 GMT-0500 (Central Daylight Time),576734.3000000119,014_m_m_h_a.png,O,None,2011,4,1,2950.5999999940395,573783.7000000179,7182,VNB,C,2
1,prac,1,0.0,2-Back,1.0,m,Mon Jul 21 2025 17:08:05 GMT-0500 (Central Daylight Time),578983.900000006,022_y_f_n_a.png,O,m,1255,5,1,2207.4000000059605,576776.5,7182,VNB,C,3
2,prac,1,1.0,2-Back,1.0,z,Mon Jul 21 2025 17:08:05 GMT-0500 (Central Daylight Time),581499.599999994,015_o_m_h_a.png,O,z,1514,6,1,2474.699999988079,579024.900000006,7182,VNB,C,4
2,prac,1,1.0,2-Back,0.0,z,Mon Jul 21 2025 17:08:05 GMT-0500 (Central Daylight Time),583749.099999994,025_y_m_n_a.png,O,m,1288,7,1,2211.699999988079,581537.400000006,7182,VNB,C,5
3,prac,1,0.0,2-Back,1.0,m,Mon Jul 21 2025 17:08:05 GMT-0500 (Central Daylight Time),586181.5,019_m_f_d_a.png,O,m,1454,8,1,2399.9000000059605,583781.599999994,7182,VNB,C,6
4,prac,1,0.0,2-Back,1.0,m,Mon Jul 21 2025 17:08:05 GMT-0500 (Central Daylight Time),588447.3000000119,012_o_f_d_a.png,O,m,1099,9,1,2231.4000000059605,586215.900000006,7182,VNB,C,7
4,prac,1,0.0,2-Back,0.0,m,Mon Jul 21 2025 17:08:05 GMT-0500 (Central Daylight Time),590363.3000000119,014_m_m_h_a.png,O,z,1093,10,1,1876.300000011921,588487.0,7182,VNB,C,8
4,prac,1,1.0,2-Back,0.0,z,Mon Jul 21 2025 17:08:05 GMT-0500 (Central Daylight Time),592563.8000000119,022_y_f_d_a.png,O,m,1224,11,1,2170.7000000178814,590393.099999994,7182,VNB,C,9
4,prac,1,0.0,2-Back,0.0,m,Mon Jul 21 2025 17:08:05 GMT-0500 (Central Daylight Time),595561.599999994,015_o_m_n_a.png,O,None,2012,12,1,2959.899999976158,592601.7000000179,7182,VNB,C,10
0,prac,2,0.0,2-Back,,,Mon Jul 21 2025 17:08:05 GMT-0500 (Central Daylight Time),595561.599999994,019_m_f_n_a.png,O,a,9493,1,1,2959.899999976158,592601.7000000179,7182,VNB,C,0
0,prac,2,0.0,2-Back,,,Mon Jul 21 2025 17:08:05 GMT-0500 (Central Daylight Time),595561.599999994,012_o_f_h_a.png,O,a,9493,2,1,2959.899999976158,592601.7000000179,7182,VNB,C,0
1,prac,2,0.0,2-Back,1.0,m,Mon Jul 21 2025 17:08:05 GMT-0500 (Central Daylight Time),613089.099999994,015_o_m_d_a.png,O,m,1595,3,1,2543.5,610545.599999994,7182,VNB,C,1
1,prac,2,1.0,2-Back,0.0,z,Mon Jul 21 2025 17:08:05 GMT-0500 (Central Daylight Time),615904.599999994,014_m_m_h_a.png,O,None,2010,4,1,2777.0,613127.599999994,7182,VNB,C,2
2,prac,2,0.0,2-Back,1.0,m,Mon Jul 21 2025 17:08:05 GMT-0500 (Central Daylight Time),618220.900000006,022_y_f_n_a.png,O,m,1335,5,1,2273.4000000059605,615947.5,7182,VNB,C,3
2,prac,2,1.0,2-Back,0.0,z,Mon Jul 21 2025 17:08:05 GMT-0500 (Central Daylight Time),620520.0,015_o_m_h_a.png,O,m,1320,6,1,2265.0999999940395,618254.900000006,7182,VNB,C,4
2,prac,2,1.0,2-Back,0.0,z,Mon Jul 21 2025 17:08:05 GMT-0500 (Central Daylight Time),622835.8000000119,025_y_m_n_a.png,O,m,1367,7,1,2276.800000011921,620559.0,7182,VNB,C,5
3,prac,2,0.0,2-Back,1.0,m,Mon Jul 21 2025 17:08:05 GMT-0500 (Central Daylight Time),625335.400000006,019_m_f_d_a.png,O,m,1527,8,1,2462.9000000059605,622872.5,7182,VNB,C,6
3,prac,2,0.0,2-Back,0.0,m,Mon Jul 21 2025 17:08:05 GMT-0500 (Central Daylight Time),628300.7000000179,012_o_f_d_a.png,O,None,2010,9,1,2931.9000000059605,625368.8000000119,7182,VNB,C,7
4,prac,2,0.0,2-Back,1.0,m,Mon Jul 21 2025 17:08:05 GMT-0500 (Central Daylight Time),630417.099999994,014_m_m_h_a.png,O,m,1292,10,1,2073.7999999821186,628343.3000000119,7182,VNB,C,8
5,prac,2,1.0,2-Back,1.0,z,Mon Jul 21 2025 17:08:05 GMT-0500 (Central Daylight Time),632866.0,022_y_f_d_a.png,O,z,1455,11,1,2413.5999999940395,630452.400000006,7182,VNB,C,9
5,prac,2,0.0,2-Back,0.0,m,Mon Jul 21 2025 17:08:05 GMT-0500 (Central Daylight Time),635848.099999994,015_o_m_n_a.png,O,None,2009,12,1,2942.199999988079,632905.900000006,7182,VNB,C,10
0,test,1,0.0,2-Back,,,Mon Jul 21 2025 17:08:05 GMT-0500 (Central Daylight Time),635848.099999994,025_y_m_h_a.png,O,space,13946,1,1,2942.199999988079,632905.900000006,7182,VNB,C,0
0,test,1,0.0,2-Back,,,Mon Jul 21 2025 17:08:05 GMT-0500 (Central Daylight Time),635848.099999994,012_o_f_n_a.png,O,space,13946,2,1,2942.199999988079,632905.900000006,7182,VNB,C,0
1,test,1,0.0,2-Back,1.0,z,Mon Jul 21 2025 17:08:05 GMT-0500 (Central Daylight Time),685366.2000000179,015_o_m_h_a.png,O,z,1915,3,1,2920.600000023842,682445.599999994,7182,VNB,C,1
1,test,1,0.0,2-Back,0.0,m,Mon Jul 21 2025 17:08:05 GMT-0500 (Central Daylight Time),688414.5,019_m_f_d_a.png,O,None,2015,4,1,3030.0999999940395,685384.400000006,7182,VNB,C,2
1,test,1,1.0,2-Back,0.0,m,Mon Jul 21 2025 17:08:05 GMT-0500 (Central Daylight Time),690496.900000006,025_y_m_n_a.png,O,z,1033,5,1,2063.699999988079,688433.2000000179,7182,VNB,C,3
2,test,1,0.0,2-Back,1.0,z,Mon Jul 21 2025 17:08:05 GMT-0500 (Central Daylight Time),692995.900000006,022_y_f_d_a.png,O,z,1442,6,1,2464.800000011921,690531.099999994,7182,VNB,C,4
3,test,1,0.0,2-Back,1.0,m,Mon Jul 21 2025 17:08:05 GMT-0500 (Central Daylight Time),695328.7000000179,014_m_m_h_a.png,O,m,1287,7,1,2309.4000000059605,693019.3000000119,7182,VNB,C,5
3,test,1,1.0,2-Back,0.0,m,Mon Jul 21 2025 17:08:05 GMT-0500 (Central Daylight Time),698094.2000000179,022_y_f_n_a.png,O,z,1730,8,1,2735.9000000059605,695358.3000000119,7182,VNB,C,6
3,test,1,0.0,2-Back,0.0,z,Mon Jul 21 2025 17:08:05 GMT-0500 (Central Daylight Time),701143.599999994,012_o_f_h_a.png,O,None,2015,9,1,3021.2999999821186,698122.3000000119,7182,VNB,C,7
4,test,1,0.0,2-Back,1.0,m,Mon Jul 21 2025 17:08:05 GMT-0500 (Central Daylight Time),703809.3000000119,015_o_m_d_a.png,O,m,1628,10,1,2639.300000011921,701170.0,7182,VNB,C,8
5,test,1,1.0,2-Back,1.0,m,Mon Jul 21 2025 17:08:05 GMT-0500 (Central Daylight Time),706075.2000000179,014_m_m_d_a.png,O,m,1226,11,1,2240.2000000178814,703835.0,7182,VNB,C,9
6,test,1,0.0,2-Back,1.0,m,Mon Jul 21 2025 17:08:05 GMT-0500 (Central Daylight Time),708741.099999994,019_m_f_n_a.png,O,m,1625,12,1,2641.7999999821186,706099.3000000119,7182,VNB,C,10
7,test,1,0.0,2-Back,1.0,m,Mon Jul 21 2025 17:08:05 GMT-0500 (Central Daylight Time),711706.7000000179,022_y_f_h_a.png,O,m,1926,13,1,2936.4000000059605,708770.3000000119,7182,VNB,C,11
8,test,1,0.0,2-Back,1.0,z,Mon Jul 21 2025 17:08:05 GMT-0500 (Central Daylight Time),713905.900000006,014_m_m_n_a.png,O,z,1137,14,1,2163.5999999940395,711742.3000000119,7182,VNB,C,12
8,test,1,0.0,2-Back,0.0,m,Mon Jul 21 2025 17:08:05 GMT-0500 (Central Daylight Time),716971.8000000119,025_y_m_d_a.png,O,None,2016,15,1,3034.9000000059605,713936.900000006,7182,VNB,C,13
8,test,1,1.0,2-Back,0.0,m,Mon Jul 21 2025 17:08:05 GMT-0500 (Central Daylight Time),720020.8000000119,019_m_f_h_a.png,O,None,2016,16,1,3020.2000000178814,717000.599999994,7182,VNB,C,14
8,test,1,0.0,2-Back,0.0,z,Mon Jul 21 2025 17:08:05 GMT-0500 (Central Daylight Time),722686.099999994,012_o_f_d_a.png,O,m,1615,17,1,2632.5999999940395,720053.5,7182,VNB,C,15
8,test,1,0.0,2-Back,0.0,m,Mon Jul 21 2025 17:08:05 GMT-0500 (Central Daylight Time),725752.3000000119,015_o_m_n_a.png,O,None,2016,18,1,3023.800000011921,722728.5,7182,VNB,C,16
0,test,2,0.0,2-Back,,,Mon Jul 21 2025 17:08:05 GMT-0500 (Central Daylight Time),725752.3000000119,014_m_m_h_a.png,O,space,1614,1,1,3023.800000011921,722728.5,7182,VNB,C,0
0,test,2,0.0,2-Back,,,Mon Jul 21 2025 17:08:05 GMT-0500 (Central Daylight Time),725752.3000000119,022_y_f_n_a.png,O,space,1614,2,1,3023.800000011921,722728.5,7182,VNB,C,0
1,test,2,1.0,2-Back,1.0,z,Mon Jul 21 2025 17:08:05 GMT-0500 (Central Daylight Time),735515.7000000179,012_o_f_h_a.png,O,z,1710,3,1,2732.0,732783.7000000179,7182,VNB,C,1
2,test,2,0.0,2-Back,1.0,m,Mon Jul 21 2025 17:08:05 GMT-0500 (Central Daylight Time),737881.599999994,015_o_m_d_a.png,O,m,1314,4,1,2340.0,735541.599999994,7182,VNB,C,2
3,test,2,0.0,2-Back,1.0,m,Mon Jul 21 2025 17:08:05 GMT-0500 (Central Daylight Time),740014.099999994,019_m_f_d_a.png,O,m,1091,5,1,2102.0,737912.099999994,7182,VNB,C,3
3,test,2,0.0,2-Back,0.0,m,Mon Jul 21 2025 17:08:05 GMT-0500 (Central Daylight Time),742779.8000000119,025_y_m_h_a.png,O,z,1702,6,1,2736.0999999940395,740043.7000000179,7182,VNB,C,4
4,test,2,0.0,2-Back,1.0,m,Mon Jul 21 2025 17:08:05 GMT-0500 (Central Daylight Time),745145.900000006,012_o_f_n_a.png,O,m,1320,7,1,2338.800000011921,742807.099999994,7182,VNB,C,5
4,test,2,1.0,2-Back,0.0,z,Mon Jul 21 2025 17:08:05 GMT-0500 (Central Daylight Time),747810.900000006,015_o_m_h_a.png,O,m,1616,8,1,2641.5999999940395,745169.3000000119,7182,VNB,C,6
5,test,2,0.0,2-Back,1.0,m,Mon Jul 21 2025 17:08:05 GMT-0500 (Central Daylight Time),749927.5,022_y_f_d_a.png,O,m,1085,9,1,2106.2999999821186,747821.2000000179,7182,VNB,C,7
6,test,2,0.0,2-Back,1.0,m,Mon Jul 21 2025 17:08:05 GMT-0500 (Central Daylight Time),752343.400000006,025_y_m_d_a.png,O,m,1380,10,1,2394.5999999940395,749948.8000000119,7182,VNB,C,8
6,test,2,0.0,2-Back,0.0,m,Mon Jul 21 2025 17:08:05 GMT-0500 (Central Daylight Time),755392.599999994,014_m_m_n_a.png,O,None,2015,11,1,3030.5999999940395,752362.0,7182,VNB,C,9
7,test,2,0.0,2-Back,1.0,m,Mon Jul 21 2025 17:08:05 GMT-0500 (Central Daylight Time),758224.8000000119,019_m_f_h_a.png,O,m,1796,12,1,2806.0999999940395,755418.7000000179,7182,VNB,C,10
8,test,2,1.0,2-Back,1.0,z,Mon Jul 21 2025 17:08:05 GMT-0500 (Central Daylight Time),760690.7000000179,015_o_m_n_a.png,O,z,1411,13,1,2426.5,758264.2000000179,7182,VNB,C,11
9,test,2,0.0,2-Back,1.0,m,Mon Jul 21 2025 17:08:05 GMT-0500 (Central Daylight Time),763673.099999994,012_o_f_d_a.png,O,m,1936,14,1,2952.0,760721.099999994,7182,VNB,C,12
9,test,2,0.0,2-Back,0.0,m,Mon Jul 21 2025 17:08:05 GMT-0500 (Central Daylight Time),766738.8000000119,022_y_f_h_a.png,O,None,2016,15,1,3030.5999999940395,763708.2000000179,7182,VNB,C,13
9,test,2,0.0,2-Back,0.0,z,Mon Jul 21 2025 17:08:05 GMT-0500 (Central Daylight Time),769437.8000000119,014_m_m_d_a.png,O,m,1633,16,1,2665.300000011921,766772.5,7182,VNB,C,14
9,test,2,0.0,2-Back,0.0,m,Mon Jul 21 2025 17:08:05 GMT-0500 (Central Daylight Time),772487.0,025_y_m_n_a.png,O,None,2016,17,1,3024.5999999940395,769462.400000006,7182,VNB,C,15
9,test,2,1.0,2-Back,0.0,m,Mon Jul 21 2025 17:08:05 GMT-0500 (Central Daylight Time),775385.8000000119,019_m_f_n_a.png,O,z,1853,18,1,2869.4000000059605,772516.400000006,7182,VNB,C,16
0,test,3,1.0,2-Back,,,Mon Jul 21 2025 17:08:05 GMT-0500 (Central Daylight Time),775385.8000000119,015_o_m_n_a.png,O,space,1825,1,1,2869.4000000059605,772516.400000006,7182,VNB,C,0
0,test,3,1.0,2-Back,,,Mon Jul 21 2025 17:08:05 GMT-0500 (Central Daylight Time),775385.8000000119,012_o_f_d_a.png,O,space,1825,2,1,2869.4000000059605,772516.400000006,7182,VNB,C,0
1,test,3,0.0,2-Back,1.0,m,Mon Jul 21 2025 17:08:05 GMT-0500 (Central Daylight Time),785182.400000006,022_y_f_h_a.png,O,m,1530,3,1,2535.9000000059605,782646.5,7182,VNB,C,1
1,test,3,0.0,2-Back,0.0,z,Mon Jul 21 2025 17:08:05 GMT-0500 (Central Daylight Time),788231.900000006,019_m_f_d_a.png,O,None,2015,4,1,3026.4000000059605,785205.5,7182,VNB,C,2
1,test,3,1.0,2-Back,0.0,m,Mon Jul 21 2025 17:08:05 GMT-0500 (Central Daylight Time),790664.2000000179,025_y_m_n_a.png,O,z,1388,5,1,2406.800000011921,788257.400000006,7182,VNB,C,3
1,test,3,0.0,2-Back,0.0,m,Mon Jul 21 2025 17:08:05 GMT-0500 (Central Daylight Time),793730.099999994,015_o_m_h_a.png,O,None,2015,6,1,3026.0,790704.099999994,7182,VNB,C,4
1,test,3,0.0,2-Back,0.0,z,Mon Jul 21 2025 17:08:05 GMT-0500 (Central Daylight Time),796778.900000006,022_y_f_n_a.png,O,None,2015,7,1,3019.5999999940395,793759.3000000119,7182,VNB,C,5
2,test,3,1.0,2-Back,1.0,m,Mon Jul 21 2025 17:08:05 GMT-0500 (Central Daylight Time),799194.599999994,014_m_m_d_a.png,O,m,1352,8,1,2380.0999999940395,796814.5,7182,VNB,C,6
2,test,3,0.0,2-Back,0.0,m,Mon Jul 21 2025 17:08:05 GMT-0500 (Central Daylight Time),802243.900000006,025_y_m_d_a.png,O,None,2015,9,1,3022.800000011921,799221.099999994,7182,VNB,C,7
2,test,3,0.0,2-Back,0.0,m,Mon Jul 21 2025 17:08:05 GMT-0500 (Central Daylight Time),804509.900000006,012_o_f_h_a.png,O,z,1231,10,1,2241.300000011921,802268.599999994,7182,VNB,C,8
3,test,3,1.0,2-Back,1.0,m,Mon Jul 21 2025 17:08:05 GMT-0500 (Central Daylight Time),807108.8000000119,019_m_f_n_a.png,O,m,1554,11,1,2573.4000000059605,804535.400000006,7182,VNB,C,9
3,test,3,1.0,2-Back,0.0,z,Mon Jul 21 2025 17:08:05 GMT-0500 (Central Daylight Time),809457.900000006,014_m_m_h_a.png,O,m,1310,12,1,2320.0,807137.900000006,7182,VNB,C,10
3,test,3,0.0,2-Back,0.0,m,Mon Jul 21 2025 17:08:05 GMT-0500 (Central Daylight Time),811707.3000000119,022_y_f_d_a.png,O,z,1202,13,1,2229.300000011921,809478.0,7182,VNB,C,11
3,test,3,0.0,2-Back,0.0,m,Mon Jul 21 2025 17:08:05 GMT-0500 (Central Daylight Time),814756.2000000179,012_o_f_n_a.png,O,None,2015,14,1,3021.9000000059605,811734.3000000119,7182,VNB,C,12
3,test,3,0.0,2-Back,0.0,z,Mon Jul 21 2025 17:08:05 GMT-0500 (Central Daylight Time),817405.5,015_o_m_d_a.png,O,m,1590,15,1,2615.2999999821186,814790.2000000179,7182,VNB,C,13
3,test,3,1.0,2-Back,0.0,m,Mon Jul 21 2025 17:08:05 GMT-0500 (Central Daylight Time),820454.7000000179,019_m_f_h_a.png,O,None,2013,16,1,3022.2000000178814,817432.5,7182,VNB,C,14
3,test,3,0.0,2-Back,0.0,m,Mon Jul 21 2025 17:08:05 GMT-0500 (Central Daylight Time),822654.099999994,014_m_m_n_a.png,O,z,1145,17,1,2161.199999988079,820492.900000006,7182,VNB,C,15
4,test,3,0.0,2-Back,1.0,z,Mon Jul 21 2025 17:08:05 GMT-0500 (Central Daylight Time),825019.599999994,025_y_m_h_a.png,O,z,1326,18,1,2337.699999988079,822681.900000006,7182,VNB,C,16
0,test,4,0.0,2-Back,,,Mon Jul 21 2025 17:08:05 GMT-0500 (Central Daylight Time),825019.599999994,019_m_f_n_a.png,O,space,2101,1,1,2337.699999988079,822681.900000006,7182,VNB,C,0
0,test,4,0.0,2-Back,,,Mon Jul 21 2025 17:08:05 GMT-0500 (Central Daylight Time),825019.599999994,015_o_m_n_a.png,O,space,2101,2,1,2337.699999988079,822681.900000006,7182,VNB,C,0
0,test,4,1.0,2-Back,0.0,m,Mon Jul 21 2025 17:08:05 GMT-0500 (Central Daylight Time),835216.3000000119,025_y_m_h_a.png,O,z,1612,3,1,2632.5999999940395,832583.7000000179,7182,VNB,C,1
1,test,4,1.0,2-Back,1.0,m,Mon Jul 21 2025 17:08:05 GMT-0500 (Central Daylight Time),837966.2000000179,012_o_f_d_a.png,O,m,1699,4,1,2720.5,835245.7000000179,7182,VNB,C,2
2,test,4,0.0,2-Back,1.0,z,Mon Jul 21 2025 17:08:05 GMT-0500 (Central Daylight Time),840414.5,015_o_m_h_a.png,O,z,1406,5,1,2425.9000000059605,837988.599999994,7182,VNB,C,3
2,test,4,0.0,2-Back,0.0,m,Mon Jul 21 2025 17:08:05 GMT-0500 (Central Daylight Time),843481.8000000119,014_m_m_n_a.png,O,None,2015,6,1,3028.0,840453.8000000119,7182,VNB,C,4
3,test,4,0.0,2-Back,1.0,m,Mon Jul 21 2025 17:08:05 GMT-0500 (Central Daylight Time),845496.2000000179,019_m_f_d_a.png,O,m,997,7,1,2003.1000000238419,843493.099999994,7182,VNB,C,5
3,test,4,0.0,2-Back,0.0,z,Mon Jul 21 2025 17:08:05 GMT-0500 (Central Daylight Time),848394.400000006,022_y_f_n_a.png,O,m,1832,8,1,2866.9000000059605,845527.5,7182,VNB,C,6
3,test,4,1.0,2-Back,0.0,m,Mon Jul 21 2025 17:08:05 GMT-0500 (Central Daylight Time),850527.900000006,012_o_f_h_a.png,O,z,1103,9,1,2123.9000000059605,848404.0,7182,VNB,C,7
4,test,4,0.0,2-Back,1.0,m,Mon Jul 21 2025 17:08:05 GMT-0500 (Central Daylight Time),853543.5,014_m_m_h_a.png,O,m,1959,10,1,2981.5999999940395,850561.900000006,7182,VNB,C,8
4,test,4,0.0,2-Back,0.0,m,Mon Jul 21 2025 17:08:05 GMT-0500 (Central Daylight Time),856542.5,022_y_f_d_a.png,O,z,1964,11,1,2972.0,853570.5,7182,VNB,C,9
5,test,4,0.0,2-Back,1.0,m,Mon Jul 21 2025 17:08:05 GMT-0500 (Central Daylight Time),858991.599999994,025_y_m_n_a.png,O,m,1413,12,1,2419.399999976158,856572.2000000179,7182,VNB,C,10
6,test,4,0.0,2-Back,1.0,z,Mon Jul 21 2025 17:08:05 GMT-0500 (Central Daylight Time),861424.599999994,015_o_m_d_a.png,O,z,1394,13,1,2402.899999976158,859021.7000000179,7182,VNB,C,11
6,test,4,1.0,2-Back,0.0,m,Mon Jul 21 2025 17:08:05 GMT-0500 (Central Daylight Time),864473.599999994,019_m_f_h_a.png,O,None,2015,14,1,3024.199999988079,861449.400000006,7182,VNB,C,12
6,test,4,1.0,2-Back,0.0,m,Mon Jul 21 2025 17:08:05 GMT-0500 (Central Daylight Time),867539.099999994,022_y_f_h_a.png,O,None,2015,15,1,3034.0999999940395,864505.0,7182,VNB,C,13
7,test,4,0.0,2-Back,1.0,m,Mon Jul 21 2025 17:08:05 GMT-0500 (Central Daylight Time),870071.5,012_o_f_n_a.png,O,m,1497,16,1,2504.199999988079,867567.3000000119,7182,VNB,C,14
7,test,4,0.0,2-Back,0.0,m,Mon Jul 21 2025 17:08:05 GMT-0500 (Central Daylight Time),872887.2000000179,025_y_m_d_a.png,O,z,1755,17,1,2784.5,870102.7000000179,7182,VNB,C,15
8,test,4,1.0,2-Back,1.0,m,Mon Jul 21 2025 17:08:05 GMT-0500 (Central Daylight Time),875502.900000006,014_m_m_d_a.png,O,m,1581,18,1,2588.199999988079,872914.7000000179,7182,VNB,C,16
0,test,5,1.0,2-Back,,,Mon Jul 21 2025 17:08:05 GMT-0500 (Central Daylight Time),875502.900000006,022_y_f_d_a.png,O,space,2484,1,1,2588.199999988079,872914.7000000179,7182,VNB,C,0
0,test,5,1.0,2-Back,,,Mon Jul 21 2025 17:08:05 GMT-0500 (Central Daylight Time),875502.900000006,012_o_f_h_a.png,O,space,2484,2,1,2588.199999988079,872914.7000000179,7182,VNB,C,0
0,test,5,1.0,2-Back,0.0,z,Mon Jul 21 2025 17:08:05 GMT-0500 (Central Daylight Time),886199.400000006,015_o_m_d_a.png,O,m,1729,3,1,2746.5,883452.900000006,7182,VNB,C,1
0,test,5,1.0,2-Back,0.0,m,Mon Jul 21 2025 17:08:05 GMT-0500 (Central Daylight Time),889248.7000000179,019_m_f_n_a.png,O,None,2015,4,1,3019.9000000059605,886228.8000000119,7182,VNB,C,2
0,test,5,0.0,2-Back,0.0,m,Mon Jul 21 2025 17:08:05 GMT-0500 (Central Daylight Time),891247.2000000179,014_m_m_h_a.png,O,z,962,5,1,1975.9000000059605,889271.3000000119,7182,VNB,C,3
1,test,5,0.0,2-Back,1.0,z,Mon Jul 21 2025 17:08:05 GMT-0500 (Central Daylight Time),894196.900000006,022_y_f_n_a.png,O,z,1924,6,1,2935.5,891261.400000006,7182,VNB,C,4
2,test,5,0.0,2-Back,1.0,m,Mon Jul 21 2025 17:08:05 GMT-0500 (Central Daylight Time),896446.2000000179,012_o_f_d_a.png,O,m,1207,7,1,2228.100000023842,894218.099999994,7182,VNB,C,5
3,test,5,0.0,2-Back,1.0,m,Mon Jul 21 2025 17:08:05 GMT-0500 (Central Daylight Time),898962.2000000179,015_o_m_h_a.png,O,m,1469,8,1,2491.800000011921,896470.400000006,7182,VNB,C,6
4,test,5,1.0,2-Back,1.0,z,Mon Jul 21 2025 17:08:05 GMT-0500 (Central Daylight Time),901111.400000006,019_m_f_d_a.png,O,z,1114,9,1,2125.9000000059605,898985.5,7182,VNB,C,7
4,test,5,0.0,2-Back,0.0,m,Mon Jul 21 2025 17:08:05 GMT-0500 (Central Daylight Time),904160.900000006,025_y_m_n_a.png,O,None,2016,10,1,3025.300000011921,901135.599999994,7182,VNB,C,8
5,test,5,0.0,2-Back,1.0,m,Mon Jul 21 2025 17:08:05 GMT-0500 (Central Daylight Time),906160.0,014_m_m_n_a.png,O,m,955,11,1,1974.199999988079,904185.8000000119,7182,VNB,C,9
5,test,5,0.0,2-Back,0.0,m,Mon Jul 21 2025 17:08:05 GMT-0500 (Central Daylight Time),908459.0,022_y_f_h_a.png,O,z,1251,12,1,2275.4000000059605,906183.599999994,7182,VNB,C,10
6,test,5,0.0,2-Back,1.0,m,Mon Jul 21 2025 17:08:05 GMT-0500 (Central Daylight Time),911041.3000000119,025_y_m_d_a.png,O,m,1538,13,1,2552.800000011921,908488.5,7182,VNB,C,11
6,test,5,1.0,2-Back,0.0,z,Mon Jul 21 2025 17:08:05 GMT-0500 (Central Daylight Time),913257.400000006,019_m_f_h_a.png,O,m,1178,14,1,2194.5999999940395,911062.8000000119,7182,VNB,C,12
6,test,5,0.0,2-Back,0.0,m,Mon Jul 21 2025 17:08:05 GMT-0500 (Central Daylight Time),916073.099999994,015_o_m_n_a.png,O,z,1770,15,1,2787.899999976158,913285.2000000179,7182,VNB,C,13
7,test,5,0.0,2-Back,1.0,m,Mon Jul 21 2025 17:08:05 GMT-0500 (Central Daylight Time),918422.3000000119,014_m_m_d_a.png,O,m,1314,16,1,2325.0,916097.3000000119,7182,VNB,C,14
8,test,5,0.0,2-Back,1.0,z,Mon Jul 21 2025 17:08:05 GMT-0500 (Central Daylight Time),920654.8000000119,012_o_f_n_a.png,O,z,1181,17,1,2194.800000011921,918460.0,7182,VNB,C,15
9,test,5,1.0,2-Back,1.0,m,Mon Jul 21 2025 17:08:05 GMT-0500 (Central Daylight Time),923453.900000006,025_y_m_h_a.png,O,m,1753,18,1,2770.9000000059605,920683.0,7182,VNB,C,16
