block_c,block_dur,condition,countdown,datetime,endtime,list,multichar_response,project,response,response_time,session_number,start_end,starttime,subject_id,task,task_vers,trial
,,,,Mon Nov 24 2025 16:20:03 GMT-0600 (Central Standard Time),,,,O,space,494,1,,,7709,WL,B,
prac,,0,,Mon Nov 24 2025 16:20:03 GMT-0600 (Central Standard Time),,NA,b,O,b,5094,1,,,7709,WL,B,1.0
prac,,0,,Mon Nov 24 2025 16:20:03 GMT-0600 (Central Standard Time),,NA,bo,O,o,527,1,,,7709,WL,B,1.0
prac,,0,,Mon Nov 24 2025 16:20:03 GMT-0600 (Central Standard Time),,NA,boo,O,o,186,1,,,7709,WL,B,1.0
prac,,0,,Mon Nov 24 2025 16:20:03 GMT-0600 (Central Standard Time),,NA,boos,O,s,135,1,,,7709,WL,B,1.0
prac,,0,,Mon Nov 24 2025 16:20:03 GMT-0600 (Central Standard Time),,NA,boost,O,t,171,1,,,7709,WL,B,1.0
prac,,0,,Mon Nov 24 2025 16:20:03 GMT-0600 (Central Standard Time),,NA,boostenter,O,enter,1394,1,,,7709,WL,B,1.0
1,3.5139999389648438,learn,56486.000061035156,Mon Nov 24 2025 16:20:03 GMT-0600 (Central Standard Time),161673.39999997616,A,s,O,s,3503,1,3514.199999988079,158159.19999998808,7709,WL,B,1.0
1,3.9159998893737793,learn,56084.00011062622,Mon Nov 24 2025 16:20:03 GMT-0600 (Central Standard Time),162074.69999998808,A,st,O,t,388,1,3915.5,158159.19999998808,7709,WL,B,1.0
1,4.21399998664856,learn,55786.00001335144,Mon Nov 24 2025 16:20:03 GMT-0600 (Central Standard Time),162373.5,A,str,O,r,281,1,4214.300000011921,158159.19999998808,7709,WL,B,1.0
1,4.513999938964844,learn,55486.000061035156,Mon Nov 24 2025 16:20:03 GMT-0600 (Central Standard Time),162673.09999999404,A,stre,O,e,278,1,4513.9000000059605,158159.19999998808,7709,WL,B,1.0
1,4.73199987411499,learn,55268.00012588501,Mon Nov 24 2025 16:20:03 GMT-0600 (Central Standard Time),162891.19999998808,A,stree,O,e,205,1,4732.0,158159.19999998808,7709,WL,B,1.0
1,4.915999889373779,learn,55084.00011062622,Mon Nov 24 2025 16:20:03 GMT-0600 (Central Standard Time),163074.79999998212,A,street,O,t,175,1,4915.5999999940395,158159.19999998808,7709,WL,B,1.0
1,6.079999923706055,learn,53920.000076293945,Mon Nov 24 2025 16:20:03 GMT-0600 (Central Standard Time),164238.79999998212,A,streetenter,O,enter,1152,1,6079.5999999940395,158159.19999998808,7709,WL,B,1.0
1,8.878999948501587,learn,51121.00005149841,Mon Nov 24 2025 16:20:03 GMT-0600 (Central Standard Time),167038.39999997616,A,p,O,p,2790,1,2799.199999988079,164239.19999998808,7709,WL,B,2.0
1,9.229000091552734,learn,50770.999908447266,Mon Nov 24 2025 16:20:03 GMT-0600 (Central Standard Time),167388.5,A,pu,O,u,345,1,3149.300000011921,164239.19999998808,7709,WL,B,2.0
1,9.51200008392334,learn,50487.99991607666,Mon Nov 24 2025 16:20:03 GMT-0600 (Central Standard Time),167672.0,A,pup,O,p,261,1,3432.800000011921,164239.19999998808,7709,WL,B,2.0
1,9.797999858856201,learn,50202.0001411438,Mon Nov 24 2025 16:20:03 GMT-0600 (Central Standard Time),167957.69999998808,A,pupi,O,i,276,1,3718.5,164239.19999998808,7709,WL,B,2.0
1,10.07800006866455,learn,49921.99993133545,Mon Nov 24 2025 16:20:03 GMT-0600 (Central Standard Time),168237.69999998808,A,pupil,O,l,271,1,3998.5,164239.19999998808,7709,WL,B,2.0
1,10.411999940872192,learn,49588.00005912781,Mon Nov 24 2025 16:20:03 GMT-0600 (Central Standard Time),168571.19999998808,A,pupilenter,O,enter,328,1,4332.0,164239.19999998808,7709,WL,B,2.0
1,11.66100001335144,learn,48338.99998664856,Mon Nov 24 2025 16:20:03 GMT-0600 (Central Standard Time),169820.5,A,p,O,p,1242,1,1248.9000000059605,168571.59999999404,7709,WL,B,3.0
1,11.977999925613403,learn,48022.0000743866,Mon Nov 24 2025 16:20:03 GMT-0600 (Central Standard Time),170138.0,A,pi,O,i,294,1,1566.4000000059605,168571.59999999404,7709,WL,B,3.0
1,12.227999925613403,learn,47772.0000743866,Mon Nov 24 2025 16:20:03 GMT-0600 (Central Standard Time),170387.89999997616,A,pip,O,p,242,1,1816.2999999821186,168571.59999999404,7709,WL,B,3.0
1,12.444999933242798,learn,47555.0000667572,Mon Nov 24 2025 16:20:03 GMT-0600 (Central Standard Time),170605.0,A,pipe,O,e,197,1,2033.4000000059605,168571.59999999404,7709,WL,B,3.0
1,12.744999885559082,learn,47255.00011444092,Mon Nov 24 2025 16:20:03 GMT-0600 (Central Standard Time),170904.29999998212,A,pipeenter,O,enter,280,1,2332.699999988079,168571.59999999404,7709,WL,B,3.0
1,13.611000061035156,learn,46388.999938964844,Mon Nov 24 2025 16:20:03 GMT-0600 (Central Standard Time),171770.89999997616,A,w,O,w,852,1,866.1999999880791,170904.69999998808,7709,WL,B,4.0
1,13.810999870300293,learn,46189.00012969971,Mon Nov 24 2025 16:20:03 GMT-0600 (Central Standard Time),171970.79999998212,A,wi,O,i,187,1,1066.0999999940395,170904.69999998808,7709,WL,B,4.0
1,14.010999917984009,learn,45989.00008201599,Mon Nov 24 2025 16:20:03 GMT-0600 (Central Standard Time),172170.89999997616,A,wif,O,f,187,1,1266.199999988079,170904.69999998808,7709,WL,B,4.0
1,14.177000045776367,learn,45822.99995422363,Mon Nov 24 2025 16:20:03 GMT-0600 (Central Standard Time),172336.89999997616,A,wife,O,e,155,1,1432.199999988079,170904.69999998808,7709,WL,B,4.0
1,14.460000038146973,learn,45539.99996185303,Mon Nov 24 2025 16:20:03 GMT-0600 (Central Standard Time),172620.19999998808,A,wifeenter,O,enter,269,1,1715.5,170904.69999998808,7709,WL,B,4.0
1,16.376999855041504,learn,43623.000144958496,Mon Nov 24 2025 16:20:03 GMT-0600 (Central Standard Time),174536.39999997616,A,g,O,g,1896,1,1916.0,172620.39999997616,7709,WL,B,5.0
1,16.625999927520752,learn,43374.00007247925,Mon Nov 24 2025 16:20:03 GMT-0600 (Central Standard Time),174786.0,A,gr,O,r,235,1,2165.600000023842,172620.39999997616,7709,WL,B,5.0
1,16.858999967575073,learn,43141.00003242493,Mon Nov 24 2025 16:20:03 GMT-0600 (Central Standard Time),175018.5,A,gra,O,a,228,1,2398.100000023842,172620.39999997616,7709,WL,B,5.0
1,17.092000007629395,learn,42907.999992370605,Mon Nov 24 2025 16:20:03 GMT-0600 (Central Standard Time),175252.09999999404,A,gras,O,s,228,1,2631.7000000178814,172620.39999997616,7709,WL,B,5.0
1,17.243000030517578,learn,42756.99996948242,Mon Nov 24 2025 16:20:03 GMT-0600 (Central Standard Time),175403.19999998808,A,grass,O,s,147,1,2782.800000011921,172620.39999997616,7709,WL,B,5.0
1,17.609999895095825,learn,42390.000104904175,Mon Nov 24 2025 16:20:03 GMT-0600 (Central Standard Time),175769.79999998212,A,grassenter,O,enter,352,1,3149.4000000059605,172620.39999997616,7709,WL,B,5.0
1,18.460000038146973,learn,41539.99996185303,Mon Nov 24 2025 16:20:03 GMT-0600 (Central Standard Time),176619.79999998212,A,d,O,d,838,1,849.7999999821186,175770.0,7709,WL,B,6.0
1,18.609999895095825,learn,41390.000104904175,Mon Nov 24 2025 16:20:03 GMT-0600 (Central Standard Time),176770.0,A,do,O,o,128,1,1000.0,175770.0,7709,WL,B,6.0
1,18.776000022888184,learn,41223.99997711182,Mon Nov 24 2025 16:20:03 GMT-0600 (Central Standard Time),176936.19999998808,A,doo,O,o,154,1,1166.199999988079,175770.0,7709,WL,B,6.0
1,18.9760000705719,learn,41023.9999294281,Mon Nov 24 2025 16:20:03 GMT-0600 (Central Standard Time),177135.59999999404,A,door,O,r,182,1,1365.5999999940395,175770.0,7709,WL,B,6.0
1,19.740999937057495,learn,40259.000062942505,Mon Nov 24 2025 16:20:03 GMT-0600 (Central Standard Time),177900.79999998212,A,doorenter,O,enter,749,1,2130.7999999821186,175770.0,7709,WL,B,6.0
1,20.30900001525879,learn,39690.99998474121,Mon Nov 24 2025 16:20:03 GMT-0600 (Central Standard Time),178468.29999998212,A,w,O,w,554,1,567.2999999821186,177901.0,7709,WL,B,7.0
1,20.47499990463257,learn,39525.00009536743,Mon Nov 24 2025 16:20:03 GMT-0600 (Central Standard Time),178634.79999998212,A,wi,O,i,153,1,733.7999999821186,177901.0,7709,WL,B,7.0
1,20.693000078201294,learn,39306.999921798706,Mon Nov 24 2025 16:20:03 GMT-0600 (Central Standard Time),178853.0,A,win,O,n,213,1,952.0,177901.0,7709,WL,B,7.0
1,20.89299988746643,learn,39107.00011253357,Mon Nov 24 2025 16:20:03 GMT-0600 (Central Standard Time),179052.59999999404,A,wind,O,d,174,1,1151.5999999940395,177901.0,7709,WL,B,7.0
1,21.157999992370605,learn,38842.000007629395,Mon Nov 24 2025 16:20:03 GMT-0600 (Central Standard Time),179318.19999998808,A,windo,O,o,247,1,1417.199999988079,177901.0,7709,WL,B,7.0
1,21.342000007629395,learn,38657.999992370605,Mon Nov 24 2025 16:20:03 GMT-0600 (Central Standard Time),179501.59999999404,A,window,O,w,166,1,1600.5999999940395,177901.0,7709,WL,B,7.0
1,21.70899987220764,learn,38291.00012779236,Mon Nov 24 2025 16:20:03 GMT-0600 (Central Standard Time),179869.09999999404,A,windowenter,O,enter,349,1,1968.0999999940395,177901.0,7709,WL,B,7.0
1,24.657000064849854,learn,35342.99993515015,Mon Nov 24 2025 16:20:03 GMT-0600 (Central Standard Time),182817.19999998808,A,s,O,s,2929,1,2947.9000000059605,179869.29999998212,7709,WL,B,8.0
1,25.058000087738037,learn,34941.99991226196,Mon Nov 24 2025 16:20:03 GMT-0600 (Central Standard Time),183217.39999997616,A,st,O,t,388,1,3348.0999999940395,179869.29999998212,7709,WL,B,8.0
1,25.44099998474121,learn,34559.00001525879,Mon Nov 24 2025 16:20:03 GMT-0600 (Central Standard Time),183600.59999999404,A,sta,O,a,363,1,3731.300000011921,179869.29999998212,7709,WL,B,8.0
1,25.707000017166138,learn,34292.99998283386,Mon Nov 24 2025 16:20:03 GMT-0600 (Central Standard Time),183867.09999999404,A,star,O,r,254,1,3997.800000011921,179869.29999998212,7709,WL,B,8.0
1,26.091000080108643,learn,33908.99991989136,Mon Nov 24 2025 16:20:03 GMT-0600 (Central Standard Time),184250.29999998212,A,starenter,O,enter,377,1,4381.0,179869.29999998212,7709,WL,B,8.0
1,26.808000087738037,learn,33191.99991226196,Mon Nov 24 2025 16:20:03 GMT-0600 (Central Standard Time),184967.59999999404,A,l,O,l,707,1,716.9000000059605,184250.69999998808,7709,WL,B,9.0
1,27.039999961853027,learn,32960.00003814697,Mon Nov 24 2025 16:20:03 GMT-0600 (Central Standard Time),185199.79999998212,A,la,O,a,223,1,949.0999999940395,184250.69999998808,7709,WL,B,9.0
1,27.556999921798706,learn,32443.000078201294,Mon Nov 24 2025 16:20:03 GMT-0600 (Central Standard Time),185717.19999998808,A,lak,O,k,501,1,1466.5,184250.69999998808,7709,WL,B,9.0
1,27.707000017166138,learn,32292.999982833862,Mon Nov 24 2025 16:20:03 GMT-0600 (Central Standard Time),185867.19999998808,A,lake,O,e,143,1,1616.5,184250.69999998808,7709,WL,B,9.0
1,28.73799991607666,learn,31262.00008392334,Mon Nov 24 2025 16:20:03 GMT-0600 (Central Standard Time),186898.19999998808,A,lakeenter,O,enter,1009,1,2647.5,184250.69999998808,7709,WL,B,9.0
1,29.139999866485596,learn,30860.000133514404,Mon Nov 24 2025 16:20:03 GMT-0600 (Central Standard Time),187300.0,A,c,O,c,387,1,401.5,186898.5,7709,WL,B,10.0
1,29.371999979019165,learn,30628.000020980835,Mon Nov 24 2025 16:20:03 GMT-0600 (Central Standard Time),187531.89999997616,A,ca,O,a,215,1,633.3999999761581,186898.5,7709,WL,B,10.0
1,29.60599994659424,learn,30394.00005340576,Mon Nov 24 2025 16:20:03 GMT-0600 (Central Standard Time),187766.89999997616,A,cab,O,b,223,1,868.3999999761581,186898.5,7709,WL,B,10.0
1,29.77300000190735,learn,30226.99999809265,Mon Nov 24 2025 16:20:03 GMT-0600 (Central Standard Time),187933.19999998808,A,cabi,O,i,152,1,1034.699999988079,186898.5,7709,WL,B,10.0
1,29.94000005722046,learn,30059.99994277954,Mon Nov 24 2025 16:20:03 GMT-0600 (Central Standard Time),188099.59999999404,A,cabin,O,n,150,1,1201.0999999940395,186898.5,7709,WL,B,10.0
1,30.838000059127808,learn,29161.999940872192,Mon Nov 24 2025 16:20:03 GMT-0600 (Central Standard Time),188997.89999997616,A,cabinenter,O,enter,881,1,2099.399999976158,186898.5,7709,WL,B,10.0
1,31.25499987602234,learn,28745.00012397766,Mon Nov 24 2025 16:20:03 GMT-0600 (Central Standard Time),189414.89999997616,A,f,O,f,408,1,416.69999998807907,188998.19999998808,7709,WL,B,11.0
1,31.40499997138977,learn,28595.00002861023,Mon Nov 24 2025 16:20:03 GMT-0600 (Central Standard Time),189565.19999998808,A,fi,O,i,133,1,567.0,188998.19999998808,7709,WL,B,11.0
1,31.57200002670288,learn,28427.99997329712,Mon Nov 24 2025 16:20:03 GMT-0600 (Central Standard Time),189731.5,A,fir,O,r,152,1,733.3000000119209,188998.19999998808,7709,WL,B,11.0
1,31.721999883651733,learn,28278.000116348267,Mon Nov 24 2025 16:20:03 GMT-0600 (Central Standard Time),189881.89999997616,A,fire,O,e,144,1,883.6999999880791,188998.19999998808,7709,WL,B,11.0
1,32.305999994277954,learn,27694.000005722046,Mon Nov 24 2025 16:20:03 GMT-0600 (Central Standard Time),190465.59999999404,A,fireenter,O,enter,565,1,1467.4000000059605,188998.19999998808,7709,WL,B,11.0
1,34.70300006866455,learn,25296.99993133545,Mon Nov 24 2025 16:20:03 GMT-0600 (Central Standard Time),192863.19999998808,A,s,O,s,2388,1,2397.4000000059605,190465.79999998212,7709,WL,B,12.0
1,34.95899987220764,learn,25041.00012779236,Mon Nov 24 2025 16:20:03 GMT-0600 (Central Standard Time),193118.69999998808,A,sk,O,k,232,1,2652.9000000059605,190465.79999998212,7709,WL,B,12.0
1,35.170000076293945,learn,24829.999923706055,Mon Nov 24 2025 16:20:03 GMT-0600 (Central Standard Time),193330.09999999404,A,ski,O,i,199,1,2864.300000011921,190465.79999998212,7709,WL,B,12.0
1,35.270999908447266,learn,24729.000091552734,Mon Nov 24 2025 16:20:03 GMT-0600 (Central Standard Time),193430.39999997616,A,skin,O,n,89,1,2964.5999999940395,190465.79999998212,7709,WL,B,12.0
1,35.6710000038147,learn,24328.999996185303,Mon Nov 24 2025 16:20:03 GMT-0600 (Central Standard Time),193830.29999998212,A,skinenter,O,enter,382,1,3364.5,190465.79999998212,7709,WL,B,12.0
1,44.73799991607666,learn,15262.00008392334,Mon Nov 24 2025 16:20:03 GMT-0600 (Central Standard Time),202898.19999998808,A,a,O,a,9063,1,9067.59999999404,193830.59999999404,7709,WL,B,13.0
1,44.95099997520447,learn,15049.000024795532,Mon Nov 24 2025 16:20:03 GMT-0600 (Central Standard Time),203111.09999999404,A,ar,O,r,195,1,9280.5,193830.59999999404,7709,WL,B,13.0
1,45.532999992370605,learn,14467.000007629395,Mon Nov 24 2025 16:20:03 GMT-0600 (Central Standard Time),203693.19999998808,A,arr,O,r,558,1,9862.59999999404,193830.59999999404,7709,WL,B,13.0
1,46.0,learn,14000.0,Mon Nov 24 2025 16:20:03 GMT-0600 (Central Standard Time),204159.89999997616,A,ar,O,backspace,452,1,10329.299999982119,193830.59999999404,7709,WL,B,13.0
1,46.269999980926514,learn,13730.000019073486,Mon Nov 24 2025 16:20:03 GMT-0600 (Central Standard Time),204429.5,A,arm,O,m,252,1,10598.90000000596,193830.59999999404,7709,WL,B,13.0
1,46.651999950408936,learn,13348.000049591064,Mon Nov 24 2025 16:20:03 GMT-0600 (Central Standard Time),204811.79999998212,A,armenter,O,enter,376,1,10981.199999988079,193830.59999999404,7709,WL,B,13.0
1,50.700000047683716,learn,9299.999952316284,Mon Nov 24 2025 16:20:03 GMT-0600 (Central Standard Time),208859.39999997616,A,d,O,d,4042,1,4047.5,204811.89999997616,7709,WL,B,14.0
1,50.88199996948242,learn,9118.000030517578,Mon Nov 24 2025 16:20:03 GMT-0600 (Central Standard Time),209042.19999998808,A,do,O,o,169,1,4230.300000011921,204811.89999997616,7709,WL,B,14.0
1,51.08299994468689,learn,8917.00005531311,Mon Nov 24 2025 16:20:03 GMT-0600 (Central Standard Time),209242.59999999404,A,doo,O,o,188,1,4430.700000017881,204811.89999997616,7709,WL,B,14.0
1,51.21600008010864,learn,8783.999919891357,Mon Nov 24 2025 16:20:03 GMT-0600 (Central Standard Time),209375.79999998212,A,door,O,r,122,1,4563.9000000059605,204811.89999997616,7709,WL,B,14.0
1,51.514999866485596,learn,8485.000133514404,Mon Nov 24 2025 16:20:03 GMT-0600 (Central Standard Time),209675.09999999404,A,doorenter,O,enter,279,1,4863.200000017881,204811.89999997616,7709,WL,B,14.0
1,60.01300001144409,learn,-13.000011444091797,Mon Nov 24 2025 16:20:03 GMT-0600 (Central Standard Time),218172.89999997616,A,None,O,None,8492,1,8497.59999999404,209675.29999998212,7709,WL,B,15.0
2,1.6319999694824219,learn,58368.00003051758,Mon Nov 24 2025 16:20:03 GMT-0600 (Central Standard Time),291248.09999999404,A,s,O,s,1622,1,1631.7000000178814,289616.39999997616,7709,WL,B,1.0
2,1.9830000400543213,learn,58016.99995994568,Mon Nov 24 2025 16:20:03 GMT-0600 (Central Standard Time),291599.2999999821,A,st,O,t,335,1,1982.9000000059605,289616.39999997616,7709,WL,B,1.0
2,2.317000150680542,learn,57682.99984931946,Mon Nov 24 2025 16:20:03 GMT-0600 (Central Standard Time),291932.7999999821,A,str,O,r,319,1,2316.4000000059605,289616.39999997616,7709,WL,B,1.0
2,2.633000135421753,learn,57366.99986457825,Mon Nov 24 2025 16:20:03 GMT-0600 (Central Standard Time),292249.09999999404,A,stre,O,e,298,1,2632.7000000178814,289616.39999997616,7709,WL,B,1.0
2,2.815999984741211,learn,57184.00001525879,Mon Nov 24 2025 16:20:03 GMT-0600 (Central Standard Time),292432.59999999404,A,stree,O,e,162,1,2816.2000000178814,289616.39999997616,7709,WL,B,1.0
2,2.9830000400543213,learn,57016.99995994568,Mon Nov 24 2025 16:20:03 GMT-0600 (Central Standard Time),292599.39999997616,A,street,O,t,148,1,2983.0,289616.39999997616,7709,WL,B,1.0
2,4.549000024795532,learn,55450.99997520447,Mon Nov 24 2025 16:20:03 GMT-0600 (Central Standard Time),294165.59999999404,A,streetg,O,g,1560,1,4549.200000017881,289616.39999997616,7709,WL,B,1.0
2,4.7820000648498535,learn,55217.99993515015,Mon Nov 24 2025 16:20:03 GMT-0600 (Central Standard Time),294398.09999999404,A,streetgr,O,r,226,1,4781.700000017881,289616.39999997616,7709,WL,B,1.0
2,5.0350000858306885,learn,54964.99991416931,Mon Nov 24 2025 16:20:03 GMT-0600 (Central Standard Time),294650.89999997616,A,streetgra,O,a,230,1,5034.5,289616.39999997616,7709,WL,B,1.0
2,5.54800009727478,learn,54451.99990272522,Mon Nov 24 2025 16:20:03 GMT-0600 (Central Standard Time),295163.89999997616,A,streetgr,O,backspace,498,1,5547.5,289616.39999997616,7709,WL,B,1.0
2,5.748000144958496,learn,54251.999855041504,Mon Nov 24 2025 16:20:03 GMT-0600 (Central Standard Time),295364.5,A,streetg,O,backspace,196,1,5748.100000023842,289616.39999997616,7709,WL,B,1.0
2,5.898000001907349,learn,54101.99999809265,Mon Nov 24 2025 16:20:03 GMT-0600 (Central Standard Time),295514.39999997616,A,street,O,backspace,143,1,5898.0,289616.39999997616,7709,WL,B,1.0
2,6.447000026702881,learn,53552.99997329712,Mon Nov 24 2025 16:20:03 GMT-0600 (Central Standard Time),296063.39999997616,A,streetenter,O,enter,530,1,6447.0,289616.39999997616,7709,WL,B,1.0
2,7.065000057220459,learn,52934.99994277954,Mon Nov 24 2025 16:20:03 GMT-0600 (Central Standard Time),296681.2999999821,A,g,O,g,598,1,617.6999999880791,296063.59999999404,7709,WL,B,2.0
2,7.315000057220459,learn,52684.99994277954,Mon Nov 24 2025 16:20:03 GMT-0600 (Central Standard Time),296931.6999999881,A,gr,O,r,237,1,868.0999999940395,296063.59999999404,7709,WL,B,2.0
2,7.581000089645386,learn,52418.999910354614,Mon Nov 24 2025 16:20:03 GMT-0600 (Central Standard Time),297197.09999999404,A,gra,O,a,259,1,1133.5,296063.59999999404,7709,WL,B,2.0
2,7.831000089645386,learn,52168.999910354614,Mon Nov 24 2025 16:20:03 GMT-0600 (Central Standard Time),297447.39999997616,A,gras,O,s,233,1,1383.7999999821186,296063.59999999404,7709,WL,B,2.0
2,8.015000104904175,learn,51984.999895095825,Mon Nov 24 2025 16:20:03 GMT-0600 (Central Standard Time),297631.09999999404,A,grass,O,s,167,1,1567.5,296063.59999999404,7709,WL,B,2.0
2,8.299000024795532,learn,51700.99997520447,Mon Nov 24 2025 16:20:03 GMT-0600 (Central Standard Time),297915.2999999821,A,grassenter,O,enter,264,1,1851.699999988079,296063.59999999404,7709,WL,B,2.0
2,8.88100004196167,learn,51118.99995803833,Mon Nov 24 2025 16:20:03 GMT-0600 (Central Standard Time),298497.59999999404,A,w,O,w,562,1,582.0,297915.59999999404,7709,WL,B,3.0
2,9.13100004196167,learn,50868.99995803833,Mon Nov 24 2025 16:20:03 GMT-0600 (Central Standard Time),298746.6999999881,A,wi,O,i,243,1,831.0999999940395,297915.59999999404,7709,WL,B,3.0
2,9.314000129699707,learn,50685.99987030029,Mon Nov 24 2025 16:20:03 GMT-0600 (Central Standard Time),298929.89999997616,A,wif,O,f,177,1,1014.2999999821186,297915.59999999404,7709,WL,B,3.0
2,9.52999997138977,learn,50470.00002861023,Mon Nov 24 2025 16:20:03 GMT-0600 (Central Standard Time),299146.59999999404,A,wife,O,e,211,1,1231.0,297915.59999999404,7709,WL,B,3.0
2,9.914000034332275,learn,50085.999965667725,Mon Nov 24 2025 16:20:03 GMT-0600 (Central Standard Time),299530.09999999404,A,wifeenter,O,enter,371,1,1614.5,297915.59999999404,7709,WL,B,3.0
2,10.532000064849854,learn,49467.99993515015,Mon Nov 24 2025 16:20:03 GMT-0600 (Central Standard Time),300147.6999999881,A,p,O,p,604,1,617.4000000059605,299530.2999999821,7709,WL,B,4.0
2,10.746999979019165,learn,49253.000020980835,Mon Nov 24 2025 16:20:03 GMT-0600 (Central Standard Time),300363.0,A,pi,O,i,201,1,832.7000000178814,299530.2999999821,7709,WL,B,4.0
2,10.947999954223633,learn,49052.00004577637,Mon Nov 24 2025 16:20:03 GMT-0600 (Central Standard Time),300564.5,A,pip,O,p,194,1,1034.2000000178814,299530.2999999821,7709,WL,B,4.0
2,11.148000001907349,learn,48851.99999809265,Mon Nov 24 2025 16:20:03 GMT-0600 (Central Standard Time),300764.2999999821,A,pipe,O,e,184,1,1234.0,299530.2999999821,7709,WL,B,4.0
2,11.562999963760376,learn,48437.000036239624,Mon Nov 24 2025 16:20:03 GMT-0600 (Central Standard Time),301179.1999999881,A,pipeenter,O,enter,403,1,1648.9000000059605,299530.2999999821,7709,WL,B,4.0
2,11.930000066757202,learn,48069.9999332428,Mon Nov 24 2025 16:20:03 GMT-0600 (Central Standard Time),301546.0,A,c,O,c,346,1,366.60000002384186,301179.39999997616,7709,WL,B,5.0
2,12.046000003814697,learn,47953.9999961853,Mon Nov 24 2025 16:20:03 GMT-0600 (Central Standard Time),301662.39999997616,A,ci,O,i,108,1,483.0,301179.39999997616,7709,WL,B,5.0
2,12.296000003814697,learn,47703.9999961853,Mon Nov 24 2025 16:20:03 GMT-0600 (Central Standard Time),301912.2999999821,A,cit,O,t,230,1,732.9000000059605,301179.39999997616,7709,WL,B,5.0
2,12.463000059127808,learn,47536.99994087219,Mon Nov 24 2025 16:20:03 GMT-0600 (Central Standard Time),302078.7999999821,A,city,O,y,155,1,899.4000000059605,301179.39999997616,7709,WL,B,5.0
2,12.914999961853027,learn,47085.00003814697,Mon Nov 24 2025 16:20:03 GMT-0600 (Central Standard Time),302531.1999999881,A,cityenter,O,enter,448,1,1351.800000011921,301179.39999997616,7709,WL,B,5.0
2,13.378999948501587,learn,46621.00005149841,Mon Nov 24 2025 16:20:03 GMT-0600 (Central Standard Time),302995.0,A,s,O,s,458,1,463.5,302531.5,7709,WL,B,6.0
2,13.611999988555908,learn,46388.00001144409,Mon Nov 24 2025 16:20:03 GMT-0600 (Central Standard Time),303228.39999997616,A,st,O,t,218,1,696.8999999761581,302531.5,7709,WL,B,6.0
2,13.845999956130981,learn,46154.00004386902,Mon Nov 24 2025 16:20:03 GMT-0600 (Central Standard Time),303461.7999999821,A,sta,O,a,219,1,930.2999999821186,302531.5,7709,WL,B,6.0
2,13.96399998664856,learn,46036.00001335144,Mon Nov 24 2025 16:20:03 GMT-0600 (Central Standard Time),303579.89999997616,A,star,O,r,115,1,1048.3999999761581,302531.5,7709,WL,B,6.0
2,14.511000156402588,learn,45488.99984359741,Mon Nov 24 2025 16:20:03 GMT-0600 (Central Standard Time),304127.39999997616,A,starenter,O,enter,536,1,1595.8999999761581,302531.5,7709,WL,B,6.0
2,14.980999946594238,learn,45019.00005340576,Mon Nov 24 2025 16:20:03 GMT-0600 (Central Standard Time),304596.89999997616,A,d,O,d,448,1,469.19999998807907,304127.6999999881,7709,WL,B,7.0
2,15.148000001907349,learn,44851.99999809265,Mon Nov 24 2025 16:20:03 GMT-0600 (Central Standard Time),304764.2999999821,A,do,O,o,144,1,636.5999999940395,304127.6999999881,7709,WL,B,7.0
2,15.328999996185303,learn,44671.0000038147,Mon Nov 24 2025 16:20:03 GMT-0600 (Central Standard Time),304945.2999999821,A,doo,O,o,161,1,817.5999999940395,304127.6999999881,7709,WL,B,7.0
2,15.495000123977661,learn,44504.99987602234,Mon Nov 24 2025 16:20:03 GMT-0600 (Central Standard Time),305111.0,A,door,O,r,151,1,983.3000000119209,304127.6999999881,7709,WL,B,7.0
2,16.045000076293945,learn,43954.999923706055,Mon Nov 24 2025 16:20:03 GMT-0600 (Central Standard Time),305661.6999999881,A,doorenter,O,enter,536,1,1534.0,304127.6999999881,7709,WL,B,7.0
2,16.394999980926514,learn,43605.000019073486,Mon Nov 24 2025 16:20:03 GMT-0600 (Central Standard Time),306010.89999997616,A,w,O,w,344,1,349.0,305661.89999997616,7709,WL,B,8.0
2,16.644999980926514,learn,43355.000019073486,Mon Nov 24 2025 16:20:03 GMT-0600 (Central Standard Time),306261.09999999404,A,wi,O,i,244,1,599.2000000178814,305661.89999997616,7709,WL,B,8.0
2,16.92900013923645,learn,43070.99986076355,Mon Nov 24 2025 16:20:03 GMT-0600 (Central Standard Time),306545.2999999821,A,win,O,n,271,1,883.4000000059605,305661.89999997616,7709,WL,B,8.0
2,17.09500002861023,learn,42904.99997138977,Mon Nov 24 2025 16:20:03 GMT-0600 (Central Standard Time),306711.1999999881,A,wind,O,d,156,1,1049.300000011921,305661.89999997616,7709,WL,B,8.0
2,17.296000003814697,learn,42703.9999961853,Mon Nov 24 2025 16:20:03 GMT-0600 (Central Standard Time),306912.39999997616,A,windo,O,o,182,1,1250.5,305661.89999997616,7709,WL,B,8.0
2,17.478000164031982,learn,42521.99983596802,Mon Nov 24 2025 16:20:03 GMT-0600 (Central Standard Time),307094.0,A,window,O,w,165,1,1432.1000000238419,305661.89999997616,7709,WL,B,8.0
2,17.67799997329712,learn,42322.00002670288,Mon Nov 24 2025 16:20:03 GMT-0600 (Central Standard Time),307294.59999999404,A,windown,O,n,184,1,1632.7000000178814,305661.89999997616,7709,WL,B,8.0
2,18.409000158309937,learn,41590.99984169006,Mon Nov 24 2025 16:20:03 GMT-0600 (Central Standard Time),308025.6999999881,A,window,O,backspace,720,1,2363.800000011921,305661.89999997616,7709,WL,B,8.0
2,18.74500012397766,learn,41254.99987602234,Mon Nov 24 2025 16:20:03 GMT-0600 (Central Standard Time),308361.0,A,windowenter,O,enter,317,1,2699.100000023842,305661.89999997616,7709,WL,B,8.0
2,20.028000116348267,learn,39971.99988365173,Mon Nov 24 2025 16:20:03 GMT-0600 (Central Standard Time),309643.7999999821,A,c,O,c,1277,1,1282.5,308361.2999999821,7709,WL,B,9.0
2,20.22699999809265,learn,39773.00000190735,Mon Nov 24 2025 16:20:03 GMT-0600 (Central Standard Time),309843.5,A,ca,O,a,194,1,1482.2000000178814,308361.2999999821,7709,WL,B,9.0
2,20.460000038146973,learn,39539.99996185303,Mon Nov 24 2025 16:20:03 GMT-0600 (Central Standard Time),310076.39999997616,A,cab,O,b,217,1,1715.0999999940395,308361.2999999821,7709,WL,B,9.0
2,20.610000133514404,learn,39389.999866485596,Mon Nov 24 2025 16:20:03 GMT-0600 (Central Standard Time),310226.5,A,cabi,O,i,137,1,1865.2000000178814,308361.2999999821,7709,WL,B,9.0
2,20.72699999809265,learn,39273.00000190735,Mon Nov 24 2025 16:20:03 GMT-0600 (Central Standard Time),310343.39999997616,A,cabin,O,n,96,1,1982.0999999940395,308361.2999999821,7709,WL,B,9.0
2,21.276999950408936,learn,38723.000049591064,Mon Nov 24 2025 16:20:03 GMT-0600 (Central Standard Time),310892.89999997616,A,cabinenter,O,enter,540,1,2531.5999999940395,308361.2999999821,7709,WL,B,9.0
2,21.759999990463257,learn,38240.00000953674,Mon Nov 24 2025 16:20:03 GMT-0600 (Central Standard Time),311376.2999999821,A,l,O,l,473,1,483.19999998807907,310893.09999999404,7709,WL,B,10.0
2,22.026999950408936,learn,37973.000049591064,Mon Nov 24 2025 16:20:03 GMT-0600 (Central Standard Time),311643.2999999821,A,la,O,a,240,1,750.1999999880791,310893.09999999404,7709,WL,B,10.0
2,22.176000118255615,learn,37823.999881744385,Mon Nov 24 2025 16:20:03 GMT-0600 (Central Standard Time),311792.5,A,lak,O,k,136,1,899.4000000059605,310893.09999999404,7709,WL,B,10.0
2,22.41100001335144,learn,37588.99998664856,Mon Nov 24 2025 16:20:03 GMT-0600 (Central Standard Time),312026.6999999881,A,lake,O,e,225,1,1133.5999999940395,310893.09999999404,7709,WL,B,10.0
2,23.242000102996826,learn,36757.999897003174,Mon Nov 24 2025 16:20:03 GMT-0600 (Central Standard Time),312857.7999999821,A,lakeenter,O,enter,807,1,1964.699999988079,310893.09999999404,7709,WL,B,10.0
2,24.009999990463257,learn,35990.00000953674,Mon Nov 24 2025 16:20:03 GMT-0600 (Central Standard Time),313626.1999999881,A,s,O,s,756,1,768.0999999940395,312858.09999999404,7709,WL,B,11.0
2,24.278000116348267,learn,35721.99988365173,Mon Nov 24 2025 16:20:03 GMT-0600 (Central Standard Time),313894.5,A,si,O,i,249,1,1036.4000000059605,312858.09999999404,7709,WL,B,11.0
2,24.825000047683716,learn,35174.999952316284,Mon Nov 24 2025 16:20:03 GMT-0600 (Central Standard Time),314441.6999999881,A,s,O,backspace,523,1,1583.5999999940395,312858.09999999404,7709,WL,B,11.0
2,25.0770001411438,learn,34922.9998588562,Mon Nov 24 2025 16:20:03 GMT-0600 (Central Standard Time),314693.1999999881,A,sk,O,k,241,1,1835.0999999940395,312858.09999999404,7709,WL,B,11.0
2,25.259999990463257,learn,34740.00000953674,Mon Nov 24 2025 16:20:03 GMT-0600 (Central Standard Time),314876.39999997616,A,ski,O,i,166,1,2018.2999999821186,312858.09999999404,7709,WL,B,11.0
2,25.409000158309937,learn,34590.99984169006,Mon Nov 24 2025 16:20:03 GMT-0600 (Central Standard Time),315024.7999999821,A,skin,O,n,129,1,2166.699999988079,312858.09999999404,7709,WL,B,11.0
2,26.006999969482422,learn,33993.00003051758,Mon Nov 24 2025 16:20:03 GMT-0600 (Central Standard Time),315623.5,A,skinenter,O,enter,575,1,2765.4000000059605,312858.09999999404,7709,WL,B,11.0
2,26.292999982833862,learn,33707.00001716614,Mon Nov 24 2025 16:20:03 GMT-0600 (Central Standard Time),315909.09999999404,A,a,O,a,278,1,285.30000001192093,315623.7999999821,7709,WL,B,12.0
2,26.52500009536743,learn,33474.99990463257,Mon Nov 24 2025 16:20:03 GMT-0600 (Central Standard Time),316140.6999999881,A,ar,O,r,222,1,516.9000000059605,315623.7999999821,7709,WL,B,12.0
2,26.742000102996826,learn,33257.999897003174,Mon Nov 24 2025 16:20:03 GMT-0600 (Central Standard Time),316357.59999999404,A,arm,O,m,211,1,733.8000000119209,315623.7999999821,7709,WL,B,12.0
2,30.10800004005432,learn,29891.99995994568,Mon Nov 24 2025 16:20:03 GMT-0600 (Central Standard Time),319723.89999997616,A,armp,O,p,3359,1,4100.0999999940395,315623.7999999821,7709,WL,B,12.0
2,30.707000017166138,learn,29292.999982833862,Mon Nov 24 2025 16:20:03 GMT-0600 (Central Standard Time),320323.39999997616,A,arm,O,backspace,584,1,4699.5999999940395,315623.7999999821,7709,WL,B,12.0
2,31.19099998474121,learn,28809.00001525879,Mon Nov 24 2025 16:20:03 GMT-0600 (Central Standard Time),320806.89999997616,A,armenter,O,enter,471,1,5183.0999999940395,315623.7999999821,7709,WL,B,12.0
2,32.05800008773804,learn,27941.999912261963,Mon Nov 24 2025 16:20:03 GMT-0600 (Central Standard Time),321674.59999999404,A,p,O,p,854,1,867.4000000059605,320807.1999999881,7709,WL,B,13.0
2,32.34100008010864,learn,27658.999919891357,Mon Nov 24 2025 16:20:03 GMT-0600 (Central Standard Time),321956.89999997616,A,pu,O,u,265,1,1149.699999988079,320807.1999999881,7709,WL,B,13.0
2,32.75699996948242,learn,27243.000030517578,Mon Nov 24 2025 16:20:03 GMT-0600 (Central Standard Time),322373.2999999821,A,pup,O,p,394,1,1566.0999999940395,320807.1999999881,7709,WL,B,13.0
2,32.990999937057495,learn,27009.000062942505,Mon Nov 24 2025 16:20:03 GMT-0600 (Central Standard Time),322607.1999999881,A,pupi,O,i,211,1,1800.0,320807.1999999881,7709,WL,B,13.0
2,33.240999937057495,learn,26759.000062942505,Mon Nov 24 2025 16:20:03 GMT-0600 (Central Standard Time),322857.1999999881,A,pupil,O,l,229,1,2050.0,320807.1999999881,7709,WL,B,13.0
2,33.5550000667572,learn,26444.999933242798,Mon Nov 24 2025 16:20:03 GMT-0600 (Central Standard Time),323171.1999999881,A,pupilenter,O,enter,296,1,2364.0,320807.1999999881,7709,WL,B,13.0
2,39.73900008201599,learn,20260.99991798401,Mon Nov 24 2025 16:20:03 GMT-0600 (Central Standard Time),329354.7999999821,A,d,O,d,6164,1,6183.4000000059605,323171.39999997616,7709,WL,B,14.0
2,39.920000076293945,learn,20079.999923706055,Mon Nov 24 2025 16:20:03 GMT-0600 (Central Standard Time),329536.2999999821,A,do,O,o,163,1,6364.9000000059605,323171.39999997616,7709,WL,B,14.0
2,40.08899998664856,learn,19911.00001335144,Mon Nov 24 2025 16:20:03 GMT-0600 (Central Standard Time),329705.0,A,doo,O,o,157,1,6533.600000023842,323171.39999997616,7709,WL,B,14.0
2,40.253000020980835,learn,19746.999979019165,Mon Nov 24 2025 16:20:03 GMT-0600 (Central Standard Time),329869.5,A,door,O,r,146,1,6698.100000023842,323171.39999997616,7709,WL,B,14.0
2,40.57100009918213,learn,19428.99990081787,Mon Nov 24 2025 16:20:03 GMT-0600 (Central Standard Time),330186.6999999881,A,doorenter,O,enter,295,1,7015.300000011921,323171.39999997616,7709,WL,B,14.0
2,48.551000118255615,learn,11448.999881744385,Mon Nov 24 2025 16:20:03 GMT-0600 (Central Standard Time),338167.59999999404,A,f,O,f,7971,1,7980.5999999940395,330187.0,7709,WL,B,15.0
2,48.75100016593933,learn,11248.999834060669,Mon Nov 24 2025 16:20:03 GMT-0600 (Central Standard Time),338367.2999999821,A,fi,O,i,176,1,8180.299999982119,330187.0,7709,WL,B,15.0
2,48.901000022888184,learn,11098.999977111816,Mon Nov 24 2025 16:20:03 GMT-0600 (Central Standard Time),338517.39999997616,A,fir,O,r,127,1,8330.399999976158,330187.0,7709,WL,B,15.0
2,49.06700015068054,learn,10932.999849319458,Mon Nov 24 2025 16:20:03 GMT-0600 (Central Standard Time),338683.59999999404,A,fire,O,e,161,1,8496.59999999404,330187.0,7709,WL,B,15.0
2,49.3510000705719,learn,10648.9999294281,Mon Nov 24 2025 16:20:03 GMT-0600 (Central Standard Time),338967.5,A,fireenter,O,enter,266,1,8780.5,330187.0,7709,WL,B,15.0
3,1.4149999618530273,learn,58585.00003814697,Mon Nov 24 2025 16:20:03 GMT-0600 (Central Standard Time),410460.89999997616,A,c,O,c,1400,1,1415.0,409045.89999997616,7709,WL,B,1.0
3,1.75,learn,58250.0,Mon Nov 24 2025 16:20:03 GMT-0600 (Central Standard Time),410795.2999999821,A,cl,O,l,321,1,1749.4000000059605,409045.89999997616,7709,WL,B,1.0
3,2.0320000648498535,learn,57967.99993515015,Mon Nov 24 2025 16:20:03 GMT-0600 (Central Standard Time),411077.2999999821,A,clo,O,o,277,1,2031.4000000059605,409045.89999997616,7709,WL,B,1.0
3,2.3990001678466797,learn,57600.99983215332,Mon Nov 24 2025 16:20:03 GMT-0600 (Central Standard Time),411445.09999999404,A,cloc,O,c,354,1,2399.2000000178814,409045.89999997616,7709,WL,B,1.0
3,2.7160000801086426,learn,57283.99991989136,Mon Nov 24 2025 16:20:03 GMT-0600 (Central Standard Time),411761.6999999881,A,clock,O,k,307,1,2715.800000011921,409045.89999997616,7709,WL,B,1.0
3,3.449000120162964,learn,56550.999879837036,Mon Nov 24 2025 16:20:03 GMT-0600 (Central Standard Time),412494.09999999404,A,clockenter,O,enter,724,1,3448.2000000178814,409045.89999997616,7709,WL,B,1.0
3,4.567000150680542,learn,55432.99984931946,Mon Nov 24 2025 16:20:03 GMT-0600 (Central Standard Time),413612.89999997616,A,c,O,c,1106,1,1118.699999988079,412494.1999999881,7709,WL,B,2.0
3,4.71399998664856,learn,55286.00001335144,Mon Nov 24 2025 16:20:03 GMT-0600 (Central Standard Time),413760.0,A,ci,O,i,129,1,1265.800000011921,412494.1999999881,7709,WL,B,2.0
3,5.015000104904175,learn,54984.999895095825,Mon Nov 24 2025 16:20:03 GMT-0600 (Central Standard Time),414060.39999997616,A,cit,O,t,284,1,1566.199999988079,412494.1999999881,7709,WL,B,2.0
3,5.180999994277954,learn,54819.000005722046,Mon Nov 24 2025 16:20:03 GMT-0600 (Central Standard Time),414226.89999997616,A,city,O,y,155,1,1732.699999988079,412494.1999999881,7709,WL,B,2.0
3,5.582000017166138,learn,54417.99998283386,Mon Nov 24 2025 16:20:03 GMT-0600 (Central Standard Time),414627.59999999404,A,cityenter,O,enter,396,1,2133.4000000059605,412494.1999999881,7709,WL,B,2.0
3,6.180999994277954,learn,53819.000005722046,Mon Nov 24 2025 16:20:03 GMT-0600 (Central Standard Time),415226.6999999881,A,p,O,p,594,1,598.8000000119209,414627.89999997616,7709,WL,B,3.0
3,6.481000185012817,learn,53518.99981498718,Mon Nov 24 2025 16:20:03 GMT-0600 (Central Standard Time),415526.59999999404,A,pi,O,i,282,1,898.7000000178814,414627.89999997616,7709,WL,B,3.0
3,6.715000152587891,learn,53284.99984741211,Mon Nov 24 2025 16:20:03 GMT-0600 (Central Standard Time),415760.1999999881,A,pip,O,p,221,1,1132.300000011921,414627.89999997616,7709,WL,B,3.0
3,6.96399998664856,learn,53036.00001335144,Mon Nov 24 2025 16:20:03 GMT-0600 (Central Standard Time),416009.5,A,pipe,O,e,230,1,1381.6000000238419,414627.89999997616,7709,WL,B,3.0
3,7.21399998664856,learn,52786.00001335144,Mon Nov 24 2025 16:20:03 GMT-0600 (Central Standard Time),416260.09999999404,A,pipeenter,O,enter,244,1,1632.2000000178814,414627.89999997616,7709,WL,B,3.0
3,10.046000003814697,learn,49953.9999961853,Mon Nov 24 2025 16:20:03 GMT-0600 (Central Standard Time),419091.2999999821,A,s,O,s,2817,1,2830.9000000059605,416260.39999997616,7709,WL,B,4.0
3,10.330000162124634,learn,49669.999837875366,Mon Nov 24 2025 16:20:03 GMT-0600 (Central Standard Time),419375.6999999881,A,st,O,t,268,1,3115.300000011921,416260.39999997616,7709,WL,B,4.0
3,11.09600019454956,learn,48903.99980545044,Mon Nov 24 2025 16:20:03 GMT-0600 (Central Standard Time),420141.2999999821,A,sta,O,a,751,1,3880.9000000059605,416260.39999997616,7709,WL,B,4.0
3,11.26200008392334,learn,48737.99991607666,Mon Nov 24 2025 16:20:03 GMT-0600 (Central Standard Time),420307.2999999821,A,star,O,r,161,1,4046.9000000059605,416260.39999997616,7709,WL,B,4.0
3,11.546000003814697,learn,48453.9999961853,Mon Nov 24 2025 16:20:03 GMT-0600 (Central Standard Time),420591.6999999881,A,starenter,O,enter,266,1,4331.300000011921,416260.39999997616,7709,WL,B,4.0
3,12.213000059127808,learn,47786.99994087219,Mon Nov 24 2025 16:20:03 GMT-0600 (Central Standard Time),421258.5,A,a,O,a,661,1,666.6000000238419,420591.89999997616,7709,WL,B,5.0
3,12.446000099182129,learn,47553.99990081787,Mon Nov 24 2025 16:20:03 GMT-0600 (Central Standard Time),421491.09999999404,A,ar,O,r,210,1,899.2000000178814,420591.89999997616,7709,WL,B,5.0
3,12.713000059127808,learn,47286.99994087219,Mon Nov 24 2025 16:20:03 GMT-0600 (Central Standard Time),421758.1999999881,A,arm,O,m,261,1,1166.300000011921,420591.89999997616,7709,WL,B,5.0
3,13.01200008392334,learn,46987.99991607666,Mon Nov 24 2025 16:20:03 GMT-0600 (Central Standard Time),422057.6999999881,A,armenter,O,enter,277,1,1465.800000011921,420591.89999997616,7709,WL,B,5.0
3,13.394999980926514,learn,46605.000019073486,Mon Nov 24 2025 16:20:03 GMT-0600 (Central Standard Time),422440.89999997616,A,s,O,s,371,1,383.0,422057.89999997616,7709,WL,B,6.0
3,13.529000043869019,learn,46470.99995613098,Mon Nov 24 2025 16:20:03 GMT-0600 (Central Standard Time),422574.2999999821,A,sk,O,k,127,1,516.4000000059605,422057.89999997616,7709,WL,B,6.0
3,13.76200008392334,learn,46237.99991607666,Mon Nov 24 2025 16:20:03 GMT-0600 (Central Standard Time),422807.39999997616,A,ski,O,i,224,1,749.5,422057.89999997616,7709,WL,B,6.0
3,13.894999980926514,learn,46105.000019073486,Mon Nov 24 2025 16:20:03 GMT-0600 (Central Standard Time),422940.6999999881,A,skin,O,n,129,1,882.8000000119209,422057.89999997616,7709,WL,B,6.0
3,14.26200008392334,learn,45737.99991607666,Mon Nov 24 2025 16:20:03 GMT-0600 (Central Standard Time),423307.5,A,skinenter,O,enter,360,1,1249.6000000238419,422057.89999997616,7709,WL,B,6.0
3,14.611000061035156,learn,45388.999938964844,Mon Nov 24 2025 16:20:03 GMT-0600 (Central Standard Time),423656.39999997616,A,f,O,f,338,1,348.59999999403954,423307.7999999821,7709,WL,B,7.0
3,14.726999998092651,learn,45273.00000190735,Mon Nov 24 2025 16:20:03 GMT-0600 (Central Standard Time),423772.7999999821,A,fi,O,i,102,1,465.0,423307.7999999821,7709,WL,B,7.0
3,14.945000171661377,learn,45054.99982833862,Mon Nov 24 2025 16:20:03 GMT-0600 (Central Standard Time),423990.2999999821,A,fir,O,r,200,1,682.5,423307.7999999821,7709,WL,B,7.0
3,15.061000108718872,learn,44938.99989128113,Mon Nov 24 2025 16:20:03 GMT-0600 (Central Standard Time),424106.7999999821,A,fire,O,e,95,1,799.0,423307.7999999821,7709,WL,B,7.0
3,15.361000061035156,learn,44638.999938964844,Mon Nov 24 2025 16:20:03 GMT-0600 (Central Standard Time),424406.7999999821,A,fireenter,O,enter,282,1,1099.0,423307.7999999821,7709,WL,B,7.0
3,17.542999982833862,learn,42457.00001716614,Mon Nov 24 2025 16:20:03 GMT-0600 (Central Standard Time),426589.0,A,c,O,c,2176,1,2182.0,424407.0,7709,WL,B,8.0
3,17.74399995803833,learn,42256.00004196167,Mon Nov 24 2025 16:20:03 GMT-0600 (Central Standard Time),426789.2999999821,A,ca,O,a,184,1,2382.2999999821186,424407.0,7709,WL,B,8.0
3,18.045000076293945,learn,41954.999923706055,Mon Nov 24 2025 16:20:03 GMT-0600 (Central Standard Time),427090.6999999881,A,cab,O,b,290,1,2683.699999988079,424407.0,7709,WL,B,8.0
3,18.294000148773193,learn,41705.99985122681,Mon Nov 24 2025 16:20:03 GMT-0600 (Central Standard Time),427339.09999999404,A,cabi,O,i,235,1,2932.0999999940395,424407.0,7709,WL,B,8.0
3,18.478000164031982,learn,41521.99983596802,Mon Nov 24 2025 16:20:03 GMT-0600 (Central Standard Time),427524.0,A,cabin,O,n,182,1,3117.0,424407.0,7709,WL,B,8.0
3,19.009000062942505,learn,40990.999937057495,Mon Nov 24 2025 16:20:03 GMT-0600 (Central Standard Time),428054.7999999821,A,cabinenter,O,enter,512,1,3647.7999999821186,424407.0,7709,WL,B,8.0
3,20.210000038146973,learn,39789.99996185303,Mon Nov 24 2025 16:20:03 GMT-0600 (Central Standard Time),429255.39999997616,A,l,O,l,1183,1,1200.3999999761581,428055.0,7709,WL,B,9.0
3,20.360000133514404,learn,39639.999866485596,Mon Nov 24 2025 16:20:03 GMT-0600 (Central Standard Time),429405.7999999821,A,la,O,a,142,1,1350.7999999821186,428055.0,7709,WL,B,9.0
3,20.56000018119812,learn,39439.99981880188,Mon Nov 24 2025 16:20:03 GMT-0600 (Central Standard Time),429605.5,A,lak,O,k,194,1,1550.5,428055.0,7709,WL,B,9.0
3,20.759999990463257,learn,39240.00000953674,Mon Nov 24 2025 16:20:03 GMT-0600 (Central Standard Time),429805.7999999821,A,lake,O,e,184,1,1750.7999999821186,428055.0,7709,WL,B,9.0
3,21.176000118255615,learn,38823.999881744385,Mon Nov 24 2025 16:20:03 GMT-0600 (Central Standard Time),430221.7999999821,A,lakeenter,O,enter,399,1,2166.7999999821186,428055.0,7709,WL,B,9.0
3,25.657999992370605,learn,34342.000007629395,Mon Nov 24 2025 16:20:03 GMT-0600 (Central Standard Time),434703.2999999821,A,c,O,c,4464,1,4481.299999982119,430222.0,7709,WL,B,10.0
3,25.79100012779236,learn,34208.99987220764,Mon Nov 24 2025 16:20:03 GMT-0600 (Central Standard Time),434836.5,A,ci,O,i,118,1,4614.5,430222.0,7709,WL,B,10.0
3,26.006999969482422,learn,33993.00003051758,Mon Nov 24 2025 16:20:03 GMT-0600 (Central Standard Time),435052.89999997616,A,cit,O,t,200,1,4830.899999976158,430222.0,7709,WL,B,10.0
3,26.174000024795532,learn,33825.99997520447,Mon Nov 24 2025 16:20:03 GMT-0600 (Central Standard Time),435219.7999999821,A,city,O,y,154,1,4997.799999982119,430222.0,7709,WL,B,10.0
3,28.508000135421753,learn,31491.999864578247,Mon Nov 24 2025 16:20:03 GMT-0600 (Central Standard Time),437553.6999999881,A,cit,O,backspace,2312,1,7331.699999988079,430222.0,7709,WL,B,10.0
3,28.689000129699707,learn,31310.999870300293,Mon Nov 24 2025 16:20:03 GMT-0600 (Central Standard Time),437734.39999997616,A,ci,O,backspace,161,1,7512.399999976158,430222.0,7709,WL,B,10.0
3,29.006999969482422,learn,30993.000030517578,Mon Nov 24 2025 16:20:03 GMT-0600 (Central Standard Time),438052.2999999821,A,c,O,backspace,304,1,7830.299999982119,430222.0,7709,WL,B,10.0
3,29.223999977111816,learn,30776.000022888184,Mon Nov 24 2025 16:20:03 GMT-0600 (Central Standard Time),438269.2999999821,A,,O,backspace,201,1,8047.299999982119,430222.0,7709,WL,B,10.0
3,30.039999961853027,learn,29960.000038146973,Mon Nov 24 2025 16:20:03 GMT-0600 (Central Standard Time),439085.1999999881,A,s,O,s,807,1,8863.199999988079,430222.0,7709,WL,B,10.0
3,30.27300000190735,learn,29726.99999809265,Mon Nov 24 2025 16:20:03 GMT-0600 (Central Standard Time),439318.09999999404,A,st,O,t,223,1,9096.09999999404,430222.0,7709,WL,B,10.0
3,30.52300000190735,learn,29476.99999809265,Mon Nov 24 2025 16:20:03 GMT-0600 (Central Standard Time),439568.39999997616,A,str,O,r,231,1,9346.399999976158,430222.0,7709,WL,B,10.0
3,30.825000047683716,learn,29174.999952316284,Mon Nov 24 2025 16:20:03 GMT-0600 (Central Standard Time),439870.39999997616,A,stre,O,e,283,1,9648.399999976158,430222.0,7709,WL,B,10.0
3,31.006999969482422,learn,28993.000030517578,Mon Nov 24 2025 16:20:03 GMT-0600 (Central Standard Time),440052.1999999881,A,stret,O,t,165,1,9830.199999988079,430222.0,7709,WL,B,10.0
3,31.855000019073486,learn,28144.999980926514,Mon Nov 24 2025 16:20:03 GMT-0600 (Central Standard Time),440900.7999999821,A,strete,O,e,832,1,10678.799999982119,430222.0,7709,WL,B,10.0
3,32.07200002670288,learn,27927.99997329712,Mon Nov 24 2025 16:20:03 GMT-0600 (Central Standard Time),441117.39999997616,A,stret,O,backspace,209,1,10895.399999976158,430222.0,7709,WL,B,10.0
3,32.35700011253357,learn,27642.99988746643,Mon Nov 24 2025 16:20:03 GMT-0600 (Central Standard Time),441402.2999999821,A,stre,O,backspace,271,1,11180.299999982119,430222.0,7709,WL,B,10.0
3,32.723000049591064,learn,27276.999950408936,Mon Nov 24 2025 16:20:03 GMT-0600 (Central Standard Time),441768.39999997616,A,stree,O,e,355,1,11546.399999976158,430222.0,7709,WL,B,10.0
3,32.9060001373291,learn,27093.9998626709,Mon Nov 24 2025 16:20:03 GMT-0600 (Central Standard Time),441951.1999999881,A,street,O,t,174,1,11729.199999988079,430222.0,7709,WL,B,10.0
3,33.205000162124634,learn,26794.999837875366,Mon Nov 24 2025 16:20:03 GMT-0600 (Central Standard Time),442250.39999997616,A,streetenter,O,enter,288,1,12028.399999976158,430222.0,7709,WL,B,10.0
3,33.7720000743866,learn,26227.999925613403,Mon Nov 24 2025 16:20:03 GMT-0600 (Central Standard Time),442817.5,A,g,O,g,547,1,566.9000000059605,442250.59999999404,7709,WL,B,11.0
3,34.0550000667572,learn,25944.999933242798,Mon Nov 24 2025 16:20:03 GMT-0600 (Central Standard Time),443101.09999999404,A,gr,O,r,276,1,850.5,442250.59999999404,7709,WL,B,11.0
3,34.28800010681152,learn,25711.999893188477,Mon Nov 24 2025 16:20:03 GMT-0600 (Central Standard Time),443333.89999997616,A,gra,O,a,223,1,1083.2999999821186,442250.59999999404,7709,WL,B,11.0
3,34.5550000667572,learn,25444.999933242798,Mon Nov 24 2025 16:20:03 GMT-0600 (Central Standard Time),443600.39999997616,A,gras,O,s,245,1,1349.7999999821186,442250.59999999404,7709,WL,B,11.0
3,34.72200012207031,learn,25277.999877929688,Mon Nov 24 2025 16:20:03 GMT-0600 (Central Standard Time),443767.89999997616,A,grass,O,s,144,1,1517.2999999821186,442250.59999999404,7709,WL,B,11.0
3,35.40499997138977,learn,24595.00002861023,Mon Nov 24 2025 16:20:03 GMT-0600 (Central Standard Time),444450.1999999881,A,grassenter,O,enter,668,1,2199.5999999940395,442250.59999999404,7709,WL,B,11.0
3,36.72200012207031,learn,23277.999877929688,Mon Nov 24 2025 16:20:03 GMT-0600 (Central Standard Time),445767.39999997616,A,a,O,a,1312,1,1316.8999999761581,444450.5,7709,WL,B,12.0
3,37.354000091552734,learn,22645.999908447266,Mon Nov 24 2025 16:20:03 GMT-0600 (Central Standard Time),446400.0,A,ar,O,r,613,1,1949.5,444450.5,7709,WL,B,12.0
3,37.90400004386902,learn,22095.99995613098,Mon Nov 24 2025 16:20:03 GMT-0600 (Central Standard Time),446949.39999997616,A,arm,O,m,531,1,2498.899999976158,444450.5,7709,WL,B,12.0
3,38.937999963760376,learn,21062.000036239624,Mon Nov 24 2025 16:20:03 GMT-0600 (Central Standard Time),447983.59999999404,A,armenter,O,enter,1021,1,3533.0999999940395,444450.5,7709,WL,B,12.0
3,39.55400013923645,learn,20445.99986076355,Mon Nov 24 2025 16:20:03 GMT-0600 (Central Standard Time),448599.7999999821,A,w,O,w,607,1,616.0,447983.7999999821,7709,WL,B,13.0
3,39.73699998855591,learn,20263.00001144409,Mon Nov 24 2025 16:20:03 GMT-0600 (Central Standard Time),448782.5,A,wi,O,i,171,1,798.7000000178814,447983.7999999821,7709,WL,B,13.0
3,39.97200012207031,learn,20027.999877929688,Mon Nov 24 2025 16:20:03 GMT-0600 (Central Standard Time),449017.6999999881,A,wif,O,f,222,1,1033.9000000059605,447983.7999999821,7709,WL,B,13.0
3,40.15900015830994,learn,19840.999841690063,Mon Nov 24 2025 16:20:03 GMT-0600 (Central Standard Time),449204.89999997616,A,wife,O,e,184,1,1221.0999999940395,447983.7999999821,7709,WL,B,13.0
3,40.93500018119812,learn,19064.99981880188,Mon Nov 24 2025 16:20:03 GMT-0600 (Central Standard Time),449981.0,A,wifeenter,O,enter,770,1,1997.2000000178814,447983.7999999821,7709,WL,B,13.0
3,41.437000036239624,learn,18562.999963760376,Mon Nov 24 2025 16:20:03 GMT-0600 (Central Standard Time),450482.39999997616,A,w,O,w,489,1,501.09999999403954,449981.2999999821,7709,WL,B,14.0
3,41.585999965667725,learn,18414.000034332275,Mon Nov 24 2025 16:20:03 GMT-0600 (Central Standard Time),450631.89999997616,A,wi,O,i,138,1,650.5999999940395,449981.2999999821,7709,WL,B,14.0
3,41.837000131607056,learn,18162.999868392944,Mon Nov 24 2025 16:20:03 GMT-0600 (Central Standard Time),450882.1999999881,A,win,O,n,229,1,900.9000000059605,449981.2999999821,7709,WL,B,14.0
3,42.00200009346008,learn,17997.999906539917,Mon Nov 24 2025 16:20:03 GMT-0600 (Central Standard Time),451047.89999997616,A,wind,O,d,145,1,1066.5999999940395,449981.2999999821,7709,WL,B,14.0
3,42.13700008392334,learn,17862.99991607666,Mon Nov 24 2025 16:20:03 GMT-0600 (Central Standard Time),451183.0,A,windo,O,o,123,1,1201.7000000178814,449981.2999999821,7709,WL,B,14.0
3,42.33500003814697,learn,17664.999961853027,Mon Nov 24 2025 16:20:03 GMT-0600 (Central Standard Time),451380.5,A,window,O,w,187,1,1399.2000000178814,449981.2999999821,7709,WL,B,14.0
3,42.73800015449524,learn,17261.99984550476,Mon Nov 24 2025 16:20:03 GMT-0600 (Central Standard Time),451784.0,A,windowenter,O,enter,400,1,1802.7000000178814,449981.2999999821,7709,WL,B,14.0
3,54.89800000190735,learn,5101.999998092651,Mon Nov 24 2025 16:20:03 GMT-0600 (Central Standard Time),463943.7999999821,A,s,O,s,12142,1,12159.5,451784.2999999821,7709,WL,B,15.0
3,55.180999994277954,learn,4819.000005722046,Mon Nov 24 2025 16:20:03 GMT-0600 (Central Standard Time),464226.6999999881,A,st,O,t,275,1,12442.40000000596,451784.2999999821,7709,WL,B,15.0
3,55.44800019264221,learn,4551.999807357788,Mon Nov 24 2025 16:20:03 GMT-0600 (Central Standard Time),464493.6999999881,A,sta,O,a,259,1,12709.40000000596,451784.2999999821,7709,WL,B,15.0
3,55.58200001716614,learn,4417.999982833862,Mon Nov 24 2025 16:20:03 GMT-0600 (Central Standard Time),464627.39999997616,A,star,O,r,119,1,12843.09999999404,451784.2999999821,7709,WL,B,15.0
3,56.13100004196167,learn,3868.99995803833,Mon Nov 24 2025 16:20:03 GMT-0600 (Central Standard Time),465177.0,A,starenter,O,enter,528,1,13392.700000017881,451784.2999999821,7709,WL,B,15.0
4,4.715000152587891,learn,55284.99984741211,Mon Nov 24 2025 16:20:03 GMT-0600 (Central Standard Time),538571.099999994,A,s,O,s,4710,1,4714.800000011921,533856.2999999821,7709,WL,B,1.0
4,5.164000034332275,learn,54835.999965667725,Mon Nov 24 2025 16:20:03 GMT-0600 (Central Standard Time),539019.7999999821,A,st,O,t,432,1,5163.5,533856.2999999821,7709,WL,B,1.0
4,5.480999946594238,learn,54519.00005340576,Mon Nov 24 2025 16:20:03 GMT-0600 (Central Standard Time),539336.7999999821,A,str,O,r,297,1,5480.5,533856.2999999821,7709,WL,B,1.0
4,5.748000144958496,learn,54251.999855041504,Mon Nov 24 2025 16:20:03 GMT-0600 (Central Standard Time),539603.8999999762,A,stre,O,e,262,1,5747.5999999940395,533856.2999999821,7709,WL,B,1.0
4,5.965000152587891,learn,54034.99984741211,Mon Nov 24 2025 16:20:03 GMT-0600 (Central Standard Time),539820.8999999762,A,stree,O,e,194,1,5964.5999999940395,533856.2999999821,7709,WL,B,1.0
4,6.180999994277954,learn,53819.000005722046,Mon Nov 24 2025 16:20:03 GMT-0600 (Central Standard Time),540037.3999999762,A,street,O,t,208,1,6181.0999999940395,533856.2999999821,7709,WL,B,1.0
4,6.664000034332275,learn,53335.999965667725,Mon Nov 24 2025 16:20:03 GMT-0600 (Central Standard Time),540520.0,A,streetenter,O,enter,471,1,6663.700000017881,533856.2999999821,7709,WL,B,1.0
4,7.146000146865845,learn,52853.999853134155,Mon Nov 24 2025 16:20:03 GMT-0600 (Central Standard Time),541001.6999999881,A,g,O,g,469,1,481.40000000596046,540520.2999999821,7709,WL,B,2.0
4,7.498000144958496,learn,52501.999855041504,Mon Nov 24 2025 16:20:03 GMT-0600 (Central Standard Time),541354.099999994,A,gr,O,r,341,1,833.8000000119209,540520.2999999821,7709,WL,B,2.0
4,7.7799999713897705,learn,52220.00002861023,Mon Nov 24 2025 16:20:03 GMT-0600 (Central Standard Time),541636.2999999821,A,gra,O,a,268,1,1116.0,540520.2999999821,7709,WL,B,2.0
4,8.062999963760376,learn,51937.000036239624,Mon Nov 24 2025 16:20:03 GMT-0600 (Central Standard Time),541919.2999999821,A,gras,O,s,262,1,1399.0,540520.2999999821,7709,WL,B,2.0
4,8.21399998664856,learn,51786.00001335144,Mon Nov 24 2025 16:20:03 GMT-0600 (Central Standard Time),542069.8999999762,A,grass,O,s,131,1,1549.5999999940395,540520.2999999821,7709,WL,B,2.0
4,9.013000011444092,learn,50986.99998855591,Mon Nov 24 2025 16:20:03 GMT-0600 (Central Standard Time),542868.5,A,grassenter,O,enter,783,1,2348.2000000178814,540520.2999999821,7709,WL,B,2.0
4,11.413000106811523,learn,48586.99989318848,Mon Nov 24 2025 16:20:03 GMT-0600 (Central Standard Time),545268.5,A,s,O,s,2386,1,2399.7000000178814,542868.7999999821,7709,WL,B,3.0
4,12.01200008392334,learn,47987.99991607666,Mon Nov 24 2025 16:20:03 GMT-0600 (Central Standard Time),545868.1999999881,A,st,O,t,583,1,2999.4000000059605,542868.7999999821,7709,WL,B,3.0
4,12.296000003814697,learn,47703.9999961853,Mon Nov 24 2025 16:20:03 GMT-0600 (Central Standard Time),546151.7999999821,A,sta,O,a,264,1,3283.0,542868.7999999821,7709,WL,B,3.0
4,13.76200008392334,learn,46237.99991607666,Mon Nov 24 2025 16:20:03 GMT-0600 (Central Standard Time),547617.599999994,A,st,O,backspace,1453,1,4748.800000011921,542868.7999999821,7709,WL,B,3.0
4,13.91100001335144,learn,46088.99998664856,Mon Nov 24 2025 16:20:03 GMT-0600 (Central Standard Time),547767.099999994,A,s,O,backspace,139,1,4898.300000011921,542868.7999999821,7709,WL,B,3.0
4,14.212000131607056,learn,45787.999868392944,Mon Nov 24 2025 16:20:03 GMT-0600 (Central Standard Time),548068.3999999762,A,,O,backspace,296,1,5199.5999999940395,542868.7999999821,7709,WL,B,3.0
4,14.460999965667725,learn,45539.000034332275,Mon Nov 24 2025 16:20:03 GMT-0600 (Central Standard Time),548317.2999999821,A,,O,backspace,240,1,5448.5,542868.7999999821,7709,WL,B,3.0
4,15.479000091552734,learn,44520.999908447266,Mon Nov 24 2025 16:20:03 GMT-0600 (Central Standard Time),549335.0,A,a,O,a,1002,1,6466.200000017881,542868.7999999821,7709,WL,B,3.0
4,15.712000131607056,learn,44287.999868392944,Mon Nov 24 2025 16:20:03 GMT-0600 (Central Standard Time),549568.0,A,ar,O,r,224,1,6699.200000017881,542868.7999999821,7709,WL,B,3.0
4,15.960999965667725,learn,44039.000034332275,Mon Nov 24 2025 16:20:03 GMT-0600 (Central Standard Time),549817.1999999881,A,arm,O,m,238,1,6948.4000000059605,542868.7999999821,7709,WL,B,3.0
4,16.511000156402588,learn,43488.99984359741,Mon Nov 24 2025 16:20:03 GMT-0600 (Central Standard Time),550367.099999994,A,armenter,O,enter,533,1,7498.300000011921,542868.7999999821,7709,WL,B,3.0
4,16.945000171661377,learn,43054.99982833862,Mon Nov 24 2025 16:20:03 GMT-0600 (Central Standard Time),550801.5,A,s,O,s,414,1,434.30000001192093,550367.1999999881,7709,WL,B,4.0
4,19.24399995803833,learn,40756.00004196167,Mon Nov 24 2025 16:20:03 GMT-0600 (Central Standard Time),553100.3999999762,A,st,O,t,2284,1,2733.199999988079,550367.1999999881,7709,WL,B,4.0
4,19.460000038146973,learn,40539.99996185303,Mon Nov 24 2025 16:20:03 GMT-0600 (Central Standard Time),553315.7999999821,A,sta,O,a,199,1,2948.5999999940395,550367.1999999881,7709,WL,B,4.0
4,19.62600016593933,learn,40373.99983406067,Mon Nov 24 2025 16:20:03 GMT-0600 (Central Standard Time),553482.1999999881,A,star,O,r,152,1,3115.0,550367.1999999881,7709,WL,B,4.0
4,21.54200005531311,learn,38457.99994468689,Mon Nov 24 2025 16:20:03 GMT-0600 (Central Standard Time),555398.2999999821,A,starw,O,w,1906,1,5031.0999999940395,550367.1999999881,7709,WL,B,4.0
4,21.79200005531311,learn,38207.99994468689,Mon Nov 24 2025 16:20:03 GMT-0600 (Central Standard Time),555648.099999994,A,starwi,O,i,230,1,5280.9000000059605,550367.1999999881,7709,WL,B,4.0
4,22.29200005531311,learn,37707.99994468689,Mon Nov 24 2025 16:20:03 GMT-0600 (Central Standard Time),556147.8999999762,A,starw,O,backspace,491,1,5780.699999988079,550367.1999999881,7709,WL,B,4.0
4,22.509000062942505,learn,37490.999937057495,Mon Nov 24 2025 16:20:03 GMT-0600 (Central Standard Time),556364.7999999821,A,star,O,backspace,208,1,5997.5999999940395,550367.1999999881,7709,WL,B,4.0
4,23.108999967575073,learn,36891.00003242493,Mon Nov 24 2025 16:20:03 GMT-0600 (Central Standard Time),556964.7999999821,A,starenter,O,enter,575,1,6597.5999999940395,550367.1999999881,7709,WL,B,4.0
4,23.60800004005432,learn,36391.99995994568,Mon Nov 24 2025 16:20:03 GMT-0600 (Central Standard Time),557464.3999999762,A,w,O,w,480,1,499.39999997615814,556965.0,7709,WL,B,5.0
4,23.824000120162964,learn,36175.999879837036,Mon Nov 24 2025 16:20:03 GMT-0600 (Central Standard Time),557679.8999999762,A,wi,O,i,194,1,714.8999999761581,556965.0,7709,WL,B,5.0
4,24.02500009536743,learn,35974.99990463257,Mon Nov 24 2025 16:20:03 GMT-0600 (Central Standard Time),557881.0,A,wif,O,f,189,1,916.0,556965.0,7709,WL,B,5.0
4,24.558000087738037,learn,35441.99991226196,Mon Nov 24 2025 16:20:03 GMT-0600 (Central Standard Time),558413.8999999762,A,wife,O,e,517,1,1448.8999999761581,556965.0,7709,WL,B,5.0
4,25.10700011253357,learn,34892.99988746643,Mon Nov 24 2025 16:20:03 GMT-0600 (Central Standard Time),558963.1999999881,A,wifeenter,O,enter,537,1,1998.199999988079,556965.0,7709,WL,B,5.0
4,25.52500009536743,learn,34474.99990463257,Mon Nov 24 2025 16:20:03 GMT-0600 (Central Standard Time),559380.7999999821,A,w,O,w,403,1,417.2999999821186,558963.5,7709,WL,B,6.0
4,25.756999969482422,learn,34243.00003051758,Mon Nov 24 2025 16:20:03 GMT-0600 (Central Standard Time),559613.5,A,wi,O,i,217,1,650.0,558963.5,7709,WL,B,6.0
4,26.008000135421753,learn,33991.99986457825,Mon Nov 24 2025 16:20:03 GMT-0600 (Central Standard Time),559863.5,A,win,O,n,229,1,900.0,558963.5,7709,WL,B,6.0
4,26.192000150680542,learn,33807.99984931946,Mon Nov 24 2025 16:20:03 GMT-0600 (Central Standard Time),560047.5,A,wind,O,d,161,1,1084.0,558963.5,7709,WL,B,6.0
4,26.374000072479248,learn,33625.99992752075,Mon Nov 24 2025 16:20:03 GMT-0600 (Central Standard Time),560230.0,A,windo,O,o,165,1,1266.5,558963.5,7709,WL,B,6.0
4,26.557000160217285,learn,33442.999839782715,Mon Nov 24 2025 16:20:03 GMT-0600 (Central Standard Time),560413.3999999762,A,window,O,w,173,1,1449.8999999761581,558963.5,7709,WL,B,6.0
4,26.94000005722046,learn,33059.99994277954,Mon Nov 24 2025 16:20:03 GMT-0600 (Central Standard Time),560795.7999999821,A,windowenter,O,enter,367,1,1832.2999999821186,558963.5,7709,WL,B,6.0
4,27.45799994468689,learn,32542.00005531311,Mon Nov 24 2025 16:20:03 GMT-0600 (Central Standard Time),561313.6999999881,A,p,O,p,513,1,517.6999999880791,560796.0,7709,WL,B,7.0
4,27.808000087738037,learn,32191.999912261963,Mon Nov 24 2025 16:20:03 GMT-0600 (Central Standard Time),561663.5,A,pi,O,i,342,1,867.5,560796.0,7709,WL,B,7.0
4,28.04100012779236,learn,31958.99987220764,Mon Nov 24 2025 16:20:03 GMT-0600 (Central Standard Time),561896.6999999881,A,pip,O,p,214,1,1100.699999988079,560796.0,7709,WL,B,7.0
4,28.60599994659424,learn,31394.00005340576,Mon Nov 24 2025 16:20:03 GMT-0600 (Central Standard Time),562462.3999999762,A,pipe,O,e,555,1,1666.3999999761581,560796.0,7709,WL,B,7.0
4,28.873000144958496,learn,31126.999855041504,Mon Nov 24 2025 16:20:03 GMT-0600 (Central Standard Time),562728.6999999881,A,pipeenter,O,enter,245,1,1932.699999988079,560796.0,7709,WL,B,7.0
4,29.407000064849854,learn,30592.999935150146,Mon Nov 24 2025 16:20:03 GMT-0600 (Central Standard Time),563263.0,A,p,O,p,516,1,534.0,562729.0,7709,WL,B,8.0
4,29.75600004196167,learn,30243.99995803833,Mon Nov 24 2025 16:20:03 GMT-0600 (Central Standard Time),563612.5,A,pu,O,u,332,1,883.5,562729.0,7709,WL,B,8.0
4,30.039000034332275,learn,29960.999965667725,Mon Nov 24 2025 16:20:03 GMT-0600 (Central Standard Time),563895.3999999762,A,pup,O,p,272,1,1166.3999999761581,562729.0,7709,WL,B,8.0
4,30.506999969482422,learn,29493.000030517578,Mon Nov 24 2025 16:20:03 GMT-0600 (Central Standard Time),564362.5,A,pupi,O,i,444,1,1633.5,562729.0,7709,WL,B,8.0
4,30.706000089645386,learn,29293.999910354614,Mon Nov 24 2025 16:20:03 GMT-0600 (Central Standard Time),564562.099999994,A,pupil,O,l,187,1,1833.0999999940395,562729.0,7709,WL,B,8.0
4,31.32100009918213,learn,28678.99990081787,Mon Nov 24 2025 16:20:03 GMT-0600 (Central Standard Time),565177.1999999881,A,pupilenter,O,enter,603,1,2448.199999988079,562729.0,7709,WL,B,8.0
4,32.121999979019165,learn,27878.000020980835,Mon Nov 24 2025 16:20:03 GMT-0600 (Central Standard Time),565978.0,A,c,O,c,791,1,800.6000000238419,565177.3999999762,7709,WL,B,9.0
4,32.371999979019165,learn,27628.000020980835,Mon Nov 24 2025 16:20:03 GMT-0600 (Central Standard Time),566228.3999999762,A,ca,O,a,227,1,1051.0,565177.3999999762,7709,WL,B,9.0
4,32.72200012207031,learn,27277.999877929688,Mon Nov 24 2025 16:20:03 GMT-0600 (Central Standard Time),566578.0,A,cab,O,b,327,1,1400.6000000238419,565177.3999999762,7709,WL,B,9.0
4,33.40400004386902,learn,26595.99995613098,Mon Nov 24 2025 16:20:03 GMT-0600 (Central Standard Time),567260.1999999881,A,cabi,O,i,668,1,2082.800000011921,565177.3999999762,7709,WL,B,9.0
4,33.55400013923645,learn,26445.99986076355,Mon Nov 24 2025 16:20:03 GMT-0600 (Central Standard Time),567409.8999999762,A,cabin,O,n,147,1,2232.5,565177.3999999762,7709,WL,B,9.0
4,34.08800005912781,learn,25911.999940872192,Mon Nov 24 2025 16:20:03 GMT-0600 (Central Standard Time),567944.0,A,cabinl,O,l,525,1,2766.600000023842,565177.3999999762,7709,WL,B,9.0
4,34.289000034332275,learn,25710.999965667725,Mon Nov 24 2025 16:20:03 GMT-0600 (Central Standard Time),568145.2999999821,A,cabinla,O,a,180,1,2967.9000000059605,565177.3999999762,7709,WL,B,9.0
4,34.455000162124634,learn,25544.999837875366,Mon Nov 24 2025 16:20:03 GMT-0600 (Central Standard Time),568311.2999999821,A,cabinlak,O,k,148,1,3133.9000000059605,565177.3999999762,7709,WL,B,9.0
4,34.99000000953674,learn,25009.999990463257,Mon Nov 24 2025 16:20:03 GMT-0600 (Central Standard Time),568846.599999994,A,cabinla,O,backspace,527,1,3669.2000000178814,565177.3999999762,7709,WL,B,9.0
4,35.58800005912781,learn,24411.999940872192,Mon Nov 24 2025 16:20:03 GMT-0600 (Central Standard Time),569444.3999999762,A,cabinl,O,backspace,583,1,4267.0,565177.3999999762,7709,WL,B,9.0
4,36.35599994659424,learn,23644.00005340576,Mon Nov 24 2025 16:20:03 GMT-0600 (Central Standard Time),570212.099999994,A,cabin,O,backspace,763,1,5034.700000017881,565177.3999999762,7709,WL,B,9.0
4,36.88900017738342,learn,23110.999822616577,Mon Nov 24 2025 16:20:03 GMT-0600 (Central Standard Time),570745.099999994,A,cabinenter,O,enter,514,1,5567.700000017881,565177.3999999762,7709,WL,B,9.0
4,37.355000019073486,learn,22644.999980926514,Mon Nov 24 2025 16:20:03 GMT-0600 (Central Standard Time),571211.5,A,l,O,l,450,1,466.2000000178814,570745.2999999821,7709,WL,B,10.0
4,37.58800005912781,learn,22411.999940872192,Mon Nov 24 2025 16:20:03 GMT-0600 (Central Standard Time),571444.1999999881,A,la,O,a,228,1,698.9000000059605,570745.2999999821,7709,WL,B,10.0
4,37.73800015449524,learn,22261.99984550476,Mon Nov 24 2025 16:20:03 GMT-0600 (Central Standard Time),571593.599999994,A,lak,O,k,136,1,848.3000000119209,570745.2999999821,7709,WL,B,10.0
4,37.956000089645386,learn,22043.999910354614,Mon Nov 24 2025 16:20:03 GMT-0600 (Central Standard Time),571811.5,A,lake,O,e,209,1,1066.2000000178814,570745.2999999821,7709,WL,B,10.0
4,38.45300006866455,learn,21546.99993133545,Mon Nov 24 2025 16:20:03 GMT-0600 (Central Standard Time),572309.2999999821,A,lakef,O,f,479,1,1564.0,570745.2999999821,7709,WL,B,10.0
4,38.587000131607056,learn,21412.999868392944,Mon Nov 24 2025 16:20:03 GMT-0600 (Central Standard Time),572443.3999999762,A,lakefi,O,i,107,1,1698.0999999940395,570745.2999999821,7709,WL,B,10.0
4,38.854000091552734,learn,21145.999908447266,Mon Nov 24 2025 16:20:03 GMT-0600 (Central Standard Time),572709.5,A,lakefir,O,r,259,1,1964.2000000178814,570745.2999999821,7709,WL,B,10.0
4,39.104000091552734,learn,20895.999908447266,Mon Nov 24 2025 16:20:03 GMT-0600 (Central Standard Time),572959.7999999821,A,lakefire,O,e,232,1,2214.5,570745.2999999821,7709,WL,B,10.0
4,39.45300006866455,learn,20546.99993133545,Mon Nov 24 2025 16:20:03 GMT-0600 (Central Standard Time),573308.6999999881,A,lakefir,O,backspace,341,1,2563.4000000059605,570745.2999999821,7709,WL,B,10.0
4,39.97099995613098,learn,20029.00004386902,Mon Nov 24 2025 16:20:03 GMT-0600 (Central Standard Time),573826.599999994,A,lakefi,O,backspace,512,1,3081.300000011921,570745.2999999821,7709,WL,B,10.0
4,40.51900005340576,learn,19480.99994659424,Mon Nov 24 2025 16:20:03 GMT-0600 (Central Standard Time),574375.2999999821,A,lakef,O,backspace,538,1,3630.0,570745.2999999821,7709,WL,B,10.0
4,40.985000133514404,learn,19014.999866485596,Mon Nov 24 2025 16:20:03 GMT-0600 (Central Standard Time),574840.7999999821,A,lake,O,backspace,444,1,4095.5,570745.2999999821,7709,WL,B,10.0
4,41.38499999046326,learn,18615.000009536743,Mon Nov 24 2025 16:20:03 GMT-0600 (Central Standard Time),575241.099999994,A,lakeenter,O,enter,389,1,4495.800000011921,570745.2999999821,7709,WL,B,10.0
4,42.71900010108948,learn,17280.999898910522,Mon Nov 24 2025 16:20:03 GMT-0600 (Central Standard Time),576574.5,A,f,O,f,1326,1,1333.2000000178814,575241.2999999821,7709,WL,B,11.0
4,43.319000005722046,learn,16680.999994277954,Mon Nov 24 2025 16:20:03 GMT-0600 (Central Standard Time),577174.599999994,A,fi,O,i,588,1,1933.300000011921,575241.2999999821,7709,WL,B,11.0
4,43.485000133514404,learn,16514.999866485596,Mon Nov 24 2025 16:20:03 GMT-0600 (Central Standard Time),577341.099999994,A,fir,O,r,150,1,2099.800000011921,575241.2999999821,7709,WL,B,11.0
4,43.7020001411438,learn,16297.999858856201,Mon Nov 24 2025 16:20:03 GMT-0600 (Central Standard Time),577557.8999999762,A,fire,O,e,211,1,2316.5999999940395,575241.2999999821,7709,WL,B,11.0
4,46.718000173568726,learn,13281.999826431274,Mon Nov 24 2025 16:20:03 GMT-0600 (Central Standard Time),580573.599999994,A,fireenter,O,enter,3001,1,5332.300000011921,575241.2999999821,7709,WL,B,11.0
4,47.468000173568726,learn,12531.999826431274,Mon Nov 24 2025 16:20:03 GMT-0600 (Central Standard Time),581323.599999994,A,s,O,s,737,1,749.8000000119209,580573.7999999821,7709,WL,B,12.0
4,47.617000102996826,learn,12382.999897003174,Mon Nov 24 2025 16:20:03 GMT-0600 (Central Standard Time),581473.099999994,A,sk,O,k,137,1,899.3000000119209,580573.7999999821,7709,WL,B,12.0
4,47.8510000705719,learn,12148.9999294281,Mon Nov 24 2025 16:20:03 GMT-0600 (Central Standard Time),581707.3999999762,A,ski,O,i,221,1,1133.5999999940395,580573.7999999821,7709,WL,B,12.0
4,48.28400015830994,learn,11715.999841690063,Mon Nov 24 2025 16:20:03 GMT-0600 (Central Standard Time),582140.5,A,skin,O,n,419,1,1566.7000000178814,580573.7999999821,7709,WL,B,12.0
4,48.717000007629395,learn,11282.999992370605,Mon Nov 24 2025 16:20:03 GMT-0600 (Central Standard Time),582573.3999999762,A,skinenter,O,enter,410,1,1999.5999999940395,580573.7999999821,7709,WL,B,12.0
4,50.782999992370605,learn,9217.000007629395,Mon Nov 24 2025 16:20:03 GMT-0600 (Central Standard Time),584638.7999999821,A,c,O,c,2049,1,2065.199999988079,582573.599999994,7709,WL,B,13.0
4,50.949000120162964,learn,9050.999879837036,Mon Nov 24 2025 16:20:03 GMT-0600 (Central Standard Time),584805.3999999762,A,cl,O,l,156,1,2231.7999999821186,582573.599999994,7709,WL,B,13.0
4,51.18300008773804,learn,8816.999912261963,Mon Nov 24 2025 16:20:03 GMT-0600 (Central Standard Time),585038.6999999881,A,clo,O,o,215,1,2465.0999999940395,582573.599999994,7709,WL,B,13.0
4,51.35000014305115,learn,8649.999856948853,Mon Nov 24 2025 16:20:03 GMT-0600 (Central Standard Time),585205.7999999821,A,cloc,O,c,158,1,2632.199999988079,582573.599999994,7709,WL,B,13.0
4,51.51600003242493,learn,8483.999967575073,Mon Nov 24 2025 16:20:03 GMT-0600 (Central Standard Time),585372.0,A,clock,O,k,150,1,2798.4000000059605,582573.599999994,7709,WL,B,13.0
4,51.848000049591064,learn,8151.999950408936,Mon Nov 24 2025 16:20:03 GMT-0600 (Central Standard Time),585704.2999999821,A,clockenter,O,enter,314,1,3130.699999988079,582573.599999994,7709,WL,B,13.0
4,57.081000089645386,learn,2918.9999103546143,Mon Nov 24 2025 16:20:03 GMT-0600 (Central Standard Time),590938.0,A,s,O,s,5229,1,5233.4000000059605,585704.599999994,7709,WL,B,14.0
4,57.27999997138977,learn,2720.0000286102295,Mon Nov 24 2025 16:20:03 GMT-0600 (Central Standard Time),591136.599999994,A,sk,O,k,188,1,5432.0,585704.599999994,7709,WL,B,14.0
4,57.496999979019165,learn,2503.000020980835,Mon Nov 24 2025 16:20:03 GMT-0600 (Central Standard Time),591354.099999994,A,ski,O,i,203,1,5649.5,585704.599999994,7709,WL,B,14.0
4,57.66499996185303,learn,2335.0000381469727,Mon Nov 24 2025 16:20:03 GMT-0600 (Central Standard Time),591521.1999999881,A,skin,O,n,147,1,5816.5999999940395,585704.599999994,7709,WL,B,14.0
4,58.04700016975403,learn,1952.9998302459717,Mon Nov 24 2025 16:20:03 GMT-0600 (Central Standard Time),591903.6999999881,A,skinenter,O,enter,366,1,6199.0999999940395,585704.599999994,7709,WL,B,14.0
4,60.01400017738342,learn,-14.000177383422852,Mon Nov 24 2025 16:20:03 GMT-0600 (Central Standard Time),593870.3999999762,A,None,O,None,1962,1,1966.5,591903.8999999762,7709,WL,B,15.0
5,1.4830000400543213,learn,60000.0,Mon Nov 24 2025 16:20:03 GMT-0600 (Central Standard Time),675027.1999999881,A,s,O,s,1471,1,1482.800000011921,673544.3999999762,7709,WL,B,1.0
5,1.9660000801086426,learn,60000.0,Mon Nov 24 2025 16:20:03 GMT-0600 (Central Standard Time),675510.3999999762,A,st,O,t,463,1,1966.0,673544.3999999762,7709,WL,B,1.0
5,2.4160001277923584,learn,60000.0,Mon Nov 24 2025 16:20:03 GMT-0600 (Central Standard Time),675960.1999999881,A,str,O,r,427,1,2415.800000011921,673544.3999999762,7709,WL,B,1.0
5,2.765000104904175,learn,60000.0,Mon Nov 24 2025 16:20:03 GMT-0600 (Central Standard Time),676309.599999994,A,stre,O,e,340,1,2765.2000000178814,673544.3999999762,7709,WL,B,1.0
5,2.9149999618530273,learn,60000.0,Mon Nov 24 2025 16:20:03 GMT-0600 (Central Standard Time),676459.6999999881,A,stree,O,e,143,1,2915.300000011921,673544.3999999762,7709,WL,B,1.0
5,3.1480000019073486,learn,60000.0,Mon Nov 24 2025 16:20:03 GMT-0600 (Central Standard Time),676692.8999999762,A,street,O,t,224,1,3148.5,673544.3999999762,7709,WL,B,1.0
5,3.7320001125335693,learn,60000.0,Mon Nov 24 2025 16:20:03 GMT-0600 (Central Standard Time),677276.2999999821,A,streetenter,O,enter,567,1,3731.9000000059605,673544.3999999762,7709,WL,B,1.0
5,4.697999954223633,learn,60000.0,Mon Nov 24 2025 16:20:03 GMT-0600 (Central Standard Time),678242.8999999762,A,g,O,g,954,1,966.3999999761581,677276.5,7709,WL,B,2.0
5,5.04800009727478,learn,60000.0,Mon Nov 24 2025 16:20:03 GMT-0600 (Central Standard Time),678592.5,A,gr,O,r,326,1,1316.0,677276.5,7709,WL,B,2.0
5,5.2829999923706055,learn,60000.0,Mon Nov 24 2025 16:20:03 GMT-0600 (Central Standard Time),678826.8999999762,A,gra,O,a,227,1,1550.3999999761581,677276.5,7709,WL,B,2.0
5,5.565000057220459,learn,60000.0,Mon Nov 24 2025 16:20:03 GMT-0600 (Central Standard Time),679109.099999994,A,gras,O,s,275,1,1832.5999999940395,677276.5,7709,WL,B,2.0
5,5.7149999141693115,learn,60000.0,Mon Nov 24 2025 16:20:03 GMT-0600 (Central Standard Time),679259.099999994,A,grass,O,s,135,1,1982.5999999940395,677276.5,7709,WL,B,2.0
5,6.180999994277954,learn,60000.0,Mon Nov 24 2025 16:20:03 GMT-0600 (Central Standard Time),679725.0,A,grassenter,O,enter,449,1,2448.5,677276.5,7709,WL,B,2.0
5,7.230000019073486,learn,60000.0,Mon Nov 24 2025 16:20:03 GMT-0600 (Central Standard Time),680774.7999999821,A,d,O,d,1040,1,1049.5999999940395,679725.1999999881,7709,WL,B,3.0
5,7.5970001220703125,learn,60000.0,Mon Nov 24 2025 16:20:03 GMT-0600 (Central Standard Time),681141.599999994,A,do,O,o,358,1,1416.4000000059605,679725.1999999881,7709,WL,B,3.0
5,7.815000057220459,learn,60000.0,Mon Nov 24 2025 16:20:03 GMT-0600 (Central Standard Time),681358.8999999762,A,doo,O,o,203,1,1633.699999988079,679725.1999999881,7709,WL,B,3.0
5,8.13100004196167,learn,60000.0,Mon Nov 24 2025 16:20:03 GMT-0600 (Central Standard Time),681675.7999999821,A,door,O,r,297,1,1950.5999999940395,679725.1999999881,7709,WL,B,3.0
5,8.496000051498413,learn,60000.0,Mon Nov 24 2025 16:20:03 GMT-0600 (Central Standard Time),682040.2999999821,A,doorenter,O,enter,343,1,2315.0999999940395,679725.1999999881,7709,WL,B,3.0
5,9.013999938964844,learn,60000.0,Mon Nov 24 2025 16:20:03 GMT-0600 (Central Standard Time),682558.599999994,A,a,O,a,502,1,518.0,682040.599999994,7709,WL,B,4.0
5,9.397000074386597,learn,60000.0,Mon Nov 24 2025 16:20:03 GMT-0600 (Central Standard Time),682940.7999999821,A,ar,O,r,372,1,900.1999999880791,682040.599999994,7709,WL,B,4.0
5,10.279000043869019,learn,60000.0,Mon Nov 24 2025 16:20:03 GMT-0600 (Central Standard Time),683823.099999994,A,arm,O,m,865,1,1782.5,682040.599999994,7709,WL,B,4.0
5,11.180000066757202,learn,60000.0,Mon Nov 24 2025 16:20:03 GMT-0600 (Central Standard Time),684724.099999994,A,armenter,O,enter,889,1,2683.5,682040.599999994,7709,WL,B,4.0
5,11.864000082015991,learn,60000.0,Mon Nov 24 2025 16:20:03 GMT-0600 (Central Standard Time),685408.099999994,A,s,O,s,666,1,683.7000000178814,684724.3999999762,7709,WL,B,5.0
5,12.293999910354614,learn,60000.0,Mon Nov 24 2025 16:20:03 GMT-0600 (Central Standard Time),685838.7999999821,A,st,O,t,420,1,1114.4000000059605,684724.3999999762,7709,WL,B,5.0
5,12.546000003814697,learn,60000.0,Mon Nov 24 2025 16:20:03 GMT-0600 (Central Standard Time),686089.8999999762,A,sta,O,a,232,1,1365.5,684724.3999999762,7709,WL,B,5.0
5,12.729000091552734,learn,60000.0,Mon Nov 24 2025 16:20:03 GMT-0600 (Central Standard Time),686273.2999999821,A,star,O,r,165,1,1548.9000000059605,684724.3999999762,7709,WL,B,5.0
5,13.229000091552734,learn,60000.0,Mon Nov 24 2025 16:20:03 GMT-0600 (Central Standard Time),686773.6999999881,A,starenter,O,enter,489,1,2049.300000011921,684724.3999999762,7709,WL,B,5.0
5,14.013000011444092,learn,60000.0,Mon Nov 24 2025 16:20:03 GMT-0600 (Central Standard Time),687556.8999999762,A,w,O,w,770,1,782.8999999761581,686774.0,7709,WL,B,6.0
5,14.278000116348267,learn,60000.0,Mon Nov 24 2025 16:20:03 GMT-0600 (Central Standard Time),687822.7999999821,A,wi,O,i,248,1,1048.7999999821186,686774.0,7709,WL,B,6.0
5,14.528000116348267,learn,60000.0,Mon Nov 24 2025 16:20:03 GMT-0600 (Central Standard Time),688072.7999999821,A,wif,O,f,238,1,1298.7999999821186,686774.0,7709,WL,B,6.0
5,14.76200008392334,learn,60000.0,Mon Nov 24 2025 16:20:03 GMT-0600 (Central Standard Time),688305.8999999762,A,wife,O,e,208,1,1531.8999999761581,686774.0,7709,WL,B,6.0
5,15.128000020980835,learn,60000.0,Mon Nov 24 2025 16:20:03 GMT-0600 (Central Standard Time),688672.3999999762,A,wifeenter,O,enter,353,1,1898.3999999761581,686774.0,7709,WL,B,6.0
5,15.66100001335144,learn,60000.0,Mon Nov 24 2025 16:20:03 GMT-0600 (Central Standard Time),689205.6999999881,A,s,O,s,518,1,533.0,688672.6999999881,7709,WL,B,7.0
5,16.477999925613403,learn,60000.0,Mon Nov 24 2025 16:20:03 GMT-0600 (Central Standard Time),690022.1999999881,A,,O,backspace,797,1,1349.5,688672.6999999881,7709,WL,B,7.0
5,16.694999933242798,learn,60000.0,Mon Nov 24 2025 16:20:03 GMT-0600 (Central Standard Time),690239.0,A,w,O,w,194,1,1566.300000011921,688672.6999999881,7709,WL,B,7.0
5,16.911999940872192,learn,60000.0,Mon Nov 24 2025 16:20:03 GMT-0600 (Central Standard Time),690456.3999999762,A,wi,O,i,194,1,1783.699999988079,688672.6999999881,7709,WL,B,7.0
5,17.24500012397766,learn,60000.0,Mon Nov 24 2025 16:20:03 GMT-0600 (Central Standard Time),690789.0,A,win,O,n,313,1,2116.300000011921,688672.6999999881,7709,WL,B,7.0
5,17.51200008392334,learn,60000.0,Mon Nov 24 2025 16:20:03 GMT-0600 (Central Standard Time),691056.0,A,wind,O,d,248,1,2383.300000011921,688672.6999999881,7709,WL,B,7.0
5,17.628999948501587,learn,60000.0,Mon Nov 24 2025 16:20:03 GMT-0600 (Central Standard Time),691173.7999999821,A,windo,O,o,111,1,2501.0999999940395,688672.6999999881,7709,WL,B,7.0
5,17.812000036239624,learn,60000.0,Mon Nov 24 2025 16:20:03 GMT-0600 (Central Standard Time),691356.1999999881,A,window,O,w,173,1,2683.5,688672.6999999881,7709,WL,B,7.0
5,18.39400005340576,learn,60000.0,Mon Nov 24 2025 16:20:03 GMT-0600 (Central Standard Time),691938.099999994,A,windowenter,O,enter,567,1,3265.4000000059605,688672.6999999881,7709,WL,B,7.0
5,21.39199995994568,learn,60000.0,Mon Nov 24 2025 16:20:03 GMT-0600 (Central Standard Time),694936.6999999881,A,c,O,c,2988,1,2998.300000011921,691938.3999999762,7709,WL,B,8.0
5,21.592000007629395,learn,60000.0,Mon Nov 24 2025 16:20:03 GMT-0600 (Central Standard Time),695135.8999999762,A,ci,O,i,187,1,3197.5,691938.3999999762,7709,WL,B,8.0
5,21.926000118255615,learn,60000.0,Mon Nov 24 2025 16:20:03 GMT-0600 (Central Standard Time),695470.0,A,cit,O,t,326,1,3531.600000023842,691938.3999999762,7709,WL,B,8.0
5,22.441999912261963,learn,60000.0,Mon Nov 24 2025 16:20:03 GMT-0600 (Central Standard Time),695986.7999999821,A,city,O,y,506,1,4048.4000000059605,691938.3999999762,7709,WL,B,8.0
5,22.875999927520752,learn,60000.0,Mon Nov 24 2025 16:20:03 GMT-0600 (Central Standard Time),696420.7999999821,A,cityenter,O,enter,425,1,4482.4000000059605,691938.3999999762,7709,WL,B,8.0
5,23.975000143051147,learn,60000.0,Mon Nov 24 2025 16:20:03 GMT-0600 (Central Standard Time),697519.7999999821,A,p,O,p,1089,1,1098.7999999821186,696421.0,7709,WL,B,9.0
5,24.308000087738037,learn,60000.0,Mon Nov 24 2025 16:20:03 GMT-0600 (Central Standard Time),697852.8999999762,A,pu,O,u,313,1,1431.8999999761581,696421.0,7709,WL,B,9.0
5,24.508000135421753,learn,60000.0,Mon Nov 24 2025 16:20:03 GMT-0600 (Central Standard Time),698052.6999999881,A,pup,O,p,192,1,1631.699999988079,696421.0,7709,WL,B,9.0
5,24.891000032424927,learn,60000.0,Mon Nov 24 2025 16:20:03 GMT-0600 (Central Standard Time),698435.8999999762,A,pupi,O,i,366,1,2014.8999999761581,696421.0,7709,WL,B,9.0
5,25.39199995994568,learn,60000.0,Mon Nov 24 2025 16:20:03 GMT-0600 (Central Standard Time),698936.099999994,A,pupil,O,l,480,1,2515.0999999940395,696421.0,7709,WL,B,9.0
5,26.45799994468689,learn,60000.0,Mon Nov 24 2025 16:20:03 GMT-0600 (Central Standard Time),700002.3999999762,A,pupilenter,O,enter,1050,1,3581.399999976158,696421.0,7709,WL,B,9.0
5,28.10800004005432,learn,60000.0,Mon Nov 24 2025 16:20:03 GMT-0600 (Central Standard Time),701652.1999999881,A,f,O,f,1636,1,1649.5,700002.6999999881,7709,WL,B,10.0
5,29.79100012779236,learn,60000.0,Mon Nov 24 2025 16:20:03 GMT-0600 (Central Standard Time),703335.5,A,,O,backspace,1675,1,3332.800000011921,700002.6999999881,7709,WL,B,10.0
5,30.92300009727478,learn,60000.0,Mon Nov 24 2025 16:20:03 GMT-0600 (Central Standard Time),704467.7999999821,A,c,O,c,1126,1,4465.0999999940395,700002.6999999881,7709,WL,B,10.0
5,31.191999912261963,learn,60000.0,Mon Nov 24 2025 16:20:03 GMT-0600 (Central Standard Time),704736.1999999881,A,ca,O,a,259,1,4733.5,700002.6999999881,7709,WL,B,10.0
5,31.473000049591064,learn,60000.0,Mon Nov 24 2025 16:20:03 GMT-0600 (Central Standard Time),705017.3999999762,A,cab,O,b,261,1,5014.699999988079,700002.6999999881,7709,WL,B,10.0
5,31.674999952316284,learn,60000.0,Mon Nov 24 2025 16:20:03 GMT-0600 (Central Standard Time),705219.3999999762,A,cabi,O,i,195,1,5216.699999988079,700002.6999999881,7709,WL,B,10.0
5,31.85700011253357,learn,60000.0,Mon Nov 24 2025 16:20:03 GMT-0600 (Central Standard Time),705401.3999999762,A,cabin,O,n,161,1,5398.699999988079,700002.6999999881,7709,WL,B,10.0
5,32.90700006484985,learn,60000.0,Mon Nov 24 2025 16:20:03 GMT-0600 (Central Standard Time),706451.2999999821,A,cabinenter,O,enter,1042,1,6448.5999999940395,700002.6999999881,7709,WL,B,10.0
5,34.20799994468689,learn,60000.0,Mon Nov 24 2025 16:20:03 GMT-0600 (Central Standard Time),707752.599999994,A,l,O,l,1292,1,1301.0999999940395,706451.5,7709,WL,B,11.0
5,34.69000005722046,learn,60000.0,Mon Nov 24 2025 16:20:03 GMT-0600 (Central Standard Time),708234.6999999881,A,la,O,a,459,1,1783.199999988079,706451.5,7709,WL,B,11.0
5,34.90499997138977,learn,60000.0,Mon Nov 24 2025 16:20:03 GMT-0600 (Central Standard Time),708450.0,A,lak,O,k,202,1,1998.5,706451.5,7709,WL,B,11.0
5,35.12400007247925,learn,60000.0,Mon Nov 24 2025 16:20:03 GMT-0600 (Central Standard Time),708669.1999999881,A,lake,O,e,203,1,2217.699999988079,706451.5,7709,WL,B,11.0
5,36.1710000038147,learn,60000.0,Mon Nov 24 2025 16:20:03 GMT-0600 (Central Standard Time),709716.099999994,A,lakeenter,O,enter,1032,1,3264.5999999940395,706451.5,7709,WL,B,11.0
5,37.6710000038147,learn,60000.0,Mon Nov 24 2025 16:20:03 GMT-0600 (Central Standard Time),711216.3999999762,A,s,O,s,1492,1,1500.0999999940395,709716.2999999821,7709,WL,B,12.0
5,37.8199999332428,learn,60000.0,Mon Nov 24 2025 16:20:03 GMT-0600 (Central Standard Time),711365.5,A,sk,O,k,142,1,1649.2000000178814,709716.2999999821,7709,WL,B,12.0
5,38.03600001335144,learn,60000.0,Mon Nov 24 2025 16:20:03 GMT-0600 (Central Standard Time),711580.6999999881,A,ski,O,i,200,1,1864.4000000059605,709716.2999999821,7709,WL,B,12.0
5,38.20300006866455,learn,60000.0,Mon Nov 24 2025 16:20:03 GMT-0600 (Central Standard Time),711748.3999999762,A,skin,O,n,154,1,2032.0999999940395,709716.2999999821,7709,WL,B,12.0
5,39.15300011634827,learn,60000.0,Mon Nov 24 2025 16:20:03 GMT-0600 (Central Standard Time),712698.099999994,A,skinenter,O,enter,938,1,2981.800000011921,709716.2999999821,7709,WL,B,12.0
5,39.78699994087219,learn,60000.0,Mon Nov 24 2025 16:20:03 GMT-0600 (Central Standard Time),713331.6999999881,A,f,O,f,629,1,633.3000000119209,712698.3999999762,7709,WL,B,13.0
5,39.98699998855591,learn,60000.0,Mon Nov 24 2025 16:20:03 GMT-0600 (Central Standard Time),713532.0,A,fi,O,i,188,1,833.6000000238419,712698.3999999762,7709,WL,B,13.0
5,40.1029999256134,learn,60000.0,Mon Nov 24 2025 16:20:03 GMT-0600 (Central Standard Time),713647.599999994,A,fir,O,r,107,1,949.2000000178814,712698.3999999762,7709,WL,B,13.0
5,40.26900005340576,learn,60000.0,Mon Nov 24 2025 16:20:03 GMT-0600 (Central Standard Time),713814.3999999762,A,fire,O,e,157,1,1116.0,712698.3999999762,7709,WL,B,13.0
5,40.769999980926514,learn,60000.0,Mon Nov 24 2025 16:20:03 GMT-0600 (Central Standard Time),714315.0,A,fireenter,O,enter,496,1,1616.6000000238419,712698.3999999762,7709,WL,B,13.0
5,43.76800012588501,learn,60000.0,Mon Nov 24 2025 16:20:03 GMT-0600 (Central Standard Time),717313.5,A,p,O,p,2979,1,2998.2000000178814,714315.2999999821,7709,WL,B,14.0
5,44.069000005722046,learn,60000.0,Mon Nov 24 2025 16:20:03 GMT-0600 (Central Standard Time),717614.099999994,A,pi,O,i,282,1,3298.800000011921,714315.2999999821,7709,WL,B,14.0
5,44.26900005340576,learn,60000.0,Mon Nov 24 2025 16:20:03 GMT-0600 (Central Standard Time),717813.599999994,A,pip,O,p,190,1,3498.300000011921,714315.2999999821,7709,WL,B,14.0
5,44.53500008583069,learn,60000.0,Mon Nov 24 2025 16:20:03 GMT-0600 (Central Standard Time),718079.8999999762,A,pipe,O,e,258,1,3764.5999999940395,714315.2999999821,7709,WL,B,14.0
5,45.134000062942505,learn,60000.0,Mon Nov 24 2025 16:20:03 GMT-0600 (Central Standard Time),718679.1999999881,A,pipeenter,O,enter,579,1,4363.9000000059605,714315.2999999821,7709,WL,B,14.0
5,46.835999965667725,learn,60000.0,Mon Nov 24 2025 16:20:03 GMT-0600 (Central Standard Time),720380.6999999881,A,c,O,c,1696,1,1701.300000011921,718679.3999999762,7709,WL,B,15.0
5,47.049999952316284,learn,60000.0,Mon Nov 24 2025 16:20:03 GMT-0600 (Central Standard Time),720595.3999999762,A,cl,O,l,208,1,1916.0,718679.3999999762,7709,WL,B,15.0
5,47.25099992752075,learn,60000.0,Mon Nov 24 2025 16:20:03 GMT-0600 (Central Standard Time),720796.1999999881,A,clo,O,o,195,1,2116.800000011921,718679.3999999762,7709,WL,B,15.0
5,47.40000009536743,learn,60000.0,Mon Nov 24 2025 16:20:03 GMT-0600 (Central Standard Time),720945.1999999881,A,cloc,O,c,135,1,2265.800000011921,718679.3999999762,7709,WL,B,15.0
5,47.61800003051758,learn,60000.0,Mon Nov 24 2025 16:20:03 GMT-0600 (Central Standard Time),721163.2999999821,A,clock,O,k,204,1,2483.9000000059605,718679.3999999762,7709,WL,B,15.0
5,47.95099997520447,learn,60000.0,Mon Nov 24 2025 16:20:03 GMT-0600 (Central Standard Time),721495.7999999821,A,clockenter,O,enter,315,1,2816.4000000059605,718679.3999999762,7709,WL,B,15.0
6,2.5320000648498535,distr,57467.99993515015,Mon Nov 24 2025 16:20:03 GMT-0600 (Central Standard Time),848671.7999999821,B,c,O,c,2521,1,2532.0,846139.7999999821,7709,WL,B,1.0
6,2.7990000247955322,distr,57200.99997520447,Mon Nov 24 2025 16:20:03 GMT-0600 (Central Standard Time),848938.5,B,ce,O,e,255,1,2798.7000000178814,846139.7999999821,7709,WL,B,1.0
6,3.065000057220459,distr,56934.99994277954,Mon Nov 24 2025 16:20:03 GMT-0600 (Central Standard Time),849204.599999994,B,cek,O,k,259,1,3064.800000011921,846139.7999999821,7709,WL,B,1.0
6,3.2660000324249268,distr,56733.99996757507,Mon Nov 24 2025 16:20:03 GMT-0600 (Central Standard Time),849405.599999994,B,cekk,O,k,179,1,3265.800000011921,846139.7999999821,7709,WL,B,1.0
6,4.71399998664856,distr,55286.00001335144,Mon Nov 24 2025 16:20:03 GMT-0600 (Central Standard Time),850853.6999999881,B,cek,O,backspace,1431,1,4713.9000000059605,846139.7999999821,7709,WL,B,1.0
6,4.898000001907349,distr,55101.99999809265,Mon Nov 24 2025 16:20:03 GMT-0600 (Central Standard Time),851037.7999999821,B,ce,O,backspace,169,1,4898.0,846139.7999999821,7709,WL,B,1.0
6,6.315000057220459,distr,53684.99994277954,Mon Nov 24 2025 16:20:03 GMT-0600 (Central Standard Time),852453.8999999762,B,cel,O,l,1408,1,6314.0999999940395,846139.7999999821,7709,WL,B,1.0
6,6.514000177383423,distr,53485.99982261658,Mon Nov 24 2025 16:20:03 GMT-0600 (Central Standard Time),852653.3999999762,B,cell,O,l,192,1,6513.5999999940395,846139.7999999821,7709,WL,B,1.0
6,7.031000137329102,distr,52968.9998626709,Mon Nov 24 2025 16:20:03 GMT-0600 (Central Standard Time),853170.3999999762,B,cellenter,O,enter,505,1,7030.5999999940395,846139.7999999821,7709,WL,B,1.0
6,7.930000066757202,distr,52069.9999332428,Mon Nov 24 2025 16:20:03 GMT-0600 (Central Standard Time),854069.3999999762,B,b,O,b,884,1,898.7999999821186,853170.599999994,7709,WL,B,2.0
6,8.44700002670288,distr,51552.99997329712,Mon Nov 24 2025 16:20:03 GMT-0600 (Central Standard Time),854586.6999999881,B,bb,O,b,505,1,1416.0999999940395,853170.599999994,7709,WL,B,2.0
6,9.047000169754028,distr,50952.99983024597,Mon Nov 24 2025 16:20:03 GMT-0600 (Central Standard Time),855186.3999999762,B,b,O,backspace,580,1,2015.7999999821186,853170.599999994,7709,WL,B,2.0
6,9.180999994277954,distr,50819.000005722046,Mon Nov 24 2025 16:20:03 GMT-0600 (Central Standard Time),855320.2999999821,B,ba,O,a,124,1,2149.699999988079,853170.599999994,7709,WL,B,2.0
6,9.763000011444092,distr,50236.99998855591,Mon Nov 24 2025 16:20:03 GMT-0600 (Central Standard Time),855902.7999999821,B,bab,O,b,564,1,2732.199999988079,853170.599999994,7709,WL,B,2.0
6,10.21399998664856,distr,49786.00001335144,Mon Nov 24 2025 16:20:03 GMT-0600 (Central Standard Time),856353.099999994,B,baby,O,y,431,1,3182.5,853170.599999994,7709,WL,B,2.0
6,10.77999997138977,distr,49220.00002861023,Mon Nov 24 2025 16:20:03 GMT-0600 (Central Standard Time),856919.3999999762,B,babyenter,O,enter,557,1,3748.7999999821186,853170.599999994,7709,WL,B,2.0
6,11.130000114440918,distr,48869.99988555908,Mon Nov 24 2025 16:20:03 GMT-0600 (Central Standard Time),857269.099999994,B,s,O,s,329,1,349.40000000596046,856919.6999999881,7709,WL,B,3.0
6,11.36300015449524,distr,48636.99984550476,Mon Nov 24 2025 16:20:03 GMT-0600 (Central Standard Time),857502.099999994,B,st,O,t,225,1,582.4000000059605,856919.6999999881,7709,WL,B,3.0
6,11.61300015449524,distr,48386.99984550476,Mon Nov 24 2025 16:20:03 GMT-0600 (Central Standard Time),857752.599999994,B,ste,O,e,241,1,832.9000000059605,856919.6999999881,7709,WL,B,3.0
6,11.830000162124634,distr,48169.999837875366,Mon Nov 24 2025 16:20:03 GMT-0600 (Central Standard Time),857969.3999999762,B,stea,O,a,204,1,1049.699999988079,856919.6999999881,7709,WL,B,3.0
6,12.029000043869019,distr,47970.99995613098,Mon Nov 24 2025 16:20:03 GMT-0600 (Central Standard Time),858168.2999999821,B,steam,O,m,181,1,1248.5999999940395,856919.6999999881,7709,WL,B,3.0
6,12.412000179290771,distr,47587.99982070923,Mon Nov 24 2025 16:20:03 GMT-0600 (Central Standard Time),858551.3999999762,B,steamenter,O,enter,372,1,1631.699999988079,856919.6999999881,7709,WL,B,3.0
6,12.979000091552734,distr,47020.999908447266,Mon Nov 24 2025 16:20:03 GMT-0600 (Central Standard Time),859118.6999999881,B,d,O,d,551,1,567.0999999940395,858551.599999994,7709,WL,B,4.0
6,13.229000091552734,distr,46770.999908447266,Mon Nov 24 2025 16:20:03 GMT-0600 (Central Standard Time),859368.3999999762,B,dr,O,r,232,1,816.7999999821186,858551.599999994,7709,WL,B,4.0
6,13.361999988555908,distr,46638.00001144409,Mon Nov 24 2025 16:20:03 GMT-0600 (Central Standard Time),859501.7999999821,B,dre,O,e,118,1,950.1999999880791,858551.599999994,7709,WL,B,4.0
6,13.59600019454956,distr,46403.99980545044,Mon Nov 24 2025 16:20:03 GMT-0600 (Central Standard Time),859735.5,B,dres,O,s,226,1,1183.9000000059605,858551.599999994,7709,WL,B,4.0
6,13.763000011444092,distr,46236.99998855591,Mon Nov 24 2025 16:20:03 GMT-0600 (Central Standard Time),859902.099999994,B,dress,O,s,158,1,1350.5,858551.599999994,7709,WL,B,4.0
6,13.945000171661377,distr,46054.99982833862,Mon Nov 24 2025 16:20:03 GMT-0600 (Central Standard Time),860084.5,B,dressenter,O,enter,178,1,1532.9000000059605,858551.599999994,7709,WL,B,4.0
6,14.480000019073486,distr,45519.999980926514,Mon Nov 24 2025 16:20:03 GMT-0600 (Central Standard Time),860619.099999994,B,p,O,p,513,1,534.3000000119209,860084.7999999821,7709,WL,B,5.0
6,14.696000099182129,distr,45303.99990081787,Mon Nov 24 2025 16:20:03 GMT-0600 (Central Standard Time),860835.0,B,pa,O,a,210,1,750.2000000178814,860084.7999999821,7709,WL,B,5.0
6,14.996000051498413,distr,45003.99994850159,Mon Nov 24 2025 16:20:03 GMT-0600 (Central Standard Time),861135.0,B,pal,O,l,292,1,1050.2000000178814,860084.7999999821,7709,WL,B,5.0
6,15.16100001335144,distr,44838.99998664856,Mon Nov 24 2025 16:20:03 GMT-0600 (Central Standard Time),861300.5,B,pala,O,a,151,1,1215.7000000178814,860084.7999999821,7709,WL,B,5.0
6,15.377000093460083,distr,44622.99990653992,Mon Nov 24 2025 16:20:03 GMT-0600 (Central Standard Time),861516.8999999762,B,palac,O,c,209,1,1432.0999999940395,860084.7999999821,7709,WL,B,5.0
6,15.66100001335144,distr,44338.99998664856,Mon Nov 24 2025 16:20:03 GMT-0600 (Central Standard Time),861800.6999999881,B,palace,O,e,273,1,1715.9000000059605,860084.7999999821,7709,WL,B,5.0
6,15.912000179290771,distr,44087.99982070923,Mon Nov 24 2025 16:20:03 GMT-0600 (Central Standard Time),862051.8999999762,B,palaceenter,O,enter,245,1,1967.0999999940395,860084.7999999821,7709,WL,B,5.0
6,16.461000204086304,distr,43538.999795913696,Mon Nov 24 2025 16:20:03 GMT-0600 (Central Standard Time),862600.599999994,B,a,O,a,538,1,548.5,862052.099999994,7709,WL,B,6.0
6,16.728000164031982,distr,43271.99983596802,Mon Nov 24 2025 16:20:03 GMT-0600 (Central Standard Time),862867.1999999881,B,ar,O,r,256,1,815.0999999940395,862052.099999994,7709,WL,B,6.0
6,16.97699999809265,distr,43023.00000190735,Mon Nov 24 2025 16:20:03 GMT-0600 (Central Standard Time),863116.5,B,arm,O,m,230,1,1064.4000000059605,862052.099999994,7709,WL,B,6.0
6,17.294000148773193,distr,42705.99985122681,Mon Nov 24 2025 16:20:03 GMT-0600 (Central Standard Time),863433.5,B,army,O,y,306,1,1381.4000000059605,862052.099999994,7709,WL,B,6.0
6,17.628000020980835,distr,42371.999979019165,Mon Nov 24 2025 16:20:03 GMT-0600 (Central Standard Time),863767.5,B,armyenter,O,enter,324,1,1715.4000000059605,862052.099999994,7709,WL,B,6.0
6,18.062000036239624,distr,41937.999963760376,Mon Nov 24 2025 16:20:03 GMT-0600 (Central Standard Time),864201.5,B,b,O,b,423,1,433.80000001192093,863767.6999999881,7709,WL,B,7.0
6,18.278000116348267,distr,41721.99988365173,Mon Nov 24 2025 16:20:03 GMT-0600 (Central Standard Time),864417.0,B,bu,O,u,206,1,649.3000000119209,863767.6999999881,7709,WL,B,7.0
6,18.47699999809265,distr,41523.00000190735,Mon Nov 24 2025 16:20:03 GMT-0600 (Central Standard Time),864616.0,B,bui,O,i,181,1,848.3000000119209,863767.6999999881,7709,WL,B,7.0
6,18.710000038146973,distr,41289.99996185303,Mon Nov 24 2025 16:20:03 GMT-0600 (Central Standard Time),864849.7999999821,B,buil,O,l,222,1,1082.0999999940395,863767.6999999881,7709,WL,B,7.0
6,18.877000093460083,distr,41122.99990653992,Mon Nov 24 2025 16:20:03 GMT-0600 (Central Standard Time),865016.6999999881,B,build,O,d,155,1,1249.0,863767.6999999881,7709,WL,B,7.0
6,19.027000188827515,distr,40972.999811172485,Mon Nov 24 2025 16:20:03 GMT-0600 (Central Standard Time),865166.2999999821,B,buildi,O,i,141,1,1398.5999999940395,863767.6999999881,7709,WL,B,7.0
6,19.177000045776367,distr,40822.99995422363,Mon Nov 24 2025 16:20:03 GMT-0600 (Central Standard Time),865316.6999999881,B,buildin,O,n,135,1,1549.0,863767.6999999881,7709,WL,B,7.0
6,19.312000036239624,distr,40687.999963760376,Mon Nov 24 2025 16:20:03 GMT-0600 (Central Standard Time),865451.099999994,B,building,O,g,130,1,1683.4000000059605,863767.6999999881,7709,WL,B,7.0
6,19.944000005722046,distr,40055.999994277954,Mon Nov 24 2025 16:20:03 GMT-0600 (Central Standard Time),866083.7999999821,B,buildingenter,O,enter,626,1,2316.0999999940395,863767.6999999881,7709,WL,B,7.0
6,25.225000143051147,distr,34774.99985694885,Mon Nov 24 2025 16:20:03 GMT-0600 (Central Standard Time),871364.2999999821,B,d,O,d,5266,1,5280.199999988079,866084.099999994,7709,WL,B,8.0
6,25.79200005531311,distr,34207.99994468689,Mon Nov 24 2025 16:20:03 GMT-0600 (Central Standard Time),871931.1999999881,B,,O,backspace,561,1,5847.0999999940395,866084.099999994,7709,WL,B,8.0
6,25.909000158309937,distr,34090.99984169006,Mon Nov 24 2025 16:20:03 GMT-0600 (Central Standard Time),872048.2999999821,B,f,O,f,107,1,5964.199999988079,866084.099999994,7709,WL,B,8.0
6,26.157999992370605,distr,33842.000007629395,Mon Nov 24 2025 16:20:03 GMT-0600 (Central Standard Time),872297.3999999762,B,fr,O,r,238,1,6213.299999982119,866084.099999994,7709,WL,B,8.0
6,26.30900001525879,distr,33690.99998474121,Mon Nov 24 2025 16:20:03 GMT-0600 (Central Standard Time),872448.0,B,fri,O,i,134,1,6363.9000000059605,866084.099999994,7709,WL,B,8.0
6,26.508000135421753,distr,33491.99986457825,Mon Nov 24 2025 16:20:03 GMT-0600 (Central Standard Time),872647.3999999762,B,frie,O,e,190,1,6563.299999982119,866084.099999994,7709,WL,B,8.0
6,26.70800018310547,distr,33291.99981689453,Mon Nov 24 2025 16:20:03 GMT-0600 (Central Standard Time),872847.3999999762,B,frien,O,n,181,1,6763.299999982119,866084.099999994,7709,WL,B,8.0
6,26.991000175476074,distr,33008.999824523926,Mon Nov 24 2025 16:20:03 GMT-0600 (Central Standard Time),873130.6999999881,B,friend,O,d,269,1,7046.5999999940395,866084.099999994,7709,WL,B,8.0
6,27.442000150680542,distr,32557.999849319458,Mon Nov 24 2025 16:20:03 GMT-0600 (Central Standard Time),873581.0,B,friendenter,O,enter,434,1,7496.9000000059605,866084.099999994,7709,WL,B,8.0
6,30.805000066757202,distr,29194.999933242798,Mon Nov 24 2025 16:20:03 GMT-0600 (Central Standard Time),876944.7999999821,B,b,O,b,3344,1,3363.5,873581.2999999821,7709,WL,B,9.0
6,31.09000015258789,distr,28909.99984741211,Mon Nov 24 2025 16:20:03 GMT-0600 (Central Standard Time),877229.7999999821,B,ba,O,a,266,1,3648.5,873581.2999999821,7709,WL,B,9.0
6,31.390000104904175,distr,28609.999895095825,Mon Nov 24 2025 16:20:03 GMT-0600 (Central Standard Time),877529.099999994,B,bar,O,r,279,1,3947.800000011921,873581.2999999821,7709,WL,B,9.0
6,31.689000129699707,distr,28310.999870300293,Mon Nov 24 2025 16:20:03 GMT-0600 (Central Standard Time),877828.7999999821,B,barenter,O,enter,285,1,4247.5,873581.2999999821,7709,WL,B,9.0
6,32.09100008010864,distr,27908.999919891357,Mon Nov 24 2025 16:20:03 GMT-0600 (Central Standard Time),878230.099999994,B,o,O,o,379,1,401.09999999403954,877829.0,7709,WL,B,10.0
6,32.30800008773804,distr,27691.999912261963,Mon Nov 24 2025 16:20:03 GMT-0600 (Central Standard Time),878447.0,B,oc,O,c,199,1,618.0,877829.0,7709,WL,B,10.0
6,32.59000015258789,distr,27409.99984741211,Mon Nov 24 2025 16:20:03 GMT-0600 (Central Standard Time),878729.1999999881,B,oca,O,a,271,1,900.1999999880791,877829.0,7709,WL,B,10.0
6,33.223000049591064,distr,26776.999950408936,Mon Nov 24 2025 16:20:03 GMT-0600 (Central Standard Time),879362.599999994,B,oc,O,backspace,629,1,1533.5999999940395,877829.0,7709,WL,B,10.0
6,33.371999979019165,distr,26628.000020980835,Mon Nov 24 2025 16:20:03 GMT-0600 (Central Standard Time),879511.1999999881,B,oce,O,e,140,1,1682.199999988079,877829.0,7709,WL,B,10.0
6,33.58899998664856,distr,26411.00001335144,Mon Nov 24 2025 16:20:03 GMT-0600 (Central Standard Time),879728.7999999821,B,ocea,O,a,199,1,1899.7999999821186,877829.0,7709,WL,B,10.0
6,33.807000160217285,distr,26192.999839782715,Mon Nov 24 2025 16:20:03 GMT-0600 (Central Standard Time),879946.2999999821,B,ocean,O,n,204,1,2117.2999999821186,877829.0,7709,WL,B,10.0
6,34.205000162124634,distr,25794.999837875366,Mon Nov 24 2025 16:20:03 GMT-0600 (Central Standard Time),880344.2999999821,B,oceanenter,O,enter,378,1,2515.2999999821186,877829.0,7709,WL,B,10.0
6,36.6560001373291,distr,23343.9998626709,Mon Nov 24 2025 16:20:03 GMT-0600 (Central Standard Time),882795.099999994,B,l,O,l,2429,1,2450.5,880344.599999994,7709,WL,B,11.0
6,36.80400013923645,distr,23195.99986076355,Mon Nov 24 2025 16:20:03 GMT-0600 (Central Standard Time),882943.2999999821,B,li,O,i,139,1,2598.699999988079,880344.599999994,7709,WL,B,11.0
6,37.03800010681152,distr,22961.999893188477,Mon Nov 24 2025 16:20:03 GMT-0600 (Central Standard Time),883177.1999999881,B,lip,O,p,214,1,2832.5999999940395,880344.599999994,7709,WL,B,11.0
6,37.40400004386902,distr,22595.99995613098,Mon Nov 24 2025 16:20:03 GMT-0600 (Central Standard Time),883543.599999994,B,lipenter,O,enter,348,1,3199.0,880344.599999994,7709,WL,B,11.0
6,47.9520001411438,distr,12047.999858856201,Mon Nov 24 2025 16:20:03 GMT-0600 (Central Standard Time),894092.099999994,B,b,O,b,10544,1,10548.300000011921,883543.7999999821,7709,WL,B,12.0
6,48.16799998283386,distr,11832.000017166138,Mon Nov 24 2025 16:20:03 GMT-0600 (Central Standard Time),894308.099999994,B,bu,O,u,210,1,10764.300000011921,883543.7999999821,7709,WL,B,12.0
6,48.45099997520447,distr,11549.000024795532,Mon Nov 24 2025 16:20:03 GMT-0600 (Central Standard Time),894590.8999999762,B,bui,O,i,273,1,11047.09999999404,883543.7999999821,7709,WL,B,12.0
6,48.73400020599365,distr,11265.999794006348,Mon Nov 24 2025 16:20:03 GMT-0600 (Central Standard Time),894873.6999999881,B,buil,O,l,263,1,11329.90000000596,883543.7999999821,7709,WL,B,12.0
6,48.93400001525879,distr,11065.999984741211,Mon Nov 24 2025 16:20:03 GMT-0600 (Central Standard Time),895073.8999999762,B,buili,O,i,187,1,11530.09999999404,883543.7999999821,7709,WL,B,12.0
6,49.43400001525879,distr,10565.999984741211,Mon Nov 24 2025 16:20:03 GMT-0600 (Central Standard Time),895573.599999994,B,buil,O,backspace,492,1,12029.800000011921,883543.7999999821,7709,WL,B,12.0
6,49.617000102996826,distr,10382.999897003174,Mon Nov 24 2025 16:20:03 GMT-0600 (Central Standard Time),895757.3999999762,B,build,O,d,178,1,12213.59999999404,883543.7999999821,7709,WL,B,12.0
6,49.76800012588501,distr,10231.99987411499,Mon Nov 24 2025 16:20:03 GMT-0600 (Central Standard Time),895907.7999999821,B,buildi,O,i,136,1,12364.0,883543.7999999821,7709,WL,B,12.0
6,50.00100016593933,distr,9998.999834060669,Mon Nov 24 2025 16:20:03 GMT-0600 (Central Standard Time),896140.599999994,B,buildin,O,n,214,1,12596.800000011921,883543.7999999821,7709,WL,B,12.0
6,50.16700005531311,distr,9832.99994468689,Mon Nov 24 2025 16:20:03 GMT-0600 (Central Standard Time),896306.5,B,building,O,g,152,1,12762.700000017881,883543.7999999821,7709,WL,B,12.0
6,50.35000014305115,distr,9649.999856948853,Mon Nov 24 2025 16:20:03 GMT-0600 (Central Standard Time),896489.6999999881,B,buildingenter,O,enter,162,1,12945.90000000596,883543.7999999821,7709,WL,B,12.0
6,59.265000104904175,distr,734.9998950958252,Mon Nov 24 2025 16:20:03 GMT-0600 (Central Standard Time),905404.599999994,B,enter,O,enter,8910,1,8914.700000017881,896489.8999999762,7709,WL,B,13.0
6,60.01400017738342,distr,-14.000177383422852,Mon Nov 24 2025 16:20:03 GMT-0600 (Central Standard Time),906154.5,B,None,O,None,745,1,749.7000000178814,905404.7999999821,7709,WL,B,14.0
7,2.5999999046325684,immed,57400.00009536743,Mon Nov 24 2025 16:20:03 GMT-0600 (Central Standard Time),922165.8999999762,A,s,O,s,2586,1,2600.199999988079,919565.6999999881,7709,WL,B,1.0
7,2.9830000400543213,immed,57016.99995994568,Mon Nov 24 2025 16:20:03 GMT-0600 (Central Standard Time),922549.2999999821,A,st,O,t,366,1,2983.5999999940395,919565.6999999881,7709,WL,B,1.0
