acc_sum,block_c,block_dur,condition,correct,correct_response,countdown,datetime,endtime,project,response,response_time,response_time_test1_response,response_time_test2_response,row_sel,same,session_number,start_end,starttime,stim1,stim2,subject_id,task,task_vers,time_test1,time_test2,trial
1,1,0.0,prac,1,m,30000.0,Tue Sep 30 2025 11:40:34 GMT-0500 (Central Daylight Time),27800.099999964237,O,m,1364,,,1,no,1,2892.899999976158,24907.19999998808,RNV,FNV,7220,LC,B,,,1
2,1,0.0,prac,1,z,30000.0,Tue Sep 30 2025 11:40:34 GMT-0500 (Central Daylight Time),32451.19999998808,O,z,3120,,,6,yes,1,4645.100000023842,27806.099999964237,CSDBFPHXZ,CSDBFPHXZ,7220,LC,B,,,2
3,1,0.0,prac,1,m,30000.0,Tue Sep 30 2025 11:40:34 GMT-0500 (Central Daylight Time),36399.19999998808,O,m,2409,,,3,no,1,3942.800000011921,32456.399999976158,QHZXPC,QHZWPC,7220,LC,B,,,3
4,1,0.0,prac,1,z,30000.0,Tue Sep 30 2025 11:40:34 GMT-0500 (Central Daylight Time),39364.799999952316,O,z,1445,,,2,yes,1,2961.099999964237,36403.69999998808,NBGFSM,NBGFSM,7220,LC,B,,,4
5,1,0.0,prac,1,z,30000.0,Tue Sep 30 2025 11:40:34 GMT-0500 (Central Daylight Time),41962.09999996424,O,z,1072,,,4,yes,1,2594.0,39368.09999996424,RSM,RSM,7220,LC,B,,,5
6,1,0.0,prac,1,m,30000.0,Tue Sep 30 2025 11:40:34 GMT-0500 (Central Daylight Time),45878.69999998808,O,m,2393,,,5,no,1,3913.300000011921,41965.39999997616,LNDPRSKQB,LNDPRSJQB,7220,LC,B,,,6
1,1,1.4820001125335693,test,1,m,28517.99988746643,Tue Sep 30 2025 11:40:34 GMT-0500 (Central Daylight Time),51692.89999997616,O,m,1475,1475,,1,no,1,1480.1000000238419,50212.799999952316,HCF,RCF,7220,LC,B,48196,,1
2,1,3.3320000171661377,test,1,m,26667.999982833862,Tue Sep 30 2025 11:40:34 GMT-0500 (Central Daylight Time),53542.19999998808,O,m,1831,1831,,2,no,1,1846.699999988079,51695.5,QTPRJX,QTPNJX,7220,LC,B,49679,,2
2,1,4.498000144958496,test,0,m,25501.999855041504,Tue Sep 30 2025 11:40:34 GMT-0500 (Central Daylight Time),54708.69999998808,O,z,1155,1155,,3,no,1,1161.1000000238419,53547.59999996424,MZDYGVGKQ,MZDYGLBKQ,7220,LC,B,51531,,3
3,1,5.647000074386597,test,1,m,24352.999925613403,Tue Sep 30 2025 11:40:34 GMT-0500 (Central Daylight Time),55857.89999997616,O,m,1131,1131,,4,no,1,1141.8999999761581,54716.0,FQTNMK,JQTNMK,7220,LC,B,52699,,4
4,1,7.180000066757202,test,1,z,22819.999933242798,Tue Sep 30 2025 11:40:34 GMT-0500 (Central Daylight Time),57391.0,O,z,1521,1521,,5,yes,1,1529.5,55861.5,CLJ,CLJ,7220,LC,B,53845,,5
5,1,8.86300015449524,test,1,m,21136.99984550476,Tue Sep 30 2025 11:40:34 GMT-0500 (Central Daylight Time),59074.09999996424,O,m,1677,1677,,6,no,1,1679.8999999761581,57394.19999998808,JGDMNSVPW,JGZMNSVPW,7220,LC,B,55378,,6
6,1,11.861999988555908,test,1,z,18138.00001144409,Tue Sep 30 2025 11:40:34 GMT-0500 (Central Daylight Time),62073.19999998808,O,z,2991,2991,,7,yes,1,2992.900000035763,59080.299999952316,FPTVHKCBJ,FPTVHKCBJ,7220,LC,B,57064,,7
7,1,12.82800006866455,test,1,m,17171.99993133545,Tue Sep 30 2025 11:40:34 GMT-0500 (Central Daylight Time),63038.5,O,m,949,949,,8,no,1,956.8000000119209,62081.69999998808,XRPZBS,ZRPBDH,7220,LC,B,60065,,8
8,1,14.01200008392334,test,1,m,15987.99991607666,Tue Sep 30 2025 11:40:34 GMT-0500 (Central Daylight Time),64222.89999997616,O,m,1174,1174,,9,no,1,1181.1000000238419,63041.799999952316,ZSQ,ZSP,7220,LC,B,61025,,9
9,1,15.594000101089478,test,1,z,14405.999898910522,Tue Sep 30 2025 11:40:34 GMT-0500 (Central Daylight Time),65804.79999995232,O,z,1572,1572,,10,yes,1,1577.5,64227.299999952316,MPZRXL,MPZRXL,7220,LC,B,62211,,10
10,1,16.776999950408936,test,1,m,13223.000049591064,Tue Sep 30 2025 11:40:34 GMT-0500 (Central Daylight Time),66987.89999997616,O,m,1166,1166,,11,no,1,1179.0,65808.89999997616,KJH,KRH,7220,LC,B,63792,,11
11,1,18.776999950408936,test,1,z,11223.000049591064,Tue Sep 30 2025 11:40:34 GMT-0500 (Central Daylight Time),68988.09999996424,O,z,1988,1988,,12,yes,1,1992.300000011921,66995.79999995232,SMNHVTFCB,SMNHVTFCB,7220,LC,B,64979,,12
12,1,19.993000030517578,test,1,z,10006.999969482422,Tue Sep 30 2025 11:40:34 GMT-0500 (Central Daylight Time),70203.5,O,z,1197,1197,,13,yes,1,1209.300000011921,68994.19999998808,KJWTQF,KJWTQF,7220,LC,B,66978,,13
13,1,23.725000143051147,test,1,z,6274.9998569488525,Tue Sep 30 2025 11:40:34 GMT-0500 (Central Daylight Time),73935.89999997616,O,z,3717,3717,,14,yes,1,3726.699999988079,70209.19999998808,CHDKQGLMB,CHDKQGLMB,7220,LC,B,68193,,14
13,1,30.008000135421753,test,0,z,-8.00013542175293,Tue Sep 30 2025 11:40:34 GMT-0500 (Central Daylight Time),80218.69999998808,O,None,6278,6278,,15,yes,1,6279.5,73939.19999998808,GHQ,GHQ,7220,LC,B,71923,,15
1,2,3.4139997959136963,test,1,z,26586.000204086304,Tue Sep 30 2025 11:40:34 GMT-0500 (Central Daylight Time),86965.0,O,z,3396,,3396.0,1,yes,1,13025.800000011921,73939.19999998808,PRDBZTYFN,PRDBZTYFN,7220,LC,B,,81538.0,1
1,2,5.996999979019165,test,0,m,24003.000020980835,Tue Sep 30 2025 11:40:34 GMT-0500 (Central Daylight Time),89547.59999996424,O,z,2576,,2576.0,2,no,1,15608.399999976158,73939.19999998808,NCWJDZ,NCMJDZ,7220,LC,B,,84951.0,2
2,2,6.813999891281128,test,1,m,23186.000108718872,Tue Sep 30 2025 11:40:34 GMT-0500 (Central Daylight Time),90364.5,O,m,808,,808.0,3,no,1,16425.30000001192,73939.19999998808,KHW,KBW,7220,LC,B,,87535.0,3
3,2,8.52999997138977,test,1,m,21470.00002861023,Tue Sep 30 2025 11:40:34 GMT-0500 (Central Daylight Time),92080.39999997616,O,m,1711,,1711.0,4,no,1,18141.19999998808,73939.19999998808,ZRBGMF,ZRBCMF,7220,LC,B,,88352.0,4
4,2,9.718999862670898,test,1,m,20281.0001373291,Tue Sep 30 2025 11:40:34 GMT-0500 (Central Daylight Time),93270.09999996424,O,m,1172,,1172.0,5,no,1,19330.899999976158,73939.19999998808,BTH,BYH,7220,LC,B,,90066.0,5
5,2,11.69599986076355,test,1,z,18304.00013923645,Tue Sep 30 2025 11:40:34 GMT-0500 (Central Daylight Time),95246.69999998808,O,z,1966,,1966.0,6,yes,1,21307.5,73939.19999998808,XWKQRYCNZ,XWKQRYCNZ,7220,LC,B,,91256.0,6
5,2,12.860999822616577,test,0,z,17139.000177383423,Tue Sep 30 2025 11:40:34 GMT-0500 (Central Daylight Time),96412.0,O,m,1156,,1156.0,7,yes,1,22472.80000001192,73939.19999998808,HNPDLK,HNPDLK,7220,LC,B,,93234.0,7
6,2,15.876999855041504,test,1,m,14123.000144958496,Tue Sep 30 2025 11:40:34 GMT-0500 (Central Daylight Time),99427.89999997616,O,m,3001,,3001.0,8,no,1,25488.69999998808,73939.19999998808,WMQTRSGLZ,WMQTRZGLZ,7220,LC,B,,94398.0,8
7,2,17.592999935150146,test,1,z,12407.000064849854,Tue Sep 30 2025 11:40:34 GMT-0500 (Central Daylight Time),101143.79999995232,O,z,1697,,1697.0,9,yes,1,27204.599999964237,73939.19999998808,JPN,JPN,7220,LC,B,,97415.0,9
8,2,18.70899987220764,test,1,m,11291.000127792358,Tue Sep 30 2025 11:40:34 GMT-0500 (Central Daylight Time),102259.59999996424,O,m,1109,,1109.0,10,no,1,28320.399999976158,73939.19999998808,QLXSVT,QLNSVT,7220,LC,B,,99130.0,10
8,2,20.658999919891357,test,0,z,9341.000080108643,Tue Sep 30 2025 11:40:34 GMT-0500 (Central Daylight Time),104209.39999997616,O,m,1937,,1937.0,11,yes,1,30270.19999998808,73939.19999998808,YXHKZVFPB,YXHKZVFPD,7220,LC,B,,100245.0,11
9,2,21.80999994277954,test,1,z,8190.000057220459,Tue Sep 30 2025 11:40:34 GMT-0500 (Central Daylight Time),105360.39999997616,O,z,1132,,1132.0,12,yes,1,31421.19999998808,73939.19999998808,RJZ,RJZ,7220,LC,B,,102195.0,12
10,2,23.05900001525879,test,1,z,6940.999984741211,Tue Sep 30 2025 11:40:34 GMT-0500 (Central Daylight Time),106609.69999998808,O,z,1245,,1245.0,13,yes,1,32670.5,73939.19999998808,CLNPZD,CLNPZD,7220,LC,B,,103347.0,13
11,2,24.04099988937378,test,1,m,5959.000110626221,Tue Sep 30 2025 11:40:34 GMT-0500 (Central Daylight Time),107592.0,O,m,964,,964.0,14,no,1,33652.80000001192,73939.19999998808,DCBPFHXYJ,DCBPFHLYJ,7220,LC,B,,104596.0,14
11,2,24.93999981880188,test,0,m,5060.00018119812,Tue Sep 30 2025 11:40:34 GMT-0500 (Central Daylight Time),108490.19999998808,O,z,883,,883.0,15,no,1,34551.0,73939.19999998808,MWR,ZWR,7220,LC,B,,105578.0,15
11,2,26.222999811172485,test,0,z,3777.0001888275146,Tue Sep 30 2025 11:40:34 GMT-0500 (Central Daylight Time),109773.29999995232,O,m,1265,,1265.0,16,yes,1,35834.09999996424,73939.19999998808,LPKXZW,LPKXZW,7220,LC,B,,106476.0,16
12,2,27.722999811172485,test,1,m,2277.0001888275146,Tue Sep 30 2025 11:40:34 GMT-0500 (Central Daylight Time),111274.0,O,m,1488,,1488.0,17,no,1,37334.80000001192,73939.19999998808,TZL,TZQ,7220,LC,B,,107759.0,17
12,2,30.00599980354309,test,0,z,-5.99980354309082,Tue Sep 30 2025 11:40:34 GMT-0500 (Central Daylight Time),113556.69999998808,O,None,2280,,2280.0,18,yes,1,39617.5,73939.19999998808,CSDBFPHXZ,CSDBFPHXZ,7220,LC,B,,109259.0,18
