acc_sum,block,block_c,block_cond,con_img,correct,correct_response,datetime,endtime,face,jitter,line,project,response,response_time,row_sel,session_number,start_end,starttime,subject_id,task,task_vers,trial
1,prac,1,A,haborder.png,1,z,Fri May 09 2025 13:50:28 GMT-0500 (Central Daylight Time),54967.10000000009,CFD-BF-023-013-A.jpg,1000,solid,I,z,1200,4,2,2997.2000000001863,51969.89999999991,8030,ATS,A,1
2,prac,1,A,haborder.png,1,z,Fri May 09 2025 13:50:28 GMT-0500 (Central Daylight Time),57749.5,CFD-WF-019-015-A.jpg,1000,solid,I,z,985,12,2,5779.600000000093,51969.89999999991,8030,ATS,A,2
3,prac,1,A,haborder.png,1,m,Fri May 09 2025 13:50:28 GMT-0500 (Central Daylight Time),60598.89999999991,CFD-WM-004-005-HC.jpg,1400,solid,I,m,652,7,2,8629.0,51969.89999999991,8030,ATS,A,3
4,prac,1,A,haborder.png,1,m,Fri May 09 2025 13:50:28 GMT-0500 (Central Daylight Time),63864.39999999991,CFD-BM-029-026-HC.jpg,1500,solid,I,m,982,3,2,11894.5,51969.89999999991,8030,ATS,A,4
5,prac,1,A,haborder.png,1,z,Fri May 09 2025 13:50:28 GMT-0500 (Central Daylight Time),67529.70000000019,CFD-WM-013-015-A.jpg,1900,solid,I,z,981,8,2,15559.80000000028,51969.89999999991,8030,ATS,A,5
6,prac,1,A,haborder.png,1,z,Fri May 09 2025 13:50:28 GMT-0500 (Central Daylight Time),70212.29999999981,CFD-BF-039-039-A.jpg,1200,solid,I,z,695,6,2,18242.399999999907,51969.89999999991,8030,ATS,A,6
7,prac,1,A,haborder.png,1,m,Fri May 09 2025 13:50:28 GMT-0500 (Central Daylight Time),73744.6000000001,CFD-BF-028-020-HC.jpg,2000,solid,I,m,741,5,2,21774.700000000186,51969.89999999991,8030,ATS,A,7
8,prac,1,A,haborder.png,1,z,Fri May 09 2025 13:50:28 GMT-0500 (Central Daylight Time),77060.29999999981,CFD-BM-005-010-A.jpg,1600,solid,I,z,890,2,2,25090.399999999907,51969.89999999991,8030,ATS,A,8
9,prac,1,A,haborder.png,1,m,Fri May 09 2025 13:50:28 GMT-0500 (Central Daylight Time),80377.0,CFD-WF-017-016-HC.jpg,1500,solid,I,m,1033,11,2,28407.100000000093,51969.89999999991,8030,ATS,A,9
10,prac,1,A,haborder.png,1,m,Fri May 09 2025 13:50:28 GMT-0500 (Central Daylight Time),83541.5,CFD-WM-006-013-HC.jpg,1700,solid,I,m,677,9,2,31571.600000000093,51969.89999999991,8030,ATS,A,10
11,prac,1,A,haborder.png,1,z,Fri May 09 2025 13:50:28 GMT-0500 (Central Daylight Time),86740.6000000001,CFD-WF-003-014-A.jpg,1600,solid,I,z,811,10,2,34770.700000000186,51969.89999999991,8030,ATS,A,11
11,prac,1,A,haborder.png,0,m,Fri May 09 2025 13:50:28 GMT-0500 (Central Daylight Time),90156.0,CFD-BM-017-052-HC.jpg,1700,solid,I,z,921,1,2,38186.10000000009,51969.89999999991,8030,ATS,A,12
1,prac,1,B,mfborder.png,1,z,Fri May 09 2025 13:50:28 GMT-0500 (Central Daylight Time),124228.6000000001,CFD-WF-017-016-HC.jpg,1000,dash,I,z,750,12,2,2565.600000000093,121663.0,8030,ATS,A,1
2,prac,1,B,mfborder.png,1,m,Fri May 09 2025 13:50:28 GMT-0500 (Central Daylight Time),127711.20000000019,CFD-BM-005-010-A.jpg,2000,dash,I,m,684,5,2,6048.200000000186,121663.0,8030,ATS,A,2
3,prac,1,B,mfborder.png,1,m,Fri May 09 2025 13:50:28 GMT-0500 (Central Daylight Time),130810.0,CFD-BM-010-019-A.jpg,1600,dash,I,m,706,2,2,9147.0,121663.0,8030,ATS,A,3
4,prac,1,B,mfborder.png,1,m,Fri May 09 2025 13:50:28 GMT-0500 (Central Daylight Time),133875.6000000001,CFD-WM-019-013-A.jpg,1200,dash,I,m,1078,6,2,12212.600000000093,121663.0,8030,ATS,A,4
5,prac,1,B,mfborder.png,1,m,Fri May 09 2025 13:50:28 GMT-0500 (Central Daylight Time),137141.6000000001,CFD-WM-013-015-A.jpg,1700,dash,I,m,770,9,2,15478.600000000093,121663.0,8030,ATS,A,5
6,prac,1,B,mfborder.png,1,m,Fri May 09 2025 13:50:28 GMT-0500 (Central Daylight Time),140390.3999999999,CFD-BM-029-026-HC.jpg,1700,dash,I,m,752,1,2,18727.399999999907,121663.0,8030,ATS,A,6
7,prac,1,B,mfborder.png,1,z,Fri May 09 2025 13:50:28 GMT-0500 (Central Daylight Time),142622.7999999998,CFD-BF-023-013-A.jpg,1000,dash,I,z,435,4,2,20959.799999999814,121663.0,8030,ATS,A,7
8,prac,1,B,mfborder.png,1,m,Fri May 09 2025 13:50:28 GMT-0500 (Central Daylight Time),145838.7000000002,CFD-WM-006-013-HC.jpg,1600,dash,I,m,826,10,2,24175.700000000186,121663.0,8030,ATS,A,8
9,prac,1,B,mfborder.png,1,z,Fri May 09 2025 13:50:28 GMT-0500 (Central Daylight Time),148687.7000000002,CFD-WF-003-014-A.jpg,1500,dash,I,z,559,11,2,27024.700000000186,121663.0,8030,ATS,A,9
9,prac,1,B,mfborder.png,0,z,Fri May 09 2025 13:50:28 GMT-0500 (Central Daylight Time),152586.3999999999,CFD-WF-002-008-HC.jpg,1900,dash,I,m,1206,8,2,30923.399999999907,121663.0,8030,ATS,A,10
10,prac,1,B,mfborder.png,1,z,Fri May 09 2025 13:50:28 GMT-0500 (Central Daylight Time),155552.2000000002,CFD-BF-028-020-HC.jpg,1400,dash,I,z,767,7,2,33889.200000000186,121663.0,8030,ATS,A,11
11,prac,1,B,mfborder.png,1,z,Fri May 09 2025 13:50:28 GMT-0500 (Central Daylight Time),158568.0,CFD-BF-010-005-HC.jpg,1500,dash,I,z,724,3,2,36905.0,121663.0,8030,ATS,A,12
1,test,1,A,haborder.png,1,m,Fri May 09 2025 13:50:28 GMT-0500 (Central Daylight Time),183160.2999999998,CFD-WF-017-016-HC.jpg,1500,solid,I,m,867,11,2,2399.5,180760.7999999998,8030,ATS,A,1
2,test,1,A,haborder.png,1,m,Fri May 09 2025 13:50:28 GMT-0500 (Central Daylight Time),185442.6000000001,CFD-WM-004-005-HC.jpg,1400,solid,I,m,860,7,2,4681.800000000279,180760.7999999998,8030,ATS,A,2
3,test,1,A,haborder.png,1,z,Fri May 09 2025 13:50:28 GMT-0500 (Central Daylight Time),187025.7000000002,CFD-BF-023-013-A.jpg,1000,solid,I,z,565,4,2,6264.9000000003725,180760.7999999998,8030,ATS,A,3
4,test,1,A,haborder.png,1,z,Fri May 09 2025 13:50:28 GMT-0500 (Central Daylight Time),188708.6000000001,CFD-BF-023-013-A.jpg,1000,solid,I,z,663,4,2,7947.800000000279,180760.7999999998,8030,ATS,A,4
5,test,1,A,haborder.png,1,m,Fri May 09 2025 13:50:28 GMT-0500 (Central Daylight Time),191007.7999999998,CFD-WM-006-013-HC.jpg,1700,solid,I,m,576,9,2,10247.0,180760.7999999998,8030,ATS,A,5
6,test,1,A,haborder.png,1,m,Fri May 09 2025 13:50:28 GMT-0500 (Central Daylight Time),194306.6000000001,CFD-BF-028-020-HC.jpg,2000,solid,I,m,1169,5,2,13545.80000000028,180760.7999999998,8030,ATS,A,6
7,test,1,A,haborder.png,1,z,Fri May 09 2025 13:50:28 GMT-0500 (Central Daylight Time),196372.7999999998,CFD-BF-039-039-A.jpg,1200,solid,I,z,837,6,2,15612.0,180760.7999999998,8030,ATS,A,7
8,test,1,A,haborder.png,1,m,Fri May 09 2025 13:50:28 GMT-0500 (Central Daylight Time),198622.0,CFD-BM-029-026-HC.jpg,1500,solid,I,m,720,3,2,17861.200000000186,180760.7999999998,8030,ATS,A,8
9,test,1,A,haborder.png,1,m,Fri May 09 2025 13:50:28 GMT-0500 (Central Daylight Time),201421.2000000002,CFD-BM-017-052-HC.jpg,1700,solid,I,m,1071,1,2,20660.400000000373,180760.7999999998,8030,ATS,A,9
10,test,1,A,haborder.png,1,z,Fri May 09 2025 13:50:28 GMT-0500 (Central Daylight Time),203354.1000000001,CFD-BF-039-039-A.jpg,1200,solid,I,z,697,6,2,22593.30000000028,180760.7999999998,8030,ATS,A,10
11,test,1,A,haborder.png,1,z,Fri May 09 2025 13:50:28 GMT-0500 (Central Daylight Time),205020.1000000001,CFD-WF-019-015-A.jpg,1000,solid,I,z,639,12,2,24259.30000000028,180760.7999999998,8030,ATS,A,11
12,test,1,A,haborder.png,1,z,Fri May 09 2025 13:50:28 GMT-0500 (Central Daylight Time),207235.8999999999,CFD-WF-003-014-A.jpg,1600,solid,I,z,597,10,2,26475.100000000093,180760.7999999998,8030,ATS,A,12
13,test,1,A,haborder.png,1,z,Fri May 09 2025 13:50:28 GMT-0500 (Central Daylight Time),209985.1000000001,CFD-WM-013-015-A.jpg,1900,solid,I,z,826,8,2,29224.30000000028,180760.7999999998,8030,ATS,A,13
14,test,1,A,haborder.png,1,z,Fri May 09 2025 13:50:28 GMT-0500 (Central Daylight Time),212567.6000000001,CFD-BM-005-010-A.jpg,1600,solid,I,z,952,2,2,31806.80000000028,180760.7999999998,8030,ATS,A,14
15,test,1,A,haborder.png,1,m,Fri May 09 2025 13:50:28 GMT-0500 (Central Daylight Time),214933.5,CFD-WM-006-013-HC.jpg,1700,solid,I,m,634,9,2,34172.700000000186,180760.7999999998,8030,ATS,A,15
16,test,1,A,haborder.png,1,m,Fri May 09 2025 13:50:28 GMT-0500 (Central Daylight Time),217233.1000000001,CFD-BM-029-026-HC.jpg,1500,solid,I,m,772,3,2,36472.30000000028,180760.7999999998,8030,ATS,A,16
17,test,1,A,haborder.png,1,z,Fri May 09 2025 13:50:28 GMT-0500 (Central Daylight Time),219448.7999999998,CFD-WF-003-014-A.jpg,1600,solid,I,z,592,10,2,38688.0,180760.7999999998,8030,ATS,A,17
18,test,1,A,haborder.png,1,m,Fri May 09 2025 13:50:28 GMT-0500 (Central Daylight Time),222231.7999999998,CFD-BM-017-052-HC.jpg,1700,solid,I,m,1052,1,2,41471.0,180760.7999999998,8030,ATS,A,18
19,test,1,A,haborder.png,1,z,Fri May 09 2025 13:50:28 GMT-0500 (Central Daylight Time),224713.7000000002,CFD-BM-005-010-A.jpg,1600,solid,I,z,850,2,2,43952.90000000037,180760.7999999998,8030,ATS,A,19
20,test,1,A,haborder.png,1,m,Fri May 09 2025 13:50:28 GMT-0500 (Central Daylight Time),227146.5,CFD-WF-017-016-HC.jpg,1500,solid,I,m,907,11,2,46385.700000000186,180760.7999999998,8030,ATS,A,20
21,test,1,A,haborder.png,1,m,Fri May 09 2025 13:50:28 GMT-0500 (Central Daylight Time),229978.7000000002,CFD-BF-028-020-HC.jpg,2000,solid,I,m,815,5,2,49217.90000000037,180760.7999999998,8030,ATS,A,21
22,test,1,A,haborder.png,1,z,Fri May 09 2025 13:50:28 GMT-0500 (Central Daylight Time),231644.8999999999,CFD-WF-019-015-A.jpg,1000,solid,I,z,646,12,2,50884.10000000009,180760.7999999998,8030,ATS,A,22
23,test,1,A,haborder.png,1,m,Fri May 09 2025 13:50:28 GMT-0500 (Central Daylight Time),233711.0,CFD-WM-004-005-HC.jpg,1400,solid,I,m,643,7,2,52950.200000000186,180760.7999999998,8030,ATS,A,23
24,test,1,A,haborder.png,1,z,Fri May 09 2025 13:50:28 GMT-0500 (Central Daylight Time),237111.0,CFD-WM-013-015-A.jpg,1900,solid,I,z,1470,8,2,56350.200000000186,180760.7999999998,8030,ATS,A,24
1,test,1,B,mfborder.png,1,z,Fri May 09 2025 13:50:28 GMT-0500 (Central Daylight Time),252538.2999999998,CFD-BF-010-005-HC.jpg,1500,dash,I,z,549,3,2,2065.6999999997206,250472.6000000001,8030,ATS,A,1
2,test,1,B,mfborder.png,1,m,Fri May 09 2025 13:50:28 GMT-0500 (Central Daylight Time),254938.1000000001,CFD-WM-013-015-A.jpg,1700,dash,I,m,683,9,2,4465.5,250472.6000000001,8030,ATS,A,2
3,test,1,B,mfborder.png,1,m,Fri May 09 2025 13:50:28 GMT-0500 (Central Daylight Time),257370.2000000002,CFD-WM-006-013-HC.jpg,1600,dash,I,m,816,10,2,6897.600000000093,250472.6000000001,8030,ATS,A,3
4,test,1,B,mfborder.png,1,z,Fri May 09 2025 13:50:28 GMT-0500 (Central Daylight Time),259069.6000000001,CFD-WF-017-016-HC.jpg,1000,dash,I,z,671,12,2,8597.0,250472.6000000001,8030,ATS,A,4
5,test,1,B,mfborder.png,1,z,Fri May 09 2025 13:50:28 GMT-0500 (Central Daylight Time),260686.1000000001,CFD-BF-023-013-A.jpg,1000,dash,I,z,595,4,2,10213.5,250472.6000000001,8030,ATS,A,5
6,test,1,B,mfborder.png,1,z,Fri May 09 2025 13:50:28 GMT-0500 (Central Daylight Time),262668.6000000001,CFD-BF-028-020-HC.jpg,1400,dash,I,z,563,7,2,12196.0,250472.6000000001,8030,ATS,A,6
7,test,1,B,mfborder.png,1,m,Fri May 09 2025 13:50:28 GMT-0500 (Central Daylight Time),265018.0,CFD-WM-013-015-A.jpg,1700,dash,I,m,633,9,2,14545.399999999907,250472.6000000001,8030,ATS,A,7
8,test,1,B,mfborder.png,1,z,Fri May 09 2025 13:50:28 GMT-0500 (Central Daylight Time),267100.6000000001,CFD-WF-003-014-A.jpg,1500,dash,I,z,563,11,2,16628.0,250472.6000000001,8030,ATS,A,8
9,test,1,B,mfborder.png,1,z,Fri May 09 2025 13:50:28 GMT-0500 (Central Daylight Time),269466.2999999998,CFD-BF-010-005-HC.jpg,1500,dash,I,z,849,3,2,18993.69999999972,250472.6000000001,8030,ATS,A,9
10,test,1,B,mfborder.png,1,m,Fri May 09 2025 13:50:28 GMT-0500 (Central Daylight Time),272215.7000000002,CFD-BM-005-010-A.jpg,2000,dash,I,m,719,5,2,21743.100000000093,250472.6000000001,8030,ATS,A,10
11,test,1,B,mfborder.png,1,z,Fri May 09 2025 13:50:28 GMT-0500 (Central Daylight Time),274298.2000000002,CFD-WF-003-014-A.jpg,1500,dash,I,z,564,11,2,23825.600000000093,250472.6000000001,8030,ATS,A,11
12,test,1,B,mfborder.png,1,m,Fri May 09 2025 13:50:28 GMT-0500 (Central Daylight Time),276530.7999999998,CFD-BM-010-019-A.jpg,1600,dash,I,m,615,2,2,26058.19999999972,250472.6000000001,8030,ATS,A,12
13,test,1,B,mfborder.png,1,m,Fri May 09 2025 13:50:28 GMT-0500 (Central Daylight Time),279063.7999999998,CFD-BM-029-026-HC.jpg,1700,dash,I,m,810,1,2,28591.19999999972,250472.6000000001,8030,ATS,A,13
14,test,1,B,mfborder.png,1,z,Fri May 09 2025 13:50:28 GMT-0500 (Central Daylight Time),281695.8999999999,CFD-WF-002-008-HC.jpg,1900,dash,I,z,699,8,2,31223.299999999814,250472.6000000001,8030,ATS,A,14
15,test,1,B,mfborder.png,1,m,Fri May 09 2025 13:50:28 GMT-0500 (Central Daylight Time),283712.0,CFD-WM-019-013-A.jpg,1200,dash,I,m,792,6,2,33239.39999999991,250472.6000000001,8030,ATS,A,15
16,test,1,B,mfborder.png,1,z,Fri May 09 2025 13:50:28 GMT-0500 (Central Daylight Time),285361.7999999998,CFD-BF-023-013-A.jpg,1000,dash,I,z,616,4,2,34889.19999999972,250472.6000000001,8030,ATS,A,16
17,test,1,B,mfborder.png,1,z,Fri May 09 2025 13:50:28 GMT-0500 (Central Daylight Time),288243.8999999999,CFD-WF-002-008-HC.jpg,1900,dash,I,z,886,8,2,37771.299999999814,250472.6000000001,8030,ATS,A,17
18,test,1,B,mfborder.png,1,m,Fri May 09 2025 13:50:28 GMT-0500 (Central Daylight Time),290126.5,CFD-WM-019-013-A.jpg,1200,dash,I,m,660,6,2,39653.89999999991,250472.6000000001,8030,ATS,A,18
19,test,1,B,mfborder.png,1,m,Fri May 09 2025 13:50:28 GMT-0500 (Central Daylight Time),292542.7999999998,CFD-BM-010-019-A.jpg,1600,dash,I,m,786,2,2,42070.19999999972,250472.6000000001,8030,ATS,A,19
20,test,1,B,mfborder.png,1,z,Fri May 09 2025 13:50:28 GMT-0500 (Central Daylight Time),294725.5,CFD-BF-028-020-HC.jpg,1400,dash,I,z,762,7,2,44252.89999999991,250472.6000000001,8030,ATS,A,20
21,test,1,B,mfborder.png,1,m,Fri May 09 2025 13:50:28 GMT-0500 (Central Daylight Time),296974.7000000002,CFD-WM-006-013-HC.jpg,1600,dash,I,m,628,10,2,46502.10000000009,250472.6000000001,8030,ATS,A,21
22,test,1,B,mfborder.png,1,m,Fri May 09 2025 13:50:28 GMT-0500 (Central Daylight Time),299390.2000000002,CFD-BM-029-026-HC.jpg,1700,dash,I,m,694,1,2,48917.60000000009,250472.6000000001,8030,ATS,A,22
23,test,1,B,mfborder.png,1,m,Fri May 09 2025 13:50:28 GMT-0500 (Central Daylight Time),302089.7999999998,CFD-BM-005-010-A.jpg,2000,dash,I,m,683,5,2,51617.19999999972,250472.6000000001,8030,ATS,A,23
24,test,1,B,mfborder.png,1,z,Fri May 09 2025 13:50:28 GMT-0500 (Central Daylight Time),303755.7999999998,CFD-WF-017-016-HC.jpg,1000,dash,I,z,638,12,2,53283.19999999972,250472.6000000001,8030,ATS,A,24
0,prac,1,C,haborder.png,0,z,Fri May 09 2025 13:50:28 GMT-0500 (Central Daylight Time),377165.8999999999,CFD-WF-003-014-A.jpg,1600,dash,I,None,1515,9,2,3898.5,373267.3999999999,8030,ATS,A,1
1,prac,1,C,haborder.png,1,m,Fri May 09 2025 13:50:28 GMT-0500 (Central Daylight Time),380281.7999999998,CFD-WM-004-005-HC.jpg,1400,solid,I,m,931,12,2,7014.399999999907,373267.3999999999,8030,ATS,A,2
2,prac,1,C,haborder.png,1,m,Fri May 09 2025 13:50:28 GMT-0500 (Central Daylight Time),383497.6000000001,CFD-BM-029-026-HC.jpg,1500,solid,I,m,923,10,2,10230.200000000186,373267.3999999999,8030,ATS,A,3
3,prac,1,C,mfborder.png,1,z,Fri May 09 2025 13:50:28 GMT-0500 (Central Daylight Time),386529.8999999999,CFD-WF-017-016-HC.jpg,1600,dash,I,z,640,1,2,13262.5,373267.3999999999,8030,ATS,A,4
4,prac,1,C,mfborder.png,1,m,Fri May 09 2025 13:50:28 GMT-0500 (Central Daylight Time),390778.5,CFD-BM-017-052-HC.jpg,2000,solid,I,m,1464,4,2,17511.100000000093,373267.3999999999,8030,ATS,A,5
5,prac,1,C,mfborder.png,1,z,Fri May 09 2025 13:50:28 GMT-0500 (Central Daylight Time),393427.7999999998,CFD-BF-028-020-HC.jpg,1000,dash,I,z,855,3,2,20160.399999999907,373267.3999999999,8030,ATS,A,6
6,prac,1,C,haborder.png,1,m,Fri May 09 2025 13:50:28 GMT-0500 (Central Daylight Time),395910.2999999998,CFD-WM-004-005-HC.jpg,1000,dash,I,m,682,11,2,22642.899999999907,373267.3999999999,8030,ATS,A,7
6,prac,1,C,mfborder.png,0,m,Fri May 09 2025 13:50:28 GMT-0500 (Central Daylight Time),399442.2999999998,CFD-WM-013-015-A.jpg,1700,solid,I,z,1046,6,2,26174.899999999907,373267.3999999999,8030,ATS,A,8
6,prac,1,C,haborder.png,0,z,Fri May 09 2025 13:50:28 GMT-0500 (Central Daylight Time),403641.1000000001,CFD-BF-023-013-A.jpg,1900,dash,I,None,1516,7,2,30373.700000000186,373267.3999999999,8030,ATS,A,9
7,prac,1,C,haborder.png,1,z,Fri May 09 2025 13:50:28 GMT-0500 (Central Daylight Time),406990.1000000001,CFD-BF-039-039-A.jpg,1700,solid,I,z,861,8,2,33722.700000000186,373267.3999999999,8030,ATS,A,10
8,prac,1,C,mfborder.png,1,m,Fri May 09 2025 13:50:28 GMT-0500 (Central Daylight Time),409707.0,CFD-BM-005-010-A.jpg,1200,dash,I,m,747,5,2,36439.60000000009,373267.3999999999,8030,ATS,A,11
8,prac,1,C,mfborder.png,0,z,Fri May 09 2025 13:50:28 GMT-0500 (Central Daylight Time),413505.8999999999,CFD-WF-019-015-A.jpg,1500,solid,I,None,1515,2,2,40238.5,373267.3999999999,8030,ATS,A,12
1,test,1,C,haborder.png,1,m,Fri May 09 2025 13:50:28 GMT-0500 (Central Daylight Time),438147.2000000002,CFD-BF-028-020-HC.jpg,1600,solid,I,m,707,10,2,2332.600000000093,435814.6000000001,8030,ATS,A,1
1,test,1,C,mfborder.png,0,m,Fri May 09 2025 13:50:28 GMT-0500 (Central Daylight Time),441046.0,CFD-WM-019-013-A.jpg,2000,dash,I,z,870,5,2,5231.399999999907,435814.6000000001,8030,ATS,A,2
1,test,1,C,haborder.png,0,z,Fri May 09 2025 13:50:28 GMT-0500 (Central Daylight Time),444011.7999999998,CFD-BM-010-019-A.jpg,1700,solid,I,m,1239,9,2,8197.19999999972,435814.6000000001,8030,ATS,A,3
2,test,1,C,mfborder.png,1,z,Fri May 09 2025 13:50:28 GMT-0500 (Central Daylight Time),446544.5,CFD-WF-003-014-A.jpg,1500,dash,I,z,1008,3,2,10729.899999999907,435814.6000000001,8030,ATS,A,4
3,test,1,C,haborder.png,1,z,Fri May 09 2025 13:50:28 GMT-0500 (Central Daylight Time),449660.0,CFD-BM-005-010-A.jpg,1900,solid,I,z,1189,8,2,13845.399999999907,435814.6000000001,8030,ATS,A,5
4,test,1,C,mfborder.png,1,z,Fri May 09 2025 13:50:28 GMT-0500 (Central Daylight Time),452222.5,CFD-WF-003-014-A.jpg,1500,dash,I,z,1045,3,2,16407.899999999907,435814.6000000001,8030,ATS,A,6
5,test,1,C,mfborder.png,1,z,Fri May 09 2025 13:50:28 GMT-0500 (Central Daylight Time),454525.1000000001,CFD-BF-023-013-A.jpg,1600,dash,I,z,671,2,2,18710.5,435814.6000000001,8030,ATS,A,7
6,test,1,C,haborder.png,1,z,Fri May 09 2025 13:50:28 GMT-0500 (Central Daylight Time),457390.8999999999,CFD-BM-005-010-A.jpg,1900,solid,I,z,936,8,2,21576.299999999814,435814.6000000001,8030,ATS,A,8
6,test,1,C,mfborder.png,0,z,Fri May 09 2025 13:50:28 GMT-0500 (Central Daylight Time),460623.3999999999,CFD-BF-010-005-HC.jpg,1700,dash,I,None,1515,1,2,24808.799999999814,435814.6000000001,8030,ATS,A,9
7,test,1,C,haborder.png,1,m,Fri May 09 2025 13:50:28 GMT-0500 (Central Daylight Time),463355.7999999998,CFD-WF-002-008-HC.jpg,1500,solid,I,m,1214,11,2,27541.19999999972,435814.6000000001,8030,ATS,A,10
8,test,1,C,haborder.png,1,z,Fri May 09 2025 13:50:28 GMT-0500 (Central Daylight Time),465988.2000000002,CFD-BM-010-019-A.jpg,1700,solid,I,z,913,9,2,30173.600000000093,435814.6000000001,8030,ATS,A,11
9,test,1,C,haborder.png,1,z,Fri May 09 2025 13:50:28 GMT-0500 (Central Daylight Time),468537.6000000001,CFD-WM-013-015-A.jpg,1400,solid,I,z,1117,7,2,32723.0,435814.6000000001,8030,ATS,A,12
10,test,1,C,haborder.png,1,m,Fri May 09 2025 13:50:28 GMT-0500 (Central Daylight Time),470387.2999999998,CFD-WF-017-016-HC.jpg,1000,solid,I,m,824,12,2,34572.69999999972,435814.6000000001,8030,ATS,A,13
11,test,1,C,mfborder.png,1,m,Fri May 09 2025 13:50:28 GMT-0500 (Central Daylight Time),472219.5,CFD-WM-006-013-HC.jpg,1000,dash,I,m,806,4,2,36404.89999999991,435814.6000000001,8030,ATS,A,14
12,test,1,C,mfborder.png,1,z,Fri May 09 2025 13:50:28 GMT-0500 (Central Daylight Time),474685.3999999999,CFD-BF-023-013-A.jpg,1600,dash,I,z,837,2,2,38870.799999999814,435814.6000000001,8030,ATS,A,15
13,test,1,C,haborder.png,1,m,Fri May 09 2025 13:50:28 GMT-0500 (Central Daylight Time),476618.2000000002,CFD-WF-017-016-HC.jpg,1000,solid,I,m,810,12,2,40803.60000000009,435814.6000000001,8030,ATS,A,16
13,test,1,C,mfborder.png,0,m,Fri May 09 2025 13:50:28 GMT-0500 (Central Daylight Time),478634.2999999998,CFD-BM-029-026-HC.jpg,1200,dash,I,z,791,6,2,42819.69999999972,435814.6000000001,8030,ATS,A,17
14,test,1,C,mfborder.png,1,m,Fri May 09 2025 13:50:28 GMT-0500 (Central Daylight Time),480733.6000000001,CFD-WM-006-013-HC.jpg,1000,dash,I,m,1079,4,2,44919.0,435814.6000000001,8030,ATS,A,18
14,test,1,C,haborder.png,0,m,Fri May 09 2025 13:50:28 GMT-0500 (Central Daylight Time),482999.7000000002,CFD-WF-002-008-HC.jpg,1500,solid,I,z,744,11,2,47185.10000000009,435814.6000000001,8030,ATS,A,19
15,test,1,C,mfborder.png,1,z,Fri May 09 2025 13:50:28 GMT-0500 (Central Daylight Time),486048.5,CFD-BF-010-005-HC.jpg,1700,dash,I,z,1317,1,2,50233.89999999991,435814.6000000001,8030,ATS,A,20
15,test,1,C,haborder.png,0,z,Fri May 09 2025 13:50:28 GMT-0500 (Central Daylight Time),488481.2999999998,CFD-WM-013-015-A.jpg,1400,solid,I,m,996,7,2,52666.69999999972,435814.6000000001,8030,ATS,A,21
16,test,1,C,haborder.png,1,m,Fri May 09 2025 13:50:28 GMT-0500 (Central Daylight Time),491080.6000000001,CFD-BF-028-020-HC.jpg,1600,solid,I,m,976,10,2,55266.0,435814.6000000001,8030,ATS,A,22
16,test,1,C,mfborder.png,0,m,Fri May 09 2025 13:50:28 GMT-0500 (Central Daylight Time),494612.6000000001,CFD-WM-019-013-A.jpg,2000,dash,I,None,1516,5,2,58798.0,435814.6000000001,8030,ATS,A,23
17,test,1,C,mfborder.png,1,m,Fri May 09 2025 13:50:28 GMT-0500 (Central Daylight Time),496828.7000000002,CFD-BM-029-026-HC.jpg,1200,dash,I,m,996,6,2,61014.10000000009,435814.6000000001,8030,ATS,A,24
0,test,2,C,mfborder.png,0,m,Fri May 09 2025 13:50:28 GMT-0500 (Central Daylight Time),502843.6000000001,CFD-BM-005-010-A.jpg,2000,dash,I,None,1515,5,2,3521.600000000093,499322.0,8030,ATS,A,1
0,test,2,C,haborder.png,0,z,Fri May 09 2025 13:50:28 GMT-0500 (Central Daylight Time),505775.8999999999,CFD-BF-023-013-A.jpg,1400,solid,I,None,1512,7,2,6453.899999999907,499322.0,8030,ATS,A,2
1,test,2,C,haborder.png,1,z,Fri May 09 2025 13:50:28 GMT-0500 (Central Daylight Time),508375.2999999998,CFD-BF-023-013-A.jpg,1400,solid,I,z,1169,7,2,9053.299999999814,499322.0,8030,ATS,A,3
2,test,2,C,mfborder.png,1,z,Fri May 09 2025 13:50:28 GMT-0500 (Central Daylight Time),510824.2000000002,CFD-WF-019-015-A.jpg,1600,dash,I,z,822,2,2,11502.200000000186,499322.0,8030,ATS,A,4
3,test,2,C,mfborder.png,1,m,Fri May 09 2025 13:50:28 GMT-0500 (Central Daylight Time),512740.2999999998,CFD-BM-017-052-HC.jpg,1000,dash,I,m,897,4,2,13418.299999999814,499322.0,8030,ATS,A,5
4,test,2,C,haborder.png,1,m,Fri May 09 2025 13:50:28 GMT-0500 (Central Daylight Time),515189.5,CFD-WM-004-005-HC.jpg,1500,solid,I,m,921,11,2,15867.5,499322.0,8030,ATS,A,6
5,test,2,C,haborder.png,1,m,Fri May 09 2025 13:50:28 GMT-0500 (Central Daylight Time),517722.1000000001,CFD-BM-029-026-HC.jpg,1600,solid,I,m,916,10,2,18400.100000000093,499322.0,8030,ATS,A,7
6,test,2,C,mfborder.png,1,m,Fri May 09 2025 13:50:28 GMT-0500 (Central Daylight Time),520221.5,CFD-WM-013-015-A.jpg,1200,dash,I,m,1279,6,2,20899.5,499322.0,8030,ATS,A,8
7,test,2,C,mfborder.png,1,m,Fri May 09 2025 13:50:28 GMT-0500 (Central Daylight Time),523153.6000000001,CFD-BM-005-010-A.jpg,2000,dash,I,m,915,5,2,23831.600000000093,499322.0,8030,ATS,A,9
8,test,2,C,haborder.png,1,m,Fri May 09 2025 13:50:28 GMT-0500 (Central Daylight Time),525653.0,CFD-BM-029-026-HC.jpg,1600,solid,I,m,867,10,2,26331.0,499322.0,8030,ATS,A,10
8,test,2,C,haborder.png,0,z,Fri May 09 2025 13:50:28 GMT-0500 (Central Daylight Time),528735.2000000002,CFD-WF-003-014-A.jpg,1700,solid,I,m,1352,9,2,29413.200000000186,499322.0,8030,ATS,A,11
8,test,2,C,mfborder.png,0,m,Fri May 09 2025 13:50:28 GMT-0500 (Central Daylight Time),531467.8999999999,CFD-WM-013-015-A.jpg,1200,dash,I,None,1516,6,2,32145.899999999907,499322.0,8030,ATS,A,12
9,test,2,C,haborder.png,1,m,Fri May 09 2025 13:50:28 GMT-0500 (Central Daylight Time),533333.7999999998,CFD-WM-004-005-HC.jpg,1000,solid,I,m,842,12,2,34011.799999999814,499322.0,8030,ATS,A,13
10,test,2,C,haborder.png,1,z,Fri May 09 2025 13:50:28 GMT-0500 (Central Daylight Time),535883.1000000001,CFD-WF-003-014-A.jpg,1700,solid,I,z,824,9,2,36561.10000000009,499322.0,8030,ATS,A,14
11,test,2,C,mfborder.png,1,z,Fri May 09 2025 13:50:28 GMT-0500 (Central Daylight Time),538399.0,CFD-WF-017-016-HC.jpg,1700,dash,I,z,794,1,2,39077.0,499322.0,8030,ATS,A,15
12,test,2,C,haborder.png,1,z,Fri May 09 2025 13:50:28 GMT-0500 (Central Daylight Time),541431.2000000002,CFD-BF-039-039-A.jpg,1900,solid,I,z,1111,8,2,42109.200000000186,499322.0,8030,ATS,A,16
13,test,2,C,haborder.png,1,z,Fri May 09 2025 13:50:28 GMT-0500 (Central Daylight Time),544347.0,CFD-BF-039-039-A.jpg,1900,solid,I,z,990,8,2,45025.0,499322.0,8030,ATS,A,17
14,test,2,C,mfborder.png,1,z,Fri May 09 2025 13:50:28 GMT-0500 (Central Daylight Time),546574.7000000002,CFD-BF-028-020-HC.jpg,1500,dash,I,z,705,3,2,47252.700000000186,499322.0,8030,ATS,A,18
15,test,2,C,mfborder.png,1,z,Fri May 09 2025 13:50:28 GMT-0500 (Central Daylight Time),549112.2999999998,CFD-BF-028-020-HC.jpg,1500,dash,I,z,1001,3,2,49790.299999999814,499322.0,8030,ATS,A,19
16,test,2,C,mfborder.png,1,z,Fri May 09 2025 13:50:28 GMT-0500 (Central Daylight Time),551445.1000000001,CFD-WF-017-016-HC.jpg,1700,dash,I,z,605,1,2,52123.10000000009,499322.0,8030,ATS,A,20
17,test,2,C,mfborder.png,1,z,Fri May 09 2025 13:50:28 GMT-0500 (Central Daylight Time),553777.3999999999,CFD-WF-019-015-A.jpg,1600,dash,I,z,697,2,2,54455.39999999991,499322.0,8030,ATS,A,21
18,test,2,C,haborder.png,1,m,Fri May 09 2025 13:50:28 GMT-0500 (Central Daylight Time),556343.3999999999,CFD-WM-004-005-HC.jpg,1500,solid,I,m,1036,11,2,57021.39999999991,499322.0,8030,ATS,A,22
19,test,2,C,mfborder.png,1,m,Fri May 09 2025 13:50:28 GMT-0500 (Central Daylight Time),558626.0,CFD-BM-017-052-HC.jpg,1000,dash,I,m,1258,4,2,59304.0,499322.0,8030,ATS,A,23
20,test,2,C,haborder.png,1,m,Fri May 09 2025 13:50:28 GMT-0500 (Central Daylight Time),560508.7000000002,CFD-WM-004-005-HC.jpg,1000,solid,I,m,855,12,2,61186.700000000186,499322.0,8030,ATS,A,24
0,test,3,C,haborder.png,0,z,Fri May 09 2025 13:50:28 GMT-0500 (Central Daylight Time),565290.3999999999,CFD-BM-005-010-A.jpg,1900,solid,I,m,1014,8,2,2932.2999999998137,562358.1000000001,8030,ATS,A,1
1,test,3,C,haborder.png,1,z,Fri May 09 2025 13:50:28 GMT-0500 (Central Daylight Time),568039.8999999999,CFD-BM-005-010-A.jpg,1900,solid,I,z,823,8,2,5681.799999999814,562358.1000000001,8030,ATS,A,2
2,test,3,C,mfborder.png,1,m,Fri May 09 2025 13:50:28 GMT-0500 (Central Daylight Time),570905.5,CFD-WM-019-013-A.jpg,2000,dash,I,m,790,5,2,8547.399999999907,562358.1000000001,8030,ATS,A,3
3,test,3,C,mfborder.png,1,z,Fri May 09 2025 13:50:28 GMT-0500 (Central Daylight Time),573438.1000000001,CFD-BF-023-013-A.jpg,1600,dash,I,z,904,2,2,11080.0,562358.1000000001,8030,ATS,A,4
4,test,3,C,haborder.png,1,m,Fri May 09 2025 13:50:28 GMT-0500 (Central Daylight Time),575437.3999999999,CFD-WF-017-016-HC.jpg,1000,solid,I,m,971,12,2,13079.299999999814,562358.1000000001,8030,ATS,A,5
4,test,3,C,mfborder.png,0,m,Fri May 09 2025 13:50:28 GMT-0500 (Central Daylight Time),578769.6000000001,CFD-WM-019-013-A.jpg,2000,dash,I,z,1308,5,2,16411.5,562358.1000000001,8030,ATS,A,6
5,test,3,C,mfborder.png,1,m,Fri May 09 2025 13:50:28 GMT-0500 (Central Daylight Time),580819.2000000002,CFD-WM-006-013-HC.jpg,1000,dash,I,m,1024,4,2,18461.100000000093,562358.1000000001,8030,ATS,A,7
6,test,3,C,mfborder.png,1,m,Fri May 09 2025 13:50:28 GMT-0500 (Central Daylight Time),582701.7999999998,CFD-BM-029-026-HC.jpg,1200,dash,I,m,662,6,2,20343.69999999972,562358.1000000001,8030,ATS,A,8
7,test,3,C,mfborder.png,1,z,Fri May 09 2025 13:50:28 GMT-0500 (Central Daylight Time),585200.8999999999,CFD-WF-003-014-A.jpg,1500,dash,I,z,967,3,2,22842.799999999814,562358.1000000001,8030,ATS,A,9
8,test,3,C,haborder.png,1,m,Fri May 09 2025 13:50:28 GMT-0500 (Central Daylight Time),587550.2999999998,CFD-WF-002-008-HC.jpg,1500,solid,I,m,828,11,2,25192.19999999972,562358.1000000001,8030,ATS,A,10
9,test,3,C,mfborder.png,1,z,Fri May 09 2025 13:50:28 GMT-0500 (Central Daylight Time),590065.8999999999,CFD-BF-023-013-A.jpg,1600,dash,I,z,896,2,2,27707.799999999814,562358.1000000001,8030,ATS,A,11
10,test,3,C,haborder.png,1,z,Fri May 09 2025 13:50:28 GMT-0500 (Central Daylight Time),592431.8999999999,CFD-WM-013-015-A.jpg,1400,solid,I,z,943,7,2,30073.799999999814,562358.1000000001,8030,ATS,A,12
11,test,3,C,haborder.png,1,z,Fri May 09 2025 13:50:28 GMT-0500 (Central Daylight Time),595147.7999999998,CFD-BM-010-019-A.jpg,1700,solid,I,z,997,9,2,32789.69999999972,562358.1000000001,8030,ATS,A,13
12,test,3,C,haborder.png,1,m,Fri May 09 2025 13:50:28 GMT-0500 (Central Daylight Time),597713.7000000002,CFD-BF-028-020-HC.jpg,1600,solid,I,m,941,10,2,35355.60000000009,562358.1000000001,8030,ATS,A,14
13,test,3,C,mfborder.png,1,m,Fri May 09 2025 13:50:28 GMT-0500 (Central Daylight Time),599529.8999999999,CFD-WM-006-013-HC.jpg,1000,dash,I,m,798,4,2,37171.799999999814,562358.1000000001,8030,ATS,A,15
14,test,3,C,mfborder.png,1,m,Fri May 09 2025 13:50:28 GMT-0500 (Central Daylight Time),601296.0,CFD-BM-029-026-HC.jpg,1200,dash,I,m,543,6,2,38937.89999999991,562358.1000000001,8030,ATS,A,16
15,test,3,C,mfborder.png,1,z,Fri May 09 2025 13:50:28 GMT-0500 (Central Daylight Time),604044.8999999999,CFD-BF-010-005-HC.jpg,1700,dash,I,z,1028,1,2,41686.799999999814,562358.1000000001,8030,ATS,A,17
16,test,3,C,haborder.png,1,m,Fri May 09 2025 13:50:28 GMT-0500 (Central Daylight Time),606060.8999999999,CFD-WF-017-016-HC.jpg,1000,solid,I,m,988,12,2,43702.799999999814,562358.1000000001,8030,ATS,A,18
17,test,3,C,mfborder.png,1,z,Fri May 09 2025 13:50:28 GMT-0500 (Central Daylight Time),608760.2999999998,CFD-BF-010-005-HC.jpg,1700,dash,I,z,976,1,2,46402.19999999972,562358.1000000001,8030,ATS,A,19
18,test,3,C,haborder.png,1,m,Fri May 09 2025 13:50:28 GMT-0500 (Central Daylight Time),611062.8999999999,CFD-WF-002-008-HC.jpg,1500,solid,I,m,780,11,2,48704.799999999814,562358.1000000001,8030,ATS,A,20
19,test,3,C,mfborder.png,1,z,Fri May 09 2025 13:50:28 GMT-0500 (Central Daylight Time),613325.5,CFD-WF-003-014-A.jpg,1500,dash,I,z,738,3,2,50967.39999999991,562358.1000000001,8030,ATS,A,21
20,test,3,C,haborder.png,1,z,Fri May 09 2025 13:50:28 GMT-0500 (Central Daylight Time),615724.7999999998,CFD-WM-013-015-A.jpg,1400,solid,I,z,972,7,2,53366.69999999972,562358.1000000001,8030,ATS,A,22
21,test,3,C,haborder.png,1,z,Fri May 09 2025 13:50:28 GMT-0500 (Central Daylight Time),618340.6000000001,CFD-BM-010-019-A.jpg,1700,solid,I,z,888,9,2,55982.5,562358.1000000001,8030,ATS,A,23
22,test,3,C,haborder.png,1,m,Fri May 09 2025 13:50:28 GMT-0500 (Central Daylight Time),620972.8999999999,CFD-BF-028-020-HC.jpg,1600,solid,I,m,1013,10,2,58614.799999999814,562358.1000000001,8030,ATS,A,24
1,test,4,C,mfborder.png,1,m,Fri May 09 2025 13:50:28 GMT-0500 (Central Daylight Time),626287.8999999999,CFD-BM-005-010-A.jpg,2000,dash,I,m,993,5,2,3015.399999999907,623272.5,8030,ATS,A,1
2,test,4,C,haborder.png,1,z,Fri May 09 2025 13:50:28 GMT-0500 (Central Daylight Time),629120.6000000001,CFD-BF-039-039-A.jpg,1900,solid,I,z,908,8,2,5848.100000000093,623272.5,8030,ATS,A,2
3,test,4,C,haborder.png,1,z,Fri May 09 2025 13:50:28 GMT-0500 (Central Daylight Time),631636.3999999999,CFD-WF-003-014-A.jpg,1700,solid,I,z,796,9,2,8363.899999999907,623272.5,8030,ATS,A,3
4,test,4,C,haborder.png,1,m,Fri May 09 2025 13:50:28 GMT-0500 (Central Daylight Time),633952.2999999998,CFD-WM-004-005-HC.jpg,1500,solid,I,m,785,11,2,10679.799999999814,623272.5,8030,ATS,A,4
5,test,4,C,mfborder.png,1,m,Fri May 09 2025 13:50:28 GMT-0500 (Central Daylight Time),636717.8999999999,CFD-BM-005-010-A.jpg,2000,dash,I,m,745,5,2,13445.399999999907,623272.5,8030,ATS,A,5
6,test,4,C,haborder.png,1,z,Fri May 09 2025 13:50:28 GMT-0500 (Central Daylight Time),639234.0,CFD-WF-003-014-A.jpg,1700,solid,I,z,792,9,2,15961.5,623272.5,8030,ATS,A,6
7,test,4,C,haborder.png,1,m,Fri May 09 2025 13:50:28 GMT-0500 (Central Daylight Time),641683.2000000002,CFD-BM-029-026-HC.jpg,1600,solid,I,m,824,10,2,18410.700000000186,623272.5,8030,ATS,A,7
8,test,4,C,haborder.png,1,z,Fri May 09 2025 13:50:28 GMT-0500 (Central Daylight Time),644382.5,CFD-BF-039-039-A.jpg,1900,solid,I,z,778,8,2,21110.0,623272.5,8030,ATS,A,8
9,test,4,C,mfborder.png,1,z,Fri May 09 2025 13:50:28 GMT-0500 (Central Daylight Time),646831.7999999998,CFD-WF-019-015-A.jpg,1600,dash,I,z,819,2,2,23559.299999999814,623272.5,8030,ATS,A,9
10,test,4,C,mfborder.png,1,m,Fri May 09 2025 13:50:28 GMT-0500 (Central Daylight Time),648797.7000000002,CFD-BM-017-052-HC.jpg,1000,dash,I,m,938,4,2,25525.200000000186,623272.5,8030,ATS,A,10
11,test,4,C,haborder.png,1,m,Fri May 09 2025 13:50:28 GMT-0500 (Central Daylight Time),651180.2000000002,CFD-BM-029-026-HC.jpg,1600,solid,I,m,764,10,2,27907.700000000186,623272.5,8030,ATS,A,11
11,test,4,C,mfborder.png,0,z,Fri May 09 2025 13:50:28 GMT-0500 (Central Daylight Time),653646.3999999999,CFD-BF-028-020-HC.jpg,1500,dash,I,m,940,3,2,30373.899999999907,623272.5,8030,ATS,A,12
12,test,4,C,mfborder.png,1,z,Fri May 09 2025 13:50:28 GMT-0500 (Central Daylight Time),655845.3999999999,CFD-WF-019-015-A.jpg,1600,dash,I,z,579,2,2,32572.899999999907,623272.5,8030,ATS,A,13
13,test,4,C,mfborder.png,1,z,Fri May 09 2025 13:50:28 GMT-0500 (Central Daylight Time),658311.3999999999,CFD-WF-017-016-HC.jpg,1700,dash,I,z,744,1,2,35038.89999999991,623272.5,8030,ATS,A,14
14,test,4,C,mfborder.png,1,m,Fri May 09 2025 13:50:28 GMT-0500 (Central Daylight Time),660294.1000000001,CFD-WM-013-015-A.jpg,1200,dash,I,m,754,6,2,37021.60000000009,623272.5,8030,ATS,A,15
15,test,4,C,mfborder.png,1,m,Fri May 09 2025 13:50:28 GMT-0500 (Central Daylight Time),662346.6000000001,CFD-WM-013-015-A.jpg,1200,dash,I,m,819,6,2,39074.10000000009,623272.5,8030,ATS,A,16
16,test,4,C,haborder.png,1,m,Fri May 09 2025 13:50:28 GMT-0500 (Central Daylight Time),664659.1000000001,CFD-WM-004-005-HC.jpg,1500,solid,I,m,789,11,2,41386.60000000009,623272.5,8030,ATS,A,17
17,test,4,C,mfborder.png,1,z,Fri May 09 2025 13:50:28 GMT-0500 (Central Daylight Time),666808.6000000001,CFD-BF-028-020-HC.jpg,1500,dash,I,z,626,3,2,43536.10000000009,623272.5,8030,ATS,A,18
18,test,4,C,mfborder.png,1,z,Fri May 09 2025 13:50:28 GMT-0500 (Central Daylight Time),669174.6000000001,CFD-WF-017-016-HC.jpg,1700,dash,I,z,645,1,2,45902.10000000009,623272.5,8030,ATS,A,19
19,test,4,C,haborder.png,1,z,Fri May 09 2025 13:50:28 GMT-0500 (Central Daylight Time),671690.2999999998,CFD-BF-023-013-A.jpg,1400,solid,I,z,1099,7,2,48417.799999999814,623272.5,8030,ATS,A,20
19,test,4,C,mfborder.png,0,m,Fri May 09 2025 13:50:28 GMT-0500 (Central Daylight Time),673889.7000000002,CFD-BM-017-052-HC.jpg,1000,dash,I,z,1175,4,2,50617.200000000186,623272.5,8030,ATS,A,21
20,test,4,C,haborder.png,1,m,Fri May 09 2025 13:50:28 GMT-0500 (Central Daylight Time),676205.6000000001,CFD-WM-004-005-HC.jpg,1000,solid,I,m,1284,12,2,52933.10000000009,623272.5,8030,ATS,A,22
20,test,4,C,haborder.png,0,m,Fri May 09 2025 13:50:28 GMT-0500 (Central Daylight Time),678738.3999999999,CFD-WM-004-005-HC.jpg,1000,solid,I,None,1516,12,2,55465.89999999991,623272.5,8030,ATS,A,23
20,test,4,C,haborder.png,0,z,Fri May 09 2025 13:50:28 GMT-0500 (Central Daylight Time),681387.2000000002,CFD-BF-023-013-A.jpg,1400,solid,I,m,1230,7,2,58114.700000000186,623272.5,8030,ATS,A,24
