acc_sum,block,block_c,change,condition,correct,correct_response,datetime,endtime,face,project,response,response_time,row_sel,session_number,start_end,starttime,subject_id,task,task_vers,trial
0,prac,1,,1-Back,,,Wed Mar 11 2026 12:31:03 GMT-0500 (Central Daylight Time),,093_m_f_n_a.png,O,space,13047,1,1,,,7772,NNB,C,0
1,prac,1,0.0,1-Back,1.0,m,Wed Mar 11 2026 12:31:03 GMT-0500 (Central Daylight Time),355355.1999999881,098_y_f_n_a.png,O,m,1031,2,1,1889.699999988079,353465.5,7772,NNB,C,1
2,prac,1,1.0,1-Back,1.0,z,Wed Mar 11 2026 12:31:03 GMT-0500 (Central Daylight Time),357087.90000000596,098_y_f_n_a.png,O,z,953,3,1,1728.7000000178814,355359.1999999881,7772,NNB,C,2
3,prac,1,0.0,1-Back,1.0,m,Wed Mar 11 2026 12:31:03 GMT-0500 (Central Daylight Time),358870.6999999881,059_o_m_n_a.png,O,m,915,4,1,1774.199999988079,357096.5,7772,NNB,C,3
4,prac,1,0.0,1-Back,1.0,m,Wed Mar 11 2026 12:31:03 GMT-0500 (Central Daylight Time),360853.40000000596,092_m_m_n_a.png,O,m,1112,5,1,1978.9000000059605,358874.5,7772,NNB,C,4
5,prac,1,1.0,1-Back,1.0,z,Wed Mar 11 2026 12:31:03 GMT-0500 (Central Daylight Time),362452.90000000596,092_m_m_n_a.png,O,z,809,6,1,1590.2000000178814,360862.6999999881,7772,NNB,C,5
6,prac,1,0.0,1-Back,1.0,m,Wed Mar 11 2026 12:31:03 GMT-0500 (Central Daylight Time),364252.0,130_o_f_n_a.png,O,m,915,7,1,1794.7000000178814,362457.2999999821,7772,NNB,C,6
7,prac,1,0.0,1-Back,1.0,m,Wed Mar 11 2026 12:31:03 GMT-0500 (Central Daylight Time),366601.5,082_m_m_n_a.png,O,m,1473,8,1,2341.2000000178814,364260.2999999821,7772,NNB,C,7
8,prac,1,0.0,1-Back,1.0,m,Wed Mar 11 2026 12:31:03 GMT-0500 (Central Daylight Time),368284.2999999821,093_m_f_n_a.png,O,m,924,9,1,1679.0,366605.2999999821,7772,NNB,C,8
9,prac,1,1.0,1-Back,1.0,z,Wed Mar 11 2026 12:31:03 GMT-0500 (Central Daylight Time),369850.40000000596,093_m_f_n_a.png,O,z,777,10,1,1556.2000000178814,368294.1999999881,7772,NNB,C,9
10,prac,1,0.0,1-Back,1.0,m,Wed Mar 11 2026 12:31:03 GMT-0500 (Central Daylight Time),371483.5,059_o_m_n_a.png,O,m,850,11,1,1629.7000000178814,369853.7999999821,7772,NNB,C,10
11,prac,1,0.0,1-Back,1.0,m,Wed Mar 11 2026 12:31:03 GMT-0500 (Central Daylight Time),373482.7999999821,028_y_f_n_a.png,O,m,1126,12,1,1990.7999999821186,371492.0,7772,NNB,C,11
0,test,1,0.0,1-Back,,,Wed Mar 11 2026 12:31:03 GMT-0500 (Central Daylight Time),373482.7999999821,098_y_f_n_a.png,O,space,13790,1,1,1990.7999999821186,371492.0,7772,NNB,C,0
1,test,1,0.0,1-Back,1.0,m,Wed Mar 11 2026 12:31:03 GMT-0500 (Central Daylight Time),409438.2999999821,006_m_f_n_a.png,O,m,719,2,1,1743.699999988079,407694.59999999404,7772,NNB,C,1
2,test,1,0.0,1-Back,1.0,m,Wed Mar 11 2026 12:31:03 GMT-0500 (Central Daylight Time),411254.09999999404,028_y_f_n_a.png,O,m,798,3,1,1813.0,409441.09999999404,7772,NNB,C,2
3,test,1,1.0,1-Back,1.0,z,Wed Mar 11 2026 12:31:03 GMT-0500 (Central Daylight Time),412836.90000000596,028_y_f_n_a.png,O,z,561,4,1,1577.7000000178814,411259.1999999881,7772,NNB,C,3
4,test,1,0.0,1-Back,1.0,m,Wed Mar 11 2026 12:31:03 GMT-0500 (Central Daylight Time),414650.40000000596,006_m_f_n_a.png,O,m,796,5,1,1811.2000000178814,412839.1999999881,7772,NNB,C,4
5,test,1,0.0,1-Back,1.0,m,Wed Mar 11 2026 12:31:03 GMT-0500 (Central Daylight Time),416419.09999999404,059_o_m_n_a.png,O,m,739,6,1,1762.0,414657.09999999404,7772,NNB,C,5
6,test,1,1.0,1-Back,1.0,z,Wed Mar 11 2026 12:31:03 GMT-0500 (Central Daylight Time),418202.1999999881,059_o_m_n_a.png,O,z,756,7,1,1780.2999999821186,416421.90000000596,7772,NNB,C,6
7,test,1,0.0,1-Back,1.0,m,Wed Mar 11 2026 12:31:03 GMT-0500 (Central Daylight Time),419851.2999999821,092_m_m_n_a.png,O,m,629,8,1,1642.5,418208.7999999821,7772,NNB,C,7
8,test,1,0.0,1-Back,1.0,m,Wed Mar 11 2026 12:31:03 GMT-0500 (Central Daylight Time),421767.2999999821,130_o_f_n_a.png,O,m,892,9,1,1913.5999999940395,419853.6999999881,7772,NNB,C,8
9,test,1,0.0,1-Back,1.0,m,Wed Mar 11 2026 12:31:03 GMT-0500 (Central Daylight Time),423566.90000000596,092_m_m_n_a.png,O,m,768,10,1,1793.0,421773.90000000596,7772,NNB,C,9
10,test,1,0.0,1-Back,1.0,m,Wed Mar 11 2026 12:31:03 GMT-0500 (Central Daylight Time),425383.09999999404,057_y_m_n_a.png,O,m,783,11,1,1813.5999999940395,423569.5,7772,NNB,C,10
11,test,1,1.0,1-Back,1.0,z,Wed Mar 11 2026 12:31:03 GMT-0500 (Central Daylight Time),427182.5,057_y_m_n_a.png,O,z,768,12,1,1795.7000000178814,425386.7999999821,7772,NNB,C,11
12,test,1,0.0,1-Back,1.0,m,Wed Mar 11 2026 12:31:03 GMT-0500 (Central Daylight Time),429048.2999999821,030_o_f_n_a.png,O,m,849,13,1,1863.199999988079,427185.09999999404,7772,NNB,C,12
13,test,1,1.0,1-Back,1.0,z,Wed Mar 11 2026 12:31:03 GMT-0500 (Central Daylight Time),430997.7999999821,030_o_f_n_a.png,O,z,927,14,1,1943.8999999761581,429053.90000000596,7772,NNB,C,13
14,test,1,0.0,1-Back,1.0,m,Wed Mar 11 2026 12:31:03 GMT-0500 (Central Daylight Time),432747.5,031_y_m_n_a.png,O,m,729,15,1,1746.9000000059605,431000.59999999404,7772,NNB,C,14
15,test,1,0.0,1-Back,1.0,m,Wed Mar 11 2026 12:31:03 GMT-0500 (Central Daylight Time),434613.7999999821,093_m_f_n_a.png,O,m,836,16,1,1859.699999988079,432754.09999999404,7772,NNB,C,15
16,test,1,0.0,1-Back,1.0,m,Wed Mar 11 2026 12:31:03 GMT-0500 (Central Daylight Time),436346.2999999821,146_o_m_n_a.png,O,m,707,17,1,1730.199999988079,434616.09999999404,7772,NNB,C,16
17,test,1,0.0,1-Back,1.0,m,Wed Mar 11 2026 12:31:03 GMT-0500 (Central Daylight Time),438595.59999999404,093_m_f_n_a.png,O,m,1221,18,1,2245.0999999940395,436350.5,7772,NNB,C,17
0,test,2,0.0,1-Back,,,Wed Mar 11 2026 12:31:03 GMT-0500 (Central Daylight Time),438595.59999999404,092_m_m_n_a.png,O,space,5148,1,1,2245.0999999940395,436350.5,7772,NNB,C,0
1,test,2,0.0,1-Back,1.0,m,Wed Mar 11 2026 12:31:03 GMT-0500 (Central Daylight Time),447526.40000000596,006_m_f_n_a.png,O,m,742,2,1,1759.6000000238419,445766.7999999821,7772,NNB,C,1
2,test,2,1.0,1-Back,1.0,z,Wed Mar 11 2026 12:31:03 GMT-0500 (Central Daylight Time),449359.2999999821,006_m_f_n_a.png,O,z,801,3,1,1830.5999999940395,447528.6999999881,7772,NNB,C,2
3,test,2,0.0,1-Back,1.0,m,Wed Mar 11 2026 12:31:03 GMT-0500 (Central Daylight Time),451058.5,092_m_m_n_a.png,O,m,672,4,1,1693.2000000178814,449365.2999999821,7772,NNB,C,3
4,test,2,0.0,1-Back,1.0,m,Wed Mar 11 2026 12:31:03 GMT-0500 (Central Daylight Time),452824.5,057_y_m_n_a.png,O,m,741,5,1,1763.5999999940395,451060.90000000596,7772,NNB,C,4
5,test,2,0.0,1-Back,1.0,m,Wed Mar 11 2026 12:31:03 GMT-0500 (Central Daylight Time),454457.5,098_y_f_n_a.png,O,m,607,6,1,1628.300000011921,452829.1999999881,7772,NNB,C,5
6,test,2,1.0,1-Back,1.0,z,Wed Mar 11 2026 12:31:03 GMT-0500 (Central Daylight Time),456206.7999999821,098_y_f_n_a.png,O,z,726,7,1,1746.8999999761581,454459.90000000596,7772,NNB,C,6
7,test,2,0.0,1-Back,1.0,m,Wed Mar 11 2026 12:31:03 GMT-0500 (Central Daylight Time),458039.2999999821,057_y_m_n_a.png,O,m,801,8,1,1826.5,456212.7999999821,7772,NNB,C,7
8,test,2,0.0,1-Back,1.0,m,Wed Mar 11 2026 12:31:03 GMT-0500 (Central Daylight Time),459738.90000000596,030_o_f_n_a.png,O,m,680,9,1,1697.2000000178814,458041.6999999881,7772,NNB,C,8
9,test,2,0.0,1-Back,1.0,m,Wed Mar 11 2026 12:31:03 GMT-0500 (Central Daylight Time),461471.90000000596,082_m_m_n_a.png,O,m,700,10,1,1727.7000000178814,459744.1999999881,7772,NNB,C,9
10,test,2,1.0,1-Back,1.0,z,Wed Mar 11 2026 12:31:03 GMT-0500 (Central Daylight Time),463254.5,082_m_m_n_a.png,O,z,752,11,1,1779.9000000059605,461474.59999999404,7772,NNB,C,10
11,test,2,0.0,1-Back,1.0,m,Wed Mar 11 2026 12:31:03 GMT-0500 (Central Daylight Time),465070.90000000596,030_o_f_n_a.png,O,m,785,12,1,1810.5,463260.40000000596,7772,NNB,C,11
12,test,2,0.0,1-Back,1.0,m,Wed Mar 11 2026 12:31:03 GMT-0500 (Central Daylight Time),466770.1999999881,130_o_f_n_a.png,O,m,673,13,1,1696.9000000059605,465073.2999999821,7772,NNB,C,12
13,test,2,0.0,1-Back,1.0,m,Wed Mar 11 2026 12:31:03 GMT-0500 (Central Daylight Time),468519.5,059_o_m_n_a.png,O,m,725,14,1,1743.800000011921,466775.6999999881,7772,NNB,C,13
14,test,2,0.0,1-Back,1.0,m,Wed Mar 11 2026 12:31:03 GMT-0500 (Central Daylight Time),470302.1999999881,146_o_m_n_a.png,O,m,752,15,1,1780.2999999821186,468521.90000000596,7772,NNB,C,14
15,test,2,1.0,1-Back,1.0,z,Wed Mar 11 2026 12:31:03 GMT-0500 (Central Daylight Time),472018.2999999821,146_o_m_n_a.png,O,z,697,16,1,1709.8999999761581,470308.40000000596,7772,NNB,C,15
16,test,2,0.0,1-Back,1.0,m,Wed Mar 11 2026 12:31:03 GMT-0500 (Central Daylight Time),473801.09999999404,031_y_m_n_a.png,O,m,765,17,1,1780.199999988079,472020.90000000596,7772,NNB,C,16
17,test,2,1.0,1-Back,1.0,z,Wed Mar 11 2026 12:31:03 GMT-0500 (Central Daylight Time),475750.6999999881,031_y_m_n_a.png,O,z,926,18,1,1945.5999999940395,473805.09999999404,7772,NNB,C,17
0,test,3,1.0,1-Back,,,Wed Mar 11 2026 12:31:03 GMT-0500 (Central Daylight Time),475750.6999999881,028_y_f_n_a.png,O,space,5385,1,1,1945.5999999940395,473805.09999999404,7772,NNB,C,0
1,test,3,0.0,1-Back,1.0,m,Wed Mar 11 2026 12:31:03 GMT-0500 (Central Daylight Time),484997.6999999881,146_o_m_n_a.png,O,m,719,1,1,1746.7999999821186,483250.90000000596,7772,NNB,C,1
2,test,3,1.0,1-Back,1.0,z,Wed Mar 11 2026 12:31:03 GMT-0500 (Central Daylight Time),486897.40000000596,146_o_m_n_a.png,O,z,866,1,1,1893.6000000238419,485003.7999999821,7772,NNB,C,2
3,test,3,0.0,1-Back,1.0,m,Wed Mar 11 2026 12:31:03 GMT-0500 (Central Daylight Time),488579.90000000596,093_m_f_n_a.png,O,m,662,1,1,1680.1000000238419,486899.7999999821,7772,NNB,C,3
4,test,3,1.0,1-Back,1.0,z,Wed Mar 11 2026 12:31:03 GMT-0500 (Central Daylight Time),490512.5,093_m_f_n_a.png,O,z,907,1,1,1927.4000000059605,488585.09999999404,7772,NNB,C,4
5,test,3,0.0,1-Back,1.0,m,Wed Mar 11 2026 12:31:03 GMT-0500 (Central Daylight Time),492295.5,030_o_f_n_a.png,O,m,751,1,1,1780.4000000059605,490515.09999999404,7772,NNB,C,5
6,test,3,0.0,1-Back,1.0,m,Wed Mar 11 2026 12:31:03 GMT-0500 (Central Daylight Time),494128.1999999881,057_y_m_n_a.png,O,m,808,1,1,1826.4000000059605,492301.7999999821,7772,NNB,C,6
7,test,3,0.0,1-Back,1.0,m,Wed Mar 11 2026 12:31:03 GMT-0500 (Central Daylight Time),496127.2999999821,030_o_f_n_a.png,O,m,974,1,1,1996.699999988079,494130.59999999404,7772,NNB,C,7
8,test,3,0.0,1-Back,1.0,m,Wed Mar 11 2026 12:31:03 GMT-0500 (Central Daylight Time),497910.40000000596,031_y_m_n_a.png,O,m,760,1,1,1778.300000011921,496132.09999999404,7772,NNB,C,8
9,test,3,1.0,1-Back,1.0,z,Wed Mar 11 2026 12:31:03 GMT-0500 (Central Daylight Time),499643.09999999404,031_y_m_n_a.png,O,z,705,1,1,1730.300000011921,497912.7999999821,7772,NNB,C,9
10,test,3,0.0,1-Back,1.0,m,Wed Mar 11 2026 12:31:03 GMT-0500 (Central Daylight Time),501525.90000000596,006_m_f_n_a.png,O,m,860,1,1,1876.5,499649.40000000596,7772,NNB,C,10
11,test,3,0.0,1-Back,1.0,m,Wed Mar 11 2026 12:31:03 GMT-0500 (Central Daylight Time),503275.2999999821,098_y_f_n_a.png,O,m,722,1,1,1746.699999988079,501528.59999999404,7772,NNB,C,11
12,test,3,1.0,1-Back,1.0,z,Wed Mar 11 2026 12:31:03 GMT-0500 (Central Daylight Time),505058.09999999404,098_y_f_n_a.png,O,z,756,1,1,1776.300000011921,503281.7999999821,7772,NNB,C,12
13,test,3,0.0,1-Back,1.0,m,Wed Mar 11 2026 12:31:03 GMT-0500 (Central Daylight Time),506824.40000000596,006_m_f_n_a.png,O,m,741,1,1,1763.9000000059605,505060.5,7772,NNB,C,13
14,test,3,0.0,1-Back,1.0,m,Wed Mar 11 2026 12:31:03 GMT-0500 (Central Daylight Time),508540.5,092_m_m_n_a.png,O,m,687,1,1,1710.4000000059605,506830.09999999404,7772,NNB,C,14
15,test,3,1.0,1-Back,1.0,z,Wed Mar 11 2026 12:31:03 GMT-0500 (Central Daylight Time),510772.90000000596,092_m_m_n_a.png,O,z,1203,1,1,2230.0,508542.90000000596,7772,NNB,C,15
16,test,3,0.0,1-Back,1.0,m,Wed Mar 11 2026 12:31:03 GMT-0500 (Central Daylight Time),512589.1999999881,130_o_f_n_a.png,O,m,786,1,1,1811.699999988079,510777.5,7772,NNB,C,16
17,test,3,1.0,1-Back,1.0,z,Wed Mar 11 2026 12:31:03 GMT-0500 (Central Daylight Time),514405.09999999404,130_o_f_n_a.png,O,z,795,1,1,1813.0999999940395,512592.0,7772,NNB,C,17
0,test,4,1.0,1-Back,,,Wed Mar 11 2026 12:31:03 GMT-0500 (Central Daylight Time),514405.09999999404,093_m_f_n_a.png,O,space,10570,1,1,1813.0999999940395,512592.0,7772,NNB,C,0
1,test,4,0.0,1-Back,1.0,m,Wed Mar 11 2026 12:31:03 GMT-0500 (Central Daylight Time),528834.0,146_o_m_n_a.png,O,m,731,2,1,1747.0999999940395,527086.900000006,7772,NNB,C,1
2,test,4,0.0,1-Back,1.0,m,Wed Mar 11 2026 12:31:03 GMT-0500 (Central Daylight Time),530800.099999994,093_m_f_n_a.png,O,m,941,3,1,1962.4000000059605,528837.6999999881,7772,NNB,C,2
3,test,4,0.0,1-Back,1.0,m,Wed Mar 11 2026 12:31:03 GMT-0500 (Central Daylight Time),532678.0,030_o_f_n_a.png,O,m,714,4,1,1875.2000000178814,530802.7999999821,7772,NNB,C,3
4,test,4,1.0,1-Back,1.0,z,Wed Mar 11 2026 12:31:03 GMT-0500 (Central Daylight Time),534465.400000006,030_o_f_n_a.png,O,z,765,5,1,1779.800000011921,532685.599999994,7772,NNB,C,4
5,test,4,0.0,1-Back,1.0,m,Wed Mar 11 2026 12:31:03 GMT-0500 (Central Daylight Time),536264.900000006,098_y_f_n_a.png,O,m,774,6,1,1797.1000000238419,534467.7999999821,7772,NNB,C,5
6,test,4,0.0,1-Back,1.0,m,Wed Mar 11 2026 12:31:03 GMT-0500 (Central Daylight Time),537998.099999994,057_y_m_n_a.png,O,m,701,7,1,1725.699999988079,536272.400000006,7772,NNB,C,6
7,test,4,1.0,1-Back,1.0,z,Wed Mar 11 2026 12:31:03 GMT-0500 (Central Daylight Time),539530.599999994,057_y_m_n_a.png,O,z,514,8,1,1529.0,538001.599999994,7772,NNB,C,7
8,test,4,0.0,1-Back,1.0,m,Wed Mar 11 2026 12:31:03 GMT-0500 (Central Daylight Time),541346.900000006,098_y_f_n_a.png,O,m,797,9,1,1812.300000011921,539534.599999994,7772,NNB,C,8
9,test,4,0.0,1-Back,1.0,m,Wed Mar 11 2026 12:31:03 GMT-0500 (Central Daylight Time),543096.1999999881,082_m_m_n_a.png,O,m,725,10,1,1746.7999999821186,541349.400000006,7772,NNB,C,9
10,test,4,1.0,1-Back,1.0,z,Wed Mar 11 2026 12:31:03 GMT-0500 (Central Daylight Time),544779.0,082_m_m_n_a.png,O,z,655,11,1,1677.2000000178814,543101.7999999821,7772,NNB,C,10
11,test,4,0.0,1-Back,1.0,m,Wed Mar 11 2026 12:31:03 GMT-0500 (Central Daylight Time),546695.0,130_o_f_n_a.png,O,m,892,12,1,1913.5999999940395,544781.400000006,7772,NNB,C,11
12,test,4,0.0,1-Back,1.0,m,Wed Mar 11 2026 12:31:03 GMT-0500 (Central Daylight Time),548362.400000006,059_o_m_n_a.png,O,m,648,13,1,1662.9000000059605,546699.5,7772,NNB,C,12
13,test,4,0.0,1-Back,1.0,m,Wed Mar 11 2026 12:31:03 GMT-0500 (Central Daylight Time),550127.2999999821,130_o_f_n_a.png,O,m,742,14,1,1762.3999999761581,548364.900000006,7772,NNB,C,13
14,test,4,0.0,1-Back,1.0,m,Wed Mar 11 2026 12:31:03 GMT-0500 (Central Daylight Time),551810.0,028_y_f_n_a.png,O,m,664,15,1,1675.5,550134.5,7772,NNB,C,14
15,test,4,1.0,1-Back,1.0,z,Wed Mar 11 2026 12:31:03 GMT-0500 (Central Daylight Time),553576.0,028_y_f_n_a.png,O,z,741,16,1,1763.5,551812.5,7772,NNB,C,15
16,test,4,0.0,1-Back,1.0,m,Wed Mar 11 2026 12:31:03 GMT-0500 (Central Daylight Time),555292.599999994,006_m_f_n_a.png,O,m,688,17,1,1711.800000011921,553580.7999999821,7772,NNB,C,16
17,test,4,1.0,1-Back,1.0,z,Wed Mar 11 2026 12:31:03 GMT-0500 (Central Daylight Time),557125.099999994,006_m_f_n_a.png,O,z,809,18,1,1830.300000011921,555294.7999999821,7772,NNB,C,17
0,test,5,1.0,1-Back,,,Wed Mar 11 2026 12:31:03 GMT-0500 (Central Daylight Time),557125.099999994,059_o_m_n_a.png,O,space,2770,1,1,1830.300000011921,555294.7999999821,7772,NNB,C,0
1,test,5,1.0,1-Back,1.0,z,Wed Mar 11 2026 12:31:03 GMT-0500 (Central Daylight Time),563656.1999999881,059_o_m_n_a.png,O,z,708,2,1,1730.0,561926.1999999881,7772,NNB,C,1
2,test,5,0.0,1-Back,1.0,m,Wed Mar 11 2026 12:31:03 GMT-0500 (Central Daylight Time),565288.900000006,098_y_f_n_a.png,O,m,615,3,1,1625.9000000059605,563663.0,7772,NNB,C,2
3,test,5,0.0,1-Back,1.0,m,Wed Mar 11 2026 12:31:03 GMT-0500 (Central Daylight Time),567071.7999999821,057_y_m_n_a.png,O,m,758,4,1,1780.3999999761581,565291.400000006,7772,NNB,C,3
4,test,5,0.0,1-Back,1.0,m,Wed Mar 11 2026 12:31:03 GMT-0500 (Central Daylight Time),568804.400000006,098_y_f_n_a.png,O,m,703,5,1,1727.4000000059605,567077.0,7772,NNB,C,4
5,test,5,0.0,1-Back,1.0,m,Wed Mar 11 2026 12:31:03 GMT-0500 (Central Daylight Time),570487.5,092_m_m_n_a.png,O,m,659,6,1,1680.7000000178814,568806.7999999821,7772,NNB,C,5
6,test,5,1.0,1-Back,1.0,z,Wed Mar 11 2026 12:31:03 GMT-0500 (Central Daylight Time),572303.7999999821,092_m_m_n_a.png,O,z,800,7,1,1809.199999988079,570494.599999994,7772,NNB,C,6
7,test,5,0.0,1-Back,1.0,m,Wed Mar 11 2026 12:31:03 GMT-0500 (Central Daylight Time),574069.599999994,028_y_f_n_a.png,O,m,744,8,1,1762.800000011921,572306.7999999821,7772,NNB,C,7
8,test,5,0.0,1-Back,1.0,m,Wed Mar 11 2026 12:31:03 GMT-0500 (Central Daylight Time),575935.599999994,031_y_m_n_a.png,O,m,842,9,1,1861.699999988079,574073.900000006,7772,NNB,C,8
9,test,5,0.0,1-Back,1.0,m,Wed Mar 11 2026 12:31:03 GMT-0500 (Central Daylight Time),577684.900000006,028_y_f_n_a.png,O,m,719,10,1,1746.800000011921,575938.099999994,7772,NNB,C,9
10,test,5,0.0,1-Back,1.0,m,Wed Mar 11 2026 12:31:03 GMT-0500 (Central Daylight Time),579384.5,130_o_f_n_a.png,O,m,674,11,1,1694.800000011921,577689.6999999881,7772,NNB,C,10
11,test,5,1.0,1-Back,1.0,z,Wed Mar 11 2026 12:31:03 GMT-0500 (Central Daylight Time),581184.099999994,130_o_f_n_a.png,O,z,767,12,1,1797.199999988079,579386.900000006,7772,NNB,C,11
12,test,5,0.0,1-Back,1.0,m,Wed Mar 11 2026 12:31:03 GMT-0500 (Central Daylight Time),582917.0,146_o_m_n_a.png,O,m,703,13,1,1727.800000011921,581189.1999999881,7772,NNB,C,12
13,test,5,0.0,1-Back,1.0,m,Wed Mar 11 2026 12:31:03 GMT-0500 (Central Daylight Time),584682.900000006,093_m_f_n_a.png,O,m,738,14,1,1763.2000000178814,582919.6999999881,7772,NNB,C,13
13,test,5,1.0,1-Back,0.0,z,Wed Mar 11 2026 12:31:03 GMT-0500 (Central Daylight Time),587032.1999999881,093_m_f_n_a.png,O,m,1324,15,1,2343.0999999940395,584689.099999994,7772,NNB,C,14
14,test,5,0.0,1-Back,1.0,m,Wed Mar 11 2026 12:31:03 GMT-0500 (Central Daylight Time),588898.1999999881,146_o_m_n_a.png,O,m,847,16,1,1863.2999999821186,587034.900000006,7772,NNB,C,15
15,test,5,0.0,1-Back,1.0,m,Wed Mar 11 2026 12:31:03 GMT-0500 (Central Daylight Time),590831.099999994,006_m_f_n_a.png,O,m,909,17,1,1926.800000011921,588904.2999999821,7772,NNB,C,16
16,test,5,0.0,1-Back,1.0,m,Wed Mar 11 2026 12:31:03 GMT-0500 (Central Daylight Time),592530.5,082_m_m_n_a.png,O,m,672,18,1,1696.800000011921,590833.6999999881,7772,NNB,C,17
0,prac,1,0.0,2-Back,,,Wed Mar 11 2026 12:31:03 GMT-0500 (Central Daylight Time),592530.5,031_y_m_n_a.png,O,space,14167,1,1,1696.800000011921,590833.6999999881,7772,NNB,C,0
0,prac,1,0.0,2-Back,,,Wed Mar 11 2026 12:31:03 GMT-0500 (Central Daylight Time),592530.5,006_m_f_n_a.png,O,space,14167,2,1,1696.800000011921,590833.6999999881,7772,NNB,C,0
1,prac,1,1.0,2-Back,1.0,m,Wed Mar 11 2026 12:31:03 GMT-0500 (Central Daylight Time),812895.400000006,146_o_m_n_a.png,O,m,1785,3,1,2662.300000011921,810233.099999994,7772,NNB,C,1
2,prac,1,0.0,2-Back,1.0,m,Wed Mar 11 2026 12:31:03 GMT-0500 (Central Daylight Time),814844.599999994,130_o_f_n_a.png,O,m,1047,4,1,1939.0,812905.599999994,7772,NNB,C,2
3,prac,1,0.0,2-Back,1.0,z,Wed Mar 11 2026 12:31:03 GMT-0500 (Central Daylight Time),816694.0,146_o_m_n_a.png,O,z,1073,5,1,1846.0999999940395,814847.900000006,7772,NNB,C,3
4,prac,1,1.0,2-Back,1.0,z,Wed Mar 11 2026 12:31:03 GMT-0500 (Central Daylight Time),818776.7999999821,130_o_f_n_a.png,O,z,1305,6,1,2073.699999988079,816703.099999994,7772,NNB,C,4
5,prac,1,0.0,2-Back,1.0,m,Wed Mar 11 2026 12:31:03 GMT-0500 (Central Daylight Time),820843.7999999821,082_m_m_n_a.png,O,m,1307,7,1,2063.2999999821186,818780.5,7772,NNB,C,5
6,prac,1,0.0,2-Back,1.0,m,Wed Mar 11 2026 12:31:03 GMT-0500 (Central Daylight Time),823125.400000006,059_o_m_n_a.png,O,m,1404,8,1,2274.300000011921,820851.099999994,7772,NNB,C,6
7,prac,1,0.0,2-Back,1.0,m,Wed Mar 11 2026 12:31:03 GMT-0500 (Central Daylight Time),825158.1999999881,028_y_f_n_a.png,O,m,1163,9,1,2029.4000000059605,823128.7999999821,7772,NNB,C,7
7,prac,1,1.0,2-Back,0.0,z,Wed Mar 11 2026 12:31:03 GMT-0500 (Central Daylight Time),827790.5,059_o_m_n_a.png,O,m,1850,10,1,2624.300000011921,825166.1999999881,7772,NNB,C,8
8,prac,1,0.0,2-Back,1.0,m,Wed Mar 11 2026 12:31:03 GMT-0500 (Central Daylight Time),829990.0,098_y_f_n_a.png,O,m,1342,11,1,2196.0,827794.0,7772,NNB,C,9
9,prac,1,0.0,2-Back,1.0,m,Wed Mar 11 2026 12:31:03 GMT-0500 (Central Daylight Time),831906.099999994,082_m_m_n_a.png,O,m,1130,12,1,1907.300000011921,829998.7999999821,7772,NNB,C,10
0,test,1,0.0,2-Back,,,Wed Mar 11 2026 12:31:03 GMT-0500 (Central Daylight Time),831906.099999994,057_y_m_n_a.png,O,space,22311,1,1,1907.300000011921,829998.7999999821,7772,NNB,C,0
0,test,1,0.0,2-Back,,,Wed Mar 11 2026 12:31:03 GMT-0500 (Central Daylight Time),831906.099999994,057_y_m_n_a.png,O,space,22311,2,1,1907.300000011921,829998.7999999821,7772,NNB,C,0
1,test,1,0.0,2-Back,1.0,m,Wed Mar 11 2026 12:31:03 GMT-0500 (Central Daylight Time),880523.7999999821,130_o_f_n_a.png,O,m,1427,3,1,2446.5,878077.2999999821,7772,NNB,C,1
2,test,1,0.0,2-Back,1.0,m,Wed Mar 11 2026 12:31:03 GMT-0500 (Central Daylight Time),882757.0,092_m_m_n_a.png,O,m,1204,4,1,2227.800000011921,880529.1999999881,7772,NNB,C,2
3,test,1,1.0,2-Back,1.0,z,Wed Mar 11 2026 12:31:03 GMT-0500 (Central Daylight Time),884589.599999994,130_o_f_n_a.png,O,z,803,5,1,1830.300000011921,882759.2999999821,7772,NNB,C,3
4,test,1,0.0,2-Back,1.0,m,Wed Mar 11 2026 12:31:03 GMT-0500 (Central Daylight Time),886505.2999999821,098_y_f_n_a.png,O,m,890,6,1,1911.699999988079,884593.599999994,7772,NNB,C,4
4,test,1,0.0,2-Back,0.0,m,Wed Mar 11 2026 12:31:03 GMT-0500 (Central Daylight Time),888554.900000006,092_m_m_n_a.png,O,z,1030,7,1,2047.1000000238419,886507.7999999821,7772,NNB,C,5
5,test,1,1.0,2-Back,1.0,z,Wed Mar 11 2026 12:31:03 GMT-0500 (Central Daylight Time),890754.2999999821,098_y_f_n_a.png,O,z,1172,8,1,2195.2999999821186,888559.0,7772,NNB,C,6
6,test,1,0.0,2-Back,1.0,m,Wed Mar 11 2026 12:31:03 GMT-0500 (Central Daylight Time),892720.1999999881,031_y_m_n_a.png,O,m,948,9,1,1963.5,890756.6999999881,7772,NNB,C,7
7,test,1,0.0,2-Back,1.0,m,Wed Mar 11 2026 12:31:03 GMT-0500 (Central Daylight Time),894537.5,030_o_f_n_a.png,O,m,791,10,1,1813.300000011921,892724.1999999881,7772,NNB,C,8
8,test,1,1.0,2-Back,1.0,z,Wed Mar 11 2026 12:31:03 GMT-0500 (Central Daylight Time),896719.0,031_y_m_n_a.png,O,z,1151,11,1,2179.0,894540.0,7772,NNB,C,9
9,test,1,0.0,2-Back,1.0,m,Wed Mar 11 2026 12:31:03 GMT-0500 (Central Daylight Time),898701.900000006,006_m_f_n_a.png,O,m,953,12,1,1975.1000000238419,896726.7999999821,7772,NNB,C,10
10,test,1,0.0,2-Back,1.0,m,Wed Mar 11 2026 12:31:03 GMT-0500 (Central Daylight Time),900984.099999994,006_m_f_n_a.png,O,m,1258,13,1,2279.9000000059605,898704.1999999881,7772,NNB,C,11
11,test,1,0.0,2-Back,1.0,m,Wed Mar 11 2026 12:31:03 GMT-0500 (Central Daylight Time),903017.1999999881,146_o_m_n_a.png,O,m,1016,14,1,2026.5,900990.6999999881,7772,NNB,C,12
11,test,1,0.0,2-Back,0.0,m,Wed Mar 11 2026 12:31:03 GMT-0500 (Central Daylight Time),904850.900000006,030_o_f_n_a.png,O,z,814,15,1,1831.4000000059605,903019.5,7772,NNB,C,13
12,test,1,1.0,2-Back,1.0,z,Wed Mar 11 2026 12:31:03 GMT-0500 (Central Daylight Time),907199.0,146_o_m_n_a.png,O,z,1318,16,1,2342.2000000178814,904856.7999999821,7772,NNB,C,14
13,test,1,0.0,2-Back,1.0,m,Wed Mar 11 2026 12:31:03 GMT-0500 (Central Daylight Time),909181.5,093_m_f_n_a.png,O,m,961,17,1,1979.7000000178814,907201.7999999821,7772,NNB,C,15
14,test,1,0.0,2-Back,1.0,m,Wed Mar 11 2026 12:31:03 GMT-0500 (Central Daylight Time),911081.1999999881,082_m_m_n_a.png,O,m,882,18,1,1892.9000000059605,909188.2999999821,7772,NNB,C,16
0,test,2,0.0,2-Back,,,Wed Mar 11 2026 12:31:03 GMT-0500 (Central Daylight Time),911081.1999999881,082_m_m_n_a.png,O,space,9654,1,1,1892.9000000059605,909188.2999999821,7772,NNB,C,0
0,test,2,0.0,2-Back,,,Wed Mar 11 2026 12:31:03 GMT-0500 (Central Daylight Time),911081.1999999881,028_y_f_n_a.png,O,space,9654,2,1,1892.9000000059605,909188.2999999821,7772,NNB,C,0
1,test,2,1.0,2-Back,1.0,z,Wed Mar 11 2026 12:31:03 GMT-0500 (Central Daylight Time),927592.400000006,082_m_m_n_a.png,O,z,699,3,1,1713.2000000178814,925879.1999999881,7772,NNB,C,1
2,test,2,0.0,2-Back,1.0,m,Wed Mar 11 2026 12:31:03 GMT-0500 (Central Daylight Time),930243.0,093_m_f_n_a.png,O,m,1631,4,1,2643.5,927599.5,7772,NNB,C,2
2,test,2,0.0,2-Back,0.0,m,Wed Mar 11 2026 12:31:03 GMT-0500 (Central Daylight Time),933190.7999999821,028_y_f_n_a.png,O,z,1926,5,1,2945.399999976158,930245.400000006,7772,NNB,C,3
3,test,2,0.0,2-Back,1.0,m,Wed Mar 11 2026 12:31:03 GMT-0500 (Central Daylight Time),935573.7999999821,146_o_m_n_a.png,O,m,1353,6,1,2376.699999988079,933197.099999994,7772,NNB,C,4
3,test,2,0.0,2-Back,0.0,m,Wed Mar 11 2026 12:31:03 GMT-0500 (Central Daylight Time),938522.599999994,098_y_f_n_a.png,O,z,1930,7,1,2946.4000000059605,935576.1999999881,7772,NNB,C,5
4,test,2,1.0,2-Back,1.0,z,Wed Mar 11 2026 12:31:03 GMT-0500 (Central Daylight Time),941072.0,146_o_m_n_a.png,O,z,1517,8,1,2543.9000000059605,938528.099999994,7772,NNB,C,6
5,test,2,0.0,2-Back,1.0,m,Wed Mar 11 2026 12:31:03 GMT-0500 (Central Daylight Time),942988.0,031_y_m_n_a.png,O,m,897,9,1,1913.5999999940395,941074.400000006,7772,NNB,C,7
6,test,2,0.0,2-Back,1.0,m,Wed Mar 11 2026 12:31:03 GMT-0500 (Central Daylight Time),945387.1999999881,031_y_m_n_a.png,O,m,1372,10,1,2394.9000000059605,942992.2999999821,7772,NNB,C,8
7,test,2,0.0,2-Back,1.0,m,Wed Mar 11 2026 12:31:03 GMT-0500 (Central Daylight Time),947519.6999999881,006_m_f_n_a.png,O,m,1109,11,1,2130.0999999940395,945389.599999994,7772,NNB,C,9
8,test,2,0.0,2-Back,1.0,m,Wed Mar 11 2026 12:31:03 GMT-0500 (Central Daylight Time),950053.1999999881,028_y_f_n_a.png,O,m,1512,12,1,2528.0,947525.1999999881,7772,NNB,C,10
9,test,2,1.0,2-Back,1.0,z,Wed Mar 11 2026 12:31:03 GMT-0500 (Central Daylight Time),951934.7999999821,006_m_f_n_a.png,O,z,859,13,1,1879.3999999761581,950055.400000006,7772,NNB,C,11
10,test,2,0.0,2-Back,1.0,m,Wed Mar 11 2026 12:31:03 GMT-0500 (Central Daylight Time),953784.5,059_o_m_n_a.png,O,m,832,14,1,1841.7000000178814,951942.7999999821,7772,NNB,C,12
11,test,2,0.0,2-Back,1.0,m,Wed Mar 11 2026 12:31:03 GMT-0500 (Central Daylight Time),955933.6999999881,059_o_m_n_a.png,O,m,1128,15,1,2146.9000000059605,953786.7999999821,7772,NNB,C,13
12,test,2,0.0,2-Back,1.0,m,Wed Mar 11 2026 12:31:03 GMT-0500 (Central Daylight Time),958016.599999994,030_o_f_n_a.png,O,m,1061,16,1,2079.0999999940395,955937.5,7772,NNB,C,14
13,test,2,0.0,2-Back,1.0,m,Wed Mar 11 2026 12:31:03 GMT-0500 (Central Daylight Time),959982.5,092_m_m_n_a.png,O,m,943,17,1,1963.5,958019.0,7772,NNB,C,15
14,test,2,1.0,2-Back,1.0,z,Wed Mar 11 2026 12:31:03 GMT-0500 (Central Daylight Time),961831.900000006,030_o_f_n_a.png,O,z,825,18,1,1845.300000011921,959986.599999994,7772,NNB,C,16
0,test,3,1.0,2-Back,,,Wed Mar 11 2026 12:31:03 GMT-0500 (Central Daylight Time),961831.900000006,057_y_m_n_a.png,O,space,3568,1,1,1845.300000011921,959986.599999994,7772,NNB,C,0
0,test,3,1.0,2-Back,,,Wed Mar 11 2026 12:31:03 GMT-0500 (Central Daylight Time),961831.900000006,057_y_m_n_a.png,O,space,3568,2,1,1845.300000011921,959986.599999994,7772,NNB,C,0
1,test,3,0.0,2-Back,1.0,m,Wed Mar 11 2026 12:31:03 GMT-0500 (Central Daylight Time),972678.599999994,030_o_f_n_a.png,O,m,1101,3,1,2130.300000011921,970548.2999999821,7772,NNB,C,1
2,test,3,0.0,2-Back,1.0,m,Wed Mar 11 2026 12:31:03 GMT-0500 (Central Daylight Time),974578.0,082_m_m_n_a.png,O,m,880,4,1,1892.800000011921,972685.1999999881,7772,NNB,C,2
3,test,3,1.0,2-Back,1.0,z,Wed Mar 11 2026 12:31:03 GMT-0500 (Central Daylight Time),976093.900000006,030_o_f_n_a.png,O,z,494,5,1,1513.4000000059605,974580.5,7772,NNB,C,3
4,test,3,0.0,2-Back,1.0,m,Wed Mar 11 2026 12:31:03 GMT-0500 (Central Daylight Time),977893.599999994,031_y_m_n_a.png,O,m,777,6,1,1793.4000000059605,976100.1999999881,7772,NNB,C,4
5,test,3,0.0,2-Back,1.0,m,Wed Mar 11 2026 12:31:03 GMT-0500 (Central Daylight Time),980176.400000006,082_m_m_n_a.png,O,m,1259,7,1,2280.2000000178814,977896.1999999881,7772,NNB,C,5
6,test,3,1.0,2-Back,1.0,z,Wed Mar 11 2026 12:31:03 GMT-0500 (Central Daylight Time),981909.0,031_y_m_n_a.png,O,z,703,8,1,1728.2000000178814,980180.7999999821,7772,NNB,C,6
7,test,3,0.0,2-Back,1.0,m,Wed Mar 11 2026 12:31:03 GMT-0500 (Central Daylight Time),983841.900000006,028_y_f_n_a.png,O,m,906,9,1,1930.5,981911.400000006,7772,NNB,C,7
8,test,3,0.0,2-Back,1.0,m,Wed Mar 11 2026 12:31:03 GMT-0500 (Central Daylight Time),985624.1999999881,092_m_m_n_a.png,O,m,758,10,1,1778.2999999821186,983845.900000006,7772,NNB,C,8
9,test,3,1.0,2-Back,1.0,z,Wed Mar 11 2026 12:31:03 GMT-0500 (Central Daylight Time),987173.900000006,028_y_f_n_a.png,O,z,528,11,1,1547.300000011921,985626.599999994,7772,NNB,C,9
10,test,3,1.0,2-Back,1.0,z,Wed Mar 11 2026 12:31:03 GMT-0500 (Central Daylight Time),989306.5,092_m_m_n_a.png,O,z,1113,12,1,2128.5,987178.0,7772,NNB,C,10
11,test,3,0.0,2-Back,1.0,m,Wed Mar 11 2026 12:31:03 GMT-0500 (Central Daylight Time),991406.099999994,030_o_f_n_a.png,O,m,1078,13,1,2097.199999988079,989308.900000006,7772,NNB,C,11
12,test,3,0.0,2-Back,1.0,m,Wed Mar 11 2026 12:31:03 GMT-0500 (Central Daylight Time),993238.900000006,093_m_f_n_a.png,O,m,810,14,1,1826.4000000059605,991412.5,7772,NNB,C,12
13,test,3,0.0,2-Back,1.0,m,Wed Mar 11 2026 12:31:03 GMT-0500 (Central Daylight Time),995621.5,146_o_m_n_a.png,O,m,1361,15,1,2380.2000000178814,993241.2999999821,7772,NNB,C,13
14,test,3,1.0,2-Back,1.0,z,Wed Mar 11 2026 12:31:03 GMT-0500 (Central Daylight Time),997387.7999999821,093_m_f_n_a.png,O,z,738,16,1,1761.699999988079,995626.099999994,7772,NNB,C,14
15,test,3,0.0,2-Back,1.0,m,Wed Mar 11 2026 12:31:03 GMT-0500 (Central Daylight Time),999270.099999994,130_o_f_n_a.png,O,m,860,17,1,1879.9000000059605,997390.1999999881,7772,NNB,C,15
15,test,3,0.0,2-Back,0.0,m,Wed Mar 11 2026 12:31:03 GMT-0500 (Central Daylight Time),1001736.2999999821,130_o_f_n_a.png,O,z,1440,18,1,2461.0999999940395,999275.1999999881,7772,NNB,C,16
0,test,4,0.0,2-Back,,,Wed Mar 11 2026 12:31:03 GMT-0500 (Central Daylight Time),1001736.2999999821,059_o_m_n_a.png,O,space,5232,1,1,2461.0999999940395,999275.1999999881,7772,NNB,C,0
0,test,4,0.0,2-Back,,,Wed Mar 11 2026 12:31:03 GMT-0500 (Central Daylight Time),1001736.2999999821,098_y_f_n_a.png,O,space,5232,2,1,2461.0999999940395,999275.1999999881,7772,NNB,C,0
1,test,4,1.0,2-Back,1.0,z,Wed Mar 11 2026 12:31:03 GMT-0500 (Central Daylight Time),1014565.599999994,059_o_m_n_a.png,O,z,1345,3,1,2363.699999988079,1012201.900000006,7772,NNB,C,1
2,test,4,1.0,2-Back,1.0,z,Wed Mar 11 2026 12:31:03 GMT-0500 (Central Daylight Time),1016281.5,098_y_f_n_a.png,O,z,699,4,1,1708.2000000178814,1014573.2999999821,7772,NNB,C,2
3,test,4,0.0,2-Back,1.0,m,Wed Mar 11 2026 12:31:03 GMT-0500 (Central Daylight Time),1018248.7999999821,030_o_f_n_a.png,O,m,934,5,1,1965.199999988079,1016283.599999994,7772,NNB,C,3
4,test,4,0.0,2-Back,1.0,m,Wed Mar 11 2026 12:31:03 GMT-0500 (Central Daylight Time),1020346.900000006,030_o_f_n_a.png,O,m,1073,6,1,2092.600000023842,1018254.2999999821,7772,NNB,C,4
5,test,4,0.0,2-Back,1.0,m,Wed Mar 11 2026 12:31:03 GMT-0500 (Central Daylight Time),1022746.099999994,006_m_f_n_a.png,O,m,1381,7,1,2396.800000011921,1020349.2999999821,7772,NNB,C,5
6,test,4,0.0,2-Back,1.0,m,Wed Mar 11 2026 12:31:03 GMT-0500 (Central Daylight Time),1024728.7999999821,031_y_m_n_a.png,O,m,958,8,1,1976.199999988079,1022752.599999994,7772,NNB,C,6
7,test,4,1.0,2-Back,1.0,z,Wed Mar 11 2026 12:31:03 GMT-0500 (Central Daylight Time),1026328.400000006,006_m_f_n_a.png,O,z,575,9,1,1597.4000000059605,1024731.0,7772,NNB,C,7
8,test,4,0.0,2-Back,1.0,m,Wed Mar 11 2026 12:31:03 GMT-0500 (Central Daylight Time),1028378.099999994,092_m_m_n_a.png,O,m,1023,10,1,2045.199999988079,1026332.900000006,7772,NNB,C,8
9,test,4,0.0,2-Back,1.0,m,Wed Mar 11 2026 12:31:03 GMT-0500 (Central Daylight Time),1030660.2999999821,031_y_m_n_a.png,O,m,1254,11,1,2279.899999976158,1028380.400000006,7772,NNB,C,9
10,test,4,0.0,2-Back,1.0,m,Wed Mar 11 2026 12:31:03 GMT-0500 (Central Daylight Time),1032676.099999994,130_o_f_n_a.png,O,m,988,12,1,2011.699999988079,1030664.400000006,7772,NNB,C,10
11,test,4,0.0,2-Back,1.0,m,Wed Mar 11 2026 12:31:03 GMT-0500 (Central Daylight Time),1034725.7999999821,057_y_m_n_a.png,O,m,1028,13,1,2047.199999988079,1032678.599999994,7772,NNB,C,11
12,test,4,1.0,2-Back,1.0,z,Wed Mar 11 2026 12:31:03 GMT-0500 (Central Daylight Time),1036725.2999999821,130_o_f_n_a.png,O,z,978,14,1,1992.699999988079,1034732.599999994,7772,NNB,C,12
12,test,4,1.0,2-Back,0.0,z,Wed Mar 11 2026 12:31:03 GMT-0500 (Central Daylight Time),1038457.900000006,057_y_m_n_a.png,O,m,715,15,1,1730.2000000178814,1036727.6999999881,7772,NNB,C,13
13,test,4,0.0,2-Back,1.0,m,Wed Mar 11 2026 12:31:03 GMT-0500 (Central Daylight Time),1040374.1999999881,082_m_m_n_a.png,O,m,894,16,1,1911.5,1038462.6999999881,7772,NNB,C,14
14,test,4,0.0,2-Back,1.0,m,Wed Mar 11 2026 12:31:03 GMT-0500 (Central Daylight Time),1042306.6999999881,093_m_f_n_a.png,O,m,905,17,1,1930.0999999940395,1040376.599999994,7772,NNB,C,15
15,test,4,1.0,2-Back,1.0,z,Wed Mar 11 2026 12:31:03 GMT-0500 (Central Daylight Time),1044439.599999994,082_m_m_n_a.png,O,z,1110,18,1,2128.300000011921,1042311.2999999821,7772,NNB,C,16
0,test,5,1.0,2-Back,,,Wed Mar 11 2026 12:31:03 GMT-0500 (Central Daylight Time),1044439.599999994,057_y_m_n_a.png,O,space,5480,1,1,2128.300000011921,1042311.2999999821,7772,NNB,C,0
0,test,5,1.0,2-Back,,,Wed Mar 11 2026 12:31:03 GMT-0500 (Central Daylight Time),1044439.599999994,093_m_f_n_a.png,O,space,5480,2,1,2128.300000011921,1042311.2999999821,7772,NNB,C,0
1,test,5,1.0,2-Back,1.0,z,Wed Mar 11 2026 12:31:03 GMT-0500 (Central Daylight Time),1056585.7999999821,057_y_m_n_a.png,O,z,591,3,1,1613.699999988079,1054972.099999994,7772,NNB,C,1
2,test,5,1.0,2-Back,1.0,z,Wed Mar 11 2026 12:31:03 GMT-0500 (Central Daylight Time),1058568.2999999821,093_m_f_n_a.png,O,z,950,4,1,1973.8999999761581,1056594.400000006,7772,NNB,C,2
3,test,5,0.0,2-Back,1.0,m,Wed Mar 11 2026 12:31:03 GMT-0500 (Central Daylight Time),1060667.699999988,130_o_f_n_a.png,O,m,1079,5,1,2096.7999999821186,1058570.900000006,7772,NNB,C,3
4,test,5,0.0,2-Back,1.0,m,Wed Mar 11 2026 12:31:03 GMT-0500 (Central Daylight Time),1063467.099999994,057_y_m_n_a.png,O,m,1772,6,1,2794.4000000059605,1060672.699999988,7772,NNB,C,4
5,test,5,0.0,2-Back,1.0,m,Wed Mar 11 2026 12:31:03 GMT-0500 (Central Daylight Time),1065516.099999994,028_y_f_n_a.png,O,m,1028,7,1,2046.5,1063469.599999994,7772,NNB,C,5
5,test,5,0.0,2-Back,0.0,m,Wed Mar 11 2026 12:31:03 GMT-0500 (Central Daylight Time),1067299.0,130_o_f_n_a.png,O,z,764,8,1,1778.5999999940395,1065520.400000006,7772,NNB,C,6
6,test,5,1.0,2-Back,1.0,z,Wed Mar 11 2026 12:31:03 GMT-0500 (Central Daylight Time),1069264.7999999821,028_y_f_n_a.png,O,z,949,9,1,1963.2999999821186,1067301.5,7772,NNB,C,7
7,test,5,0.0,2-Back,1.0,m,Wed Mar 11 2026 12:31:03 GMT-0500 (Central Daylight Time),1071180.7999999821,146_o_m_n_a.png,O,m,894,10,1,1909.8999999761581,1069270.900000006,7772,NNB,C,8
8,test,5,0.0,2-Back,1.0,m,Wed Mar 11 2026 12:31:03 GMT-0500 (Central Daylight Time),1073513.5,006_m_f_n_a.png,O,m,1299,11,1,2330.0,1071183.5,7772,NNB,C,9
9,test,5,0.0,2-Back,1.0,m,Wed Mar 11 2026 12:31:03 GMT-0500 (Central Daylight Time),1075446.599999994,092_m_m_n_a.png,O,m,910,12,1,1928.5,1073518.099999994,7772,NNB,C,10
10,test,5,0.0,2-Back,1.0,m,Wed Mar 11 2026 12:31:03 GMT-0500 (Central Daylight Time),1078045.599999994,146_o_m_n_a.png,O,m,1577,13,1,2596.4000000059605,1075449.199999988,7772,NNB,C,11
11,test,5,1.0,2-Back,1.0,z,Wed Mar 11 2026 12:31:03 GMT-0500 (Central Daylight Time),1080061.699999988,092_m_m_n_a.png,O,z,994,14,1,2012.0,1078049.699999988,7772,NNB,C,12
12,test,5,0.0,2-Back,1.0,m,Wed Mar 11 2026 12:31:03 GMT-0500 (Central Daylight Time),1082078.900000006,098_y_f_n_a.png,O,m,986,15,1,2014.6000000238419,1080064.2999999821,7772,NNB,C,13
13,test,5,0.0,2-Back,1.0,m,Wed Mar 11 2026 12:31:03 GMT-0500 (Central Daylight Time),1083827.199999988,059_o_m_n_a.png,O,m,723,16,1,1744.5,1082082.699999988,7772,NNB,C,14
14,test,5,0.0,2-Back,1.0,m,Wed Mar 11 2026 12:31:03 GMT-0500 (Central Daylight Time),1085959.5,006_m_f_n_a.png,O,m,1108,17,1,2129.7000000178814,1083829.7999999821,7772,NNB,C,15
15,test,5,1.0,2-Back,1.0,z,Wed Mar 11 2026 12:31:03 GMT-0500 (Central Daylight Time),1088309.599999994,059_o_m_n_a.png,O,z,1319,18,1,2346.0,1085963.599999994,7772,NNB,C,16
