acc_sum,block,block_c,change,condition,correct,correct_response,datetime,endtime,face,project,response,response_time,row_sel,session_number,start_end,starttime,subject_id,task,task_vers,trial
0,prac,1,,1-Back,,,Tue Jan 13 2026 09:49:12 GMT-0600 (Central Standard Time),,012_o_f_d_a.png,O,space,24993,1,1,,,7734,VNB,C,0
1,prac,1,0.0,1-Back,1.0,m,Tue Jan 13 2026 09:49:12 GMT-0600 (Central Standard Time),284575.0,022_y_f_n_a.png,O,m,1081,2,1,1938.0,282637.0,7734,VNB,C,1
2,prac,1,0.0,1-Back,1.0,m,Tue Jan 13 2026 09:49:12 GMT-0600 (Central Standard Time),286424.7999999523,014_m_m_h_a.png,O,m,1004,3,1,1839.5,284585.2999999523,7734,VNB,C,2
3,prac,1,0.0,1-Back,1.0,m,Tue Jan 13 2026 09:49:12 GMT-0600 (Central Standard Time),288124.0,025_y_m_d_a.png,O,m,850,4,1,1689.5999999046326,286434.40000009537,7734,VNB,C,3
3,prac,1,0.0,1-Back,0.0,m,Tue Jan 13 2026 09:49:12 GMT-0600 (Central Standard Time),290255.2999999523,012_o_f_n_a.png,O,z,1268,5,1,2120.2000000476837,288135.09999990463,7734,VNB,C,4
4,prac,1,1.0,1-Back,1.0,z,Tue Jan 13 2026 09:49:12 GMT-0600 (Central Standard Time),291839.5,025_y_m_n_a.png,O,z,733,6,1,1577.2000000476837,290262.2999999523,7734,VNB,C,5
5,prac,1,0.0,1-Back,1.0,m,Tue Jan 13 2026 09:49:12 GMT-0600 (Central Standard Time),293438.59999990463,015_o_m_h_a.png,O,m,724,7,1,1588.0999999046326,291850.5,7734,VNB,C,6
5,prac,1,0.0,1-Back,0.0,m,Tue Jan 13 2026 09:49:12 GMT-0600 (Central Standard Time),295070.40000009537,019_m_f_d_a.png,O,z,767,8,1,1619.6000001430511,293450.7999999523,7734,VNB,C,7
6,prac,1,1.0,1-Back,1.0,z,Tue Jan 13 2026 09:49:12 GMT-0600 (Central Standard Time),296869.2999999523,022_y_f_d_a.png,O,z,937,9,1,1787.3999998569489,295081.90000009537,7734,VNB,C,8
7,prac,1,0.0,1-Back,1.0,m,Tue Jan 13 2026 09:49:12 GMT-0600 (Central Standard Time),298587.7000000477,014_m_m_n_a.png,O,m,860,10,1,1711.7999999523163,296875.90000009537,7734,VNB,C,9
8,prac,1,0.0,1-Back,1.0,m,Tue Jan 13 2026 09:49:12 GMT-0600 (Central Standard Time),300338.40000009537,012_o_f_h_a.png,O,m,880,11,1,1741.3000001907349,298597.09999990463,7734,VNB,C,10
8,prac,1,0.0,1-Back,0.0,m,Tue Jan 13 2026 09:49:12 GMT-0600 (Central Standard Time),302051.7000000477,025_y_m_d_a.png,O,z,862,12,1,1701.7999999523163,300349.90000009537,7734,VNB,C,11
0,prac,2,0.0,1-Back,,,Tue Jan 13 2026 09:49:12 GMT-0600 (Central Standard Time),302051.7000000477,012_o_f_d_a.png,O,a,7604,1,1,1701.7999999523163,300349.90000009537,7734,VNB,C,0
0,prac,2,0.0,1-Back,0.0,m,Tue Jan 13 2026 09:49:12 GMT-0600 (Central Standard Time),315580.90000009537,022_y_f_n_a.png,O,None,2014,2,1,2871.4000000953674,312709.5,7734,VNB,C,1
1,prac,2,0.0,1-Back,1.0,m,Tue Jan 13 2026 09:49:12 GMT-0600 (Central Standard Time),317998.7999999523,014_m_m_h_a.png,O,m,1569,3,1,2406.7000000476837,315592.09999990463,7734,VNB,C,2
1,prac,2,0.0,1-Back,0.0,m,Tue Jan 13 2026 09:49:12 GMT-0600 (Central Standard Time),319747.0,025_y_m_d_a.png,O,z,960,4,1,1740.0,318007.0,7734,VNB,C,3
2,prac,2,0.0,1-Back,1.0,m,Tue Jan 13 2026 09:49:12 GMT-0600 (Central Standard Time),321662.5,012_o_f_n_a.png,O,m,1047,5,1,1901.5999999046326,319760.90000009537,7734,VNB,C,4
2,prac,2,1.0,1-Back,0.0,z,Tue Jan 13 2026 09:49:12 GMT-0600 (Central Standard Time),323311.59999990463,025_y_m_n_a.png,O,m,822,6,1,1640.3999998569489,321671.2000000477,7734,VNB,C,5
2,prac,2,0.0,1-Back,0.0,m,Tue Jan 13 2026 09:49:12 GMT-0600 (Central Standard Time),325694.7000000477,015_o_m_h_a.png,O,z,1513,7,1,2373.2000000476837,323321.5,7734,VNB,C,6
2,prac,2,0.0,1-Back,0.0,m,Tue Jan 13 2026 09:49:12 GMT-0600 (Central Standard Time),327463.40000009537,019_m_f_d_a.png,O,z,883,8,1,1755.2000000476837,325708.2000000477,7734,VNB,C,7
3,prac,2,1.0,1-Back,1.0,z,Tue Jan 13 2026 09:49:12 GMT-0600 (Central Standard Time),329377.09999990463,022_y_f_d_a.png,O,z,1047,9,1,1901.5,327475.59999990463,7734,VNB,C,8
4,prac,2,0.0,1-Back,1.0,m,Tue Jan 13 2026 09:49:12 GMT-0600 (Central Standard Time),331064.40000009537,014_m_m_n_a.png,O,m,844,10,1,1672.7000000476837,329391.7000000477,7734,VNB,C,9
4,prac,2,0.0,1-Back,0.0,m,Tue Jan 13 2026 09:49:12 GMT-0600 (Central Standard Time),332841.90000009537,012_o_f_h_a.png,O,z,900,11,1,1767.4000000953674,331074.5,7734,VNB,C,10
5,prac,2,0.0,1-Back,1.0,m,Tue Jan 13 2026 09:49:12 GMT-0600 (Central Standard Time),334958.5,025_y_m_d_a.png,O,m,1269,12,1,2104.7000000476837,332853.7999999523,7734,VNB,C,11
0,prac,3,0.0,1-Back,,,Tue Jan 13 2026 09:49:12 GMT-0600 (Central Standard Time),334958.5,012_o_f_d_a.png,O,a,7149,1,1,2104.7000000476837,332853.7999999523,7734,VNB,C,0
1,prac,3,0.0,1-Back,1.0,m,Tue Jan 13 2026 09:49:12 GMT-0600 (Central Standard Time),347921.90000009537,022_y_f_n_a.png,O,m,1882,2,1,2755.2000000476837,345166.7000000477,7734,VNB,C,1
1,prac,3,0.0,1-Back,0.0,m,Tue Jan 13 2026 09:49:12 GMT-0600 (Central Standard Time),349953.09999990463,014_m_m_h_a.png,O,z,1170,3,1,2019.5999999046326,347933.5,7734,VNB,C,2
2,prac,3,0.0,1-Back,1.0,m,Tue Jan 13 2026 09:49:12 GMT-0600 (Central Standard Time),352319.0,025_y_m_d_a.png,O,m,1579,4,1,2354.9000000953674,349964.09999990463,7734,VNB,C,3
2,prac,3,0.0,1-Back,0.0,m,Tue Jan 13 2026 09:49:12 GMT-0600 (Central Standard Time),354368.2000000477,012_o_f_n_a.png,O,z,1182,5,1,2039.0,352329.2000000477,7734,VNB,C,4
2,prac,3,1.0,1-Back,0.0,z,Tue Jan 13 2026 09:49:12 GMT-0600 (Central Standard Time),357234.0,025_y_m_n_a.png,O,None,2017,6,1,2854.7000000476837,354379.2999999523,7734,VNB,C,5
3,prac,3,0.0,1-Back,1.0,m,Tue Jan 13 2026 09:49:12 GMT-0600 (Central Standard Time),359949.7000000477,015_o_m_h_a.png,O,m,1825,7,1,2696.2000000476837,357253.5,7734,VNB,C,6
3,prac,3,0.0,1-Back,0.0,m,Tue Jan 13 2026 09:49:12 GMT-0600 (Central Standard Time),361751.59999990463,019_m_f_d_a.png,O,z,927,8,1,1792.8999998569489,359958.7000000477,7734,VNB,C,7
3,prac,3,1.0,1-Back,0.0,z,Tue Jan 13 2026 09:49:12 GMT-0600 (Central Standard Time),364616.0,022_y_f_d_a.png,O,None,2002,9,1,2852.0,361764.0,7734,VNB,C,8
4,prac,3,0.0,1-Back,1.0,m,Tue Jan 13 2026 09:49:12 GMT-0600 (Central Standard Time),366632.2000000477,014_m_m_n_a.png,O,m,1172,10,1,2002.1000001430511,364630.09999990463,7734,VNB,C,9
5,prac,3,0.0,1-Back,1.0,m,Tue Jan 13 2026 09:49:12 GMT-0600 (Central Standard Time),368448.0,012_o_f_h_a.png,O,m,949,11,1,1807.2000000476837,366640.7999999523,7734,VNB,C,10
5,prac,3,0.0,1-Back,0.0,m,Tue Jan 13 2026 09:49:12 GMT-0600 (Central Standard Time),370131.59999990463,025_y_m_d_a.png,O,z,843,12,1,1674.6999998092651,368456.90000009537,7734,VNB,C,11
0,test,1,0.0,1-Back,,,Tue Jan 13 2026 09:49:12 GMT-0600 (Central Standard Time),370131.59999990463,022_y_f_d_a.png,O,space,9287,1,1,1674.6999998092651,368456.90000009537,7734,VNB,C,0
0,test,1,0.0,1-Back,0.0,m,Tue Jan 13 2026 09:49:12 GMT-0600 (Central Standard Time),401089.09999990463,019_m_f_n_a.png,O,z,919,2,1,1929.0,399160.09999990463,7734,VNB,C,1
0,test,1,0.0,1-Back,0.0,m,Tue Jan 13 2026 09:49:12 GMT-0600 (Central Standard Time),404119.7000000477,015_o_m_h_a.png,O,None,2015,3,1,3019.600000143051,401100.09999990463,7734,VNB,C,2
0,test,1,1.0,1-Back,0.0,z,Tue Jan 13 2026 09:49:12 GMT-0600 (Central Standard Time),406085.90000009537,014_m_m_h_a.png,O,m,943,4,1,1958.9000000953674,404127.0,7734,VNB,C,3
1,test,1,0.0,1-Back,1.0,m,Tue Jan 13 2026 09:49:12 GMT-0600 (Central Standard Time),408217.5,012_o_f_n_a.png,O,m,1105,5,1,2127.0999999046326,406090.40000009537,7734,VNB,C,4
2,test,1,0.0,1-Back,1.0,m,Tue Jan 13 2026 09:49:12 GMT-0600 (Central Standard Time),410399.90000009537,025_y_m_d_a.png,O,m,1155,6,1,2177.0,408222.90000009537,7734,VNB,C,5
3,test,1,1.0,1-Back,1.0,z,Tue Jan 13 2026 09:49:12 GMT-0600 (Central Standard Time),412417.7000000477,019_m_f_d_a.png,O,z,988,7,1,2011.7999999523163,410405.90000009537,7734,VNB,C,6
4,test,1,0.0,1-Back,1.0,m,Tue Jan 13 2026 09:49:12 GMT-0600 (Central Standard Time),414265.7000000477,022_y_f_h_a.png,O,m,830,8,1,1841.6000001430511,412424.09999990463,7734,VNB,C,7
5,test,1,0.0,1-Back,1.0,m,Tue Jan 13 2026 09:49:12 GMT-0600 (Central Standard Time),416265.90000009537,015_o_m_n_a.png,O,m,969,9,1,1994.5,414271.40000009537,7734,VNB,C,8
6,test,1,0.0,1-Back,1.0,m,Tue Jan 13 2026 09:49:12 GMT-0600 (Central Standard Time),418065.2000000477,025_y_m_h_a.png,O,m,772,10,1,1788.7999999523163,416276.40000009537,7734,VNB,C,9
7,test,1,0.0,1-Back,1.0,m,Tue Jan 13 2026 09:49:12 GMT-0600 (Central Standard Time),419831.0,015_o_m_d_a.png,O,m,734,11,1,1755.5,418075.5,7734,VNB,C,10
8,test,1,1.0,1-Back,1.0,z,Tue Jan 13 2026 09:49:12 GMT-0600 (Central Standard Time),421646.2000000477,012_o_f_d_a.png,O,z,789,12,1,1807.2999999523163,419838.90000009537,7734,VNB,C,11
9,test,1,0.0,1-Back,1.0,m,Tue Jan 13 2026 09:49:12 GMT-0600 (Central Standard Time),423363.0,014_m_m_n_a.png,O,m,695,13,1,1711.4000000953674,421651.59999990463,7734,VNB,C,12
10,test,1,1.0,1-Back,1.0,z,Tue Jan 13 2026 09:49:12 GMT-0600 (Central Standard Time),425147.2999999523,022_y_f_n_a.png,O,z,765,14,1,1777.5999999046326,423369.7000000477,7734,VNB,C,13
11,test,1,0.0,1-Back,1.0,m,Tue Jan 13 2026 09:49:12 GMT-0600 (Central Standard Time),427044.2999999523,019_m_f_h_a.png,O,m,877,15,1,1886.0999999046326,425158.2000000477,7734,VNB,C,14
11,test,1,0.0,1-Back,0.0,m,Tue Jan 13 2026 09:49:12 GMT-0600 (Central Standard Time),428844.59999990463,014_m_m_d_a.png,O,z,770,16,1,1794.5,427050.09999990463,7734,VNB,C,15
12,test,1,0.0,1-Back,1.0,m,Tue Jan 13 2026 09:49:12 GMT-0600 (Central Standard Time),430678.7999999523,025_y_m_n_a.png,O,m,808,17,1,1826.7999999523163,428852.0,7734,VNB,C,16
12,test,1,0.0,1-Back,0.0,m,Tue Jan 13 2026 09:49:12 GMT-0600 (Central Standard Time),432409.90000009537,012_o_f_h_a.png,O,z,705,18,1,1724.5,430685.40000009537,7734,VNB,C,17
0,test,2,0.0,1-Back,,,Tue Jan 13 2026 09:49:12 GMT-0600 (Central Standard Time),432409.90000009537,025_y_m_n_a.png,O,space,2981,1,1,1724.5,430685.40000009537,7734,VNB,C,0
1,test,2,0.0,1-Back,1.0,m,Tue Jan 13 2026 09:49:12 GMT-0600 (Central Standard Time),439924.40000009537,022_y_f_h_a.png,O,m,1492,2,1,2498.600000143051,437425.7999999523,7734,VNB,C,1
1,test,2,1.0,1-Back,0.0,m,Tue Jan 13 2026 09:49:12 GMT-0600 (Central Standard Time),442140.09999990463,015_o_m_n_a.png,O,z,1185,3,1,2210.5,439929.59999990463,7734,VNB,C,2
2,test,2,0.0,1-Back,1.0,m,Tue Jan 13 2026 09:49:12 GMT-0600 (Central Standard Time),444106.40000009537,019_m_f_d_a.png,O,m,937,4,1,1958.9000000953674,442147.5,7734,VNB,C,3
2,test,2,0.0,1-Back,0.0,z,Tue Jan 13 2026 09:49:12 GMT-0600 (Central Standard Time),446173.5,014_m_m_d_a.png,O,m,1045,5,1,2060.4000000953674,444113.09999990463,7734,VNB,C,4
2,test,2,0.0,1-Back,0.0,m,Tue Jan 13 2026 09:49:12 GMT-0600 (Central Standard Time),448005.2000000477,025_y_m_h_a.png,O,z,801,6,1,1822.0,446183.2000000477,7734,VNB,C,5
3,test,2,1.0,1-Back,1.0,z,Tue Jan 13 2026 09:49:12 GMT-0600 (Central Standard Time),449721.40000009537,012_o_f_h_a.png,O,z,697,7,1,1710.8000001907349,448010.59999990463,7734,VNB,C,6
4,test,2,0.0,1-Back,1.0,m,Tue Jan 13 2026 09:49:12 GMT-0600 (Central Standard Time),451554.09999990463,019_m_f_n_a.png,O,m,782,8,1,1816.6999998092651,449737.40000009537,7734,VNB,C,7
4,test,2,0.0,1-Back,0.0,m,Tue Jan 13 2026 09:49:12 GMT-0600 (Central Standard Time),453288.2999999523,022_y_f_d_a.png,O,z,717,9,1,1727.2000000476837,451561.09999990463,7734,VNB,C,8
5,test,2,0.0,1-Back,1.0,m,Tue Jan 13 2026 09:49:12 GMT-0600 (Central Standard Time),455686.7999999523,014_m_m_n_a.png,O,m,1368,10,1,2389.5999999046326,453297.2000000477,7734,VNB,C,9
6,test,2,1.0,1-Back,1.0,m,Tue Jan 13 2026 09:49:12 GMT-0600 (Central Standard Time),457703.5,019_m_f_h_a.png,O,m,1001,11,1,2011.0,455692.5,7734,VNB,C,10
7,test,2,0.0,1-Back,1.0,z,Tue Jan 13 2026 09:49:12 GMT-0600 (Central Standard Time),459685.09999990463,015_o_m_h_a.png,O,z,960,12,1,1977.0,457708.09999990463,7734,VNB,C,11
8,test,2,0.0,1-Back,1.0,m,Tue Jan 13 2026 09:49:12 GMT-0600 (Central Standard Time),461768.59999990463,025_y_m_d_a.png,O,m,1059,13,1,2073.899999856949,459694.7000000477,7734,VNB,C,12
9,test,2,0.0,1-Back,1.0,m,Tue Jan 13 2026 09:49:12 GMT-0600 (Central Standard Time),463967.09999990463,012_o_f_n_a.png,O,m,1166,14,1,2194.899999856949,461772.2000000477,7734,VNB,C,13
10,test,2,0.0,1-Back,1.0,z,Tue Jan 13 2026 09:49:12 GMT-0600 (Central Standard Time),465799.7999999523,022_y_f_n_a.png,O,z,809,15,1,1823.5,463976.2999999523,7734,VNB,C,14
11,test,2,1.0,1-Back,1.0,m,Tue Jan 13 2026 09:49:12 GMT-0600 (Central Standard Time),467768.90000009537,014_m_m_h_a.png,O,m,952,16,1,1961.1000001430511,465807.7999999523,7734,VNB,C,15
11,test,2,0.0,1-Back,0.0,m,Tue Jan 13 2026 09:49:12 GMT-0600 (Central Standard Time),469614.40000009537,012_o_f_d_a.png,O,z,825,17,1,1840.1000001430511,467774.2999999523,7734,VNB,C,16
12,test,2,1.0,1-Back,1.0,z,Tue Jan 13 2026 09:49:12 GMT-0600 (Central Standard Time),471330.7999999523,015_o_m_d_a.png,O,z,695,18,1,1707.7000000476837,469623.09999990463,7734,VNB,C,17
0,test,3,1.0,1-Back,,,Tue Jan 13 2026 09:49:12 GMT-0600 (Central Standard Time),471330.7999999523,012_o_f_h_a.png,O,space,4092,1,1,1707.7000000476837,469623.09999990463,7734,VNB,C,0
0,test,3,0.0,1-Back,0.0,m,Tue Jan 13 2026 09:49:12 GMT-0600 (Central Standard Time),480027.90000009537,019_m_f_d_a.png,O,z,1460,2,1,2475.7000000476837,477552.2000000477,7734,VNB,C,1
1,test,3,1.0,1-Back,1.0,m,Tue Jan 13 2026 09:49:12 GMT-0600 (Central Standard Time),481994.0,014_m_m_n_a.png,O,m,947,3,1,1960.5999999046326,480033.40000009537,7734,VNB,C,2
1,test,3,0.0,1-Back,0.0,z,Tue Jan 13 2026 09:49:12 GMT-0600 (Central Standard Time),484564.09999990463,012_o_f_n_a.png,O,m,1540,4,1,2565.0,481999.09999990463,7734,VNB,C,3
2,test,3,1.0,1-Back,1.0,m,Tue Jan 13 2026 09:49:12 GMT-0600 (Central Standard Time),486342.7999999523,015_o_m_d_a.png,O,m,758,5,1,1774.0999999046326,484568.7000000477,7734,VNB,C,4
2,test,3,0.0,1-Back,0.0,m,Tue Jan 13 2026 09:49:12 GMT-0600 (Central Standard Time),488076.7999999523,022_y_f_h_a.png,O,z,714,6,1,1727.7000000476837,486349.09999990463,7734,VNB,C,5
3,test,3,0.0,1-Back,1.0,z,Tue Jan 13 2026 09:49:12 GMT-0600 (Central Standard Time),489708.7000000477,025_y_m_h_a.png,O,z,602,7,1,1624.2999999523163,488084.40000009537,7734,VNB,C,6
4,test,3,0.0,1-Back,1.0,m,Tue Jan 13 2026 09:49:12 GMT-0600 (Central Standard Time),491942.0,019_m_f_n_a.png,O,m,1198,8,1,2226.2000000476837,489715.7999999523,7734,VNB,C,7
4,test,3,0.0,1-Back,0.0,m,Tue Jan 13 2026 09:49:12 GMT-0600 (Central Standard Time),493858.0,022_y_f_d_a.png,O,z,900,9,1,1908.0999999046326,491949.90000009537,7734,VNB,C,8
5,test,3,1.0,1-Back,1.0,m,Tue Jan 13 2026 09:49:12 GMT-0600 (Central Standard Time),496107.5,015_o_m_n_a.png,O,m,1230,10,1,2242.9000000953674,493864.59999990463,7734,VNB,C,9
6,test,3,0.0,1-Back,1.0,m,Tue Jan 13 2026 09:49:12 GMT-0600 (Central Standard Time),498306.2999999523,014_m_m_h_a.png,O,m,1180,11,1,2189.7999999523163,496116.5,7734,VNB,C,10
6,test,3,0.0,1-Back,0.0,z,Tue Jan 13 2026 09:49:12 GMT-0600 (Central Standard Time),500155.5,019_m_f_h_a.png,O,m,828,12,1,1843.4000000953674,498312.09999990463,7734,VNB,C,11
7,test,3,1.0,1-Back,1.0,m,Tue Jan 13 2026 09:49:12 GMT-0600 (Central Standard Time),502304.7000000477,012_o_f_d_a.png,O,m,1123,13,1,2143.9000000953674,500160.7999999523,7734,VNB,C,12
7,test,3,0.0,1-Back,0.0,z,Tue Jan 13 2026 09:49:12 GMT-0600 (Central Standard Time),504488.0,014_m_m_d_a.png,O,m,1167,14,1,2175.0999999046326,502312.90000009537,7734,VNB,C,13
8,test,3,0.0,1-Back,1.0,m,Tue Jan 13 2026 09:49:12 GMT-0600 (Central Standard Time),506671.0,025_y_m_n_a.png,O,m,1151,15,1,2176.5,504494.5,7734,VNB,C,14
9,test,3,1.0,1-Back,1.0,m,Tue Jan 13 2026 09:49:12 GMT-0600 (Central Standard Time),508887.7999999523,015_o_m_h_a.png,O,m,1195,16,1,2211.2999999523163,506676.5,7734,VNB,C,15
9,test,3,0.0,1-Back,0.0,m,Tue Jan 13 2026 09:49:12 GMT-0600 (Central Standard Time),510834.2000000477,025_y_m_d_a.png,O,z,928,17,1,1937.4000000953674,508896.7999999523,7734,VNB,C,16
9,test,3,1.0,1-Back,0.0,m,Tue Jan 13 2026 09:49:12 GMT-0600 (Central Standard Time),512717.90000009537,022_y_f_n_a.png,O,z,852,18,1,1881.0,510836.90000009537,7734,VNB,C,17
0,test,4,1.0,1-Back,,,Tue Jan 13 2026 09:49:12 GMT-0600 (Central Standard Time),512717.90000009537,014_m_m_d_a.png,O,space,3145,1,1,1881.0,510836.90000009537,7734,VNB,C,0
1,test,4,0.0,1-Back,1.0,z,Tue Jan 13 2026 09:49:12 GMT-0600 (Central Standard Time),520232.5,015_o_m_d_a.png,O,z,1324,2,1,2338.2999999523163,517894.2000000477,7734,VNB,C,1
2,test,4,0.0,1-Back,1.0,m,Tue Jan 13 2026 09:49:12 GMT-0600 (Central Standard Time),522249.09999990463,025_y_m_h_a.png,O,m,998,3,1,2007.5999999046326,520241.5,7734,VNB,C,2
3,test,4,0.0,1-Back,1.0,m,Tue Jan 13 2026 09:49:12 GMT-0600 (Central Standard Time),524214.7999999523,019_m_f_n_a.png,O,m,945,4,1,1960.3999998569489,522254.40000009537,7734,VNB,C,3
4,test,4,1.0,1-Back,1.0,m,Tue Jan 13 2026 09:49:12 GMT-0600 (Central Standard Time),526080.7000000477,012_o_f_h_a.png,O,m,840,5,1,1858.0,524222.7000000477,7734,VNB,C,4
5,test,4,0.0,1-Back,1.0,m,Tue Jan 13 2026 09:49:12 GMT-0600 (Central Standard Time),527862.2000000477,014_m_m_n_a.png,O,m,764,6,1,1774.5,526087.7000000477,7734,VNB,C,5
5,test,4,0.0,1-Back,0.0,m,Tue Jan 13 2026 09:49:12 GMT-0600 (Central Standard Time),529514.7000000477,025_y_m_d_a.png,O,z,623,7,1,1647.1000001430511,527867.5999999046,7734,VNB,C,6
6,test,4,1.0,1-Back,1.0,z,Tue Jan 13 2026 09:49:12 GMT-0600 (Central Standard Time),531080.0999999046,022_y_f_d_a.png,O,z,535,8,1,1556.0,529524.0999999046,7734,VNB,C,7
7,test,4,0.0,1-Back,1.0,m,Tue Jan 13 2026 09:49:12 GMT-0600 (Central Standard Time),532780.4000000954,019_m_f_h_a.png,O,m,678,9,1,1692.5,531087.9000000954,7734,VNB,C,8
8,test,4,0.0,1-Back,1.0,z,Tue Jan 13 2026 09:49:12 GMT-0600 (Central Standard Time),534693.7999999523,015_o_m_h_a.png,O,z,893,10,1,1906.3999998569489,532787.4000000954,7734,VNB,C,9
9,test,4,1.0,1-Back,1.0,m,Tue Jan 13 2026 09:49:12 GMT-0600 (Central Standard Time),536493.7000000477,012_o_f_n_a.png,O,m,769,11,1,1786.9000000953674,534706.7999999523,7734,VNB,C,10
9,test,4,0.0,1-Back,0.0,m,Tue Jan 13 2026 09:49:12 GMT-0600 (Central Standard Time),538492.9000000954,019_m_f_d_a.png,O,z,969,12,1,1991.4000000953674,536501.5,7734,VNB,C,11
9,test,4,0.0,1-Back,0.0,m,Tue Jan 13 2026 09:49:12 GMT-0600 (Central Standard Time),540576.2000000477,022_y_f_n_a.png,O,z,1050,13,1,2073.7000000476837,538502.5,7734,VNB,C,12
9,test,4,0.0,1-Back,0.0,m,Tue Jan 13 2026 09:49:12 GMT-0600 (Central Standard Time),542292.4000000954,012_o_f_d_a.png,O,z,694,14,1,1710.7000000476837,540581.7000000477,7734,VNB,C,13
10,test,4,0.0,1-Back,1.0,m,Tue Jan 13 2026 09:49:12 GMT-0600 (Central Standard Time),543958.0999999046,022_y_f_h_a.png,O,m,635,15,1,1654.2999999523163,542303.7999999523,7734,VNB,C,14
11,test,4,1.0,1-Back,1.0,z,Tue Jan 13 2026 09:49:12 GMT-0600 (Central Standard Time),546009.5999999046,014_m_m_h_a.png,O,z,1023,16,1,2042.5,543967.0999999046,7734,VNB,C,15
12,test,4,0.0,1-Back,1.0,m,Tue Jan 13 2026 09:49:12 GMT-0600 (Central Standard Time),547723.5,015_o_m_n_a.png,O,m,690,17,1,1710.5,546013.0,7734,VNB,C,16
13,test,4,1.0,1-Back,1.0,z,Tue Jan 13 2026 09:49:12 GMT-0600 (Central Standard Time),549506.5999999046,025_y_m_n_a.png,O,z,763,18,1,1773.0999999046326,547733.5,7734,VNB,C,17
0,test,5,1.0,1-Back,,,Tue Jan 13 2026 09:49:12 GMT-0600 (Central Standard Time),549506.5999999046,015_o_m_n_a.png,O,space,2988,1,1,1773.0999999046326,547733.5,7734,VNB,C,0
0,test,5,1.0,1-Back,0.0,m,Tue Jan 13 2026 09:49:12 GMT-0600 (Central Standard Time),556220.7999999523,012_o_f_h_a.png,O,z,669,2,1,1689.7999999523163,554531.0,7734,VNB,C,1
1,test,5,0.0,1-Back,1.0,m,Tue Jan 13 2026 09:49:12 GMT-0600 (Central Standard Time),558104.0999999046,025_y_m_d_a.png,O,m,868,3,1,1876.0,556228.0999999046,7734,VNB,C,2
1,test,5,0.0,1-Back,0.0,z,Tue Jan 13 2026 09:49:12 GMT-0600 (Central Standard Time),560536.4000000954,015_o_m_d_a.png,O,m,1416,4,1,2422.0,558114.4000000954,7734,VNB,C,3
2,test,5,0.0,1-Back,1.0,m,Tue Jan 13 2026 09:49:12 GMT-0600 (Central Standard Time),562518.2999999523,019_m_f_h_a.png,O,m,950,5,1,1974.5,560543.7999999523,7734,VNB,C,4
2,test,5,0.0,1-Back,0.0,m,Tue Jan 13 2026 09:49:12 GMT-0600 (Central Standard Time),564502.0,022_y_f_n_a.png,O,z,951,6,1,1974.0999999046326,562527.9000000954,7734,VNB,C,5
3,test,5,1.0,1-Back,1.0,z,Tue Jan 13 2026 09:49:12 GMT-0600 (Central Standard Time),566267.9000000954,012_o_f_n_a.png,O,z,744,7,1,1756.3000001907349,564511.5999999046,7734,VNB,C,6
4,test,5,0.0,1-Back,1.0,m,Tue Jan 13 2026 09:49:12 GMT-0600 (Central Standard Time),568084.0999999046,019_m_f_d_a.png,O,m,795,8,1,1807.0999999046326,566277.0,7734,VNB,C,7
4,test,5,0.0,1-Back,0.0,m,Tue Jan 13 2026 09:49:12 GMT-0600 (Central Standard Time),569932.5,025_y_m_h_a.png,O,z,817,9,1,1843.0,568089.5,7734,VNB,C,8
4,test,5,0.0,1-Back,0.0,m,Tue Jan 13 2026 09:49:12 GMT-0600 (Central Standard Time),571765.9000000954,022_y_f_d_a.png,O,z,801,10,1,1822.8000001907349,569943.0999999046,7734,VNB,C,9
5,test,5,0.0,1-Back,1.0,m,Tue Jan 13 2026 09:49:12 GMT-0600 (Central Standard Time),573715.5999999046,014_m_m_n_a.png,O,m,921,11,1,1942.5,571773.0999999046,7734,VNB,C,10
5,test,5,1.0,1-Back,0.0,z,Tue Jan 13 2026 09:49:12 GMT-0600 (Central Standard Time),575514.9000000954,019_m_f_n_a.png,O,m,769,12,1,1792.9000000953674,573722.0,7734,VNB,C,11
6,test,5,0.0,1-Back,1.0,m,Tue Jan 13 2026 09:49:12 GMT-0600 (Central Standard Time),577414.0999999046,015_o_m_h_a.png,O,m,867,13,1,1887.5999999046326,575526.5,7734,VNB,C,12
6,test,5,0.0,1-Back,0.0,z,Tue Jan 13 2026 09:49:12 GMT-0600 (Central Standard Time),579230.4000000954,014_m_m_h_a.png,O,m,784,14,1,1806.4000000953674,577424.0,7734,VNB,C,13
7,test,5,1.0,1-Back,1.0,m,Tue Jan 13 2026 09:49:12 GMT-0600 (Central Standard Time),582245.7999999523,012_o_f_d_a.png,O,m,1993,15,1,3005.7999999523163,579240.0,7734,VNB,C,14
7,test,5,0.0,1-Back,0.0,m,Tue Jan 13 2026 09:49:12 GMT-0600 (Central Standard Time),584095.5999999046,025_y_m_n_a.png,O,z,827,16,1,1844.0,582251.5999999046,7734,VNB,C,15
7,test,5,0.0,1-Back,0.0,m,Tue Jan 13 2026 09:49:12 GMT-0600 (Central Standard Time),585845.2000000477,022_y_f_h_a.png,O,z,711,17,1,1734.7000000476837,584110.5,7734,VNB,C,16
8,test,5,0.0,1-Back,1.0,m,Tue Jan 13 2026 09:49:12 GMT-0600 (Central Standard Time),587563.5999999046,014_m_m_d_a.png,O,m,701,18,1,1710.2999999523163,585853.2999999523,7734,VNB,C,17
0,prac,1,0.0,2-Back,,,Tue Jan 13 2026 09:49:12 GMT-0600 (Central Standard Time),587563.5999999046,019_m_f_n_a.png,O,space,8093,1,1,1710.2999999523163,585853.2999999523,7734,VNB,C,0
0,prac,1,0.0,2-Back,,,Tue Jan 13 2026 09:49:12 GMT-0600 (Central Standard Time),587563.5999999046,012_o_f_h_a.png,O,space,8093,2,1,1710.2999999523163,585853.2999999523,7734,VNB,C,0
1,prac,1,0.0,2-Back,1.0,m,Tue Jan 13 2026 09:49:12 GMT-0600 (Central Standard Time),701541.7999999523,015_o_m_d_a.png,O,m,1233,3,1,2083.7999999523163,699458.0,7734,VNB,C,1
1,prac,1,1.0,2-Back,0.0,z,Tue Jan 13 2026 09:49:12 GMT-0600 (Central Standard Time),703456.7999999523,014_m_m_h_a.png,O,m,1065,4,1,1903.7000000476837,701553.0999999046,7734,VNB,C,2
2,prac,1,0.0,2-Back,1.0,m,Tue Jan 13 2026 09:49:12 GMT-0600 (Central Standard Time),705423.9000000954,022_y_f_n_a.png,O,m,1109,5,1,1954.0,703469.9000000954,7734,VNB,C,3
2,prac,1,1.0,2-Back,0.0,z,Tue Jan 13 2026 09:49:12 GMT-0600 (Central Standard Time),707488.5999999046,015_o_m_h_a.png,O,m,1185,6,1,2052.0999999046326,705436.5,7734,VNB,C,4
3,prac,1,1.0,2-Back,1.0,z,Tue Jan 13 2026 09:49:12 GMT-0600 (Central Standard Time),709806.2999999523,025_y_m_n_a.png,O,z,1473,7,1,2306.7000000476837,707499.5999999046,7734,VNB,C,5
4,prac,1,0.0,2-Back,1.0,m,Tue Jan 13 2026 09:49:12 GMT-0600 (Central Standard Time),711822.7000000477,019_m_f_d_a.png,O,m,1138,8,1,1999.9000000953674,709822.7999999523,7734,VNB,C,6
5,prac,1,0.0,2-Back,1.0,m,Tue Jan 13 2026 09:49:12 GMT-0600 (Central Standard Time),713920.7999999523,012_o_f_d_a.png,O,m,1240,9,1,2084.399999856949,711836.4000000954,7734,VNB,C,7
5,prac,1,0.0,2-Back,0.0,m,Tue Jan 13 2026 09:49:12 GMT-0600 (Central Standard Time),715603.7000000477,014_m_m_h_a.png,O,z,891,10,1,1671.2999999523163,713932.4000000954,7734,VNB,C,8
6,prac,1,1.0,2-Back,1.0,z,Tue Jan 13 2026 09:49:12 GMT-0600 (Central Standard Time),717403.9000000954,022_y_f_d_a.png,O,z,943,11,1,1792.4000000953674,715611.5,7734,VNB,C,9
7,prac,1,0.0,2-Back,1.0,m,Tue Jan 13 2026 09:49:12 GMT-0600 (Central Standard Time),719470.4000000954,015_o_m_n_a.png,O,m,1188,12,1,2055.4000000953674,717415.0,7734,VNB,C,10
0,prac,2,0.0,2-Back,,,Tue Jan 13 2026 09:49:12 GMT-0600 (Central Standard Time),719470.4000000954,019_m_f_n_a.png,O,a,5181,1,1,2055.4000000953674,717415.0,7734,VNB,C,0
0,prac,2,0.0,2-Back,,,Tue Jan 13 2026 09:49:12 GMT-0600 (Central Standard Time),719470.4000000954,012_o_f_h_a.png,O,a,5181,2,1,2055.4000000953674,717415.0,7734,VNB,C,0
1,prac,2,0.0,2-Back,1.0,m,Tue Jan 13 2026 09:49:12 GMT-0600 (Central Standard Time),731899.0,015_o_m_d_a.png,O,m,1156,3,1,2020.7999999523163,729878.2000000477,7734,VNB,C,1
1,prac,2,1.0,2-Back,0.0,z,Tue Jan 13 2026 09:49:12 GMT-0600 (Central Standard Time),733865.2999999523,014_m_m_h_a.png,O,m,1204,4,1,1958.2999999523163,731907.0,7734,VNB,C,2
2,prac,2,0.0,2-Back,1.0,m,Tue Jan 13 2026 09:49:12 GMT-0600 (Central Standard Time),735913.7000000477,022_y_f_n_a.png,O,m,1168,5,1,2037.2000000476837,733876.5,7734,VNB,C,3
3,prac,2,1.0,2-Back,1.0,z,Tue Jan 13 2026 09:49:12 GMT-0600 (Central Standard Time),737796.7000000477,015_o_m_h_a.png,O,z,1005,6,1,1871.7999999523163,735924.9000000954,7734,VNB,C,4
4,prac,2,1.0,2-Back,1.0,z,Tue Jan 13 2026 09:49:12 GMT-0600 (Central Standard Time),739863.2999999523,025_y_m_n_a.png,O,z,1213,7,1,2055.0999999046326,737808.2000000477,7734,VNB,C,5
5,prac,2,0.0,2-Back,1.0,m,Tue Jan 13 2026 09:49:12 GMT-0600 (Central Standard Time),741648.2000000477,019_m_f_d_a.png,O,m,927,8,1,1774.2999999523163,739873.9000000954,7734,VNB,C,6
6,prac,2,0.0,2-Back,1.0,m,Tue Jan 13 2026 09:49:12 GMT-0600 (Central Standard Time),743677.2999999523,012_o_f_d_a.png,O,m,1156,9,1,2016.2999999523163,741661.0,7734,VNB,C,7
6,prac,2,0.0,2-Back,0.0,m,Tue Jan 13 2026 09:49:12 GMT-0600 (Central Standard Time),745427.5999999046,014_m_m_h_a.png,O,z,976,10,1,1741.2999999523163,743686.2999999523,7734,VNB,C,8
7,prac,2,1.0,2-Back,1.0,z,Tue Jan 13 2026 09:49:12 GMT-0600 (Central Standard Time),747276.5,022_y_f_d_a.png,O,z,966,11,1,1835.2999999523163,745441.2000000477,7734,VNB,C,9
8,prac,2,0.0,2-Back,1.0,m,Tue Jan 13 2026 09:49:12 GMT-0600 (Central Standard Time),749027.5,015_o_m_n_a.png,O,m,891,12,1,1740.9000000953674,747286.5999999046,7734,VNB,C,10
0,test,1,0.0,2-Back,,,Tue Jan 13 2026 09:49:12 GMT-0600 (Central Standard Time),749027.5,025_y_m_h_a.png,O,space,6335,1,1,1740.9000000953674,747286.5999999046,7734,VNB,C,0
0,test,1,0.0,2-Back,,,Tue Jan 13 2026 09:49:12 GMT-0600 (Central Standard Time),749027.5,012_o_f_n_a.png,O,space,6335,2,1,1740.9000000953674,747286.5999999046,7734,VNB,C,0
1,test,1,0.0,2-Back,1.0,z,Tue Jan 13 2026 09:49:12 GMT-0600 (Central Standard Time),777349.7999999523,015_o_m_h_a.png,O,z,1366,3,1,2396.399999856949,774953.4000000954,7734,VNB,C,1
2,test,1,0.0,2-Back,1.0,m,Tue Jan 13 2026 09:49:12 GMT-0600 (Central Standard Time),779267.4000000954,019_m_f_d_a.png,O,m,894,4,1,1909.2000000476837,777358.2000000477,7734,VNB,C,2
2,test,1,1.0,2-Back,0.0,m,Tue Jan 13 2026 09:49:12 GMT-0600 (Central Standard Time),781151.7999999523,025_y_m_n_a.png,O,z,866,5,1,1874.7000000476837,779277.0999999046,7734,VNB,C,3
3,test,1,0.0,2-Back,1.0,z,Tue Jan 13 2026 09:49:12 GMT-0600 (Central Standard Time),783282.0,022_y_f_d_a.png,O,z,1112,6,1,2120.5,781161.5,7734,VNB,C,4
4,test,1,0.0,2-Back,1.0,m,Tue Jan 13 2026 09:49:12 GMT-0600 (Central Standard Time),785164.5,014_m_m_h_a.png,O,m,862,7,1,1876.5999999046326,783287.9000000954,7734,VNB,C,5
5,test,1,1.0,2-Back,1.0,m,Tue Jan 13 2026 09:49:12 GMT-0600 (Central Standard Time),787198.4000000954,022_y_f_n_a.png,O,m,1010,8,1,2027.9000000953674,785170.5,7734,VNB,C,6
5,test,1,0.0,2-Back,0.0,z,Tue Jan 13 2026 09:49:12 GMT-0600 (Central Standard Time),789363.5999999046,012_o_f_h_a.png,O,m,1138,9,1,2157.2999999523163,787206.2999999523,7734,VNB,C,7
5,test,1,0.0,2-Back,0.0,m,Tue Jan 13 2026 09:49:12 GMT-0600 (Central Standard Time),791662.4000000954,015_o_m_d_a.png,O,z,1267,10,1,2292.4000000953674,789370.0,7734,VNB,C,8
5,test,1,1.0,2-Back,0.0,m,Tue Jan 13 2026 09:49:12 GMT-0600 (Central Standard Time),794695.5999999046,014_m_m_d_a.png,O,None,2014,11,1,3023.5,791672.0999999046,7734,VNB,C,9
6,test,1,0.0,2-Back,1.0,m,Tue Jan 13 2026 09:49:12 GMT-0600 (Central Standard Time),796711.4000000954,019_m_f_n_a.png,O,m,999,12,1,2008.2000000476837,794703.2000000477,7734,VNB,C,10
7,test,1,0.0,2-Back,1.0,m,Tue Jan 13 2026 09:49:12 GMT-0600 (Central Standard Time),798859.9000000954,022_y_f_h_a.png,O,m,1120,13,1,2139.0,796720.9000000954,7734,VNB,C,11
7,test,1,0.0,2-Back,0.0,z,Tue Jan 13 2026 09:49:12 GMT-0600 (Central Standard Time),801476.0999999046,014_m_m_n_a.png,O,m,1595,14,1,2608.5999999046326,798867.5,7734,VNB,C,12
7,test,1,0.0,2-Back,0.0,m,Tue Jan 13 2026 09:49:12 GMT-0600 (Central Standard Time),803407.5,025_y_m_d_a.png,O,z,906,15,1,1926.4000000953674,801481.0999999046,7734,VNB,C,13
8,test,1,1.0,2-Back,1.0,m,Tue Jan 13 2026 09:49:12 GMT-0600 (Central Standard Time),805507.7000000477,019_m_f_h_a.png,O,m,1074,16,1,2093.7000000476837,803414.0,7734,VNB,C,14
9,test,1,0.0,2-Back,1.0,z,Tue Jan 13 2026 09:49:12 GMT-0600 (Central Standard Time),807525.2000000477,012_o_f_d_a.png,O,z,985,17,1,2015.0,805510.2000000477,7734,VNB,C,15
10,test,1,0.0,2-Back,1.0,m,Tue Jan 13 2026 09:49:12 GMT-0600 (Central Standard Time),809556.2000000477,015_o_m_n_a.png,O,m,1002,18,1,2026.5,807529.7000000477,7734,VNB,C,16
0,test,2,0.0,2-Back,,,Tue Jan 13 2026 09:49:12 GMT-0600 (Central Standard Time),809556.2000000477,014_m_m_h_a.png,O,space,3651,1,1,2026.5,807529.7000000477,7734,VNB,C,0
0,test,2,0.0,2-Back,,,Tue Jan 13 2026 09:49:12 GMT-0600 (Central Standard Time),809556.2000000477,022_y_f_n_a.png,O,space,3651,2,1,2026.5,807529.7000000477,7734,VNB,C,0
1,test,2,1.0,2-Back,1.0,z,Tue Jan 13 2026 09:49:12 GMT-0600 (Central Standard Time),820637.0,012_o_f_h_a.png,O,z,1182,3,1,2207.2000000476837,818429.7999999523,7734,VNB,C,1
2,test,2,0.0,2-Back,1.0,m,Tue Jan 13 2026 09:49:12 GMT-0600 (Central Standard Time),822835.9000000954,015_o_m_d_a.png,O,m,1177,4,1,2189.800000190735,820646.0999999046,7734,VNB,C,2
3,test,2,0.0,2-Back,1.0,m,Tue Jan 13 2026 09:49:12 GMT-0600 (Central Standard Time),825051.2999999523,019_m_f_d_a.png,O,m,1186,5,1,2206.0999999046326,822845.2000000477,7734,VNB,C,3
3,test,2,0.0,2-Back,0.0,m,Tue Jan 13 2026 09:49:12 GMT-0600 (Central Standard Time),827417.0999999046,025_y_m_h_a.png,O,z,1340,6,1,2357.7999999523163,825059.2999999523,7734,VNB,C,4
4,test,2,0.0,2-Back,1.0,m,Tue Jan 13 2026 09:49:12 GMT-0600 (Central Standard Time),829633.5,012_o_f_n_a.png,O,m,1197,7,1,2209.2999999523163,827424.2000000477,7734,VNB,C,5
4,test,2,1.0,2-Back,0.0,z,Tue Jan 13 2026 09:49:12 GMT-0600 (Central Standard Time),832115.7000000477,015_o_m_h_a.png,O,m,1460,8,1,2470.9000000953674,829644.7999999523,7734,VNB,C,6
5,test,2,0.0,2-Back,1.0,m,Tue Jan 13 2026 09:49:12 GMT-0600 (Central Standard Time),833997.7000000477,022_y_f_d_a.png,O,m,857,9,1,1874.7999999523163,832122.9000000954,7734,VNB,C,7
5,test,2,0.0,2-Back,0.0,m,Tue Jan 13 2026 09:49:12 GMT-0600 (Central Standard Time),836097.7999999523,025_y_m_d_a.png,O,z,1072,10,1,2096.2000000476837,834001.5999999046,7734,VNB,C,8
5,test,2,0.0,2-Back,0.0,m,Tue Jan 13 2026 09:49:12 GMT-0600 (Central Standard Time),838514.2000000477,014_m_m_n_a.png,O,z,1388,11,1,2411.5,836102.7000000477,7734,VNB,C,9
6,test,2,0.0,2-Back,1.0,m,Tue Jan 13 2026 09:49:12 GMT-0600 (Central Standard Time),840913.7000000477,019_m_f_h_a.png,O,m,1370,12,1,2393.7000000476837,838520.0,7734,VNB,C,10
6,test,2,1.0,2-Back,0.0,z,Tue Jan 13 2026 09:49:12 GMT-0600 (Central Standard Time),842912.4000000954,015_o_m_n_a.png,O,m,972,13,1,1993.8000001907349,840918.5999999046,7734,VNB,C,11
6,test,2,0.0,2-Back,0.0,m,Tue Jan 13 2026 09:49:12 GMT-0600 (Central Standard Time),845561.5,012_o_f_d_a.png,O,z,1622,14,1,2643.9000000953674,842917.5999999046,7734,VNB,C,12
7,test,2,0.0,2-Back,1.0,m,Tue Jan 13 2026 09:49:12 GMT-0600 (Central Standard Time),847695.0,022_y_f_h_a.png,O,m,1106,15,1,2130.0999999046326,845564.9000000954,7734,VNB,C,13
7,test,2,0.0,2-Back,0.0,z,Tue Jan 13 2026 09:49:12 GMT-0600 (Central Standard Time),849862.2000000477,014_m_m_d_a.png,O,m,1137,16,1,2160.0,847702.2000000477,7734,VNB,C,14
8,test,2,0.0,2-Back,1.0,m,Tue Jan 13 2026 09:49:12 GMT-0600 (Central Standard Time),852076.9000000954,025_y_m_n_a.png,O,m,1184,17,1,2206.7000000476837,849870.2000000477,7734,VNB,C,15
9,test,2,1.0,2-Back,1.0,m,Tue Jan 13 2026 09:49:12 GMT-0600 (Central Standard Time),854125.0999999046,019_m_f_n_a.png,O,m,1017,18,1,2040.0,852085.0999999046,7734,VNB,C,16
0,test,3,1.0,2-Back,,,Tue Jan 13 2026 09:49:12 GMT-0600 (Central Standard Time),854125.0999999046,015_o_m_n_a.png,O,space,2657,1,1,2040.0,852085.0999999046,7734,VNB,C,0
0,test,3,1.0,2-Back,,,Tue Jan 13 2026 09:49:12 GMT-0600 (Central Standard Time),854125.0999999046,012_o_f_d_a.png,O,space,2657,2,1,2040.0,852085.0999999046,7734,VNB,C,0
1,test,3,0.0,2-Back,1.0,m,Tue Jan 13 2026 09:49:12 GMT-0600 (Central Standard Time),863988.7000000477,022_y_f_h_a.png,O,m,1125,3,1,2135.100000143051,861853.5999999046,7734,VNB,C,1
1,test,3,0.0,2-Back,0.0,z,Tue Jan 13 2026 09:49:12 GMT-0600 (Central Standard Time),866122.7999999523,019_m_f_d_a.png,O,m,1113,4,1,2127.7999999523163,863995.0,7734,VNB,C,2
1,test,3,1.0,2-Back,0.0,m,Tue Jan 13 2026 09:49:12 GMT-0600 (Central Standard Time),868404.2000000477,025_y_m_n_a.png,O,z,1252,5,1,2275.100000143051,866129.0999999046,7734,VNB,C,3
2,test,3,0.0,2-Back,1.0,m,Tue Jan 13 2026 09:49:12 GMT-0600 (Central Standard Time),870504.0999999046,015_o_m_h_a.png,O,m,1066,6,1,2091.699999809265,868412.4000000954,7734,VNB,C,4
3,test,3,0.0,2-Back,1.0,z,Tue Jan 13 2026 09:49:12 GMT-0600 (Central Standard Time),872469.7000000477,022_y_f_n_a.png,O,z,940,7,1,1957.9000000953674,870511.7999999523,7734,VNB,C,5
3,test,3,1.0,2-Back,0.0,m,Tue Jan 13 2026 09:49:12 GMT-0600 (Central Standard Time),875486.9000000954,014_m_m_d_a.png,O,None,2001,8,1,3011.300000190735,872475.5999999046,7734,VNB,C,6
3,test,3,0.0,2-Back,0.0,m,Tue Jan 13 2026 09:49:12 GMT-0600 (Central Standard Time),877485.4000000954,025_y_m_d_a.png,O,z,970,9,1,1991.5,875493.9000000954,7734,VNB,C,7
4,test,3,0.0,2-Back,1.0,m,Tue Jan 13 2026 09:49:12 GMT-0600 (Central Standard Time),879367.7999999523,012_o_f_h_a.png,O,m,858,10,1,1878.0999999046326,877489.7000000477,7734,VNB,C,8
5,test,3,1.0,2-Back,1.0,m,Tue Jan 13 2026 09:49:12 GMT-0600 (Central Standard Time),881517.0,019_m_f_n_a.png,O,m,1127,11,1,2139.4000000953674,879377.5999999046,7734,VNB,C,9
6,test,3,1.0,2-Back,1.0,z,Tue Jan 13 2026 09:49:12 GMT-0600 (Central Standard Time),883432.4000000954,014_m_m_h_a.png,O,z,889,12,1,1908.1000001430511,881524.2999999523,7734,VNB,C,10
6,test,3,0.0,2-Back,0.0,m,Tue Jan 13 2026 09:49:12 GMT-0600 (Central Standard Time),885549.4000000954,022_y_f_d_a.png,O,z,1086,13,1,2105.300000190735,883444.0999999046,7734,VNB,C,11
7,test,3,0.0,2-Back,1.0,m,Tue Jan 13 2026 09:49:12 GMT-0600 (Central Standard Time),887415.5999999046,012_o_f_n_a.png,O,m,842,14,1,1857.6999998092651,885557.9000000954,7734,VNB,C,12
8,test,3,0.0,2-Back,1.0,z,Tue Jan 13 2026 09:49:12 GMT-0600 (Central Standard Time),889714.5,015_o_m_d_a.png,O,z,1277,15,1,2289.2999999523163,887425.2000000477,7734,VNB,C,13
9,test,3,1.0,2-Back,1.0,m,Tue Jan 13 2026 09:49:12 GMT-0600 (Central Standard Time),891530.5,019_m_f_h_a.png,O,m,795,16,1,1806.7999999523163,889723.7000000477,7734,VNB,C,14
9,test,3,0.0,2-Back,0.0,m,Tue Jan 13 2026 09:49:12 GMT-0600 (Central Standard Time),893847.4000000954,014_m_m_n_a.png,O,z,1292,17,1,2308.300000190735,891539.0999999046,7734,VNB,C,15
9,test,3,0.0,2-Back,0.0,z,Tue Jan 13 2026 09:49:12 GMT-0600 (Central Standard Time),896530.5,025_y_m_h_a.png,O,m,1664,18,1,2676.2000000476837,893854.2999999523,7734,VNB,C,16
0,test,4,0.0,2-Back,,,Tue Jan 13 2026 09:49:12 GMT-0600 (Central Standard Time),896530.5,019_m_f_n_a.png,O,space,3403,1,1,2676.2000000476837,893854.2999999523,7734,VNB,C,0
0,test,4,0.0,2-Back,,,Tue Jan 13 2026 09:49:12 GMT-0600 (Central Standard Time),896530.5,015_o_m_n_a.png,O,space,3403,2,1,2676.2000000476837,893854.2999999523,7734,VNB,C,0
1,test,4,1.0,2-Back,1.0,m,Tue Jan 13 2026 09:49:12 GMT-0600 (Central Standard Time),907075.9000000954,025_y_m_h_a.png,O,m,877,3,1,1884.1000001430511,905191.7999999523,7734,VNB,C,1
2,test,4,1.0,2-Back,1.0,m,Tue Jan 13 2026 09:49:12 GMT-0600 (Central Standard Time),909025.5999999046,012_o_f_d_a.png,O,m,930,4,1,1943.5,907082.0999999046,7734,VNB,C,2
3,test,4,0.0,2-Back,1.0,z,Tue Jan 13 2026 09:49:12 GMT-0600 (Central Standard Time),911225.2999999523,015_o_m_h_a.png,O,z,1156,5,1,2183.5999999046326,909041.7000000477,7734,VNB,C,3
4,test,4,0.0,2-Back,1.0,m,Tue Jan 13 2026 09:49:12 GMT-0600 (Central Standard Time),913141.7999999523,014_m_m_n_a.png,O,m,894,6,1,1906.0999999046326,911235.7000000477,7734,VNB,C,4
5,test,4,0.0,2-Back,1.0,m,Tue Jan 13 2026 09:49:12 GMT-0600 (Central Standard Time),915607.0999999046,019_m_f_d_a.png,O,m,1434,7,1,2454.699999809265,913152.4000000954,7734,VNB,C,5
6,test,4,0.0,2-Back,1.0,z,Tue Jan 13 2026 09:49:12 GMT-0600 (Central Standard Time),917539.4000000954,022_y_f_n_a.png,O,z,912,8,1,1924.3000001907349,915615.0999999046,7734,VNB,C,6
6,test,4,1.0,2-Back,0.0,m,Tue Jan 13 2026 09:49:12 GMT-0600 (Central Standard Time),919471.7999999523,012_o_f_h_a.png,O,z,916,9,1,1927.0,917544.7999999523,7734,VNB,C,7
6,test,4,0.0,2-Back,0.0,m,Tue Jan 13 2026 09:49:12 GMT-0600 (Central Standard Time),921305.0999999046,014_m_m_h_a.png,O,z,815,10,1,1823.0,919482.0999999046,7734,VNB,C,8
7,test,4,0.0,2-Back,1.0,m,Tue Jan 13 2026 09:49:12 GMT-0600 (Central Standard Time),923137.0999999046,022_y_f_d_a.png,O,m,806,11,1,1824.0,921313.0999999046,7734,VNB,C,9
7,test,4,0.0,2-Back,0.0,m,Tue Jan 13 2026 09:49:12 GMT-0600 (Central Standard Time),924985.9000000954,025_y_m_n_a.png,O,z,828,12,1,1839.0,923146.9000000954,7734,VNB,C,10
7,test,4,0.0,2-Back,0.0,z,Tue Jan 13 2026 09:49:12 GMT-0600 (Central Standard Time),927251.5999999046,015_o_m_d_a.png,O,m,1242,13,1,2259.199999809265,924992.4000000954,7734,VNB,C,11
8,test,4,1.0,2-Back,1.0,m,Tue Jan 13 2026 09:49:12 GMT-0600 (Central Standard Time),929885.7999999523,019_m_f_h_a.png,O,m,1611,14,1,2624.5999999046326,927261.2000000477,7734,VNB,C,12
8,test,4,1.0,2-Back,0.0,m,Tue Jan 13 2026 09:49:12 GMT-0600 (Central Standard Time),932319.2000000477,022_y_f_h_a.png,O,z,1399,15,1,2424.2000000476837,929895.0,7734,VNB,C,13
9,test,4,0.0,2-Back,1.0,m,Tue Jan 13 2026 09:49:12 GMT-0600 (Central Standard Time),934483.5,012_o_f_n_a.png,O,m,1138,16,1,2154.0,932329.5,7734,VNB,C,14
10,test,4,0.0,2-Back,1.0,m,Tue Jan 13 2026 09:49:12 GMT-0600 (Central Standard Time),936699.9000000954,025_y_m_d_a.png,O,m,1194,17,1,2210.4000000953674,934489.5,7734,VNB,C,15
11,test,4,1.0,2-Back,1.0,m,Tue Jan 13 2026 09:49:12 GMT-0600 (Central Standard Time),939616.2999999523,014_m_m_d_a.png,O,m,1891,18,1,2909.0999999046326,936707.2000000477,7734,VNB,C,16
0,test,5,1.0,2-Back,,,Tue Jan 13 2026 09:49:12 GMT-0600 (Central Standard Time),939616.2999999523,022_y_f_d_a.png,O,space,3390,1,1,2909.0999999046326,936707.2000000477,7734,VNB,C,0
0,test,5,1.0,2-Back,,,Tue Jan 13 2026 09:49:12 GMT-0600 (Central Standard Time),939616.2999999523,012_o_f_h_a.png,O,space,3390,2,1,2909.0999999046326,936707.2000000477,7734,VNB,C,0
1,test,5,1.0,2-Back,1.0,z,Tue Jan 13 2026 09:49:12 GMT-0600 (Central Standard Time),950361.7000000477,015_o_m_d_a.png,O,z,1114,3,1,2119.7999999523163,948241.9000000954,7734,VNB,C,1
2,test,5,1.0,2-Back,1.0,m,Tue Jan 13 2026 09:49:12 GMT-0600 (Central Standard Time),952710.9000000954,019_m_f_n_a.png,O,m,1333,4,1,2337.800000190735,950373.0999999046,7734,VNB,C,2
3,test,5,0.0,2-Back,1.0,m,Tue Jan 13 2026 09:49:12 GMT-0600 (Central Standard Time),955010.4000000954,014_m_m_h_a.png,O,m,1279,5,1,2290.9000000953674,952719.5,7734,VNB,C,3
4,test,5,0.0,2-Back,1.0,z,Tue Jan 13 2026 09:49:12 GMT-0600 (Central Standard Time),957328.4000000954,022_y_f_n_a.png,O,z,1301,6,1,2315.0,955013.4000000954,7734,VNB,C,4
4,test,5,0.0,2-Back,0.0,m,Tue Jan 13 2026 09:49:12 GMT-0600 (Central Standard Time),959441.9000000954,012_o_f_d_a.png,O,z,1088,7,1,2108.4000000953674,957333.5,7734,VNB,C,5
4,test,5,0.0,2-Back,0.0,m,Tue Jan 13 2026 09:49:12 GMT-0600 (Central Standard Time),961924.7999999523,015_o_m_h_a.png,O,z,1451,8,1,2473.0,959451.7999999523,7734,VNB,C,6
5,test,5,1.0,2-Back,1.0,z,Tue Jan 13 2026 09:49:12 GMT-0600 (Central Standard Time),964173.7000000477,019_m_f_d_a.png,O,z,1217,9,1,2244.600000143051,961929.0999999046,7734,VNB,C,7
6,test,5,0.0,2-Back,1.0,m,Tue Jan 13 2026 09:49:12 GMT-0600 (Central Standard Time),966040.7999999523,025_y_m_n_a.png,O,m,843,10,1,1857.7000000476837,964183.0999999046,7734,VNB,C,8
7,test,5,0.0,2-Back,1.0,m,Tue Jan 13 2026 09:49:12 GMT-0600 (Central Standard Time),968539.2999999523,014_m_m_n_a.png,O,m,1479,11,1,2492.399999856949,966046.9000000954,7734,VNB,C,9
8,test,5,0.0,2-Back,1.0,m,Tue Jan 13 2026 09:49:12 GMT-0600 (Central Standard Time),971055.7000000477,022_y_f_h_a.png,O,m,1491,12,1,2510.9000000953674,968544.7999999523,7734,VNB,C,10
8,test,5,0.0,2-Back,0.0,m,Tue Jan 13 2026 09:49:12 GMT-0600 (Central Standard Time),972791.7000000477,025_y_m_d_a.png,O,z,717,13,1,1730.5,971061.2000000477,7734,VNB,C,11
8,test,5,1.0,2-Back,0.0,z,Tue Jan 13 2026 09:49:12 GMT-0600 (Central Standard Time),974870.2000000477,019_m_f_h_a.png,O,m,1057,14,1,2072.0,972798.2000000477,7734,VNB,C,12
9,test,5,0.0,2-Back,1.0,m,Tue Jan 13 2026 09:49:12 GMT-0600 (Central Standard Time),976721.0,015_o_m_n_a.png,O,m,825,15,1,1846.0,974875.0,7734,VNB,C,13
10,test,5,0.0,2-Back,1.0,m,Tue Jan 13 2026 09:49:12 GMT-0600 (Central Standard Time),978952.7000000477,014_m_m_d_a.png,O,m,1205,16,1,2224.0,976728.7000000477,7734,VNB,C,14
10,test,5,0.0,2-Back,0.0,z,Tue Jan 13 2026 09:49:12 GMT-0600 (Central Standard Time),981252.2999999523,012_o_f_n_a.png,O,m,1277,17,1,2288.0999999046326,978964.2000000477,7734,VNB,C,15
11,test,5,1.0,2-Back,1.0,m,Tue Jan 13 2026 09:49:12 GMT-0600 (Central Standard Time),983385.9000000954,025_y_m_h_a.png,O,m,1114,18,1,2124.100000143051,981261.7999999523,7734,VNB,C,16
