Number,acc_sum,block,block_c,block_cond,con_img,correct,correct_response,datetime,endtime,jitter,project,response,response_time,row_sel,session_number,start_end,starttime,subject_id,task,task_vers,trial
3,1,prac,1,A,circle.png,1,z,Mon May 11 2026 10:17:49 GMT-0500 (Central Daylight Time),82042.19999998808,1200,O,z,1233,3,1,3222.699999988079,78819.5,7795,NTS,B,1
1,2,prac,1,A,circle.png,1,z,Mon May 11 2026 10:17:49 GMT-0500 (Central Daylight Time),84723.89999997616,1000,O,z,891,1,1,2676.699999988079,82047.19999998808,7795,NTS,B,2
8,3,prac,1,A,circle.png,1,m,Mon May 11 2026 10:17:49 GMT-0500 (Central Daylight Time),87991.0,1600,O,m,872,7,1,3261.300000011921,84729.69999998808,7795,NTS,B,3
6,4,prac,1,A,circle.png,1,m,Mon May 11 2026 10:17:49 GMT-0500 (Central Daylight Time),91639.10000002384,1900,O,m,950,5,1,3638.100000023842,88001.0,7795,NTS,B,4
1,5,prac,1,A,circle.png,1,z,Mon May 11 2026 10:17:49 GMT-0500 (Central Daylight Time),94039.39999997616,1000,O,z,601,1,1,2394.399999976158,91645.0,7795,NTS,B,5
3,6,prac,1,A,circle.png,1,z,Mon May 11 2026 10:17:49 GMT-0500 (Central Daylight Time),96722.19999998808,1200,O,z,696,3,1,2675.399999976158,94046.80000001192,7795,NTS,B,6
4,7,prac,1,A,circle.png,1,z,Mon May 11 2026 10:17:49 GMT-0500 (Central Daylight Time),99587.30000001192,1400,O,z,668,4,1,2857.199999988079,96730.10000002384,7795,NTS,B,7
9,8,prac,1,A,circle.png,1,m,Mon May 11 2026 10:17:49 GMT-0500 (Central Daylight Time),102469.80000001192,1500,O,m,583,8,1,2875.300000011921,99594.5,7795,NTS,B,8
6,8,prac,1,A,circle.png,0,m,Mon May 11 2026 10:17:49 GMT-0500 (Central Daylight Time),105919.5,1900,O,z,755,5,1,3443.800000011921,102475.69999998808,7795,NTS,B,9
7,9,prac,1,A,circle.png,1,m,Mon May 11 2026 10:17:49 GMT-0500 (Central Daylight Time),109184.19999998808,1700,O,m,788,6,1,3260.5,105923.69999998808,7795,NTS,B,10
2,10,prac,1,A,circle.png,1,z,Mon May 11 2026 10:17:49 GMT-0500 (Central Daylight Time),112630.30000001192,2000,O,z,650,2,1,3438.199999988079,109192.10000002384,7795,NTS,B,11
9,11,prac,1,A,circle.png,1,m,Mon May 11 2026 10:17:49 GMT-0500 (Central Daylight Time),115583.10000002384,1500,O,m,650,8,1,2945.100000023842,112638.0,7795,NTS,B,12
7,0,prac,1,B,triangle.png,0,z,Mon May 11 2026 10:17:49 GMT-0500 (Central Daylight Time),160735.5,2000,O,None,1516,6,1,4290.600000023842,156444.89999997616,7795,NTS,B,1
2,0,prac,1,B,triangle.png,0,m,Mon May 11 2026 10:17:49 GMT-0500 (Central Daylight Time),164733.80000001192,1700,O,None,1516,2,1,3991.100000023842,160742.69999998808,7795,NTS,B,2
3,1,prac,1,B,triangle.png,1,z,Mon May 11 2026 10:17:49 GMT-0500 (Central Daylight Time),167983.19999998808,1600,O,z,870,3,1,3243.0,164740.19999998808,7795,NTS,B,3
8,2,prac,1,B,triangle.png,1,m,Mon May 11 2026 10:17:49 GMT-0500 (Central Daylight Time),170914.19999998808,1200,O,m,939,7,1,2925.099999964237,167989.10000002384,7795,NTS,B,4
2,3,prac,1,B,triangle.png,1,m,Mon May 11 2026 10:17:49 GMT-0500 (Central Daylight Time),174246.5,1700,O,m,836,2,1,3327.100000023842,170919.39999997616,7795,NTS,B,5
4,4,prac,1,B,triangle.png,1,m,Mon May 11 2026 10:17:49 GMT-0500 (Central Daylight Time),177295.39999997616,1500,O,m,752,4,1,3040.5,174254.89999997616,7795,NTS,B,6
4,5,prac,1,B,triangle.png,1,m,Mon May 11 2026 10:17:49 GMT-0500 (Central Daylight Time),180212.10000002384,1500,O,m,619,4,1,2909.0,177303.10000002384,7795,NTS,B,7
1,6,prac,1,B,triangle.png,1,z,Mon May 11 2026 10:17:49 GMT-0500 (Central Daylight Time),183693.89999997616,1900,O,z,791,1,1,3476.0,180217.89999997616,7795,NTS,B,8
6,7,prac,1,B,triangle.png,1,m,Mon May 11 2026 10:17:49 GMT-0500 (Central Daylight Time),186260.0,1000,O,m,768,5,1,2558.600000023842,183701.39999997616,7795,NTS,B,9
9,8,prac,1,B,triangle.png,1,z,Mon May 11 2026 10:17:49 GMT-0500 (Central Daylight Time),189625.0,1400,O,z,1188,8,1,3356.0,186269.0,7795,NTS,B,10
1,8,prac,1,B,triangle.png,0,z,Mon May 11 2026 10:17:49 GMT-0500 (Central Daylight Time),193073.69999998808,1900,O,m,754,1,1,3440.0,189633.69999998808,7795,NTS,B,11
7,9,prac,1,B,triangle.png,1,z,Mon May 11 2026 10:17:49 GMT-0500 (Central Daylight Time),196922.39999997616,2000,O,z,1053,6,1,3839.699999988079,193082.69999998808,7795,NTS,B,12
4,1,test,1,A,circle.png,1,z,Mon May 11 2026 10:17:49 GMT-0500 (Central Daylight Time),222615.39999997616,1400,O,z,974,4,1,2393.099999964237,220222.30000001192,7795,NTS,B,1
3,2,test,1,A,circle.png,1,z,Mon May 11 2026 10:17:49 GMT-0500 (Central Daylight Time),224547.80000001192,1200,O,z,704,3,1,1928.1000000238419,222619.69999998808,7795,NTS,B,2
3,3,test,1,A,circle.png,1,z,Mon May 11 2026 10:17:49 GMT-0500 (Central Daylight Time),226313.5,1200,O,z,533,3,1,1761.0,224552.5,7795,NTS,B,3
9,4,test,1,A,circle.png,1,m,Mon May 11 2026 10:17:49 GMT-0500 (Central Daylight Time),228379.19999998808,1500,O,m,537,8,1,2061.599999964237,226317.60000002384,7795,NTS,B,4
6,5,test,1,A,circle.png,1,m,Mon May 11 2026 10:17:49 GMT-0500 (Central Daylight Time),231145.60000002384,1900,O,m,838,5,1,2761.900000035763,228383.69999998808,7795,NTS,B,5
7,6,test,1,A,circle.png,1,m,Mon May 11 2026 10:17:49 GMT-0500 (Central Daylight Time),233528.39999997616,1700,O,m,655,6,1,2378.099999964237,231150.30000001192,7795,NTS,B,6
7,7,test,1,A,circle.png,1,m,Mon May 11 2026 10:17:49 GMT-0500 (Central Daylight Time),235795.69999998808,1700,O,m,535,6,1,2263.300000011921,233532.39999997616,7795,NTS,B,7
8,8,test,1,A,circle.png,1,m,Mon May 11 2026 10:17:49 GMT-0500 (Central Daylight Time),238526.69999998808,1600,O,m,1109,7,1,2725.199999988079,235801.5,7795,NTS,B,8
2,9,test,1,A,circle.png,1,z,Mon May 11 2026 10:17:49 GMT-0500 (Central Daylight Time),241174.80000001192,2000,O,z,625,2,1,2644.300000011921,238530.5,7795,NTS,B,9
1,10,test,1,A,circle.png,1,z,Mon May 11 2026 10:17:49 GMT-0500 (Central Daylight Time),242942.19999998808,1000,O,z,736,1,1,1763.199999988079,241179.0,7795,NTS,B,10
2,11,test,1,A,circle.png,1,z,Mon May 11 2026 10:17:49 GMT-0500 (Central Daylight Time),245744.69999998808,2000,O,z,786,2,1,2799.5,242945.19999998808,7795,NTS,B,11
7,12,test,1,A,circle.png,1,m,Mon May 11 2026 10:17:49 GMT-0500 (Central Daylight Time),248172.89999997616,1700,O,m,702,6,1,2425.599999964237,245747.30000001192,7795,NTS,B,12
2,13,test,1,A,circle.png,1,z,Mon May 11 2026 10:17:49 GMT-0500 (Central Daylight Time),250954.60000002384,2000,O,z,762,2,1,2777.7000000476837,248176.89999997616,7795,NTS,B,13
2,14,test,1,A,circle.png,1,z,Mon May 11 2026 10:17:49 GMT-0500 (Central Daylight Time),253688.69999998808,2000,O,z,701,2,1,2730.5,250958.19999998808,7795,NTS,B,14
8,15,test,1,A,circle.png,1,m,Mon May 11 2026 10:17:49 GMT-0500 (Central Daylight Time),255955.19999998808,1600,O,m,649,7,1,2262.300000011921,253692.89999997616,7795,NTS,B,15
6,16,test,1,A,circle.png,1,m,Mon May 11 2026 10:17:49 GMT-0500 (Central Daylight Time),258518.5,1900,O,m,642,5,1,2558.0,255960.5,7795,NTS,B,16
6,17,test,1,A,circle.png,1,m,Mon May 11 2026 10:17:49 GMT-0500 (Central Daylight Time),260984.10000002384,1900,O,m,532,5,1,2462.7000000476837,258521.39999997616,7795,NTS,B,17
4,18,test,1,A,circle.png,1,z,Mon May 11 2026 10:17:49 GMT-0500 (Central Daylight Time),263118.0,1400,O,z,700,4,1,2131.199999988079,260986.80000001192,7795,NTS,B,18
9,19,test,1,A,circle.png,1,m,Mon May 11 2026 10:17:49 GMT-0500 (Central Daylight Time),265317.8000000119,1500,O,m,670,8,1,2194.699999988079,263123.10000002384,7795,NTS,B,19
1,20,test,1,A,circle.png,1,z,Mon May 11 2026 10:17:49 GMT-0500 (Central Daylight Time),267066.10000002384,1000,O,z,720,1,1,1743.5,265322.60000002384,7795,NTS,B,20
1,21,test,1,A,circle.png,1,z,Mon May 11 2026 10:17:49 GMT-0500 (Central Daylight Time),268732.39999997616,1000,O,z,645,1,1,1663.5999999642372,267068.8000000119,7795,NTS,B,21
7,22,test,1,A,circle.png,1,m,Mon May 11 2026 10:17:49 GMT-0500 (Central Daylight Time),271081.39999997616,1700,O,m,615,6,1,2345.199999988079,268736.1999999881,7795,NTS,B,22
8,23,test,1,A,circle.png,1,m,Mon May 11 2026 10:17:49 GMT-0500 (Central Daylight Time),273299.6999999881,1600,O,m,590,7,1,2215.399999976158,271084.3000000119,7795,NTS,B,23
9,24,test,1,A,circle.png,1,m,Mon May 11 2026 10:17:49 GMT-0500 (Central Daylight Time),275481.0,1500,O,m,659,8,1,2177.399999976158,273303.60000002384,7795,NTS,B,24
6,1,test,1,B,triangle.png,1,m,Mon May 11 2026 10:17:49 GMT-0500 (Central Daylight Time),294324.8000000119,1000,O,m,1154,5,1,2178.600000023842,292146.1999999881,7795,NTS,B,1
9,2,test,1,B,triangle.png,1,z,Mon May 11 2026 10:17:49 GMT-0500 (Central Daylight Time),297040.10000002384,1900,O,z,791,16,1,2707.900000035763,294332.1999999881,7795,NTS,B,2
9,3,test,1,B,triangle.png,1,z,Mon May 11 2026 10:17:49 GMT-0500 (Central Daylight Time),299056.1999999881,1400,O,z,590,8,1,2009.0999999642372,297047.10000002384,7795,NTS,B,3
3,3,test,1,B,triangle.png,0,z,Mon May 11 2026 10:17:49 GMT-0500 (Central Daylight Time),301323.89999997616,1600,O,m,640,3,1,2260.2999999523163,299063.60000002384,7795,NTS,B,4
7,4,test,1,B,triangle.png,1,z,Mon May 11 2026 10:17:49 GMT-0500 (Central Daylight Time),304038.6999999881,2000,O,z,695,6,1,2706.800000011921,301331.89999997616,7795,NTS,B,5
2,5,test,1,B,triangle.png,1,m,Mon May 11 2026 10:17:49 GMT-0500 (Central Daylight Time),306004.3000000119,1200,O,m,747,10,1,1961.0,304043.3000000119,7795,NTS,B,6
3,6,test,1,B,triangle.png,1,z,Mon May 11 2026 10:17:49 GMT-0500 (Central Daylight Time),308836.1999999881,2000,O,z,803,11,1,2824.399999976158,306011.8000000119,7795,NTS,B,7
9,7,test,1,B,triangle.png,1,z,Mon May 11 2026 10:17:49 GMT-0500 (Central Daylight Time),311335.8000000119,1900,O,z,574,16,1,2494.199999988079,308841.60000002384,7795,NTS,B,8
8,8,test,1,B,triangle.png,1,m,Mon May 11 2026 10:17:49 GMT-0500 (Central Daylight Time),313252.3000000119,1200,O,m,687,7,1,1912.9000000357628,311339.39999997616,7795,NTS,B,9
7,9,test,1,B,triangle.png,1,z,Mon May 11 2026 10:17:49 GMT-0500 (Central Daylight Time),315484.39999997616,1600,O,z,612,14,1,2225.699999988079,313258.6999999881,7795,NTS,B,10
2,10,test,1,B,triangle.png,1,m,Mon May 11 2026 10:17:49 GMT-0500 (Central Daylight Time),317850.39999997616,1700,O,m,638,2,1,2358.2999999523163,315492.10000002384,7795,NTS,B,11
7,11,test,1,B,triangle.png,1,z,Mon May 11 2026 10:17:49 GMT-0500 (Central Daylight Time),320100.3000000119,1600,O,z,625,14,1,2245.699999988079,317854.60000002384,7795,NTS,B,12
3,12,test,1,B,triangle.png,1,z,Mon May 11 2026 10:17:49 GMT-0500 (Central Daylight Time),322683.1999999881,1600,O,z,956,3,1,2579.800000011921,320103.39999997616,7795,NTS,B,13
8,13,test,1,B,triangle.png,1,m,Mon May 11 2026 10:17:49 GMT-0500 (Central Daylight Time),325148.60000002384,1700,O,m,738,15,1,2461.5,322687.10000002384,7795,NTS,B,14
6,14,test,1,B,triangle.png,1,m,Mon May 11 2026 10:17:49 GMT-0500 (Central Daylight Time),327331.1999999881,1500,O,m,666,13,1,2179.300000011921,325151.89999997616,7795,NTS,B,15
8,15,test,1,B,triangle.png,1,m,Mon May 11 2026 10:17:49 GMT-0500 (Central Daylight Time),329163.5,1200,O,m,604,7,1,1827.1000000238419,327336.39999997616,7795,NTS,B,16
4,16,test,1,B,triangle.png,1,m,Mon May 11 2026 10:17:49 GMT-0500 (Central Daylight Time),330913.5,1000,O,m,719,12,1,1745.800000011921,329167.6999999881,7795,NTS,B,17
6,17,test,1,B,triangle.png,1,m,Mon May 11 2026 10:17:49 GMT-0500 (Central Daylight Time),332631.1999999881,1000,O,m,694,5,1,1713.0,330918.1999999881,7795,NTS,B,18
6,18,test,1,B,triangle.png,1,m,Mon May 11 2026 10:17:49 GMT-0500 (Central Daylight Time),334760.60000002384,1500,O,m,612,13,1,2126.0,332634.60000002384,7795,NTS,B,19
7,19,test,1,B,triangle.png,1,z,Mon May 11 2026 10:17:49 GMT-0500 (Central Daylight Time),337493.60000002384,2000,O,z,701,6,1,2729.7000000476837,334763.89999997616,7795,NTS,B,20
1,20,test,1,B,triangle.png,1,z,Mon May 11 2026 10:17:49 GMT-0500 (Central Daylight Time),339776.6999999881,1400,O,z,849,9,1,2276.5,337500.1999999881,7795,NTS,B,21
4,21,test,1,B,triangle.png,1,m,Mon May 11 2026 10:17:49 GMT-0500 (Central Daylight Time),342143.1999999881,1500,O,m,834,4,1,2362.0,339781.1999999881,7795,NTS,B,22
1,22,test,1,B,triangle.png,1,z,Mon May 11 2026 10:17:49 GMT-0500 (Central Daylight Time),344709.3000000119,1900,O,z,644,1,1,2561.600000023842,342147.6999999881,7795,NTS,B,23
9,23,test,1,B,triangle.png,1,z,Mon May 11 2026 10:17:49 GMT-0500 (Central Daylight Time),347592.60000002384,1400,O,z,1457,8,1,2880.600000023842,344712.0,7795,NTS,B,24
3,0,prac,1,C,triangle.png,0,z,Mon May 11 2026 10:17:49 GMT-0500 (Central Daylight Time),397593.5,1500,O,None,1515,3,1,3776.0,393817.5,7795,NTS,B,1
2,0,prac,1,C,triangle.png,0,m,Mon May 11 2026 10:17:49 GMT-0500 (Central Daylight Time),401491.5,1600,O,None,1515,2,1,3892.699999988079,397598.8000000119,7795,NTS,B,2
7,1,prac,1,C,triangle.png,1,z,Mon May 11 2026 10:17:49 GMT-0500 (Central Daylight Time),404407.5,1200,O,z,935,6,1,2911.199999988079,401496.3000000119,7795,NTS,B,3
4,1,prac,1,C,circle.png,0,z,Mon May 11 2026 10:17:49 GMT-0500 (Central Daylight Time),407704.5,1000,O,None,1514,4,1,3290.699999988079,404413.8000000119,7795,NTS,B,4
9,1,prac,1,C,circle.png,0,m,Mon May 11 2026 10:17:49 GMT-0500 (Central Daylight Time),411903.5,1900,O,None,1515,8,1,4195.399999976158,407708.10000002384,7795,NTS,B,5
4,1,prac,1,C,circle.png,0,z,Mon May 11 2026 10:17:49 GMT-0500 (Central Daylight Time),415202.60000002384,1000,O,None,1515,4,1,3292.2000000476837,411910.39999997616,7795,NTS,B,6
1,1,prac,1,C,circle.png,0,z,Mon May 11 2026 10:17:49 GMT-0500 (Central Daylight Time),419184.5,1700,O,None,1501,1,1,3973.800000011921,415210.6999999881,7795,NTS,B,7
8,1,prac,1,C,triangle.png,0,m,Mon May 11 2026 10:17:49 GMT-0500 (Central Daylight Time),422883.60000002384,1400,O,None,1515,7,1,3688.800000011921,419194.8000000119,7795,NTS,B,8
3,1,prac,1,C,triangle.png,0,z,Mon May 11 2026 10:17:49 GMT-0500 (Central Daylight Time),426682.3000000119,1500,O,None,1515,3,1,3788.199999988079,422894.10000002384,7795,NTS,B,9
6,2,prac,1,C,circle.png,1,m,Mon May 11 2026 10:17:49 GMT-0500 (Central Daylight Time),430714.10000002384,2000,O,m,1245,5,1,4024.600000023842,426689.5,7795,NTS,B,10
7,3,prac,1,C,triangle.png,1,z,Mon May 11 2026 10:17:49 GMT-0500 (Central Daylight Time),433614.89999997616,1200,O,z,909,6,1,2892.0,430722.89999997616,7795,NTS,B,11
9,3,prac,1,C,circle.png,0,m,Mon May 11 2026 10:17:49 GMT-0500 (Central Daylight Time),437413.6999999881,1900,O,z,1126,8,1,3791.599999964237,433622.10000002384,7795,NTS,B,12
7,0,prac,2,C,triangle.png,0,z,Mon May 11 2026 10:17:49 GMT-0500 (Central Daylight Time),457556.3000000119,1200,O,None,1515,6,1,3494.5,454061.8000000119,7795,NTS,B,1
4,0,prac,2,C,circle.png,0,z,Mon May 11 2026 10:17:49 GMT-0500 (Central Daylight Time),460839.8000000119,1000,O,None,1515,4,1,3276.400000035763,457563.39999997616,7795,NTS,B,2
2,0,prac,2,C,triangle.png,0,m,Mon May 11 2026 10:17:49 GMT-0500 (Central Daylight Time),464738.0,1600,O,None,1517,2,1,3892.699999988079,460845.3000000119,7795,NTS,B,3
1,0,prac,2,C,circle.png,0,z,Mon May 11 2026 10:17:49 GMT-0500 (Central Daylight Time),468737.1999999881,1700,O,None,1515,1,1,3993.0,464744.1999999881,7795,NTS,B,4
9,0,prac,2,C,circle.png,0,m,Mon May 11 2026 10:17:49 GMT-0500 (Central Daylight Time),472934.8000000119,1900,O,None,1516,8,1,4189.199999988079,468745.60000002384,7795,NTS,B,5
8,0,prac,2,C,triangle.png,0,m,Mon May 11 2026 10:17:49 GMT-0500 (Central Daylight Time),476635.8000000119,1400,O,None,1514,7,1,3696.300000011921,472939.5,7795,NTS,B,6
6,0,prac,2,C,circle.png,0,m,Mon May 11 2026 10:17:49 GMT-0500 (Central Daylight Time),480932.39999997616,2000,O,None,1514,5,1,4289.699999988079,476642.6999999881,7795,NTS,B,7
6,0,prac,2,C,circle.png,0,m,Mon May 11 2026 10:17:49 GMT-0500 (Central Daylight Time),485231.39999997616,2000,O,None,1516,5,1,4292.299999952316,480939.10000002384,7795,NTS,B,8
2,0,prac,2,C,triangle.png,0,m,Mon May 11 2026 10:17:49 GMT-0500 (Central Daylight Time),489128.3000000119,1600,O,None,1515,2,1,3888.100000023842,485240.1999999881,7795,NTS,B,9
1,0,prac,2,C,circle.png,0,z,Mon May 11 2026 10:17:49 GMT-0500 (Central Daylight Time),493113.60000002384,1700,O,None,1516,1,1,3980.300000011921,489133.3000000119,7795,NTS,B,10
8,0,prac,2,C,triangle.png,0,m,Mon May 11 2026 10:17:49 GMT-0500 (Central Daylight Time),496795.39999997616,1400,O,None,1517,7,1,3677.2999999523163,493118.10000002384,7795,NTS,B,11
3,0,prac,2,C,triangle.png,0,z,Mon May 11 2026 10:17:49 GMT-0500 (Central Daylight Time),500577.5,1500,O,None,1515,3,1,3774.800000011921,496802.6999999881,7795,NTS,B,12
3,0,prac,3,C,triangle.png,0,z,Mon May 11 2026 10:17:49 GMT-0500 (Central Daylight Time),550261.3000000119,1500,O,None,1517,3,1,3793.100000023842,546468.1999999881,7795,NTS,B,1
2,1,prac,3,C,triangle.png,1,m,Mon May 11 2026 10:17:49 GMT-0500 (Central Daylight Time),553858.5,1600,O,m,1200,2,1,3593.300000011921,550265.1999999881,7795,NTS,B,2
4,2,prac,3,C,circle.png,1,z,Mon May 11 2026 10:17:49 GMT-0500 (Central Daylight Time),556808.6000000238,1000,O,z,1149,4,1,2942.7000000476837,553865.8999999762,7795,NTS,B,3
6,2,prac,3,C,circle.png,0,m,Mon May 11 2026 10:17:49 GMT-0500 (Central Daylight Time),560906.3000000119,2000,O,z,1309,5,1,4091.800000011921,556814.5,7795,NTS,B,4
7,2,prac,3,C,triangle.png,0,z,Mon May 11 2026 10:17:49 GMT-0500 (Central Daylight Time),564389.1999999881,1200,O,None,1501,6,1,3476.899999976158,560912.3000000119,7795,NTS,B,5
1,2,prac,3,C,circle.png,0,z,Mon May 11 2026 10:17:49 GMT-0500 (Central Daylight Time),568388.3000000119,1700,O,None,1514,1,1,3993.5,564394.8000000119,7795,NTS,B,6
2,3,prac,3,C,triangle.png,1,m,Mon May 11 2026 10:17:49 GMT-0500 (Central Daylight Time),571869.1999999881,1600,O,m,1092,2,1,3473.099999964237,568396.1000000238,7795,NTS,B,7
6,4,prac,3,C,circle.png,1,m,Mon May 11 2026 10:17:49 GMT-0500 (Central Daylight Time),575502.5,2000,O,m,841,5,1,3625.100000023842,571877.3999999762,7795,NTS,B,8
9,5,prac,3,C,circle.png,1,m,Mon May 11 2026 10:17:49 GMT-0500 (Central Daylight Time),579332.8999999762,1900,O,m,1142,8,1,3824.5,575508.3999999762,7795,NTS,B,9
4,6,prac,3,C,circle.png,1,z,Mon May 11 2026 10:17:49 GMT-0500 (Central Daylight Time),582282.8000000119,1000,O,z,1169,4,1,2945.100000023842,579337.6999999881,7795,NTS,B,10
8,7,prac,3,C,triangle.png,1,m,Mon May 11 2026 10:17:49 GMT-0500 (Central Daylight Time),585699.0,1400,O,m,1235,7,1,3411.5,582287.5,7795,NTS,B,11
9,7,prac,3,C,circle.png,0,m,Mon May 11 2026 10:17:49 GMT-0500 (Central Daylight Time),589897.8999999762,1900,O,None,1517,8,1,4192.399999976158,585705.5,7795,NTS,B,12
1,1,prac,4,C,circle.png,1,z,Mon May 11 2026 10:17:49 GMT-0500 (Central Daylight Time),607792.6999999881,1700,O,z,1220,1,1,3693.399999976158,604099.3000000119,7795,NTS,B,1
6,2,prac,4,C,circle.png,1,m,Mon May 11 2026 10:17:49 GMT-0500 (Central Daylight Time),611406.6999999881,2000,O,m,823,5,1,3607.399999976158,607799.3000000119,7795,NTS,B,2
9,3,prac,4,C,circle.png,1,m,Mon May 11 2026 10:17:49 GMT-0500 (Central Daylight Time),615090.1999999881,1900,O,m,1005,8,1,3679.800000011921,611410.3999999762,7795,NTS,B,3
4,4,prac,4,C,circle.png,1,z,Mon May 11 2026 10:17:49 GMT-0500 (Central Daylight Time),617806.6000000238,1000,O,z,927,4,1,2709.300000011921,615097.3000000119,7795,NTS,B,4
3,5,prac,4,C,triangle.png,1,z,Mon May 11 2026 10:17:49 GMT-0500 (Central Daylight Time),621370.8999999762,1500,O,z,1265,3,1,3560.0,617810.8999999762,7795,NTS,B,5
9,6,prac,4,C,circle.png,1,m,Mon May 11 2026 10:17:49 GMT-0500 (Central Daylight Time),625053.5,1900,O,m,992,8,1,3676.300000011921,621377.1999999881,7795,NTS,B,6
8,7,prac,4,C,triangle.png,1,m,Mon May 11 2026 10:17:49 GMT-0500 (Central Daylight Time),628601.6000000238,1400,O,m,1379,7,1,3543.0,625058.6000000238,7795,NTS,B,7
8,8,prac,4,C,triangle.png,1,m,Mon May 11 2026 10:17:49 GMT-0500 (Central Daylight Time),631735.0,1400,O,m,932,7,1,3128.899999976158,628606.1000000238,7795,NTS,B,8
2,9,prac,4,C,triangle.png,1,m,Mon May 11 2026 10:17:49 GMT-0500 (Central Daylight Time),635282.8999999762,1600,O,m,1162,2,1,3542.199999988079,631740.6999999881,7795,NTS,B,9
3,10,prac,4,C,triangle.png,1,z,Mon May 11 2026 10:17:49 GMT-0500 (Central Daylight Time),638515.8999999762,1500,O,z,937,3,1,3225.2999999523163,635290.6000000238,7795,NTS,B,10
7,10,prac,4,C,triangle.png,0,z,Mon May 11 2026 10:17:49 GMT-0500 (Central Daylight Time),642013.5,1200,O,None,1517,6,1,3491.100000023842,638522.3999999762,7795,NTS,B,11
1,11,prac,4,C,circle.png,1,z,Mon May 11 2026 10:17:49 GMT-0500 (Central Daylight Time),645412.5,1700,O,z,901,1,1,3390.899999976158,642021.6000000238,7795,NTS,B,12
4,0,test,1,C,triangle.png,0,m,Mon May 11 2026 10:17:49 GMT-0500 (Central Daylight Time),680900.8999999762,1500,O,None,1516,20,1,3030.2999999523163,677870.6000000238,7795,NTS,B,1
6,0,test,1,C,circle.png,0,m,Mon May 11 2026 10:17:49 GMT-0500 (Central Daylight Time),684333.6999999881,1900,O,None,1517,21,1,3428.699999988079,680905.0,7795,NTS,B,2
3,1,test,1,C,circle.png,1,z,Mon May 11 2026 10:17:49 GMT-0500 (Central Daylight Time),687132.8000000119,1600,O,z,1179,11,1,2796.300000011921,684336.5,7795,NTS,B,3
9,1,test,1,C,triangle.png,0,z,Mon May 11 2026 10:17:49 GMT-0500 (Central Daylight Time),690065.0,1400,O,None,1516,16,1,2928.800000011921,687136.1999999881,7795,NTS,B,4
6,2,test,1,C,triangle.png,1,m,Mon May 11 2026 10:17:49 GMT-0500 (Central Daylight Time),692030.8999999762,1000,O,m,949,13,1,1963.0999999642372,690067.8000000119,7795,NTS,B,5
3,3,test,1,C,triangle.png,1,z,Mon May 11 2026 10:17:49 GMT-0500 (Central Daylight Time),694247.1999999881,1200,O,z,992,3,1,2213.699999988079,692033.5,7795,NTS,B,6
7,4,test,1,C,triangle.png,1,z,Mon May 11 2026 10:17:49 GMT-0500 (Central Daylight Time),697379.1999999881,1700,O,z,1413,22,1,3129.0,694250.1999999881,7795,NTS,B,7
7,4,test,1,C,circle.png,0,m,Mon May 11 2026 10:17:49 GMT-0500 (Central Daylight Time),700910.6999999881,2000,O,None,1516,14,1,3529.099999964237,697381.6000000238,7795,NTS,B,8
3,5,test,1,C,circle.png,1,z,Mon May 11 2026 10:17:49 GMT-0500 (Central Daylight Time),703759.6999999881,1600,O,z,1216,19,1,2845.899999976158,700913.8000000119,7795,NTS,B,9
1,6,test,1,C,triangle.png,1,z,Mon May 11 2026 10:17:49 GMT-0500 (Central Daylight Time),706875.8000000119,1900,O,z,1195,17,1,3113.300000011921,703762.5,7795,NTS,B,10
1,6,test,1,C,triangle.png,0,z,Mon May 11 2026 10:17:49 GMT-0500 (Central Daylight Time),710308.1000000238,1900,O,None,1516,9,1,3428.5,706879.6000000238,7795,NTS,B,11
2,7,test,1,C,triangle.png,1,m,Mon May 11 2026 10:17:49 GMT-0500 (Central Daylight Time),713473.1999999881,2000,O,m,1140,2,1,3162.399999976158,710310.8000000119,7795,NTS,B,12
6,7,test,1,C,circle.png,0,m,Mon May 11 2026 10:17:49 GMT-0500 (Central Daylight Time),716907.8999999762,1900,O,None,1518,5,1,3432.099999964237,713475.8000000119,7795,NTS,B,13
9,8,test,1,C,circle.png,1,m,Mon May 11 2026 10:17:49 GMT-0500 (Central Daylight Time),719688.8000000119,1500,O,m,1250,8,1,2777.900000035763,716910.8999999762,7795,NTS,B,14
1,9,test,1,C,circle.png,1,z,Mon May 11 2026 10:17:49 GMT-0500 (Central Daylight Time),721505.0,1000,O,z,790,1,1,1813.6000000238419,719691.3999999762,7795,NTS,B,15
7,10,test,1,C,triangle.png,1,z,Mon May 11 2026 10:17:49 GMT-0500 (Central Daylight Time),724653.8999999762,1700,O,z,1427,6,1,3146.0,721507.8999999762,7795,NTS,B,16
2,10,test,1,C,circle.png,0,z,Mon May 11 2026 10:17:49 GMT-0500 (Central Daylight Time),727886.3999999762,1700,O,None,1516,18,1,3229.699999988079,724656.6999999881,7795,NTS,B,17
8,11,test,1,C,circle.png,1,m,Mon May 11 2026 10:17:49 GMT-0500 (Central Daylight Time),730485.3000000119,1200,O,m,1368,15,1,2596.300000011921,727889.0,7795,NTS,B,18
4,12,test,1,C,circle.png,1,z,Mon May 11 2026 10:17:49 GMT-0500 (Central Daylight Time),733217.6999999881,1400,O,z,1307,4,1,2729.800000011921,730487.8999999762,7795,NTS,B,19
4,12,test,1,C,triangle.png,0,m,Mon May 11 2026 10:17:49 GMT-0500 (Central Daylight Time),736249.8999999762,1500,O,None,1516,12,1,3029.399999976158,733220.5,7795,NTS,B,20
2,13,test,1,C,circle.png,1,z,Mon May 11 2026 10:17:49 GMT-0500 (Central Daylight Time),739415.8999999762,1700,O,z,1432,10,1,3163.5,736252.3999999762,7795,NTS,B,21
9,14,test,1,C,circle.png,1,m,Mon May 11 2026 10:17:49 GMT-0500 (Central Daylight Time),741831.5,1500,O,m,892,24,1,2412.600000023842,739418.8999999762,7795,NTS,B,22
8,15,test,1,C,triangle.png,1,m,Mon May 11 2026 10:17:49 GMT-0500 (Central Daylight Time),744764.5,1600,O,m,1310,7,1,2930.0,741834.5,7795,NTS,B,23
8,16,test,1,C,triangle.png,1,m,Mon May 11 2026 10:17:49 GMT-0500 (Central Daylight Time),747296.5,1600,O,m,907,23,1,2529.199999988079,744767.3000000119,7795,NTS,B,24
3,1,test,2,C,circle.png,1,z,Mon May 11 2026 10:17:49 GMT-0500 (Central Daylight Time),771305.3999999762,1600,O,z,1463,11,1,3080.599999964237,768224.8000000119,7795,NTS,B,1
6,2,test,2,C,circle.png,1,m,Mon May 11 2026 10:17:49 GMT-0500 (Central Daylight Time),774504.6000000238,1900,O,m,1274,5,1,3196.300000011921,771308.3000000119,7795,NTS,B,2
1,2,test,2,C,circle.png,0,z,Mon May 11 2026 10:17:49 GMT-0500 (Central Daylight Time),776437.8000000119,1000,O,m,902,1,1,1930.300000011921,774507.5,7795,NTS,B,3
6,3,test,2,C,triangle.png,1,m,Mon May 11 2026 10:17:49 GMT-0500 (Central Daylight Time),778768.3999999762,1000,O,m,1314,21,1,2327.7999999523163,776440.6000000238,7795,NTS,B,4
1,4,test,2,C,triangle.png,1,z,Mon May 11 2026 10:17:49 GMT-0500 (Central Daylight Time),781585.3000000119,1900,O,z,883,17,1,2814.300000011921,778771.0,7795,NTS,B,5
4,5,test,2,C,triangle.png,1,m,Mon May 11 2026 10:17:49 GMT-0500 (Central Daylight Time),784467.6000000238,1500,O,m,1360,12,1,2879.7000000476837,781587.8999999762,7795,NTS,B,6
1,6,test,2,C,triangle.png,1,z,Mon May 11 2026 10:17:49 GMT-0500 (Central Daylight Time),787716.6999999881,1900,O,z,1318,9,1,3246.300000011921,784470.3999999762,7795,NTS,B,7
6,7,test,2,C,triangle.png,1,m,Mon May 11 2026 10:17:49 GMT-0500 (Central Daylight Time),789899.6000000238,1000,O,m,1163,13,1,2176.400000035763,787723.1999999881,7795,NTS,B,8
8,8,test,2,C,circle.png,1,m,Mon May 11 2026 10:17:49 GMT-0500 (Central Daylight Time),792082.3000000119,1200,O,m,963,15,1,2178.800000011921,789903.5,7795,NTS,B,9
7,9,test,2,C,triangle.png,1,z,Mon May 11 2026 10:17:49 GMT-0500 (Central Daylight Time),795147.8999999762,1700,O,z,1337,6,1,3062.7999999523163,792085.1000000238,7795,NTS,B,10
9,10,test,2,C,triangle.png,1,z,Mon May 11 2026 10:17:49 GMT-0500 (Central Daylight Time),797697.3000000119,1400,O,z,1124,24,1,2545.0,795152.3000000119,7795,NTS,B,11
2,10,test,2,C,circle.png,0,z,Mon May 11 2026 10:17:49 GMT-0500 (Central Daylight Time),800929.6000000238,1700,O,None,1516,10,1,3228.7000000476837,797700.8999999762,7795,NTS,B,12
9,11,test,2,C,triangle.png,1,z,Mon May 11 2026 10:17:49 GMT-0500 (Central Daylight Time),803793.6999999881,1400,O,z,1446,16,1,2857.699999988079,800936.0,7795,NTS,B,13
7,12,test,2,C,circle.png,1,m,Mon May 11 2026 10:17:49 GMT-0500 (Central Daylight Time),806944.0,2000,O,m,1116,22,1,3146.800000011921,803797.1999999881,7795,NTS,B,14
8,13,test,2,C,triangle.png,1,m,Mon May 11 2026 10:17:49 GMT-0500 (Central Daylight Time),809993.1000000238,1600,O,m,1415,7,1,3046.0,806947.1000000238,7795,NTS,B,15
9,14,test,2,C,circle.png,1,m,Mon May 11 2026 10:17:49 GMT-0500 (Central Daylight Time),812841.6999999881,1500,O,m,1322,8,1,2845.099999964237,809996.6000000238,7795,NTS,B,16
4,15,test,2,C,circle.png,1,z,Mon May 11 2026 10:17:49 GMT-0500 (Central Daylight Time),815157.8000000119,1400,O,z,885,4,1,2312.300000011921,812845.5,7795,NTS,B,17
2,16,test,2,C,circle.png,1,z,Mon May 11 2026 10:17:49 GMT-0500 (Central Daylight Time),818057.1000000238,1700,O,z,1182,18,1,2895.800000011921,815161.3000000119,7795,NTS,B,18
8,17,test,2,C,circle.png,1,m,Mon May 11 2026 10:17:49 GMT-0500 (Central Daylight Time),820705.8999999762,1200,O,m,1430,23,1,2645.899999976158,818060.0,7795,NTS,B,19
3,18,test,2,C,circle.png,1,z,Mon May 11 2026 10:17:49 GMT-0500 (Central Daylight Time),823255.1999999881,1600,O,z,916,19,1,2546.0,820709.1999999881,7795,NTS,B,20
7,19,test,2,C,circle.png,1,m,Mon May 11 2026 10:17:49 GMT-0500 (Central Daylight Time),826721.3999999762,2000,O,m,1449,14,1,3463.399999976158,823258.0,7795,NTS,B,21
4,19,test,2,C,triangle.png,0,m,Mon May 11 2026 10:17:49 GMT-0500 (Central Daylight Time),829653.0,1500,O,z,1401,20,1,2928.100000023842,826724.8999999762,7795,NTS,B,22
2,20,test,2,C,triangle.png,1,m,Mon May 11 2026 10:17:49 GMT-0500 (Central Daylight Time),832702.3000000119,2000,O,m,1026,2,1,3046.400000035763,829655.8999999762,7795,NTS,B,23
3,21,test,2,C,triangle.png,1,z,Mon May 11 2026 10:17:49 GMT-0500 (Central Daylight Time),834818.0,1200,O,z,888,3,1,2112.899999976158,832705.1000000238,7795,NTS,B,24
9,1,test,3,C,triangle.png,1,z,Mon May 11 2026 10:17:49 GMT-0500 (Central Daylight Time),848264.1000000238,1400,O,z,1200,16,1,2629.7000000476837,845634.3999999762,7795,NTS,B,1
1,2,test,3,C,circle.png,1,z,Mon May 11 2026 10:17:49 GMT-0500 (Central Daylight Time),850646.3000000119,1000,O,z,1359,1,1,2379.199999988079,848267.1000000238,7795,NTS,B,2
9,2,test,3,C,circle.png,0,m,Mon May 11 2026 10:17:49 GMT-0500 (Central Daylight Time),853678.8999999762,1500,O,None,1516,8,1,3029.899999976158,850649.0,7795,NTS,B,3
4,3,test,3,C,circle.png,1,z,Mon May 11 2026 10:17:49 GMT-0500 (Central Daylight Time),856160.6000000238,1400,O,z,1063,20,1,2478.7000000476837,853681.8999999762,7795,NTS,B,4
1,3,test,3,C,circle.png,0,z,Mon May 11 2026 10:17:49 GMT-0500 (Central Daylight Time),858210.8999999762,1000,O,m,1029,17,1,2047.5,856163.3999999762,7795,NTS,B,5
8,4,test,3,C,triangle.png,1,m,Mon May 11 2026 10:17:49 GMT-0500 (Central Daylight Time),860876.6000000238,1600,O,m,1044,7,1,2662.900000035763,858213.6999999881,7795,NTS,B,6
6,5,test,3,C,triangle.png,1,m,Mon May 11 2026 10:17:49 GMT-0500 (Central Daylight Time),862759.8999999762,1000,O,m,850,13,1,1880.3999999761581,860879.5,7795,NTS,B,7
2,6,test,3,C,triangle.png,1,m,Mon May 11 2026 10:17:49 GMT-0500 (Central Daylight Time),865576.6999999881,2000,O,m,792,2,1,2813.899999976158,862762.8000000119,7795,NTS,B,8
7,6,test,3,C,circle.png,0,m,Mon May 11 2026 10:17:49 GMT-0500 (Central Daylight Time),869091.8000000119,2000,O,None,1501,14,1,3511.100000023842,865580.6999999881,7795,NTS,B,9
7,7,test,3,C,triangle.png,1,z,Mon May 11 2026 10:17:49 GMT-0500 (Central Daylight Time),872074.1999999881,1700,O,z,1257,22,1,2979.5,869094.6999999881,7795,NTS,B,10
3,8,test,3,C,triangle.png,1,z,Mon May 11 2026 10:17:49 GMT-0500 (Central Daylight Time),874355.8000000119,1200,O,z,1053,3,1,2278.400000035763,872077.3999999762,7795,NTS,B,11
4,9,test,3,C,triangle.png,1,m,Mon May 11 2026 10:17:49 GMT-0500 (Central Daylight Time),876838.8999999762,1500,O,m,967,12,1,2480.5,874358.3999999762,7795,NTS,B,12
7,10,test,3,C,triangle.png,1,z,Mon May 11 2026 10:17:49 GMT-0500 (Central Daylight Time),879504.8000000119,1700,O,z,940,6,1,2662.600000023842,876842.1999999881,7795,NTS,B,13
9,11,test,3,C,circle.png,1,m,Mon May 11 2026 10:17:49 GMT-0500 (Central Daylight Time),882019.8999999762,1500,O,m,995,24,1,2512.0,879507.8999999762,7795,NTS,B,14
8,12,test,3,C,circle.png,1,m,Mon May 11 2026 10:17:49 GMT-0500 (Central Daylight Time),884285.3999999762,1200,O,m,1042,15,1,2259.199999988079,882026.1999999881,7795,NTS,B,15
1,13,test,3,C,triangle.png,1,z,Mon May 11 2026 10:17:49 GMT-0500 (Central Daylight Time),887617.8999999762,1900,O,z,1406,9,1,3329.699999988079,884288.1999999881,7795,NTS,B,16
2,13,test,3,C,circle.png,0,z,Mon May 11 2026 10:17:49 GMT-0500 (Central Daylight Time),890851.1999999881,1700,O,None,1516,10,1,3230.300000011921,887620.8999999762,7795,NTS,B,17
3,13,test,3,C,triangle.png,0,z,Mon May 11 2026 10:17:49 GMT-0500 (Central Daylight Time),893532.6000000238,1200,O,m,1460,19,1,2677.400000035763,890855.1999999881,7795,NTS,B,18
3,14,test,3,C,circle.png,1,z,Mon May 11 2026 10:17:49 GMT-0500 (Central Daylight Time),896615.3999999762,1600,O,z,1450,11,1,3079.699999988079,893535.6999999881,7795,NTS,B,19
6,15,test,3,C,circle.png,1,m,Mon May 11 2026 10:17:49 GMT-0500 (Central Daylight Time),899680.6000000238,1900,O,m,1133,21,1,3060.900000035763,896619.6999999881,7795,NTS,B,20
6,15,test,3,C,circle.png,0,m,Mon May 11 2026 10:17:49 GMT-0500 (Central Daylight Time),903113.1000000238,1900,O,None,1516,5,1,3429.600000023842,899683.5,7795,NTS,B,21
2,15,test,3,C,triangle.png,0,m,Mon May 11 2026 10:17:49 GMT-0500 (Central Daylight Time),906645.8000000119,2000,O,None,1516,18,1,3529.800000011921,903116.0,7795,NTS,B,22
8,16,test,3,C,triangle.png,1,m,Mon May 11 2026 10:17:49 GMT-0500 (Central Daylight Time),909244.5,1600,O,m,978,23,1,2595.300000011921,906649.1999999881,7795,NTS,B,23
4,17,test,3,C,circle.png,1,z,Mon May 11 2026 10:17:49 GMT-0500 (Central Daylight Time),912027.3000000119,1400,O,z,1353,4,1,2779.699999988079,909247.6000000238,7795,NTS,B,24
4,0,test,4,C,triangle.png,0,m,Mon May 11 2026 10:17:49 GMT-0500 (Central Daylight Time),922041.1000000238,1500,O,z,1339,12,1,2863.400000035763,919177.6999999881,7795,NTS,B,1
2,1,test,4,C,triangle.png,1,m,Mon May 11 2026 10:17:49 GMT-0500 (Central Daylight Time),925288.8999999762,2000,O,m,1230,18,1,3245.199999988079,922043.6999999881,7795,NTS,B,2
2,2,test,4,C,circle.png,1,z,Mon May 11 2026 10:17:49 GMT-0500 (Central Daylight Time),928089.3000000119,1700,O,z,1067,10,1,2797.199999988079,925292.1000000238,7795,NTS,B,3
3,3,test,4,C,triangle.png,1,z,Mon May 11 2026 10:17:49 GMT-0500 (Central Daylight Time),930705.1999999881,1200,O,z,1384,3,1,2613.099999964237,928092.1000000238,7795,NTS,B,4
3,4,test,4,C,triangle.png,1,z,Mon May 11 2026 10:17:49 GMT-0500 (Central Daylight Time),932753.8000000119,1200,O,z,822,19,1,2046.0,930707.8000000119,7795,NTS,B,5
6,5,test,4,C,triangle.png,1,m,Mon May 11 2026 10:17:49 GMT-0500 (Central Daylight Time),934669.3000000119,1000,O,m,892,13,1,1910.300000011921,932759.0,7795,NTS,B,6
4,6,test,4,C,circle.png,1,z,Mon May 11 2026 10:17:49 GMT-0500 (Central Daylight Time),937119.0,1400,O,z,1017,20,1,2447.199999988079,934671.8000000119,7795,NTS,B,7
1,7,test,4,C,triangle.png,1,z,Mon May 11 2026 10:17:49 GMT-0500 (Central Daylight Time),940484.5,1900,O,z,1443,9,1,3362.899999976158,937121.6000000238,7795,NTS,B,8
8,8,test,4,C,circle.png,1,m,Mon May 11 2026 10:17:49 GMT-0500 (Central Daylight Time),943201.3000000119,1200,O,m,1485,15,1,2713.300000011921,940488.0,7795,NTS,B,9
7,9,test,4,C,triangle.png,1,z,Mon May 11 2026 10:17:49 GMT-0500 (Central Daylight Time),946282.5,1700,O,z,1362,6,1,3078.100000023842,943204.3999999762,7795,NTS,B,10
9,10,test,4,C,circle.png,1,m,Mon May 11 2026 10:17:49 GMT-0500 (Central Daylight Time),948914.1999999881,1500,O,m,1112,24,1,2629.199999988079,946285.0,7795,NTS,B,11
9,11,test,4,C,triangle.png,1,z,Mon May 11 2026 10:17:49 GMT-0500 (Central Daylight Time),951697.8000000119,1400,O,z,1363,16,1,2780.800000011921,948917.0,7795,NTS,B,12
8,12,test,4,C,triangle.png,1,m,Mon May 11 2026 10:17:49 GMT-0500 (Central Daylight Time),954329.3000000119,1600,O,m,1006,7,1,2627.0,951702.3000000119,7795,NTS,B,13
9,13,test,4,C,circle.png,1,m,Mon May 11 2026 10:17:49 GMT-0500 (Central Daylight Time),957145.3999999762,1500,O,m,1296,8,1,2812.599999964237,954332.8000000119,7795,NTS,B,14
8,13,test,4,C,triangle.png,0,m,Mon May 11 2026 10:17:49 GMT-0500 (Central Daylight Time),960127.8000000119,1600,O,z,1357,23,1,2979.5,957148.3000000119,7795,NTS,B,15
7,14,test,4,C,circle.png,1,m,Mon May 11 2026 10:17:49 GMT-0500 (Central Daylight Time),963477.3000000119,2000,O,m,1326,14,1,3346.900000035763,960130.3999999762,7795,NTS,B,16
1,15,test,4,C,circle.png,1,z,Mon May 11 2026 10:17:49 GMT-0500 (Central Daylight Time),965359.8000000119,1000,O,z,849,1,1,1879.4000000357628,963480.3999999762,7795,NTS,B,17
3,16,test,4,C,circle.png,1,z,Mon May 11 2026 10:17:49 GMT-0500 (Central Daylight Time),967725.8000000119,1600,O,z,731,11,1,2363.100000023842,965362.6999999881,7795,NTS,B,18
4,16,test,4,C,circle.png,0,z,Mon May 11 2026 10:17:49 GMT-0500 (Central Daylight Time),970658.1999999881,1400,O,None,1515,4,1,2929.199999988079,967729.0,7795,NTS,B,19
6,17,test,4,C,circle.png,1,m,Mon May 11 2026 10:17:49 GMT-0500 (Central Daylight Time),973574.3000000119,1900,O,m,992,21,1,2913.0,970661.3000000119,7795,NTS,B,20
2,17,test,4,C,triangle.png,0,m,Mon May 11 2026 10:17:49 GMT-0500 (Central Daylight Time),976706.6999999881,2000,O,z,1105,2,1,3129.899999976158,973576.8000000119,7795,NTS,B,21
7,17,test,4,C,triangle.png,0,z,Mon May 11 2026 10:17:49 GMT-0500 (Central Daylight Time),979372.1000000238,1700,O,m,944,22,1,2662.100000023842,976710.0,7795,NTS,B,22
1,18,test,4,C,circle.png,1,z,Mon May 11 2026 10:17:49 GMT-0500 (Central Daylight Time),981572.5,1000,O,z,1178,17,1,2197.600000023842,979374.8999999762,7795,NTS,B,23
6,18,test,4,C,circle.png,0,m,Mon May 11 2026 10:17:49 GMT-0500 (Central Daylight Time),985003.6000000238,1900,O,None,1516,5,1,3428.0,981575.6000000238,7795,NTS,B,24
