Number,acc_sum,block,block_c,block_cond,con_img,correct,correct_response,datetime,endtime,jitter,project,response,response_time,row_sel,session_number,start_end,starttime,subject_id,task,task_vers,trial
7,0,prac,1,A,circle.png,0,m,Mon Jan 12 2026 12:58:19 GMT-0500 (Eastern Standard Time),71907.80000019073,1700,I,None,1514,6,2,3988.6000003814697,67919.19999980927,9028,NTS,B,1
9,1,prac,1,A,circle.png,1,m,Mon Jan 12 2026 12:58:19 GMT-0500 (Eastern Standard Time),74791.19999980927,1500,I,m,594,8,2,2872.3999996185303,71918.80000019073,9028,NTS,B,2
1,2,prac,1,A,circle.png,1,z,Mon Jan 12 2026 12:58:19 GMT-0500 (Eastern Standard Time),77157.80000019073,1000,I,z,580,1,2,2354.800000190735,74803.0,9028,NTS,B,3
2,3,prac,1,A,circle.png,1,z,Mon Jan 12 2026 12:58:19 GMT-0500 (Eastern Standard Time),80707.80000019073,2000,I,z,733,2,2,3531.800000190735,77176.0,9028,NTS,B,4
8,4,prac,1,A,circle.png,1,m,Mon Jan 12 2026 12:58:19 GMT-0500 (Eastern Standard Time),83574.5,1600,I,m,478,7,2,2854.5999994277954,80719.9000005722,9028,NTS,B,5
3,5,prac,1,A,circle.png,1,z,Mon Jan 12 2026 12:58:19 GMT-0500 (Eastern Standard Time),86157.69999980927,1200,I,z,589,3,2,2571.8999996185303,83585.80000019073,9028,NTS,B,6
4,6,prac,1,A,circle.png,1,z,Mon Jan 12 2026 12:58:19 GMT-0500 (Eastern Standard Time),89274.4000005722,1400,I,z,926,4,2,3106.2000007629395,86168.19999980927,9028,NTS,B,7
8,7,prac,1,A,circle.png,1,m,Mon Jan 12 2026 12:58:19 GMT-0500 (Eastern Standard Time),92441.10000038147,1600,I,m,778,7,2,3155.800000190735,89285.30000019073,9028,NTS,B,8
3,8,prac,1,A,circle.png,1,z,Mon Jan 12 2026 12:58:19 GMT-0500 (Eastern Standard Time),95174.5,1200,I,z,747,3,2,2721.0999994277954,92453.4000005722,9028,NTS,B,9
6,9,prac,1,A,circle.png,1,m,Mon Jan 12 2026 12:58:19 GMT-0500 (Eastern Standard Time),98341.10000038147,1900,I,m,482,5,2,3155.9000005722046,95185.19999980927,9028,NTS,B,10
9,10,prac,1,A,circle.png,1,m,Mon Jan 12 2026 12:58:19 GMT-0500 (Eastern Standard Time),101241.10000038147,1500,I,m,611,8,2,2890.1000003814697,98351.0,9028,NTS,B,11
4,11,prac,1,A,circle.png,1,z,Mon Jan 12 2026 12:58:19 GMT-0500 (Eastern Standard Time),104007.80000019073,1400,I,z,579,4,2,2756.5,101251.30000019073,9028,NTS,B,12
9,1,prac,1,B,triangle.png,1,z,Mon Jan 12 2026 12:58:19 GMT-0500 (Eastern Standard Time),154324.30000019073,1400,I,z,817,8,2,3006.3999996185303,151317.9000005722,9028,NTS,B,1
6,2,prac,1,B,triangle.png,1,m,Mon Jan 12 2026 12:58:19 GMT-0500 (Eastern Standard Time),156707.60000038147,1000,I,m,585,5,2,2369.800000190735,154337.80000019073,9028,NTS,B,2
1,3,prac,1,B,triangle.png,1,z,Mon Jan 12 2026 12:58:19 GMT-0500 (Eastern Standard Time),159974.30000019073,1900,I,z,581,1,2,3256.1000003814697,156718.19999980927,9028,NTS,B,3
8,4,prac,1,B,triangle.png,1,m,Mon Jan 12 2026 12:58:19 GMT-0500 (Eastern Standard Time),162641.0,1200,I,m,670,7,2,2656.699999809265,159984.30000019073,9028,NTS,B,4
2,4,prac,1,B,triangle.png,0,m,Mon Jan 12 2026 12:58:19 GMT-0500 (Eastern Standard Time),166307.60000038147,1700,I,z,1151,2,2,3646.5,162661.10000038147,9028,NTS,B,5
4,5,prac,1,B,triangle.png,1,m,Mon Jan 12 2026 12:58:19 GMT-0500 (Eastern Standard Time),169224.30000019073,1500,I,m,629,4,2,2905.699999809265,166318.60000038147,9028,NTS,B,6
7,6,prac,1,B,triangle.png,1,z,Mon Jan 12 2026 12:58:19 GMT-0500 (Eastern Standard Time),172724.30000019073,2000,I,z,700,6,2,3490.0,169234.30000019073,9028,NTS,B,7
6,7,prac,1,B,triangle.png,1,m,Mon Jan 12 2026 12:58:19 GMT-0500 (Eastern Standard Time),175274.19999980927,1000,I,m,760,5,2,2536.0999994277954,172738.10000038147,9028,NTS,B,8
3,8,prac,1,B,triangle.png,1,z,Mon Jan 12 2026 12:58:19 GMT-0500 (Eastern Standard Time),178357.69999980927,1600,I,z,698,3,2,3073.3999996185303,175284.30000019073,9028,NTS,B,9
7,9,prac,1,B,triangle.png,1,z,Mon Jan 12 2026 12:58:19 GMT-0500 (Eastern Standard Time),181957.60000038147,2000,I,z,815,6,2,3589.4000005722046,178368.19999980927,9028,NTS,B,10
3,10,prac,1,B,triangle.png,1,z,Mon Jan 12 2026 12:58:19 GMT-0500 (Eastern Standard Time),184974.19999980927,1600,I,z,623,3,2,3006.5,181967.69999980927,9028,NTS,B,11
1,11,prac,1,B,triangle.png,1,z,Mon Jan 12 2026 12:58:19 GMT-0500 (Eastern Standard Time),188357.60000038147,1900,I,z,682,1,2,3373.300000190735,184984.30000019073,9028,NTS,B,12
6,1,test,1,A,circle.png,1,m,Mon Jan 12 2026 12:58:19 GMT-0500 (Eastern Standard Time),225174.30000019073,1900,I,m,749,5,2,2674.6000003814697,222499.69999980927,9028,NTS,B,1
2,2,test,1,A,circle.png,1,z,Mon Jan 12 2026 12:58:19 GMT-0500 (Eastern Standard Time),228040.69999980927,2000,I,z,846,2,2,2858.5,225182.19999980927,9028,NTS,B,2
9,3,test,1,A,circle.png,1,m,Mon Jan 12 2026 12:58:19 GMT-0500 (Eastern Standard Time),230224.10000038147,1500,I,m,637,8,2,2166.800000190735,228057.30000019073,9028,NTS,B,3
1,4,test,1,A,circle.png,1,z,Mon Jan 12 2026 12:58:19 GMT-0500 (Eastern Standard Time),232074.10000038147,1000,I,z,828,1,2,1841.6000003814697,230232.5,9028,NTS,B,4
2,5,test,1,A,circle.png,1,z,Mon Jan 12 2026 12:58:19 GMT-0500 (Eastern Standard Time),234774.10000038147,2000,I,z,665,2,2,2689.4000005722046,232084.69999980927,9028,NTS,B,5
1,6,test,1,A,circle.png,1,z,Mon Jan 12 2026 12:58:19 GMT-0500 (Eastern Standard Time),236390.5,1000,I,z,598,1,2,1601.5,234789.0,9028,NTS,B,6
4,7,test,1,A,circle.png,1,z,Mon Jan 12 2026 12:58:19 GMT-0500 (Eastern Standard Time),238524.19999980927,1400,I,z,710,4,2,2125.3999996185303,236398.80000019073,9028,NTS,B,7
6,8,test,1,A,circle.png,1,m,Mon Jan 12 2026 12:58:19 GMT-0500 (Eastern Standard Time),240890.60000038147,1900,I,m,444,5,2,2358.9000005722046,238531.69999980927,9028,NTS,B,8
3,9,test,1,A,circle.png,1,z,Mon Jan 12 2026 12:58:19 GMT-0500 (Eastern Standard Time),242774.10000038147,1200,I,z,649,3,2,1875.4000005722046,240898.69999980927,9028,NTS,B,9
3,10,test,1,A,circle.png,1,z,Mon Jan 12 2026 12:58:19 GMT-0500 (Eastern Standard Time),244640.80000019073,1200,I,z,636,3,2,1855.0,242785.80000019073,9028,NTS,B,10
9,11,test,1,A,circle.png,1,m,Mon Jan 12 2026 12:58:19 GMT-0500 (Eastern Standard Time),246757.4000005722,1500,I,m,583,8,2,2108.800000190735,244648.60000038147,9028,NTS,B,11
3,12,test,1,A,circle.png,1,z,Mon Jan 12 2026 12:58:19 GMT-0500 (Eastern Standard Time),248707.5,1200,I,z,717,3,2,1941.6999998092651,246765.80000019073,9028,NTS,B,12
9,13,test,1,A,circle.png,1,m,Mon Jan 12 2026 12:58:19 GMT-0500 (Eastern Standard Time),250790.80000019073,1500,I,m,548,8,2,2072.8999996185303,248717.9000005722,9028,NTS,B,13
2,14,test,1,A,circle.png,1,z,Mon Jan 12 2026 12:58:19 GMT-0500 (Eastern Standard Time),253390.80000019073,2000,I,z,571,2,2,2592.0,250798.80000019073,9028,NTS,B,14
7,15,test,1,A,circle.png,1,m,Mon Jan 12 2026 12:58:19 GMT-0500 (Eastern Standard Time),255840.60000038147,1700,I,m,721,6,2,2439.300000190735,253401.30000019073,9028,NTS,B,15
4,16,test,1,A,circle.png,1,z,Mon Jan 12 2026 12:58:19 GMT-0500 (Eastern Standard Time),257874.10000038147,1400,I,z,602,4,2,2024.9000005722046,255849.19999980927,9028,NTS,B,16
6,17,test,1,A,circle.png,1,m,Mon Jan 12 2026 12:58:19 GMT-0500 (Eastern Standard Time),260474.10000038147,1900,I,m,678,5,2,2591.5,257882.60000038147,9028,NTS,B,17
2,18,test,1,A,circle.png,1,z,Mon Jan 12 2026 12:58:19 GMT-0500 (Eastern Standard Time),262990.69999980927,2000,I,z,490,2,2,2505.0999994277954,260485.60000038147,9028,NTS,B,18
7,19,test,1,A,circle.png,1,m,Mon Jan 12 2026 12:58:19 GMT-0500 (Eastern Standard Time),265357.19999980927,1700,I,m,641,6,2,2357.199999809265,263000.0,9028,NTS,B,19
3,20,test,1,A,circle.png,1,z,Mon Jan 12 2026 12:58:19 GMT-0500 (Eastern Standard Time),267274.10000038147,1200,I,z,693,3,2,1909.5,265364.60000038147,9028,NTS,B,20
8,21,test,1,A,circle.png,1,m,Mon Jan 12 2026 12:58:19 GMT-0500 (Eastern Standard Time),269424.0,1600,I,m,522,7,2,2141.800000190735,267282.19999980927,9028,NTS,B,21
8,22,test,1,A,circle.png,1,m,Mon Jan 12 2026 12:58:19 GMT-0500 (Eastern Standard Time),271540.60000038147,1600,I,m,484,7,2,2106.0,269434.60000038147,9028,NTS,B,22
4,23,test,1,A,circle.png,1,z,Mon Jan 12 2026 12:58:19 GMT-0500 (Eastern Standard Time),273573.9000005722,1400,I,z,599,4,2,2025.4000005722046,271548.5,9028,NTS,B,23
1,24,test,1,A,circle.png,1,z,Mon Jan 12 2026 12:58:19 GMT-0500 (Eastern Standard Time),275174.10000038147,1000,I,z,580,1,2,1592.3000001907349,273581.80000019073,9028,NTS,B,24
6,1,test,1,B,triangle.png,1,m,Mon Jan 12 2026 12:58:19 GMT-0500 (Eastern Standard Time),297690.69999980927,1500,I,m,628,13,2,2142.5,295548.19999980927,9028,NTS,B,1
8,2,test,1,B,triangle.png,1,m,Mon Jan 12 2026 12:58:19 GMT-0500 (Eastern Standard Time),300007.0,1700,I,m,598,15,2,2308.199999809265,297698.80000019073,9028,NTS,B,2
2,3,test,1,B,triangle.png,1,m,Mon Jan 12 2026 12:58:19 GMT-0500 (Eastern Standard Time),302007.19999980927,1200,I,m,781,10,2,1991.3999996185303,300015.80000019073,9028,NTS,B,3
1,4,test,1,B,triangle.png,1,z,Mon Jan 12 2026 12:58:19 GMT-0500 (Eastern Standard Time),304474.0,1900,I,z,545,1,2,2457.0999994277954,302016.9000005722,9028,NTS,B,4
4,5,test,1,B,triangle.png,1,m,Mon Jan 12 2026 12:58:19 GMT-0500 (Eastern Standard Time),306073.9000005722,1000,I,m,579,12,2,1589.3000001907349,304484.60000038147,9028,NTS,B,5
8,6,test,1,B,triangle.png,1,m,Mon Jan 12 2026 12:58:19 GMT-0500 (Eastern Standard Time),307874.0,1200,I,m,571,7,2,1791.5999994277954,306082.4000005722,9028,NTS,B,6
6,7,test,1,B,triangle.png,1,m,Mon Jan 12 2026 12:58:19 GMT-0500 (Eastern Standard Time),309974.10000038147,1500,I,m,582,13,2,2089.699999809265,307884.4000005722,9028,NTS,B,7
7,8,test,1,B,triangle.png,1,z,Mon Jan 12 2026 12:58:19 GMT-0500 (Eastern Standard Time),312590.60000038147,2000,I,z,591,6,2,2609.4000005722046,309981.19999980927,9028,NTS,B,8
2,9,test,1,B,triangle.png,1,m,Mon Jan 12 2026 12:58:19 GMT-0500 (Eastern Standard Time),314890.5,1700,I,m,578,2,2,2291.800000190735,312598.69999980927,9028,NTS,B,9
4,10,test,1,B,triangle.png,1,m,Mon Jan 12 2026 12:58:19 GMT-0500 (Eastern Standard Time),317057.30000019073,1500,I,m,638,4,2,2155.6000003814697,314901.69999980927,9028,NTS,B,10
7,11,test,1,B,triangle.png,1,z,Mon Jan 12 2026 12:58:19 GMT-0500 (Eastern Standard Time),319357.4000005722,1600,I,z,675,14,2,2292.6000003814697,317064.80000019073,9028,NTS,B,11
6,12,test,1,B,triangle.png,1,m,Mon Jan 12 2026 12:58:19 GMT-0500 (Eastern Standard Time),321007.30000019073,1000,I,m,623,5,2,1641.8000001907349,319365.5,9028,NTS,B,12
9,12,test,1,B,triangle.png,0,z,Mon Jan 12 2026 12:58:19 GMT-0500 (Eastern Standard Time),323690.80000019073,1900,I,m,761,16,2,2675.0,321015.80000019073,9028,NTS,B,13
3,13,test,1,B,triangle.png,1,z,Mon Jan 12 2026 12:58:19 GMT-0500 (Eastern Standard Time),326657.30000019073,2000,I,z,938,11,2,2958.6000003814697,323698.69999980927,9028,NTS,B,14
9,14,test,1,B,triangle.png,1,z,Mon Jan 12 2026 12:58:19 GMT-0500 (Eastern Standard Time),328890.60000038147,1400,I,z,811,8,2,2224.800000190735,326665.80000019073,9028,NTS,B,15
8,15,test,1,B,triangle.png,1,m,Mon Jan 12 2026 12:58:19 GMT-0500 (Eastern Standard Time),330690.5,1200,I,m,570,7,2,1791.0999994277954,328899.4000005722,9028,NTS,B,16
7,16,test,1,B,triangle.png,1,z,Mon Jan 12 2026 12:58:19 GMT-0500 (Eastern Standard Time),333023.9000005722,1600,I,z,706,14,2,2324.800000190735,330699.10000038147,9028,NTS,B,17
1,17,test,1,B,triangle.png,1,z,Mon Jan 12 2026 12:58:19 GMT-0500 (Eastern Standard Time),335173.5,1400,I,z,716,9,2,2138.5,333035.0,9028,NTS,B,18
6,18,test,1,B,triangle.png,1,m,Mon Jan 12 2026 12:58:19 GMT-0500 (Eastern Standard Time),336840.4000005722,1000,I,m,647,5,2,1661.7000007629395,335178.69999980927,9028,NTS,B,19
3,19,test,1,B,triangle.png,1,z,Mon Jan 12 2026 12:58:19 GMT-0500 (Eastern Standard Time),339540.60000038147,2000,I,z,668,11,2,2692.300000190735,336848.30000019073,9028,NTS,B,20
3,20,test,1,B,triangle.png,1,z,Mon Jan 12 2026 12:58:19 GMT-0500 (Eastern Standard Time),341807.30000019073,1600,I,z,640,3,2,2259.0,339548.30000019073,9028,NTS,B,21
2,21,test,1,B,triangle.png,1,m,Mon Jan 12 2026 12:58:19 GMT-0500 (Eastern Standard Time),344140.69999980927,1700,I,m,609,2,2,2324.699999809265,341816.0,9028,NTS,B,22
1,22,test,1,B,triangle.png,1,z,Mon Jan 12 2026 12:58:19 GMT-0500 (Eastern Standard Time),347107.19999980927,1900,I,z,1036,1,2,2959.0,344148.19999980927,9028,NTS,B,23
7,23,test,1,B,triangle.png,1,z,Mon Jan 12 2026 12:58:19 GMT-0500 (Eastern Standard Time),350090.60000038147,2000,I,z,961,6,2,2973.199999809265,347117.4000005722,9028,NTS,B,24
9,1,prac,1,C,circle.png,1,m,Mon Jan 12 2026 12:58:19 GMT-0500 (Eastern Standard Time),404090.60000038147,1900,I,m,809,8,2,3490.300000190735,400600.30000019073,9028,NTS,B,1
8,2,prac,1,C,triangle.png,1,m,Mon Jan 12 2026 12:58:19 GMT-0500 (Eastern Standard Time),407607.4000005722,1400,I,m,1330,7,2,3506.800000190735,404100.60000038147,9028,NTS,B,2
3,3,prac,1,C,triangle.png,1,z,Mon Jan 12 2026 12:58:19 GMT-0500 (Eastern Standard Time),410890.80000019073,1500,I,z,994,3,2,3273.199999809265,407617.60000038147,9028,NTS,B,3
9,4,prac,1,C,circle.png,1,m,Mon Jan 12 2026 12:58:19 GMT-0500 (Eastern Standard Time),414990.80000019073,1900,I,m,1405,8,2,4089.5,410901.30000019073,9028,NTS,B,4
6,4,prac,1,C,circle.png,0,m,Mon Jan 12 2026 12:58:19 GMT-0500 (Eastern Standard Time),419290.60000038147,2000,I,None,1516,5,2,4289.60000038147,415001.0,9028,NTS,B,5
1,4,prac,1,C,circle.png,0,z,Mon Jan 12 2026 12:58:19 GMT-0500 (Eastern Standard Time),422040.69999980927,1700,I,m,262,1,2,2740.0,419300.69999980927,9028,NTS,B,6
7,5,prac,1,C,triangle.png,1,z,Mon Jan 12 2026 12:58:19 GMT-0500 (Eastern Standard Time),425074.10000038147,1200,I,z,1036,6,2,3023.0,422051.10000038147,9028,NTS,B,7
1,5,prac,1,C,circle.png,0,z,Mon Jan 12 2026 12:58:19 GMT-0500 (Eastern Standard Time),428623.9000005722,1700,I,m,1055,1,2,3537.9000005722046,425086.0,9028,NTS,B,8
2,6,prac,1,C,triangle.png,1,m,Mon Jan 12 2026 12:58:19 GMT-0500 (Eastern Standard Time),432057.4000005722,1600,I,m,1045,2,2,3423.2000007629395,428634.19999980927,9028,NTS,B,9
4,6,prac,1,C,circle.png,0,z,Mon Jan 12 2026 12:58:19 GMT-0500 (Eastern Standard Time),435173.9000005722,1000,I,m,1331,4,2,3100.9000005722046,432073.0,9028,NTS,B,10
3,6,prac,1,C,triangle.png,0,z,Mon Jan 12 2026 12:58:19 GMT-0500 (Eastern Standard Time),438690.60000038147,1500,I,m,1219,3,2,3506.9000005722046,435183.69999980927,9028,NTS,B,11
8,6,prac,1,C,triangle.png,0,m,Mon Jan 12 2026 12:58:19 GMT-0500 (Eastern Standard Time),442390.60000038147,1400,I,None,1516,7,2,3687.5,438703.10000038147,9028,NTS,B,12
2,0,prac,2,C,triangle.png,0,m,Mon Jan 12 2026 12:58:19 GMT-0500 (Eastern Standard Time),460073.80000019073,1600,I,None,1516,2,2,3889.8999996185303,456183.9000005722,9028,NTS,B,1
7,1,prac,2,C,triangle.png,1,z,Mon Jan 12 2026 12:58:19 GMT-0500 (Eastern Standard Time),463340.69999980927,1200,I,z,1275,6,2,3257.5,460083.19999980927,9028,NTS,B,2
6,2,prac,2,C,circle.png,1,m,Mon Jan 12 2026 12:58:19 GMT-0500 (Eastern Standard Time),466773.9000005722,2000,I,m,647,5,2,3422.1000003814697,463351.80000019073,9028,NTS,B,3
3,3,prac,2,C,triangle.png,1,z,Mon Jan 12 2026 12:58:19 GMT-0500 (Eastern Standard Time),469823.9000005722,1500,I,z,755,3,2,3038.9000005722046,466785.0,9028,NTS,B,4
9,4,prac,2,C,circle.png,1,m,Mon Jan 12 2026 12:58:19 GMT-0500 (Eastern Standard Time),473207.19999980927,1900,I,m,697,8,2,3372.0999994277954,469835.10000038147,9028,NTS,B,5
6,5,prac,2,C,circle.png,1,m,Mon Jan 12 2026 12:58:19 GMT-0500 (Eastern Standard Time),476674.0,2000,I,m,669,5,2,3452.0,473222.0,9028,NTS,B,6
2,6,prac,2,C,triangle.png,1,m,Mon Jan 12 2026 12:58:19 GMT-0500 (Eastern Standard Time),480373.9000005722,1600,I,m,1315,2,2,3690.2000007629395,476683.69999980927,9028,NTS,B,7
3,6,prac,2,C,triangle.png,0,z,Mon Jan 12 2026 12:58:19 GMT-0500 (Eastern Standard Time),484173.9000005722,1500,I,None,1516,3,2,3787.5,480386.4000005722,9028,NTS,B,8
1,7,prac,2,C,circle.png,1,z,Mon Jan 12 2026 12:58:19 GMT-0500 (Eastern Standard Time),487773.80000019073,1700,I,z,1107,1,2,3587.6000003814697,484186.19999980927,9028,NTS,B,9
8,8,prac,2,C,triangle.png,1,m,Mon Jan 12 2026 12:58:19 GMT-0500 (Eastern Standard Time),490873.80000019073,1400,I,m,911,7,2,3090.300000190735,487783.5,9028,NTS,B,10
4,8,prac,2,C,circle.png,0,z,Mon Jan 12 2026 12:58:19 GMT-0500 (Eastern Standard Time),493990.60000038147,1000,I,m,1331,4,2,3107.1000003814697,490883.5,9028,NTS,B,11
9,9,prac,2,C,circle.png,1,m,Mon Jan 12 2026 12:58:19 GMT-0500 (Eastern Standard Time),497740.69999980927,1900,I,m,1057,8,2,3738.5999994277954,494002.10000038147,9028,NTS,B,12
2,1,test,1,C,triangle.png,1,m,Mon Jan 12 2026 12:58:19 GMT-0500 (Eastern Standard Time),525573.8000001907,2000,I,m,967,2,2,2992.5,522581.30000019073,9028,NTS,B,1
6,1,test,1,C,circle.png,0,m,Mon Jan 12 2026 12:58:19 GMT-0500 (Eastern Standard Time),529007.1000003815,1900,I,None,1516,5,2,3419.1000003814697,525588.0,9028,NTS,B,2
4,1,test,1,C,triangle.png,0,m,Mon Jan 12 2026 12:58:19 GMT-0500 (Eastern Standard Time),532040.4000005722,1500,I,None,1516,12,2,3024.7000007629395,529015.6999998093,9028,NTS,B,3
8,2,test,1,C,triangle.png,1,m,Mon Jan 12 2026 12:58:19 GMT-0500 (Eastern Standard Time),534907.0,1600,I,m,1244,7,2,2855.5999994277954,532051.4000005722,9028,NTS,B,4
3,3,test,1,C,circle.png,1,z,Mon Jan 12 2026 12:58:19 GMT-0500 (Eastern Standard Time),537573.8000001907,1600,I,z,1050,19,2,2657.3999996185303,534916.4000005722,9028,NTS,B,5
3,3,test,1,C,triangle.png,0,z,Mon Jan 12 2026 12:58:19 GMT-0500 (Eastern Standard Time),540157.0,1200,I,m,1359,3,2,2574.3999996185303,537582.6000003815,9028,NTS,B,6
4,3,test,1,C,triangle.png,0,m,Mon Jan 12 2026 12:58:19 GMT-0500 (Eastern Standard Time),543090.3000001907,1500,I,z,1403,20,2,2925.1000003814697,540165.1999998093,9028,NTS,B,7
9,4,test,1,C,circle.png,1,m,Mon Jan 12 2026 12:58:19 GMT-0500 (Eastern Standard Time),545923.6999998093,1500,I,m,1301,24,2,2825.0999994277954,543098.6000003815,9028,NTS,B,8
1,5,test,1,C,triangle.png,1,z,Mon Jan 12 2026 12:58:19 GMT-0500 (Eastern Standard Time),549173.6999998093,1900,I,z,1317,9,2,3241.5999994277954,545932.1000003815,9028,NTS,B,9
7,6,test,1,C,circle.png,1,m,Mon Jan 12 2026 12:58:19 GMT-0500 (Eastern Standard Time),552057.0,2000,I,m,863,14,2,2875.0,549182.0,9028,NTS,B,10
6,7,test,1,C,circle.png,1,m,Mon Jan 12 2026 12:58:19 GMT-0500 (Eastern Standard Time),555040.4000005722,1900,I,m,1055,21,2,2972.800000190735,552067.6000003815,9028,NTS,B,11
2,8,test,1,C,circle.png,1,z,Mon Jan 12 2026 12:58:19 GMT-0500 (Eastern Standard Time),557907.1000003815,1700,I,z,1136,10,2,2858.5,555048.6000003815,9028,NTS,B,12
6,9,test,1,C,triangle.png,1,m,Mon Jan 12 2026 12:58:19 GMT-0500 (Eastern Standard Time),560073.6999998093,1000,I,m,1145,13,2,2158.0,557915.6999998093,9028,NTS,B,13
8,10,test,1,C,circle.png,1,m,Mon Jan 12 2026 12:58:19 GMT-0500 (Eastern Standard Time),562506.9000005722,1200,I,m,1211,15,2,2424.1000003814697,560082.8000001907,9028,NTS,B,14
1,11,test,1,C,circle.png,1,z,Mon Jan 12 2026 12:58:19 GMT-0500 (Eastern Standard Time),564590.1999998093,1000,I,z,1057,1,2,2075.0999994277954,562515.1000003815,9028,NTS,B,15
3,12,test,1,C,circle.png,1,z,Mon Jan 12 2026 12:58:19 GMT-0500 (Eastern Standard Time),567173.6999998093,1600,I,z,949,11,2,2573.0,564600.6999998093,9028,NTS,B,16
2,13,test,1,C,circle.png,1,z,Mon Jan 12 2026 12:58:19 GMT-0500 (Eastern Standard Time),570390.1999998093,1700,I,z,1499,18,2,3206.3999996185303,567183.8000001907,9028,NTS,B,17
9,13,test,1,C,triangle.png,0,z,Mon Jan 12 2026 12:58:19 GMT-0500 (Eastern Standard Time),573323.6999998093,1400,I,None,1516,16,2,2922.199999809265,570401.5,9028,NTS,B,18
8,14,test,1,C,triangle.png,1,m,Mon Jan 12 2026 12:58:19 GMT-0500 (Eastern Standard Time),575873.6999998093,1600,I,m,920,23,2,2542.0,573331.6999998093,9028,NTS,B,19
7,15,test,1,C,triangle.png,1,z,Mon Jan 12 2026 12:58:19 GMT-0500 (Eastern Standard Time),578757.0,1700,I,z,1150,22,2,2872.8999996185303,575884.1000003815,9028,NTS,B,20
1,15,test,1,C,triangle.png,0,z,Mon Jan 12 2026 12:58:19 GMT-0500 (Eastern Standard Time),582190.5,1900,I,None,1516,17,2,3419.3999996185303,578771.1000003815,9028,NTS,B,21
9,16,test,1,C,circle.png,1,m,Mon Jan 12 2026 12:58:19 GMT-0500 (Eastern Standard Time),585040.3000001907,1500,I,m,1322,8,2,2839.199999809265,582201.1000003815,9028,NTS,B,22
4,17,test,1,C,circle.png,1,z,Mon Jan 12 2026 12:58:19 GMT-0500 (Eastern Standard Time),587557.0,1400,I,z,1083,4,2,2508.199999809265,585048.8000001907,9028,NTS,B,23
7,17,test,1,C,triangle.png,0,z,Mon Jan 12 2026 12:58:19 GMT-0500 (Eastern Standard Time),590623.6000003815,1700,I,m,1340,6,2,3058.5,587565.1000003815,9028,NTS,B,24
2,0,test,2,C,triangle.png,0,m,Mon Jan 12 2026 12:58:19 GMT-0500 (Eastern Standard Time),602640.6000003815,2000,I,None,1516,2,2,3524.800000190735,599115.8000001907,9028,NTS,B,1
8,1,test,2,C,circle.png,1,m,Mon Jan 12 2026 12:58:19 GMT-0500 (Eastern Standard Time),604806.8000001907,1200,I,m,947,15,2,2158.0,602648.8000001907,9028,NTS,B,2
7,1,test,2,C,circle.png,0,m,Mon Jan 12 2026 12:58:19 GMT-0500 (Eastern Standard Time),608006.8000001907,2000,I,z,1181,22,2,3192.300000190735,604814.5,9028,NTS,B,3
6,2,test,2,C,circle.png,1,m,Mon Jan 12 2026 12:58:19 GMT-0500 (Eastern Standard Time),610940.1999998093,1900,I,m,1010,5,2,2922.3999996185303,608017.8000001907,9028,NTS,B,4
8,3,test,2,C,circle.png,1,m,Mon Jan 12 2026 12:58:19 GMT-0500 (Eastern Standard Time),612856.8000001907,1200,I,m,696,23,2,1901.1000003814697,610955.6999998093,9028,NTS,B,5
9,3,test,2,C,triangle.png,0,z,Mon Jan 12 2026 12:58:19 GMT-0500 (Eastern Standard Time),615790.5,1400,I,None,1516,24,2,2921.699999809265,612868.8000001907,9028,NTS,B,6
1,4,test,2,C,triangle.png,1,z,Mon Jan 12 2026 12:58:19 GMT-0500 (Eastern Standard Time),618556.9000005722,1900,I,z,841,9,2,2758.4000005722046,615798.5,9028,NTS,B,7
6,5,test,2,C,triangle.png,1,m,Mon Jan 12 2026 12:58:19 GMT-0500 (Eastern Standard Time),620440.1000003815,1000,I,m,863,21,2,1874.6999998092651,618565.4000005722,9028,NTS,B,8
8,6,test,2,C,triangle.png,1,m,Mon Jan 12 2026 12:58:19 GMT-0500 (Eastern Standard Time),623340.3000001907,1600,I,m,1276,7,2,2889.199999809265,620451.1000003815,9028,NTS,B,9
2,7,test,2,C,circle.png,1,z,Mon Jan 12 2026 12:58:19 GMT-0500 (Eastern Standard Time),625790.1999998093,1700,I,z,723,10,2,2440.699999809265,623349.5,9028,NTS,B,10
6,8,test,2,C,triangle.png,1,m,Mon Jan 12 2026 12:58:19 GMT-0500 (Eastern Standard Time),627973.6000003815,1000,I,m,1150,13,2,2175.300000190735,625798.3000001907,9028,NTS,B,11
4,9,test,2,C,triangle.png,1,m,Mon Jan 12 2026 12:58:19 GMT-0500 (Eastern Standard Time),630390.1000003815,1500,I,m,899,20,2,2408.6000003814697,627981.5,9028,NTS,B,12
3,10,test,2,C,circle.png,1,z,Mon Jan 12 2026 12:58:19 GMT-0500 (Eastern Standard Time),632823.4000005722,1600,I,z,814,11,2,2425.5,630397.9000005722,9028,NTS,B,13
3,11,test,2,C,circle.png,1,z,Mon Jan 12 2026 12:58:19 GMT-0500 (Eastern Standard Time),635290.3000001907,1600,I,z,845,19,2,2458.300000190735,632832.0,9028,NTS,B,14
9,11,test,2,C,triangle.png,0,z,Mon Jan 12 2026 12:58:19 GMT-0500 (Eastern Standard Time),637606.8000001907,1400,I,m,898,16,2,2308.300000190735,635298.5,9028,NTS,B,15
9,12,test,2,C,circle.png,1,m,Mon Jan 12 2026 12:58:19 GMT-0500 (Eastern Standard Time),640357.0,1500,I,m,1217,8,2,2741.800000190735,637615.1999998093,9028,NTS,B,16
4,12,test,2,C,circle.png,0,z,Mon Jan 12 2026 12:58:19 GMT-0500 (Eastern Standard Time),642590.1999998093,1400,I,m,807,4,2,2225.0999994277954,640365.1000003815,9028,NTS,B,17
7,13,test,2,C,circle.png,1,m,Mon Jan 12 2026 12:58:19 GMT-0500 (Eastern Standard Time),645456.9000005722,2000,I,m,838,14,2,2856.9000005722046,642600.0,9028,NTS,B,18
7,14,test,2,C,triangle.png,1,z,Mon Jan 12 2026 12:58:19 GMT-0500 (Eastern Standard Time),648257.0,1700,I,z,1071,6,2,2791.0999994277954,645465.9000005722,9028,NTS,B,19
4,15,test,2,C,triangle.png,1,m,Mon Jan 12 2026 12:58:19 GMT-0500 (Eastern Standard Time),650973.6000003815,1500,I,m,1191,12,2,2708.1000003814697,648265.5,9028,NTS,B,20
1,16,test,2,C,triangle.png,1,z,Mon Jan 12 2026 12:58:19 GMT-0500 (Eastern Standard Time),654040.0,1900,I,z,1146,17,2,3055.800000190735,650984.1999998093,9028,NTS,B,21
2,17,test,2,C,circle.png,1,z,Mon Jan 12 2026 12:58:19 GMT-0500 (Eastern Standard Time),656756.9000005722,1700,I,z,984,18,2,2708.6000003814697,654048.3000001907,9028,NTS,B,22
3,18,test,2,C,triangle.png,1,z,Mon Jan 12 2026 12:58:19 GMT-0500 (Eastern Standard Time),659123.6000003815,1200,I,z,1135,3,2,2357.6000003814697,656766.0,9028,NTS,B,23
1,19,test,2,C,circle.png,1,z,Mon Jan 12 2026 12:58:19 GMT-0500 (Eastern Standard Time),661256.8000001907,1000,I,z,1112,1,2,2121.8999996185303,659134.9000005722,9028,NTS,B,24
9,1,test,3,C,circle.png,1,m,Mon Jan 12 2026 12:58:19 GMT-0500 (Eastern Standard Time),670073.6999998093,1500,I,m,1245,8,2,2758.8999996185303,667314.8000001907,9028,NTS,B,1
2,1,test,3,C,triangle.png,0,m,Mon Jan 12 2026 12:58:19 GMT-0500 (Eastern Standard Time),673606.9000005722,2000,I,None,1516,2,2,3521.2000007629395,670085.6999998093,9028,NTS,B,2
9,2,test,3,C,triangle.png,1,z,Mon Jan 12 2026 12:58:19 GMT-0500 (Eastern Standard Time),675890.1000003815,1400,I,z,853,16,2,2274.9000005722046,673615.1999998093,9028,NTS,B,3
4,3,test,3,C,circle.png,1,z,Mon Jan 12 2026 12:58:19 GMT-0500 (Eastern Standard Time),678456.8000001907,1400,I,z,1147,4,2,2555.800000190735,675901.0,9028,NTS,B,4
7,4,test,3,C,circle.png,1,m,Mon Jan 12 2026 12:58:19 GMT-0500 (Eastern Standard Time),681956.9000005722,2000,I,m,1467,14,2,3491.2000007629395,678465.6999998093,9028,NTS,B,5
6,4,test,3,C,triangle.png,0,m,Mon Jan 12 2026 12:58:19 GMT-0500 (Eastern Standard Time),684490.3000001907,1000,I,None,1516,13,2,2522.8999996185303,681967.4000005722,9028,NTS,B,6
7,4,test,3,C,triangle.png,0,z,Mon Jan 12 2026 12:58:19 GMT-0500 (Eastern Standard Time),687723.6999998093,1700,I,None,1516,6,2,3225.3999996185303,684498.3000001907,9028,NTS,B,7
1,5,test,3,C,circle.png,1,z,Mon Jan 12 2026 12:58:19 GMT-0500 (Eastern Standard Time),689673.4000005722,1000,I,z,929,1,2,1941.2000007629395,687732.1999998093,9028,NTS,B,8
9,6,test,3,C,circle.png,1,m,Mon Jan 12 2026 12:58:19 GMT-0500 (Eastern Standard Time),691990.0,1500,I,m,798,24,2,2308.0,689682.0,9028,NTS,B,9
3,7,test,3,C,circle.png,1,z,Mon Jan 12 2026 12:58:19 GMT-0500 (Eastern Standard Time),694523.6000003815,1600,I,z,909,11,2,2524.9000005722046,691998.6999998093,9028,NTS,B,10
4,8,test,3,C,triangle.png,1,m,Mon Jan 12 2026 12:58:19 GMT-0500 (Eastern Standard Time),697123.5,1500,I,m,1068,12,2,2592.0,694531.5,9028,NTS,B,11
3,9,test,3,C,triangle.png,1,z,Mon Jan 12 2026 12:58:19 GMT-0500 (Eastern Standard Time),699256.8000001907,1200,I,z,912,3,2,2124.300000190735,697132.5,9028,NTS,B,12
4,9,test,3,C,circle.png,0,z,Mon Jan 12 2026 12:58:19 GMT-0500 (Eastern Standard Time),701673.3000001907,1400,I,m,996,20,2,2408.3999996185303,699264.9000005722,9028,NTS,B,13
8,10,test,3,C,circle.png,1,m,Mon Jan 12 2026 12:58:19 GMT-0500 (Eastern Standard Time),703606.6000003815,1200,I,m,714,15,2,1924.6999998092651,701681.9000005722,9028,NTS,B,14
6,11,test,3,C,circle.png,1,m,Mon Jan 12 2026 12:58:19 GMT-0500 (Eastern Standard Time),706373.9000005722,1900,I,m,849,21,2,2758.9000005722046,703615.0,9028,NTS,B,15
6,12,test,3,C,circle.png,1,m,Mon Jan 12 2026 12:58:19 GMT-0500 (Eastern Standard Time),709173.5,1900,I,m,867,5,2,2791.8999996185303,706381.6000003815,9028,NTS,B,16
2,13,test,3,C,triangle.png,1,m,Mon Jan 12 2026 12:58:19 GMT-0500 (Eastern Standard Time),712406.4000005722,2000,I,m,1215,18,2,3223.9000005722046,709182.5,9028,NTS,B,17
2,14,test,3,C,circle.png,1,z,Mon Jan 12 2026 12:58:19 GMT-0500 (Eastern Standard Time),715173.4000005722,1700,I,z,1034,10,2,2760.1000003814697,712413.3000001907,9028,NTS,B,18
3,15,test,3,C,triangle.png,1,z,Mon Jan 12 2026 12:58:19 GMT-0500 (Eastern Standard Time),717540.1999998093,1200,I,z,1134,19,2,2358.199999809265,715182.0,9028,NTS,B,19
8,15,test,3,C,triangle.png,0,m,Mon Jan 12 2026 12:58:19 GMT-0500 (Eastern Standard Time),720506.8000001907,1600,I,z,1344,7,2,2958.5,717548.3000001907,9028,NTS,B,20
1,16,test,3,C,circle.png,1,z,Mon Jan 12 2026 12:58:19 GMT-0500 (Eastern Standard Time),722956.8000001907,1000,I,z,1425,17,2,2441.8999996185303,720514.9000005722,9028,NTS,B,21
7,17,test,3,C,triangle.png,1,z,Mon Jan 12 2026 12:58:19 GMT-0500 (Eastern Standard Time),725740.1000003815,1700,I,z,1059,22,2,2774.5,722965.6000003815,9028,NTS,B,22
8,18,test,3,C,triangle.png,1,m,Mon Jan 12 2026 12:58:19 GMT-0500 (Eastern Standard Time),728640.1000003815,1600,I,m,1272,23,2,2891.300000190735,725748.8000001907,9028,NTS,B,23
1,18,test,3,C,triangle.png,0,z,Mon Jan 12 2026 12:58:19 GMT-0500 (Eastern Standard Time),732073.6000003815,1900,I,None,1516,9,2,3425.6000003814697,728648.0,9028,NTS,B,24
4,0,test,4,C,triangle.png,0,m,Mon Jan 12 2026 12:58:19 GMT-0500 (Eastern Standard Time),738123.6999998093,1500,I,None,1516,12,2,3025.2999992370605,735098.4000005722,9028,NTS,B,1
3,1,test,4,C,circle.png,1,z,Mon Jan 12 2026 12:58:19 GMT-0500 (Eastern Standard Time),740923.4000005722,1600,I,z,1176,11,2,2791.2000007629395,738132.1999998093,9028,NTS,B,2
8,2,test,4,C,triangle.png,1,m,Mon Jan 12 2026 12:58:19 GMT-0500 (Eastern Standard Time),743940.1999998093,1600,I,m,1384,23,2,3008.5999994277954,740931.6000003815,9028,NTS,B,3
6,2,test,4,C,triangle.png,0,m,Mon Jan 12 2026 12:58:19 GMT-0500 (Eastern Standard Time),746106.8000001907,1000,I,z,1145,13,2,2157.6000003814697,743949.1999998093,9028,NTS,B,4
7,3,test,4,C,circle.png,1,m,Mon Jan 12 2026 12:58:19 GMT-0500 (Eastern Standard Time),749373.4000005722,2000,I,m,1241,14,2,3256.6000003814697,746116.8000001907,9028,NTS,B,5
1,4,test,4,C,triangle.png,1,z,Mon Jan 12 2026 12:58:19 GMT-0500 (Eastern Standard Time),752406.5,1900,I,z,1114,9,2,3024.800000190735,749381.6999998093,9028,NTS,B,6
2,5,test,4,C,triangle.png,1,m,Mon Jan 12 2026 12:58:19 GMT-0500 (Eastern Standard Time),755623.3000001907,2000,I,m,1197,2,2,3208.6000003814697,752414.6999998093,9028,NTS,B,7
4,6,test,4,C,circle.png,1,z,Mon Jan 12 2026 12:58:19 GMT-0500 (Eastern Standard Time),758206.8000001907,1400,I,z,1157,20,2,2573.199999809265,755633.6000003815,9028,NTS,B,8
7,6,test,4,C,triangle.png,0,z,Mon Jan 12 2026 12:58:19 GMT-0500 (Eastern Standard Time),760790.1000003815,1700,I,m,865,22,2,2573.6000003814697,758216.5,9028,NTS,B,9
9,7,test,4,C,circle.png,1,m,Mon Jan 12 2026 12:58:19 GMT-0500 (Eastern Standard Time),763390.1000003815,1500,I,m,1074,24,2,2591.800000190735,760798.3000001907,9028,NTS,B,10
4,8,test,4,C,circle.png,1,z,Mon Jan 12 2026 12:58:19 GMT-0500 (Eastern Standard Time),766039.8000001907,1400,I,z,1230,4,2,2639.300000190735,763400.5,9028,NTS,B,11
1,9,test,4,C,circle.png,1,z,Mon Jan 12 2026 12:58:19 GMT-0500 (Eastern Standard Time),767989.9000005722,1000,I,z,932,17,2,1939.8000001907349,766050.1000003815,9028,NTS,B,12
3,10,test,4,C,triangle.png,1,z,Mon Jan 12 2026 12:58:19 GMT-0500 (Eastern Standard Time),770623.5,1200,I,z,1407,3,2,2624.800000190735,767998.6999998093,9028,NTS,B,13
9,11,test,4,C,triangle.png,1,z,Mon Jan 12 2026 12:58:19 GMT-0500 (Eastern Standard Time),773390.1000003815,1400,I,z,1340,16,2,2758.199999809265,770631.9000005722,9028,NTS,B,14
8,12,test,4,C,triangle.png,1,m,Mon Jan 12 2026 12:58:19 GMT-0500 (Eastern Standard Time),776323.5,1600,I,m,1302,7,2,2922.8999996185303,773400.6000003815,9028,NTS,B,15
3,12,test,4,C,triangle.png,0,z,Mon Jan 12 2026 12:58:19 GMT-0500 (Eastern Standard Time),778806.6000003815,1200,I,m,1264,19,2,2475.0,776331.6000003815,9028,NTS,B,16
1,13,test,4,C,circle.png,1,z,Mon Jan 12 2026 12:58:19 GMT-0500 (Eastern Standard Time),780990.1000003815,1000,I,z,1158,1,2,2175.9000005722046,778814.1999998093,9028,NTS,B,17
6,14,test,4,C,circle.png,1,m,Mon Jan 12 2026 12:58:19 GMT-0500 (Eastern Standard Time),783890.1000003815,1900,I,m,970,5,2,2887.0,781003.1000003815,9028,NTS,B,18
8,15,test,4,C,circle.png,1,m,Mon Jan 12 2026 12:58:19 GMT-0500 (Eastern Standard Time),785823.4000005722,1200,I,m,706,15,2,1924.4000005722046,783899.0,9028,NTS,B,19
9,16,test,4,C,circle.png,1,m,Mon Jan 12 2026 12:58:19 GMT-0500 (Eastern Standard Time),788156.8000001907,1500,I,m,808,8,2,2325.5,785831.3000001907,9028,NTS,B,20
2,17,test,4,C,triangle.png,1,m,Mon Jan 12 2026 12:58:19 GMT-0500 (Eastern Standard Time),791573.4000005722,2000,I,m,1384,18,2,3408.4000005722046,788165.0,9028,NTS,B,21
2,18,test,4,C,circle.png,1,z,Mon Jan 12 2026 12:58:19 GMT-0500 (Eastern Standard Time),794323.4000005722,1700,I,z,1019,10,2,2742.300000190735,791581.1000003815,9028,NTS,B,22
7,18,test,4,C,triangle.png,0,z,Mon Jan 12 2026 12:58:19 GMT-0500 (Eastern Standard Time),797556.8000001907,1700,I,None,1517,6,2,3224.8999996185303,794331.9000005722,9028,NTS,B,23
6,19,test,4,C,circle.png,1,m,Mon Jan 12 2026 12:58:19 GMT-0500 (Eastern Standard Time),800423.1999998093,1900,I,m,947,21,2,2857.5,797565.6999998093,9028,NTS,B,24
