block_c,block_dur,condition,countdown,datetime,endtime,list,multichar_response,project,response,response_time,session_number,start_end,starttime,subject_id,task,task_vers,trial
,,,,Mon Sep 29 2025 15:13:46 GMT-0400 (Eastern Daylight Time),,,,I,space,1829,2,,,9023,WL,A,
prac,,0,,Mon Sep 29 2025 15:13:46 GMT-0400 (Eastern Daylight Time),,NA,b,I,b,3440,2,,,9023,WL,A,1.0
prac,,0,,Mon Sep 29 2025 15:13:46 GMT-0400 (Eastern Daylight Time),,NA,bo,I,o,311,2,,,9023,WL,A,1.0
prac,,0,,Mon Sep 29 2025 15:13:46 GMT-0400 (Eastern Daylight Time),,NA,boo,I,o,137,2,,,9023,WL,A,1.0
prac,,0,,Mon Sep 29 2025 15:13:46 GMT-0400 (Eastern Daylight Time),,NA,boos,I,s,380,2,,,9023,WL,A,1.0
prac,,0,,Mon Sep 29 2025 15:13:46 GMT-0400 (Eastern Daylight Time),,NA,boost,I,t,212,2,,,9023,WL,A,1.0
prac,,0,,Mon Sep 29 2025 15:13:46 GMT-0400 (Eastern Daylight Time),,NA,boostenter,I,enter,1265,2,,,9023,WL,A,1.0
1,6.2170000076293945,learn,53782.999992370605,Mon Sep 29 2025 15:13:46 GMT-0400 (Eastern Daylight Time),240197.5,A,b,I,b,6191,2,6216.0,233981.5,9023,WL,A,1.0
1,6.617000102996826,learn,53382.999897003174,Mon Sep 29 2025 15:13:46 GMT-0400 (Eastern Daylight Time),240597.30000001192,A,bo,I,o,370,2,6615.800000011921,233981.5,9023,WL,A,1.0
1,6.7829999923706055,learn,53217.000007629395,Mon Sep 29 2025 15:13:46 GMT-0400 (Eastern Daylight Time),240763.89999997616,A,boo,I,o,149,2,6782.399999976158,233981.5,9023,WL,A,1.0
1,7.0329999923706055,learn,52967.000007629395,Mon Sep 29 2025 15:13:46 GMT-0400 (Eastern Daylight Time),241013.89999997616,A,book,I,k,221,2,7032.399999976158,233981.5,9023,WL,A,1.0
1,8.516000032424927,learn,51483.99996757507,Mon Sep 29 2025 15:13:46 GMT-0400 (Eastern Daylight Time),242496.80000001192,A,bookenter,I,enter,1460,2,8515.300000011921,233981.5,9023,WL,A,1.0
1,10.382999897003174,learn,49617.000102996826,Mon Sep 29 2025 15:13:46 GMT-0400 (Eastern Daylight Time),244363.89999997616,A,f,I,f,1855,2,1866.5999999642372,242497.30000001192,9023,WL,A,2.0
1,10.549999952316284,learn,49450.000047683716,Mon Sep 29 2025 15:13:46 GMT-0400 (Eastern Daylight Time),244530.39999997616,A,fl,I,l,143,2,2033.0999999642372,242497.30000001192,9023,WL,A,2.0
1,10.766999959945679,learn,49233.00004005432,Mon Sep 29 2025 15:13:46 GMT-0400 (Eastern Daylight Time),244747.10000002384,A,flo,I,o,201,2,2249.800000011921,242497.30000001192,9023,WL,A,2.0
1,10.933000087738037,learn,49066.99991226196,Mon Sep 29 2025 15:13:46 GMT-0400 (Eastern Daylight Time),244913.89999997616,A,flow,I,w,144,2,2416.599999964237,242497.30000001192,9023,WL,A,2.0
1,11.032999992370605,learn,48967.000007629395,Mon Sep 29 2025 15:13:46 GMT-0400 (Eastern Daylight Time),245013.89999997616,A,flowe,I,e,73,2,2516.599999964237,242497.30000001192,9023,WL,A,2.0
1,11.217000007629395,learn,48782.999992370605,Mon Sep 29 2025 15:13:46 GMT-0400 (Eastern Daylight Time),245197.19999998808,A,flower,I,r,156,2,2699.899999976158,242497.30000001192,9023,WL,A,2.0
1,13.249000072479248,learn,46750.99992752075,Mon Sep 29 2025 15:13:46 GMT-0400 (Eastern Daylight Time),247230.10000002384,A,flowerenter,I,enter,2012,2,4732.800000011921,242497.30000001192,9023,WL,A,2.0
1,14.233000040054321,learn,45766.99995994568,Mon Sep 29 2025 15:13:46 GMT-0400 (Eastern Daylight Time),248213.89999997616,A,t,I,t,960,2,983.2999999523163,247230.60000002384,9023,WL,A,3.0
1,14.450000047683716,learn,45549.999952316284,Mon Sep 29 2025 15:13:46 GMT-0400 (Eastern Daylight Time),248430.69999998808,A,tr,I,r,198,2,1200.0999999642372,247230.60000002384,9023,WL,A,3.0
1,14.565999984741211,learn,45434.00001525879,Mon Sep 29 2025 15:13:46 GMT-0400 (Eastern Daylight Time),248546.89999997616,A,tra,I,a,83,2,1316.2999999523163,247230.60000002384,9023,WL,A,3.0
1,14.848999977111816,learn,45151.00002288818,Mon Sep 29 2025 15:13:46 GMT-0400 (Eastern Daylight Time),248830.0,A,trai,I,i,264,2,1599.3999999761581,247230.60000002384,9023,WL,A,3.0
1,15.049999952316284,learn,44950.000047683716,Mon Sep 29 2025 15:13:46 GMT-0400 (Eastern Daylight Time),249030.5,A,train,I,n,178,2,1799.8999999761581,247230.60000002384,9023,WL,A,3.0
1,15.933000087738037,learn,44066.99991226196,Mon Sep 29 2025 15:13:46 GMT-0400 (Eastern Daylight Time),249913.39999997616,A,trainenter,I,enter,861,2,2682.7999999523163,247230.60000002384,9023,WL,A,3.0
1,16.66599988937378,learn,43334.00011062622,Mon Sep 29 2025 15:13:46 GMT-0400 (Eastern Daylight Time),250646.80000001192,A,r,I,r,726,2,733.0,249913.80000001192,9023,WL,A,4.0
1,16.84999990463257,learn,43150.00009536743,Mon Sep 29 2025 15:13:46 GMT-0400 (Eastern Daylight Time),250830.5,A,ru,I,u,165,2,916.6999999880791,249913.80000001192,9023,WL,A,4.0
1,17.865999937057495,learn,42134.000062942505,Mon Sep 29 2025 15:13:46 GMT-0400 (Eastern Daylight Time),251847.10000002384,A,rug,I,g,1005,2,1933.300000011921,249913.80000001192,9023,WL,A,4.0
1,18.299999952316284,learn,41700.000047683716,Mon Sep 29 2025 15:13:46 GMT-0400 (Eastern Daylight Time),252280.30000001192,A,rugm,I,m,420,2,2366.5,249913.80000001192,9023,WL,A,4.0
1,18.532999992370605,learn,41467.000007629395,Mon Sep 29 2025 15:13:46 GMT-0400 (Eastern Daylight Time),252513.80000001192,A,rugme,I,e,210,2,2600.0,249913.80000001192,9023,WL,A,4.0
1,18.632999897003174,learn,41367.000102996826,Mon Sep 29 2025 15:13:46 GMT-0400 (Eastern Daylight Time),252613.80000001192,A,rugmea,I,a,72,2,2700.0,249913.80000001192,9023,WL,A,4.0
1,19.0,learn,41000.0,Mon Sep 29 2025 15:13:46 GMT-0400 (Eastern Daylight Time),252980.39999997616,A,rugmead,I,d,342,2,3066.599999964237,249913.80000001192,9023,WL,A,4.0
1,19.467000007629395,learn,40532.999992370605,Mon Sep 29 2025 15:13:46 GMT-0400 (Eastern Daylight Time),253447.19999998808,A,rugmea,I,backspace,454,2,3533.399999976158,249913.80000001192,9023,WL,A,4.0
1,19.66599988937378,learn,40334.00011062622,Mon Sep 29 2025 15:13:46 GMT-0400 (Eastern Daylight Time),253646.69999998808,A,rugme,I,backspace,180,2,3732.899999976158,249913.80000001192,9023,WL,A,4.0
1,19.865999937057495,learn,40134.000062942505,Mon Sep 29 2025 15:13:46 GMT-0400 (Eastern Daylight Time),253847.0,A,rugm,I,backspace,191,2,3933.199999988079,249913.80000001192,9023,WL,A,4.0
1,20.08299994468689,learn,39917.00005531311,Mon Sep 29 2025 15:13:46 GMT-0400 (Eastern Daylight Time),254063.80000001192,A,rug,I,backspace,197,2,4150.0,249913.80000001192,9023,WL,A,4.0
1,20.65000009536743,learn,39349.99990463257,Mon Sep 29 2025 15:13:46 GMT-0400 (Eastern Daylight Time),254630.10000002384,A,rugenter,I,enter,547,2,4716.300000011921,249913.80000001192,9023,WL,A,4.0
1,22.950000047683716,learn,37049.999952316284,Mon Sep 29 2025 15:13:46 GMT-0400 (Eastern Daylight Time),256930.5,A,m,I,m,2281,2,2300.0,254630.5,9023,WL,A,5.0
1,23.23300004005432,learn,36766.99995994568,Mon Sep 29 2025 15:13:46 GMT-0400 (Eastern Daylight Time),257213.80000001192,A,me,I,e,265,2,2583.300000011921,254630.5,9023,WL,A,5.0
1,23.34999990463257,learn,36650.00009536743,Mon Sep 29 2025 15:13:46 GMT-0400 (Eastern Daylight Time),257330.39999997616,A,mea,I,a,95,2,2699.899999976158,254630.5,9023,WL,A,5.0
1,23.75,learn,36250.0,Mon Sep 29 2025 15:13:46 GMT-0400 (Eastern Daylight Time),257730.5,A,mead,I,d,375,2,3100.0,254630.5,9023,WL,A,5.0
1,24.25,learn,35750.0,Mon Sep 29 2025 15:13:46 GMT-0400 (Eastern Daylight Time),258230.5,A,meado,I,o,473,2,3600.0,254630.5,9023,WL,A,5.0
1,24.41700005531311,learn,35582.99994468689,Mon Sep 29 2025 15:13:46 GMT-0400 (Eastern Daylight Time),258397.10000002384,A,meadow,I,w,150,2,3766.600000023842,254630.5,9023,WL,A,5.0
1,26.049000024795532,learn,33950.99997520447,Mon Sep 29 2025 15:13:46 GMT-0400 (Eastern Daylight Time),260030.10000002384,A,meadowenter,I,enter,1607,2,5399.600000023842,254630.5,9023,WL,A,5.0
1,26.933000087738037,learn,33066.99991226196,Mon Sep 29 2025 15:13:46 GMT-0400 (Eastern Daylight Time),260913.89999997616,A,h,I,h,865,2,883.3999999761581,260030.5,9023,WL,A,6.0
1,27.049999952316284,learn,32950.000047683716,Mon Sep 29 2025 15:13:46 GMT-0400 (Eastern Daylight Time),261030.30000001192,A,ha,I,a,90,2,999.8000000119209,260030.5,9023,WL,A,6.0
1,27.25,learn,32750.0,Mon Sep 29 2025 15:13:46 GMT-0400 (Eastern Daylight Time),261230.60000002384,A,har,I,r,182,2,1200.1000000238419,260030.5,9023,WL,A,6.0
1,28.382999897003174,learn,31617.000102996826,Mon Sep 29 2025 15:13:46 GMT-0400 (Eastern Daylight Time),262363.89999997616,A,harp,I,p,1116,2,2333.399999976158,260030.5,9023,WL,A,6.0
1,31.032999992370605,learn,28967.000007629395,Mon Sep 29 2025 15:13:46 GMT-0400 (Eastern Daylight Time),265013.3000000119,A,harpenter,I,enter,2624,2,4982.800000011921,260030.5,9023,WL,A,6.0
1,31.799000024795532,learn,28200.999975204468,Mon Sep 29 2025 15:13:46 GMT-0400 (Eastern Daylight Time),265780.0,A,s,I,s,746,2,766.1999999880791,265013.8000000119,9023,WL,A,7.0
1,31.882999897003174,learn,28117.000102996826,Mon Sep 29 2025 15:13:46 GMT-0400 (Eastern Daylight Time),265863.60000002384,A,sa,I,a,75,2,849.8000000119209,265013.8000000119,9023,WL,A,7.0
1,32.06699991226196,learn,27933.000087738037,Mon Sep 29 2025 15:13:46 GMT-0400 (Eastern Daylight Time),266047.1999999881,A,sal,I,l,165,2,1033.3999999761581,265013.8000000119,9023,WL,A,7.0
1,32.65000009536743,learn,27349.99990463257,Mon Sep 29 2025 15:13:46 GMT-0400 (Eastern Daylight Time),266630.5,A,salt,I,t,557,2,1616.699999988079,265013.8000000119,9023,WL,A,7.0
1,33.450000047683716,learn,26549.999952316284,Mon Sep 29 2025 15:13:46 GMT-0400 (Eastern Daylight Time),267430.10000002384,A,saltenter,I,enter,788,2,2416.300000011921,265013.8000000119,9023,WL,A,7.0
1,34.23300004005432,learn,25766.99995994568,Mon Sep 29 2025 15:13:46 GMT-0400 (Eastern Daylight Time),268213.8000000119,A,f,I,f,761,2,783.4000000357628,267430.39999997616,9023,WL,A,8.0
1,34.5,learn,25500.0,Mon Sep 29 2025 15:13:46 GMT-0400 (Eastern Daylight Time),268480.5,A,fn,I,n,247,2,1050.1000000238419,267430.39999997616,9023,WL,A,8.0
1,35.46600008010864,learn,24533.999919891357,Mon Sep 29 2025 15:13:46 GMT-0400 (Eastern Daylight Time),269447.0,A,f,I,backspace,955,2,2016.6000000238419,267430.39999997616,9023,WL,A,8.0
1,36.117000102996826,learn,23882.999897003174,Mon Sep 29 2025 15:13:46 GMT-0400 (Eastern Daylight Time),270097.3000000119,A,fi,I,i,631,2,2666.900000035763,267430.39999997616,9023,WL,A,8.0
1,36.367000102996826,learn,23632.999897003174,Mon Sep 29 2025 15:13:46 GMT-0400 (Eastern Daylight Time),270347.3000000119,A,fin,I,n,235,2,2916.900000035763,267430.39999997616,9023,WL,A,8.0
1,36.65000009536743,learn,23349.99990463257,Mon Sep 29 2025 15:13:46 GMT-0400 (Eastern Daylight Time),270630.60000002384,A,fing,I,g,257,2,3200.2000000476837,267430.39999997616,9023,WL,A,8.0
1,36.91700005531311,learn,23082.99994468689,Mon Sep 29 2025 15:13:46 GMT-0400 (Eastern Daylight Time),270897.1999999881,A,finge,I,e,244,2,3466.800000011921,267430.39999997616,9023,WL,A,8.0
1,37.06699991226196,learn,22933.000087738037,Mon Sep 29 2025 15:13:46 GMT-0400 (Eastern Daylight Time),271047.1999999881,A,finger,I,r,123,2,3616.800000011921,267430.39999997616,9023,WL,A,8.0
1,38.66700005531311,learn,21332.99994468689,Mon Sep 29 2025 15:13:46 GMT-0400 (Eastern Daylight Time),272647.6999999881,A,fingerenter,I,enter,1588,2,5217.300000011921,267430.39999997616,9023,WL,A,8.0
1,45.96600008010864,learn,14033.999919891357,Mon Sep 29 2025 15:13:46 GMT-0400 (Eastern Daylight Time),279946.8000000119,A,c,I,c,7287,2,7298.699999988079,272648.10000002384,9023,WL,A,9.0
1,46.15000009536743,learn,13849.999904632568,Mon Sep 29 2025 15:13:46 GMT-0400 (Eastern Daylight Time),280130.5,A,ch,I,h,163,2,7482.399999976158,272648.10000002384,9023,WL,A,9.0
1,46.23300004005432,learn,13766.999959945679,Mon Sep 29 2025 15:13:46 GMT-0400 (Eastern Daylight Time),280213.60000002384,A,chi,I,i,47,2,7565.5,272648.10000002384,9023,WL,A,9.0
1,47.08299994468689,learn,12917.00005531311,Mon Sep 29 2025 15:13:46 GMT-0400 (Eastern Daylight Time),281063.60000002384,A,chim,I,m,841,2,8415.5,272648.10000002384,9023,WL,A,9.0
1,47.367000102996826,learn,12632.999897003174,Mon Sep 29 2025 15:13:46 GMT-0400 (Eastern Daylight Time),281347.3000000119,A,chimn,I,n,261,2,8699.199999988079,272648.10000002384,9023,WL,A,9.0
1,47.51600003242493,learn,12483.999967575073,Mon Sep 29 2025 15:13:46 GMT-0400 (Eastern Daylight Time),281497.10000002384,A,chimne,I,e,137,2,8849.0,272648.10000002384,9023,WL,A,9.0
1,47.75,learn,12250.0,Mon Sep 29 2025 15:13:46 GMT-0400 (Eastern Daylight Time),281730.60000002384,A,chimney,I,y,210,2,9082.5,272648.10000002384,9023,WL,A,9.0
1,49.08299994468689,learn,10917.00005531311,Mon Sep 29 2025 15:13:46 GMT-0400 (Eastern Daylight Time),283063.3000000119,A,chimneyenter,I,enter,1321,2,10415.199999988079,272648.10000002384,9023,WL,A,9.0
1,51.18300008773804,learn,8816.999912261963,Mon Sep 29 2025 15:13:46 GMT-0400 (Eastern Daylight Time),285163.89999997616,A,b,I,b,2088,2,2100.199999988079,283063.6999999881,9023,WL,A,10.0
1,51.367000102996826,learn,8632.999897003174,Mon Sep 29 2025 15:13:46 GMT-0400 (Eastern Daylight Time),285347.1999999881,A,bu,I,u,159,2,2283.5,283063.6999999881,9023,WL,A,10.0
1,51.617000102996826,learn,8382.999897003174,Mon Sep 29 2025 15:13:46 GMT-0400 (Eastern Daylight Time),285597.3000000119,A,but,I,t,232,2,2533.600000023842,283063.6999999881,9023,WL,A,10.0
1,51.76699995994568,learn,8233.000040054321,Mon Sep 29 2025 15:13:46 GMT-0400 (Eastern Daylight Time),285747.1999999881,A,butt,I,t,128,2,2683.5,283063.6999999881,9023,WL,A,10.0
1,51.91700005531311,learn,8082.99994468689,Mon Sep 29 2025 15:13:46 GMT-0400 (Eastern Daylight Time),285897.1999999881,A,butto,I,o,137,2,2833.5,283063.6999999881,9023,WL,A,10.0
1,52.06699991226196,learn,7933.000087738037,Mon Sep 29 2025 15:13:46 GMT-0400 (Eastern Daylight Time),286047.1999999881,A,button,I,n,131,2,2983.5,283063.6999999881,9023,WL,A,10.0
1,53.29900002479553,learn,6700.999975204468,Mon Sep 29 2025 15:13:46 GMT-0400 (Eastern Daylight Time),287280.10000002384,A,buttonenter,I,enter,1212,2,4216.400000035763,283063.6999999881,9023,WL,A,10.0
1,60.01699995994568,learn,-16.99995994567871,Mon Sep 29 2025 15:13:46 GMT-0400 (Eastern Daylight Time),293997.39999997616,A,None,I,None,6711,2,6716.899999976158,287280.5,9023,WL,A,11.0
2,2.9839999675750732,learn,57016.00003242493,Mon Sep 29 2025 15:13:46 GMT-0400 (Eastern Daylight Time),374547.3000000119,A,b,I,b,2962,2,2983.0,371564.3000000119,9023,WL,A,1.0
2,3.3340001106262207,learn,56665.99988937378,Mon Sep 29 2025 15:13:46 GMT-0400 (Eastern Daylight Time),374897.3000000119,A,bo,I,o,326,2,3333.0,371564.3000000119,9023,WL,A,1.0
2,3.4830000400543213,learn,56516.99995994568,Mon Sep 29 2025 15:13:46 GMT-0400 (Eastern Daylight Time),375047.10000002384,A,boo,I,o,139,2,3482.800000011921,371564.3000000119,9023,WL,A,1.0
2,3.7339999675750732,learn,56266.00003242493,Mon Sep 29 2025 15:13:46 GMT-0400 (Eastern Daylight Time),375297.1999999881,A,book,I,k,230,2,3732.899999976158,371564.3000000119,9023,WL,A,1.0
2,4.3500001430511475,learn,55649.99985694885,Mon Sep 29 2025 15:13:46 GMT-0400 (Eastern Daylight Time),375913.39999997616,A,bookenter,I,enter,603,2,4349.099999964237,371564.3000000119,9023,WL,A,1.0
2,5.0,learn,55000.0,Mon Sep 29 2025 15:13:46 GMT-0400 (Eastern Daylight Time),376563.89999997616,A,f,I,f,630,2,650.0999999642372,375913.8000000119,9023,WL,A,2.0
2,5.1000001430511475,learn,54899.99985694885,Mon Sep 29 2025 15:13:46 GMT-0400 (Eastern Daylight Time),376663.60000002384,A,fl,I,l,89,2,749.8000000119209,375913.8000000119,9023,WL,A,2.0
2,5.334000110626221,learn,54665.99988937378,Mon Sep 29 2025 15:13:46 GMT-0400 (Eastern Daylight Time),376897.1999999881,A,flo,I,o,214,2,983.3999999761581,375913.8000000119,9023,WL,A,2.0
2,5.516999959945679,learn,54483.00004005432,Mon Sep 29 2025 15:13:46 GMT-0400 (Eastern Daylight Time),377080.39999997616,A,flow,I,w,170,2,1166.5999999642372,375913.8000000119,9023,WL,A,2.0
2,5.58299994468689,learn,54417.00005531311,Mon Sep 29 2025 15:13:46 GMT-0400 (Eastern Daylight Time),377146.6999999881,A,flowe,I,e,44,2,1232.8999999761581,375913.8000000119,9023,WL,A,2.0
2,5.733999967575073,learn,54266.00003242493,Mon Sep 29 2025 15:13:46 GMT-0400 (Eastern Daylight Time),377297.1999999881,A,flower,I,r,132,2,1383.3999999761581,375913.8000000119,9023,WL,A,2.0
2,7.2829999923706055,learn,52717.000007629395,Mon Sep 29 2025 15:13:46 GMT-0400 (Eastern Daylight Time),378846.8000000119,A,flowerenter,I,enter,1532,2,2933.0,375913.8000000119,9023,WL,A,2.0
2,8.0,learn,52000.0,Mon Sep 29 2025 15:13:46 GMT-0400 (Eastern Daylight Time),379563.89999997616,A,t,I,t,705,2,716.7999999523163,378847.10000002384,9023,WL,A,3.0
2,8.134000062942505,learn,51865.999937057495,Mon Sep 29 2025 15:13:46 GMT-0400 (Eastern Daylight Time),379697.3000000119,A,ta,I,a,112,2,850.1999999880791,378847.10000002384,9023,WL,A,3.0
2,8.567000150680542,learn,51432.99984931946,Mon Sep 29 2025 15:13:46 GMT-0400 (Eastern Daylight Time),380130.60000002384,A,t,I,backspace,403,2,1283.5,378847.10000002384,9023,WL,A,3.0
2,8.733999967575073,learn,51266.00003242493,Mon Sep 29 2025 15:13:46 GMT-0400 (Eastern Daylight Time),380297.10000002384,A,tr,I,r,151,2,1450.0,378847.10000002384,9023,WL,A,3.0
2,8.983999967575073,learn,51016.00003242493,Mon Sep 29 2025 15:13:46 GMT-0400 (Eastern Daylight Time),380547.1999999881,A,tra,I,a,224,2,1700.0999999642372,378847.10000002384,9023,WL,A,3.0
2,9.184000015258789,learn,50815.99998474121,Mon Sep 29 2025 15:13:46 GMT-0400 (Eastern Daylight Time),380747.10000002384,A,trai,I,i,184,2,1900.0,378847.10000002384,9023,WL,A,3.0
2,9.469000101089478,learn,50530.99989891052,Mon Sep 29 2025 15:13:46 GMT-0400 (Eastern Daylight Time),381032.10000002384,A,train,I,n,272,2,2185.0,378847.10000002384,9023,WL,A,3.0
2,10.25,learn,49750.0,Mon Sep 29 2025 15:13:46 GMT-0400 (Eastern Daylight Time),381813.39999997616,A,trainenter,I,enter,760,2,2966.2999999523163,378847.10000002384,9023,WL,A,3.0
2,11.0,learn,49000.0,Mon Sep 29 2025 15:13:46 GMT-0400 (Eastern Daylight Time),382563.89999997616,A,r,I,r,730,2,750.0999999642372,381813.8000000119,9023,WL,A,4.0
2,11.150000095367432,learn,48849.99990463257,Mon Sep 29 2025 15:13:46 GMT-0400 (Eastern Daylight Time),382713.89999997616,A,ru,I,u,136,2,900.0999999642372,381813.8000000119,9023,WL,A,4.0
2,12.034000158309937,learn,47965.99984169006,Mon Sep 29 2025 15:13:46 GMT-0400 (Eastern Daylight Time),383597.1999999881,A,rug,I,g,866,2,1783.3999999761581,381813.8000000119,9023,WL,A,4.0
2,12.66700005531311,learn,47332.99994468689,Mon Sep 29 2025 15:13:46 GMT-0400 (Eastern Daylight Time),384230.10000002384,A,rugenter,I,enter,623,2,2416.300000011921,381813.8000000119,9023,WL,A,4.0
2,13.08400011062622,learn,46915.99988937378,Mon Sep 29 2025 15:13:46 GMT-0400 (Eastern Daylight Time),384647.1999999881,A,m,I,m,411,2,416.80000001192093,384230.39999997616,9023,WL,A,5.0
2,13.284000158309937,learn,46715.99984169006,Mon Sep 29 2025 15:13:46 GMT-0400 (Eastern Daylight Time),384847.3000000119,A,me,I,e,180,2,616.9000000357628,384230.39999997616,9023,WL,A,5.0
2,13.400000095367432,learn,46599.99990463257,Mon Sep 29 2025 15:13:46 GMT-0400 (Eastern Daylight Time),384963.89999997616,A,mea,I,a,85,2,733.5,384230.39999997616,9023,WL,A,5.0
2,13.617000102996826,learn,46382.999897003174,Mon Sep 29 2025 15:13:46 GMT-0400 (Eastern Daylight Time),385180.5,A,mead,I,d,192,2,950.1000000238419,384230.39999997616,9023,WL,A,5.0
2,13.867000102996826,learn,46132.999897003174,Mon Sep 29 2025 15:13:46 GMT-0400 (Eastern Daylight Time),385430.8000000119,A,meado,I,o,239,2,1200.4000000357628,384230.39999997616,9023,WL,A,5.0
2,14.16700005531311,learn,45832.99994468689,Mon Sep 29 2025 15:13:46 GMT-0400 (Eastern Daylight Time),385730.60000002384,A,meadow,I,w,269,2,1500.2000000476837,384230.39999997616,9023,WL,A,5.0
2,15.817000150680542,learn,44182.99984931946,Mon Sep 29 2025 15:13:46 GMT-0400 (Eastern Daylight Time),387380.10000002384,A,meadowenter,I,enter,1623,2,3149.7000000476837,384230.39999997616,9023,WL,A,5.0
2,16.51699995994568,learn,43483.00004005432,Mon Sep 29 2025 15:13:46 GMT-0400 (Eastern Daylight Time),388080.5,A,h,I,h,684,2,700.1000000238419,387380.39999997616,9023,WL,A,6.0
2,16.634000062942505,learn,43365.999937057495,Mon Sep 29 2025 15:13:46 GMT-0400 (Eastern Daylight Time),388197.10000002384,A,ha,I,a,90,2,816.7000000476837,387380.39999997616,9023,WL,A,6.0
2,16.83400011062622,learn,43165.99988937378,Mon Sep 29 2025 15:13:46 GMT-0400 (Eastern Daylight Time),388397.1999999881,A,har,I,r,184,2,1016.8000000119209,387380.39999997616,9023,WL,A,6.0
2,17.634000062942505,learn,42365.999937057495,Mon Sep 29 2025 15:13:46 GMT-0400 (Eastern Daylight Time),389197.1999999881,A,harp,I,p,775,2,1816.800000011921,387380.39999997616,9023,WL,A,6.0
2,18.23300004005432,learn,41766.99995994568,Mon Sep 29 2025 15:13:46 GMT-0400 (Eastern Daylight Time),389796.6999999881,A,harpenter,I,enter,574,2,2416.300000011921,387380.39999997616,9023,WL,A,6.0
2,18.600000143051147,learn,41399.99985694885,Mon Sep 29 2025 15:13:46 GMT-0400 (Eastern Daylight Time),390163.60000002384,A,s,I,s,347,2,366.5,389797.10000002384,9023,WL,A,7.0
2,18.733999967575073,learn,41266.00003242493,Mon Sep 29 2025 15:13:46 GMT-0400 (Eastern Daylight Time),390297.3000000119,A,sa,I,a,120,2,500.19999998807907,389797.10000002384,9023,WL,A,7.0
2,18.90000009536743,learn,41099.99990463257,Mon Sep 29 2025 15:13:46 GMT-0400 (Eastern Daylight Time),390463.8000000119,A,sal,I,l,138,2,666.6999999880791,389797.10000002384,9023,WL,A,7.0
2,19.600000143051147,learn,40399.99985694885,Mon Sep 29 2025 15:13:46 GMT-0400 (Eastern Daylight Time),391163.39999997616,A,salt,I,t,684,2,1366.2999999523163,389797.10000002384,9023,WL,A,7.0
2,20.532999992370605,learn,39467.000007629395,Mon Sep 29 2025 15:13:46 GMT-0400 (Eastern Daylight Time),392096.8000000119,A,saltenter,I,enter,916,2,2299.699999988079,389797.10000002384,9023,WL,A,7.0
2,21.08400011062622,learn,38915.99988937378,Mon Sep 29 2025 15:13:46 GMT-0400 (Eastern Daylight Time),392647.3000000119,A,f,I,f,528,2,550.1000000238419,392097.1999999881,9023,WL,A,8.0
2,21.16700005531311,learn,38832.99994468689,Mon Sep 29 2025 15:13:46 GMT-0400 (Eastern Daylight Time),392730.60000002384,A,fi,I,i,69,2,633.4000000357628,392097.1999999881,9023,WL,A,8.0
2,21.350000143051147,learn,38649.99985694885,Mon Sep 29 2025 15:13:46 GMT-0400 (Eastern Daylight Time),392913.89999997616,A,fin,I,n,160,2,816.6999999880791,392097.1999999881,9023,WL,A,8.0
2,21.534000158309937,learn,38465.99984169006,Mon Sep 29 2025 15:13:46 GMT-0400 (Eastern Daylight Time),393097.10000002384,A,fing,I,g,164,2,999.9000000357628,392097.1999999881,9023,WL,A,8.0
2,21.784000158309937,learn,38215.99984169006,Mon Sep 29 2025 15:13:46 GMT-0400 (Eastern Daylight Time),393347.3000000119,A,finge,I,e,228,2,1250.1000000238419,392097.1999999881,9023,WL,A,8.0
2,21.867000102996826,learn,38132.999897003174,Mon Sep 29 2025 15:13:46 GMT-0400 (Eastern Daylight Time),393430.10000002384,A,finger,I,r,65,2,1332.9000000357628,392097.1999999881,9023,WL,A,8.0
2,22.867000102996826,learn,37132.999897003174,Mon Sep 29 2025 15:13:46 GMT-0400 (Eastern Daylight Time),394430.10000002384,A,fingerenter,I,enter,985,2,2332.900000035763,392097.1999999881,9023,WL,A,8.0
2,23.43400001525879,learn,36565.99998474121,Mon Sep 29 2025 15:13:46 GMT-0400 (Eastern Daylight Time),394997.1999999881,A,a,I,a,545,2,566.6999999880791,394430.5,9023,WL,A,9.0
2,24.25,learn,35750.0,Mon Sep 29 2025 15:13:46 GMT-0400 (Eastern Daylight Time),395813.8000000119,A,ap,I,p,791,2,1383.300000011921,394430.5,9023,WL,A,9.0
2,24.40000009536743,learn,35599.99990463257,Mon Sep 29 2025 15:13:46 GMT-0400 (Eastern Daylight Time),395964.0,A,app,I,p,134,2,1533.5,394430.5,9023,WL,A,9.0
2,24.600000143051147,learn,35399.99985694885,Mon Sep 29 2025 15:13:46 GMT-0400 (Eastern Daylight Time),396163.89999997616,A,appl,I,l,176,2,1733.3999999761581,394430.5,9023,WL,A,9.0
2,24.83400011062622,learn,35165.99988937378,Mon Sep 29 2025 15:13:46 GMT-0400 (Eastern Daylight Time),396397.39999997616,A,apple,I,e,207,2,1966.8999999761581,394430.5,9023,WL,A,9.0
2,25.367000102996826,learn,34632.999897003174,Mon Sep 29 2025 15:13:46 GMT-0400 (Eastern Daylight Time),396930.10000002384,A,appleenter,I,enter,511,2,2499.600000023842,394430.5,9023,WL,A,9.0
2,25.733999967575073,learn,34266.00003242493,Mon Sep 29 2025 15:13:46 GMT-0400 (Eastern Daylight Time),397297.3000000119,A,c,I,c,350,2,366.80000001192093,396930.5,9023,WL,A,10.0
2,25.93400001525879,learn,34065.99998474121,Mon Sep 29 2025 15:13:46 GMT-0400 (Eastern Daylight Time),397497.1999999881,A,ch,I,h,187,2,566.6999999880791,396930.5,9023,WL,A,10.0
2,26.032999992370605,learn,33967.000007629395,Mon Sep 29 2025 15:13:46 GMT-0400 (Eastern Daylight Time),397596.89999997616,A,chi,I,i,83,2,666.3999999761581,396930.5,9023,WL,A,10.0
2,26.43400001525879,learn,33565.99998474121,Mon Sep 29 2025 15:13:46 GMT-0400 (Eastern Daylight Time),397997.10000002384,A,chim,I,m,385,2,1066.6000000238419,396930.5,9023,WL,A,10.0
2,27.034000158309937,learn,32965.99984169006,Mon Sep 29 2025 15:13:46 GMT-0400 (Eastern Daylight Time),398597.1999999881,A,chimn,I,n,573,2,1666.699999988079,396930.5,9023,WL,A,10.0
2,27.217000007629395,learn,32782.999992370605,Mon Sep 29 2025 15:13:46 GMT-0400 (Eastern Daylight Time),398780.60000002384,A,chimne,I,e,167,2,1850.1000000238419,396930.5,9023,WL,A,10.0
2,27.51699995994568,learn,32483.00004005432,Mon Sep 29 2025 15:13:46 GMT-0400 (Eastern Daylight Time),399080.5,A,chimney,I,y,288,2,2150.0,396930.5,9023,WL,A,10.0
2,28.299999952316284,learn,31700.000047683716,Mon Sep 29 2025 15:13:46 GMT-0400 (Eastern Daylight Time),399863.3000000119,A,chimneyenter,I,enter,770,2,2932.800000011921,396930.5,9023,WL,A,10.0
2,28.817000150680542,learn,31182.999849319458,Mon Sep 29 2025 15:13:46 GMT-0400 (Eastern Daylight Time),400380.60000002384,A,b,I,b,504,2,516.9000000357628,399863.6999999881,9023,WL,A,11.0
2,29.0,learn,31000.0,Mon Sep 29 2025 15:13:46 GMT-0400 (Eastern Daylight Time),400563.89999997616,A,bu,I,u,159,2,700.1999999880791,399863.6999999881,9023,WL,A,11.0
2,29.284000158309937,learn,30715.999841690063,Mon Sep 29 2025 15:13:46 GMT-0400 (Eastern Daylight Time),400847.3000000119,A,but,I,t,263,2,983.6000000238419,399863.6999999881,9023,WL,A,11.0
2,29.450000047683716,learn,30549.999952316284,Mon Sep 29 2025 15:13:46 GMT-0400 (Eastern Daylight Time),401013.89999997616,A,butt,I,t,139,2,1150.199999988079,399863.6999999881,9023,WL,A,11.0
2,29.65000009536743,learn,30349.99990463257,Mon Sep 29 2025 15:13:46 GMT-0400 (Eastern Daylight Time),401213.89999997616,A,butto,I,o,183,2,1350.199999988079,399863.6999999881,9023,WL,A,11.0
2,30.034000158309937,learn,29965.999841690063,Mon Sep 29 2025 15:13:46 GMT-0400 (Eastern Daylight Time),401597.1999999881,A,button,I,n,358,2,1733.5,399863.6999999881,9023,WL,A,11.0
2,31.23300004005432,learn,28766.99995994568,Mon Sep 29 2025 15:13:46 GMT-0400 (Eastern Daylight Time),402796.8000000119,A,buttonenter,I,enter,1182,2,2933.100000023842,399863.6999999881,9023,WL,A,11.0
2,32.48399996757507,learn,27516.000032424927,Mon Sep 29 2025 15:13:46 GMT-0400 (Eastern Daylight Time),404047.3000000119,A,l,I,l,1235,2,1250.199999988079,402797.10000002384,9023,WL,A,12.0
2,32.68400001525879,learn,27315.99998474121,Mon Sep 29 2025 15:13:46 GMT-0400 (Eastern Daylight Time),404247.39999997616,A,lo,I,o,172,2,1450.2999999523163,402797.10000002384,9023,WL,A,12.0
2,32.81700015068054,learn,27182.999849319458,Mon Sep 29 2025 15:13:46 GMT-0400 (Eastern Daylight Time),404380.5,A,log,I,g,114,2,1583.3999999761581,402797.10000002384,9023,WL,A,12.0
2,33.48399996757507,learn,26516.000032424927,Mon Sep 29 2025 15:13:46 GMT-0400 (Eastern Daylight Time),405047.6999999881,A,logenter,I,enter,648,2,2250.599999964237,402797.10000002384,9023,WL,A,12.0
2,34.217000007629395,learn,25782.999992370605,Mon Sep 29 2025 15:13:46 GMT-0400 (Eastern Daylight Time),405780.60000002384,A,r,I,r,712,2,732.5,405048.10000002384,9023,WL,A,13.0
2,34.33400011062622,learn,25665.99988937378,Mon Sep 29 2025 15:13:46 GMT-0400 (Eastern Daylight Time),405897.10000002384,A,ra,I,a,104,2,849.0,405048.10000002384,9023,WL,A,13.0
2,34.58400011062622,learn,25415.99988937378,Mon Sep 29 2025 15:13:46 GMT-0400 (Eastern Daylight Time),406147.1999999881,A,rat,I,t,226,2,1099.0999999642372,405048.10000002384,9023,WL,A,13.0
2,34.73300004005432,learn,25266.99995994568,Mon Sep 29 2025 15:13:46 GMT-0400 (Eastern Daylight Time),406297.1999999881,A,ratt,I,t,137,2,1249.0999999642372,405048.10000002384,9023,WL,A,13.0
2,34.85000014305115,learn,25149.999856948853,Mon Sep 29 2025 15:13:46 GMT-0400 (Eastern Daylight Time),406413.89999997616,A,rattl,I,l,90,2,1365.7999999523163,405048.10000002384,9023,WL,A,13.0
2,35.0,learn,25000.0,Mon Sep 29 2025 15:13:46 GMT-0400 (Eastern Daylight Time),406564.0,A,rattle,I,e,118,2,1515.8999999761581,405048.10000002384,9023,WL,A,13.0
2,36.467000007629395,learn,23532.999992370605,Mon Sep 29 2025 15:13:46 GMT-0400 (Eastern Daylight Time),408030.10000002384,A,rattleenter,I,enter,1446,2,2982.0,405048.10000002384,9023,WL,A,13.0
2,37.01699995994568,learn,22983.00004005432,Mon Sep 29 2025 15:13:46 GMT-0400 (Eastern Daylight Time),408580.60000002384,A,g,I,g,529,2,550.1000000238419,408030.5,9023,WL,A,14.0
2,37.16700005531311,learn,22832.99994468689,Mon Sep 29 2025 15:13:46 GMT-0400 (Eastern Daylight Time),408730.5,A,go,I,o,136,2,700.0,408030.5,9023,WL,A,14.0
2,37.41700005531311,learn,22582.99994468689,Mon Sep 29 2025 15:13:46 GMT-0400 (Eastern Daylight Time),408980.60000002384,A,gol,I,l,225,2,950.1000000238419,408030.5,9023,WL,A,14.0
2,37.65000009536743,learn,22349.99990463257,Mon Sep 29 2025 15:13:46 GMT-0400 (Eastern Daylight Time),409213.89999997616,A,gold,I,d,215,2,1183.3999999761581,408030.5,9023,WL,A,14.0
2,38.06700015068054,learn,21932.999849319458,Mon Sep 29 2025 15:13:46 GMT-0400 (Eastern Daylight Time),409630.10000002384,A,goldenter,I,enter,399,2,1599.6000000238419,408030.5,9023,WL,A,14.0
2,60.01699995994568,learn,-16.99995994567871,Mon Sep 29 2025 15:13:46 GMT-0400 (Eastern Daylight Time),431580.60000002384,A,None,I,None,21943,2,21950.200000047684,409630.39999997616,9023,WL,A,15.0
3,3.617000102996826,learn,56382.999897003174,Mon Sep 29 2025 15:13:46 GMT-0400 (Eastern Daylight Time),508880.8000000119,A,f,I,f,3598,2,3616.5,505264.3000000119,9023,WL,A,1.0
3,3.7669999599456787,learn,56233.00004005432,Mon Sep 29 2025 15:13:46 GMT-0400 (Eastern Daylight Time),509030.60000002384,A,fl,I,l,122,2,3766.300000011921,505264.3000000119,9023,WL,A,1.0
3,3.9839999675750732,learn,56016.00003242493,Mon Sep 29 2025 15:13:46 GMT-0400 (Eastern Daylight Time),509247.3000000119,A,flo,I,o,190,2,3983.0,505264.3000000119,9023,WL,A,1.0
3,4.516999959945679,learn,55483.00004005432,Mon Sep 29 2025 15:13:46 GMT-0400 (Eastern Daylight Time),509780.60000002384,A,fl,I,backspace,509,2,4516.300000011921,505264.3000000119,9023,WL,A,1.0
3,4.733999967575073,learn,55266.00003242493,Mon Sep 29 2025 15:13:46 GMT-0400 (Eastern Daylight Time),509997.1999999881,A,f,I,backspace,200,2,4732.899999976158,505264.3000000119,9023,WL,A,1.0
3,4.900000095367432,learn,55099.99990463257,Mon Sep 29 2025 15:13:46 GMT-0400 (Eastern Daylight Time),510164.0,A,,I,backspace,142,2,4899.699999988079,505264.3000000119,9023,WL,A,1.0
3,5.599999904632568,learn,54400.00009536743,Mon Sep 29 2025 15:13:46 GMT-0400 (Eastern Daylight Time),510864.0,A,b,I,b,680,2,5599.699999988079,505264.3000000119,9023,WL,A,1.0
3,5.867000102996826,learn,54132.999897003174,Mon Sep 29 2025 15:13:46 GMT-0400 (Eastern Daylight Time),511130.60000002384,A,bo,I,o,253,2,5866.300000011921,505264.3000000119,9023,WL,A,1.0
3,6.016999959945679,learn,53983.00004005432,Mon Sep 29 2025 15:13:46 GMT-0400 (Eastern Daylight Time),511280.60000002384,A,boo,I,o,130,2,6016.300000011921,505264.3000000119,9023,WL,A,1.0
3,6.25,learn,53750.0,Mon Sep 29 2025 15:13:46 GMT-0400 (Eastern Daylight Time),511513.8000000119,A,book,I,k,220,2,6249.5,505264.3000000119,9023,WL,A,1.0
3,6.900000095367432,learn,53099.99990463257,Mon Sep 29 2025 15:13:46 GMT-0400 (Eastern Daylight Time),512163.5,A,bookenter,I,enter,619,2,6899.199999988079,505264.3000000119,9023,WL,A,1.0
3,8.217000007629395,learn,51782.999992370605,Mon Sep 29 2025 15:13:46 GMT-0400 (Eastern Daylight Time),513480.5,A,f,I,f,1309,2,1316.699999988079,512163.8000000119,9023,WL,A,2.0
3,8.41700005531311,learn,51582.99994468689,Mon Sep 29 2025 15:13:46 GMT-0400 (Eastern Daylight Time),513680.60000002384,A,fl,I,l,180,2,1516.800000011921,512163.8000000119,9023,WL,A,2.0
3,8.634000062942505,learn,51365.999937057495,Mon Sep 29 2025 15:13:46 GMT-0400 (Eastern Daylight Time),513897.3000000119,A,flo,I,o,197,2,1733.5,512163.8000000119,9023,WL,A,2.0
3,8.83400011062622,learn,51165.99988937378,Mon Sep 29 2025 15:13:46 GMT-0400 (Eastern Daylight Time),514097.1999999881,A,flow,I,w,179,2,1933.3999999761581,512163.8000000119,9023,WL,A,2.0
3,8.967000007629395,learn,51032.999992370605,Mon Sep 29 2025 15:13:46 GMT-0400 (Eastern Daylight Time),514230.60000002384,A,flowe,I,e,99,2,2066.800000011921,512163.8000000119,9023,WL,A,2.0
3,9.08400011062622,learn,50915.99988937378,Mon Sep 29 2025 15:13:46 GMT-0400 (Eastern Daylight Time),514347.1999999881,A,flower,I,r,94,2,2183.399999976158,512163.8000000119,9023,WL,A,2.0
3,10.41700005531311,learn,49582.99994468689,Mon Sep 29 2025 15:13:46 GMT-0400 (Eastern Daylight Time),515680.10000002384,A,flowerenter,I,enter,1312,2,3516.300000011921,512163.8000000119,9023,WL,A,2.0
3,11.450000047683716,learn,48549.999952316284,Mon Sep 29 2025 15:13:46 GMT-0400 (Eastern Daylight Time),516714.0,A,t,I,t,1023,2,1033.5,515680.5,9023,WL,A,3.0
3,11.684000015258789,learn,48315.99998474121,Mon Sep 29 2025 15:13:46 GMT-0400 (Eastern Daylight Time),516947.3000000119,A,tr,I,r,202,2,1266.800000011921,515680.5,9023,WL,A,3.0
3,11.782999992370605,learn,48217.000007629395,Mon Sep 29 2025 15:13:46 GMT-0400 (Eastern Daylight Time),517047.0,A,tra,I,a,86,2,1366.5,515680.5,9023,WL,A,3.0
3,11.983999967575073,learn,48016.00003242493,Mon Sep 29 2025 15:13:46 GMT-0400 (Eastern Daylight Time),517247.3000000119,A,trai,I,i,182,2,1566.800000011921,515680.5,9023,WL,A,3.0
3,12.217000007629395,learn,47782.999992370605,Mon Sep 29 2025 15:13:46 GMT-0400 (Eastern Daylight Time),517480.5,A,train,I,n,221,2,1800.0,515680.5,9023,WL,A,3.0
3,13.349999904632568,learn,46650.00009536743,Mon Sep 29 2025 15:13:46 GMT-0400 (Eastern Daylight Time),518613.5,A,trainenter,I,enter,1098,2,2933.0,515680.5,9023,WL,A,3.0
3,13.884000062942505,learn,46115.999937057495,Mon Sep 29 2025 15:13:46 GMT-0400 (Eastern Daylight Time),519147.1999999881,A,r,I,r,523,2,533.5,518613.6999999881,9023,WL,A,4.0
3,14.099999904632568,learn,45900.00009536743,Mon Sep 29 2025 15:13:46 GMT-0400 (Eastern Daylight Time),519364.0,A,ru,I,u,190,2,750.3000000119209,518613.6999999881,9023,WL,A,4.0
3,14.684000015258789,learn,45315.99998474121,Mon Sep 29 2025 15:13:46 GMT-0400 (Eastern Daylight Time),519947.1999999881,A,rug,I,g,561,2,1333.5,518613.6999999881,9023,WL,A,4.0
3,15.367000102996826,learn,44632.999897003174,Mon Sep 29 2025 15:13:46 GMT-0400 (Eastern Daylight Time),520630.1999999881,A,rugenter,I,enter,674,2,2016.5,518613.6999999881,9023,WL,A,4.0
3,15.783999919891357,learn,44216.00008010864,Mon Sep 29 2025 15:13:46 GMT-0400 (Eastern Daylight Time),521047.10000002384,A,m,I,m,411,2,416.7000000476837,520630.39999997616,9023,WL,A,5.0
3,16.033999919891357,learn,43966.00008010864,Mon Sep 29 2025 15:13:46 GMT-0400 (Eastern Daylight Time),521297.1999999881,A,me,I,e,229,2,666.8000000119209,520630.39999997616,9023,WL,A,5.0
3,16.15000009536743,learn,43849.99990463257,Mon Sep 29 2025 15:13:46 GMT-0400 (Eastern Daylight Time),521414.10000002384,A,mea,I,a,90,2,783.7000000476837,520630.39999997616,9023,WL,A,5.0
3,16.367000102996826,learn,43632.999897003174,Mon Sep 29 2025 15:13:46 GMT-0400 (Eastern Daylight Time),521630.5,A,mead,I,d,197,2,1000.1000000238419,520630.39999997616,9023,WL,A,5.0
3,16.634000062942505,learn,43365.999937057495,Mon Sep 29 2025 15:13:46 GMT-0400 (Eastern Daylight Time),521897.1999999881,A,meado,I,o,255,2,1266.800000011921,520630.39999997616,9023,WL,A,5.0
3,16.933000087738037,learn,43066.99991226196,Mon Sep 29 2025 15:13:46 GMT-0400 (Eastern Daylight Time),522196.8000000119,A,meadow,I,w,275,2,1566.4000000357628,520630.39999997616,9023,WL,A,5.0
3,17.617000102996826,learn,42382.999897003174,Mon Sep 29 2025 15:13:46 GMT-0400 (Eastern Daylight Time),522880.10000002384,A,meadowenter,I,enter,666,2,2249.7000000476837,520630.39999997616,9023,WL,A,5.0
3,18.217000007629395,learn,41782.999992370605,Mon Sep 29 2025 15:13:46 GMT-0400 (Eastern Daylight Time),523480.39999997616,A,h,I,h,593,2,599.8999999761581,522880.5,9023,WL,A,6.0
3,18.33400011062622,learn,41665.99988937378,Mon Sep 29 2025 15:13:46 GMT-0400 (Eastern Daylight Time),523597.3000000119,A,ha,I,a,99,2,716.8000000119209,522880.5,9023,WL,A,6.0
3,18.617000102996826,learn,41382.999897003174,Mon Sep 29 2025 15:13:46 GMT-0400 (Eastern Daylight Time),523880.39999997616,A,har,I,r,271,2,999.8999999761581,522880.5,9023,WL,A,6.0
3,19.700000047683716,learn,40299.999952316284,Mon Sep 29 2025 15:13:46 GMT-0400 (Eastern Daylight Time),524963.8999999762,A,harp,I,p,1061,2,2083.399999976158,522880.5,9023,WL,A,6.0
3,20.282999992370605,learn,39717.000007629395,Mon Sep 29 2025 15:13:46 GMT-0400 (Eastern Daylight Time),525546.8000000119,A,harpenter,I,enter,566,2,2666.300000011921,522880.5,9023,WL,A,6.0
3,20.717000007629395,learn,39282.999992370605,Mon Sep 29 2025 15:13:46 GMT-0400 (Eastern Daylight Time),525980.6000000238,A,s,I,s,422,2,433.5,525547.1000000238,9023,WL,A,7.0
3,21.15000009536743,learn,38849.99990463257,Mon Sep 29 2025 15:13:46 GMT-0400 (Eastern Daylight Time),526414.0,A,sa,I,a,417,2,866.8999999761581,525547.1000000238,9023,WL,A,7.0
3,22.233999967575073,learn,37766.00003242493,Mon Sep 29 2025 15:13:46 GMT-0400 (Eastern Daylight Time),527497.3000000119,A,sal,I,l,1067,2,1950.199999988079,525547.1000000238,9023,WL,A,7.0
3,22.5,learn,37500.0,Mon Sep 29 2025 15:13:46 GMT-0400 (Eastern Daylight Time),527764.0,A,salt,I,t,241,2,2216.899999976158,525547.1000000238,9023,WL,A,7.0
3,23.76699995994568,learn,36233.00004005432,Mon Sep 29 2025 15:13:46 GMT-0400 (Eastern Daylight Time),529030.1000000238,A,saltenter,I,enter,1241,2,3483.0,525547.1000000238,9023,WL,A,7.0
3,24.40000009536743,learn,35599.99990463257,Mon Sep 29 2025 15:13:46 GMT-0400 (Eastern Daylight Time),529663.8999999762,A,f,I,f,619,2,633.3999999761581,529030.5,9023,WL,A,8.0
3,24.533999919891357,learn,35466.00008010864,Mon Sep 29 2025 15:13:46 GMT-0400 (Eastern Daylight Time),529797.3000000119,A,fi,I,i,106,2,766.8000000119209,529030.5,9023,WL,A,8.0
3,24.66700005531311,learn,35332.99994468689,Mon Sep 29 2025 15:13:46 GMT-0400 (Eastern Daylight Time),529930.6000000238,A,fin,I,n,121,2,900.1000000238419,529030.5,9023,WL,A,8.0
3,24.783999919891357,learn,35216.00008010864,Mon Sep 29 2025 15:13:46 GMT-0400 (Eastern Daylight Time),530047.1999999881,A,fing,I,g,98,2,1016.6999999880791,529030.5,9023,WL,A,8.0
3,24.983999967575073,learn,35016.00003242493,Mon Sep 29 2025 15:13:46 GMT-0400 (Eastern Daylight Time),530247.3000000119,A,finge,I,e,190,2,1216.800000011921,529030.5,9023,WL,A,8.0
3,25.117000102996826,learn,34882.999897003174,Mon Sep 29 2025 15:13:46 GMT-0400 (Eastern Daylight Time),530380.6000000238,A,finger,I,r,110,2,1350.1000000238419,529030.5,9023,WL,A,8.0
3,26.83299994468689,learn,33167.00005531311,Mon Sep 29 2025 15:13:46 GMT-0400 (Eastern Daylight Time),532096.6999999881,A,fingerenter,I,enter,1696,2,3066.199999988079,529030.5,9023,WL,A,8.0
3,28.533999919891357,learn,31466.000080108643,Mon Sep 29 2025 15:13:46 GMT-0400 (Eastern Daylight Time),533797.1999999881,A,a,I,a,1679,2,1700.0999999642372,532097.1000000238,9023,WL,A,9.0
3,28.867000102996826,learn,31132.999897003174,Mon Sep 29 2025 15:13:46 GMT-0400 (Eastern Daylight Time),534130.3999999762,A,ap,I,p,313,2,2033.2999999523163,532097.1000000238,9023,WL,A,9.0
3,29.0,learn,31000.0,Mon Sep 29 2025 15:13:46 GMT-0400 (Eastern Daylight Time),534263.8000000119,A,app,I,p,122,2,2166.699999988079,532097.1000000238,9023,WL,A,9.0
3,29.200000047683716,learn,30799.999952316284,Mon Sep 29 2025 15:13:46 GMT-0400 (Eastern Daylight Time),534463.8999999762,A,appl,I,l,172,2,2366.7999999523163,532097.1000000238,9023,WL,A,9.0
3,29.34999990463257,learn,30650.00009536743,Mon Sep 29 2025 15:13:46 GMT-0400 (Eastern Daylight Time),534613.8999999762,A,apple,I,e,125,2,2516.7999999523163,532097.1000000238,9023,WL,A,9.0
3,30.16700005531311,learn,29832.99994468689,Mon Sep 29 2025 15:13:46 GMT-0400 (Eastern Daylight Time),535430.1000000238,A,appleenter,I,enter,790,2,3333.0,532097.1000000238,9023,WL,A,9.0
3,30.68400001525879,learn,29315.99998474121,Mon Sep 29 2025 15:13:46 GMT-0400 (Eastern Daylight Time),535947.1999999881,A,c,I,c,505,2,516.6999999880791,535430.5,9023,WL,A,10.0
3,30.90000009536743,learn,29099.99990463257,Mon Sep 29 2025 15:13:46 GMT-0400 (Eastern Daylight Time),536164.0,A,ch,I,h,193,2,733.5,535430.5,9023,WL,A,10.0
3,31.233999967575073,learn,28766.000032424927,Mon Sep 29 2025 15:13:46 GMT-0400 (Eastern Daylight Time),536497.3000000119,A,chi,I,i,305,2,1066.800000011921,535430.5,9023,WL,A,10.0
3,31.51699995994568,learn,28483.00004005432,Mon Sep 29 2025 15:13:46 GMT-0400 (Eastern Daylight Time),536780.1999999881,A,chim,I,m,267,2,1349.699999988079,535430.5,9023,WL,A,10.0
3,31.783999919891357,learn,28216.000080108643,Mon Sep 29 2025 15:13:46 GMT-0400 (Eastern Daylight Time),537047.3000000119,A,chimn,I,n,245,2,1616.800000011921,535430.5,9023,WL,A,10.0
3,31.90000009536743,learn,28099.99990463257,Mon Sep 29 2025 15:13:46 GMT-0400 (Eastern Daylight Time),537164.0,A,chimne,I,e,100,2,1733.5,535430.5,9023,WL,A,10.0
3,32.23399996757507,learn,27766.000032424927,Mon Sep 29 2025 15:13:46 GMT-0400 (Eastern Daylight Time),537497.1999999881,A,chimney,I,y,312,2,2066.699999988079,535430.5,9023,WL,A,10.0
3,34.84999990463257,learn,25150.00009536743,Mon Sep 29 2025 15:13:46 GMT-0400 (Eastern Daylight Time),540113.3999999762,A,chimneyenter,I,enter,2594,2,4682.899999976158,535430.5,9023,WL,A,10.0
3,35.634000062942505,learn,24365.999937057495,Mon Sep 29 2025 15:13:46 GMT-0400 (Eastern Daylight Time),540897.3000000119,A,b,I,b,766,2,783.5,540113.8000000119,9023,WL,A,11.0
3,35.801000118255615,learn,24198.999881744385,Mon Sep 29 2025 15:13:46 GMT-0400 (Eastern Daylight Time),541064.8000000119,A,bu,I,u,154,2,951.0,540113.8000000119,9023,WL,A,11.0
3,36.09999990463257,learn,23900.00009536743,Mon Sep 29 2025 15:13:46 GMT-0400 (Eastern Daylight Time),541363.8999999762,A,but,I,t,274,2,1250.0999999642372,540113.8000000119,9023,WL,A,11.0
3,36.25,learn,23750.0,Mon Sep 29 2025 15:13:46 GMT-0400 (Eastern Daylight Time),541514.0,A,butt,I,t,135,2,1400.199999988079,540113.8000000119,9023,WL,A,11.0
3,36.41700005531311,learn,23582.99994468689,Mon Sep 29 2025 15:13:46 GMT-0400 (Eastern Daylight Time),541680.5,A,butto,I,o,137,2,1566.699999988079,540113.8000000119,9023,WL,A,11.0
3,36.59999990463257,learn,23400.00009536743,Mon Sep 29 2025 15:13:46 GMT-0400 (Eastern Daylight Time),541863.6999999881,A,button,I,n,163,2,1749.8999999761581,540113.8000000119,9023,WL,A,11.0
3,37.76699995994568,learn,22233.00004005432,Mon Sep 29 2025 15:13:46 GMT-0400 (Eastern Daylight Time),543030.1999999881,A,buttonenter,I,enter,1149,2,2916.399999976158,540113.8000000119,9023,WL,A,11.0
3,41.450000047683716,learn,18549.999952316284,Mon Sep 29 2025 15:13:46 GMT-0400 (Eastern Daylight Time),546714.0,A,l,I,l,3675,2,3683.5,543030.5,9023,WL,A,12.0
3,41.73399996757507,learn,18266.000032424927,Mon Sep 29 2025 15:13:46 GMT-0400 (Eastern Daylight Time),546997.1000000238,A,lo,I,o,258,2,3966.600000023842,543030.5,9023,WL,A,12.0
3,42.049999952316284,learn,17950.000047683716,Mon Sep 29 2025 15:13:46 GMT-0400 (Eastern Daylight Time),547314.0,A,log,I,g,295,2,4283.5,543030.5,9023,WL,A,12.0
3,42.81699991226196,learn,17183.000087738037,Mon Sep 29 2025 15:13:46 GMT-0400 (Eastern Daylight Time),548080.1000000238,A,logenter,I,enter,746,2,5049.600000023842,543030.5,9023,WL,A,12.0
3,43.134000062942505,learn,16865.999937057495,Mon Sep 29 2025 15:13:46 GMT-0400 (Eastern Daylight Time),548397.1999999881,A,r,I,r,304,2,316.80000001192093,548080.3999999762,9023,WL,A,13.0
3,43.26699995994568,learn,16733.00004005432,Mon Sep 29 2025 15:13:46 GMT-0400 (Eastern Daylight Time),548530.5,A,ra,I,a,112,2,450.10000002384186,548080.3999999762,9023,WL,A,13.0
3,43.48399996757507,learn,16516.000032424927,Mon Sep 29 2025 15:13:46 GMT-0400 (Eastern Daylight Time),548747.1999999881,A,rat,I,t,194,2,666.8000000119209,548080.3999999762,9023,WL,A,13.0
3,43.66700005531311,learn,16332.99994468689,Mon Sep 29 2025 15:13:46 GMT-0400 (Eastern Daylight Time),548930.6000000238,A,ratt,I,t,160,2,850.2000000476837,548080.3999999762,9023,WL,A,13.0
3,43.81699991226196,learn,16183.000087738037,Mon Sep 29 2025 15:13:46 GMT-0400 (Eastern Daylight Time),549080.5,A,rattl,I,l,131,2,1000.1000000238419,548080.3999999762,9023,WL,A,13.0
3,43.98399996757507,learn,16016.000032424927,Mon Sep 29 2025 15:13:46 GMT-0400 (Eastern Daylight Time),549247.3000000119,A,rattle,I,e,147,2,1166.9000000357628,548080.3999999762,9023,WL,A,13.0
3,45.200000047683716,learn,14799.999952316284,Mon Sep 29 2025 15:13:46 GMT-0400 (Eastern Daylight Time),550463.5,A,rattleenter,I,enter,1197,2,2383.100000023842,548080.3999999762,9023,WL,A,13.0
3,46.65000009536743,learn,13349.999904632568,Mon Sep 29 2025 15:13:46 GMT-0400 (Eastern Daylight Time),551913.8999999762,A,k,I,k,1440,2,1449.8999999761581,550464.0,9023,WL,A,14.0
3,46.90000009536743,learn,13099.999904632568,Mon Sep 29 2025 15:13:46 GMT-0400 (Eastern Daylight Time),552163.8999999762,A,ke,I,e,224,2,1699.8999999761581,550464.0,9023,WL,A,14.0
3,47.15000009536743,learn,12849.999904632568,Mon Sep 29 2025 15:13:46 GMT-0400 (Eastern Daylight Time),552413.8999999762,A,key,I,y,232,2,1949.8999999761581,550464.0,9023,WL,A,14.0
3,48.117000102996826,learn,11882.999897003174,Mon Sep 29 2025 15:13:46 GMT-0400 (Eastern Daylight Time),553380.1999999881,A,keyenter,I,enter,942,2,2916.199999988079,550464.0,9023,WL,A,14.0
3,48.78399991989136,learn,11216.000080108643,Mon Sep 29 2025 15:13:46 GMT-0400 (Eastern Daylight Time),554047.3000000119,A,g,I,g,652,2,666.8000000119209,553380.5,9023,WL,A,15.0
3,48.90000009536743,learn,11099.999904632568,Mon Sep 29 2025 15:13:46 GMT-0400 (Eastern Daylight Time),554164.0,A,go,I,o,94,2,783.5,553380.5,9023,WL,A,15.0
3,49.08400011062622,learn,10915.99988937378,Mon Sep 29 2025 15:13:46 GMT-0400 (Eastern Daylight Time),554347.3999999762,A,gol,I,l,169,2,966.8999999761581,553380.5,9023,WL,A,15.0
3,49.23399996757507,learn,10766.000032424927,Mon Sep 29 2025 15:13:46 GMT-0400 (Eastern Daylight Time),554497.1999999881,A,gold,I,d,121,2,1116.699999988079,553380.5,9023,WL,A,15.0
3,49.51699995994568,learn,10483.000040054321,Mon Sep 29 2025 15:13:46 GMT-0400 (Eastern Daylight Time),554780.1000000238,A,goldenter,I,enter,266,2,1399.6000000238419,553380.5,9023,WL,A,15.0
4,2.882999897003174,learn,57117.000102996826,Mon Sep 29 2025 15:13:46 GMT-0400 (Eastern Daylight Time),628014.0,A,b,I,b,2867,2,2882.800000011921,625131.1999999881,9023,WL,A,1.0
4,3.1999998092651367,learn,56800.00019073486,Mon Sep 29 2025 15:13:46 GMT-0400 (Eastern Daylight Time),628330.6000000238,A,bo,I,o,303,2,3199.400000035763,625131.1999999881,9023,WL,A,1.0
4,3.3999998569488525,learn,56600.00014305115,Mon Sep 29 2025 15:13:46 GMT-0400 (Eastern Daylight Time),628530.8000000119,A,boo,I,o,179,2,3399.600000023842,625131.1999999881,9023,WL,A,1.0
4,3.616999864578247,learn,56383.00013542175,Mon Sep 29 2025 15:13:46 GMT-0400 (Eastern Daylight Time),628747.3000000119,A,book,I,k,194,2,3616.100000023842,625131.1999999881,9023,WL,A,1.0
4,4.33299994468689,learn,55667.00005531311,Mon Sep 29 2025 15:13:46 GMT-0400 (Eastern Daylight Time),629463.3999999762,A,bookenter,I,enter,703,2,4332.199999988079,625131.1999999881,9023,WL,A,1.0
4,5.049999952316284,learn,54950.000047683716,Mon Sep 29 2025 15:13:46 GMT-0400 (Eastern Daylight Time),630180.8000000119,A,f,I,f,696,2,717.0,629463.8000000119,9023,WL,A,2.0
4,5.2170000076293945,learn,54782.999992370605,Mon Sep 29 2025 15:13:46 GMT-0400 (Eastern Daylight Time),630347.1999999881,A,fl,I,l,151,2,883.3999999761581,629463.8000000119,9023,WL,A,2.0
4,5.4670000076293945,learn,54532.999992370605,Mon Sep 29 2025 15:13:46 GMT-0400 (Eastern Daylight Time),630597.1999999881,A,flo,I,o,218,2,1133.3999999761581,629463.8000000119,9023,WL,A,2.0
4,5.632999897003174,learn,54367.000102996826,Mon Sep 29 2025 15:13:46 GMT-0400 (Eastern Daylight Time),630764.0,A,flow,I,w,145,2,1300.199999988079,629463.8000000119,9023,WL,A,2.0
4,5.732999801635742,learn,54267.00019836426,Mon Sep 29 2025 15:13:46 GMT-0400 (Eastern Daylight Time),630864.0,A,flowe,I,e,81,2,1400.199999988079,629463.8000000119,9023,WL,A,2.0
4,5.8999998569488525,learn,54100.00014305115,Mon Sep 29 2025 15:13:46 GMT-0400 (Eastern Daylight Time),631030.6000000238,A,flower,I,r,133,2,1566.800000011921,629463.8000000119,9023,WL,A,2.0
4,7.815999984741211,learn,52184.00001525879,Mon Sep 29 2025 15:13:46 GMT-0400 (Eastern Daylight Time),632946.8000000119,A,flowerenter,I,enter,1893,2,3483.0,629463.8000000119,9023,WL,A,2.0
4,8.399999856948853,learn,51600.00014305115,Mon Sep 29 2025 15:13:46 GMT-0400 (Eastern Daylight Time),633530.6000000238,A,t,I,t,573,2,583.4000000357628,632947.1999999881,9023,WL,A,3.0
4,8.616999864578247,learn,51383.00013542175,Mon Sep 29 2025 15:13:46 GMT-0400 (Eastern Daylight Time),633747.3000000119,A,tr,I,r,193,2,800.1000000238419,632947.1999999881,9023,WL,A,3.0
4,8.732999801635742,learn,51267.00019836426,Mon Sep 29 2025 15:13:46 GMT-0400 (Eastern Daylight Time),633863.6999999881,A,tra,I,a,106,2,916.5,632947.1999999881,9023,WL,A,3.0
4,8.916999816894531,learn,51083.00018310547,Mon Sep 29 2025 15:13:46 GMT-0400 (Eastern Daylight Time),634047.3000000119,A,trai,I,i,158,2,1100.1000000238419,632947.1999999881,9023,WL,A,3.0
4,9.099999904632568,learn,50900.00009536743,Mon Sep 29 2025 15:13:46 GMT-0400 (Eastern Daylight Time),634230.6000000238,A,train,I,n,158,2,1283.4000000357628,632947.1999999881,9023,WL,A,3.0
4,10.432999849319458,learn,49567.00015068054,Mon Sep 29 2025 15:13:46 GMT-0400 (Eastern Daylight Time),635563.5,A,trainenter,I,enter,1318,2,2616.300000011921,632947.1999999881,9023,WL,A,3.0
4,11.0,learn,49000.0,Mon Sep 29 2025 15:13:46 GMT-0400 (Eastern Daylight Time),636130.8000000119,A,r,I,r,548,2,567.0,635563.8000000119,9023,WL,A,4.0
4,11.166999816894531,learn,48833.00018310547,Mon Sep 29 2025 15:13:46 GMT-0400 (Eastern Daylight Time),636297.1999999881,A,ru,I,u,152,2,733.3999999761581,635563.8000000119,9023,WL,A,4.0
4,11.482999801635742,learn,48517.00019836426,Mon Sep 29 2025 15:13:46 GMT-0400 (Eastern Daylight Time),636614.0,A,rug,I,g,292,2,1050.199999988079,635563.8000000119,9023,WL,A,4.0
4,11.949999809265137,learn,48050.00019073486,Mon Sep 29 2025 15:13:46 GMT-0400 (Eastern Daylight Time),637080.1000000238,A,rugenter,I,enter,455,2,1516.300000011921,635563.8000000119,9023,WL,A,4.0
4,12.516999959945679,learn,47483.00004005432,Mon Sep 29 2025 15:13:46 GMT-0400 (Eastern Daylight Time),637647.3000000119,A,m,I,m,553,2,566.8000000119209,637080.5,9023,WL,A,5.0
4,12.682999849319458,learn,47317.00015068054,Mon Sep 29 2025 15:13:46 GMT-0400 (Eastern Daylight Time),637813.8999999762,A,me,I,e,141,2,733.3999999761581,637080.5,9023,WL,A,5.0
4,12.782999992370605,learn,47217.000007629395,Mon Sep 29 2025 15:13:46 GMT-0400 (Eastern Daylight Time),637914.0,A,mea,I,a,87,2,833.5,637080.5,9023,WL,A,5.0
4,13.866999864578247,learn,46133.00013542175,Mon Sep 29 2025 15:13:46 GMT-0400 (Eastern Daylight Time),638997.3000000119,A,mead,I,d,1058,2,1916.800000011921,637080.5,9023,WL,A,5.0
4,14.116999864578247,learn,45883.00013542175,Mon Sep 29 2025 15:13:46 GMT-0400 (Eastern Daylight Time),639247.3000000119,A,meado,I,o,230,2,2166.800000011921,637080.5,9023,WL,A,5.0
4,14.248999834060669,learn,45751.00016593933,Mon Sep 29 2025 15:13:46 GMT-0400 (Eastern Daylight Time),639380.0,A,meadow,I,w,106,2,2299.5,637080.5,9023,WL,A,5.0
4,15.549999952316284,learn,44450.000047683716,Mon Sep 29 2025 15:13:46 GMT-0400 (Eastern Daylight Time),640680.1000000238,A,meadowenter,I,enter,1291,2,3599.600000023842,637080.5,9023,WL,A,5.0
4,17.015999794006348,learn,42984.00020599365,Mon Sep 29 2025 15:13:46 GMT-0400 (Eastern Daylight Time),642147.0,A,h,I,h,1448,2,1466.5,640680.5,9023,WL,A,6.0
4,17.116999864578247,learn,42883.00013542175,Mon Sep 29 2025 15:13:46 GMT-0400 (Eastern Daylight Time),642247.1999999881,A,ha,I,a,91,2,1566.699999988079,640680.5,9023,WL,A,6.0
4,17.33299994468689,learn,42667.00005531311,Mon Sep 29 2025 15:13:46 GMT-0400 (Eastern Daylight Time),642464.0,A,haa,I,a,198,2,1783.5,640680.5,9023,WL,A,6.0
4,18.699999809265137,learn,41300.00019073486,Mon Sep 29 2025 15:13:46 GMT-0400 (Eastern Daylight Time),643830.6000000238,A,ha,I,backspace,1339,2,3150.100000023842,640680.5,9023,WL,A,6.0
4,19.382999897003174,learn,40617.000102996826,Mon Sep 29 2025 15:13:46 GMT-0400 (Eastern Daylight Time),644513.8999999762,A,har,I,r,663,2,3833.399999976158,640680.5,9023,WL,A,6.0
4,19.882999897003174,learn,40117.000102996826,Mon Sep 29 2025 15:13:46 GMT-0400 (Eastern Daylight Time),645014.0,A,harp,I,p,475,2,4333.5,640680.5,9023,WL,A,6.0
4,21.09999990463257,learn,38900.00009536743,Mon Sep 29 2025 15:13:46 GMT-0400 (Eastern Daylight Time),646230.3999999762,A,harpenter,I,enter,1197,2,5549.899999976158,640680.5,9023,WL,A,6.0
4,22.51699995994568,learn,37483.00004005432,Mon Sep 29 2025 15:13:46 GMT-0400 (Eastern Daylight Time),647647.3000000119,A,s,I,s,1403,2,1416.699999988079,646230.6000000238,9023,WL,A,7.0
4,22.632999897003174,learn,37367.000102996826,Mon Sep 29 2025 15:13:46 GMT-0400 (Eastern Daylight Time),647764.0,A,sa,I,a,93,2,1533.3999999761581,646230.6000000238,9023,WL,A,7.0
4,22.782999992370605,learn,37217.000007629395,Mon Sep 29 2025 15:13:46 GMT-0400 (Eastern Daylight Time),647914.0,A,sal,I,l,137,2,1683.3999999761581,646230.6000000238,9023,WL,A,7.0
4,22.865999937057495,learn,37134.000062942505,Mon Sep 29 2025 15:13:46 GMT-0400 (Eastern Daylight Time),647996.8000000119,A,salk,I,k,58,2,1766.199999988079,646230.6000000238,9023,WL,A,7.0
4,23.51699995994568,learn,36483.00004005432,Mon Sep 29 2025 15:13:46 GMT-0400 (Eastern Daylight Time),648647.3000000119,A,sal,I,backspace,628,2,2416.699999988079,646230.6000000238,9023,WL,A,7.0
4,23.75,learn,36250.0,Mon Sep 29 2025 15:13:46 GMT-0400 (Eastern Daylight Time),648880.5,A,salt,I,t,206,2,2649.899999976158,646230.6000000238,9023,WL,A,7.0
4,24.533999919891357,learn,35466.00008010864,Mon Sep 29 2025 15:13:46 GMT-0400 (Eastern Daylight Time),649664.6000000238,A,saltenter,I,enter,756,2,3434.0,646230.6000000238,9023,WL,A,7.0
4,24.967000007629395,learn,35032.999992370605,Mon Sep 29 2025 15:13:46 GMT-0400 (Eastern Daylight Time),650097.3999999762,A,f,I,f,415,2,432.39999997615814,649665.0,9023,WL,A,8.0
4,25.08299994468689,learn,34917.00005531311,Mon Sep 29 2025 15:13:46 GMT-0400 (Eastern Daylight Time),650214.0,A,fi,I,i,90,2,549.0,649665.0,9023,WL,A,8.0
4,25.25,learn,34750.0,Mon Sep 29 2025 15:13:46 GMT-0400 (Eastern Daylight Time),650380.6999999881,A,fin,I,n,143,2,715.6999999880791,649665.0,9023,WL,A,8.0
4,25.366999864578247,learn,34633.00013542175,Mon Sep 29 2025 15:13:46 GMT-0400 (Eastern Daylight Time),650497.3000000119,A,fing,I,g,98,2,832.3000000119209,649665.0,9023,WL,A,8.0
4,25.58299994468689,learn,34417.00005531311,Mon Sep 29 2025 15:13:46 GMT-0400 (Eastern Daylight Time),650713.8999999762,A,finge,I,e,196,2,1048.8999999761581,649665.0,9023,WL,A,8.0
4,25.699999809265137,learn,34300.00019073486,Mon Sep 29 2025 15:13:46 GMT-0400 (Eastern Daylight Time),650830.6000000238,A,finger,I,r,98,2,1165.6000000238419,649665.0,9023,WL,A,8.0
4,27.365999937057495,learn,32634.000062942505,Mon Sep 29 2025 15:13:46 GMT-0400 (Eastern Daylight Time),652496.8000000119,A,fingerenter,I,enter,1639,2,2831.800000011921,649665.0,9023,WL,A,8.0
4,28.16699981689453,learn,31833.00018310547,Mon Sep 29 2025 15:13:46 GMT-0400 (Eastern Daylight Time),653297.3999999762,A,a,I,a,784,2,800.2999999523163,652497.1000000238,9023,WL,A,9.0
4,28.717000007629395,learn,31282.999992370605,Mon Sep 29 2025 15:13:46 GMT-0400 (Eastern Daylight Time),653847.1999999881,A,ap,I,p,540,2,1350.0999999642372,652497.1000000238,9023,WL,A,9.0
4,28.866999864578247,learn,31133.000135421753,Mon Sep 29 2025 15:13:46 GMT-0400 (Eastern Daylight Time),653997.3000000119,A,app,I,p,134,2,1500.199999988079,652497.1000000238,9023,WL,A,9.0
4,29.066999912261963,learn,30933.000087738037,Mon Sep 29 2025 15:13:46 GMT-0400 (Eastern Daylight Time),654197.1999999881,A,appl,I,l,168,2,1700.0999999642372,652497.1000000238,9023,WL,A,9.0
4,29.182999849319458,learn,30817.000150680542,Mon Sep 29 2025 15:13:46 GMT-0400 (Eastern Daylight Time),654314.0,A,apple,I,e,103,2,1816.8999999761581,652497.1000000238,9023,WL,A,9.0
4,30.115999937057495,learn,29884.000062942505,Mon Sep 29 2025 15:13:46 GMT-0400 (Eastern Daylight Time),655246.8000000119,A,appleenter,I,enter,915,2,2749.699999988079,652497.1000000238,9023,WL,A,9.0
4,30.382999897003174,learn,29617.000102996826,Mon Sep 29 2025 15:13:46 GMT-0400 (Eastern Daylight Time),655513.8999999762,A,c,I,c,257,2,266.7999999523163,655247.1000000238,9023,WL,A,10.0
4,30.632999897003174,learn,29367.000102996826,Mon Sep 29 2025 15:13:46 GMT-0400 (Eastern Daylight Time),655763.6999999881,A,ch,I,h,226,2,516.5999999642372,655247.1000000238,9023,WL,A,10.0
4,30.66599988937378,learn,29334.00011062622,Mon Sep 29 2025 15:13:46 GMT-0400 (Eastern Daylight Time),655796.8000000119,A,chi,I,i,10,2,549.6999999880791,655247.1000000238,9023,WL,A,10.0
4,31.116999864578247,learn,28883.000135421753,Mon Sep 29 2025 15:13:46 GMT-0400 (Eastern Daylight Time),656247.3000000119,A,chim,I,m,428,2,1000.1999999880791,655247.1000000238,9023,WL,A,10.0
4,31.91699981689453,learn,28083.00018310547,Mon Sep 29 2025 15:13:46 GMT-0400 (Eastern Daylight Time),657047.5,A,chimn,I,n,790,2,1800.3999999761581,655247.1000000238,9023,WL,A,10.0
4,32.16699981689453,learn,27833.00018310547,Mon Sep 29 2025 15:13:46 GMT-0400 (Eastern Daylight Time),657297.1999999881,A,chimne,I,e,229,2,2050.099999964237,655247.1000000238,9023,WL,A,10.0
4,32.34999990463257,learn,27650.00009536743,Mon Sep 29 2025 15:13:46 GMT-0400 (Eastern Daylight Time),657480.6000000238,A,chimney,I,y,171,2,2233.5,655247.1000000238,9023,WL,A,10.0
4,33.64999985694885,learn,26350.000143051147,Mon Sep 29 2025 15:13:46 GMT-0400 (Eastern Daylight Time),658780.1999999881,A,chimneyenter,I,enter,1274,2,3533.099999964237,655247.1000000238,9023,WL,A,10.0
4,34.132999897003174,learn,25867.000102996826,Mon Sep 29 2025 15:13:46 GMT-0400 (Eastern Daylight Time),659263.8999999762,A,b,I,b,468,2,483.39999997615814,658780.5,9023,WL,A,11.0
4,34.26699995994568,learn,25733.00004005432,Mon Sep 29 2025 15:13:46 GMT-0400 (Eastern Daylight Time),659397.3000000119,A,bu,I,u,108,2,616.8000000119209,658780.5,9023,WL,A,11.0
4,34.51699995994568,learn,25483.00004005432,Mon Sep 29 2025 15:13:46 GMT-0400 (Eastern Daylight Time),659647.3000000119,A,but,I,t,231,2,866.8000000119209,658780.5,9023,WL,A,11.0
4,34.66699981689453,learn,25333.00018310547,Mon Sep 29 2025 15:13:46 GMT-0400 (Eastern Daylight Time),659797.1000000238,A,butt,I,t,125,2,1016.6000000238419,658780.5,9023,WL,A,11.0
4,34.782999992370605,learn,25217.000007629395,Mon Sep 29 2025 15:13:46 GMT-0400 (Eastern Daylight Time),659913.8000000119,A,butto,I,o,105,2,1133.300000011921,658780.5,9023,WL,A,11.0
4,34.98299980163574,learn,25017.000198364258,Mon Sep 29 2025 15:13:46 GMT-0400 (Eastern Daylight Time),660113.5,A,button,I,n,171,2,1333.0,658780.5,9023,WL,A,11.0
4,35.96599984169006,learn,24034.000158309937,Mon Sep 29 2025 15:13:46 GMT-0400 (Eastern Daylight Time),661096.8999999762,A,buttonenter,I,enter,974,2,2316.399999976158,658780.5,9023,WL,A,11.0
4,36.632999897003174,learn,23367.000102996826,Mon Sep 29 2025 15:13:46 GMT-0400 (Eastern Daylight Time),661764.0,A,l,I,l,646,2,666.6000000238419,661097.3999999762,9023,WL,A,12.0
4,36.86699986457825,learn,23133.000135421753,Mon Sep 29 2025 15:13:46 GMT-0400 (Eastern Daylight Time),661997.3000000119,A,lo,I,o,218,2,899.9000000357628,661097.3999999762,9023,WL,A,12.0
4,38.33299994468689,learn,21667.00005531311,Mon Sep 29 2025 15:13:46 GMT-0400 (Eastern Daylight Time),663463.6000000238,A,log,I,g,1447,2,2366.2000000476837,661097.3999999762,9023,WL,A,12.0
4,39.25,learn,20750.0,Mon Sep 29 2025 15:13:46 GMT-0400 (Eastern Daylight Time),664380.3000000119,A,logenter,I,enter,902,2,3282.900000035763,661097.3999999762,9023,WL,A,12.0
4,40.84999990463257,learn,19150.00009536743,Mon Sep 29 2025 15:13:46 GMT-0400 (Eastern Daylight Time),665980.6999999881,A,k,I,k,1588,2,1600.0,664380.6999999881,9023,WL,A,13.0
4,41.14999985694885,learn,18850.000143051147,Mon Sep 29 2025 15:13:46 GMT-0400 (Eastern Daylight Time),666280.6999999881,A,ke,I,e,288,2,1900.0,664380.6999999881,9023,WL,A,13.0
4,41.76699995994568,learn,18233.00004005432,Mon Sep 29 2025 15:13:46 GMT-0400 (Eastern Daylight Time),666897.3000000119,A,key,I,y,598,2,2516.600000023842,664380.6999999881,9023,WL,A,13.0
4,42.632999897003174,learn,17367.000102996826,Mon Sep 29 2025 15:13:46 GMT-0400 (Eastern Daylight Time),667763.5,A,keyenter,I,enter,844,2,3382.800000011921,664380.6999999881,9023,WL,A,13.0
4,43.43299984931946,learn,16567.000150680542,Mon Sep 29 2025 15:13:46 GMT-0400 (Eastern Daylight Time),668564.0,A,t,I,t,781,2,800.1999999880791,667763.8000000119,9023,WL,A,14.0
4,43.532999992370605,learn,16467.000007629395,Mon Sep 29 2025 15:13:46 GMT-0400 (Eastern Daylight Time),668663.6999999881,A,ta,I,a,89,2,899.8999999761581,667763.8000000119,9023,WL,A,14.0
4,44.69999980926514,learn,15300.000190734863,Mon Sep 29 2025 15:13:46 GMT-0400 (Eastern Daylight Time),669830.6999999881,A,t,I,backspace,1140,2,2066.899999976158,667763.8000000119,9023,WL,A,14.0
4,44.86699986457825,learn,15133.000135421753,Mon Sep 29 2025 15:13:46 GMT-0400 (Eastern Daylight Time),669997.3000000119,A,,I,backspace,151,2,2233.5,667763.8000000119,9023,WL,A,14.0
4,45.5,learn,14500.0,Mon Sep 29 2025 15:13:46 GMT-0400 (Eastern Daylight Time),670630.8000000119,A,r,I,r,608,2,2867.0,667763.8000000119,9023,WL,A,14.0
4,45.61699986457825,learn,14383.000135421753,Mon Sep 29 2025 15:13:46 GMT-0400 (Eastern Daylight Time),670747.3000000119,A,ra,I,a,101,2,2983.5,667763.8000000119,9023,WL,A,14.0
4,45.86699986457825,learn,14133.000135421753,Mon Sep 29 2025 15:13:46 GMT-0400 (Eastern Daylight Time),670997.3000000119,A,rat,I,t,225,2,3233.5,667763.8000000119,9023,WL,A,14.0
4,46.032999992370605,learn,13967.000007629395,Mon Sep 29 2025 15:13:46 GMT-0400 (Eastern Daylight Time),671164.1000000238,A,ratt,I,t,153,2,3400.300000011921,667763.8000000119,9023,WL,A,14.0
4,46.18299984931946,learn,13817.000150680542,Mon Sep 29 2025 15:13:46 GMT-0400 (Eastern Daylight Time),671314.0,A,rattl,I,l,118,2,3550.199999988079,667763.8000000119,9023,WL,A,14.0
4,46.282999992370605,learn,13717.000007629395,Mon Sep 29 2025 15:13:46 GMT-0400 (Eastern Daylight Time),671414.0,A,rattle,I,e,82,2,3650.199999988079,667763.8000000119,9023,WL,A,14.0
4,47.132999897003174,learn,12867.000102996826,Mon Sep 29 2025 15:13:46 GMT-0400 (Eastern Daylight Time),672263.3999999762,A,rattleenter,I,enter,841,2,4499.599999964237,667763.8000000119,9023,WL,A,14.0
4,47.94999980926514,learn,12050.000190734863,Mon Sep 29 2025 15:13:46 GMT-0400 (Eastern Daylight Time),673080.6000000238,A,g,I,g,808,2,816.9000000357628,672263.6999999881,9023,WL,A,15.0
4,48.06699991226196,learn,11933.000087738037,Mon Sep 29 2025 15:13:46 GMT-0400 (Eastern Daylight Time),673197.3000000119,A,go,I,o,100,2,933.6000000238419,672263.6999999881,9023,WL,A,15.0
4,48.299999952316284,learn,11700.000047683716,Mon Sep 29 2025 15:13:46 GMT-0400 (Eastern Daylight Time),673430.6000000238,A,gol,I,l,208,2,1166.9000000357628,672263.6999999881,9023,WL,A,15.0
4,48.59999990463257,learn,11400.000095367432,Mon Sep 29 2025 15:13:46 GMT-0400 (Eastern Daylight Time),673730.5,A,gold,I,d,278,2,1466.800000011921,672263.6999999881,9023,WL,A,15.0
4,49.09999990463257,learn,10900.000095367432,Mon Sep 29 2025 15:13:46 GMT-0400 (Eastern Daylight Time),674231.0,A,goldenter,I,enter,474,2,1967.300000011921,672263.6999999881,9023,WL,A,15.0
5,2.568000078201294,learn,60000.0,Mon Sep 29 2025 15:13:46 GMT-0400 (Eastern Daylight Time),747614.3999999762,A,b,I,b,2553,2,2567.199999988079,745047.1999999881,9023,WL,A,1.0
5,3.250999927520752,learn,60000.0,Mon Sep 29 2025 15:13:46 GMT-0400 (Eastern Daylight Time),748297.3000000119,A,bo,I,o,671,2,3250.100000023842,745047.1999999881,9023,WL,A,1.0
5,3.816999912261963,learn,60000.0,Mon Sep 29 2025 15:13:46 GMT-0400 (Eastern Daylight Time),748864.1000000238,A,b,I,backspace,548,2,3816.900000035763,745047.1999999881,9023,WL,A,1.0
5,4.000999927520752,learn,60000.0,Mon Sep 29 2025 15:13:46 GMT-0400 (Eastern Daylight Time),749047.3999999762,A,,I,backspace,157,2,4000.199999988079,745047.1999999881,9023,WL,A,1.0
5,4.617000102996826,learn,60000.0,Mon Sep 29 2025 15:13:46 GMT-0400 (Eastern Daylight Time),749664.0,A,b,I,b,598,2,4616.800000011921,745047.1999999881,9023,WL,A,1.0
5,4.884000062942505,learn,60000.0,Mon Sep 29 2025 15:13:46 GMT-0400 (Eastern Daylight Time),749930.6999999881,A,bo,I,o,245,2,4883.5,745047.1999999881,9023,WL,A,1.0
5,5.033999919891357,learn,60000.0,Mon Sep 29 2025 15:13:46 GMT-0400 (Eastern Daylight Time),750080.1000000238,A,boo,I,o,127,2,5032.900000035763,745047.1999999881,9023,WL,A,1.0
5,6.066999912261963,learn,60000.0,Mon Sep 29 2025 15:13:46 GMT-0400 (Eastern Daylight Time),751113.6000000238,A,book,I,k,1024,2,6066.400000035763,745047.1999999881,9023,WL,A,1.0
5,6.783999919891357,learn,60000.0,Mon Sep 29 2025 15:13:46 GMT-0400 (Eastern Daylight Time),751830.1000000238,A,bookenter,I,enter,692,2,6782.900000035763,745047.1999999881,9023,WL,A,1.0
5,7.351000070571899,learn,60000.0,Mon Sep 29 2025 15:13:46 GMT-0400 (Eastern Daylight Time),752397.5,A,f,I,f,554,2,567.0,751830.5,9023,WL,A,2.0
5,7.4670000076293945,learn,60000.0,Mon Sep 29 2025 15:13:46 GMT-0400 (Eastern Daylight Time),752514.1000000238,A,fl,I,l,96,2,683.6000000238419,751830.5,9023,WL,A,2.0
5,7.66700005531311,learn,60000.0,Mon Sep 29 2025 15:13:46 GMT-0400 (Eastern Daylight Time),752714.0,A,flo,I,o,179,2,883.5,751830.5,9023,WL,A,2.0
5,7.834000110626221,learn,60000.0,Mon Sep 29 2025 15:13:46 GMT-0400 (Eastern Daylight Time),752880.6000000238,A,flow,I,w,148,2,1050.1000000238419,751830.5,9023,WL,A,2.0
5,7.934000015258789,learn,60000.0,Mon Sep 29 2025 15:13:46 GMT-0400 (Eastern Daylight Time),752980.6999999881,A,flowe,I,e,75,2,1150.199999988079,751830.5,9023,WL,A,2.0
5,8.033999919891357,learn,60000.0,Mon Sep 29 2025 15:13:46 GMT-0400 (Eastern Daylight Time),753080.5,A,flower,I,r,89,2,1250.0,751830.5,9023,WL,A,2.0
5,8.650000095367432,learn,60000.0,Mon Sep 29 2025 15:13:46 GMT-0400 (Eastern Daylight Time),753696.8999999762,A,flowerenter,I,enter,588,2,1866.3999999761581,751830.5,9023,WL,A,2.0
5,9.301000118255615,learn,60000.0,Mon Sep 29 2025 15:13:46 GMT-0400 (Eastern Daylight Time),754347.3000000119,A,t,I,t,638,2,650.1000000238419,753697.1999999881,9023,WL,A,3.0
5,9.500999927520752,learn,60000.0,Mon Sep 29 2025 15:13:46 GMT-0400 (Eastern Daylight Time),754547.3999999762,A,tr,I,r,177,2,850.1999999880791,753697.1999999881,9023,WL,A,3.0
5,9.618000030517578,learn,60000.0,Mon Sep 29 2025 15:13:46 GMT-0400 (Eastern Daylight Time),754664.8000000119,A,tra,I,a,107,2,967.6000000238419,753697.1999999881,9023,WL,A,3.0
5,9.801000118255615,learn,60000.0,Mon Sep 29 2025 15:13:46 GMT-0400 (Eastern Daylight Time),754847.3000000119,A,trai,I,i,163,2,1150.1000000238419,753697.1999999881,9023,WL,A,3.0
5,9.950000047683716,learn,60000.0,Mon Sep 29 2025 15:13:46 GMT-0400 (Eastern Daylight Time),754996.8999999762,A,train,I,n,116,2,1299.699999988079,753697.1999999881,9023,WL,A,3.0
5,10.401000022888184,learn,60000.0,Mon Sep 29 2025 15:13:46 GMT-0400 (Eastern Daylight Time),755447.8000000119,A,trainenter,I,enter,441,2,1750.6000000238419,753697.1999999881,9023,WL,A,3.0
5,11.3510000705719,learn,60000.0,Mon Sep 29 2025 15:13:46 GMT-0400 (Eastern Daylight Time),756397.3999999762,A,r,I,r,937,2,949.1999999880791,755448.1999999881,9023,WL,A,4.0
5,11.533999919891357,learn,60000.0,Mon Sep 29 2025 15:13:46 GMT-0400 (Eastern Daylight Time),756580.6999999881,A,ru,I,u,161,2,1132.5,755448.1999999881,9023,WL,A,4.0
5,11.983999967575073,learn,60000.0,Mon Sep 29 2025 15:13:46 GMT-0400 (Eastern Daylight Time),757030.6999999881,A,rug,I,g,424,2,1582.5,755448.1999999881,9023,WL,A,4.0
5,12.650000095367432,learn,60000.0,Mon Sep 29 2025 15:13:46 GMT-0400 (Eastern Daylight Time),757696.8999999762,A,rugenter,I,enter,644,2,2248.699999988079,755448.1999999881,9023,WL,A,4.0
5,13.384000062942505,learn,60000.0,Mon Sep 29 2025 15:13:46 GMT-0400 (Eastern Daylight Time),758430.8000000119,A,m,I,m,719,2,733.5,757697.3000000119,9023,WL,A,5.0
5,13.58400011062622,learn,60000.0,Mon Sep 29 2025 15:13:46 GMT-0400 (Eastern Daylight Time),758630.6999999881,A,me,I,e,173,2,933.3999999761581,757697.3000000119,9023,WL,A,5.0
5,13.700999975204468,learn,60000.0,Mon Sep 29 2025 15:13:46 GMT-0400 (Eastern Daylight Time),758747.3000000119,A,mea,I,a,94,2,1050.0,757697.3000000119,9023,WL,A,5.0
5,14.117000102996826,learn,60000.0,Mon Sep 29 2025 15:13:46 GMT-0400 (Eastern Daylight Time),759164.0,A,mead,I,d,395,2,1466.699999988079,757697.3000000119,9023,WL,A,5.0
5,14.450999975204468,learn,60000.0,Mon Sep 29 2025 15:13:46 GMT-0400 (Eastern Daylight Time),759497.3000000119,A,meado,I,o,321,2,1800.0,757697.3000000119,9023,WL,A,5.0
5,14.58400011062622,learn,60000.0,Mon Sep 29 2025 15:13:46 GMT-0400 (Eastern Daylight Time),759630.6000000238,A,meadow,I,w,117,2,1933.300000011921,757697.3000000119,9023,WL,A,5.0
5,15.684000015258789,learn,60000.0,Mon Sep 29 2025 15:13:46 GMT-0400 (Eastern Daylight Time),760730.3000000119,A,meadowenter,I,enter,1078,2,3033.0,757697.3000000119,9023,WL,A,5.0
5,16.401000022888184,learn,60000.0,Mon Sep 29 2025 15:13:46 GMT-0400 (Eastern Daylight Time),761447.3999999762,A,h,I,h,710,2,716.7999999523163,760730.6000000238,9023,WL,A,6.0
5,16.500999927520752,learn,60000.0,Mon Sep 29 2025 15:13:46 GMT-0400 (Eastern Daylight Time),761547.3000000119,A,ha,I,a,84,2,816.6999999880791,760730.6000000238,9023,WL,A,6.0
5,16.750999927520752,learn,60000.0,Mon Sep 29 2025 15:13:46 GMT-0400 (Eastern Daylight Time),761797.3999999762,A,har,I,r,217,2,1066.7999999523163,760730.6000000238,9023,WL,A,6.0
5,17.1010000705719,learn,60000.0,Mon Sep 29 2025 15:13:46 GMT-0400 (Eastern Daylight Time),762147.3999999762,A,harp,I,p,329,2,1416.7999999523163,760730.6000000238,9023,WL,A,6.0
5,17.91700005531311,learn,60000.0,Mon Sep 29 2025 15:13:46 GMT-0400 (Eastern Daylight Time),762963.6000000238,A,harpenter,I,enter,794,2,2233.0,760730.6000000238,9023,WL,A,6.0
5,18.301000118255615,learn,60000.0,Mon Sep 29 2025 15:13:46 GMT-0400 (Eastern Daylight Time),763347.3999999762,A,s,I,s,364,2,383.5,762963.8999999762,9023,WL,A,7.0
5,18.43400001525879,learn,60000.0,Mon Sep 29 2025 15:13:46 GMT-0400 (Eastern Daylight Time),763480.5,A,sa,I,a,113,2,516.6000000238419,762963.8999999762,9023,WL,A,7.0
5,18.6010000705719,learn,60000.0,Mon Sep 29 2025 15:13:46 GMT-0400 (Eastern Daylight Time),763647.3000000119,A,sal,I,l,148,2,683.4000000357628,762963.8999999762,9023,WL,A,7.0
5,19.16700005531311,learn,60000.0,Mon Sep 29 2025 15:13:46 GMT-0400 (Eastern Daylight Time),764214.0,A,salt,I,t,533,2,1250.1000000238419,762963.8999999762,9023,WL,A,7.0
5,20.43400001525879,learn,60000.0,Mon Sep 29 2025 15:13:46 GMT-0400 (Eastern Daylight Time),765480.1999999881,A,saltenter,I,enter,1254,2,2516.300000011921,762963.8999999762,9023,WL,A,7.0
5,21.000999927520752,learn,60000.0,Mon Sep 29 2025 15:13:46 GMT-0400 (Eastern Daylight Time),766047.3999999762,A,f,I,f,553,2,566.8999999761581,765480.5,9023,WL,A,8.0
5,21.1010000705719,learn,60000.0,Mon Sep 29 2025 15:13:46 GMT-0400 (Eastern Daylight Time),766147.3000000119,A,fi,I,i,78,2,666.8000000119209,765480.5,9023,WL,A,8.0
5,21.250999927520752,learn,60000.0,Mon Sep 29 2025 15:13:46 GMT-0400 (Eastern Daylight Time),766297.3000000119,A,fin,I,n,130,2,816.8000000119209,765480.5,9023,WL,A,8.0
5,21.43400001525879,learn,60000.0,Mon Sep 29 2025 15:13:46 GMT-0400 (Eastern Daylight Time),766480.6000000238,A,fing,I,g,157,2,1000.1000000238419,765480.5,9023,WL,A,8.0
5,21.651000022888184,learn,60000.0,Mon Sep 29 2025 15:13:46 GMT-0400 (Eastern Daylight Time),766697.3000000119,A,finge,I,e,204,2,1216.800000011921,765480.5,9023,WL,A,8.0
5,21.76699995994568,learn,60000.0,Mon Sep 29 2025 15:13:46 GMT-0400 (Eastern Daylight Time),766814.0,A,finger,I,r,92,2,1333.5,765480.5,9023,WL,A,8.0
5,22.884000062942505,learn,60000.0,Mon Sep 29 2025 15:13:46 GMT-0400 (Eastern Daylight Time),767930.3000000119,A,fingerenter,I,enter,1094,2,2449.800000011921,765480.5,9023,WL,A,8.0
5,23.533999919891357,learn,60000.0,Mon Sep 29 2025 15:13:46 GMT-0400 (Eastern Daylight Time),768580.6999999881,A,a,I,a,629,2,650.0999999642372,767930.6000000238,9023,WL,A,9.0
5,23.867000102996826,learn,60000.0,Mon Sep 29 2025 15:13:46 GMT-0400 (Eastern Daylight Time),768914.0,A,ap,I,p,312,2,983.3999999761581,767930.6000000238,9023,WL,A,9.0
5,24.01800012588501,learn,60000.0,Mon Sep 29 2025 15:13:46 GMT-0400 (Eastern Daylight Time),769064.8999999762,A,app,I,p,139,2,1134.2999999523163,767930.6000000238,9023,WL,A,9.0
5,24.200999975204468,learn,60000.0,Mon Sep 29 2025 15:13:46 GMT-0400 (Eastern Daylight Time),769247.3000000119,A,appl,I,l,164,2,1316.699999988079,767930.6000000238,9023,WL,A,9.0
5,24.367000102996826,learn,60000.0,Mon Sep 29 2025 15:13:46 GMT-0400 (Eastern Daylight Time),769414.0,A,apple,I,e,142,2,1483.3999999761581,767930.6000000238,9023,WL,A,9.0
5,24.816999912261963,learn,60000.0,Mon Sep 29 2025 15:13:46 GMT-0400 (Eastern Daylight Time),769863.3999999762,A,appleenter,I,enter,439,2,1932.7999999523163,767930.6000000238,9023,WL,A,9.0
5,25.533999919891357,learn,60000.0,Mon Sep 29 2025 15:13:46 GMT-0400 (Eastern Daylight Time),770580.8000000119,A,c,I,c,697,2,716.9000000357628,769863.8999999762,9023,WL,A,10.0
5,25.818000078201294,learn,60000.0,Mon Sep 29 2025 15:13:46 GMT-0400 (Eastern Daylight Time),770864.1999999881,A,ch,I,h,264,2,1000.3000000119209,769863.8999999762,9023,WL,A,10.0
5,25.901000022888184,learn,60000.0,Mon Sep 29 2025 15:13:46 GMT-0400 (Eastern Daylight Time),770947.1999999881,A,chi,I,i,59,2,1083.300000011921,769863.8999999762,9023,WL,A,10.0
5,26.367000102996826,learn,60000.0,Mon Sep 29 2025 15:13:46 GMT-0400 (Eastern Daylight Time),771414.0,A,chim,I,m,434,2,1550.1000000238419,769863.8999999762,9023,WL,A,10.0
5,26.950999975204468,learn,60000.0,Mon Sep 29 2025 15:13:46 GMT-0400 (Eastern Daylight Time),771997.3000000119,A,chimn,I,n,567,2,2133.400000035763,769863.8999999762,9023,WL,A,10.0
5,27.151000022888184,learn,60000.0,Mon Sep 29 2025 15:13:46 GMT-0400 (Eastern Daylight Time),772197.3999999762,A,chimne,I,e,175,2,2333.5,769863.8999999762,9023,WL,A,10.0
5,27.401000022888184,learn,60000.0,Mon Sep 29 2025 15:13:46 GMT-0400 (Eastern Daylight Time),772447.3000000119,A,chimney,I,y,223,2,2583.400000035763,769863.8999999762,9023,WL,A,10.0
5,28.58400011062622,learn,60000.0,Mon Sep 29 2025 15:13:46 GMT-0400 (Eastern Daylight Time),773630.1999999881,A,chimneyenter,I,enter,1166,2,3766.300000011921,769863.8999999762,9023,WL,A,10.0
5,28.950999975204468,learn,60000.0,Mon Sep 29 2025 15:13:46 GMT-0400 (Eastern Daylight Time),773997.3000000119,A,b,I,b,354,2,366.80000001192093,773630.5,9023,WL,A,11.0
5,29.117000102996826,learn,60000.0,Mon Sep 29 2025 15:13:46 GMT-0400 (Eastern Daylight Time),774164.0,A,bu,I,u,143,2,533.5,773630.5,9023,WL,A,11.0
5,29.3510000705719,learn,60000.0,Mon Sep 29 2025 15:13:46 GMT-0400 (Eastern Daylight Time),774397.3000000119,A,but,I,t,210,2,766.8000000119209,773630.5,9023,WL,A,11.0
5,29.51699995994568,learn,60000.0,Mon Sep 29 2025 15:13:46 GMT-0400 (Eastern Daylight Time),774564.0,A,butt,I,t,142,2,933.5,773630.5,9023,WL,A,11.0
5,29.66700005531311,learn,60000.0,Mon Sep 29 2025 15:13:46 GMT-0400 (Eastern Daylight Time),774714.0,A,butto,I,o,137,2,1083.5,773630.5,9023,WL,A,11.0
5,29.816999912261963,learn,60000.0,Mon Sep 29 2025 15:13:46 GMT-0400 (Eastern Daylight Time),774864.0,A,button,I,n,131,2,1233.5,773630.5,9023,WL,A,11.0
5,31.16700005531311,learn,60000.0,Mon Sep 29 2025 15:13:46 GMT-0400 (Eastern Daylight Time),776213.5,A,buttonenter,I,enter,1316,2,2583.0,773630.5,9023,WL,A,11.0
5,32.217000007629395,learn,60000.0,Mon Sep 29 2025 15:13:46 GMT-0400 (Eastern Daylight Time),777264.0,A,l,I,l,1035,2,1050.1000000238419,776213.8999999762,9023,WL,A,12.0
5,32.41700005531311,learn,60000.0,Mon Sep 29 2025 15:13:46 GMT-0400 (Eastern Daylight Time),777463.6999999881,A,lo,I,o,189,2,1249.800000011921,776213.8999999762,9023,WL,A,12.0
5,32.801000118255615,learn,60000.0,Mon Sep 29 2025 15:13:46 GMT-0400 (Eastern Daylight Time),777847.3999999762,A,log,I,g,357,2,1633.5,776213.8999999762,9023,WL,A,12.0
5,34.06699991226196,learn,60000.0,Mon Sep 29 2025 15:13:46 GMT-0400 (Eastern Daylight Time),779113.6000000238,A,logenter,I,enter,1252,2,2899.7000000476837,776213.8999999762,9023,WL,A,12.0
5,35.06699991226196,learn,60000.0,Mon Sep 29 2025 15:13:46 GMT-0400 (Eastern Daylight Time),780113.8999999762,A,k,I,k,983,2,1000.0999999642372,779113.8000000119,9023,WL,A,13.0
5,35.28399991989136,learn,60000.0,Mon Sep 29 2025 15:13:46 GMT-0400 (Eastern Daylight Time),780330.6999999881,A,ke,I,e,202,2,1216.8999999761581,779113.8000000119,9023,WL,A,13.0
5,35.58400011062622,learn,60000.0,Mon Sep 29 2025 15:13:46 GMT-0400 (Eastern Daylight Time),780630.6999999881,A,key,I,y,275,2,1516.8999999761581,779113.8000000119,9023,WL,A,13.0
5,36.450000047683716,learn,60000.0,Mon Sep 29 2025 15:13:46 GMT-0400 (Eastern Daylight Time),781496.8999999762,A,keyenter,I,enter,854,2,2383.099999964237,779113.8000000119,9023,WL,A,13.0
5,41.301000118255615,learn,60000.0,Mon Sep 29 2025 15:13:46 GMT-0400 (Eastern Daylight Time),786347.3000000119,A,r,I,r,4840,2,4850.100000023842,781497.1999999881,9023,WL,A,14.0
5,41.467000007629395,learn,60000.0,Mon Sep 29 2025 15:13:46 GMT-0400 (Eastern Daylight Time),786513.8000000119,A,ra,I,a,144,2,5016.600000023842,781497.1999999881,9023,WL,A,14.0
5,41.75099992752075,learn,60000.0,Mon Sep 29 2025 15:13:46 GMT-0400 (Eastern Daylight Time),786797.3999999762,A,rat,I,t,260,2,5300.199999988079,781497.1999999881,9023,WL,A,14.0
5,41.91700005531311,learn,60000.0,Mon Sep 29 2025 15:13:46 GMT-0400 (Eastern Daylight Time),786964.0,A,ratt,I,t,135,2,5466.800000011921,781497.1999999881,9023,WL,A,14.0
5,42.117000102996826,learn,60000.0,Mon Sep 29 2025 15:13:46 GMT-0400 (Eastern Daylight Time),787164.1000000238,A,rattl,I,l,184,2,5666.900000035763,781497.1999999881,9023,WL,A,14.0
5,42.301000118255615,learn,60000.0,Mon Sep 29 2025 15:13:46 GMT-0400 (Eastern Daylight Time),787347.3999999762,A,rattle,I,e,154,2,5850.199999988079,781497.1999999881,9023,WL,A,14.0
5,42.58400011062622,learn,60000.0,Mon Sep 29 2025 15:13:46 GMT-0400 (Eastern Daylight Time),787630.1000000238,A,rattleenter,I,enter,265,2,6132.900000035763,781497.1999999881,9023,WL,A,14.0
5,43.151000022888184,learn,60000.0,Mon Sep 29 2025 15:13:46 GMT-0400 (Eastern Daylight Time),788197.3999999762,A,g,I,g,545,2,566.8999999761581,787630.5,9023,WL,A,15.0
5,43.23399996757507,learn,60000.0,Mon Sep 29 2025 15:13:46 GMT-0400 (Eastern Daylight Time),788280.5,A,go,I,o,72,2,650.0,787630.5,9023,WL,A,15.0
5,43.45099997520447,learn,60000.0,Mon Sep 29 2025 15:13:46 GMT-0400 (Eastern Daylight Time),788497.1999999881,A,gol,I,l,196,2,866.6999999880791,787630.5,9023,WL,A,15.0
5,43.6010000705719,learn,60000.0,Mon Sep 29 2025 15:13:46 GMT-0400 (Eastern Daylight Time),788647.3000000119,A,gold,I,d,139,2,1016.8000000119209,787630.5,9023,WL,A,15.0
5,44.134000062942505,learn,60000.0,Mon Sep 29 2025 15:13:46 GMT-0400 (Eastern Daylight Time),789180.1999999881,A,goldenter,I,enter,516,2,1549.699999988079,787630.5,9023,WL,A,15.0
6,2.683000087738037,distr,57316.99991226196,Mon Sep 29 2025 15:13:46 GMT-0400 (Eastern Daylight Time),878980.8000000119,B,b,I,b,2661,2,2683.0,876297.8000000119,9023,WL,A,1.0
6,2.933000087738037,distr,57066.99991226196,Mon Sep 29 2025 15:13:46 GMT-0400 (Eastern Daylight Time),879230.6000000238,B,bo,I,o,225,2,2932.800000011921,876297.8000000119,9023,WL,A,1.0
6,3.249000072479248,distr,56750.99992752075,Mon Sep 29 2025 15:13:46 GMT-0400 (Eastern Daylight Time),879547.0,B,bow,I,w,302,2,3249.199999988079,876297.8000000119,9023,WL,A,1.0
6,3.433000087738037,distr,56566.99991226196,Mon Sep 29 2025 15:13:46 GMT-0400 (Eastern Daylight Time),879730.8000000119,B,bowl,I,l,163,2,3433.0,876297.8000000119,9023,WL,A,1.0
6,4.2829999923706055,distr,55717.000007629395,Mon Sep 29 2025 15:13:46 GMT-0400 (Eastern Daylight Time),880580.3000000119,B,bowlenter,I,enter,817,2,4282.5,876297.8000000119,9023,WL,A,1.0
6,5.083000183105469,distr,54916.99981689453,Mon Sep 29 2025 15:13:46 GMT-0400 (Eastern Daylight Time),881380.6999999881,B,d,I,d,780,2,800.1999999880791,880580.5,9023,WL,A,2.0
6,5.433000087738037,distr,54566.99991226196,Mon Sep 29 2025 15:13:46 GMT-0400 (Eastern Daylight Time),881730.6000000238,B,da,I,a,328,2,1150.1000000238419,880580.5,9023,WL,A,2.0
6,5.867000102996826,distr,54132.999897003174,Mon Sep 29 2025 15:13:46 GMT-0400 (Eastern Daylight Time),882164.1999999881,B,daw,I,w,405,2,1583.699999988079,880580.5,9023,WL,A,2.0
6,6.083000183105469,distr,53916.99981689453,Mon Sep 29 2025 15:13:46 GMT-0400 (Eastern Daylight Time),882380.6999999881,B,dawl,I,l,201,2,1800.199999988079,880580.5,9023,WL,A,2.0
6,6.916000127792358,distr,53083.99987220764,Mon Sep 29 2025 15:13:46 GMT-0400 (Eastern Daylight Time),883214.0,B,daw,I,backspace,815,2,2633.5,880580.5,9023,WL,A,2.0
6,7.867000102996826,distr,52132.999897003174,Mon Sep 29 2025 15:13:46 GMT-0400 (Eastern Daylight Time),884164.1000000238,B,dawn,I,n,927,2,3583.600000023842,880580.5,9023,WL,A,2.0
6,8.966000080108643,distr,51033.99991989136,Mon Sep 29 2025 15:13:46 GMT-0400 (Eastern Daylight Time),885263.5,B,dawnenter,I,enter,1081,2,4683.0,880580.5,9023,WL,A,2.0
6,10.100000143051147,distr,49899.99985694885,Mon Sep 29 2025 15:13:46 GMT-0400 (Eastern Daylight Time),886397.3999999762,B,j,I,j,1121,2,1133.5999999642372,885263.8000000119,9023,WL,A,3.0
6,10.299000024795532,distr,49700.99997520447,Mon Sep 29 2025 15:13:46 GMT-0400 (Eastern Daylight Time),886596.8999999762,B,ju,I,u,176,2,1333.0999999642372,885263.8000000119,9023,WL,A,3.0
6,10.616000175476074,distr,49383.999824523926,Mon Sep 29 2025 15:13:46 GMT-0400 (Eastern Daylight Time),886913.6000000238,B,jud,I,d,300,2,1649.800000011921,885263.8000000119,9023,WL,A,3.0
6,10.950000047683716,distr,49049.999952316284,Mon Sep 29 2025 15:13:46 GMT-0400 (Eastern Daylight Time),887247.3000000119,B,judg,I,g,319,2,1983.5,885263.8000000119,9023,WL,A,3.0
6,11.100000143051147,distr,48899.99985694885,Mon Sep 29 2025 15:13:46 GMT-0400 (Eastern Daylight Time),887397.3999999762,B,judge,I,e,127,2,2133.599999964237,885263.8000000119,9023,WL,A,3.0
6,12.666000127792358,distr,47333.99987220764,Mon Sep 29 2025 15:13:46 GMT-0400 (Eastern Daylight Time),888963.6000000238,B,judgeenter,I,enter,1542,2,3699.800000011921,885263.8000000119,9023,WL,A,3.0
6,13.315999984741211,distr,46684.00001525879,Mon Sep 29 2025 15:13:46 GMT-0400 (Eastern Daylight Time),889613.8999999762,B,g,I,g,637,2,650.0,888963.8999999762,9023,WL,A,4.0
6,13.616000175476074,distr,46383.999824523926,Mon Sep 29 2025 15:13:46 GMT-0400 (Eastern Daylight Time),889914.1999999881,B,gr,I,r,287,2,950.3000000119209,888963.8999999762,9023,WL,A,4.0
6,13.75,distr,46250.0,Mon Sep 29 2025 15:13:46 GMT-0400 (Eastern Daylight Time),890047.3999999762,B,gra,I,a,116,2,1083.5,888963.8999999762,9023,WL,A,4.0
6,13.983000040054321,distr,46016.99995994568,Mon Sep 29 2025 15:13:46 GMT-0400 (Eastern Daylight Time),890280.6999999881,B,gran,I,n,221,2,1316.800000011921,888963.8999999762,9023,WL,A,4.0
6,14.216000080108643,distr,45783.99991989136,Mon Sep 29 2025 15:13:46 GMT-0400 (Eastern Daylight Time),890514.1000000238,B,grant,I,t,212,2,1550.2000000476837,888963.8999999762,9023,WL,A,4.0
6,15.782999992370605,distr,44217.000007629395,Mon Sep 29 2025 15:13:46 GMT-0400 (Eastern Daylight Time),892080.1999999881,B,grantenter,I,enter,1547,2,3116.300000011921,888963.8999999762,9023,WL,A,4.0
6,17.100000143051147,distr,42899.99985694885,Mon Sep 29 2025 15:13:46 GMT-0400 (Eastern Daylight Time),893397.3999999762,B,p,I,p,1297,2,1316.699999988079,892080.6999999881,9023,WL,A,5.0
6,17.550000190734863,distr,42449.99980926514,Mon Sep 29 2025 15:13:46 GMT-0400 (Eastern Daylight Time),893847.1000000238,B,pl,I,l,440,2,1766.4000000357628,892080.6999999881,9023,WL,A,5.0
6,17.782999992370605,distr,42217.000007629395,Mon Sep 29 2025 15:13:46 GMT-0400 (Eastern Daylight Time),894080.6999999881,B,pla,I,a,214,2,2000.0,892080.6999999881,9023,WL,A,5.0
6,18.032999992370605,distr,41967.000007629395,Mon Sep 29 2025 15:13:46 GMT-0400 (Eastern Daylight Time),894330.8000000119,B,plan,I,n,234,2,2250.100000023842,892080.6999999881,9023,WL,A,5.0
6,18.216000080108643,distr,41783.99991989136,Mon Sep 29 2025 15:13:46 GMT-0400 (Eastern Daylight Time),894514.1000000238,B,plane,I,e,162,2,2433.400000035763,892080.6999999881,9023,WL,A,5.0
6,21.098999977111816,distr,38901.00002288818,Mon Sep 29 2025 15:13:46 GMT-0400 (Eastern Daylight Time),897397.0,B,planeenter,I,enter,2858,2,5316.300000011921,892080.6999999881,9023,WL,A,5.0
6,22.41600012779236,distr,37583.99987220764,Mon Sep 29 2025 15:13:46 GMT-0400 (Eastern Daylight Time),898713.8000000119,B,p,I,p,1307,2,1316.5,897397.3000000119,9023,WL,A,6.0
6,22.83300018310547,distr,37166.99981689453,Mon Sep 29 2025 15:13:46 GMT-0400 (Eastern Daylight Time),899130.6999999881,B,po,I,o,403,2,1733.3999999761581,897397.3000000119,9023,WL,A,6.0
6,22.98300004005432,distr,37016.99995994568,Mon Sep 29 2025 15:13:46 GMT-0400 (Eastern Daylight Time),899280.6999999881,B,poo,I,o,131,2,1883.3999999761581,897397.3000000119,9023,WL,A,6.0
6,23.266000032424927,distr,36733.99996757507,Mon Sep 29 2025 15:13:46 GMT-0400 (Eastern Daylight Time),899564.0,B,pool,I,l,261,2,2166.699999988079,897397.3000000119,9023,WL,A,6.0
6,23.683000087738037,distr,36316.99991226196,Mon Sep 29 2025 15:13:46 GMT-0400 (Eastern Daylight Time),899980.3000000119,B,poolenter,I,enter,400,2,2583.0,897397.3000000119,9023,WL,A,6.0
6,24.08300018310547,distr,35916.99981689453,Mon Sep 29 2025 15:13:46 GMT-0400 (Eastern Daylight Time),900380.6999999881,B,s,I,s,388,2,400.0999999642372,899980.6000000238,9023,WL,A,7.0
6,24.266000032424927,distr,35733.99996757507,Mon Sep 29 2025 15:13:46 GMT-0400 (Eastern Daylight Time),900564.0,B,sh,I,h,160,2,583.3999999761581,899980.6000000238,9023,WL,A,7.0
6,24.683000087738037,distr,35316.99991226196,Mon Sep 29 2025 15:13:46 GMT-0400 (Eastern Daylight Time),900980.6999999881,B,she,I,e,393,2,1000.0999999642372,899980.6000000238,9023,WL,A,7.0
6,24.850000143051147,distr,35149.99985694885,Mon Sep 29 2025 15:13:46 GMT-0400 (Eastern Daylight Time),901147.3000000119,B,shee,I,e,152,2,1166.699999988079,899980.6000000238,9023,WL,A,7.0
6,25.016000032424927,distr,34983.99996757507,Mon Sep 29 2025 15:13:46 GMT-0400 (Eastern Daylight Time),901314.0,B,sheep,I,p,147,2,1333.3999999761581,899980.6000000238,9023,WL,A,7.0
6,25.933000087738037,distr,34066.99991226196,Mon Sep 29 2025 15:13:46 GMT-0400 (Eastern Daylight Time),902230.1999999881,B,sheepenter,I,enter,883,2,2249.599999964237,899980.6000000238,9023,WL,A,7.0
6,26.282999992370605,distr,33717.000007629395,Mon Sep 29 2025 15:13:46 GMT-0400 (Eastern Daylight Time),902581.0,B,s,I,s,331,2,350.39999997615814,902230.6000000238,9023,WL,A,8.0
6,26.600000143051147,distr,33399.99985694885,Mon Sep 29 2025 15:13:46 GMT-0400 (Eastern Daylight Time),902897.3999999762,B,se,I,e,295,2,666.7999999523163,902230.6000000238,9023,WL,A,8.0
6,27.0,distr,33000.0,Mon Sep 29 2025 15:13:46 GMT-0400 (Eastern Daylight Time),903297.3999999762,B,sed,I,d,380,2,1066.7999999523163,902230.6000000238,9023,WL,A,8.0
6,27.48300004005432,distr,32516.99995994568,Mon Sep 29 2025 15:13:46 GMT-0400 (Eastern Daylight Time),903780.1999999881,B,se,I,backspace,459,2,1549.5999999642372,902230.6000000238,9023,WL,A,8.0
6,27.56599998474121,distr,32434.00001525879,Mon Sep 29 2025 15:13:46 GMT-0400 (Eastern Daylight Time),903863.8000000119,B,see,I,e,77,2,1633.199999988079,902230.6000000238,9023,WL,A,8.0
6,27.81599998474121,distr,32184.00001525879,Mon Sep 29 2025 15:13:46 GMT-0400 (Eastern Daylight Time),904114.0,B,seed,I,d,222,2,1883.3999999761581,902230.6000000238,9023,WL,A,8.0
6,29.266000032424927,distr,30733.999967575073,Mon Sep 29 2025 15:13:46 GMT-0400 (Eastern Daylight Time),905564.1000000238,B,seedm,I,m,1436,2,3333.5,902230.6000000238,9023,WL,A,8.0
6,29.83300018310547,distr,30166.99981689453,Mon Sep 29 2025 15:13:46 GMT-0400 (Eastern Daylight Time),906130.6999999881,B,seed,I,backspace,546,2,3900.099999964237,902230.6000000238,9023,WL,A,8.0
6,30.433000087738037,distr,29566.999912261963,Mon Sep 29 2025 15:13:46 GMT-0400 (Eastern Daylight Time),906730.3999999762,B,seedenter,I,enter,583,2,4499.799999952316,902230.6000000238,9023,WL,A,8.0
6,31.15000009536743,distr,28849.99990463257,Mon Sep 29 2025 15:13:46 GMT-0400 (Eastern Daylight Time),907447.6000000238,B,m,I,m,711,2,716.9000000357628,906730.6999999881,9023,WL,A,9.0
6,31.81599998474121,distr,28184.00001525879,Mon Sep 29 2025 15:13:46 GMT-0400 (Eastern Daylight Time),908114.1000000238,B,me,I,e,646,2,1383.4000000357628,906730.6999999881,9023,WL,A,9.0
6,31.933000087738037,distr,28066.999912261963,Mon Sep 29 2025 15:13:46 GMT-0400 (Eastern Daylight Time),908230.6999999881,B,mea,I,a,91,2,1500.0,906730.6999999881,9023,WL,A,9.0
6,32.30000019073486,distr,27699.999809265137,Mon Sep 29 2025 15:13:46 GMT-0400 (Eastern Daylight Time),908597.5,B,meal,I,l,342,2,1866.800000011921,906730.6999999881,9023,WL,A,9.0
6,33.699000120162964,distr,26300.999879837036,Mon Sep 29 2025 15:13:46 GMT-0400 (Eastern Daylight Time),909996.8999999762,B,mealenter,I,enter,1380,2,3266.199999988079,906730.6999999881,9023,WL,A,9.0
6,35.05000019073486,distr,24949.999809265137,Mon Sep 29 2025 15:13:46 GMT-0400 (Eastern Daylight Time),911347.3999999762,B,p,I,p,1332,2,1350.199999988079,909997.1999999881,9023,WL,A,10.0
6,35.25,distr,24750.0,Mon Sep 29 2025 15:13:46 GMT-0400 (Eastern Daylight Time),911547.3999999762,B,pe,I,e,177,2,1550.199999988079,909997.1999999881,9023,WL,A,10.0
6,35.35000014305115,distr,24649.999856948853,Mon Sep 29 2025 15:13:46 GMT-0400 (Eastern Daylight Time),911647.5,B,pea,I,a,81,2,1650.300000011921,909997.1999999881,9023,WL,A,10.0
6,35.66600012779236,distr,24333.99987220764,Mon Sep 29 2025 15:13:46 GMT-0400 (Eastern Daylight Time),911964.0,B,peac,I,c,301,2,1966.800000011921,909997.1999999881,9023,WL,A,10.0
6,36.0,distr,24000.0,Mon Sep 29 2025 15:13:46 GMT-0400 (Eastern Daylight Time),912297.3000000119,B,peach,I,h,321,2,2300.100000023842,909997.1999999881,9023,WL,A,10.0
6,36.88300013542175,distr,23116.999864578247,Mon Sep 29 2025 15:13:46 GMT-0400 (Eastern Daylight Time),913180.3000000119,B,peachenter,I,enter,868,2,3183.100000023842,909997.1999999881,9023,WL,A,10.0
6,37.58300018310547,distr,22416.99981689453,Mon Sep 29 2025 15:13:46 GMT-0400 (Eastern Daylight Time),913880.6000000238,B,b,I,b,692,2,699.9000000357628,913180.6999999881,9023,WL,A,11.0
6,37.71600008010864,distr,22283.999919891357,Mon Sep 29 2025 15:13:46 GMT-0400 (Eastern Daylight Time),914014.1000000238,B,bo,I,o,117,2,833.4000000357628,913180.6999999881,9023,WL,A,11.0
6,37.91600012779236,distr,22083.99987220764,Mon Sep 29 2025 15:13:46 GMT-0400 (Eastern Daylight Time),914214.1000000238,B,bot,I,t,166,2,1033.4000000357628,913180.6999999881,9023,WL,A,11.0
6,38.06599998474121,distr,21934.00001525879,Mon Sep 29 2025 15:13:46 GMT-0400 (Eastern Daylight Time),914364.1000000238,B,bott,I,t,136,2,1183.4000000357628,913180.6999999881,9023,WL,A,11.0
6,38.200000047683716,distr,21799.999952316284,Mon Sep 29 2025 15:13:46 GMT-0400 (Eastern Daylight Time),914497.5,B,bottl,I,l,113,2,1316.800000011921,913180.6999999881,9023,WL,A,11.0
6,38.348999977111816,distr,21651.000022888184,Mon Sep 29 2025 15:13:46 GMT-0400 (Eastern Daylight Time),914647.0,B,bottle,I,e,114,2,1466.300000011921,913180.6999999881,9023,WL,A,11.0
6,38.83300018310547,distr,21166.99981689453,Mon Sep 29 2025 15:13:46 GMT-0400 (Eastern Daylight Time),915130.3000000119,B,bottleenter,I,enter,470,2,1949.6000000238419,913180.6999999881,9023,WL,A,11.0
6,43.38300013542175,distr,16616.999864578247,Mon Sep 29 2025 15:13:46 GMT-0400 (Eastern Daylight Time),919680.6999999881,B,c,I,c,4534,2,4550.099999964237,915130.6000000238,9023,WL,A,12.0
6,43.532999992370605,distr,16467.000007629395,Mon Sep 29 2025 15:13:46 GMT-0400 (Eastern Daylight Time),919830.6999999881,B,co,I,o,124,2,4700.099999964237,915130.6000000238,9023,WL,A,12.0
6,43.66600012779236,distr,16333.999872207642,Mon Sep 29 2025 15:13:46 GMT-0400 (Eastern Daylight Time),919964.0,B,cou,I,u,118,2,4833.399999976158,915130.6000000238,9023,WL,A,12.0
6,43.90000009536743,distr,16099.999904632568,Mon Sep 29 2025 15:13:46 GMT-0400 (Eastern Daylight Time),920197.3999999762,B,coun,I,n,208,2,5066.799999952316,915130.6000000238,9023,WL,A,12.0
6,44.01600003242493,distr,15983.999967575073,Mon Sep 29 2025 15:13:46 GMT-0400 (Eastern Daylight Time),920314.0,B,count,I,t,105,2,5183.399999976158,915130.6000000238,9023,WL,A,12.0
6,44.35000014305115,distr,15649.999856948853,Mon Sep 29 2025 15:13:46 GMT-0400 (Eastern Daylight Time),920647.3000000119,B,county,I,y,308,2,5516.699999988079,915130.6000000238,9023,WL,A,12.0
6,44.74900007247925,distr,15250.999927520752,Mon Sep 29 2025 15:13:46 GMT-0400 (Eastern Daylight Time),921046.8999999762,B,countyenter,I,enter,373,2,5916.299999952316,915130.6000000238,9023,WL,A,12.0
6,60.01700019836426,distr,-17.000198364257812,Mon Sep 29 2025 15:13:46 GMT-0400 (Eastern Daylight Time),936314.3000000119,B,None,I,None,15261,2,15267.0,921047.3000000119,9023,WL,A,13.0
7,2.2669999599456787,immed,57733.00004005432,Mon Sep 29 2025 15:13:46 GMT-0400 (Eastern Daylight Time),944897.5,A,b,I,b,2248,2,2266.199999988079,942631.3000000119,9023,WL,A,1.0
7,2.5829999446868896,immed,57417.00005531311,Mon Sep 29 2025 15:13:46 GMT-0400 (Eastern Daylight Time),945214.1000000238,A,bo,I,o,298,2,2582.800000011921,942631.3000000119,9023,WL,A,1.0
7,2.75,immed,57250.0,Mon Sep 29 2025 15:13:46 GMT-0400 (Eastern Daylight Time),945380.8000000119,A,boo,I,o,144,2,2749.5,942631.3000000119,9023,WL,A,1.0
7,2.9499998092651367,immed,57050.00019073486,Mon Sep 29 2025 15:13:46 GMT-0400 (Eastern Daylight Time),945580.6999999881,A,book,I,k,177,2,2949.399999976158,942631.3000000119,9023,WL,A,1.0
7,3.9499998092651367,immed,56050.00019073486,Mon Sep 29 2025 15:13:46 GMT-0400 (Eastern Daylight Time),946580.3000000119,A,bookenter,I,enter,968,2,3949.0,942631.3000000119,9023,WL,A,1.0
7,4.349999904632568,immed,55650.00009536743,Mon Sep 29 2025 15:13:46 GMT-0400 (Eastern Daylight Time),946980.8000000119,A,f,I,f,380,2,400.19999998807907,946580.6000000238,9023,WL,A,2.0
7,4.5,immed,55500.0,Mon Sep 29 2025 15:13:46 GMT-0400 (Eastern Daylight Time),947130.8000000119,A,fl,I,l,136,2,550.1999999880791,946580.6000000238,9023,WL,A,2.0
7,4.799999952316284,immed,55200.000047683716,Mon Sep 29 2025 15:13:46 GMT-0400 (Eastern Daylight Time),947430.8999999762,A,flo,I,o,274,2,850.2999999523163,946580.6000000238,9023,WL,A,2.0
7,4.982999801635742,immed,55017.00019836426,Mon Sep 29 2025 15:13:46 GMT-0400 (Eastern Daylight Time),947614.1000000238,A,flow,I,w,166,2,1033.5,946580.6000000238,9023,WL,A,2.0
7,5.08299994468689,immed,54917.00005531311,Mon Sep 29 2025 15:13:46 GMT-0400 (Eastern Daylight Time),947714.0,A,flowe,I,e,70,2,1133.3999999761581,946580.6000000238,9023,WL,A,2.0
7,5.25,immed,54750.0,Mon Sep 29 2025 15:13:46 GMT-0400 (Eastern Daylight Time),947880.6999999881,A,flower,I,r,154,2,1300.0999999642372,946580.6000000238,9023,WL,A,2.0
7,7.849999904632568,immed,52150.00009536743,Mon Sep 29 2025 15:13:46 GMT-0400 (Eastern Daylight Time),950480.3000000119,A,flowerenter,I,enter,2572,2,3899.699999988079,946580.6000000238,9023,WL,A,2.0
7,8.549999952316284,immed,51450.000047683716,Mon Sep 29 2025 15:13:46 GMT-0400 (Eastern Daylight Time),951180.6999999881,A,t,I,t,688,2,700.0999999642372,950480.6000000238,9023,WL,A,3.0
7,8.766999959945679,immed,51233.00004005432,Mon Sep 29 2025 15:13:46 GMT-0400 (Eastern Daylight Time),951397.3999999762,A,tr,I,r,193,2,916.7999999523163,950480.6000000238,9023,WL,A,3.0
7,8.849999904632568,immed,51150.00009536743,Mon Sep 29 2025 15:13:46 GMT-0400 (Eastern Daylight Time),951480.6000000238,A,tra,I,a,64,2,1000.0,950480.6000000238,9023,WL,A,3.0
7,9.083999872207642,immed,50916.00012779236,Mon Sep 29 2025 15:13:46 GMT-0400 (Eastern Daylight Time),951714.1000000238,A,trai,I,i,206,2,1233.5,950480.6000000238,9023,WL,A,3.0
7,9.233999967575073,immed,50766.00003242493,Mon Sep 29 2025 15:13:46 GMT-0400 (Eastern Daylight Time),951865.0,A,train,I,n,140,2,1384.3999999761581,950480.6000000238,9023,WL,A,3.0
7,10.065999984741211,immed,49934.00001525879,Mon Sep 29 2025 15:13:46 GMT-0400 (Eastern Daylight Time),952696.8999999762,A,trainenter,I,enter,820,2,2216.2999999523163,950480.6000000238,9023,WL,A,3.0
7,10.467000007629395,immed,49532.999992370605,Mon Sep 29 2025 15:13:46 GMT-0400 (Eastern Daylight Time),953097.3999999762,A,r,I,r,392,2,400.19999998807907,952697.1999999881,9023,WL,A,4.0
7,10.616999864578247,immed,49383.00013542175,Mon Sep 29 2025 15:13:46 GMT-0400 (Eastern Daylight Time),953247.3000000119,A,ru,I,u,131,2,550.1000000238419,952697.1999999881,9023,WL,A,4.0
7,11.266999959945679,immed,48733.00004005432,Mon Sep 29 2025 15:13:46 GMT-0400 (Eastern Daylight Time),953897.3999999762,A,rug,I,g,637,2,1200.199999988079,952697.1999999881,9023,WL,A,4.0
7,13.965999841690063,immed,46034.00015830994,Mon Sep 29 2025 15:13:46 GMT-0400 (Eastern Daylight Time),956597.0,A,rugenter,I,enter,2674,2,3899.800000011921,952697.1999999881,9023,WL,A,4.0
7,14.616999864578247,immed,45383.00013542175,Mon Sep 29 2025 15:13:46 GMT-0400 (Eastern Daylight Time),957247.3999999762,A,m,I,m,636,2,650.0999999642372,956597.3000000119,9023,WL,A,5.0
7,14.949999809265137,immed,45050.00019073486,Mon Sep 29 2025 15:13:46 GMT-0400 (Eastern Daylight Time),957580.6999999881,A,me,I,e,317,2,983.3999999761581,956597.3000000119,9023,WL,A,5.0
7,15.049999952316284,immed,44950.000047683716,Mon Sep 29 2025 15:13:46 GMT-0400 (Eastern Daylight Time),957680.6999999881,A,mea,I,a,81,2,1083.3999999761581,956597.3000000119,9023,WL,A,5.0
7,15.434000015258789,immed,44565.99998474121,Mon Sep 29 2025 15:13:46 GMT-0400 (Eastern Daylight Time),958064.1000000238,A,mead,I,d,357,2,1466.800000011921,956597.3000000119,9023,WL,A,5.0
7,15.733999967575073,immed,44266.00003242493,Mon Sep 29 2025 15:13:46 GMT-0400 (Eastern Daylight Time),958364.1000000238,A,meado,I,o,286,2,1766.800000011921,956597.3000000119,9023,WL,A,5.0
7,15.934000015258789,immed,44065.99998474121,Mon Sep 29 2025 15:13:46 GMT-0400 (Eastern Daylight Time),958564.1000000238,A,meadow,I,w,176,2,1966.800000011921,956597.3000000119,9023,WL,A,5.0
7,16.56599998474121,immed,43434.00001525879,Mon Sep 29 2025 15:13:46 GMT-0400 (Eastern Daylight Time),959197.0,A,meadowenter,I,enter,609,2,2599.699999988079,956597.3000000119,9023,WL,A,5.0
7,16.949999809265137,immed,43050.00019073486,Mon Sep 29 2025 15:13:46 GMT-0400 (Eastern Daylight Time),959580.6000000238,A,h,I,h,372,2,383.30000001192093,959197.3000000119,9023,WL,A,6.0
7,17.08299994468689,immed,42917.00005531311,Mon Sep 29 2025 15:13:46 GMT-0400 (Eastern Daylight Time),959714.1000000238,A,ha,I,a,113,2,516.8000000119209,959197.3000000119,9023,WL,A,6.0
7,17.299999952316284,immed,42700.000047683716,Mon Sep 29 2025 15:13:46 GMT-0400 (Eastern Daylight Time),959930.6999999881,A,har,I,r,198,2,733.3999999761581,959197.3000000119,9023,WL,A,6.0
7,18.01699995994568,immed,41983.00004005432,Mon Sep 29 2025 15:13:46 GMT-0400 (Eastern Daylight Time),960647.3999999762,A,harp,I,p,682,2,1450.0999999642372,959197.3000000119,9023,WL,A,6.0
7,18.932999849319458,immed,41067.00015068054,Mon Sep 29 2025 15:13:46 GMT-0400 (Eastern Daylight Time),961563.6000000238,A,harpenter,I,enter,900,2,2366.300000011921,959197.3000000119,9023,WL,A,6.0
7,19.616999864578247,immed,40383.00013542175,Mon Sep 29 2025 15:13:46 GMT-0400 (Eastern Daylight Time),962247.5,A,s,I,s,677,2,683.5,961564.0,9023,WL,A,7.0
7,19.717000007629395,immed,40282.999992370605,Mon Sep 29 2025 15:13:46 GMT-0400 (Eastern Daylight Time),962347.3000000119,A,sa,I,a,85,2,783.3000000119209,961564.0,9023,WL,A,7.0
