block_c,block_dur,condition,countdown,datetime,endtime,list,multichar_response,project,response,response_time,session_number,start_end,starttime,subject_id,task,task_vers,trial
,,,,Wed Jul 09 2025 16:57:30 GMT-0400 (Eastern Daylight Time),,,,I,space,918,1,,,9023,WL,C,
prac,,0,,Wed Jul 09 2025 16:57:30 GMT-0400 (Eastern Daylight Time),,NA,b,I,b,7488,1,,,9023,WL,C,1.0
prac,,0,,Wed Jul 09 2025 16:57:30 GMT-0400 (Eastern Daylight Time),,NA,bo,I,o,214,1,,,9023,WL,C,1.0
prac,,0,,Wed Jul 09 2025 16:57:30 GMT-0400 (Eastern Daylight Time),,NA,boo,I,o,150,1,,,9023,WL,C,1.0
prac,,0,,Wed Jul 09 2025 16:57:30 GMT-0400 (Eastern Daylight Time),,NA,boos,I,s,151,1,,,9023,WL,C,1.0
prac,,0,,Wed Jul 09 2025 16:57:30 GMT-0400 (Eastern Daylight Time),,NA,boost,I,t,313,1,,,9023,WL,C,1.0
prac,,0,,Wed Jul 09 2025 16:57:30 GMT-0400 (Eastern Daylight Time),,NA,boostenter,I,enter,1307,1,,,9023,WL,C,1.0
1,1.5,learn,58500.0,Wed Jul 09 2025 16:57:30 GMT-0400 (Eastern Daylight Time),131517.20000000298,A,t,I,t,1482,1,1499.2999999970198,130017.90000000596,9023,WL,C,1.0
1,1.75,learn,58250.0,Wed Jul 09 2025 16:57:30 GMT-0400 (Eastern Daylight Time),131767.09999999404,A,to,I,o,238,1,1749.199999988079,130017.90000000596,9023,WL,C,1.0
1,2.0490000247955322,learn,57950.99997520447,Wed Jul 09 2025 16:57:30 GMT-0400 (Eastern Daylight Time),132066.09999999404,A,tow,I,w,275,1,2048.199999988079,130017.90000000596,9023,WL,C,1.0
1,2.133000135421753,learn,57866.99986457825,Wed Jul 09 2025 16:57:30 GMT-0400 (Eastern Daylight Time),132150.09999999404,A,towe,I,e,59,1,2132.199999988079,130017.90000000596,9023,WL,C,1.0
1,2.3500001430511475,learn,57649.99985694885,Wed Jul 09 2025 16:57:30 GMT-0400 (Eastern Daylight Time),132367.09999999404,A,tower,I,r,188,1,2349.199999988079,130017.90000000596,9023,WL,C,1.0
1,4.098999977111816,learn,55901.00002288818,Wed Jul 09 2025 16:57:30 GMT-0400 (Eastern Daylight Time),134116.40000000596,A,towerenter,I,enter,1725,1,4098.5,130017.90000000596,9023,WL,C,1.0
1,5.133000135421753,learn,54866.99986457825,Wed Jul 09 2025 16:57:30 GMT-0400 (Eastern Daylight Time),135150.20000000298,A,q,I,q,1017,1,1033.2000000029802,134117.0,9023,WL,C,2.0
1,5.450000047683716,learn,54549.999952316284,Wed Jul 09 2025 16:57:30 GMT-0400 (Eastern Daylight Time),135466.79999999702,A,qu,I,u,301,1,1349.7999999970198,134117.0,9023,WL,C,2.0
1,5.733000040054321,learn,54266.99995994568,Wed Jul 09 2025 16:57:30 GMT-0400 (Eastern Daylight Time),135750.29999999702,A,que,I,e,258,1,1633.2999999970198,134117.0,9023,WL,C,2.0
1,5.883000135421753,learn,54116.99986457825,Wed Jul 09 2025 16:57:30 GMT-0400 (Eastern Daylight Time),135900.20000000298,A,quee,I,e,133,1,1783.2000000029802,134117.0,9023,WL,C,2.0
1,6.683000087738037,learn,53316.99991226196,Wed Jul 09 2025 16:57:30 GMT-0400 (Eastern Daylight Time),136700.20000000298,A,queen,I,n,773,1,2583.2000000029802,134117.0,9023,WL,C,2.0
1,9.300000190734863,learn,50699.99980926514,Wed Jul 09 2025 16:57:30 GMT-0400 (Eastern Daylight Time),139317.0,A,queenh,I,h,2592,1,5200.0,134117.0,9023,WL,C,2.0
1,9.400000095367432,learn,50599.99990463257,Wed Jul 09 2025 16:57:30 GMT-0400 (Eastern Daylight Time),139416.79999999702,A,queenho,I,o,87,1,5299.79999999702,134117.0,9023,WL,C,2.0
1,9.600000143051147,learn,50399.99985694885,Wed Jul 09 2025 16:57:30 GMT-0400 (Eastern Daylight Time),139616.90000000596,A,queenhom,I,m,169,1,5499.9000000059605,134117.0,9023,WL,C,2.0
1,9.815999984741211,learn,50184.00001525879,Wed Jul 09 2025 16:57:30 GMT-0400 (Eastern Daylight Time),139833.59999999404,A,queenhome,I,e,204,1,5716.5999999940395,134117.0,9023,WL,C,2.0
1,10.333000183105469,learn,49666.99981689453,Wed Jul 09 2025 16:57:30 GMT-0400 (Eastern Daylight Time),140350.20000000298,A,queenhomeb,I,b,489,1,6233.20000000298,134117.0,9023,WL,C,2.0
1,10.466000080108643,learn,49533.99991989136,Wed Jul 09 2025 16:57:30 GMT-0400 (Eastern Daylight Time),140483.5,A,queenhomebo,I,o,109,1,6366.5,134117.0,9023,WL,C,2.0
1,11.333000183105469,learn,48666.99981689453,Wed Jul 09 2025 16:57:30 GMT-0400 (Eastern Daylight Time),141350.20000000298,A,queenhomeboy,I,y,839,1,7233.20000000298,134117.0,9023,WL,C,2.0
1,12.233000040054321,learn,47766.99995994568,Wed Jul 09 2025 16:57:30 GMT-0400 (Eastern Daylight Time),142249.79999999702,A,queenhomebo,I,backspace,875,1,8132.79999999702,134117.0,9023,WL,C,2.0
1,12.532999992370605,learn,47467.000007629395,Wed Jul 09 2025 16:57:30 GMT-0400 (Eastern Daylight Time),142550.09999999404,A,queenhomeb,I,backspace,277,1,8433.09999999404,134117.0,9023,WL,C,2.0
1,12.767000198364258,learn,47232.99980163574,Wed Jul 09 2025 16:57:30 GMT-0400 (Eastern Daylight Time),142783.59999999404,A,queenhome,I,backspace,214,1,8666.59999999404,134117.0,9023,WL,C,2.0
1,12.984000205993652,learn,47015.99979400635,Wed Jul 09 2025 16:57:30 GMT-0400 (Eastern Daylight Time),143001.09999999404,A,queenhom,I,backspace,204,1,8884.09999999404,134117.0,9023,WL,C,2.0
1,13.183000087738037,learn,46816.99991226196,Wed Jul 09 2025 16:57:30 GMT-0400 (Eastern Daylight Time),143200.29999999702,A,queenho,I,backspace,179,1,9083.29999999702,134117.0,9023,WL,C,2.0
1,13.383000135421753,learn,46616.99986457825,Wed Jul 09 2025 16:57:30 GMT-0400 (Eastern Daylight Time),143399.70000000298,A,queenh,I,backspace,179,1,9282.70000000298,134117.0,9023,WL,C,2.0
1,13.633000135421753,learn,46366.99986457825,Wed Jul 09 2025 16:57:30 GMT-0400 (Eastern Daylight Time),143650.20000000298,A,queen,I,backspace,229,1,9533.20000000298,134117.0,9023,WL,C,2.0
1,14.532999992370605,learn,45467.000007629395,Wed Jul 09 2025 16:57:30 GMT-0400 (Eastern Daylight Time),144549.59999999404,A,queenenter,I,enter,863,1,10432.59999999404,134117.0,9023,WL,C,2.0
1,15.233000040054321,learn,44766.99995994568,Wed Jul 09 2025 16:57:30 GMT-0400 (Eastern Daylight Time),145249.5,A,h,I,h,680,1,699.4000000059605,144550.09999999404,9023,WL,C,3.0
1,15.315999984741211,learn,44684.00001525879,Wed Jul 09 2025 16:57:30 GMT-0400 (Eastern Daylight Time),145333.09999999404,A,ho,I,o,59,1,783.0,144550.09999999404,9023,WL,C,3.0
1,15.633000135421753,learn,44366.99986457825,Wed Jul 09 2025 16:57:30 GMT-0400 (Eastern Daylight Time),145650.20000000298,A,hom,I,m,294,1,1100.1000000089407,144550.09999999404,9023,WL,C,3.0
1,15.867000102996826,learn,44132.999897003174,Wed Jul 09 2025 16:57:30 GMT-0400 (Eastern Daylight Time),145883.59999999404,A,home,I,e,218,1,1333.5,144550.09999999404,9023,WL,C,3.0
1,16.249000072479248,learn,43750.99992752075,Wed Jul 09 2025 16:57:30 GMT-0400 (Eastern Daylight Time),146266.09999999404,A,homeenter,I,enter,358,1,1716.0,144550.09999999404,9023,WL,C,3.0
1,17.183000087738037,learn,42816.99991226196,Wed Jul 09 2025 16:57:30 GMT-0400 (Eastern Daylight Time),147200.20000000298,A,b,I,b,916,1,933.7999999970198,146266.40000000596,9023,WL,C,4.0
1,17.65000009536743,learn,42349.99990463257,Wed Jul 09 2025 16:57:30 GMT-0400 (Eastern Daylight Time),147666.90000000596,A,bo,I,o,444,1,1400.5,146266.40000000596,9023,WL,C,4.0
1,18.40000009536743,learn,41599.99990463257,Wed Jul 09 2025 16:57:30 GMT-0400 (Eastern Daylight Time),148416.90000000596,A,boy,I,y,729,1,2150.5,146266.40000000596,9023,WL,C,4.0
1,20.116000175476074,learn,39883.999824523926,Wed Jul 09 2025 16:57:30 GMT-0400 (Eastern Daylight Time),150133.09999999404,A,boyenter,I,enter,1684,1,3866.699999988079,146266.40000000596,9023,WL,C,4.0
1,21.31599998474121,learn,38684.00001525879,Wed Jul 09 2025 16:57:30 GMT-0400 (Eastern Daylight Time),151332.90000000596,A,c,I,c,1178,1,1199.4000000059605,150133.5,9023,WL,C,5.0
1,21.48300004005432,learn,38516.99995994568,Wed Jul 09 2025 16:57:30 GMT-0400 (Eastern Daylight Time),151500.09999999404,A,co,I,o,155,1,1366.5999999940395,150133.5,9023,WL,C,5.0
1,21.716000080108643,learn,38283.99991989136,Wed Jul 09 2025 16:57:30 GMT-0400 (Eastern Daylight Time),151733.5,A,cor,I,r,200,1,1600.0,150133.5,9023,WL,C,5.0
1,22.15000009536743,learn,37849.99990463257,Wed Jul 09 2025 16:57:30 GMT-0400 (Eastern Daylight Time),152167.0,A,corn,I,n,423,1,2033.5,150133.5,9023,WL,C,5.0
1,22.866000175476074,learn,37133.999824523926,Wed Jul 09 2025 16:57:30 GMT-0400 (Eastern Daylight Time),152883.40000000596,A,cornf,I,f,693,1,2749.9000000059605,150133.5,9023,WL,C,5.0
1,22.967000007629395,learn,37032.999992370605,Wed Jul 09 2025 16:57:30 GMT-0400 (Eastern Daylight Time),152983.59999999404,A,cornfl,I,l,74,1,2850.0999999940395,150133.5,9023,WL,C,5.0
1,23.08300018310547,learn,36916.99981689453,Wed Jul 09 2025 16:57:30 GMT-0400 (Eastern Daylight Time),153099.79999999702,A,cornfla,I,a,92,1,2966.2999999970198,150133.5,9023,WL,C,5.0
1,23.350000143051147,learn,36649.99985694885,Wed Jul 09 2025 16:57:30 GMT-0400 (Eastern Daylight Time),153367.40000000596,A,cornflag,I,g,258,1,3233.9000000059605,150133.5,9023,WL,C,5.0
1,23.782999992370605,learn,36217.000007629395,Wed Jul 09 2025 16:57:30 GMT-0400 (Eastern Daylight Time),153800.09999999404,A,cornflagd,I,d,423,1,3666.5999999940395,150133.5,9023,WL,C,5.0
1,23.90000009536743,learn,36099.99990463257,Wed Jul 09 2025 16:57:30 GMT-0400 (Eastern Daylight Time),153916.90000000596,A,cornflagdo,I,o,101,1,3783.4000000059605,150133.5,9023,WL,C,5.0
1,24.100000143051147,learn,35899.99985694885,Wed Jul 09 2025 16:57:30 GMT-0400 (Eastern Daylight Time),154116.90000000596,A,cornflagdoc,I,c,168,1,3983.4000000059605,150133.5,9023,WL,C,5.0
1,24.366000175476074,learn,35633.999824523926,Wed Jul 09 2025 16:57:30 GMT-0400 (Eastern Daylight Time),154383.0,A,cornflagdoct,I,t,246,1,4249.5,150133.5,9023,WL,C,5.0
1,24.532999992370605,learn,35467.000007629395,Wed Jul 09 2025 16:57:30 GMT-0400 (Eastern Daylight Time),154550.20000000298,A,cornflagdocto,I,o,144,1,4416.70000000298,150133.5,9023,WL,C,5.0
1,24.984000205993652,learn,35015.99979400635,Wed Jul 09 2025 16:57:30 GMT-0400 (Eastern Daylight Time),155001.20000000298,A,cornflagdoct,I,backspace,430,1,4867.70000000298,150133.5,9023,WL,C,5.0
1,25.16700005531311,learn,34832.99994468689,Wed Jul 09 2025 16:57:30 GMT-0400 (Eastern Daylight Time),155183.5,A,cornflagdoc,I,backspace,160,1,5050.0,150133.5,9023,WL,C,5.0
1,25.33300018310547,learn,34666.99981689453,Wed Jul 09 2025 16:57:30 GMT-0400 (Eastern Daylight Time),155350.20000000298,A,cornflagdo,I,backspace,132,1,5216.70000000298,150133.5,9023,WL,C,5.0
1,25.499000072479248,learn,34500.99992752075,Wed Jul 09 2025 16:57:30 GMT-0400 (Eastern Daylight Time),155516.40000000596,A,cornflagd,I,backspace,143,1,5382.9000000059605,150133.5,9023,WL,C,5.0
1,25.683000087738037,learn,34316.99991226196,Wed Jul 09 2025 16:57:30 GMT-0400 (Eastern Daylight Time),155700.20000000298,A,cornflag,I,backspace,161,1,5566.70000000298,150133.5,9023,WL,C,5.0
1,25.850000143051147,learn,34149.99985694885,Wed Jul 09 2025 16:57:30 GMT-0400 (Eastern Daylight Time),155866.70000000298,A,cornfla,I,backspace,144,1,5733.20000000298,150133.5,9023,WL,C,5.0
1,26.050000190734863,learn,33949.99980926514,Wed Jul 09 2025 16:57:30 GMT-0400 (Eastern Daylight Time),156066.90000000596,A,cornfl,I,backspace,170,1,5933.4000000059605,150133.5,9023,WL,C,5.0
1,26.216000080108643,learn,33783.99991989136,Wed Jul 09 2025 16:57:30 GMT-0400 (Eastern Daylight Time),156233.40000000596,A,cornf,I,backspace,145,1,6099.9000000059605,150133.5,9023,WL,C,5.0
1,26.40000009536743,learn,33599.99990463257,Wed Jul 09 2025 16:57:30 GMT-0400 (Eastern Daylight Time),156416.90000000596,A,corn,I,backspace,163,1,6283.4000000059605,150133.5,9023,WL,C,5.0
1,27.549000024795532,learn,32450.999975204468,Wed Jul 09 2025 16:57:30 GMT-0400 (Eastern Daylight Time),157566.40000000596,A,cornenter,I,enter,1125,1,7432.9000000059605,150133.5,9023,WL,C,5.0
1,28.58300018310547,learn,31416.99981689453,Wed Jul 09 2025 16:57:30 GMT-0400 (Eastern Daylight Time),158600.0,A,f,I,f,1025,1,1033.2000000029802,157566.79999999702,9023,WL,C,6.0
1,28.683000087738037,learn,31316.999912261963,Wed Jul 09 2025 16:57:30 GMT-0400 (Eastern Daylight Time),158700.29999999702,A,fl,I,l,86,1,1133.5,157566.79999999702,9023,WL,C,6.0
1,28.800000190734863,learn,31199.999809265137,Wed Jul 09 2025 16:57:30 GMT-0400 (Eastern Daylight Time),158816.90000000596,A,fla,I,a,96,1,1250.1000000089407,157566.79999999702,9023,WL,C,6.0
1,29.08300018310547,learn,30916.99981689453,Wed Jul 09 2025 16:57:30 GMT-0400 (Eastern Daylight Time),159100.20000000298,A,flag,I,g,259,1,1533.4000000059605,157566.79999999702,9023,WL,C,6.0
1,29.716000080108643,learn,30283.999919891357,Wed Jul 09 2025 16:57:30 GMT-0400 (Eastern Daylight Time),159733.09999999404,A,flagenter,I,enter,606,1,2166.2999999970198,157566.79999999702,9023,WL,C,6.0
1,31.317000150680542,learn,28682.999849319458,Wed Jul 09 2025 16:57:30 GMT-0400 (Eastern Daylight Time),161333.59999999404,A,d,I,d,1578,1,1600.0999999940395,159733.5,9023,WL,C,7.0
1,31.433000087738037,learn,28566.999912261963,Wed Jul 09 2025 16:57:30 GMT-0400 (Eastern Daylight Time),161449.59999999404,A,do,I,o,103,1,1716.0999999940395,159733.5,9023,WL,C,7.0
1,31.617000102996826,learn,28382.999897003174,Wed Jul 09 2025 16:57:30 GMT-0400 (Eastern Daylight Time),161633.59999999404,A,doc,I,c,166,1,1900.0999999940395,159733.5,9023,WL,C,7.0
1,31.867000102996826,learn,28132.999897003174,Wed Jul 09 2025 16:57:30 GMT-0400 (Eastern Daylight Time),161883.5,A,doct,I,t,225,1,2150.0,159733.5,9023,WL,C,7.0
1,32.01700019836426,learn,27982.999801635742,Wed Jul 09 2025 16:57:30 GMT-0400 (Eastern Daylight Time),162033.5,A,docto,I,o,122,1,2300.0,159733.5,9023,WL,C,7.0
1,32.51700019836426,learn,27482.999801635742,Wed Jul 09 2025 16:57:30 GMT-0400 (Eastern Daylight Time),162533.59999999404,A,doctor,I,r,473,1,2800.0999999940395,159733.5,9023,WL,C,7.0
1,33.04900002479553,learn,26950.999975204468,Wed Jul 09 2025 16:57:30 GMT-0400 (Eastern Daylight Time),163066.29999999702,A,doctorenter,I,enter,520,1,3332.7999999970198,159733.5,9023,WL,C,7.0
1,35.81599998474121,learn,24184.00001525879,Wed Jul 09 2025 16:57:30 GMT-0400 (Eastern Daylight Time),165833.5,A,s,I,s,2757,1,2766.7000000029802,163066.79999999702,9023,WL,C,8.0
1,36.01600003242493,learn,23983.999967575073,Wed Jul 09 2025 16:57:30 GMT-0400 (Eastern Daylight Time),166033.5,A,sh,I,h,180,1,2966.7000000029802,163066.79999999702,9023,WL,C,8.0
1,36.13300013542175,learn,23866.999864578247,Wed Jul 09 2025 16:57:30 GMT-0400 (Eastern Daylight Time),166150.29999999702,A,sho,I,o,84,1,3083.5,163066.79999999702,9023,WL,C,8.0
1,36.366000175476074,learn,23633.999824523926,Wed Jul 09 2025 16:57:30 GMT-0400 (Eastern Daylight Time),166383.5,A,shor,I,r,214,1,3316.7000000029802,163066.79999999702,9023,WL,C,8.0
1,37.0,learn,23000.0,Wed Jul 09 2025 16:57:30 GMT-0400 (Eastern Daylight Time),167016.79999999702,A,shore,I,e,622,1,3950.0,163066.79999999702,9023,WL,C,8.0
1,37.33300018310547,learn,22666.99981689453,Wed Jul 09 2025 16:57:30 GMT-0400 (Eastern Daylight Time),167350.0,A,shoreenter,I,enter,324,1,4283.20000000298,163066.79999999702,9023,WL,C,8.0
1,38.66700005531311,learn,21332.99994468689,Wed Jul 09 2025 16:57:30 GMT-0400 (Eastern Daylight Time),168683.5,A,c,I,c,1321,1,1333.2000000029802,167350.29999999702,9023,WL,C,9.0
1,38.782999992370605,learn,21217.000007629395,Wed Jul 09 2025 16:57:30 GMT-0400 (Eastern Daylight Time),168800.20000000298,A,ca,I,a,96,1,1449.9000000059605,167350.29999999702,9023,WL,C,9.0
1,39.01600003242493,learn,20983.999967575073,Wed Jul 09 2025 16:57:30 GMT-0400 (Eastern Daylight Time),169033.5,A,cat,I,t,221,1,1683.2000000029802,167350.29999999702,9023,WL,C,9.0
1,39.16700005531311,learn,20832.99994468689,Wed Jul 09 2025 16:57:30 GMT-0400 (Eastern Daylight Time),169183.5,A,catt,I,t,131,1,1833.2000000029802,167350.29999999702,9023,WL,C,9.0
1,39.30000019073486,learn,20699.999809265137,Wed Jul 09 2025 16:57:30 GMT-0400 (Eastern Daylight Time),169316.79999999702,A,cattl,I,l,110,1,1966.5,167350.29999999702,9023,WL,C,9.0
1,39.41700005531311,learn,20582.99994468689,Wed Jul 09 2025 16:57:30 GMT-0400 (Eastern Daylight Time),169433.59999999404,A,cattle,I,e,95,1,2083.2999999970198,167350.29999999702,9023,WL,C,9.0
1,40.06599998474121,learn,19934.00001525879,Wed Jul 09 2025 16:57:30 GMT-0400 (Eastern Daylight Time),170083.09999999404,A,cattleenter,I,enter,627,1,2732.7999999970198,167350.29999999702,9023,WL,C,9.0
1,52.35000014305115,learn,7649.9998569488525,Wed Jul 09 2025 16:57:30 GMT-0400 (Eastern Daylight Time),182367.0,A,s,I,s,12270,1,12283.40000000596,170083.59999999404,9023,WL,C,10.0
1,52.55000019073486,learn,7449.999809265137,Wed Jul 09 2025 16:57:30 GMT-0400 (Eastern Daylight Time),182567.20000000298,A,su,I,u,189,1,12483.60000000894,170083.59999999404,9023,WL,C,10.0
1,52.90000009536743,learn,7099.999904632568,Wed Jul 09 2025 16:57:30 GMT-0400 (Eastern Daylight Time),182917.0,A,sug,I,g,319,1,12833.40000000596,170083.59999999404,9023,WL,C,10.0
1,53.08300018310547,learn,6916.999816894531,Wed Jul 09 2025 16:57:30 GMT-0400 (Eastern Daylight Time),183100.09999999404,A,suga,I,a,167,1,13016.5,170083.59999999404,9023,WL,C,10.0
1,53.26600003242493,learn,6733.999967575073,Wed Jul 09 2025 16:57:30 GMT-0400 (Eastern Daylight Time),183283.5,A,sugar,I,r,158,1,13199.90000000596,170083.59999999404,9023,WL,C,10.0
1,53.68300008773804,learn,6316.999912261963,Wed Jul 09 2025 16:57:30 GMT-0400 (Eastern Daylight Time),183699.70000000298,A,sugarenter,I,enter,392,1,13616.10000000894,170083.59999999404,9023,WL,C,10.0
1,60.01700019836426,learn,-17.000198364257812,Wed Jul 09 2025 16:57:30 GMT-0400 (Eastern Daylight Time),190033.79999999702,A,None,I,None,6327,1,6333.70000000298,183700.09999999404,9023,WL,C,11.0
2,1.4500000476837158,learn,58549.999952316284,Wed Jul 09 2025 16:57:30 GMT-0400 (Eastern Daylight Time),263717.0,A,t,I,t,1427,1,1449.9000000059605,262267.09999999404,9023,WL,C,1.0
2,1.75,learn,58250.0,Wed Jul 09 2025 16:57:30 GMT-0400 (Eastern Daylight Time),264016.90000000596,A,to,I,o,270,1,1749.800000011921,262267.09999999404,9023,WL,C,1.0
2,2.0329999923706055,learn,57967.000007629395,Wed Jul 09 2025 16:57:30 GMT-0400 (Eastern Daylight Time),264300.40000000596,A,tow,I,w,268,1,2033.300000011921,262267.09999999404,9023,WL,C,1.0
2,2.183000087738037,learn,57816.99991226196,Wed Jul 09 2025 16:57:30 GMT-0400 (Eastern Daylight Time),264450.299999997,A,towe,I,e,129,1,2183.2000000029802,262267.09999999404,9023,WL,C,1.0
2,2.383000135421753,learn,57616.99986457825,Wed Jul 09 2025 16:57:30 GMT-0400 (Eastern Daylight Time),264650.299999997,A,tower,I,r,178,1,2383.2000000029802,262267.09999999404,9023,WL,C,1.0
2,3.3330001831054688,learn,56666.99981689453,Wed Jul 09 2025 16:57:30 GMT-0400 (Eastern Daylight Time),265599.799999997,A,towerenter,I,enter,931,1,3332.7000000029802,262267.09999999404,9023,WL,C,1.0
2,4.166000127792358,learn,55833.99987220764,Wed Jul 09 2025 16:57:30 GMT-0400 (Eastern Daylight Time),266433.09999999404,A,w,I,w,815,1,833.0,265600.09999999404,9023,WL,C,2.0
2,4.315999984741211,learn,55684.00001525879,Wed Jul 09 2025 16:57:30 GMT-0400 (Eastern Daylight Time),266582.799999997,A,wh,I,h,142,1,982.7000000029802,265600.09999999404,9023,WL,C,2.0
2,4.616000175476074,learn,55383.999824523926,Wed Jul 09 2025 16:57:30 GMT-0400 (Eastern Daylight Time),266883.09999999404,A,whe,I,e,279,1,1283.0,265600.09999999404,9023,WL,C,2.0
2,4.733000040054321,learn,55266.99995994568,Wed Jul 09 2025 16:57:30 GMT-0400 (Eastern Daylight Time),267000.09999999404,A,whea,I,a,109,1,1400.0,265600.09999999404,9023,WL,C,2.0
2,5.118000030517578,learn,54881.99996948242,Wed Jul 09 2025 16:57:30 GMT-0400 (Eastern Daylight Time),267384.5,A,wheat,I,t,365,1,1784.4000000059605,265600.09999999404,9023,WL,C,2.0
2,5.633000135421753,learn,54366.99986457825,Wed Jul 09 2025 16:57:30 GMT-0400 (Eastern Daylight Time),267899.799999997,A,wheatenter,I,enter,501,1,2299.7000000029802,265600.09999999404,9023,WL,C,2.0
2,6.315999984741211,learn,53684.00001525879,Wed Jul 09 2025 16:57:30 GMT-0400 (Eastern Daylight Time),268583.0,A,q,I,q,676,1,682.7999999970198,267900.200000003,9023,WL,C,3.0
2,6.583000183105469,learn,53416.99981689453,Wed Jul 09 2025 16:57:30 GMT-0400 (Eastern Daylight Time),268850.200000003,A,qu,I,u,248,1,950.0,267900.200000003,9023,WL,C,3.0
2,6.817000150680542,learn,53182.99984931946,Wed Jul 09 2025 16:57:30 GMT-0400 (Eastern Daylight Time),269083.59999999404,A,que,I,e,220,1,1183.3999999910593,267900.200000003,9023,WL,C,3.0
2,6.966000080108643,learn,53033.99991989136,Wed Jul 09 2025 16:57:30 GMT-0400 (Eastern Daylight Time),269233.5,A,quee,I,e,130,1,1333.2999999970198,267900.200000003,9023,WL,C,3.0
2,7.183000087738037,learn,52816.99991226196,Wed Jul 09 2025 16:57:30 GMT-0400 (Eastern Daylight Time),269450.299999997,A,queen,I,n,202,1,1550.0999999940395,267900.200000003,9023,WL,C,3.0
2,8.616000175476074,learn,51383.999824523926,Wed Jul 09 2025 16:57:30 GMT-0400 (Eastern Daylight Time),270883.09999999404,A,queenenter,I,enter,1410,1,2982.8999999910593,267900.200000003,9023,WL,C,3.0
2,9.25,learn,50750.0,Wed Jul 09 2025 16:57:30 GMT-0400 (Eastern Daylight Time),271516.90000000596,A,s,I,s,621,1,633.4000000059605,270883.5,9023,WL,C,4.0
2,9.550000190734863,learn,50449.99980926514,Wed Jul 09 2025 16:57:30 GMT-0400 (Eastern Daylight Time),271816.90000000596,A,su,I,u,288,1,933.4000000059605,270883.5,9023,WL,C,4.0
2,9.900000095367432,learn,50099.99990463257,Wed Jul 09 2025 16:57:30 GMT-0400 (Eastern Daylight Time),272167.0,A,sur,I,r,340,1,1283.5,270883.5,9023,WL,C,4.0
2,10.267000198364258,learn,49732.99980163574,Wed Jul 09 2025 16:57:30 GMT-0400 (Eastern Daylight Time),272533.799999997,A,surg,I,g,343,1,1650.2999999970198,270883.5,9023,WL,C,4.0
2,10.366000175476074,learn,49633.999824523926,Wed Jul 09 2025 16:57:30 GMT-0400 (Eastern Daylight Time),272633.200000003,A,surga,I,a,87,1,1749.7000000029802,270883.5,9023,WL,C,4.0
2,10.633000135421753,learn,49366.99986457825,Wed Jul 09 2025 16:57:30 GMT-0400 (Eastern Daylight Time),272900.299999997,A,surgar,I,r,245,1,2016.7999999970198,270883.5,9023,WL,C,4.0
2,11.083000183105469,learn,48916.99981689453,Wed Jul 09 2025 16:57:30 GMT-0400 (Eastern Daylight Time),273350.09999999404,A,surgarenter,I,enter,441,1,2466.5999999940395,270883.5,9023,WL,C,4.0
2,13.900000095367432,learn,46099.99990463257,Wed Jul 09 2025 16:57:30 GMT-0400 (Eastern Daylight Time),276167.200000003,A,s,I,s,2810,1,2816.7999999970198,273350.40000000596,9023,WL,C,5.0
2,14.333000183105469,learn,45666.99981689453,Wed Jul 09 2025 16:57:30 GMT-0400 (Eastern Daylight Time),276600.200000003,A,su,I,u,420,1,3249.7999999970198,273350.40000000596,9023,WL,C,5.0
2,14.700000047683716,learn,45299.999952316284,Wed Jul 09 2025 16:57:30 GMT-0400 (Eastern Daylight Time),276967.200000003,A,sug,I,g,357,1,3616.7999999970198,273350.40000000596,9023,WL,C,5.0
2,14.91700005531311,learn,45082.99994468689,Wed Jul 09 2025 16:57:30 GMT-0400 (Eastern Daylight Time),277183.700000003,A,suga,I,a,199,1,3833.2999999970198,273350.40000000596,9023,WL,C,5.0
2,15.200000047683716,learn,44799.999952316284,Wed Jul 09 2025 16:57:30 GMT-0400 (Eastern Daylight Time),277467.0,A,sugar,I,r,261,1,4116.5999999940395,273350.40000000596,9023,WL,C,5.0
2,15.699000120162964,learn,44300.999879837036,Wed Jul 09 2025 16:57:30 GMT-0400 (Eastern Daylight Time),277966.40000000596,A,sugarenter,I,enter,482,1,4616.0,273350.40000000596,9023,WL,C,5.0
2,16.450000047683716,learn,43549.999952316284,Wed Jul 09 2025 16:57:30 GMT-0400 (Eastern Daylight Time),278716.700000003,A,h,I,h,737,1,749.7999999970198,277966.90000000596,9023,WL,C,6.0
2,16.65000009536743,learn,43349.99990463257,Wed Jul 09 2025 16:57:30 GMT-0400 (Eastern Daylight Time),278916.90000000596,A,ho,I,o,171,1,950.0,277966.90000000596,9023,WL,C,6.0
2,16.883000135421753,learn,43116.99986457825,Wed Jul 09 2025 16:57:30 GMT-0400 (Eastern Daylight Time),279150.299999997,A,hom,I,m,215,1,1183.3999999910593,277966.90000000596,9023,WL,C,6.0
2,17.116000175476074,learn,42883.999824523926,Wed Jul 09 2025 16:57:30 GMT-0400 (Eastern Daylight Time),279383.09999999404,A,home,I,e,221,1,1416.199999988079,277966.90000000596,9023,WL,C,6.0
2,17.883000135421753,learn,42116.99986457825,Wed Jul 09 2025 16:57:30 GMT-0400 (Eastern Daylight Time),280149.700000003,A,homeenter,I,enter,734,1,2182.7999999970198,277966.90000000596,9023,WL,C,6.0
2,18.66600012779236,learn,41333.99987220764,Wed Jul 09 2025 16:57:30 GMT-0400 (Eastern Daylight Time),280933.5,A,b,I,b,762,1,783.4000000059605,280150.09999999404,9023,WL,C,7.0
2,18.83300018310547,learn,41166.99981689453,Wed Jul 09 2025 16:57:30 GMT-0400 (Eastern Daylight Time),281100.299999997,A,bo,I,o,149,1,950.2000000029802,280150.09999999404,9023,WL,C,7.0
2,19.300000190734863,learn,40699.99980926514,Wed Jul 09 2025 16:57:30 GMT-0400 (Eastern Daylight Time),281567.0,A,boy,I,y,441,1,1416.9000000059605,280150.09999999404,9023,WL,C,7.0
2,20.532999992370605,learn,39467.000007629395,Wed Jul 09 2025 16:57:30 GMT-0400 (Eastern Daylight Time),282799.700000003,A,boyenter,I,enter,1214,1,2649.6000000089407,280150.09999999404,9023,WL,C,7.0
2,21.40000009536743,learn,38599.99990463257,Wed Jul 09 2025 16:57:30 GMT-0400 (Eastern Daylight Time),283666.90000000596,A,f,I,f,848,1,866.7000000029802,282800.200000003,9023,WL,C,8.0
2,21.717000007629395,learn,38282.999992370605,Wed Jul 09 2025 16:57:30 GMT-0400 (Eastern Daylight Time),283983.700000003,A,fl,I,l,297,1,1183.5,282800.200000003,9023,WL,C,8.0
2,21.90000009536743,learn,38099.99990463257,Wed Jul 09 2025 16:57:30 GMT-0400 (Eastern Daylight Time),284167.299999997,A,fla,I,a,174,1,1367.0999999940395,282800.200000003,9023,WL,C,8.0
2,22.98300004005432,learn,37016.99995994568,Wed Jul 09 2025 16:57:30 GMT-0400 (Eastern Daylight Time),285250.299999997,A,flag,I,g,1058,1,2450.0999999940395,282800.200000003,9023,WL,C,8.0
2,23.633000135421753,learn,36366.99986457825,Wed Jul 09 2025 16:57:30 GMT-0400 (Eastern Daylight Time),285899.799999997,A,flagenter,I,enter,634,1,3099.5999999940395,282800.200000003,9023,WL,C,8.0
2,24.466000080108643,learn,35533.99991989136,Wed Jul 09 2025 16:57:30 GMT-0400 (Eastern Daylight Time),286733.0,A,d,I,d,820,1,832.7999999970198,285900.200000003,9023,WL,C,9.0
2,24.616000175476074,learn,35383.999824523926,Wed Jul 09 2025 16:57:30 GMT-0400 (Eastern Daylight Time),286883.5,A,do,I,o,130,1,983.2999999970198,285900.200000003,9023,WL,C,9.0
2,24.782999992370605,learn,35217.000007629395,Wed Jul 09 2025 16:57:30 GMT-0400 (Eastern Daylight Time),287050.200000003,A,doc,I,c,145,1,1150.0,285900.200000003,9023,WL,C,9.0
2,25.08300018310547,learn,34916.99981689453,Wed Jul 09 2025 16:57:30 GMT-0400 (Eastern Daylight Time),287350.40000000596,A,doct,I,t,267,1,1450.2000000029802,285900.200000003,9023,WL,C,9.0
2,25.217000007629395,learn,34782.999992370605,Wed Jul 09 2025 16:57:30 GMT-0400 (Eastern Daylight Time),287483.59999999404,A,docto,I,o,118,1,1583.3999999910593,285900.200000003,9023,WL,C,9.0
2,25.48300004005432,learn,34516.99995994568,Wed Jul 09 2025 16:57:30 GMT-0400 (Eastern Daylight Time),287750.09999999404,A,doctog,I,g,233,1,1849.8999999910593,285900.200000003,9023,WL,C,9.0
2,25.950000047683716,learn,34049.999952316284,Wed Jul 09 2025 16:57:30 GMT-0400 (Eastern Daylight Time),288216.90000000596,A,docto,I,backspace,455,1,2316.7000000029802,285900.200000003,9023,WL,C,9.0
2,26.367000102996826,learn,33632.999897003174,Wed Jul 09 2025 16:57:30 GMT-0400 (Eastern Daylight Time),288633.59999999404,A,doctor,I,r,404,1,2733.3999999910593,285900.200000003,9023,WL,C,9.0
2,27.39900016784668,learn,32600.99983215332,Wed Jul 09 2025 16:57:30 GMT-0400 (Eastern Daylight Time),289666.5,A,doctorenter,I,enter,1009,1,3766.2999999970198,285900.200000003,9023,WL,C,9.0
2,29.532999992370605,learn,30467.000007629395,Wed Jul 09 2025 16:57:30 GMT-0400 (Eastern Daylight Time),291800.09999999404,A,c,I,c,2125,1,2133.2999999970198,289666.799999997,9023,WL,C,10.0
2,29.616000175476074,learn,30383.999824523926,Wed Jul 09 2025 16:57:30 GMT-0400 (Eastern Daylight Time),291883.09999999404,A,ca,I,a,67,1,2216.2999999970198,289666.799999997,9023,WL,C,10.0
2,30.216000080108643,learn,29783.999919891357,Wed Jul 09 2025 16:57:30 GMT-0400 (Eastern Daylight Time),292483.5,A,cat,I,t,580,1,2816.7000000029802,289666.799999997,9023,WL,C,10.0
2,30.367000102996826,learn,29632.999897003174,Wed Jul 09 2025 16:57:30 GMT-0400 (Eastern Daylight Time),292633.59999999404,A,catt,I,t,138,1,2966.7999999970198,289666.799999997,9023,WL,C,10.0
2,30.66700005531311,learn,29332.99994468689,Wed Jul 09 2025 16:57:30 GMT-0400 (Eastern Daylight Time),292933.59999999404,A,cattl,I,l,268,1,3266.7999999970198,289666.799999997,9023,WL,C,10.0
2,30.800000190734863,learn,29199.999809265137,Wed Jul 09 2025 16:57:30 GMT-0400 (Eastern Daylight Time),293067.0,A,cattle,I,e,110,1,3400.2000000029802,289666.799999997,9023,WL,C,10.0
2,31.466000080108643,learn,28533.999919891357,Wed Jul 09 2025 16:57:30 GMT-0400 (Eastern Daylight Time),293733.200000003,A,cattleenter,I,enter,634,1,4066.4000000059605,289666.799999997,9023,WL,C,10.0
2,32.31599998474121,learn,27684.00001525879,Wed Jul 09 2025 16:57:30 GMT-0400 (Eastern Daylight Time),294583.299999997,A,b,I,b,844,1,849.7999999970198,293733.5,9023,WL,C,11.0
2,32.58300018310547,learn,27416.99981689453,Wed Jul 09 2025 16:57:30 GMT-0400 (Eastern Daylight Time),294850.40000000596,A,bo,I,o,246,1,1116.9000000059605,293733.5,9023,WL,C,11.0
2,33.01700019836426,learn,26982.999801635742,Wed Jul 09 2025 16:57:30 GMT-0400 (Eastern Daylight Time),295283.59999999404,A,bod,I,d,411,1,1550.0999999940395,293733.5,9023,WL,C,11.0
2,33.217000007629395,learn,26782.999992370605,Wed Jul 09 2025 16:57:30 GMT-0400 (Eastern Daylight Time),295483.59999999404,A,body,I,y,185,1,1750.0999999940395,293733.5,9023,WL,C,11.0
2,34.01600003242493,learn,25983.999967575073,Wed Jul 09 2025 16:57:30 GMT-0400 (Eastern Daylight Time),296283.09999999404,A,bodyenter,I,enter,785,1,2549.5999999940395,293733.5,9023,WL,C,11.0
2,38.06599998474121,learn,21934.00001525879,Wed Jul 09 2025 16:57:30 GMT-0400 (Eastern Daylight Time),300333.40000000596,A,n,I,n,4036,1,4049.9000000059605,296283.5,9023,WL,C,12.0
2,38.25,learn,21750.0,Wed Jul 09 2025 16:57:30 GMT-0400 (Eastern Daylight Time),300517.09999999404,A,na,I,a,159,1,4233.5999999940395,296283.5,9023,WL,C,12.0
2,38.450000047683716,learn,21549.999952316284,Wed Jul 09 2025 16:57:30 GMT-0400 (Eastern Daylight Time),300716.90000000596,A,nai,I,i,184,1,4433.4000000059605,296283.5,9023,WL,C,12.0
2,38.68300008773804,learn,21316.999912261963,Wed Jul 09 2025 16:57:30 GMT-0400 (Eastern Daylight Time),300950.200000003,A,nail,I,l,205,1,4666.70000000298,296283.5,9023,WL,C,12.0
2,39.13300013542175,learn,20866.999864578247,Wed Jul 09 2025 16:57:30 GMT-0400 (Eastern Daylight Time),301399.799999997,A,nailenter,I,enter,437,1,5116.29999999702,296283.5,9023,WL,C,12.0
2,41.01700019836426,learn,18982.999801635742,Wed Jul 09 2025 16:57:30 GMT-0400 (Eastern Daylight Time),303283.700000003,A,f,I,f,1865,1,1883.5,301400.200000003,9023,WL,C,13.0
2,41.16700005531311,learn,18832.99994468689,Wed Jul 09 2025 16:57:30 GMT-0400 (Eastern Daylight Time),303433.59999999404,A,fl,I,l,137,1,2033.3999999910593,301400.200000003,9023,WL,C,13.0
2,41.35000014305115,learn,18649.999856948853,Wed Jul 09 2025 16:57:30 GMT-0400 (Eastern Daylight Time),303617.0,A,fla,I,a,155,1,2216.7999999970198,301400.200000003,9023,WL,C,13.0
2,41.700000047683716,learn,18299.999952316284,Wed Jul 09 2025 16:57:30 GMT-0400 (Eastern Daylight Time),303967.0,A,flag,I,g,332,1,2566.7999999970198,301400.200000003,9023,WL,C,13.0
2,42.116000175476074,learn,17883.999824523926,Wed Jul 09 2025 16:57:30 GMT-0400 (Eastern Daylight Time),304383.09999999404,A,flagenter,I,enter,396,1,2982.8999999910593,301400.200000003,9023,WL,C,13.0
2,44.5,learn,15500.0,Wed Jul 09 2025 16:57:30 GMT-0400 (Eastern Daylight Time),306767.0,A,s,I,s,2369,1,2383.5,304383.5,9023,WL,C,14.0
2,44.66700005531311,learn,15332.99994468689,Wed Jul 09 2025 16:57:30 GMT-0400 (Eastern Daylight Time),306933.700000003,A,sh,I,h,140,1,2550.2000000029802,304383.5,9023,WL,C,14.0
2,44.75,learn,15250.0,Wed Jul 09 2025 16:57:30 GMT-0400 (Eastern Daylight Time),307016.700000003,A,sho,I,o,71,1,2633.2000000029802,304383.5,9023,WL,C,14.0
2,45.0,learn,15000.0,Wed Jul 09 2025 16:57:30 GMT-0400 (Eastern Daylight Time),307267.0,A,shor,I,r,227,1,2883.5,304383.5,9023,WL,C,14.0
2,45.23300004005432,learn,14766.999959945679,Wed Jul 09 2025 16:57:30 GMT-0400 (Eastern Daylight Time),307500.299999997,A,shore,I,e,218,1,3116.7999999970198,304383.5,9023,WL,C,14.0
2,45.63300013542175,learn,14366.999864578247,Wed Jul 09 2025 16:57:30 GMT-0400 (Eastern Daylight Time),307899.799999997,A,shoreenter,I,enter,376,1,3516.2999999970198,304383.5,9023,WL,C,14.0
2,60.01700019836426,learn,-17.000198364257812,Wed Jul 09 2025 16:57:30 GMT-0400 (Eastern Daylight Time),322283.700000003,A,None,I,None,14377,1,14383.60000000894,307900.09999999404,9023,WL,C,15.0
3,1.75,learn,58250.0,Wed Jul 09 2025 16:57:30 GMT-0400 (Eastern Daylight Time),394683.799999997,A,t,I,t,1737,1,1749.7000000029802,392934.09999999404,9023,WL,C,1.0
3,1.9830000400543213,learn,58016.99995994568,Wed Jul 09 2025 16:57:30 GMT-0400 (Eastern Daylight Time),394916.90000000596,A,to,I,o,211,1,1982.800000011921,392934.09999999404,9023,WL,C,1.0
3,2.2330000400543213,learn,57766.99995994568,Wed Jul 09 2025 16:57:30 GMT-0400 (Eastern Daylight Time),395167.09999999404,A,tow,I,w,226,1,2233.0,392934.09999999404,9023,WL,C,1.0
3,2.3500001430511475,learn,57649.99985694885,Wed Jul 09 2025 16:57:30 GMT-0400 (Eastern Daylight Time),395283.700000003,A,towe,I,e,95,1,2349.6000000089407,392934.09999999404,9023,WL,C,1.0
3,2.5,learn,57500.0,Wed Jul 09 2025 16:57:30 GMT-0400 (Eastern Daylight Time),395433.59999999404,A,tower,I,r,136,1,2499.5,392934.09999999404,9023,WL,C,1.0
3,3.315999984741211,learn,56684.00001525879,Wed Jul 09 2025 16:57:30 GMT-0400 (Eastern Daylight Time),396249.90000000596,A,towerenter,I,enter,804,1,3315.800000011921,392934.09999999404,9023,WL,C,1.0
3,3.9830000400543213,learn,56016.99995994568,Wed Jul 09 2025 16:57:30 GMT-0400 (Eastern Daylight Time),396917.09999999404,A,w,I,w,646,1,666.7999999970198,396250.299999997,9023,WL,C,2.0
3,4.200000047683716,learn,55799.999952316284,Wed Jul 09 2025 16:57:30 GMT-0400 (Eastern Daylight Time),397133.59999999404,A,wh,I,h,200,1,883.2999999970198,396250.299999997,9023,WL,C,2.0
3,4.466000080108643,learn,55533.99991989136,Wed Jul 09 2025 16:57:30 GMT-0400 (Eastern Daylight Time),397400.200000003,A,whe,I,e,248,1,1149.9000000059605,396250.299999997,9023,WL,C,2.0
3,4.565999984741211,learn,55434.00001525879,Wed Jul 09 2025 16:57:30 GMT-0400 (Eastern Daylight Time),397500.40000000596,A,whea,I,a,85,1,1250.1000000089407,396250.299999997,9023,WL,C,2.0
3,5.098999977111816,learn,54901.00002288818,Wed Jul 09 2025 16:57:30 GMT-0400 (Eastern Daylight Time),398033.200000003,A,wheat,I,t,505,1,1782.9000000059605,396250.299999997,9023,WL,C,2.0
3,6.049000024795532,learn,53950.99997520447,Wed Jul 09 2025 16:57:30 GMT-0400 (Eastern Daylight Time),398983.0,A,wheatenter,I,enter,943,1,2732.7000000029802,396250.299999997,9023,WL,C,2.0
3,6.700000047683716,learn,53299.999952316284,Wed Jul 09 2025 16:57:30 GMT-0400 (Eastern Daylight Time),399633.700000003,A,q,I,q,633,1,650.2999999970198,398983.40000000596,9023,WL,C,3.0
3,6.966000080108643,learn,53033.99991989136,Wed Jul 09 2025 16:57:30 GMT-0400 (Eastern Daylight Time),399900.40000000596,A,qu,I,u,252,1,917.0,398983.40000000596,9023,WL,C,3.0
3,7.266000032424927,learn,52733.99996757507,Wed Jul 09 2025 16:57:30 GMT-0400 (Eastern Daylight Time),400200.09999999404,A,que,I,e,289,1,1216.699999988079,398983.40000000596,9023,WL,C,3.0
3,7.416000127792358,learn,52583.99987220764,Wed Jul 09 2025 16:57:30 GMT-0400 (Eastern Daylight Time),400350.40000000596,A,quee,I,e,133,1,1367.0,398983.40000000596,9023,WL,C,3.0
3,7.716000080108643,learn,52283.99991989136,Wed Jul 09 2025 16:57:30 GMT-0400 (Eastern Daylight Time),400650.299999997,A,queen,I,n,286,1,1666.8999999910593,398983.40000000596,9023,WL,C,3.0
3,8.282999992370605,learn,51717.000007629395,Wed Jul 09 2025 16:57:30 GMT-0400 (Eastern Daylight Time),401216.59999999404,A,queenenter,I,enter,547,1,2233.199999988079,398983.40000000596,9023,WL,C,3.0
3,9.131999969482422,learn,50868.00003051758,Wed Jul 09 2025 16:57:30 GMT-0400 (Eastern Daylight Time),402066.40000000596,A,s,I,s,831,1,849.4000000059605,401217.0,9023,WL,C,4.0
3,9.350000143051147,learn,50649.99985694885,Wed Jul 09 2025 16:57:30 GMT-0400 (Eastern Daylight Time),402283.700000003,A,su,I,u,206,1,1066.7000000029802,401217.0,9023,WL,C,4.0
3,9.916000127792358,learn,50083.99987220764,Wed Jul 09 2025 16:57:30 GMT-0400 (Eastern Daylight Time),402850.40000000596,A,sug,I,g,546,1,1633.4000000059605,401217.0,9023,WL,C,4.0
3,10.08299994468689,learn,49917.00005531311,Wed Jul 09 2025 16:57:30 GMT-0400 (Eastern Daylight Time),403017.0,A,suga,I,a,152,1,1800.0,401217.0,9023,WL,C,4.0
3,10.315999984741211,learn,49684.00001525879,Wed Jul 09 2025 16:57:30 GMT-0400 (Eastern Daylight Time),403250.40000000596,A,sugar,I,r,206,1,2033.4000000059605,401217.0,9023,WL,C,4.0
3,10.916000127792358,learn,49083.99987220764,Wed Jul 09 2025 16:57:30 GMT-0400 (Eastern Daylight Time),403849.90000000596,A,sugarenter,I,enter,587,1,2632.9000000059605,401217.0,9023,WL,C,4.0
3,11.565999984741211,learn,48434.00001525879,Wed Jul 09 2025 16:57:30 GMT-0400 (Eastern Daylight Time),404500.40000000596,A,h,I,h,631,1,650.3000000119209,403850.09999999404,9023,WL,C,5.0
3,11.666000127792358,learn,48333.99987220764,Wed Jul 09 2025 16:57:30 GMT-0400 (Eastern Daylight Time),404600.0,A,ho,I,o,89,1,749.9000000059605,403850.09999999404,9023,WL,C,5.0
3,11.900000095367432,learn,48099.99990463257,Wed Jul 09 2025 16:57:30 GMT-0400 (Eastern Daylight Time),404833.59999999404,A,hom,I,m,214,1,983.5,403850.09999999404,9023,WL,C,5.0
3,12.449000120162964,learn,47550.999879837036,Wed Jul 09 2025 16:57:30 GMT-0400 (Eastern Daylight Time),405383.40000000596,A,home,I,e,539,1,1533.300000011921,403850.09999999404,9023,WL,C,5.0
3,12.848999977111816,learn,47151.00002288818,Wed Jul 09 2025 16:57:30 GMT-0400 (Eastern Daylight Time),405783.09999999404,A,homeenter,I,enter,389,1,1933.0,403850.09999999404,9023,WL,C,5.0
3,13.700000047683716,learn,46299.999952316284,Wed Jul 09 2025 16:57:30 GMT-0400 (Eastern Daylight Time),406633.700000003,A,b,I,b,841,1,850.2000000029802,405783.5,9023,WL,C,6.0
3,13.883000135421753,learn,46116.99986457825,Wed Jul 09 2025 16:57:30 GMT-0400 (Eastern Daylight Time),406817.0,A,bo,I,o,164,1,1033.5,405783.5,9023,WL,C,6.0
3,14.233000040054321,learn,45766.99995994568,Wed Jul 09 2025 16:57:30 GMT-0400 (Eastern Daylight Time),407167.09999999404,A,boy,I,y,323,1,1383.5999999940395,405783.5,9023,WL,C,6.0
3,15.499000072479248,learn,44500.99992752075,Wed Jul 09 2025 16:57:30 GMT-0400 (Eastern Daylight Time),408433.200000003,A,boyenter,I,enter,1237,1,2649.7000000029802,405783.5,9023,WL,C,6.0
3,16.56599998474121,learn,43434.00001525879,Wed Jul 09 2025 16:57:30 GMT-0400 (Eastern Daylight Time),409500.40000000596,A,d,I,d,1056,1,1066.9000000059605,408433.5,9023,WL,C,7.0
3,16.766000032424927,learn,43233.99996757507,Wed Jul 09 2025 16:57:30 GMT-0400 (Eastern Daylight Time),409700.40000000596,A,do,I,o,178,1,1266.9000000059605,408433.5,9023,WL,C,7.0
3,16.98300004005432,learn,43016.99995994568,Wed Jul 09 2025 16:57:30 GMT-0400 (Eastern Daylight Time),409917.0,A,doc,I,c,200,1,1483.5,408433.5,9023,WL,C,7.0
3,17.23300004005432,learn,42766.99995994568,Wed Jul 09 2025 16:57:30 GMT-0400 (Eastern Daylight Time),410166.59999999404,A,doct,I,t,216,1,1733.0999999940395,408433.5,9023,WL,C,7.0
3,17.350000143051147,learn,42649.99985694885,Wed Jul 09 2025 16:57:30 GMT-0400 (Eastern Daylight Time),410283.700000003,A,docto,I,o,105,1,1850.2000000029802,408433.5,9023,WL,C,7.0
3,17.683000087738037,learn,42316.99991226196,Wed Jul 09 2025 16:57:30 GMT-0400 (Eastern Daylight Time),410616.90000000596,A,doctor,I,r,321,1,2183.4000000059605,408433.5,9023,WL,C,7.0
3,18.383000135421753,learn,41616.99986457825,Wed Jul 09 2025 16:57:30 GMT-0400 (Eastern Daylight Time),411316.59999999404,A,doctorenter,I,enter,676,1,2883.0999999940395,408433.5,9023,WL,C,7.0
3,19.049999952316284,learn,40950.000047683716,Wed Jul 09 2025 16:57:30 GMT-0400 (Eastern Daylight Time),411983.700000003,A,c,I,c,652,1,666.7000000029802,411317.0,9023,WL,C,8.0
3,19.133000135421753,learn,40866.99986457825,Wed Jul 09 2025 16:57:30 GMT-0400 (Eastern Daylight Time),412067.0,A,ca,I,a,59,1,750.0,411317.0,9023,WL,C,8.0
3,20.966000080108643,learn,39033.99991989136,Wed Jul 09 2025 16:57:30 GMT-0400 (Eastern Daylight Time),413900.40000000596,A,cam,I,m,1818,1,2583.4000000059605,411317.0,9023,WL,C,8.0
3,21.516000032424927,learn,38483.99996757507,Wed Jul 09 2025 16:57:30 GMT-0400 (Eastern Daylight Time),414450.40000000596,A,camp,I,p,530,1,3133.4000000059605,411317.0,9023,WL,C,8.0
3,22.48300004005432,learn,37516.99995994568,Wed Jul 09 2025 16:57:30 GMT-0400 (Eastern Daylight Time),415416.5,A,campenter,I,enter,951,1,4099.5,411317.0,9023,WL,C,8.0
3,23.532999992370605,learn,36467.000007629395,Wed Jul 09 2025 16:57:30 GMT-0400 (Eastern Daylight Time),416467.200000003,A,f,I,f,1032,1,1050.2999999970198,415416.90000000596,9023,WL,C,9.0
3,23.66600012779236,learn,36333.99987220764,Wed Jul 09 2025 16:57:30 GMT-0400 (Eastern Daylight Time),416600.200000003,A,fl,I,l,123,1,1183.2999999970198,415416.90000000596,9023,WL,C,9.0
3,23.81599998474121,learn,36184.00001525879,Wed Jul 09 2025 16:57:30 GMT-0400 (Eastern Daylight Time),416750.40000000596,A,fla,I,a,126,1,1333.5,415416.90000000596,9023,WL,C,9.0
3,24.81599998474121,learn,35184.00001525879,Wed Jul 09 2025 16:57:30 GMT-0400 (Eastern Daylight Time),417750.40000000596,A,flag,I,g,972,1,2333.5,415416.90000000596,9023,WL,C,9.0
3,26.032000064849854,learn,33967.99993515015,Wed Jul 09 2025 16:57:30 GMT-0400 (Eastern Daylight Time),418966.299999997,A,flagenter,I,enter,1207,1,3549.3999999910593,415416.90000000596,9023,WL,C,9.0
3,26.41600012779236,learn,33583.99987220764,Wed Jul 09 2025 16:57:30 GMT-0400 (Eastern Daylight Time),419350.40000000596,A,l,I,l,363,1,383.90000000596046,418966.5,9023,WL,C,10.0
3,26.58299994468689,learn,33417.00005531311,Wed Jul 09 2025 16:57:30 GMT-0400 (Eastern Daylight Time),419517.09999999404,A,le,I,e,148,1,550.5999999940395,418966.5,9023,WL,C,10.0
3,26.83299994468689,learn,33167.00005531311,Wed Jul 09 2025 16:57:30 GMT-0400 (Eastern Daylight Time),419767.299999997,A,let,I,t,233,1,800.7999999970198,418966.5,9023,WL,C,10.0
3,26.950000047683716,learn,33049.999952316284,Wed Jul 09 2025 16:57:30 GMT-0400 (Eastern Daylight Time),419883.5,A,lett,I,t,103,1,917.0,418966.5,9023,WL,C,10.0
3,27.16600012779236,learn,32833.99987220764,Wed Jul 09 2025 16:57:30 GMT-0400 (Eastern Daylight Time),420100.40000000596,A,lette,I,e,193,1,1133.9000000059605,418966.5,9023,WL,C,10.0
3,27.266000032424927,learn,32733.999967575073,Wed Jul 09 2025 16:57:30 GMT-0400 (Eastern Daylight Time),420200.200000003,A,letter,I,r,90,1,1233.7000000029802,418966.5,9023,WL,C,10.0
3,27.66600012779236,learn,32333.99987220764,Wed Jul 09 2025 16:57:30 GMT-0400 (Eastern Daylight Time),420599.799999997,A,letterenter,I,enter,386,1,1633.2999999970198,418966.5,9023,WL,C,10.0
3,29.75,learn,30250.0,Wed Jul 09 2025 16:57:30 GMT-0400 (Eastern Daylight Time),422683.700000003,A,c,I,c,2073,1,2083.5,420600.200000003,9023,WL,C,11.0
3,29.950000047683716,learn,30049.999952316284,Wed Jul 09 2025 16:57:30 GMT-0400 (Eastern Daylight Time),422883.59999999404,A,co,I,o,177,1,2283.3999999910593,420600.200000003,9023,WL,C,11.0
3,30.133000135421753,learn,29866.999864578247,Wed Jul 09 2025 16:57:30 GMT-0400 (Eastern Daylight Time),423067.0,A,cor,I,r,170,1,2466.7999999970198,420600.200000003,9023,WL,C,11.0
3,30.549999952316284,learn,29450.000047683716,Wed Jul 09 2025 16:57:30 GMT-0400 (Eastern Daylight Time),423483.700000003,A,corn,I,n,401,1,2883.5,420600.200000003,9023,WL,C,11.0
3,30.966000080108643,learn,29033.999919891357,Wed Jul 09 2025 16:57:30 GMT-0400 (Eastern Daylight Time),423899.90000000596,A,cornenter,I,enter,401,1,3299.7000000029802,420600.200000003,9023,WL,C,11.0
3,31.56599998474121,learn,28434.00001525879,Wed Jul 09 2025 16:57:30 GMT-0400 (Eastern Daylight Time),424500.40000000596,A,n,I,n,580,1,600.1000000089407,423900.299999997,9023,WL,C,12.0
3,31.68400001525879,learn,28315.99998474121,Wed Jul 09 2025 16:57:30 GMT-0400 (Eastern Daylight Time),424617.90000000596,A,na,I,a,96,1,717.6000000089407,423900.299999997,9023,WL,C,12.0
3,31.865999937057495,learn,28134.000062942505,Wed Jul 09 2025 16:57:30 GMT-0400 (Eastern Daylight Time),424800.40000000596,A,nai,I,i,155,1,900.1000000089407,423900.299999997,9023,WL,C,12.0
3,32.115999937057495,learn,27884.000062942505,Wed Jul 09 2025 16:57:30 GMT-0400 (Eastern Daylight Time),425050.40000000596,A,nail,I,l,236,1,1150.1000000089407,423900.299999997,9023,WL,C,12.0
3,33.06599998474121,learn,26934.00001525879,Wed Jul 09 2025 16:57:30 GMT-0400 (Eastern Daylight Time),425999.90000000596,A,nailenter,I,enter,931,1,2099.6000000089407,423900.299999997,9023,WL,C,12.0
3,34.43300008773804,learn,25566.999912261963,Wed Jul 09 2025 16:57:30 GMT-0400 (Eastern Daylight Time),427366.799999997,A,c,I,c,1360,1,1366.5,426000.299999997,9023,WL,C,13.0
3,34.71600008010864,learn,25283.999919891357,Wed Jul 09 2025 16:57:30 GMT-0400 (Eastern Daylight Time),427650.40000000596,A,ca,I,a,263,1,1650.1000000089407,426000.299999997,9023,WL,C,13.0
3,35.10000014305115,learn,24899.999856948853,Wed Jul 09 2025 16:57:30 GMT-0400 (Eastern Daylight Time),428033.700000003,A,cat,I,t,363,1,2033.4000000059605,426000.299999997,9023,WL,C,13.0
3,35.23300004005432,learn,24766.99995994568,Wed Jul 09 2025 16:57:30 GMT-0400 (Eastern Daylight Time),428167.200000003,A,catt,I,t,124,1,2166.9000000059605,426000.299999997,9023,WL,C,13.0
3,35.365999937057495,learn,24634.000062942505,Wed Jul 09 2025 16:57:30 GMT-0400 (Eastern Daylight Time),428300.40000000596,A,cattl,I,l,110,1,2300.1000000089407,426000.299999997,9023,WL,C,13.0
3,35.46600008010864,learn,24533.999919891357,Wed Jul 09 2025 16:57:30 GMT-0400 (Eastern Daylight Time),428400.5,A,cattle,I,e,73,1,2400.2000000029802,426000.299999997,9023,WL,C,13.0
3,36.48300004005432,learn,23516.99995994568,Wed Jul 09 2025 16:57:30 GMT-0400 (Eastern Daylight Time),429416.5,A,cattleenter,I,enter,997,1,3416.2000000029802,426000.299999997,9023,WL,C,13.0
3,38.532999992370605,learn,21467.000007629395,Wed Jul 09 2025 16:57:30 GMT-0400 (Eastern Daylight Time),431467.09999999404,A,s,I,s,2039,1,2050.199999988079,429416.90000000596,9023,WL,C,14.0
3,39.06599998474121,learn,20934.00001525879,Wed Jul 09 2025 16:57:30 GMT-0400 (Eastern Daylight Time),432000.40000000596,A,sh,I,h,513,1,2583.5,429416.90000000596,9023,WL,C,14.0
3,39.16600012779236,learn,20833.99987220764,Wed Jul 09 2025 16:57:30 GMT-0400 (Eastern Daylight Time),432100.40000000596,A,sho,I,o,76,1,2683.5,429416.90000000596,9023,WL,C,14.0
3,39.33299994468689,learn,20667.00005531311,Wed Jul 09 2025 16:57:30 GMT-0400 (Eastern Daylight Time),432267.09999999404,A,shor,I,r,146,1,2850.199999988079,429416.90000000596,9023,WL,C,14.0
3,39.43300008773804,learn,20566.999912261963,Wed Jul 09 2025 16:57:30 GMT-0400 (Eastern Daylight Time),432367.09999999404,A,shore,I,e,73,1,2950.199999988079,429416.90000000596,9023,WL,C,14.0
3,39.79900002479553,learn,20200.999975204468,Wed Jul 09 2025 16:57:30 GMT-0400 (Eastern Daylight Time),432733.200000003,A,shoreenter,I,enter,342,1,3316.2999999970198,429416.90000000596,9023,WL,C,14.0
3,41.21600008010864,learn,18783.999919891357,Wed Jul 09 2025 16:57:30 GMT-0400 (Eastern Daylight Time),434150.40000000596,A,b,I,b,1395,1,1416.800000011921,432733.59999999404,9023,WL,C,15.0
3,41.40000009536743,learn,18599.99990463257,Wed Jul 09 2025 16:57:30 GMT-0400 (Eastern Daylight Time),434333.59999999404,A,bo,I,o,166,1,1600.0,432733.59999999404,9023,WL,C,15.0
3,41.65000009536743,learn,18349.99990463257,Wed Jul 09 2025 16:57:30 GMT-0400 (Eastern Daylight Time),434583.90000000596,A,bod,I,d,224,1,1850.300000011921,432733.59999999404,9023,WL,C,15.0
3,41.96600008010864,learn,18033.999919891357,Wed Jul 09 2025 16:57:30 GMT-0400 (Eastern Daylight Time),434900.5,A,body,I,y,294,1,2166.9000000059605,432733.59999999404,9023,WL,C,15.0
3,43.098999977111816,learn,16901.000022888184,Wed Jul 09 2025 16:57:30 GMT-0400 (Eastern Daylight Time),436033.200000003,A,bodyenter,I,enter,1113,1,3299.6000000089407,432733.59999999404,9023,WL,C,15.0
4,0.9160001277923584,learn,59083.99987220764,Wed Jul 09 2025 16:57:30 GMT-0400 (Eastern Daylight Time),507317.200000003,A,t,I,t,890,1,915.5,506401.700000003,9023,WL,C,1.0
4,1.1660001277923584,learn,58833.99987220764,Wed Jul 09 2025 16:57:30 GMT-0400 (Eastern Daylight Time),507567.09999999404,A,to,I,o,232,1,1165.3999999910593,506401.700000003,9023,WL,C,1.0
4,1.383000135421753,learn,58616.99986457825,Wed Jul 09 2025 16:57:30 GMT-0400 (Eastern Daylight Time),507783.59999999404,A,tow,I,w,204,1,1381.8999999910593,506401.700000003,9023,WL,C,1.0
4,1.499000072479248,learn,58500.99992752075,Wed Jul 09 2025 16:57:30 GMT-0400 (Eastern Daylight Time),507900.5,A,towe,I,e,103,1,1498.7999999970198,506401.700000003,9023,WL,C,1.0
4,3.9830000400543213,learn,56016.99995994568,Wed Jul 09 2025 16:57:30 GMT-0400 (Eastern Daylight Time),510383.799999997,A,tower,I,r,2466,1,3982.0999999940395,506401.700000003,9023,WL,C,1.0
4,5.065999984741211,learn,54934.00001525879,Wed Jul 09 2025 16:57:30 GMT-0400 (Eastern Daylight Time),511466.59999999404,A,towerenter,I,enter,1068,1,5064.899999991059,506401.700000003,9023,WL,C,1.0
4,8.216000080108643,learn,51783.99991989136,Wed Jul 09 2025 16:57:30 GMT-0400 (Eastern Daylight Time),514617.0,A,q,I,q,3142,1,3150.0,511467.0,9023,WL,C,2.0
4,8.633000135421753,learn,51366.99986457825,Wed Jul 09 2025 16:57:30 GMT-0400 (Eastern Daylight Time),515033.799999997,A,qu,I,u,405,1,3566.7999999970198,511467.0,9023,WL,C,2.0
4,8.950000047683716,learn,51049.999952316284,Wed Jul 09 2025 16:57:30 GMT-0400 (Eastern Daylight Time),515350.59999999404,A,que,I,e,289,1,3883.5999999940395,511467.0,9023,WL,C,2.0
4,9.098999977111816,learn,50901.00002288818,Wed Jul 09 2025 16:57:30 GMT-0400 (Eastern Daylight Time),515500.40000000596,A,quee,I,e,126,1,4033.4000000059605,511467.0,9023,WL,C,2.0
4,9.532999992370605,learn,50467.000007629395,Wed Jul 09 2025 16:57:30 GMT-0400 (Eastern Daylight Time),515933.799999997,A,queen,I,n,410,1,4466.79999999702,511467.0,9023,WL,C,2.0
4,10.098999977111816,learn,49901.00002288818,Wed Jul 09 2025 16:57:30 GMT-0400 (Eastern Daylight Time),516499.90000000596,A,queenenter,I,enter,544,1,5032.9000000059605,511467.0,9023,WL,C,2.0
4,10.532999992370605,learn,49467.000007629395,Wed Jul 09 2025 16:57:30 GMT-0400 (Eastern Daylight Time),516933.799999997,A,s,I,s,412,1,433.5,516500.299999997,9023,WL,C,3.0
4,10.766000032424927,learn,49233.99996757507,Wed Jul 09 2025 16:57:30 GMT-0400 (Eastern Daylight Time),517167.200000003,A,su,I,u,215,1,666.9000000059605,516500.299999997,9023,WL,C,3.0
4,11.049000024795532,learn,48950.99997520447,Wed Jul 09 2025 16:57:30 GMT-0400 (Eastern Daylight Time),517450.40000000596,A,sur,I,r,269,1,950.1000000089407,516500.299999997,9023,WL,C,3.0
4,11.516000032424927,learn,48483.99996757507,Wed Jul 09 2025 16:57:30 GMT-0400 (Eastern Daylight Time),517917.09999999404,A,su,I,backspace,452,1,1416.7999999970198,516500.299999997,9023,WL,C,3.0
4,11.733000040054321,learn,48266.99995994568,Wed Jul 09 2025 16:57:30 GMT-0400 (Eastern Daylight Time),518133.799999997,A,sug,I,g,188,1,1633.5,516500.299999997,9023,WL,C,3.0
4,11.966000080108643,learn,48033.99991989136,Wed Jul 09 2025 16:57:30 GMT-0400 (Eastern Daylight Time),518367.0,A,suga,I,a,213,1,1866.7000000029802,516500.299999997,9023,WL,C,3.0
4,12.299000024795532,learn,47700.99997520447,Wed Jul 09 2025 16:57:30 GMT-0400 (Eastern Daylight Time),518700.5,A,sugar,I,r,311,1,2200.2000000029802,516500.299999997,9023,WL,C,3.0
4,12.73200011253357,learn,47267.99988746643,Wed Jul 09 2025 16:57:30 GMT-0400 (Eastern Daylight Time),519133.299999997,A,sugarenter,I,enter,416,1,2633.0,516500.299999997,9023,WL,C,3.0
4,13.166000127792358,learn,46833.99987220764,Wed Jul 09 2025 16:57:30 GMT-0400 (Eastern Daylight Time),519567.200000003,A,h,I,h,419,1,433.6000000089407,519133.59999999404,9023,WL,C,4.0
4,13.299000024795532,learn,46700.99997520447,Wed Jul 09 2025 16:57:30 GMT-0400 (Eastern Daylight Time),519700.40000000596,A,ho,I,o,111,1,566.8000000119209,519133.59999999404,9023,WL,C,4.0
4,13.633000135421753,learn,46366.99986457825,Wed Jul 09 2025 16:57:30 GMT-0400 (Eastern Daylight Time),520033.799999997,A,hom,I,m,313,1,900.2000000029802,519133.59999999404,9023,WL,C,4.0
4,13.916000127792358,learn,46083.99987220764,Wed Jul 09 2025 16:57:30 GMT-0400 (Eastern Daylight Time),520317.200000003,A,home,I,e,268,1,1183.6000000089407,519133.59999999404,9023,WL,C,4.0
4,14.299000024795532,learn,45700.99997520447,Wed Jul 09 2025 16:57:30 GMT-0400 (Eastern Daylight Time),520699.90000000596,A,homeenter,I,enter,368,1,1566.300000011921,519133.59999999404,9023,WL,C,4.0
4,15.049000024795532,learn,44950.99997520447,Wed Jul 09 2025 16:57:30 GMT-0400 (Eastern Daylight Time),521450.5,A,b,I,b,741,1,750.2000000029802,520700.299999997,9023,WL,C,5.0
4,15.25,learn,44750.0,Wed Jul 09 2025 16:57:30 GMT-0400 (Eastern Daylight Time),521650.59999999404,A,bo,I,o,175,1,950.2999999970198,520700.299999997,9023,WL,C,5.0
4,15.683000087738037,learn,44316.99991226196,Wed Jul 09 2025 16:57:30 GMT-0400 (Eastern Daylight Time),522083.799999997,A,boy,I,y,408,1,1383.5,520700.299999997,9023,WL,C,5.0
4,16.949000120162964,learn,43050.999879837036,Wed Jul 09 2025 16:57:30 GMT-0400 (Eastern Daylight Time),523350.0,A,boyenter,I,enter,1240,1,2649.7000000029802,520700.299999997,9023,WL,C,5.0
4,18.41600012779236,learn,41583.99987220764,Wed Jul 09 2025 16:57:30 GMT-0400 (Eastern Daylight Time),524817.200000003,A,d,I,d,1451,1,1466.7999999970198,523350.40000000596,9023,WL,C,6.0
4,18.56599998474121,learn,41434.00001525879,Wed Jul 09 2025 16:57:30 GMT-0400 (Eastern Daylight Time),524967.099999994,A,do,I,o,125,1,1616.699999988079,523350.40000000596,9023,WL,C,6.0
4,18.73300004005432,learn,41266.99995994568,Wed Jul 09 2025 16:57:30 GMT-0400 (Eastern Daylight Time),525133.799999997,A,doc,I,c,142,1,1783.3999999910593,523350.40000000596,9023,WL,C,6.0
4,18.999000072479248,learn,41000.99992752075,Wed Jul 09 2025 16:57:30 GMT-0400 (Eastern Daylight Time),525400.099999994,A,doct,I,t,249,1,2049.699999988079,523350.40000000596,9023,WL,C,6.0
4,19.1489999294281,learn,40851.0000705719,Wed Jul 09 2025 16:57:30 GMT-0400 (Eastern Daylight Time),525550.5,A,docto,I,o,135,1,2200.0999999940395,523350.40000000596,9023,WL,C,6.0
4,19.449000120162964,learn,40550.999879837036,Wed Jul 09 2025 16:57:30 GMT-0400 (Eastern Daylight Time),525850.5,A,doctor,I,r,279,1,2500.0999999940395,523350.40000000596,9023,WL,C,6.0
4,19.883000135421753,learn,40116.99986457825,Wed Jul 09 2025 16:57:30 GMT-0400 (Eastern Daylight Time),526284.299999997,A,doctorenter,I,enter,418,1,2933.8999999910593,523350.40000000596,9023,WL,C,6.0
4,20.31599998474121,learn,39684.00001525879,Wed Jul 09 2025 16:57:30 GMT-0400 (Eastern Daylight Time),526717.200000003,A,c,I,c,420,1,432.5,526284.700000003,9023,WL,C,7.0
4,20.433000087738037,learn,39566.99991226196,Wed Jul 09 2025 16:57:30 GMT-0400 (Eastern Daylight Time),526833.599999994,A,ca,I,a,97,1,548.8999999910593,526284.700000003,9023,WL,C,7.0
4,20.83299994468689,learn,39167.00005531311,Wed Jul 09 2025 16:57:30 GMT-0400 (Eastern Daylight Time),527233.799999997,A,cam,I,m,372,1,949.0999999940395,526284.700000003,9023,WL,C,7.0
4,21.365999937057495,learn,38634.000062942505,Wed Jul 09 2025 16:57:30 GMT-0400 (Eastern Daylight Time),527767.0,A,camp,I,p,506,1,1482.2999999970198,526284.700000003,9023,WL,C,7.0
4,22.016000032424927,learn,37983.99996757507,Wed Jul 09 2025 16:57:30 GMT-0400 (Eastern Daylight Time),528416.599999994,A,campenter,I,enter,629,1,2131.8999999910593,526284.700000003,9023,WL,C,7.0
4,22.749000072479248,learn,37250.99992752075,Wed Jul 09 2025 16:57:30 GMT-0400 (Eastern Daylight Time),529150.5,A,f,I,f,720,1,733.5,528417.0,9023,WL,C,8.0
4,22.865999937057495,learn,37134.000062942505,Wed Jul 09 2025 16:57:30 GMT-0400 (Eastern Daylight Time),529267.200000003,A,fl,I,l,95,1,850.2000000029802,528417.0,9023,WL,C,8.0
4,22.98200011253357,learn,37017.99988746643,Wed Jul 09 2025 16:57:30 GMT-0400 (Eastern Daylight Time),529383.5,A,fla,I,a,107,1,966.5,528417.0,9023,WL,C,8.0
4,23.31599998474121,learn,36684.00001525879,Wed Jul 09 2025 16:57:30 GMT-0400 (Eastern Daylight Time),529717.200000003,A,flag,I,g,304,1,1300.2000000029802,528417.0,9023,WL,C,8.0
4,24.082000017166138,learn,35917.99998283386,Wed Jul 09 2025 16:57:30 GMT-0400 (Eastern Daylight Time),530483.299999997,A,flagenter,I,enter,744,1,2066.2999999970198,528417.0,9023,WL,C,8.0
4,24.466000080108643,learn,35533.99991989136,Wed Jul 09 2025 16:57:30 GMT-0400 (Eastern Daylight Time),530867.200000003,A,l,I,l,366,1,383.5,530483.700000003,9023,WL,C,9.0
4,24.6489999294281,learn,35351.0000705719,Wed Jul 09 2025 16:57:30 GMT-0400 (Eastern Daylight Time),531050.400000006,A,le,I,e,168,1,566.7000000029802,530483.700000003,9023,WL,C,9.0
4,24.8989999294281,learn,35101.0000705719,Wed Jul 09 2025 16:57:30 GMT-0400 (Eastern Daylight Time),531300.5,A,let,I,t,221,1,816.7999999970198,530483.700000003,9023,WL,C,9.0
4,25.016000032424927,learn,34983.99996757507,Wed Jul 09 2025 16:57:30 GMT-0400 (Eastern Daylight Time),531416.900000006,A,lett,I,t,103,1,933.2000000029802,530483.700000003,9023,WL,C,9.0
4,25.266000032424927,learn,34733.99996757507,Wed Jul 09 2025 16:57:30 GMT-0400 (Eastern Daylight Time),531667.200000003,A,lette,I,e,226,1,1183.5,530483.700000003,9023,WL,C,9.0
4,25.3989999294281,learn,34601.0000705719,Wed Jul 09 2025 16:57:30 GMT-0400 (Eastern Daylight Time),531800.200000003,A,letter,I,r,123,1,1316.5,530483.700000003,9023,WL,C,9.0
4,26.848999977111816,learn,33151.00002288818,Wed Jul 09 2025 16:57:30 GMT-0400 (Eastern Daylight Time),533250.099999994,A,letterenter,I,enter,1421,1,2766.3999999910593,530483.700000003,9023,WL,C,9.0
4,27.749000072479248,learn,32250.999927520752,Wed Jul 09 2025 16:57:30 GMT-0400 (Eastern Daylight Time),534150.5,A,c,I,c,879,1,900.0,533250.5,9023,WL,C,10.0
4,27.865999937057495,learn,32134.000062942505,Wed Jul 09 2025 16:57:30 GMT-0400 (Eastern Daylight Time),534267.200000003,A,co,I,o,99,1,1016.7000000029802,533250.5,9023,WL,C,10.0
4,28.049000024795532,learn,31950.999975204468,Wed Jul 09 2025 16:57:30 GMT-0400 (Eastern Daylight Time),534450.400000006,A,cor,I,r,162,1,1199.9000000059605,533250.5,9023,WL,C,10.0
4,28.348999977111816,learn,31651.000022888184,Wed Jul 09 2025 16:57:30 GMT-0400 (Eastern Daylight Time),534750.5,A,corn,I,n,276,1,1500.0,533250.5,9023,WL,C,10.0
4,29.16600012779236,learn,30833.99987220764,Wed Jul 09 2025 16:57:30 GMT-0400 (Eastern Daylight Time),535566.599999994,A,cornenter,I,enter,799,1,2316.0999999940395,533250.5,9023,WL,C,10.0
4,29.56599998474121,learn,30434.00001525879,Wed Jul 09 2025 16:57:30 GMT-0400 (Eastern Daylight Time),535967.200000003,A,n,I,n,386,1,400.29999999701977,535566.900000006,9023,WL,C,11.0
4,29.716000080108643,learn,30283.999919891357,Wed Jul 09 2025 16:57:30 GMT-0400 (Eastern Daylight Time),536117.099999994,A,na,I,a,127,1,550.1999999880791,535566.900000006,9023,WL,C,11.0
4,29.883000135421753,learn,30116.999864578247,Wed Jul 09 2025 16:57:30 GMT-0400 (Eastern Daylight Time),536283.799999997,A,nai,I,i,144,1,716.8999999910593,535566.900000006,9023,WL,C,11.0
4,30.06599998474121,learn,29934.00001525879,Wed Jul 09 2025 16:57:30 GMT-0400 (Eastern Daylight Time),536467.099999994,A,nail,I,l,160,1,900.1999999880791,535566.900000006,9023,WL,C,11.0
4,30.881999969482422,learn,29118.000030517578,Wed Jul 09 2025 16:57:30 GMT-0400 (Eastern Daylight Time),537283.299999997,A,nailenter,I,enter,794,1,1716.3999999910593,535566.900000006,9023,WL,C,11.0
4,33.58299994468689,learn,26417.00005531311,Wed Jul 09 2025 16:57:30 GMT-0400 (Eastern Daylight Time),539983.799999997,A,c,I,c,2685,1,2700.2000000029802,537283.599999994,9023,WL,C,12.0
4,33.68300008773804,learn,26316.999912261963,Wed Jul 09 2025 16:57:30 GMT-0400 (Eastern Daylight Time),540083.799999997,A,ca,I,a,76,1,2800.2000000029802,537283.599999994,9023,WL,C,12.0
4,33.93300008773804,learn,26066.999912261963,Wed Jul 09 2025 16:57:30 GMT-0400 (Eastern Daylight Time),540333.799999997,A,cat,I,t,234,1,3050.2000000029802,537283.599999994,9023,WL,C,12.0
4,34.08299994468689,learn,25917.00005531311,Wed Jul 09 2025 16:57:30 GMT-0400 (Eastern Daylight Time),540483.700000003,A,catt,I,t,128,1,3200.1000000089407,537283.599999994,9023,WL,C,12.0
4,34.181999921798706,learn,25818.000078201294,Wed Jul 09 2025 16:57:30 GMT-0400 (Eastern Daylight Time),540583.299999997,A,cattl,I,l,81,1,3299.7000000029802,537283.599999994,9023,WL,C,12.0
4,34.29900002479553,learn,25700.999975204468,Wed Jul 09 2025 16:57:30 GMT-0400 (Eastern Daylight Time),540700.5,A,cattle,I,e,106,1,3416.9000000059605,537283.599999994,9023,WL,C,12.0
4,35.24900007247925,learn,24750.999927520752,Wed Jul 09 2025 16:57:30 GMT-0400 (Eastern Daylight Time),541650.0,A,cattleenter,I,enter,928,1,4366.4000000059605,537283.599999994,9023,WL,C,12.0
4,37.1489999294281,learn,22851.0000705719,Wed Jul 09 2025 16:57:30 GMT-0400 (Eastern Daylight Time),543550.5,A,s,I,s,1886,1,1900.0999999940395,541650.400000006,9023,WL,C,13.0
4,37.33299994468689,learn,22667.00005531311,Wed Jul 09 2025 16:57:30 GMT-0400 (Eastern Daylight Time),543733.799999997,A,sh,I,h,158,1,2083.3999999910593,541650.400000006,9023,WL,C,13.0
4,37.3989999294281,learn,22601.0000705719,Wed Jul 09 2025 16:57:30 GMT-0400 (Eastern Daylight Time),543800.299999997,A,sho,I,o,57,1,2149.8999999910593,541650.400000006,9023,WL,C,13.0
4,37.73300004005432,learn,22266.99995994568,Wed Jul 09 2025 16:57:30 GMT-0400 (Eastern Daylight Time),544133.799999997,A,shor,I,r,301,1,2483.3999999910593,541650.400000006,9023,WL,C,13.0
4,37.85000014305115,learn,22149.999856948853,Wed Jul 09 2025 16:57:30 GMT-0400 (Eastern Daylight Time),544250.599999994,A,shore,I,e,105,1,2600.199999988079,541650.400000006,9023,WL,C,13.0
4,39.66600012779236,learn,20333.99987220764,Wed Jul 09 2025 16:57:30 GMT-0400 (Eastern Daylight Time),546066.700000003,A,shoreenter,I,enter,1786,1,4416.29999999702,541650.400000006,9023,WL,C,13.0
4,40.38300013542175,learn,19616.999864578247,Wed Jul 09 2025 16:57:30 GMT-0400 (Eastern Daylight Time),546783.799999997,A,b,I,b,702,1,716.7999999970198,546067.0,9023,WL,C,14.0
4,40.48300004005432,learn,19516.99995994568,Wed Jul 09 2025 16:57:30 GMT-0400 (Eastern Daylight Time),546883.799999997,A,bo,I,o,78,1,816.7999999970198,546067.0,9023,WL,C,14.0
4,40.88199996948242,learn,19118.000030517578,Wed Jul 09 2025 16:57:30 GMT-0400 (Eastern Daylight Time),547283.0,A,bod,I,d,370,1,1216.0,546067.0,9023,WL,C,14.0
4,41.08299994468689,learn,18917.00005531311,Wed Jul 09 2025 16:57:30 GMT-0400 (Eastern Daylight Time),547483.700000003,A,body,I,y,189,1,1416.7000000029802,546067.0,9023,WL,C,14.0
4,41.58200001716614,learn,18417.999982833862,Wed Jul 09 2025 16:57:30 GMT-0400 (Eastern Daylight Time),547983.299999997,A,bodyenter,I,enter,473,1,1916.2999999970198,546067.0,9023,WL,C,14.0
4,60.01600003242493,learn,-16.000032424926758,Wed Jul 09 2025 16:57:30 GMT-0400 (Eastern Daylight Time),566417.400000006,A,None,I,None,18428,1,18433.70000000298,547983.700000003,9023,WL,C,15.0
5,0.9000000953674316,learn,60000.0,Wed Jul 09 2025 16:57:30 GMT-0400 (Eastern Daylight Time),637500.900000006,A,t,I,t,889,1,899.6000000089407,636601.299999997,9023,WL,C,1.0
5,1.2999999523162842,learn,60000.0,Wed Jul 09 2025 16:57:30 GMT-0400 (Eastern Daylight Time),637900.599999994,A,to,I,o,385,1,1299.2999999970198,636601.299999997,9023,WL,C,1.0
5,1.5499999523162842,learn,60000.0,Wed Jul 09 2025 16:57:30 GMT-0400 (Eastern Daylight Time),638150.599999994,A,tow,I,w,225,1,1549.2999999970198,636601.299999997,9023,WL,C,1.0
5,1.6659998893737793,learn,60000.0,Wed Jul 09 2025 16:57:30 GMT-0400 (Eastern Daylight Time),638267.200000003,A,towe,I,e,103,1,1665.9000000059605,636601.299999997,9023,WL,C,1.0
5,1.815999984741211,learn,60000.0,Wed Jul 09 2025 16:57:30 GMT-0400 (Eastern Daylight Time),638417.299999997,A,tower,I,r,131,1,1816.0,636601.299999997,9023,WL,C,1.0
5,2.381999969482422,learn,60000.0,Wed Jul 09 2025 16:57:30 GMT-0400 (Eastern Daylight Time),638983.200000003,A,towerenter,I,enter,548,1,2381.9000000059605,636601.299999997,9023,WL,C,1.0
5,2.882999897003174,learn,60000.0,Wed Jul 09 2025 16:57:30 GMT-0400 (Eastern Daylight Time),639483.900000006,A,w,I,w,490,1,500.30000001192093,638983.599999994,9023,WL,C,2.0
5,3.065999984741211,learn,60000.0,Wed Jul 09 2025 16:57:30 GMT-0400 (Eastern Daylight Time),639666.799999997,A,wh,I,h,161,1,683.2000000029802,638983.599999994,9023,WL,C,2.0
5,3.299999952316284,learn,60000.0,Wed Jul 09 2025 16:57:30 GMT-0400 (Eastern Daylight Time),639900.599999994,A,whe,I,e,217,1,917.0,638983.599999994,9023,WL,C,2.0
5,3.450000047683716,learn,60000.0,Wed Jul 09 2025 16:57:30 GMT-0400 (Eastern Daylight Time),640050.599999994,A,whea,I,a,129,1,1067.0,638983.599999994,9023,WL,C,2.0
5,3.815999984741211,learn,60000.0,Wed Jul 09 2025 16:57:30 GMT-0400 (Eastern Daylight Time),640417.200000003,A,wheat,I,t,347,1,1433.6000000089407,638983.599999994,9023,WL,C,2.0
5,4.365999937057495,learn,60000.0,Wed Jul 09 2025 16:57:30 GMT-0400 (Eastern Daylight Time),640966.599999994,A,wheatenter,I,enter,540,1,1983.0,638983.599999994,9023,WL,C,2.0
5,4.882999897003174,learn,60000.0,Wed Jul 09 2025 16:57:30 GMT-0400 (Eastern Daylight Time),641483.900000006,A,q,I,q,506,1,517.1000000089407,640966.799999997,9023,WL,C,3.0
5,5.150000095367432,learn,60000.0,Wed Jul 09 2025 16:57:30 GMT-0400 (Eastern Daylight Time),641750.700000003,A,qu,I,u,242,1,783.9000000059605,640966.799999997,9023,WL,C,3.0
5,5.315999984741211,learn,60000.0,Wed Jul 09 2025 16:57:30 GMT-0400 (Eastern Daylight Time),641917.200000003,A,que,I,e,151,1,950.4000000059605,640966.799999997,9023,WL,C,3.0
5,5.483000040054321,learn,60000.0,Wed Jul 09 2025 16:57:30 GMT-0400 (Eastern Daylight Time),642083.799999997,A,quee,I,e,145,1,1117.0,640966.799999997,9023,WL,C,3.0
5,5.700000047683716,learn,60000.0,Wed Jul 09 2025 16:57:30 GMT-0400 (Eastern Daylight Time),642300.5,A,queen,I,n,202,1,1333.7000000029802,640966.799999997,9023,WL,C,3.0
5,6.348999977111816,learn,60000.0,Wed Jul 09 2025 16:57:30 GMT-0400 (Eastern Daylight Time),642950.099999994,A,queenenter,I,enter,625,1,1983.2999999970198,640966.799999997,9023,WL,C,3.0
5,6.983000040054321,learn,60000.0,Wed Jul 09 2025 16:57:30 GMT-0400 (Eastern Daylight Time),643583.799999997,A,s,I,s,619,1,633.3999999910593,642950.400000006,9023,WL,C,4.0
5,7.216000080108643,learn,60000.0,Wed Jul 09 2025 16:57:30 GMT-0400 (Eastern Daylight Time),643817.200000003,A,su,I,u,222,1,866.7999999970198,642950.400000006,9023,WL,C,4.0
5,7.75,learn,60000.0,Wed Jul 09 2025 16:57:30 GMT-0400 (Eastern Daylight Time),644350.5,A,sug,I,g,507,1,1400.0999999940395,642950.400000006,9023,WL,C,4.0
5,7.915999889373779,learn,60000.0,Wed Jul 09 2025 16:57:30 GMT-0400 (Eastern Daylight Time),644517.299999997,A,suga,I,a,143,1,1566.8999999910593,642950.400000006,9023,WL,C,4.0
5,8.183000087738037,learn,60000.0,Wed Jul 09 2025 16:57:30 GMT-0400 (Eastern Daylight Time),644783.799999997,A,sugar,I,r,247,1,1833.3999999910593,642950.400000006,9023,WL,C,4.0
5,8.615999937057495,learn,60000.0,Wed Jul 09 2025 16:57:30 GMT-0400 (Eastern Daylight Time),645216.799999997,A,sugarenter,I,enter,413,1,2266.3999999910593,642950.400000006,9023,WL,C,4.0
5,9.016000032424927,learn,60000.0,Wed Jul 09 2025 16:57:30 GMT-0400 (Eastern Daylight Time),645617.200000003,A,h,I,h,383,1,400.0,645217.200000003,9023,WL,C,5.0
5,9.16599988937378,learn,60000.0,Wed Jul 09 2025 16:57:30 GMT-0400 (Eastern Daylight Time),645767.0,A,ho,I,o,122,1,549.7999999970198,645217.200000003,9023,WL,C,5.0
5,9.349999904632568,learn,60000.0,Wed Jul 09 2025 16:57:30 GMT-0400 (Eastern Daylight Time),645951.099999994,A,hom,I,m,160,1,733.8999999910593,645217.200000003,9023,WL,C,5.0
5,9.565999984741211,learn,60000.0,Wed Jul 09 2025 16:57:30 GMT-0400 (Eastern Daylight Time),646167.099999994,A,home,I,e,194,1,949.8999999910593,645217.200000003,9023,WL,C,5.0
5,9.999000072479248,learn,60000.0,Wed Jul 09 2025 16:57:30 GMT-0400 (Eastern Daylight Time),646600.0,A,homeenter,I,enter,414,1,1382.7999999970198,645217.200000003,9023,WL,C,5.0
5,10.733000040054321,learn,60000.0,Wed Jul 09 2025 16:57:30 GMT-0400 (Eastern Daylight Time),647333.900000006,A,b,I,b,712,1,733.6000000089407,646600.299999997,9023,WL,C,6.0
5,10.91599988937378,learn,60000.0,Wed Jul 09 2025 16:57:30 GMT-0400 (Eastern Daylight Time),647517.099999994,A,bo,I,o,168,1,916.7999999970198,646600.299999997,9023,WL,C,6.0
5,11.782999992370605,learn,60000.0,Wed Jul 09 2025 16:57:30 GMT-0400 (Eastern Daylight Time),648383.799999997,A,boy,I,y,846,1,1783.5,646600.299999997,9023,WL,C,6.0
5,12.615999937057495,learn,60000.0,Wed Jul 09 2025 16:57:30 GMT-0400 (Eastern Daylight Time),649216.700000003,A,boyenter,I,enter,813,1,2616.4000000059605,646600.299999997,9023,WL,C,6.0
5,13.349999904632568,learn,60000.0,Wed Jul 09 2025 16:57:30 GMT-0400 (Eastern Daylight Time),649950.599999994,A,d,I,d,720,1,733.5,649217.099999994,9023,WL,C,7.0
5,13.483000040054321,learn,60000.0,Wed Jul 09 2025 16:57:30 GMT-0400 (Eastern Daylight Time),650083.900000006,A,do,I,o,110,1,866.8000000119209,649217.099999994,9023,WL,C,7.0
5,13.632999897003174,learn,60000.0,Wed Jul 09 2025 16:57:30 GMT-0400 (Eastern Daylight Time),650233.900000006,A,doc,I,c,138,1,1016.8000000119209,649217.099999994,9023,WL,C,7.0
5,13.900000095367432,learn,60000.0,Wed Jul 09 2025 16:57:30 GMT-0400 (Eastern Daylight Time),650500.599999994,A,doct,I,t,236,1,1283.5,649217.099999994,9023,WL,C,7.0
5,14.016000032424927,learn,60000.0,Wed Jul 09 2025 16:57:30 GMT-0400 (Eastern Daylight Time),650617.200000003,A,docto,I,o,104,1,1400.1000000089407,649217.099999994,9023,WL,C,7.0
5,14.349999904632568,learn,60000.0,Wed Jul 09 2025 16:57:30 GMT-0400 (Eastern Daylight Time),650950.599999994,A,doctor,I,r,307,1,1733.5,649217.099999994,9023,WL,C,7.0
5,14.966000080108643,learn,60000.0,Wed Jul 09 2025 16:57:30 GMT-0400 (Eastern Daylight Time),651566.799999997,A,doctorenter,I,enter,599,1,2349.7000000029802,649217.099999994,9023,WL,C,7.0
5,15.41599988937378,learn,60000.0,Wed Jul 09 2025 16:57:30 GMT-0400 (Eastern Daylight Time),652017.200000003,A,c,I,c,434,1,450.20000000298023,651567.0,9023,WL,C,8.0
5,15.532999992370605,learn,60000.0,Wed Jul 09 2025 16:57:30 GMT-0400 (Eastern Daylight Time),652133.900000006,A,ca,I,a,90,1,566.9000000059605,651567.0,9023,WL,C,8.0
5,15.716000080108643,learn,60000.0,Wed Jul 09 2025 16:57:30 GMT-0400 (Eastern Daylight Time),652317.200000003,A,cam,I,m,168,1,750.2000000029802,651567.0,9023,WL,C,8.0
5,16.115999937057495,learn,60000.0,Wed Jul 09 2025 16:57:30 GMT-0400 (Eastern Daylight Time),652717.400000006,A,camp,I,p,385,1,1150.4000000059605,651567.0,9023,WL,C,8.0
5,17.549000024795532,learn,60000.0,Wed Jul 09 2025 16:57:30 GMT-0400 (Eastern Daylight Time),654150.099999994,A,campenter,I,enter,1406,1,2583.0999999940395,651567.0,9023,WL,C,8.0
5,18.33299994468689,learn,60000.0,Wed Jul 09 2025 16:57:30 GMT-0400 (Eastern Daylight Time),654933.799999997,A,f,I,f,763,1,783.3999999910593,654150.400000006,9023,WL,C,9.0
5,18.3989999294281,learn,60000.0,Wed Jul 09 2025 16:57:30 GMT-0400 (Eastern Daylight Time),655000.5,A,fl,I,l,57,1,850.0999999940395,654150.400000006,9023,WL,C,9.0
5,18.56599998474121,learn,60000.0,Wed Jul 09 2025 16:57:30 GMT-0400 (Eastern Daylight Time),655167.299999997,A,fla,I,a,141,1,1016.8999999910593,654150.400000006,9023,WL,C,9.0
5,19.049999952316284,learn,60000.0,Wed Jul 09 2025 16:57:30 GMT-0400 (Eastern Daylight Time),655650.599999994,A,flag,I,g,455,1,1500.199999988079,654150.400000006,9023,WL,C,9.0
5,19.716000080108643,learn,60000.0,Wed Jul 09 2025 16:57:30 GMT-0400 (Eastern Daylight Time),656316.700000003,A,flagenter,I,enter,648,1,2166.2999999970198,654150.400000006,9023,WL,C,9.0
5,20.132999897003174,learn,60000.0,Wed Jul 09 2025 16:57:30 GMT-0400 (Eastern Daylight Time),656733.900000006,A,l,I,l,404,1,416.90000000596046,656317.0,9023,WL,C,10.0
5,20.299000024795532,learn,60000.0,Wed Jul 09 2025 16:57:30 GMT-0400 (Eastern Daylight Time),656900.5,A,le,I,e,142,1,583.5,656317.0,9023,WL,C,10.0
5,20.56599998474121,learn,60000.0,Wed Jul 09 2025 16:57:30 GMT-0400 (Eastern Daylight Time),657167.299999997,A,let,I,t,242,1,850.2999999970198,656317.0,9023,WL,C,10.0
5,20.73300004005432,learn,60000.0,Wed Jul 09 2025 16:57:30 GMT-0400 (Eastern Daylight Time),657334.0,A,lett,I,t,143,1,1017.0,656317.0,9023,WL,C,10.0
5,20.966000080108643,learn,60000.0,Wed Jul 09 2025 16:57:30 GMT-0400 (Eastern Daylight Time),657567.299999997,A,lette,I,e,216,1,1250.2999999970198,656317.0,9023,WL,C,10.0
5,21.09999990463257,learn,60000.0,Wed Jul 09 2025 16:57:30 GMT-0400 (Eastern Daylight Time),657700.599999994,A,letter,I,r,109,1,1383.5999999940395,656317.0,9023,WL,C,10.0
5,23.016000032424927,learn,60000.0,Wed Jul 09 2025 16:57:30 GMT-0400 (Eastern Daylight Time),659616.799999997,A,letterenter,I,enter,1896,1,3299.7999999970198,656317.0,9023,WL,C,10.0
5,24.032999992370605,learn,60000.0,Wed Jul 09 2025 16:57:30 GMT-0400 (Eastern Daylight Time),660633.799999997,A,c,I,c,1008,1,1016.7000000029802,659617.099999994,9023,WL,C,11.0
5,24.183000087738037,learn,60000.0,Wed Jul 09 2025 16:57:30 GMT-0400 (Eastern Daylight Time),660783.900000006,A,co,I,o,133,1,1166.800000011921,659617.099999994,9023,WL,C,11.0
5,24.34999990463257,learn,60000.0,Wed Jul 09 2025 16:57:30 GMT-0400 (Eastern Daylight Time),660950.599999994,A,cor,I,r,140,1,1333.5,659617.099999994,9023,WL,C,11.0
5,24.83299994468689,learn,60000.0,Wed Jul 09 2025 16:57:30 GMT-0400 (Eastern Daylight Time),661433.900000006,A,corn,I,n,472,1,1816.800000011921,659617.099999994,9023,WL,C,11.0
5,25.16599988937378,learn,60000.0,Wed Jul 09 2025 16:57:30 GMT-0400 (Eastern Daylight Time),661766.5,A,cornenter,I,enter,323,1,2149.4000000059605,659617.099999994,9023,WL,C,11.0
5,25.66599988937378,learn,60000.0,Wed Jul 09 2025 16:57:30 GMT-0400 (Eastern Daylight Time),662267.200000003,A,n,I,n,490,1,500.40000000596046,661766.799999997,9023,WL,C,12.0
5,25.81599998474121,learn,60000.0,Wed Jul 09 2025 16:57:30 GMT-0400 (Eastern Daylight Time),662417.200000003,A,na,I,a,129,1,650.4000000059605,661766.799999997,9023,WL,C,12.0
5,25.966000080108643,learn,60000.0,Wed Jul 09 2025 16:57:30 GMT-0400 (Eastern Daylight Time),662567.5,A,nai,I,i,131,1,800.7000000029802,661766.799999997,9023,WL,C,12.0
5,26.183000087738037,learn,60000.0,Wed Jul 09 2025 16:57:30 GMT-0400 (Eastern Daylight Time),662783.900000006,A,nail,I,l,198,1,1017.1000000089407,661766.799999997,9023,WL,C,12.0
5,26.716000080108643,learn,60000.0,Wed Jul 09 2025 16:57:30 GMT-0400 (Eastern Daylight Time),663316.799999997,A,nailenter,I,enter,508,1,1550.0,661766.799999997,9023,WL,C,12.0
5,29.282999992370605,learn,60000.0,Wed Jul 09 2025 16:57:30 GMT-0400 (Eastern Daylight Time),665884.0,A,c,I,c,2556,1,2567.0,663317.0,9023,WL,C,13.0
5,29.365999937057495,learn,60000.0,Wed Jul 09 2025 16:57:30 GMT-0400 (Eastern Daylight Time),665967.200000003,A,ca,I,a,65,1,2650.2000000029802,663317.0,9023,WL,C,13.0
5,29.615999937057495,learn,60000.0,Wed Jul 09 2025 16:57:30 GMT-0400 (Eastern Daylight Time),666217.200000003,A,cat,I,t,238,1,2900.2000000029802,663317.0,9023,WL,C,13.0
5,29.766000032424927,learn,60000.0,Wed Jul 09 2025 16:57:30 GMT-0400 (Eastern Daylight Time),666367.200000003,A,catt,I,t,133,1,3050.2000000029802,663317.0,9023,WL,C,13.0
5,29.865999937057495,learn,60000.0,Wed Jul 09 2025 16:57:30 GMT-0400 (Eastern Daylight Time),666467.099999994,A,cattl,I,l,70,1,3150.0999999940395,663317.0,9023,WL,C,13.0
5,29.98300004005432,learn,60000.0,Wed Jul 09 2025 16:57:30 GMT-0400 (Eastern Daylight Time),666583.700000003,A,cattle,I,e,104,1,3266.7000000029802,663317.0,9023,WL,C,13.0
5,30.365999937057495,learn,60000.0,Wed Jul 09 2025 16:57:30 GMT-0400 (Eastern Daylight Time),666966.700000003,A,cattleenter,I,enter,374,1,3649.7000000029802,663317.0,9023,WL,C,13.0
5,31.0,learn,60000.0,Wed Jul 09 2025 16:57:30 GMT-0400 (Eastern Daylight Time),667600.599999994,A,s,I,s,618,1,633.6999999880791,666966.900000006,9023,WL,C,14.0
5,31.183000087738037,learn,60000.0,Wed Jul 09 2025 16:57:30 GMT-0400 (Eastern Daylight Time),667783.700000003,A,sh,I,h,174,1,816.7999999970198,666966.900000006,9023,WL,C,14.0
5,31.249000072479248,learn,60000.0,Wed Jul 09 2025 16:57:30 GMT-0400 (Eastern Daylight Time),667850.299999997,A,sho,I,o,52,1,883.3999999910593,666966.900000006,9023,WL,C,14.0
5,31.549999952316284,learn,60000.0,Wed Jul 09 2025 16:57:30 GMT-0400 (Eastern Daylight Time),668150.599999994,A,shor,I,r,271,1,1183.699999988079,666966.900000006,9023,WL,C,14.0
5,31.683000087738037,learn,60000.0,Wed Jul 09 2025 16:57:30 GMT-0400 (Eastern Daylight Time),668284.0,A,shore,I,e,119,1,1317.0999999940395,666966.900000006,9023,WL,C,14.0
5,32.38199996948242,learn,60000.0,Wed Jul 09 2025 16:57:30 GMT-0400 (Eastern Daylight Time),668983.299999997,A,shoreenter,I,enter,687,1,2016.3999999910593,666966.900000006,9023,WL,C,14.0
5,33.26600003242493,learn,60000.0,Wed Jul 09 2025 16:57:30 GMT-0400 (Eastern Daylight Time),669867.299999997,A,b,I,b,874,1,883.5999999940395,668983.700000003,9023,WL,C,15.0
5,33.365999937057495,learn,60000.0,Wed Jul 09 2025 16:57:30 GMT-0400 (Eastern Daylight Time),669967.0,A,bo,I,o,80,1,983.2999999970198,668983.700000003,9023,WL,C,15.0
5,33.65000009536743,learn,60000.0,Wed Jul 09 2025 16:57:30 GMT-0400 (Eastern Daylight Time),670250.5,A,bod,I,d,267,1,1266.7999999970198,668983.700000003,9023,WL,C,15.0
5,33.83299994468689,learn,60000.0,Wed Jul 09 2025 16:57:30 GMT-0400 (Eastern Daylight Time),670433.799999997,A,body,I,y,162,1,1450.0999999940395,668983.700000003,9023,WL,C,15.0
5,34.3989999294281,learn,60000.0,Wed Jul 09 2025 16:57:30 GMT-0400 (Eastern Daylight Time),671000.0,A,bodyenter,I,enter,548,1,2016.2999999970198,668983.700000003,9023,WL,C,15.0
6,3.4010000228881836,distr,56598.99997711182,Wed Jul 09 2025 16:57:30 GMT-0400 (Eastern Daylight Time),748967.599999994,B,d,I,d,3391,1,3400.0,745567.599999994,9023,WL,C,1.0
6,3.566999912261963,distr,56433.00008773804,Wed Jul 09 2025 16:57:30 GMT-0400 (Eastern Daylight Time),749134.0,B,do,I,o,142,1,3566.4000000059605,745567.599999994,9023,WL,C,1.0
6,3.8329999446868896,distr,56167.00005531311,Wed Jul 09 2025 16:57:30 GMT-0400 (Eastern Daylight Time),749400.299999997,B,doa,I,a,257,1,3832.7000000029802,745567.599999994,9023,WL,C,1.0
6,4.184000015258789,distr,55815.99998474121,Wed Jul 09 2025 16:57:30 GMT-0400 (Eastern Daylight Time),749750.599999994,B,doal,I,l,317,1,4183.0,745567.599999994,9023,WL,C,1.0
6,4.599999904632568,distr,55400.00009536743,Wed Jul 09 2025 16:57:30 GMT-0400 (Eastern Daylight Time),750167.400000006,B,doa,I,backspace,407,1,4599.800000011921,745567.599999994,9023,WL,C,1.0
6,4.75,distr,55250.0,Wed Jul 09 2025 16:57:30 GMT-0400 (Eastern Daylight Time),750317.299999997,B,do,I,backspace,134,1,4749.70000000298,745567.599999994,9023,WL,C,1.0
6,5.432999849319458,distr,54567.00015068054,Wed Jul 09 2025 16:57:30 GMT-0400 (Eastern Daylight Time),751000.299999997,B,dol,I,l,664,1,5432.70000000298,745567.599999994,9023,WL,C,1.0
6,5.599999904632568,distr,54400.00009536743,Wed Jul 09 2025 16:57:30 GMT-0400 (Eastern Daylight Time),751167.299999997,B,doll,I,l,146,1,5599.70000000298,745567.599999994,9023,WL,C,1.0
6,5.75,distr,54250.0,Wed Jul 09 2025 16:57:30 GMT-0400 (Eastern Daylight Time),751317.200000003,B,dolla,I,a,126,1,5749.600000008941,745567.599999994,9023,WL,C,1.0
6,5.9670000076293945,distr,54032.999992370605,Wed Jul 09 2025 16:57:30 GMT-0400 (Eastern Daylight Time),751534.0,B,dollar,I,r,198,1,5966.4000000059605,745567.599999994,9023,WL,C,1.0
6,6.732999801635742,distr,53267.00019836426,Wed Jul 09 2025 16:57:30 GMT-0400 (Eastern Daylight Time),752300.099999994,B,dollarenter,I,enter,746,1,6732.5,745567.599999994,9023,WL,C,1.0
6,7.599999904632568,distr,52400.00009536743,Wed Jul 09 2025 16:57:30 GMT-0400 (Eastern Daylight Time),753167.299999997,B,v,I,v,853,1,866.7999999970198,752300.5,9023,WL,C,2.0
6,7.684000015258789,distr,52315.99998474121,Wed Jul 09 2025 16:57:30 GMT-0400 (Eastern Daylight Time),753250.700000003,B,va,I,a,63,1,950.2000000029802,752300.5,9023,WL,C,2.0
6,7.916999816894531,distr,52083.00018310547,Wed Jul 09 2025 16:57:30 GMT-0400 (Eastern Daylight Time),753484.0,B,val,I,l,217,1,1183.5,752300.5,9023,WL,C,2.0
6,8.083999872207642,distr,51916.00012779236,Wed Jul 09 2025 16:57:30 GMT-0400 (Eastern Daylight Time),753650.700000003,B,vall,I,l,146,1,1350.2000000029802,752300.5,9023,WL,C,2.0
6,8.232999801635742,distr,51767.00019836426,Wed Jul 09 2025 16:57:30 GMT-0400 (Eastern Daylight Time),753800.5,B,valle,I,e,139,1,1500.0,752300.5,9023,WL,C,2.0
6,8.599999904632568,distr,51400.00009536743,Wed Jul 09 2025 16:57:30 GMT-0400 (Eastern Daylight Time),754167.400000006,B,valley,I,y,332,1,1866.9000000059605,752300.5,9023,WL,C,2.0
6,9.382999897003174,distr,50617.000102996826,Wed Jul 09 2025 16:57:30 GMT-0400 (Eastern Daylight Time),754950.200000003,B,valleyenter,I,enter,757,1,2649.7000000029802,752300.5,9023,WL,C,2.0
6,9.967000007629395,distr,50032.999992370605,Wed Jul 09 2025 16:57:30 GMT-0400 (Eastern Daylight Time),755534.0,B,b,I,b,571,1,583.5,754950.5,9023,WL,C,3.0
6,11.016999959945679,distr,48983.00004005432,Wed Jul 09 2025 16:57:30 GMT-0400 (Eastern Daylight Time),756584.0,B,bu,I,u,1040,1,1633.5,754950.5,9023,WL,C,3.0
6,11.366999864578247,distr,48633.00013542175,Wed Jul 09 2025 16:57:30 GMT-0400 (Eastern Daylight Time),756933.900000006,B,but,I,t,327,1,1983.4000000059605,754950.5,9023,WL,C,3.0
6,11.516999959945679,distr,48483.00004005432,Wed Jul 09 2025 16:57:30 GMT-0400 (Eastern Daylight Time),757084.099999994,B,butt,I,t,137,1,2133.5999999940395,754950.5,9023,WL,C,3.0
6,11.783999919891357,distr,48216.00008010864,Wed Jul 09 2025 16:57:30 GMT-0400 (Eastern Daylight Time),757350.700000003,B,butte,I,e,233,1,2400.2000000029802,754950.5,9023,WL,C,3.0
6,11.899999856948853,distr,48100.00014305115,Wed Jul 09 2025 16:57:30 GMT-0400 (Eastern Daylight Time),757467.200000003,B,butter,I,r,94,1,2516.7000000029802,754950.5,9023,WL,C,3.0
6,12.382999897003174,distr,47617.000102996826,Wed Jul 09 2025 16:57:30 GMT-0400 (Eastern Daylight Time),757950.099999994,B,butterenter,I,enter,458,1,2999.5999999940395,754950.5,9023,WL,C,3.0
6,12.75,distr,47250.0,Wed Jul 09 2025 16:57:30 GMT-0400 (Eastern Daylight Time),758317.299999997,B,h,I,h,355,1,366.8999999910593,757950.400000006,9023,WL,C,4.0
6,12.866999864578247,distr,47133.00013542175,Wed Jul 09 2025 16:57:30 GMT-0400 (Eastern Daylight Time),758433.900000006,B,ha,I,a,95,1,483.5,757950.400000006,9023,WL,C,4.0
6,13.099999904632568,distr,46900.00009536743,Wed Jul 09 2025 16:57:30 GMT-0400 (Eastern Daylight Time),758667.299999997,B,hal,I,l,220,1,716.8999999910593,757950.400000006,9023,WL,C,4.0
6,13.283999919891357,distr,46716.00008010864,Wed Jul 09 2025 16:57:30 GMT-0400 (Eastern Daylight Time),758850.700000003,B,hall,I,l,161,1,900.2999999970198,757950.400000006,9023,WL,C,4.0
6,14.283999919891357,distr,45716.00008010864,Wed Jul 09 2025 16:57:30 GMT-0400 (Eastern Daylight Time),759850.700000003,B,hallf,I,f,987,1,1900.2999999970198,757950.400000006,9023,WL,C,4.0
6,14.416999816894531,distr,45583.00018310547,Wed Jul 09 2025 16:57:30 GMT-0400 (Eastern Daylight Time),759983.5,B,hallfo,I,o,114,1,2033.0999999940395,757950.400000006,9023,WL,C,4.0
6,14.60099983215332,distr,45399.00016784668,Wed Jul 09 2025 16:57:30 GMT-0400 (Eastern Daylight Time),760167.599999994,B,hallfor,I,r,176,1,2217.199999988079,757950.400000006,9023,WL,C,4.0
6,14.75,distr,45250.0,Wed Jul 09 2025 16:57:30 GMT-0400 (Eastern Daylight Time),760317.099999994,B,hallfore,I,e,135,1,2366.699999988079,757950.400000006,9023,WL,C,4.0
6,15.066999912261963,distr,44933.00008773804,Wed Jul 09 2025 16:57:30 GMT-0400 (Eastern Daylight Time),760633.900000006,B,hallfores,I,s,305,1,2683.5,757950.400000006,9023,WL,C,4.0
6,15.666999816894531,distr,44333.00018310547,Wed Jul 09 2025 16:57:30 GMT-0400 (Eastern Daylight Time),761234.0,B,hallfore,I,backspace,577,1,3283.5999999940395,757950.400000006,9023,WL,C,4.0
6,15.866999864578247,distr,44133.00013542175,Wed Jul 09 2025 16:57:30 GMT-0400 (Eastern Daylight Time),761434.099999994,B,hallfor,I,backspace,188,1,3483.699999988079,757950.400000006,9023,WL,C,4.0
6,16.066999912261963,distr,43933.00008773804,Wed Jul 09 2025 16:57:30 GMT-0400 (Eastern Daylight Time),761634.0,B,hallfo,I,backspace,171,1,3683.5999999940395,757950.400000006,9023,WL,C,4.0
6,16.25,distr,43750.0,Wed Jul 09 2025 16:57:30 GMT-0400 (Eastern Daylight Time),761817.200000003,B,hallf,I,backspace,171,1,3866.7999999970198,757950.400000006,9023,WL,C,4.0
6,16.432999849319458,distr,43567.00015068054,Wed Jul 09 2025 16:57:30 GMT-0400 (Eastern Daylight Time),762000.099999994,B,hall,I,backspace,163,1,4049.699999988079,757950.400000006,9023,WL,C,4.0
6,16.882999897003174,distr,43117.000102996826,Wed Jul 09 2025 16:57:30 GMT-0400 (Eastern Daylight Time),762450.200000003,B,hallenter,I,enter,432,1,4499.79999999702,757950.400000006,9023,WL,C,4.0
6,17.733999967575073,distr,42266.00003242493,Wed Jul 09 2025 16:57:30 GMT-0400 (Eastern Daylight Time),763300.599999994,B,o,I,o,831,1,850.0999999940395,762450.5,9023,WL,C,5.0
6,18.25,distr,41750.0,Wed Jul 09 2025 16:57:30 GMT-0400 (Eastern Daylight Time),763817.200000003,B,,I,backspace,505,1,1366.7000000029802,762450.5,9023,WL,C,5.0
6,18.717000007629395,distr,41282.999992370605,Wed Jul 09 2025 16:57:30 GMT-0400 (Eastern Daylight Time),764283.599999994,B,f,I,f,452,1,1833.0999999940395,762450.5,9023,WL,C,5.0
6,19.66699981689453,distr,40333.00018310547,Wed Jul 09 2025 16:57:30 GMT-0400 (Eastern Daylight Time),765234.0,B,fo,I,o,933,1,2783.5,762450.5,9023,WL,C,5.0
6,19.83299994468689,distr,40167.00005531311,Wed Jul 09 2025 16:57:30 GMT-0400 (Eastern Daylight Time),765400.0,B,for,I,r,155,1,2949.5,762450.5,9023,WL,C,5.0
6,20.01699995994568,distr,39983.00004005432,Wed Jul 09 2025 16:57:30 GMT-0400 (Eastern Daylight Time),765583.900000006,B,fore,I,e,168,1,3133.4000000059605,762450.5,9023,WL,C,5.0
6,20.283999919891357,distr,39716.00008010864,Wed Jul 09 2025 16:57:30 GMT-0400 (Eastern Daylight Time),765850.700000003,B,fores,I,s,255,1,3400.2000000029802,762450.5,9023,WL,C,5.0
6,20.482999801635742,distr,39517.00019836426,Wed Jul 09 2025 16:57:30 GMT-0400 (Eastern Daylight Time),766050.099999994,B,forest,I,t,179,1,3599.5999999940395,762450.5,9023,WL,C,5.0
6,21.765999794006348,distr,38234.00020599365,Wed Jul 09 2025 16:57:30 GMT-0400 (Eastern Daylight Time),767333.5,B,forestenter,I,enter,1261,1,4883.0,762450.5,9023,WL,C,5.0
6,22.782999992370605,distr,37217.000007629395,Wed Jul 09 2025 16:57:30 GMT-0400 (Eastern Daylight Time),768350.200000003,B,m,I,m,1002,1,1016.4000000059605,767333.799999997,9023,WL,C,6.0
6,22.983999967575073,distr,37016.00003242493,Wed Jul 09 2025 16:57:30 GMT-0400 (Eastern Daylight Time),768550.599999994,B,mo,I,o,179,1,1216.7999999970198,767333.799999997,9023,WL,C,6.0
6,23.283999919891357,distr,36716.00008010864,Wed Jul 09 2025 16:57:30 GMT-0400 (Eastern Daylight Time),768850.700000003,B,mot,I,t,279,1,1516.9000000059605,767333.799999997,9023,WL,C,6.0
6,23.399999856948853,distr,36600.00014305115,Wed Jul 09 2025 16:57:30 GMT-0400 (Eastern Daylight Time),768967.5,B,moth,I,h,106,1,1633.7000000029802,767333.799999997,9023,WL,C,6.0
6,23.58399987220764,distr,36416.00012779236,Wed Jul 09 2025 16:57:30 GMT-0400 (Eastern Daylight Time),769150.599999994,B,mothe,I,e,166,1,1816.7999999970198,767333.799999997,9023,WL,C,6.0
6,23.699999809265137,distr,36300.00019073486,Wed Jul 09 2025 16:57:30 GMT-0400 (Eastern Daylight Time),769267.299999997,B,mother,I,r,93,1,1933.5,767333.799999997,9023,WL,C,6.0
6,24.265999794006348,distr,35734.00020599365,Wed Jul 09 2025 16:57:30 GMT-0400 (Eastern Daylight Time),769833.400000006,B,motherenter,I,enter,554,1,2499.6000000089407,767333.799999997,9023,WL,C,6.0
6,24.866999864578247,distr,35133.00013542175,Wed Jul 09 2025 16:57:30 GMT-0400 (Eastern Daylight Time),770434.099999994,B,c,I,c,583,1,600.3999999910593,769833.700000003,9023,WL,C,7.0
6,25.032999992370605,distr,34967.000007629395,Wed Jul 09 2025 16:57:30 GMT-0400 (Eastern Daylight Time),770600.5,B,ch,I,h,155,1,766.7999999970198,769833.700000003,9023,WL,C,7.0
6,25.58399987220764,distr,34416.00012779236,Wed Jul 09 2025 16:57:30 GMT-0400 (Eastern Daylight Time),771150.700000003,B,chr,I,r,524,1,1317.0,769833.700000003,9023,WL,C,7.0
6,26.033999919891357,distr,33966.00008010864,Wed Jul 09 2025 16:57:30 GMT-0400 (Eastern Daylight Time),771600.599999994,B,chri,I,i,431,1,1766.8999999910593,769833.700000003,9023,WL,C,7.0
6,26.299999952316284,distr,33700.000047683716,Wed Jul 09 2025 16:57:30 GMT-0400 (Eastern Daylight Time),771867.299999997,B,chris,I,s,253,1,2033.5999999940395,769833.700000003,9023,WL,C,7.0
6,26.566999912261963,distr,33433.00008773804,Wed Jul 09 2025 16:57:30 GMT-0400 (Eastern Daylight Time),772133.799999997,B,christ,I,t,240,1,2300.0999999940395,769833.700000003,9023,WL,C,7.0
6,26.949999809265137,distr,33050.00019073486,Wed Jul 09 2025 16:57:30 GMT-0400 (Eastern Daylight Time),772517.400000006,B,christm,I,m,360,1,2683.7000000029802,769833.700000003,9023,WL,C,7.0
6,27.08399987220764,distr,32916.00012779236,Wed Jul 09 2025 16:57:30 GMT-0400 (Eastern Daylight Time),772650.599999994,B,christma,I,a,120,1,2816.8999999910593,769833.700000003,9023,WL,C,7.0
6,27.316999912261963,distr,32683.000087738037,Wed Jul 09 2025 16:57:30 GMT-0400 (Eastern Daylight Time),772884.200000003,B,christmas,I,s,212,1,3050.5,769833.700000003,9023,WL,C,7.0
6,28.33299994468689,distr,31667.00005531311,Wed Jul 09 2025 16:57:30 GMT-0400 (Eastern Daylight Time),773900.099999994,B,christmasenter,I,enter,999,1,4066.3999999910593,769833.700000003,9023,WL,C,7.0
6,30.299999952316284,distr,29700.000047683716,Wed Jul 09 2025 16:57:30 GMT-0400 (Eastern Daylight Time),775867.400000006,B,m,I,m,1956,1,1966.800000011921,773900.599999994,9023,WL,C,8.0
6,30.5,distr,29500.0,Wed Jul 09 2025 16:57:30 GMT-0400 (Eastern Daylight Time),776067.5,B,mo,I,o,178,1,2166.9000000059605,773900.599999994,9023,WL,C,8.0
6,30.76699995994568,distr,29233.00004005432,Wed Jul 09 2025 16:57:30 GMT-0400 (Eastern Daylight Time),776334.0,B,mon,I,n,250,1,2433.4000000059605,773900.599999994,9023,WL,C,8.0
6,31.217000007629395,distr,28782.999992370605,Wed Jul 09 2025 16:57:30 GMT-0400 (Eastern Daylight Time),776784.099999994,B,mone,I,e,432,1,2883.5,773900.599999994,9023,WL,C,8.0
6,31.34999990463257,distr,28650.00009536743,Wed Jul 09 2025 16:57:30 GMT-0400 (Eastern Daylight Time),776917.299999997,B,money,I,y,109,1,3016.7000000029802,773900.599999994,9023,WL,C,8.0
6,32.09999990463257,distr,27900.00009536743,Wed Jul 09 2025 16:57:30 GMT-0400 (Eastern Daylight Time),777666.900000006,B,moneyenter,I,enter,720,1,3766.300000011921,773900.599999994,9023,WL,C,8.0
6,60.01699995994568,distr,-16.99995994567871,Wed Jul 09 2025 16:57:30 GMT-0400 (Eastern Daylight Time),805584.099999994,B,None,I,None,27910,1,27916.89999999106,777667.200000003,9023,WL,C,9.0
7,2.117000102996826,immed,57882.999897003174,Wed Jul 09 2025 16:57:30 GMT-0400 (Eastern Daylight Time),818784.099999994,A,t,I,t,2100,1,2116.3999999910593,816667.700000003,9023,WL,C,1.0
7,2.316999912261963,immed,57683.00008773804,Wed Jul 09 2025 16:57:30 GMT-0400 (Eastern Daylight Time),818984.0,A,to,I,o,187,1,2316.2999999970198,816667.700000003,9023,WL,C,1.0
7,2.4670000076293945,immed,57532.999992370605,Wed Jul 09 2025 16:57:30 GMT-0400 (Eastern Daylight Time),819134.0,A,tow,I,w,126,1,2466.2999999970198,816667.700000003,9023,WL,C,1.0
7,2.5999999046325684,immed,57400.00009536743,Wed Jul 09 2025 16:57:30 GMT-0400 (Eastern Daylight Time),819267.400000006,A,towe,I,e,112,1,2599.7000000029802,816667.700000003,9023,WL,C,1.0
7,2.7009999752044678,immed,57299.00002479553,Wed Jul 09 2025 16:57:30 GMT-0400 (Eastern Daylight Time),819367.5,A,tower,I,r,84,1,2699.7999999970198,816667.700000003,9023,WL,C,1.0
7,3.382999897003174,immed,56617.000102996826,Wed Jul 09 2025 16:57:30 GMT-0400 (Eastern Daylight Time),820050.200000003,A,towerenter,I,enter,660,1,3382.5,816667.700000003,9023,WL,C,1.0
7,4.2170000076293945,immed,55782.999992370605,Wed Jul 09 2025 16:57:30 GMT-0400 (Eastern Daylight Time),820884.0,A,w,I,w,814,1,833.2000000029802,820050.799999997,9023,WL,C,2.0
7,4.884000062942505,immed,55115.999937057495,Wed Jul 09 2025 16:57:30 GMT-0400 (Eastern Daylight Time),821550.700000003,A,wh,I,h,650,1,1499.9000000059605,820050.799999997,9023,WL,C,2.0
7,5.084000110626221,immed,54915.99988937378,Wed Jul 09 2025 16:57:30 GMT-0400 (Eastern Daylight Time),821750.700000003,A,whe,I,e,176,1,1699.9000000059605,820050.799999997,9023,WL,C,2.0
7,5.150000095367432,immed,54849.99990463257,Wed Jul 09 2025 16:57:30 GMT-0400 (Eastern Daylight Time),821817.299999997,A,whea,I,a,54,1,1766.5,820050.799999997,9023,WL,C,2.0
7,5.433000087738037,immed,54566.99991226196,Wed Jul 09 2025 16:57:30 GMT-0400 (Eastern Daylight Time),822100.200000003,A,wheat,I,t,252,1,2049.4000000059605,820050.799999997,9023,WL,C,2.0
7,6.017999887466431,immed,53982.00011253357,Wed Jul 09 2025 16:57:30 GMT-0400 (Eastern Daylight Time),822684.599999994,A,wheatenter,I,enter,572,1,2633.7999999970198,820050.799999997,9023,WL,C,2.0
7,8.066999912261963,immed,51933.00008773804,Wed Jul 09 2025 16:57:30 GMT-0400 (Eastern Daylight Time),824734.099999994,A,q,I,q,2035,1,2049.199999988079,822684.900000006,9023,WL,C,3.0
7,8.367000102996826,immed,51632.999897003174,Wed Jul 09 2025 16:57:30 GMT-0400 (Eastern Daylight Time),825034.0,A,qu,I,u,288,1,2349.0999999940395,822684.900000006,9023,WL,C,3.0
7,8.684000015258789,immed,51315.99998474121,Wed Jul 09 2025 16:57:30 GMT-0400 (Eastern Daylight Time),825350.700000003,A,que,I,e,289,1,2665.7999999970198,822684.900000006,9023,WL,C,3.0
7,8.849999904632568,immed,51150.00009536743,Wed Jul 09 2025 16:57:30 GMT-0400 (Eastern Daylight Time),825517.299999997,A,quee,I,e,149,1,2832.3999999910593,822684.900000006,9023,WL,C,3.0
7,9.117000102996826,immed,50882.999897003174,Wed Jul 09 2025 16:57:30 GMT-0400 (Eastern Daylight Time),825783.700000003,A,queen,I,n,253,1,3098.7999999970198,822684.900000006,9023,WL,C,3.0
7,9.782999992370605,immed,50217.000007629395,Wed Jul 09 2025 16:57:30 GMT-0400 (Eastern Daylight Time),826450.200000003,A,queenenter,I,enter,647,1,3765.2999999970198,822684.900000006,9023,WL,C,3.0
7,10.233999967575073,immed,49766.00003242493,Wed Jul 09 2025 16:57:30 GMT-0400 (Eastern Daylight Time),826900.599999994,A,s,I,s,431,1,450.09999999403954,826450.5,9023,WL,C,4.0
7,10.467000007629395,immed,49532.999992370605,Wed Jul 09 2025 16:57:30 GMT-0400 (Eastern Daylight Time),827134.0,A,su,I,u,218,1,683.5,826450.5,9023,WL,C,4.0
7,10.75,immed,49250.0,Wed Jul 09 2025 16:57:30 GMT-0400 (Eastern Daylight Time),827417.400000006,A,sur,I,r,270,1,966.9000000059605,826450.5,9023,WL,C,4.0
7,11.299999952316284,immed,48700.000047683716,Wed Jul 09 2025 16:57:30 GMT-0400 (Eastern Daylight Time),827967.200000003,A,su,I,backspace,533,1,1516.7000000029802,826450.5,9023,WL,C,4.0
7,11.599999904632568,immed,48400.00009536743,Wed Jul 09 2025 16:57:30 GMT-0400 (Eastern Daylight Time),828267.400000006,A,sug,I,g,287,1,1816.9000000059605,826450.5,9023,WL,C,4.0
7,11.799999952316284,immed,48200.000047683716,Wed Jul 09 2025 16:57:30 GMT-0400 (Eastern Daylight Time),828467.299999997,A,suga,I,a,179,1,2016.7999999970198,826450.5,9023,WL,C,4.0
7,11.950000047683716,immed,48049.999952316284,Wed Jul 09 2025 16:57:30 GMT-0400 (Eastern Daylight Time),828617.299999997,A,sugar,I,r,124,1,2166.7999999970198,826450.5,9023,WL,C,4.0
7,12.58299994468689,immed,47417.00005531311,Wed Jul 09 2025 16:57:30 GMT-0400 (Eastern Daylight Time),829250.200000003,A,sugarenter,I,enter,604,1,2799.7000000029802,826450.5,9023,WL,C,4.0
7,13.0,immed,47000.0,Wed Jul 09 2025 16:57:30 GMT-0400 (Eastern Daylight Time),829667.400000006,A,h,I,h,398,1,416.80000001192093,829250.599999994,9023,WL,C,5.0
7,13.099999904632568,immed,46900.00009536743,Wed Jul 09 2025 16:57:30 GMT-0400 (Eastern Daylight Time),829767.200000003,A,ho,I,o,75,1,516.6000000089407,829250.599999994,9023,WL,C,5.0
7,13.283999919891357,immed,46716.00008010864,Wed Jul 09 2025 16:57:30 GMT-0400 (Eastern Daylight Time),829950.700000003,A,hom,I,m,159,1,700.1000000089407,829250.599999994,9023,WL,C,5.0
7,13.549999952316284,immed,46450.000047683716,Wed Jul 09 2025 16:57:30 GMT-0400 (Eastern Daylight Time),830217.299999997,A,home,I,e,247,1,966.7000000029802,829250.599999994,9023,WL,C,5.0
7,14.683000087738037,immed,45316.99991226196,Wed Jul 09 2025 16:57:30 GMT-0400 (Eastern Daylight Time),831350.200000003,A,homeenter,I,enter,1105,1,2099.6000000089407,829250.599999994,9023,WL,C,5.0
7,15.516999959945679,immed,44483.00004005432,Wed Jul 09 2025 16:57:30 GMT-0400 (Eastern Daylight Time),832183.900000006,A,b,I,b,826,1,833.4000000059605,831350.5,9023,WL,C,6.0
7,15.783999919891357,immed,44216.00008010864,Wed Jul 09 2025 16:57:30 GMT-0400 (Eastern Daylight Time),832450.700000003,A,bo,I,o,245,1,1100.2000000029802,831350.5,9023,WL,C,6.0
7,16.1010000705719,immed,43898.9999294281,Wed Jul 09 2025 16:57:30 GMT-0400 (Eastern Daylight Time),832767.700000003,A,boy,I,y,299,1,1417.2000000029802,831350.5,9023,WL,C,6.0
7,16.683000087738037,immed,43316.99991226196,Wed Jul 09 2025 16:57:30 GMT-0400 (Eastern Daylight Time),833350.200000003,A,boyenter,I,enter,561,1,1999.7000000029802,831350.5,9023,WL,C,6.0
7,17.41700005531311,immed,42582.99994468689,Wed Jul 09 2025 16:57:30 GMT-0400 (Eastern Daylight Time),834084.0,A,d,I,d,715,1,733.5,833350.5,9023,WL,C,7.0
7,17.51699995994568,immed,42483.00004005432,Wed Jul 09 2025 16:57:30 GMT-0400 (Eastern Daylight Time),834183.900000006,A,do,I,o,90,1,833.4000000059605,833350.5,9023,WL,C,7.0
7,17.68400001525879,immed,42315.99998474121,Wed Jul 09 2025 16:57:30 GMT-0400 (Eastern Daylight Time),834350.799999997,A,doc,I,c,143,1,1000.2999999970198,833350.5,9023,WL,C,7.0
7,17.967000007629395,immed,42032.999992370605,Wed Jul 09 2025 16:57:30 GMT-0400 (Eastern Daylight Time),834633.900000006,A,doct,I,t,263,1,1283.4000000059605,833350.5,9023,WL,C,7.0
7,18.08400011062622,immed,41915.99988937378,Wed Jul 09 2025 16:57:30 GMT-0400 (Eastern Daylight Time),834750.5,A,docto,I,o,101,1,1400.0,833350.5,9023,WL,C,7.0
7,18.299999952316284,immed,41700.000047683716,Wed Jul 09 2025 16:57:30 GMT-0400 (Eastern Daylight Time),834967.299999997,A,doctor,I,r,190,1,1616.7999999970198,833350.5,9023,WL,C,7.0
7,19.16700005531311,immed,40832.99994468689,Wed Jul 09 2025 16:57:30 GMT-0400 (Eastern Daylight Time),835833.599999994,A,doctorenter,I,enter,854,1,2483.0999999940395,833350.5,9023,WL,C,7.0
7,19.84999990463257,immed,40150.00009536743,Wed Jul 09 2025 16:57:30 GMT-0400 (Eastern Daylight Time),836517.400000006,A,c,I,c,663,1,683.5,835833.900000006,9023,WL,C,8.0
7,19.91599988937378,immed,40084.00011062622,Wed Jul 09 2025 16:57:30 GMT-0400 (Eastern Daylight Time),836583.400000006,A,ca,I,a,55,1,749.5,835833.900000006,9023,WL,C,8.0
7,20.15000009536743,immed,39849.99990463257,Wed Jul 09 2025 16:57:30 GMT-0400 (Eastern Daylight Time),836817.400000006,A,cam,I,m,212,1,983.5,835833.900000006,9023,WL,C,8.0
7,20.450000047683716,immed,39549.999952316284,Wed Jul 09 2025 16:57:30 GMT-0400 (Eastern Daylight Time),837117.5,A,camp,I,p,278,1,1283.5999999940395,835833.900000006,9023,WL,C,8.0
7,20.83299994468689,immed,39167.00005531311,Wed Jul 09 2025 16:57:30 GMT-0400 (Eastern Daylight Time),837500.200000003,A,campenter,I,enter,366,1,1666.2999999970198,835833.900000006,9023,WL,C,8.0
7,21.967000007629395,immed,38032.999992370605,Wed Jul 09 2025 16:57:30 GMT-0400 (Eastern Daylight Time),838634.0,A,f,I,f,1125,1,1133.5,837500.5,9023,WL,C,9.0
7,22.066999912261963,immed,37933.00008773804,Wed Jul 09 2025 16:57:30 GMT-0400 (Eastern Daylight Time),838734.099999994,A,fl,I,l,81,1,1233.5999999940395,837500.5,9023,WL,C,9.0
7,22.183000087738037,immed,37816.99991226196,Wed Jul 09 2025 16:57:30 GMT-0400 (Eastern Daylight Time),838850.200000003,A,fla,I,a,95,1,1349.7000000029802,837500.5,9023,WL,C,9.0
7,22.617000102996826,immed,37382.999897003174,Wed Jul 09 2025 16:57:30 GMT-0400 (Eastern Daylight Time),839284.099999994,A,flag,I,g,414,1,1783.5999999940395,837500.5,9023,WL,C,9.0
7,24.65000009536743,immed,35349.99990463257,Wed Jul 09 2025 16:57:30 GMT-0400 (Eastern Daylight Time),841316.799999997,A,flagenter,I,enter,2008,1,3816.2999999970198,837500.5,9023,WL,C,9.0
