block_c,block_dur,condition,countdown,datetime,endtime,list,multichar_response,project,response,response_time,session_number,start_end,starttime,subject_id,task,task_vers,trial
,,,,Tue Jan 13 2026 15:32:34 GMT-0500 (Eastern Standard Time),,,,I,space,1658,3,,,9023,WL,B,
prac,,0,,Tue Jan 13 2026 15:32:34 GMT-0500 (Eastern Standard Time),,NA,b,I,b,4358,3,,,9023,WL,B,1.0
prac,,0,,Tue Jan 13 2026 15:32:34 GMT-0500 (Eastern Standard Time),,NA,bo,I,o,347,3,,,9023,WL,B,1.0
prac,,0,,Tue Jan 13 2026 15:32:34 GMT-0500 (Eastern Standard Time),,NA,boo,I,o,132,3,,,9023,WL,B,1.0
prac,,0,,Tue Jan 13 2026 15:32:34 GMT-0500 (Eastern Standard Time),,NA,boos,I,s,806,3,,,9023,WL,B,1.0
prac,,0,,Tue Jan 13 2026 15:32:34 GMT-0500 (Eastern Standard Time),,NA,boost,I,t,295,3,,,9023,WL,B,1.0
prac,,0,,Tue Jan 13 2026 15:32:34 GMT-0500 (Eastern Standard Time),,NA,boostenter,I,enter,729,3,,,9023,WL,B,1.0
1,4.816999912261963,learn,55183.00008773804,Tue Jan 13 2026 15:32:34 GMT-0500 (Eastern Standard Time),505430.39999961853,A,s,I,s,4804,3,4815.800000190735,500614.5999994278,9023,WL,B,1.0
1,5.083999872207642,learn,54916.00012779236,Tue Jan 13 2026 15:32:34 GMT-0500 (Eastern Standard Time),505697.0999994278,A,st,I,t,244,3,5082.5,500614.5999994278,9023,WL,B,1.0
1,5.283999919891357,learn,54716.00008010864,Tue Jan 13 2026 15:32:34 GMT-0500 (Eastern Standard Time),505896.89999961853,A,str,I,r,186,3,5282.300000190735,500614.5999994278,9023,WL,B,1.0
1,5.566999912261963,learn,54433.00008773804,Tue Jan 13 2026 15:32:34 GMT-0500 (Eastern Standard Time),506180.29999923706,A,stre,I,e,257,3,5565.699999809265,500614.5999994278,9023,WL,B,1.0
1,5.7170000076293945,learn,54282.999992370605,Tue Jan 13 2026 15:32:34 GMT-0500 (Eastern Standard Time),506330.39999961853,A,stree,I,e,134,3,5715.800000190735,500614.5999994278,9023,WL,B,1.0
1,5.849999904632568,learn,54150.00009536743,Tue Jan 13 2026 15:32:34 GMT-0500 (Eastern Standard Time),506463.5,A,street,I,t,112,3,5848.900000572205,500614.5999994278,9023,WL,B,1.0
1,6.1499998569488525,learn,53850.00014305115,Tue Jan 13 2026 15:32:34 GMT-0500 (Eastern Standard Time),506763.0999994278,A,streetenter,I,enter,274,3,6148.5,500614.5999994278,9023,WL,B,1.0
1,8.483999967575073,learn,51516.00003242493,Tue Jan 13 2026 15:32:34 GMT-0500 (Eastern Standard Time),509097.0,A,g,I,g,2321,3,2333.2000007629395,506763.79999923706,9023,WL,B,2.0
1,8.717000007629395,learn,51282.999992370605,Tue Jan 13 2026 15:32:34 GMT-0500 (Eastern Standard Time),509330.29999923706,A,gr,I,r,210,3,2566.5,506763.79999923706,9023,WL,B,2.0
1,8.816999912261963,learn,51183.00008773804,Tue Jan 13 2026 15:32:34 GMT-0500 (Eastern Standard Time),509430.19999980927,A,gra,I,a,88,3,2666.4000005722046,506763.79999923706,9023,WL,B,2.0
1,9.149999856948853,learn,50850.00014305115,Tue Jan 13 2026 15:32:34 GMT-0500 (Eastern Standard Time),509763.5,A,gras,I,s,302,3,2999.7000007629395,506763.79999923706,9023,WL,B,2.0
1,9.266999959945679,learn,50733.00004005432,Tue Jan 13 2026 15:32:34 GMT-0500 (Eastern Standard Time),509880.19999980927,A,grass,I,s,101,3,3116.4000005722046,506763.79999923706,9023,WL,B,2.0
1,10.166999816894531,learn,49833.00018310547,Tue Jan 13 2026 15:32:34 GMT-0500 (Eastern Standard Time),510779.79999923706,A,grassenter,I,enter,881,3,4016.0,506763.79999923706,9023,WL,B,2.0
1,10.699999809265137,learn,49300.00019073486,Tue Jan 13 2026 15:32:34 GMT-0500 (Eastern Standard Time),511313.5999994278,A,d,I,d,513,3,533.0999994277954,510780.5,9023,WL,B,3.0
1,12.250999927520752,learn,47749.00007247925,Tue Jan 13 2026 15:32:34 GMT-0500 (Eastern Standard Time),512863.69999980927,A,do,I,o,1529,3,2083.199999809265,510780.5,9023,WL,B,3.0
1,12.416999816894531,learn,47583.00018310547,Tue Jan 13 2026 15:32:34 GMT-0500 (Eastern Standard Time),513030.29999923706,A,doo,I,o,140,3,2249.7999992370605,510780.5,9023,WL,B,3.0
1,12.699999809265137,learn,47300.00019073486,Tue Jan 13 2026 15:32:34 GMT-0500 (Eastern Standard Time),513313.5999994278,A,door,I,r,260,3,2533.0999994277954,510780.5,9023,WL,B,3.0
1,13.366999864578247,learn,46633.00013542175,Tue Jan 13 2026 15:32:34 GMT-0500 (Eastern Standard Time),513979.69999980927,A,doorenter,I,enter,650,3,3199.199999809265,510780.5,9023,WL,B,3.0
1,13.783999919891357,learn,46216.00008010864,Tue Jan 13 2026 15:32:34 GMT-0500 (Eastern Standard Time),514397.0,A,a,I,a,402,3,416.80000019073486,513980.19999980927,9023,WL,B,4.0
1,14.016999959945679,learn,45983.00004005432,Tue Jan 13 2026 15:32:34 GMT-0500 (Eastern Standard Time),514630.29999923706,A,ar,I,r,222,3,650.0999994277954,513980.19999980927,9023,WL,B,4.0
1,14.366999864578247,learn,45633.00013542175,Tue Jan 13 2026 15:32:34 GMT-0500 (Eastern Standard Time),514980.19999980927,A,arm,I,m,323,3,1000.0,513980.19999980927,9023,WL,B,4.0
1,16.049999952316284,learn,43950.000047683716,Tue Jan 13 2026 15:32:34 GMT-0500 (Eastern Standard Time),516663.0999994278,A,armenter,I,enter,1667,3,2682.8999996185303,513980.19999980927,9023,WL,B,4.0
1,18.16699981689453,learn,41833.00018310547,Tue Jan 13 2026 15:32:34 GMT-0500 (Eastern Standard Time),518780.29999923706,A,w,I,w,2102,3,2116.7999992370605,516663.5,9023,WL,B,5.0
1,18.383999824523926,learn,41616.000175476074,Tue Jan 13 2026 15:32:34 GMT-0500 (Eastern Standard Time),518997.0,A,wi,I,i,191,3,2333.5,516663.5,9023,WL,B,5.0
1,18.717000007629395,learn,41282.999992370605,Tue Jan 13 2026 15:32:34 GMT-0500 (Eastern Standard Time),519330.29999923706,A,wif,I,f,309,3,2666.7999992370605,516663.5,9023,WL,B,5.0
1,19.149999856948853,learn,40850.00014305115,Tue Jan 13 2026 15:32:34 GMT-0500 (Eastern Standard Time),519763.5999994278,A,wife,I,e,409,3,3100.0999994277954,516663.5,9023,WL,B,5.0
1,20.299999952316284,learn,39700.000047683716,Tue Jan 13 2026 15:32:34 GMT-0500 (Eastern Standard Time),520913.0999994278,A,wifeenter,I,enter,1127,3,4249.599999427795,516663.5,9023,WL,B,5.0
1,20.75,learn,39250.0,Tue Jan 13 2026 15:32:34 GMT-0500 (Eastern Standard Time),521363.5999994278,A,w,I,w,429,3,450.0999994277954,520913.5,9023,WL,B,6.0
1,20.83299994468689,learn,39167.00005531311,Tue Jan 13 2026 15:32:34 GMT-0500 (Eastern Standard Time),521446.5999994278,A,wi,I,i,71,3,533.0999994277954,520913.5,9023,WL,B,6.0
1,21.000999927520752,learn,38999.00007247925,Tue Jan 13 2026 15:32:34 GMT-0500 (Eastern Standard Time),521613.69999980927,A,win,I,n,139,3,700.1999998092651,520913.5,9023,WL,B,6.0
1,21.23300004005432,learn,38766.99995994568,Tue Jan 13 2026 15:32:34 GMT-0500 (Eastern Standard Time),521846.69999980927,A,wind,I,d,221,3,933.1999998092651,520913.5,9023,WL,B,6.0
1,21.383999824523926,learn,38616.000175476074,Tue Jan 13 2026 15:32:34 GMT-0500 (Eastern Standard Time),521996.89999961853,A,windo,I,o,133,3,1083.3999996185303,520913.5,9023,WL,B,6.0
1,21.59999990463257,learn,38400.00009536743,Tue Jan 13 2026 15:32:34 GMT-0500 (Eastern Standard Time),522213.5999994278,A,window,I,w,189,3,1300.0999994277954,520913.5,9023,WL,B,6.0
1,22.066999912261963,learn,37933.00008773804,Tue Jan 13 2026 15:32:34 GMT-0500 (Eastern Standard Time),522679.79999923706,A,windowenter,I,enter,442,3,1766.2999992370605,520913.5,9023,WL,B,6.0
1,25.383999824523926,learn,34616.000175476074,Tue Jan 13 2026 15:32:34 GMT-0500 (Eastern Standard Time),525996.8999996185,A,c,I,c,3300,3,3316.6000003814697,522680.29999923706,9023,WL,B,7.0
1,25.5,learn,34500.0,Tue Jan 13 2026 15:32:34 GMT-0500 (Eastern Standard Time),526113.5,A,ci,I,i,94,3,3433.2000007629395,522680.29999923706,9023,WL,B,7.0
1,25.75,learn,34250.0,Tue Jan 13 2026 15:32:34 GMT-0500 (Eastern Standard Time),526363.5999994278,A,cit,I,t,230,3,3683.300000190735,522680.29999923706,9023,WL,B,7.0
1,25.93400001525879,learn,34065.99998474121,Tue Jan 13 2026 15:32:34 GMT-0500 (Eastern Standard Time),526547.0,A,city,I,y,159,3,3866.7000007629395,522680.29999923706,9023,WL,B,7.0
1,28.73300004005432,learn,31266.99995994568,Tue Jan 13 2026 15:32:34 GMT-0500 (Eastern Standard Time),529346.3999996185,A,cityenter,I,enter,2773,3,6666.10000038147,522680.29999923706,9023,WL,B,7.0
1,30.383999824523926,learn,29616.000175476074,Tue Jan 13 2026 15:32:34 GMT-0500 (Eastern Standard Time),530997.0,A,p,I,p,1626,3,1650.2000007629395,529346.7999992371,9023,WL,B,8.0
1,30.533999919891357,learn,29466.000080108643,Tue Jan 13 2026 15:32:34 GMT-0500 (Eastern Standard Time),531146.8999996185,A,pu,I,u,134,3,1800.1000003814697,529346.7999992371,9023,WL,B,8.0
1,30.83299994468689,learn,29167.00005531311,Tue Jan 13 2026 15:32:34 GMT-0500 (Eastern Standard Time),531446.5999994278,A,pup,I,p,279,3,2099.800000190735,529346.7999992371,9023,WL,B,8.0
1,31.16699981689453,learn,28833.00018310547,Tue Jan 13 2026 15:32:34 GMT-0500 (Eastern Standard Time),531779.6999998093,A,pupi,I,i,309,3,2432.9000005722046,529346.7999992371,9023,WL,B,8.0
1,31.43400001525879,learn,28565.99998474121,Tue Jan 13 2026 15:32:34 GMT-0500 (Eastern Standard Time),532046.8999996185,A,pupil,I,l,251,3,2700.1000003814697,529346.7999992371,9023,WL,B,8.0
1,31.816999912261963,learn,28183.000087738037,Tue Jan 13 2026 15:32:34 GMT-0500 (Eastern Standard Time),532429.6999998093,A,pupilenter,I,enter,365,3,3082.9000005722046,529346.7999992371,9023,WL,B,8.0
1,32.56699991226196,learn,27433.000087738037,Tue Jan 13 2026 15:32:34 GMT-0500 (Eastern Standard Time),533180.2999992371,A,c,I,c,736,3,749.8999996185303,532430.3999996185,9023,WL,B,9.0
1,32.66599988937378,learn,27334.00011062622,Tue Jan 13 2026 15:32:34 GMT-0500 (Eastern Standard Time),533279.5,A,ca,I,a,78,3,849.1000003814697,532430.3999996185,9023,WL,B,9.0
1,32.967000007629395,learn,27032.999992370605,Tue Jan 13 2026 15:32:34 GMT-0500 (Eastern Standard Time),533580.2999992371,A,cab,I,b,287,3,1149.8999996185303,532430.3999996185,9023,WL,B,9.0
1,33.06699991226196,learn,26933.000087738037,Tue Jan 13 2026 15:32:34 GMT-0500 (Eastern Standard Time),533680.2999992371,A,cabi,I,i,72,3,1249.8999996185303,532430.3999996185,9023,WL,B,9.0
1,33.25,learn,26750.0,Tue Jan 13 2026 15:32:34 GMT-0500 (Eastern Standard Time),533863.2999992371,A,cabin,I,n,163,3,1432.8999996185303,532430.3999996185,9023,WL,B,9.0
1,34.26699995994568,learn,25733.00004005432,Tue Jan 13 2026 15:32:34 GMT-0500 (Eastern Standard Time),534879.8999996185,A,cabinenter,I,enter,995,3,2449.5,532430.3999996185,9023,WL,B,9.0
1,34.81699991226196,learn,25183.000087738037,Tue Jan 13 2026 15:32:34 GMT-0500 (Eastern Standard Time),535430.1999998093,A,l,I,l,543,3,550.0,534880.1999998093,9023,WL,B,10.0
1,34.91699981689453,learn,25083.00018310547,Tue Jan 13 2026 15:32:34 GMT-0500 (Eastern Standard Time),535530.1999998093,A,la,I,a,86,3,650.0,534880.1999998093,9023,WL,B,10.0
1,35.75,learn,24250.0,Tue Jan 13 2026 15:32:34 GMT-0500 (Eastern Standard Time),536363.5999994278,A,lak,I,k,807,3,1483.3999996185303,534880.1999998093,9023,WL,B,10.0
1,35.89999985694885,learn,24100.000143051147,Tue Jan 13 2026 15:32:34 GMT-0500 (Eastern Standard Time),536513.5,A,lake,I,e,128,3,1633.3000001907349,534880.1999998093,9023,WL,B,10.0
1,37.0,learn,23000.0,Tue Jan 13 2026 15:32:34 GMT-0500 (Eastern Standard Time),537613.0999994278,A,lakeenter,I,enter,1080,3,2732.8999996185303,534880.1999998093,9023,WL,B,10.0
1,37.883999824523926,learn,22116.000175476074,Tue Jan 13 2026 15:32:34 GMT-0500 (Eastern Standard Time),538497.0,A,p,I,p,865,3,883.5,537613.5,9023,WL,B,11.0
1,38.31699991226196,learn,21683.000087738037,Tue Jan 13 2026 15:32:34 GMT-0500 (Eastern Standard Time),538930.2999992371,A,pi,I,i,411,3,1316.7999992370605,537613.5,9023,WL,B,11.0
1,39.25,learn,20750.0,Tue Jan 13 2026 15:32:34 GMT-0500 (Eastern Standard Time),539863.5,A,pip,I,p,922,3,2250.0,537613.5,9023,WL,B,11.0
1,39.48399996757507,learn,20516.000032424927,Tue Jan 13 2026 15:32:34 GMT-0500 (Eastern Standard Time),540097.0,A,pipe,I,e,211,3,2483.5,537613.5,9023,WL,B,11.0
1,40.56699991226196,learn,19433.000087738037,Tue Jan 13 2026 15:32:34 GMT-0500 (Eastern Standard Time),541179.6999998093,A,pipeenter,I,enter,1056,3,3566.199999809265,537613.5,9023,WL,B,11.0
1,42.14999985694885,learn,17850.000143051147,Tue Jan 13 2026 15:32:34 GMT-0500 (Eastern Standard Time),542763.5,A,s,I,s,1571,3,1583.3000001907349,541180.1999998093,9023,WL,B,12.0
1,42.33399987220764,learn,17666.00012779236,Tue Jan 13 2026 15:32:34 GMT-0500 (Eastern Standard Time),542946.8999996185,A,sk,I,k,157,3,1766.6999998092651,541180.1999998093,9023,WL,B,12.0
1,42.53399991989136,learn,17466.000080108643,Tue Jan 13 2026 15:32:34 GMT-0500 (Eastern Standard Time),543146.8999996185,A,ski,I,i,175,3,1966.6999998092651,541180.1999998093,9023,WL,B,12.0
1,42.83299994468689,learn,17167.00005531311,Tue Jan 13 2026 15:32:34 GMT-0500 (Eastern Standard Time),543446.5999994278,A,skin,I,n,283,3,2266.3999996185303,541180.1999998093,9023,WL,B,12.0
1,43.59999990463257,learn,16400.00009536743,Tue Jan 13 2026 15:32:34 GMT-0500 (Eastern Standard Time),544213.0999994278,A,skinenter,I,enter,757,3,3032.8999996185303,541180.1999998093,9023,WL,B,12.0
1,60.01699995994568,learn,-16.99995994567871,Tue Jan 13 2026 15:32:34 GMT-0500 (Eastern Standard Time),560630.5,A,None,I,None,16411,3,16417.0,544213.5,9023,WL,B,13.0
2,1.0499999523162842,learn,58950.000047683716,Tue Jan 13 2026 15:32:34 GMT-0500 (Eastern Standard Time),631380.1999998093,A,s,I,s,1026,3,1049.4000005722046,630330.7999992371,9023,WL,B,1.0
2,1.2829999923706055,learn,58717.000007629395,Tue Jan 13 2026 15:32:34 GMT-0500 (Eastern Standard Time),631613.5,A,st,I,t,215,3,1282.7000007629395,630330.7999992371,9023,WL,B,1.0
2,1.5169999599456787,learn,58483.00004005432,Tue Jan 13 2026 15:32:34 GMT-0500 (Eastern Standard Time),631846.6999998093,A,str,I,r,221,3,1515.9000005722046,630330.7999992371,9023,WL,B,1.0
2,1.7669999599456787,learn,58233.00004005432,Tue Jan 13 2026 15:32:34 GMT-0500 (Eastern Standard Time),632096.7999992371,A,stre,I,e,227,3,1766.0,630330.7999992371,9023,WL,B,1.0
2,1.8999998569488525,learn,58100.00014305115,Tue Jan 13 2026 15:32:34 GMT-0500 (Eastern Standard Time),632230.0,A,stree,I,e,123,3,1899.2000007629395,630330.7999992371,9023,WL,B,1.0
2,2.0999999046325684,learn,57900.00009536743,Tue Jan 13 2026 15:32:34 GMT-0500 (Eastern Standard Time),632430.1999998093,A,street,I,t,182,3,2099.4000005722046,630330.7999992371,9023,WL,B,1.0
2,3.365999937057495,learn,56634.000062942505,Tue Jan 13 2026 15:32:34 GMT-0500 (Eastern Standard Time),633696.1999998093,A,streetenter,I,enter,1236,3,3365.4000005722046,630330.7999992371,9023,WL,B,1.0
2,4.382999897003174,learn,55617.000102996826,Tue Jan 13 2026 15:32:34 GMT-0500 (Eastern Standard Time),634713.5,A,g,I,g,1006,3,1016.8000001907349,633696.6999998093,9023,WL,B,2.0
2,4.616999864578247,learn,55383.00013542175,Tue Jan 13 2026 15:32:34 GMT-0500 (Eastern Standard Time),634946.7999992371,A,gr,I,r,209,3,1250.0999994277954,633696.6999998093,9023,WL,B,2.0
2,4.732999801635742,learn,55267.00019836426,Tue Jan 13 2026 15:32:34 GMT-0500 (Eastern Standard Time),635063.3999996185,A,gra,I,a,104,3,1366.6999998092651,633696.6999998093,9023,WL,B,2.0
2,5.182999849319458,learn,54817.00015068054,Tue Jan 13 2026 15:32:34 GMT-0500 (Eastern Standard Time),635513.5,A,gras,I,s,427,3,1816.8000001907349,633696.6999998093,9023,WL,B,2.0
2,5.33299994468689,learn,54667.00005531311,Tue Jan 13 2026 15:32:34 GMT-0500 (Eastern Standard Time),635663.5999994278,A,grass,I,s,130,3,1966.8999996185303,633696.6999998093,9023,WL,B,2.0
2,6.382999897003174,learn,53617.000102996826,Tue Jan 13 2026 15:32:34 GMT-0500 (Eastern Standard Time),636712.8999996185,A,grassenter,I,enter,1032,3,3016.199999809265,633696.6999998093,9023,WL,B,2.0
2,6.866999864578247,learn,53133.00013542175,Tue Jan 13 2026 15:32:34 GMT-0500 (Eastern Standard Time),637196.8999996185,A,d,I,d,470,3,483.6000003814697,636713.2999992371,9023,WL,B,3.0
2,7.299999952316284,learn,52700.000047683716,Tue Jan 13 2026 15:32:34 GMT-0500 (Eastern Standard Time),637630.0999994278,A,do,I,o,414,3,916.8000001907349,636713.2999992371,9023,WL,B,3.0
2,7.449999809265137,learn,52550.00019073486,Tue Jan 13 2026 15:32:34 GMT-0500 (Eastern Standard Time),637780.1999998093,A,doo,I,o,124,3,1066.9000005722046,636713.2999992371,9023,WL,B,3.0
2,7.6499998569488525,learn,52350.00014305115,Tue Jan 13 2026 15:32:34 GMT-0500 (Eastern Standard Time),637980.0999994278,A,door,I,r,183,3,1266.8000001907349,636713.2999992371,9023,WL,B,3.0
2,8.782999992370605,learn,51217.000007629395,Tue Jan 13 2026 15:32:34 GMT-0500 (Eastern Standard Time),639112.8999996185,A,doorenter,I,enter,1119,3,2399.6000003814697,636713.2999992371,9023,WL,B,3.0
2,9.132999897003174,learn,50867.000102996826,Tue Jan 13 2026 15:32:34 GMT-0500 (Eastern Standard Time),639463.3999996185,A,a,I,a,341,3,350.0,639113.3999996185,9023,WL,B,4.0
2,9.399999856948853,learn,50600.00014305115,Tue Jan 13 2026 15:32:34 GMT-0500 (Eastern Standard Time),639730.1999998093,A,ar,I,r,244,3,616.8000001907349,639113.3999996185,9023,WL,B,4.0
2,9.699999809265137,learn,50300.00019073486,Tue Jan 13 2026 15:32:34 GMT-0500 (Eastern Standard Time),640029.8999996185,A,arm,I,m,282,3,916.5,639113.3999996185,9023,WL,B,4.0
2,10.965999841690063,learn,49034.00015830994,Tue Jan 13 2026 15:32:34 GMT-0500 (Eastern Standard Time),641296.2999992371,A,armenter,I,enter,1244,3,2182.8999996185303,639113.3999996185,9023,WL,B,4.0
2,11.816999912261963,learn,48183.00008773804,Tue Jan 13 2026 15:32:34 GMT-0500 (Eastern Standard Time),642146.6999998093,A,s,I,s,830,3,850.0,641296.6999998093,9023,WL,B,5.0
2,12.099999904632568,learn,47900.00009536743,Tue Jan 13 2026 15:32:34 GMT-0500 (Eastern Standard Time),642430.0999994278,A,st,I,t,264,3,1133.3999996185303,641296.6999998093,9023,WL,B,5.0
2,12.217000007629395,learn,47782.999992370605,Tue Jan 13 2026 15:32:34 GMT-0500 (Eastern Standard Time),642546.7999992371,A,sta,I,a,93,3,1250.0999994277954,641296.6999998093,9023,WL,B,5.0
2,12.432999849319458,learn,47567.00015068054,Tue Jan 13 2026 15:32:34 GMT-0500 (Eastern Standard Time),642763.5,A,star,I,r,200,3,1466.8000001907349,641296.6999998093,9023,WL,B,5.0
2,13.532999992370605,learn,46467.000007629395,Tue Jan 13 2026 15:32:34 GMT-0500 (Eastern Standard Time),643862.8999996185,A,starenter,I,enter,1088,3,2566.199999809265,641296.6999998093,9023,WL,B,5.0
2,14.032999992370605,learn,45967.000007629395,Tue Jan 13 2026 15:32:34 GMT-0500 (Eastern Standard Time),644363.5,A,w,I,w,488,3,500.30000019073486,643863.1999998093,9023,WL,B,6.0
2,14.182999849319458,learn,45817.00015068054,Tue Jan 13 2026 15:32:34 GMT-0500 (Eastern Standard Time),644513.3999996185,A,wi,I,i,127,3,650.1999998092651,643863.1999998093,9023,WL,B,6.0
2,14.416999816894531,learn,45583.00018310547,Tue Jan 13 2026 15:32:34 GMT-0500 (Eastern Standard Time),644746.7999992371,A,wif,I,f,218,3,883.5999994277954,643863.1999998093,9023,WL,B,6.0
2,14.532999992370605,learn,45467.000007629395,Tue Jan 13 2026 15:32:34 GMT-0500 (Eastern Standard Time),644863.3999996185,A,wife,I,e,87,3,1000.1999998092651,643863.1999998093,9023,WL,B,6.0
2,15.815999984741211,learn,44184.00001525879,Tue Jan 13 2026 15:32:34 GMT-0500 (Eastern Standard Time),646146.2999992371,A,wifeenter,I,enter,1258,3,2283.0999994277954,643863.1999998093,9023,WL,B,6.0
2,18.049999952316284,learn,41950.000047683716,Tue Jan 13 2026 15:32:34 GMT-0500 (Eastern Standard Time),648380.1999998093,A,w,I,w,2220,3,2233.5,646146.6999998093,9023,WL,B,7.0
2,18.199999809265137,learn,41800.00019073486,Tue Jan 13 2026 15:32:34 GMT-0500 (Eastern Standard Time),648530.0999994278,A,wi,I,i,128,3,2383.3999996185303,646146.6999998093,9023,WL,B,7.0
2,18.41699981689453,learn,41583.00018310547,Tue Jan 13 2026 15:32:34 GMT-0500 (Eastern Standard Time),648746.6999998093,A,win,I,n,191,3,2600.0,646146.6999998093,9023,WL,B,7.0
2,18.649999856948853,learn,41350.00014305115,Tue Jan 13 2026 15:32:34 GMT-0500 (Eastern Standard Time),648980.1999998093,A,wind,I,d,208,3,2833.5,646146.6999998093,9023,WL,B,7.0
2,18.799999952316284,learn,41200.000047683716,Tue Jan 13 2026 15:32:34 GMT-0500 (Eastern Standard Time),649130.0999994278,A,windo,I,o,135,3,2983.3999996185303,646146.6999998093,9023,WL,B,7.0
2,18.949999809265137,learn,41050.00019073486,Tue Jan 13 2026 15:32:34 GMT-0500 (Eastern Standard Time),649280.0999994278,A,window,I,w,120,3,3133.3999996185303,646146.6999998093,9023,WL,B,7.0
2,19.715999841690063,learn,40284.00015830994,Tue Jan 13 2026 15:32:34 GMT-0500 (Eastern Standard Time),650046.1999998093,A,windowenter,I,enter,738,3,3899.5,646146.6999998093,9023,WL,B,7.0
2,20.549999952316284,learn,39450.000047683716,Tue Jan 13 2026 15:32:34 GMT-0500 (Eastern Standard Time),650880.1999998093,A,c,I,c,816,3,833.4000005722046,650046.7999992371,9023,WL,B,8.0
2,20.682999849319458,learn,39317.00015068054,Tue Jan 13 2026 15:32:34 GMT-0500 (Eastern Standard Time),651013.3999996185,A,ci,I,i,108,3,966.6000003814697,650046.7999992371,9023,WL,B,8.0
2,21.0,learn,39000.0,Tue Jan 13 2026 15:32:34 GMT-0500 (Eastern Standard Time),651330.2999992371,A,cit,I,t,284,3,1283.5,650046.7999992371,9023,WL,B,8.0
2,21.16699981689453,learn,38833.00018310547,Tue Jan 13 2026 15:32:34 GMT-0500 (Eastern Standard Time),651496.7999992371,A,city,I,y,153,3,1450.0,650046.7999992371,9023,WL,B,8.0
2,21.532999992370605,learn,38467.000007629395,Tue Jan 13 2026 15:32:34 GMT-0500 (Eastern Standard Time),651862.8999996185,A,cityenter,I,enter,345,3,1816.1000003814697,650046.7999992371,9023,WL,B,8.0
2,22.467000007629395,learn,37532.999992370605,Tue Jan 13 2026 15:32:34 GMT-0500 (Eastern Standard Time),652796.7999992371,A,p,I,p,919,3,933.5,651863.2999992371,9023,WL,B,9.0
2,22.66699981689453,learn,37333.00018310547,Tue Jan 13 2026 15:32:34 GMT-0500 (Eastern Standard Time),652996.7999992371,A,pu,I,u,175,3,1133.5,651863.2999992371,9023,WL,B,9.0
2,23.06599998474121,learn,36934.00001525879,Tue Jan 13 2026 15:32:34 GMT-0500 (Eastern Standard Time),653396.0,A,pup,I,p,374,3,1532.7000007629395,651863.2999992371,9023,WL,B,9.0
2,24.31599998474121,learn,35684.00001525879,Tue Jan 13 2026 15:32:34 GMT-0500 (Eastern Standard Time),654646.3999996185,A,pupi,I,i,1242,3,2783.1000003814697,651863.2999992371,9023,WL,B,9.0
2,24.59999990463257,learn,35400.00009536743,Tue Jan 13 2026 15:32:34 GMT-0500 (Eastern Standard Time),654930.0999994278,A,pupil,I,l,260,3,3066.800000190735,651863.2999992371,9023,WL,B,9.0
2,26.215999841690063,learn,33784.00015830994,Tue Jan 13 2026 15:32:34 GMT-0500 (Eastern Standard Time),656546.2999992371,A,pupilenter,I,enter,1594,3,4683.0,651863.2999992371,9023,WL,B,9.0
2,27.049999952316284,learn,32950.000047683716,Tue Jan 13 2026 15:32:34 GMT-0500 (Eastern Standard Time),657380.0999994278,A,c,I,c,811,3,833.3999996185303,656546.6999998093,9023,WL,B,10.0
2,27.09999990463257,learn,32900.00009536743,Tue Jan 13 2026 15:32:34 GMT-0500 (Eastern Standard Time),657430.0,A,ca,I,a,39,3,883.3000001907349,656546.6999998093,9023,WL,B,10.0
2,27.41699981689453,learn,32583.00018310547,Tue Jan 13 2026 15:32:34 GMT-0500 (Eastern Standard Time),657746.7999992371,A,cab,I,b,285,3,1200.0999994277954,656546.6999998093,9023,WL,B,10.0
2,27.532999992370605,learn,32467.000007629395,Tue Jan 13 2026 15:32:34 GMT-0500 (Eastern Standard Time),657863.3999996185,A,cabi,I,i,105,3,1316.6999998092651,656546.6999998093,9023,WL,B,10.0
2,27.717000007629395,learn,32282.999992370605,Tue Jan 13 2026 15:32:34 GMT-0500 (Eastern Standard Time),658046.7999992371,A,cabin,I,n,154,3,1500.0999994277954,656546.6999998093,9023,WL,B,10.0
2,28.182999849319458,learn,31817.000150680542,Tue Jan 13 2026 15:32:34 GMT-0500 (Eastern Standard Time),658512.8999996185,A,cabinenter,I,enter,444,3,1966.1999998092651,656546.6999998093,9023,WL,B,10.0
2,28.616999864578247,learn,31383.000135421753,Tue Jan 13 2026 15:32:34 GMT-0500 (Eastern Standard Time),658946.7999992371,A,l,I,l,414,3,433.5,658513.2999992371,9023,WL,B,11.0
2,28.732999801635742,learn,31267.000198364258,Tue Jan 13 2026 15:32:34 GMT-0500 (Eastern Standard Time),659063.1999998093,A,la,I,a,104,3,549.9000005722046,658513.2999992371,9023,WL,B,11.0
2,28.91699981689453,learn,31083.00018310547,Tue Jan 13 2026 15:32:34 GMT-0500 (Eastern Standard Time),659246.6999998093,A,lak,I,k,164,3,733.4000005722046,658513.2999992371,9023,WL,B,11.0
2,29.26699995994568,learn,30733.00004005432,Tue Jan 13 2026 15:32:34 GMT-0500 (Eastern Standard Time),659596.7999992371,A,lake,I,e,325,3,1083.5,658513.2999992371,9023,WL,B,11.0
2,30.882999897003174,learn,29117.000102996826,Tue Jan 13 2026 15:32:34 GMT-0500 (Eastern Standard Time),661212.8999996185,A,lakeenter,I,enter,1597,3,2699.6000003814697,658513.2999992371,9023,WL,B,11.0
2,33.61699986457825,learn,26383.000135421753,Tue Jan 13 2026 15:32:34 GMT-0500 (Eastern Standard Time),663946.6999998093,A,s,I,s,2722,3,2733.300000190735,661213.3999996185,9023,WL,B,12.0
2,33.84999990463257,learn,26150.00009536743,Tue Jan 13 2026 15:32:34 GMT-0500 (Eastern Standard Time),664180.1999998093,A,sk,I,k,209,3,2966.800000190735,661213.3999996185,9023,WL,B,12.0
2,34.06699991226196,learn,25933.000087738037,Tue Jan 13 2026 15:32:34 GMT-0500 (Eastern Standard Time),664396.7999992371,A,ski,I,i,196,3,3183.3999996185303,661213.3999996185,9023,WL,B,12.0
2,34.66699981689453,learn,25333.00018310547,Tue Jan 13 2026 15:32:34 GMT-0500 (Eastern Standard Time),664996.7999992371,A,skin,I,n,574,3,3783.3999996185303,661213.3999996185,9023,WL,B,12.0
2,34.98299980163574,learn,25017.000198364258,Tue Jan 13 2026 15:32:34 GMT-0500 (Eastern Standard Time),665313.0,A,skinenter,I,enter,295,3,4099.60000038147,661213.3999996185,9023,WL,B,12.0
2,35.34999990463257,learn,24650.00009536743,Tue Jan 13 2026 15:32:34 GMT-0500 (Eastern Standard Time),665680.1999998093,A,f,I,f,349,3,366.80000019073486,665313.3999996185,9023,WL,B,13.0
2,35.48299980163574,learn,24517.000198364258,Tue Jan 13 2026 15:32:34 GMT-0500 (Eastern Standard Time),665813.3999996185,A,fi,I,i,107,3,500.0,665313.3999996185,9023,WL,B,13.0
2,35.75,learn,24250.0,Tue Jan 13 2026 15:32:34 GMT-0500 (Eastern Standard Time),666080.0999994278,A,fir,I,r,246,3,766.6999998092651,665313.3999996185,9023,WL,B,13.0
2,35.89999985694885,learn,24100.000143051147,Tue Jan 13 2026 15:32:34 GMT-0500 (Eastern Standard Time),666229.8999996185,A,fire,I,e,139,3,916.5,665313.3999996185,9023,WL,B,13.0
2,36.81599998474121,learn,23184.00001525879,Tue Jan 13 2026 15:32:34 GMT-0500 (Eastern Standard Time),667146.1999998093,A,fireenter,I,enter,901,3,1832.8000001907349,665313.3999996185,9023,WL,B,13.0
2,37.115999937057495,learn,22884.000062942505,Tue Jan 13 2026 15:32:34 GMT-0500 (Eastern Standard Time),667446.3999996185,A,c,I,c,292,3,299.80000019073486,667146.5999994278,9023,WL,B,14.0
2,37.56699991226196,learn,22433.000087738037,Tue Jan 13 2026 15:32:34 GMT-0500 (Eastern Standard Time),667896.6999998093,A,cl,I,l,435,3,750.1000003814697,667146.5999994278,9023,WL,B,14.0
2,37.83299994468689,learn,22167.00005531311,Tue Jan 13 2026 15:32:34 GMT-0500 (Eastern Standard Time),668163.3999996185,A,clo,I,o,243,3,1016.8000001907349,667146.5999994278,9023,WL,B,14.0
2,38.06699991226196,learn,21933.000087738037,Tue Jan 13 2026 15:32:34 GMT-0500 (Eastern Standard Time),668396.7999992371,A,cloc,I,c,215,3,1250.1999998092651,667146.5999994278,9023,WL,B,14.0
2,38.21599984169006,learn,21784.000158309937,Tue Jan 13 2026 15:32:34 GMT-0500 (Eastern Standard Time),668546.3999996185,A,clock,I,k,126,3,1399.8000001907349,667146.5999994278,9023,WL,B,14.0
2,39.74899983406067,learn,20251.00016593933,Tue Jan 13 2026 15:32:34 GMT-0500 (Eastern Standard Time),670079.5,A,clockenter,I,enter,1509,3,2932.9000005722046,667146.5999994278,9023,WL,B,14.0
2,60.01699995994568,learn,-16.99995994567871,Tue Jan 13 2026 15:32:34 GMT-0500 (Eastern Standard Time),690347.0999994278,A,None,I,None,20260,3,20267.199999809265,670079.8999996185,9023,WL,B,15.0
3,1.7330000400543213,learn,58266.99995994568,Tue Jan 13 2026 15:32:34 GMT-0500 (Eastern Standard Time),761896.6999998093,A,s,I,s,1721,3,1733.0,760163.6999998093,9023,WL,B,1.0
3,2.200000047683716,learn,57799.999952316284,Tue Jan 13 2026 15:32:34 GMT-0500 (Eastern Standard Time),762363.2999992371,A,st,I,t,451,3,2199.5999994277954,760163.6999998093,9023,WL,B,1.0
3,2.549999952316284,learn,57450.000047683716,Tue Jan 13 2026 15:32:34 GMT-0500 (Eastern Standard Time),762713.1999998093,A,str,I,r,336,3,2549.5,760163.6999998093,9023,WL,B,1.0
3,2.8499999046325684,learn,57150.00009536743,Tue Jan 13 2026 15:32:34 GMT-0500 (Eastern Standard Time),763013.3999996185,A,stre,I,e,274,3,2849.699999809265,760163.6999998093,9023,WL,B,1.0
3,2.9830000400543213,learn,57016.99995994568,Tue Jan 13 2026 15:32:34 GMT-0500 (Eastern Standard Time),763146.5999994278,A,stree,I,e,118,3,2982.8999996185303,760163.6999998093,9023,WL,B,1.0
3,3.116999864578247,learn,56883.00013542175,Tue Jan 13 2026 15:32:34 GMT-0500 (Eastern Standard Time),763280.0,A,street,I,t,113,3,3116.300000190735,760163.6999998093,9023,WL,B,1.0
3,4.0,learn,56000.0,Tue Jan 13 2026 15:32:34 GMT-0500 (Eastern Standard Time),764162.7999992371,A,streetenter,I,enter,850,3,3999.0999994277954,760163.6999998093,9023,WL,B,1.0
3,4.33299994468689,learn,55667.00005531311,Tue Jan 13 2026 15:32:34 GMT-0500 (Eastern Standard Time),764496.6999998093,A,g,I,g,315,3,333.4000005722046,764163.2999992371,9023,WL,B,2.0
3,4.549999952316284,learn,55450.000047683716,Tue Jan 13 2026 15:32:34 GMT-0500 (Eastern Standard Time),764713.2999992371,A,gr,I,r,203,3,550.0,764163.2999992371,9023,WL,B,2.0
3,4.66700005531311,learn,55332.99994468689,Tue Jan 13 2026 15:32:34 GMT-0500 (Eastern Standard Time),764830.0999994278,A,gra,I,a,89,3,666.8000001907349,764163.2999992371,9023,WL,B,2.0
3,4.933000087738037,learn,55066.99991226196,Tue Jan 13 2026 15:32:34 GMT-0500 (Eastern Standard Time),765096.6999998093,A,gras,I,s,244,3,933.4000005722046,764163.2999992371,9023,WL,B,2.0
3,5.08299994468689,learn,54917.00005531311,Tue Jan 13 2026 15:32:34 GMT-0500 (Eastern Standard Time),765246.6999998093,A,grass,I,s,131,3,1083.4000005722046,764163.2999992371,9023,WL,B,2.0
3,5.315999984741211,learn,54684.00001525879,Tue Jan 13 2026 15:32:34 GMT-0500 (Eastern Standard Time),765479.5,A,grassenter,I,enter,220,3,1316.2000007629395,764163.2999992371,9023,WL,B,2.0
3,6.049999952316284,learn,53950.000047683716,Tue Jan 13 2026 15:32:34 GMT-0500 (Eastern Standard Time),766213.5,A,d,I,d,711,3,733.8000001907349,765479.6999998093,9023,WL,B,3.0
3,6.2829999923706055,learn,53717.000007629395,Tue Jan 13 2026 15:32:34 GMT-0500 (Eastern Standard Time),766446.5999994278,A,do,I,o,214,3,966.8999996185303,765479.6999998093,9023,WL,B,3.0
3,6.4670000076293945,learn,53532.999992370605,Tue Jan 13 2026 15:32:34 GMT-0500 (Eastern Standard Time),766630.0,A,doo,I,o,157,3,1150.3000001907349,765479.6999998093,9023,WL,B,3.0
3,6.616999864578247,learn,53383.00013542175,Tue Jan 13 2026 15:32:34 GMT-0500 (Eastern Standard Time),766780.0,A,door,I,r,133,3,1300.3000001907349,765479.6999998093,9023,WL,B,3.0
3,7.450000047683716,learn,52549.999952316284,Tue Jan 13 2026 15:32:34 GMT-0500 (Eastern Standard Time),767612.7999992371,A,doorenter,I,enter,815,3,2133.0999994277954,765479.6999998093,9023,WL,B,3.0
3,8.75,learn,51250.0,Tue Jan 13 2026 15:32:34 GMT-0500 (Eastern Standard Time),768913.1999998093,A,a,I,a,1282,3,1299.9000005722046,767613.2999992371,9023,WL,B,4.0
3,8.967000007629395,learn,51032.999992370605,Tue Jan 13 2026 15:32:34 GMT-0500 (Eastern Standard Time),769130.0999994278,A,ar,I,r,202,3,1516.8000001907349,767613.2999992371,9023,WL,B,4.0
3,9.816999912261963,learn,50183.00008773804,Tue Jan 13 2026 15:32:34 GMT-0500 (Eastern Standard Time),769980.0,A,arm,I,m,833,3,2366.7000007629395,767613.2999992371,9023,WL,B,4.0
3,11.132999897003174,learn,48867.000102996826,Tue Jan 13 2026 15:32:34 GMT-0500 (Eastern Standard Time),771296.1999998093,A,armenter,I,enter,1295,3,3682.9000005722046,767613.2999992371,9023,WL,B,4.0
3,12.516999959945679,learn,47483.00004005432,Tue Jan 13 2026 15:32:34 GMT-0500 (Eastern Standard Time),772680.0999994278,A,s,I,s,1375,3,1383.5999994277954,771296.5,9023,WL,B,5.0
3,12.766999959945679,learn,47233.00004005432,Tue Jan 13 2026 15:32:34 GMT-0500 (Eastern Standard Time),772930.0,A,st,I,t,228,3,1633.5,771296.5,9023,WL,B,5.0
3,12.899999856948853,learn,47100.00014305115,Tue Jan 13 2026 15:32:34 GMT-0500 (Eastern Standard Time),773063.1999998093,A,sta,I,a,122,3,1766.6999998092651,771296.5,9023,WL,B,5.0
3,13.098999977111816,learn,46901.00002288818,Tue Jan 13 2026 15:32:34 GMT-0500 (Eastern Standard Time),773262.5999994278,A,star,I,r,179,3,1966.0999994277954,771296.5,9023,WL,B,5.0
3,14.016000032424927,learn,45983.99996757507,Tue Jan 13 2026 15:32:34 GMT-0500 (Eastern Standard Time),774179.5,A,starenter,I,enter,895,3,2883.0,771296.5,9023,WL,B,5.0
3,14.366999864578247,learn,45633.00013542175,Tue Jan 13 2026 15:32:34 GMT-0500 (Eastern Standard Time),774530.0,A,w,I,w,330,3,350.20000076293945,774179.7999992371,9023,WL,B,6.0
3,14.516999959945679,learn,45483.00004005432,Tue Jan 13 2026 15:32:34 GMT-0500 (Eastern Standard Time),774679.8999996185,A,wi,I,i,137,3,500.1000003814697,774179.7999992371,9023,WL,B,6.0
3,14.866999864578247,learn,45133.00013542175,Tue Jan 13 2026 15:32:34 GMT-0500 (Eastern Standard Time),775029.7999992371,A,wif,I,f,340,3,850.0,774179.7999992371,9023,WL,B,6.0
3,14.983000040054321,learn,45016.99995994568,Tue Jan 13 2026 15:32:34 GMT-0500 (Eastern Standard Time),775146.5999994278,A,wife,I,e,102,3,966.8000001907349,774179.7999992371,9023,WL,B,6.0
3,16.365999937057495,learn,43634.000062942505,Tue Jan 13 2026 15:32:34 GMT-0500 (Eastern Standard Time),776529.3999996185,A,wifeenter,I,enter,1351,3,2349.6000003814697,774179.7999992371,9023,WL,B,6.0
3,17.183000087738037,learn,42816.99991226196,Tue Jan 13 2026 15:32:34 GMT-0500 (Eastern Standard Time),777346.5999994278,A,w,I,w,797,3,816.8000001907349,776529.7999992371,9023,WL,B,7.0
3,17.26699995994568,learn,42733.00004005432,Tue Jan 13 2026 15:32:34 GMT-0500 (Eastern Standard Time),777429.8999996185,A,wi,I,i,73,3,900.1000003814697,776529.7999992371,9023,WL,B,7.0
3,17.48300004005432,learn,42516.99995994568,Tue Jan 13 2026 15:32:34 GMT-0500 (Eastern Standard Time),777646.5999994278,A,win,I,n,196,3,1116.8000001907349,776529.7999992371,9023,WL,B,7.0
3,17.683000087738037,learn,42316.99991226196,Tue Jan 13 2026 15:32:34 GMT-0500 (Eastern Standard Time),777846.2999992371,A,wind,I,d,180,3,1316.5,776529.7999992371,9023,WL,B,7.0
3,17.816999912261963,learn,42183.00008773804,Tue Jan 13 2026 15:32:34 GMT-0500 (Eastern Standard Time),777980.0,A,windo,I,o,117,3,1450.2000007629395,776529.7999992371,9023,WL,B,7.0
3,17.967000007629395,learn,42032.999992370605,Tue Jan 13 2026 15:32:34 GMT-0500 (Eastern Standard Time),778130.0,A,window,I,w,126,3,1600.2000007629395,776529.7999992371,9023,WL,B,7.0
3,18.83299994468689,learn,41167.00005531311,Tue Jan 13 2026 15:32:34 GMT-0500 (Eastern Standard Time),778996.1999998093,A,windowenter,I,enter,831,3,2466.4000005722046,776529.7999992371,9023,WL,B,7.0
3,19.5,learn,40500.0,Tue Jan 13 2026 15:32:34 GMT-0500 (Eastern Standard Time),779663.2999992371,A,p,I,p,650,3,666.7999992370605,778996.5,9023,WL,B,8.0
3,19.66700005531311,learn,40332.99994468689,Tue Jan 13 2026 15:32:34 GMT-0500 (Eastern Standard Time),779830.0,A,pu,I,u,140,3,833.5,778996.5,9023,WL,B,8.0
3,19.950000047683716,learn,40049.999952316284,Tue Jan 13 2026 15:32:34 GMT-0500 (Eastern Standard Time),780113.2999992371,A,pup,I,p,258,3,1116.7999992370605,778996.5,9023,WL,B,8.0
3,20.200000047683716,learn,39799.999952316284,Tue Jan 13 2026 15:32:34 GMT-0500 (Eastern Standard Time),780363.3999996185,A,pupi,I,i,234,3,1366.8999996185303,778996.5,9023,WL,B,8.0
3,20.467000007629395,learn,39532.999992370605,Tue Jan 13 2026 15:32:34 GMT-0500 (Eastern Standard Time),780629.8999996185,A,pupil,I,l,238,3,1633.3999996185303,778996.5,9023,WL,B,8.0
3,22.433000087738037,learn,37566.99991226196,Tue Jan 13 2026 15:32:34 GMT-0500 (Eastern Standard Time),782596.0999994278,A,pupilenter,I,enter,1940,3,3599.5999994277954,778996.5,9023,WL,B,8.0
3,24.26699995994568,learn,35733.00004005432,Tue Jan 13 2026 15:32:34 GMT-0500 (Eastern Standard Time),784430.0,A,c,I,c,1819,3,1833.5,782596.5,9023,WL,B,9.0
3,24.34999990463257,learn,35650.00009536743,Tue Jan 13 2026 15:32:34 GMT-0500 (Eastern Standard Time),784513.2999992371,A,ca,I,a,62,3,1916.7999992370605,782596.5,9023,WL,B,9.0
3,24.649999856948853,learn,35350.00014305115,Tue Jan 13 2026 15:32:34 GMT-0500 (Eastern Standard Time),784813.5,A,cab,I,b,282,3,2217.0,782596.5,9023,WL,B,9.0
3,24.816999912261963,learn,35183.00008773804,Tue Jan 13 2026 15:32:34 GMT-0500 (Eastern Standard Time),784979.8999996185,A,cabi,I,i,143,3,2383.3999996185303,782596.5,9023,WL,B,9.0
3,25.01699995994568,learn,34983.00004005432,Tue Jan 13 2026 15:32:34 GMT-0500 (Eastern Standard Time),785179.8999996185,A,cabin,I,n,184,3,2583.3999996185303,782596.5,9023,WL,B,9.0
3,25.75,learn,34250.0,Tue Jan 13 2026 15:32:34 GMT-0500 (Eastern Standard Time),785912.7999992371,A,cabinenter,I,enter,719,3,3316.2999992370605,782596.5,9023,WL,B,9.0
3,26.183000087738037,learn,33816.99991226196,Tue Jan 13 2026 15:32:34 GMT-0500 (Eastern Standard Time),786346.5999994278,A,l,I,l,421,3,433.5,785913.0999994278,9023,WL,B,10.0
3,26.34999990463257,learn,33650.00009536743,Tue Jan 13 2026 15:32:34 GMT-0500 (Eastern Standard Time),786513.2999992371,A,la,I,a,146,3,600.1999998092651,785913.0999994278,9023,WL,B,10.0
3,26.5,learn,33500.0,Tue Jan 13 2026 15:32:34 GMT-0500 (Eastern Standard Time),786663.0999994278,A,lak,I,k,137,3,750.0,785913.0999994278,9023,WL,B,10.0
3,26.700000047683716,learn,33299.999952316284,Tue Jan 13 2026 15:32:34 GMT-0500 (Eastern Standard Time),786863.2999992371,A,lake,I,e,180,3,950.1999998092651,785913.0999994278,9023,WL,B,10.0
3,27.649999856948853,learn,32350.000143051147,Tue Jan 13 2026 15:32:34 GMT-0500 (Eastern Standard Time),787812.7999992371,A,lakeenter,I,enter,940,3,1899.6999998092651,785913.0999994278,9023,WL,B,10.0
3,28.450000047683716,learn,31549.999952316284,Tue Jan 13 2026 15:32:34 GMT-0500 (Eastern Standard Time),788613.2999992371,A,p,I,p,777,3,800.0999994277954,787813.1999998093,9023,WL,B,11.0
3,28.717000007629395,learn,31282.999992370605,Tue Jan 13 2026 15:32:34 GMT-0500 (Eastern Standard Time),788879.8999996185,A,pi,I,i,246,3,1066.6999998092651,787813.1999998093,9023,WL,B,11.0
3,28.98300004005432,learn,31016.99995994568,Tue Jan 13 2026 15:32:34 GMT-0500 (Eastern Standard Time),789146.6999998093,A,pip,I,p,251,3,1333.5,787813.1999998093,9023,WL,B,11.0
3,29.316999912261963,learn,30683.000087738037,Tue Jan 13 2026 15:32:34 GMT-0500 (Eastern Standard Time),789479.8999996185,A,pipe,I,e,320,3,1666.6999998092651,787813.1999998093,9023,WL,B,11.0
3,30.200000047683716,learn,29799.999952316284,Tue Jan 13 2026 15:32:34 GMT-0500 (Eastern Standard Time),790362.7999992371,A,pipeenter,I,enter,867,3,2549.5999994277954,787813.1999998093,9023,WL,B,11.0
3,32.56699991226196,learn,27433.000087738037,Tue Jan 13 2026 15:32:34 GMT-0500 (Eastern Standard Time),792729.8999996185,A,s,I,s,2356,3,2366.699999809265,790363.1999998093,9023,WL,B,12.0
3,32.782999992370605,learn,27217.000007629395,Tue Jan 13 2026 15:32:34 GMT-0500 (Eastern Standard Time),792946.6999998093,A,sk,I,k,194,3,2583.5,790363.1999998093,9023,WL,B,12.0
3,33.03399991989136,learn,26966.000080108643,Tue Jan 13 2026 15:32:34 GMT-0500 (Eastern Standard Time),793196.6999998093,A,ski,I,i,224,3,2833.5,790363.1999998093,9023,WL,B,12.0
3,33.382999897003174,learn,26617.000102996826,Tue Jan 13 2026 15:32:34 GMT-0500 (Eastern Standard Time),793546.5999994278,A,skin,I,n,335,3,3183.3999996185303,790363.1999998093,9023,WL,B,12.0
3,35.43300008773804,learn,24566.999912261963,Tue Jan 13 2026 15:32:34 GMT-0500 (Eastern Standard Time),795596.5999994278,A,skinf,I,f,2034,3,5233.39999961853,790363.1999998093,9023,WL,B,12.0
3,35.532999992370605,learn,24467.000007629395,Tue Jan 13 2026 15:32:34 GMT-0500 (Eastern Standard Time),795696.5999994278,A,skinfi,I,i,78,3,5333.39999961853,790363.1999998093,9023,WL,B,12.0
3,35.717000007629395,learn,24282.999992370605,Tue Jan 13 2026 15:32:34 GMT-0500 (Eastern Standard Time),795879.8999996185,A,skinfir,I,r,162,3,5516.699999809265,790363.1999998093,9023,WL,B,12.0
3,35.83299994468689,learn,24167.00005531311,Tue Jan 13 2026 15:32:34 GMT-0500 (Eastern Standard Time),795996.5999994278,A,skinfire,I,e,99,3,5633.39999961853,790363.1999998093,9023,WL,B,12.0
3,36.58299994468689,learn,23417.00005531311,Tue Jan 13 2026 15:32:34 GMT-0500 (Eastern Standard Time),796746.5999994278,A,skinfir,I,backspace,735,3,6383.39999961853,790363.1999998093,9023,WL,B,12.0
3,36.81699991226196,learn,23183.000087738037,Tue Jan 13 2026 15:32:34 GMT-0500 (Eastern Standard Time),796979.8999996185,A,skinfi,I,backspace,208,3,6616.699999809265,790363.1999998093,9023,WL,B,12.0
3,36.98399996757507,learn,23016.000032424927,Tue Jan 13 2026 15:32:34 GMT-0500 (Eastern Standard Time),797146.6999998093,A,skinf,I,backspace,143,3,6783.5,790363.1999998093,9023,WL,B,12.0
3,37.200000047683716,learn,22799.999952316284,Tue Jan 13 2026 15:32:34 GMT-0500 (Eastern Standard Time),797363.2999992371,A,skin,I,backspace,182,3,7000.099999427795,790363.1999998093,9023,WL,B,12.0
3,37.68300008773804,learn,22316.999912261963,Tue Jan 13 2026 15:32:34 GMT-0500 (Eastern Standard Time),797846.0999994278,A,skinenter,I,enter,472,3,7482.89999961853,790363.1999998093,9023,WL,B,12.0
3,38.48300004005432,learn,21516.99995994568,Tue Jan 13 2026 15:32:34 GMT-0500 (Eastern Standard Time),798646.1999998093,A,f,I,f,793,3,799.8000001907349,797846.3999996185,9023,WL,B,13.0
3,38.58299994468689,learn,21417.00005531311,Tue Jan 13 2026 15:32:34 GMT-0500 (Eastern Standard Time),798746.5999994278,A,fi,I,i,84,3,900.1999998092651,797846.3999996185,9023,WL,B,13.0
3,38.75,learn,21250.0,Tue Jan 13 2026 15:32:34 GMT-0500 (Eastern Standard Time),798913.3999996185,A,fir,I,r,145,3,1067.0,797846.3999996185,9023,WL,B,13.0
3,38.86699986457825,learn,21133.000135421753,Tue Jan 13 2026 15:32:34 GMT-0500 (Eastern Standard Time),799030.0,A,fire,I,e,89,3,1183.6000003814697,797846.3999996185,9023,WL,B,13.0
3,39.68300008773804,learn,20316.999912261963,Tue Jan 13 2026 15:32:34 GMT-0500 (Eastern Standard Time),799846.0999994278,A,fireenter,I,enter,796,3,1999.6999998092651,797846.3999996185,9023,WL,B,13.0
3,40.16700005531311,learn,19832.99994468689,Tue Jan 13 2026 15:32:34 GMT-0500 (Eastern Standard Time),800329.8999996185,A,c,I,c,472,3,483.5,799846.3999996185,9023,WL,B,14.0
3,40.299999952316284,learn,19700.000047683716,Tue Jan 13 2026 15:32:34 GMT-0500 (Eastern Standard Time),800463.3999996185,A,cl,I,l,114,3,617.0,799846.3999996185,9023,WL,B,14.0
3,40.48300004005432,learn,19516.99995994568,Tue Jan 13 2026 15:32:34 GMT-0500 (Eastern Standard Time),800646.1999998093,A,clo,I,o,172,3,799.8000001907349,799846.3999996185,9023,WL,B,14.0
3,40.86699986457825,learn,19133.000135421753,Tue Jan 13 2026 15:32:34 GMT-0500 (Eastern Standard Time),801030.0,A,cloc,I,c,364,3,1183.6000003814697,799846.3999996185,9023,WL,B,14.0
3,40.98300004005432,learn,19016.99995994568,Tue Jan 13 2026 15:32:34 GMT-0500 (Eastern Standard Time),801146.6999998093,A,clock,I,k,102,3,1300.3000001907349,799846.3999996185,9023,WL,B,14.0
3,41.299999952316284,learn,18700.000047683716,Tue Jan 13 2026 15:32:34 GMT-0500 (Eastern Standard Time),801462.6999998093,A,clockenter,I,enter,295,3,1616.3000001907349,799846.3999996185,9023,WL,B,14.0
3,60.01699995994568,learn,-16.99995994567871,Tue Jan 13 2026 15:32:34 GMT-0500 (Eastern Standard Time),820180.1999998093,A,None,I,None,18710,3,18717.10000038147,801463.0999994278,9023,WL,B,15.0
4,1.183000087738037,learn,58816.99991226196,Tue Jan 13 2026 15:32:34 GMT-0500 (Eastern Standard Time),888896.5,A,s,I,s,1162,3,1182.9000005722046,887713.5999994278,9023,WL,B,1.0
4,1.4170000553131104,learn,58582.99994468689,Tue Jan 13 2026 15:32:34 GMT-0500 (Eastern Standard Time),889129.7999992371,A,st,I,t,218,3,1416.1999998092651,887713.5999994278,9023,WL,B,1.0
4,1.683000087738037,learn,58316.99991226196,Tue Jan 13 2026 15:32:34 GMT-0500 (Eastern Standard Time),889396.5999994278,A,str,I,r,241,3,1683.0,887713.5999994278,9023,WL,B,1.0
4,1.9170000553131104,learn,58082.99994468689,Tue Jan 13 2026 15:32:34 GMT-0500 (Eastern Standard Time),889629.7999992371,A,stre,I,e,214,3,1916.1999998092651,887713.5999994278,9023,WL,B,1.0
4,2.0829999446868896,learn,57917.00005531311,Tue Jan 13 2026 15:32:34 GMT-0500 (Eastern Standard Time),889796.5,A,stree,I,e,141,3,2082.9000005722046,887713.5999994278,9023,WL,B,1.0
4,2.2170000076293945,learn,57782.999992370605,Tue Jan 13 2026 15:32:34 GMT-0500 (Eastern Standard Time),889929.6999998093,A,street,I,t,109,3,2216.1000003814697,887713.5999994278,9023,WL,B,1.0
4,3.1660001277923584,learn,56833.99987220764,Tue Jan 13 2026 15:32:34 GMT-0500 (Eastern Standard Time),890879.3999996185,A,streetenter,I,enter,919,3,3165.800000190735,887713.5999994278,9023,WL,B,1.0
4,3.5329999923706055,learn,56467.000007629395,Tue Jan 13 2026 15:32:34 GMT-0500 (Eastern Standard Time),891246.5,A,g,I,g,351,3,366.80000019073486,890879.6999998093,9023,WL,B,2.0
4,3.75,learn,56250.0,Tue Jan 13 2026 15:32:34 GMT-0500 (Eastern Standard Time),891463.1999998093,A,gr,I,r,205,3,583.5,890879.6999998093,9023,WL,B,2.0
4,3.867000102996826,learn,56132.999897003174,Tue Jan 13 2026 15:32:34 GMT-0500 (Eastern Standard Time),891579.7999992371,A,gra,I,a,100,3,700.0999994277954,890879.6999998093,9023,WL,B,2.0
4,4.117000102996826,learn,55882.999897003174,Tue Jan 13 2026 15:32:34 GMT-0500 (Eastern Standard Time),891829.7999992371,A,gras,I,s,215,3,950.0999994277954,890879.6999998093,9023,WL,B,2.0
4,4.25,learn,55750.0,Tue Jan 13 2026 15:32:34 GMT-0500 (Eastern Standard Time),891963.1999998093,A,grass,I,s,118,3,1083.5,890879.6999998093,9023,WL,B,2.0
4,5.450000047683716,learn,54549.999952316284,Tue Jan 13 2026 15:32:34 GMT-0500 (Eastern Standard Time),893162.6999998093,A,grassenter,I,enter,1184,3,2283.0,890879.6999998093,9023,WL,B,2.0
4,6.115999937057495,learn,53884.000062942505,Tue Jan 13 2026 15:32:34 GMT-0500 (Eastern Standard Time),893829.5999994278,A,d,I,d,659,3,666.3999996185303,893163.1999998093,9023,WL,B,3.0
4,6.433000087738037,learn,53566.99991226196,Tue Jan 13 2026 15:32:34 GMT-0500 (Eastern Standard Time),894146.5,A,do,I,o,295,3,983.3000001907349,893163.1999998093,9023,WL,B,3.0
4,6.58299994468689,learn,53417.00005531311,Tue Jan 13 2026 15:32:34 GMT-0500 (Eastern Standard Time),894296.5,A,doo,I,o,137,3,1133.3000001907349,893163.1999998093,9023,WL,B,3.0
4,6.7170000076293945,learn,53282.999992370605,Tue Jan 13 2026 15:32:34 GMT-0500 (Eastern Standard Time),894429.8999996185,A,door,I,r,115,3,1266.6999998092651,893163.1999998093,9023,WL,B,3.0
4,7.516000032424927,learn,52483.99996757507,Tue Jan 13 2026 15:32:34 GMT-0500 (Eastern Standard Time),895229.2999992371,A,doorenter,I,enter,773,3,2066.0999994277954,893163.1999998093,9023,WL,B,3.0
4,7.799999952316284,learn,52200.000047683716,Tue Jan 13 2026 15:32:34 GMT-0500 (Eastern Standard Time),895513.0999994278,A,a,I,a,273,3,283.5,895229.5999994278,9023,WL,B,4.0
4,8.08299994468689,learn,51917.00005531311,Tue Jan 13 2026 15:32:34 GMT-0500 (Eastern Standard Time),895796.5,A,ar,I,r,258,3,566.9000005722046,895229.5999994278,9023,WL,B,4.0
4,8.799999952316284,learn,51200.000047683716,Tue Jan 13 2026 15:32:34 GMT-0500 (Eastern Standard Time),896513.1999998093,A,arm,I,m,696,3,1283.6000003814697,895229.5999994278,9023,WL,B,4.0
4,9.666000127792358,learn,50333.99987220764,Tue Jan 13 2026 15:32:34 GMT-0500 (Eastern Standard Time),897379.2999992371,A,armenter,I,enter,838,3,2149.699999809265,895229.5999994278,9023,WL,B,4.0
4,10.066999912261963,learn,49933.00008773804,Tue Jan 13 2026 15:32:34 GMT-0500 (Eastern Standard Time),897779.8999996185,A,s,I,s,379,3,400.1000003814697,897379.7999992371,9023,WL,B,5.0
4,10.400000095367432,learn,49599.99990463257,Tue Jan 13 2026 15:32:34 GMT-0500 (Eastern Standard Time),898113.0999994278,A,st,I,t,302,3,733.3000001907349,897379.7999992371,9023,WL,B,5.0
4,10.650000095367432,learn,49349.99990463257,Tue Jan 13 2026 15:32:34 GMT-0500 (Eastern Standard Time),898363.1999998093,A,sta,I,a,234,3,983.4000005722046,897379.7999992371,9023,WL,B,5.0
4,10.91700005531311,learn,49082.99994468689,Tue Jan 13 2026 15:32:34 GMT-0500 (Eastern Standard Time),898629.5999994278,A,star,I,r,246,3,1249.8000001907349,897379.7999992371,9023,WL,B,5.0
4,11.799999952316284,learn,48200.000047683716,Tue Jan 13 2026 15:32:34 GMT-0500 (Eastern Standard Time),899512.5999994278,A,starenter,I,enter,870,3,2132.800000190735,897379.7999992371,9023,WL,B,5.0
4,12.516000032424927,learn,47483.99996757507,Tue Jan 13 2026 15:32:34 GMT-0500 (Eastern Standard Time),900229.5999994278,A,w,I,w,710,3,716.6999998092651,899512.8999996185,9023,WL,B,6.0
4,12.700000047683716,learn,47299.999952316284,Tue Jan 13 2026 15:32:34 GMT-0500 (Eastern Standard Time),900413.1999998093,A,wi,I,i,166,3,900.3000001907349,899512.8999996185,9023,WL,B,6.0
4,13.016999959945679,learn,46983.00004005432,Tue Jan 13 2026 15:32:34 GMT-0500 (Eastern Standard Time),900729.7999992371,A,wif,I,f,294,3,1216.8999996185303,899512.8999996185,9023,WL,B,6.0
4,13.117000102996826,learn,46882.999897003174,Tue Jan 13 2026 15:32:34 GMT-0500 (Eastern Standard Time),900829.7999992371,A,wife,I,e,81,3,1316.8999996185303,899512.8999996185,9023,WL,B,6.0
4,13.815999984741211,learn,46184.00001525879,Tue Jan 13 2026 15:32:34 GMT-0500 (Eastern Standard Time),901529.2999992371,A,wifeenter,I,enter,676,3,2016.3999996185303,899512.8999996185,9023,WL,B,6.0
4,14.867000102996826,learn,45132.999897003174,Tue Jan 13 2026 15:32:34 GMT-0500 (Eastern Standard Time),902579.6999998093,A,c,I,c,1029,3,1050.1000003814697,901529.5999994278,9023,WL,B,7.0
4,15.032999992370605,learn,44967.000007629395,Tue Jan 13 2026 15:32:34 GMT-0500 (Eastern Standard Time),902746.5,A,ci,I,i,152,3,1216.9000005722046,901529.5999994278,9023,WL,B,7.0
4,15.299999952316284,learn,44700.000047683716,Tue Jan 13 2026 15:32:34 GMT-0500 (Eastern Standard Time),903013.1999998093,A,cit,I,t,231,3,1483.6000003814697,901529.5999994278,9023,WL,B,7.0
4,15.466000080108643,learn,44533.99991989136,Tue Jan 13 2026 15:32:34 GMT-0500 (Eastern Standard Time),903179.3999996185,A,city,I,y,149,3,1649.8000001907349,901529.5999994278,9023,WL,B,7.0
4,16.032999992370605,learn,43967.000007629395,Tue Jan 13 2026 15:32:34 GMT-0500 (Eastern Standard Time),903746.0,A,cityenter,I,enter,545,3,2216.4000005722046,901529.5999994278,9023,WL,B,7.0
4,16.73300004005432,learn,43266.99995994568,Tue Jan 13 2026 15:32:34 GMT-0500 (Eastern Standard Time),904446.5,A,p,I,p,684,3,700.1000003814697,903746.3999996185,9023,WL,B,8.0
4,16.91700005531311,learn,43082.99994468689,Tue Jan 13 2026 15:32:34 GMT-0500 (Eastern Standard Time),904629.7999992371,A,pu,I,u,157,3,883.3999996185303,903746.3999996185,9023,WL,B,8.0
4,17.16700005531311,learn,42832.99994468689,Tue Jan 13 2026 15:32:34 GMT-0500 (Eastern Standard Time),904879.7999992371,A,pup,I,p,222,3,1133.3999996185303,903746.3999996185,9023,WL,B,8.0
4,17.433000087738037,learn,42566.99991226196,Tue Jan 13 2026 15:32:34 GMT-0500 (Eastern Standard Time),905145.8999996185,A,pupi,I,i,252,3,1399.5,903746.3999996185,9023,WL,B,8.0
4,17.700000047683716,learn,42299.999952316284,Tue Jan 13 2026 15:32:34 GMT-0500 (Eastern Standard Time),905413.2999992371,A,pupil,I,l,245,3,1666.8999996185303,903746.3999996185,9023,WL,B,8.0
4,18.91700005531311,learn,41082.99994468689,Tue Jan 13 2026 15:32:34 GMT-0500 (Eastern Standard Time),906630.2999992371,A,pupilenter,I,enter,1205,3,2883.8999996185303,903746.3999996185,9023,WL,B,8.0
4,20.76699995994568,learn,39233.00004005432,Tue Jan 13 2026 15:32:34 GMT-0500 (Eastern Standard Time),908479.7999992371,A,c,I,c,1833,3,1849.1999998092651,906630.5999994278,9023,WL,B,9.0
4,20.83299994468689,learn,39167.00005531311,Tue Jan 13 2026 15:32:34 GMT-0500 (Eastern Standard Time),908546.0999994278,A,ca,I,a,42,3,1915.5,906630.5999994278,9023,WL,B,9.0
4,21.08299994468689,learn,38917.00005531311,Tue Jan 13 2026 15:32:34 GMT-0500 (Eastern Standard Time),908796.5,A,cab,I,b,233,3,2165.9000005722046,906630.5999994278,9023,WL,B,9.0
4,21.23300004005432,learn,38766.99995994568,Tue Jan 13 2026 15:32:34 GMT-0500 (Eastern Standard Time),908946.5,A,cabi,I,i,127,3,2315.9000005722046,906630.5999994278,9023,WL,B,9.0
4,21.549999952316284,learn,38450.000047683716,Tue Jan 13 2026 15:32:34 GMT-0500 (Eastern Standard Time),909263.0999994278,A,cabin,I,n,297,3,2632.5,906630.5999994278,9023,WL,B,9.0
4,22.25,learn,37750.0,Tue Jan 13 2026 15:32:34 GMT-0500 (Eastern Standard Time),909962.5999994278,A,cabinenter,I,enter,685,3,3332.0,906630.5999994278,9023,WL,B,9.0
4,22.933000087738037,learn,37066.99991226196,Tue Jan 13 2026 15:32:34 GMT-0500 (Eastern Standard Time),910646.0999994278,A,l,I,l,676,3,683.0999994277954,909963.0,9023,WL,B,10.0
4,23.066999912261963,learn,36933.00008773804,Tue Jan 13 2026 15:32:34 GMT-0500 (Eastern Standard Time),910779.7999992371,A,la,I,a,119,3,816.7999992370605,909963.0,9023,WL,B,10.0
4,23.217000007629395,learn,36782.999992370605,Tue Jan 13 2026 15:32:34 GMT-0500 (Eastern Standard Time),910929.6999998093,A,lak,I,k,127,3,966.6999998092651,909963.0,9023,WL,B,10.0
4,23.34999990463257,learn,36650.00009536743,Tue Jan 13 2026 15:32:34 GMT-0500 (Eastern Standard Time),911062.8999996185,A,lake,I,e,122,3,1099.8999996185303,909963.0,9023,WL,B,10.0
4,23.58299994468689,learn,36417.00005531311,Tue Jan 13 2026 15:32:34 GMT-0500 (Eastern Standard Time),911296.0,A,lakeenter,I,enter,212,3,1333.0,909963.0,9023,WL,B,10.0
4,24.633000135421753,learn,35366.99986457825,Tue Jan 13 2026 15:32:34 GMT-0500 (Eastern Standard Time),912346.3999996185,A,p,I,p,1038,3,1050.0,911296.3999996185,9023,WL,B,11.0
4,24.84999990463257,learn,35150.00009536743,Tue Jan 13 2026 15:32:34 GMT-0500 (Eastern Standard Time),912563.1999998093,A,pi,I,i,193,3,1266.8000001907349,911296.3999996185,9023,WL,B,11.0
4,24.98300004005432,learn,35016.99995994568,Tue Jan 13 2026 15:32:34 GMT-0500 (Eastern Standard Time),912696.3999996185,A,pip,I,p,112,3,1400.0,911296.3999996185,9023,WL,B,11.0
4,25.282999992370605,learn,34717.000007629395,Tue Jan 13 2026 15:32:34 GMT-0500 (Eastern Standard Time),912996.3999996185,A,pipe,I,e,274,3,1700.0,911296.3999996185,9023,WL,B,11.0
4,25.949000120162964,learn,34050.999879837036,Tue Jan 13 2026 15:32:34 GMT-0500 (Eastern Standard Time),913662.5999994278,A,pipeenter,I,enter,644,3,2366.199999809265,911296.3999996185,9023,WL,B,11.0
4,26.683000087738037,learn,33316.99991226196,Tue Jan 13 2026 15:32:34 GMT-0500 (Eastern Standard Time),914396.5,A,s,I,s,720,3,733.6000003814697,913662.8999996185,9023,WL,B,12.0
4,26.91700005531311,learn,33082.99994468689,Tue Jan 13 2026 15:32:34 GMT-0500 (Eastern Standard Time),914629.7999992371,A,sk,I,k,222,3,966.8999996185303,913662.8999996185,9023,WL,B,12.0
4,27.15000009536743,learn,32849.99990463257,Tue Jan 13 2026 15:32:34 GMT-0500 (Eastern Standard Time),914863.0999994278,A,ski,I,i,213,3,1200.1999998092651,913662.8999996185,9023,WL,B,12.0
4,27.383000135421753,learn,32616.999864578247,Tue Jan 13 2026 15:32:34 GMT-0500 (Eastern Standard Time),915096.5,A,skin,I,n,220,3,1433.6000003814697,913662.8999996185,9023,WL,B,12.0
4,28.615999937057495,learn,31384.000062942505,Tue Jan 13 2026 15:32:34 GMT-0500 (Eastern Standard Time),916329.2999992371,A,skinenter,I,enter,1218,3,2666.3999996185303,913662.8999996185,9023,WL,B,12.0
4,29.16700005531311,learn,30832.99994468689,Tue Jan 13 2026 15:32:34 GMT-0500 (Eastern Standard Time),916879.7999992371,A,f,I,f,532,3,550.1999998092651,916329.5999994278,9023,WL,B,13.0
4,29.282999992370605,learn,30717.000007629395,Tue Jan 13 2026 15:32:34 GMT-0500 (Eastern Standard Time),916996.5,A,fi,I,i,92,3,666.9000005722046,916329.5999994278,9023,WL,B,13.0
4,29.48300004005432,learn,30516.99995994568,Tue Jan 13 2026 15:32:34 GMT-0500 (Eastern Standard Time),917196.5,A,fir,I,r,175,3,866.9000005722046,916329.5999994278,9023,WL,B,13.0
4,29.59999990463257,learn,30400.00009536743,Tue Jan 13 2026 15:32:34 GMT-0500 (Eastern Standard Time),917313.1999998093,A,fire,I,e,86,3,983.6000003814697,916329.5999994278,9023,WL,B,13.0
4,30.348999977111816,learn,29651.000022888184,Tue Jan 13 2026 15:32:34 GMT-0500 (Eastern Standard Time),918062.5999994278,A,fireenter,I,enter,721,3,1733.0,916329.5999994278,9023,WL,B,13.0
4,30.782999992370605,learn,29217.000007629395,Tue Jan 13 2026 15:32:34 GMT-0500 (Eastern Standard Time),918496.3999996185,A,c,I,c,416,3,433.5,918062.8999996185,9023,WL,B,14.0
4,30.933000087738037,learn,29066.999912261963,Tue Jan 13 2026 15:32:34 GMT-0500 (Eastern Standard Time),918646.1999998093,A,cl,I,l,138,3,583.3000001907349,918062.8999996185,9023,WL,B,14.0
4,31.15000009536743,learn,28849.99990463257,Tue Jan 13 2026 15:32:34 GMT-0500 (Eastern Standard Time),918863.0999994278,A,clo,I,o,190,3,800.1999998092651,918062.8999996185,9023,WL,B,14.0
4,31.383000135421753,learn,28616.999864578247,Tue Jan 13 2026 15:32:34 GMT-0500 (Eastern Standard Time),919096.5,A,cloc,I,c,220,3,1033.6000003814697,918062.8999996185,9023,WL,B,14.0
4,31.51699995994568,learn,28483.00004005432,Tue Jan 13 2026 15:32:34 GMT-0500 (Eastern Standard Time),919229.7999992371,A,clock,I,k,114,3,1166.8999996185303,918062.8999996185,9023,WL,B,14.0
4,32.09999990463257,learn,27900.00009536743,Tue Jan 13 2026 15:32:34 GMT-0500 (Eastern Standard Time),919812.5999994278,A,clockenter,I,enter,547,3,1749.6999998092651,918062.8999996185,9023,WL,B,14.0
4,60.01699995994568,learn,-16.99995994567871,Tue Jan 13 2026 15:32:34 GMT-0500 (Eastern Standard Time),947729.8999996185,A,None,I,None,27910,3,27917.0,919812.8999996185,9023,WL,B,15.0
5,0.7000000476837158,learn,60000.0,Tue Jan 13 2026 15:32:34 GMT-0500 (Eastern Standard Time),1015763.3999996185,A,s,I,s,679,3,700.3000001907349,1015063.0999994278,9023,WL,B,1.0
5,0.9830000400543213,learn,60000.0,Tue Jan 13 2026 15:32:34 GMT-0500 (Eastern Standard Time),1016046.2999992371,A,st,I,t,262,3,983.1999998092651,1015063.0999994278,9023,WL,B,1.0
5,1.25,learn,60000.0,Tue Jan 13 2026 15:32:34 GMT-0500 (Eastern Standard Time),1016313.0,A,str,I,r,253,3,1249.9000005722046,1015063.0999994278,9023,WL,B,1.0
5,1.5500001907348633,learn,60000.0,Tue Jan 13 2026 15:32:34 GMT-0500 (Eastern Standard Time),1016613.0,A,stre,I,e,275,3,1549.9000005722046,1015063.0999994278,9023,WL,B,1.0
5,1.7170000076293945,learn,60000.0,Tue Jan 13 2026 15:32:34 GMT-0500 (Eastern Standard Time),1016779.7999992371,A,stree,I,e,149,3,1716.6999998092651,1015063.0999994278,9023,WL,B,1.0
5,1.9000000953674316,learn,60000.0,Tue Jan 13 2026 15:32:34 GMT-0500 (Eastern Standard Time),1016963.0999994278,A,street,I,t,159,3,1900.0,1015063.0999994278,9023,WL,B,1.0
5,2.5830001831054688,learn,60000.0,Tue Jan 13 2026 15:32:34 GMT-0500 (Eastern Standard Time),1017645.7999992371,A,streetenter,I,enter,664,3,2582.699999809265,1015063.0999994278,9023,WL,B,1.0
5,3.25,learn,60000.0,Tue Jan 13 2026 15:32:34 GMT-0500 (Eastern Standard Time),1018313.0,A,g,I,g,656,3,666.8000001907349,1017646.1999998093,9023,WL,B,2.0
5,3.5,learn,60000.0,Tue Jan 13 2026 15:32:34 GMT-0500 (Eastern Standard Time),1018563.0,A,gr,I,r,226,3,916.8000001907349,1017646.1999998093,9023,WL,B,2.0
5,3.616000175476074,learn,60000.0,Tue Jan 13 2026 15:32:34 GMT-0500 (Eastern Standard Time),1018679.5999994278,A,gra,I,a,105,3,1033.3999996185303,1017646.1999998093,9023,WL,B,2.0
5,3.950000047683716,learn,60000.0,Tue Jan 13 2026 15:32:34 GMT-0500 (Eastern Standard Time),1019013.0,A,gras,I,s,298,3,1366.8000001907349,1017646.1999998093,9023,WL,B,2.0
5,4.1000001430511475,learn,60000.0,Tue Jan 13 2026 15:32:34 GMT-0500 (Eastern Standard Time),1019163.0,A,grass,I,s,133,3,1516.8000001907349,1017646.1999998093,9023,WL,B,2.0
5,4.383000135421753,learn,60000.0,Tue Jan 13 2026 15:32:34 GMT-0500 (Eastern Standard Time),1019445.7999992371,A,grassenter,I,enter,272,3,1799.5999994277954,1017646.1999998093,9023,WL,B,2.0
5,4.866000175476074,learn,60000.0,Tue Jan 13 2026 15:32:34 GMT-0500 (Eastern Standard Time),1019929.5999994278,A,d,I,d,472,3,483.30000019073486,1019446.2999992371,9023,WL,B,3.0
5,5.16700005531311,learn,60000.0,Tue Jan 13 2026 15:32:34 GMT-0500 (Eastern Standard Time),1020229.5999994278,A,do,I,o,273,3,783.3000001907349,1019446.2999992371,9023,WL,B,3.0
5,5.31600022315979,learn,60000.0,Tue Jan 13 2026 15:32:34 GMT-0500 (Eastern Standard Time),1020379.5999994278,A,doo,I,o,134,3,933.3000001907349,1019446.2999992371,9023,WL,B,3.0
5,5.483000040054321,learn,60000.0,Tue Jan 13 2026 15:32:34 GMT-0500 (Eastern Standard Time),1020546.3999996185,A,door,I,r,134,3,1100.1000003814697,1019446.2999992371,9023,WL,B,3.0
5,5.950000047683716,learn,60000.0,Tue Jan 13 2026 15:32:34 GMT-0500 (Eastern Standard Time),1021012.6999998093,A,doorenter,I,enter,455,3,1566.4000005722046,1019446.2999992371,9023,WL,B,3.0
5,6.233000040054321,learn,60000.0,Tue Jan 13 2026 15:32:34 GMT-0500 (Eastern Standard Time),1021296.3999996185,A,a,I,a,266,3,283.3999996185303,1021013.0,9023,WL,B,4.0
5,6.433000087738037,learn,60000.0,Tue Jan 13 2026 15:32:34 GMT-0500 (Eastern Standard Time),1021496.3999996185,A,ar,I,r,188,3,483.3999996185303,1021013.0,9023,WL,B,4.0
5,6.766000032424927,learn,60000.0,Tue Jan 13 2026 15:32:34 GMT-0500 (Eastern Standard Time),1021829.3999996185,A,arm,I,m,322,3,816.3999996185303,1021013.0,9023,WL,B,4.0
5,7.249000072479248,learn,60000.0,Tue Jan 13 2026 15:32:34 GMT-0500 (Eastern Standard Time),1022312.5,A,armenter,I,enter,470,3,1299.5,1021013.0,9023,WL,B,4.0
5,8.833000183105469,learn,60000.0,Tue Jan 13 2026 15:32:34 GMT-0500 (Eastern Standard Time),1023896.2999992371,A,s,I,s,1574,3,1583.5,1022312.7999992371,9023,WL,B,5.0
5,9.050000190734863,learn,60000.0,Tue Jan 13 2026 15:32:34 GMT-0500 (Eastern Standard Time),1024113.0,A,st,I,t,196,3,1800.2000007629395,1022312.7999992371,9023,WL,B,5.0
5,9.166000127792358,learn,60000.0,Tue Jan 13 2026 15:32:34 GMT-0500 (Eastern Standard Time),1024229.2999992371,A,sta,I,a,87,3,1916.5,1022312.7999992371,9023,WL,B,5.0
5,9.300000190734863,learn,60000.0,Tue Jan 13 2026 15:32:34 GMT-0500 (Eastern Standard Time),1024363.0,A,star,I,r,117,3,2050.2000007629395,1022312.7999992371,9023,WL,B,5.0
5,9.967000007629395,learn,60000.0,Tue Jan 13 2026 15:32:34 GMT-0500 (Eastern Standard Time),1025030.1999998093,A,starenter,I,enter,655,3,2717.4000005722046,1022312.7999992371,9023,WL,B,5.0
5,10.550000190734863,learn,60000.0,Tue Jan 13 2026 15:32:34 GMT-0500 (Eastern Standard Time),1025612.8999996185,A,w,I,w,568,3,582.3999996185303,1025030.5,9023,WL,B,6.0
5,10.666000127792358,learn,60000.0,Tue Jan 13 2026 15:32:34 GMT-0500 (Eastern Standard Time),1025729.5999994278,A,wi,I,i,94,3,699.0999994277954,1025030.5,9023,WL,B,6.0
5,10.933000087738037,learn,60000.0,Tue Jan 13 2026 15:32:34 GMT-0500 (Eastern Standard Time),1025996.2999992371,A,wif,I,f,241,3,965.7999992370605,1025030.5,9023,WL,B,6.0
5,11.033000230789185,learn,60000.0,Tue Jan 13 2026 15:32:34 GMT-0500 (Eastern Standard Time),1026096.2999992371,A,wife,I,e,78,3,1065.7999992370605,1025030.5,9023,WL,B,6.0
5,11.416000127792358,learn,60000.0,Tue Jan 13 2026 15:32:34 GMT-0500 (Eastern Standard Time),1026479.1999998093,A,wifeenter,I,enter,360,3,1448.6999998092651,1025030.5,9023,WL,B,6.0
5,13.150000095367432,learn,60000.0,Tue Jan 13 2026 15:32:34 GMT-0500 (Eastern Standard Time),1028213.0,A,w,I,w,1712,3,1733.5,1026479.5,9023,WL,B,7.0
5,13.300000190734863,learn,60000.0,Tue Jan 13 2026 15:32:34 GMT-0500 (Eastern Standard Time),1028363.0,A,wi,I,i,134,3,1883.5,1026479.5,9023,WL,B,7.0
5,13.533000230789185,learn,60000.0,Tue Jan 13 2026 15:32:34 GMT-0500 (Eastern Standard Time),1028596.2999992371,A,win,I,n,208,3,2116.7999992370605,1026479.5,9023,WL,B,7.0
5,13.850000143051147,learn,60000.0,Tue Jan 13 2026 15:32:34 GMT-0500 (Eastern Standard Time),1028913.0,A,wind,I,d,296,3,2433.5,1026479.5,9023,WL,B,7.0
5,13.950000047683716,learn,60000.0,Tue Jan 13 2026 15:32:34 GMT-0500 (Eastern Standard Time),1029013.0999994278,A,windo,I,o,75,3,2533.5999994277954,1026479.5,9023,WL,B,7.0
5,14.100000143051147,learn,60000.0,Tue Jan 13 2026 15:32:34 GMT-0500 (Eastern Standard Time),1029163.0999994278,A,window,I,w,125,3,2683.5999994277954,1026479.5,9023,WL,B,7.0
5,14.64900016784668,learn,60000.0,Tue Jan 13 2026 15:32:34 GMT-0500 (Eastern Standard Time),1029712.5,A,windowenter,I,enter,518,3,3233.0,1026479.5,9023,WL,B,7.0
5,15.183000087738037,learn,60000.0,Tue Jan 13 2026 15:32:34 GMT-0500 (Eastern Standard Time),1030246.0999994278,A,p,I,p,526,3,533.3000001907349,1029712.7999992371,9023,WL,B,8.0
5,15.367000102996826,learn,60000.0,Tue Jan 13 2026 15:32:34 GMT-0500 (Eastern Standard Time),1030429.6999998093,A,pu,I,u,166,3,716.9000005722046,1029712.7999992371,9023,WL,B,8.0
5,15.600000143051147,learn,60000.0,Tue Jan 13 2026 15:32:34 GMT-0500 (Eastern Standard Time),1030662.8999996185,A,pup,I,p,221,3,950.1000003814697,1029712.7999992371,9023,WL,B,8.0
5,15.866000175476074,learn,60000.0,Tue Jan 13 2026 15:32:34 GMT-0500 (Eastern Standard Time),1030929.5999994278,A,pupi,I,i,236,3,1216.8000001907349,1029712.7999992371,9023,WL,B,8.0
5,16.117000102996826,learn,60000.0,Tue Jan 13 2026 15:32:34 GMT-0500 (Eastern Standard Time),1031179.6999998093,A,pupil,I,l,234,3,1466.9000005722046,1029712.7999992371,9023,WL,B,8.0
5,17.433000087738037,learn,60000.0,Tue Jan 13 2026 15:32:34 GMT-0500 (Eastern Standard Time),1032495.8999996185,A,pupilenter,I,enter,1294,3,2783.1000003814697,1029712.7999992371,9023,WL,B,8.0
5,18.600000143051147,learn,60000.0,Tue Jan 13 2026 15:32:34 GMT-0500 (Eastern Standard Time),1033663.0,A,c,I,c,1151,3,1166.8000001907349,1032496.1999998093,9023,WL,B,9.0
5,18.683000087738037,learn,60000.0,Tue Jan 13 2026 15:32:34 GMT-0500 (Eastern Standard Time),1033746.2999992371,A,ca,I,a,59,3,1250.0999994277954,1032496.1999998093,9023,WL,B,9.0
5,18.950000047683716,learn,60000.0,Tue Jan 13 2026 15:32:34 GMT-0500 (Eastern Standard Time),1034013.0,A,cab,I,b,243,3,1516.8000001907349,1032496.1999998093,9023,WL,B,9.0
5,19.15000009536743,learn,60000.0,Tue Jan 13 2026 15:32:34 GMT-0500 (Eastern Standard Time),1034213.0999994278,A,cabi,I,i,175,3,1716.8999996185303,1032496.1999998093,9023,WL,B,9.0
5,19.25,learn,60000.0,Tue Jan 13 2026 15:32:34 GMT-0500 (Eastern Standard Time),1034313.0,A,cabin,I,n,77,3,1816.8000001907349,1032496.1999998093,9023,WL,B,9.0
5,20.08300018310547,learn,60000.0,Tue Jan 13 2026 15:32:34 GMT-0500 (Eastern Standard Time),1035145.7999992371,A,cabinenter,I,enter,809,3,2649.5999994277954,1032496.1999998093,9023,WL,B,9.0
5,20.66600012779236,learn,60000.0,Tue Jan 13 2026 15:32:34 GMT-0500 (Eastern Standard Time),1035729.5999994278,A,l,I,l,565,3,583.5,1035146.0999994278,9023,WL,B,10.0
5,20.783000230789185,learn,60000.0,Tue Jan 13 2026 15:32:34 GMT-0500 (Eastern Standard Time),1035846.0,A,la,I,a,106,3,699.9000005722046,1035146.0999994278,9023,WL,B,10.0
5,20.967000007629395,learn,60000.0,Tue Jan 13 2026 15:32:34 GMT-0500 (Eastern Standard Time),1036029.6999998093,A,lak,I,k,165,3,883.6000003814697,1035146.0999994278,9023,WL,B,10.0
5,21.48300004005432,learn,60000.0,Tue Jan 13 2026 15:32:34 GMT-0500 (Eastern Standard Time),1036546.3999996185,A,lake,I,e,484,3,1400.3000001907349,1035146.0999994278,9023,WL,B,10.0
5,21.799000024795532,learn,60000.0,Tue Jan 13 2026 15:32:34 GMT-0500 (Eastern Standard Time),1036862.5999994278,A,lakeenter,I,enter,296,3,1716.5,1035146.0999994278,9023,WL,B,10.0
5,25.216000080108643,learn,60000.0,Tue Jan 13 2026 15:32:34 GMT-0500 (Eastern Standard Time),1040279.5999994278,A,p,I,p,3408,3,3416.699999809265,1036862.8999996185,9023,WL,B,11.0
5,25.40000009536743,learn,60000.0,Tue Jan 13 2026 15:32:34 GMT-0500 (Eastern Standard Time),1040462.8999996185,A,pi,I,i,162,3,3600.0,1036862.8999996185,9023,WL,B,11.0
5,25.550000190734863,learn,60000.0,Tue Jan 13 2026 15:32:34 GMT-0500 (Eastern Standard Time),1040612.7999992371,A,pip,I,p,124,3,3749.8999996185303,1036862.8999996185,9023,WL,B,11.0
5,26.100000143051147,learn,60000.0,Tue Jan 13 2026 15:32:34 GMT-0500 (Eastern Standard Time),1041162.8999996185,A,pipe,I,e,534,3,4300.0,1036862.8999996185,9023,WL,B,11.0
5,26.883000135421753,learn,60000.0,Tue Jan 13 2026 15:32:34 GMT-0500 (Eastern Standard Time),1041945.8999996185,A,pipeenter,I,enter,768,3,5083.0,1036862.8999996185,9023,WL,B,11.0
5,28.117000102996826,learn,60000.0,Tue Jan 13 2026 15:32:34 GMT-0500 (Eastern Standard Time),1043179.5999994278,A,s,I,s,1220,3,1233.3000001907349,1041946.2999992371,9023,WL,B,12.0
5,28.25,learn,60000.0,Tue Jan 13 2026 15:32:34 GMT-0500 (Eastern Standard Time),1043312.8999996185,A,sk,I,k,113,3,1366.6000003814697,1041946.2999992371,9023,WL,B,12.0
5,28.48300004005432,learn,60000.0,Tue Jan 13 2026 15:32:34 GMT-0500 (Eastern Standard Time),1043546.3999996185,A,ski,I,i,210,3,1600.1000003814697,1041946.2999992371,9023,WL,B,12.0
5,28.73300004005432,learn,60000.0,Tue Jan 13 2026 15:32:34 GMT-0500 (Eastern Standard Time),1043796.3999996185,A,skin,I,n,224,3,1850.1000003814697,1041946.2999992371,9023,WL,B,12.0
5,29.41600012779236,learn,60000.0,Tue Jan 13 2026 15:32:34 GMT-0500 (Eastern Standard Time),1044479.1999998093,A,skinenter,I,enter,663,3,2532.9000005722046,1041946.2999992371,9023,WL,B,12.0
5,30.117000102996826,learn,60000.0,Tue Jan 13 2026 15:32:34 GMT-0500 (Eastern Standard Time),1045179.6999998093,A,f,I,f,687,3,700.3000001907349,1044479.3999996185,9023,WL,B,13.0
5,30.216000080108643,learn,60000.0,Tue Jan 13 2026 15:32:34 GMT-0500 (Eastern Standard Time),1045279.5999994278,A,fi,I,i,80,3,800.1999998092651,1044479.3999996185,9023,WL,B,13.0
5,30.40000009536743,learn,60000.0,Tue Jan 13 2026 15:32:34 GMT-0500 (Eastern Standard Time),1045462.8999996185,A,fir,I,r,163,3,983.5,1044479.3999996185,9023,WL,B,13.0
5,30.533000230789185,learn,60000.0,Tue Jan 13 2026 15:32:34 GMT-0500 (Eastern Standard Time),1045596.2999992371,A,fire,I,e,108,3,1116.8999996185303,1044479.3999996185,9023,WL,B,13.0
5,31.18400001525879,learn,60000.0,Tue Jan 13 2026 15:32:34 GMT-0500 (Eastern Standard Time),1046247.0,A,fireenter,I,enter,632,3,1767.6000003814697,1044479.3999996185,9023,WL,B,13.0
5,31.933000087738037,learn,60000.0,Tue Jan 13 2026 15:32:34 GMT-0500 (Eastern Standard Time),1046996.2999992371,A,c,I,c,727,3,749.0,1046247.2999992371,9023,WL,B,14.0
5,32.033000230789185,learn,60000.0,Tue Jan 13 2026 15:32:34 GMT-0500 (Eastern Standard Time),1047096.2999992371,A,cl,I,l,88,3,849.0,1046247.2999992371,9023,WL,B,14.0
5,32.23300004005432,learn,60000.0,Tue Jan 13 2026 15:32:34 GMT-0500 (Eastern Standard Time),1047296.2999992371,A,clo,I,o,169,3,1049.0,1046247.2999992371,9023,WL,B,14.0
5,32.367000102996826,learn,60000.0,Tue Jan 13 2026 15:32:34 GMT-0500 (Eastern Standard Time),1047429.6999998093,A,cloc,I,c,123,3,1182.4000005722046,1046247.2999992371,9023,WL,B,14.0
5,32.51600003242493,learn,60000.0,Tue Jan 13 2026 15:32:34 GMT-0500 (Eastern Standard Time),1047579.6999998093,A,clock,I,k,135,3,1332.4000005722046,1046247.2999992371,9023,WL,B,14.0
5,32.91600012779236,learn,60000.0,Tue Jan 13 2026 15:32:34 GMT-0500 (Eastern Standard Time),1047979.0999994278,A,clockenter,I,enter,373,3,1731.8000001907349,1046247.2999992371,9023,WL,B,14.0
5,92.93300008773804,learn,60000.0,Tue Jan 13 2026 15:32:34 GMT-0500 (Eastern Standard Time),1107996.3999996185,A,None,I,None,60011,3,60017.0,1047979.3999996185,9023,WL,B,15.0
6,1.2339999675750732,distr,58766.00003242493,Tue Jan 13 2026 15:32:34 GMT-0500 (Eastern Standard Time),1181062.799999237,B,c,I,c,1223,3,1232.7999992370605,1179830.0,9023,WL,B,1.0
6,1.4000000953674316,distr,58599.99990463257,Tue Jan 13 2026 15:32:34 GMT-0500 (Eastern Standard Time),1181229.5,B,ca,I,a,148,3,1399.5,1179830.0,9023,WL,B,1.0
6,2.3000001907348633,distr,57699.99980926514,Tue Jan 13 2026 15:32:34 GMT-0500 (Eastern Standard Time),1182129.5,B,cab,I,b,873,3,2299.5,1179830.0,9023,WL,B,1.0
6,2.4839999675750732,distr,57516.00003242493,Tue Jan 13 2026 15:32:34 GMT-0500 (Eastern Standard Time),1182312.6999998093,B,caby,I,y,170,3,2482.699999809265,1179830.0,9023,WL,B,1.0
6,4.1000001430511475,distr,55899.99985694885,Tue Jan 13 2026 15:32:34 GMT-0500 (Eastern Standard Time),1183929.5,B,cab,I,backspace,1602,3,4099.5,1179830.0,9023,WL,B,1.0
6,4.334000110626221,distr,55665.99988937378,Tue Jan 13 2026 15:32:34 GMT-0500 (Eastern Standard Time),1184162.799999237,B,ca,I,backspace,210,3,4332.799999237061,1179830.0,9023,WL,B,1.0
6,4.5,distr,55500.0,Tue Jan 13 2026 15:32:34 GMT-0500 (Eastern Standard Time),1184329.5999994278,B,c,I,backspace,153,3,4499.599999427795,1179830.0,9023,WL,B,1.0
6,4.684000015258789,distr,55315.99998474121,Tue Jan 13 2026 15:32:34 GMT-0500 (Eastern Standard Time),1184512.8999996185,B,,I,backspace,152,3,4682.89999961853,1179830.0,9023,WL,B,1.0
6,5.66700005531311,distr,54332.99994468689,Tue Jan 13 2026 15:32:34 GMT-0500 (Eastern Standard Time),1185496.1999998093,B,b,I,b,972,3,5666.199999809265,1179830.0,9023,WL,B,1.0
6,5.900000095367432,distr,54099.99990463257,Tue Jan 13 2026 15:32:34 GMT-0500 (Eastern Standard Time),1185729.5,B,ba,I,a,208,3,5899.5,1179830.0,9023,WL,B,1.0
6,6.067000150680542,distr,53932.99984931946,Tue Jan 13 2026 15:32:34 GMT-0500 (Eastern Standard Time),1185896.0999994278,B,bab,I,b,154,3,6066.099999427795,1179830.0,9023,WL,B,1.0
6,6.75,distr,53250.0,Tue Jan 13 2026 15:32:34 GMT-0500 (Eastern Standard Time),1186579.5,B,baby,I,y,649,3,6749.5,1179830.0,9023,WL,B,1.0
6,7.183000087738037,distr,52816.99991226196,Tue Jan 13 2026 15:32:34 GMT-0500 (Eastern Standard Time),1187012.5,B,babyenter,I,enter,423,3,7182.5,1179830.0,9023,WL,B,1.0
6,7.6000001430511475,distr,52399.99985694885,Tue Jan 13 2026 15:32:34 GMT-0500 (Eastern Standard Time),1187429.299999237,B,c,I,c,410,3,416.5,1187012.799999237,9023,WL,B,2.0
6,7.767000198364258,distr,52232.99980163574,Tue Jan 13 2026 15:32:34 GMT-0500 (Eastern Standard Time),1187596.1999998093,B,co,I,o,151,3,583.4000005722046,1187012.799999237,9023,WL,B,2.0
6,8.467000007629395,distr,51532.999992370605,Tue Jan 13 2026 15:32:34 GMT-0500 (Eastern Standard Time),1188296.1999998093,B,c,I,backspace,681,3,1283.4000005722046,1187012.799999237,9023,WL,B,2.0
6,8.650000095367432,distr,51349.99990463257,Tue Jan 13 2026 15:32:34 GMT-0500 (Eastern Standard Time),1188479.5,B,,I,backspace,164,3,1466.7000007629395,1187012.799999237,9023,WL,B,2.0
6,9.017000198364258,distr,50982.99980163574,Tue Jan 13 2026 15:32:34 GMT-0500 (Eastern Standard Time),1188846.0999994278,B,o,I,o,348,3,1833.3000001907349,1187012.799999237,9023,WL,B,2.0
6,9.317000150680542,distr,50682.99984931946,Tue Jan 13 2026 15:32:34 GMT-0500 (Eastern Standard Time),1189146.0999994278,B,oc,I,c,285,3,2133.300000190735,1187012.799999237,9023,WL,B,2.0
6,9.483999967575073,distr,50516.00003242493,Tue Jan 13 2026 15:32:34 GMT-0500 (Eastern Standard Time),1189313.0,B,oce,I,e,145,3,2300.2000007629395,1187012.799999237,9023,WL,B,2.0
6,9.784000158309937,distr,50215.99984169006,Tue Jan 13 2026 15:32:34 GMT-0500 (Eastern Standard Time),1189612.799999237,B,ocea,I,a,273,3,2600.0,1187012.799999237,9023,WL,B,2.0
6,10.117000102996826,distr,49882.999897003174,Tue Jan 13 2026 15:32:34 GMT-0500 (Eastern Standard Time),1189946.0999994278,B,ocean,I,n,318,3,2933.300000190735,1187012.799999237,9023,WL,B,2.0
6,10.933000087738037,distr,49066.99991226196,Tue Jan 13 2026 15:32:34 GMT-0500 (Eastern Standard Time),1190762.299999237,B,oceanenter,I,enter,801,3,3749.5,1187012.799999237,9023,WL,B,2.0
6,11.567000150680542,distr,48432.99984931946,Tue Jan 13 2026 15:32:34 GMT-0500 (Eastern Standard Time),1191396.0999994278,B,p,I,p,612,3,633.3000001907349,1190762.799999237,9023,WL,B,3.0
6,11.66700005531311,distr,48332.99994468689,Tue Jan 13 2026 15:32:34 GMT-0500 (Eastern Standard Time),1191496.1999998093,B,pa,I,a,85,3,733.4000005722046,1190762.799999237,9023,WL,B,3.0
6,12.717000007629395,distr,47282.999992370605,Tue Jan 13 2026 15:32:34 GMT-0500 (Eastern Standard Time),1192546.1999998093,B,pal,I,l,1027,3,1783.4000005722046,1190762.799999237,9023,WL,B,3.0
6,12.867000102996826,distr,47132.999897003174,Tue Jan 13 2026 15:32:34 GMT-0500 (Eastern Standard Time),1192696.0999994278,B,pala,I,a,137,3,1933.3000001907349,1190762.799999237,9023,WL,B,3.0
6,13.233999967575073,distr,46766.00003242493,Tue Jan 13 2026 15:32:34 GMT-0500 (Eastern Standard Time),1193062.6999998093,B,palac,I,c,347,3,2299.9000005722046,1190762.799999237,9023,WL,B,3.0
6,13.33400011062622,distr,46665.99988937378,Tue Jan 13 2026 15:32:34 GMT-0500 (Eastern Standard Time),1193162.799999237,B,palace,I,e,85,3,2400.0,1190762.799999237,9023,WL,B,3.0
6,15.782999992370605,distr,44217.000007629395,Tue Jan 13 2026 15:32:34 GMT-0500 (Eastern Standard Time),1195612.299999237,B,palaceenter,I,enter,2422,3,4849.5,1190762.799999237,9023,WL,B,3.0
6,16.483999967575073,distr,43516.00003242493,Tue Jan 13 2026 15:32:34 GMT-0500 (Eastern Standard Time),1196312.799999237,B,l,I,l,690,3,700.0999994277954,1195612.6999998093,9023,WL,B,4.0
6,16.617000102996826,distr,43382.999897003174,Tue Jan 13 2026 15:32:34 GMT-0500 (Eastern Standard Time),1196446.299999237,B,li,I,i,115,3,833.5999994277954,1195612.6999998093,9023,WL,B,4.0
6,18.383000135421753,distr,41616.99986457825,Tue Jan 13 2026 15:32:34 GMT-0500 (Eastern Standard Time),1198212.299999237,B,lip,I,p,1730,3,2599.5999994277954,1195612.6999998093,9023,WL,B,4.0
6,19.050000190734863,distr,40949.99980926514,Tue Jan 13 2026 15:32:34 GMT-0500 (Eastern Standard Time),1198879.0,B,lipenter,I,enter,649,3,3266.300000190735,1195612.6999998093,9023,WL,B,4.0
6,19.717000007629395,distr,40282.999992370605,Tue Jan 13 2026 15:32:34 GMT-0500 (Eastern Standard Time),1199546.1999998093,B,b,I,b,655,3,666.8000001907349,1198879.3999996185,9023,WL,B,5.0
6,19.83400011062622,distr,40165.99988937378,Tue Jan 13 2026 15:32:34 GMT-0500 (Eastern Standard Time),1199662.6999998093,B,ba,I,a,97,3,783.3000001907349,1198879.3999996185,9023,WL,B,5.0
6,20.200000047683716,distr,39799.999952316284,Tue Jan 13 2026 15:32:34 GMT-0500 (Eastern Standard Time),1200029.5,B,bar,I,r,340,3,1150.1000003814697,1198879.3999996185,9023,WL,B,5.0
6,21.782999992370605,distr,38217.000007629395,Tue Jan 13 2026 15:32:34 GMT-0500 (Eastern Standard Time),1201612.299999237,B,barenter,I,enter,1565,3,2732.8999996185303,1198879.3999996185,9023,WL,B,5.0
6,22.384000062942505,distr,37615.999937057495,Tue Jan 13 2026 15:32:34 GMT-0500 (Eastern Standard Time),1202212.799999237,B,s,I,s,578,3,600.1999998092651,1201612.5999994278,9023,WL,B,6.0
6,22.83400011062622,distr,37165.99988937378,Tue Jan 13 2026 15:32:34 GMT-0500 (Eastern Standard Time),1202662.6999998093,B,st,I,t,439,3,1050.1000003814697,1201612.5999994278,9023,WL,B,6.0
6,22.93400001525879,distr,37065.99998474121,Tue Jan 13 2026 15:32:34 GMT-0500 (Eastern Standard Time),1202762.6999998093,B,ste,I,e,85,3,1150.1000003814697,1201612.5999994278,9023,WL,B,6.0
6,23.08400011062622,distr,36915.99988937378,Tue Jan 13 2026 15:32:34 GMT-0500 (Eastern Standard Time),1202912.8999996185,B,stea,I,a,120,3,1300.3000001907349,1201612.5999994278,9023,WL,B,6.0
6,23.43400001525879,distr,36565.99998474121,Tue Jan 13 2026 15:32:34 GMT-0500 (Eastern Standard Time),1203262.799999237,B,steam,I,m,330,3,1650.1999998092651,1201612.5999994278,9023,WL,B,6.0
6,24.16700005531311,distr,35832.99994468689,Tue Jan 13 2026 15:32:34 GMT-0500 (Eastern Standard Time),1203995.5999994278,B,steamenter,I,enter,715,3,2383.0,1201612.5999994278,9023,WL,B,6.0
6,24.717000007629395,distr,35282.999992370605,Tue Jan 13 2026 15:32:34 GMT-0500 (Eastern Standard Time),1204546.0999994278,B,c,I,c,531,3,550.0999994277954,1203996.0,9023,WL,B,7.0
6,24.867000102996826,distr,35132.999897003174,Tue Jan 13 2026 15:32:34 GMT-0500 (Eastern Standard Time),1204696.0999994278,B,co,I,o,138,3,700.0999994277954,1203996.0,9023,WL,B,7.0
6,24.950000047683716,distr,35049.999952316284,Tue Jan 13 2026 15:32:34 GMT-0500 (Eastern Standard Time),1204779.0999994278,B,coi,I,i,57,3,783.0999994277954,1203996.0,9023,WL,B,7.0
6,25.16700005531311,distr,34832.99994468689,Tue Jan 13 2026 15:32:34 GMT-0500 (Eastern Standard Time),1204996.0999994278,B,coil,I,l,185,3,1000.0999994277954,1203996.0,9023,WL,B,7.0
6,25.700000047683716,distr,34299.999952316284,Tue Jan 13 2026 15:32:34 GMT-0500 (Eastern Standard Time),1205529.3999996185,B,coi,I,backspace,520,3,1533.3999996185303,1203996.0,9023,WL,B,7.0
6,26.567000150680542,distr,33432.99984931946,Tue Jan 13 2026 15:32:34 GMT-0500 (Eastern Standard Time),1206396.0,B,coin,I,n,847,3,2400.0,1203996.0,9023,WL,B,7.0
6,28.133000135421753,distr,31866.999864578247,Tue Jan 13 2026 15:32:34 GMT-0500 (Eastern Standard Time),1207962.299999237,B,coinenter,I,enter,1550,3,3966.2999992370605,1203996.0,9023,WL,B,7.0
6,29.25,distr,30750.0,Tue Jan 13 2026 15:32:34 GMT-0500 (Eastern Standard Time),1209079.3999996185,B,r,I,r,1108,3,1116.8000001907349,1207962.5999994278,9023,WL,B,8.0
6,29.40000009536743,distr,30599.99990463257,Tue Jan 13 2026 15:32:34 GMT-0500 (Eastern Standard Time),1209229.5,B,ro,I,o,131,3,1266.9000005722046,1207962.5999994278,9023,WL,B,8.0
6,29.58300018310547,distr,30416.99981689453,Tue Jan 13 2026 15:32:34 GMT-0500 (Eastern Standard Time),1209412.5,B,roc,I,c,163,3,1449.9000005722046,1207962.5999994278,9023,WL,B,8.0
6,29.733999967575073,distr,30266.000032424927,Tue Jan 13 2026 15:32:34 GMT-0500 (Eastern Standard Time),1209562.799999237,B,rock,I,k,135,3,1600.1999998092651,1207962.5999994278,9023,WL,B,8.0
6,30.800000190734863,distr,29199.999809265137,Tue Jan 13 2026 15:32:34 GMT-0500 (Eastern Standard Time),1210628.799999237,B,rockenter,I,enter,1052,3,2666.199999809265,1207962.5999994278,9023,WL,B,8.0
6,31.517000198364258,distr,28482.999801635742,Tue Jan 13 2026 15:32:34 GMT-0500 (Eastern Standard Time),1211346.0999994278,B,a,I,a,697,3,717.0,1210629.0999994278,9023,WL,B,9.0
6,31.717000007629395,distr,28282.999992370605,Tue Jan 13 2026 15:32:34 GMT-0500 (Eastern Standard Time),1211546.0999994278,B,ar,I,r,186,3,917.0,1210629.0999994278,9023,WL,B,9.0
6,32.10000014305115,distr,27899.999856948853,Tue Jan 13 2026 15:32:34 GMT-0500 (Eastern Standard Time),1211929.3999996185,B,arm,I,m,370,3,1300.3000001907349,1210629.0999994278,9023,WL,B,9.0
6,32.467000007629395,distr,27532.999992370605,Tue Jan 13 2026 15:32:34 GMT-0500 (Eastern Standard Time),1212296.0999994278,B,army,I,y,353,3,1667.0,1210629.0999994278,9023,WL,B,9.0
6,33.43300008773804,distr,26566.999912261963,Tue Jan 13 2026 15:32:34 GMT-0500 (Eastern Standard Time),1213262.299999237,B,armyenter,I,enter,947,3,2633.199999809265,1210629.0999994278,9023,WL,B,9.0
6,34.76700019836426,distr,25232.999801635742,Tue Jan 13 2026 15:32:34 GMT-0500 (Eastern Standard Time),1214596.0999994278,B,s,I,s,1311,3,1333.5,1213262.5999994278,9023,WL,B,10.0
6,35.01700019836426,distr,24982.999801635742,Tue Jan 13 2026 15:32:34 GMT-0500 (Eastern Standard Time),1214846.1999998093,B,st,I,t,229,3,1583.6000003814697,1213262.5999994278,9023,WL,B,10.0
6,35.18400001525879,distr,24815.99998474121,Tue Jan 13 2026 15:32:34 GMT-0500 (Eastern Standard Time),1215012.6999998093,B,sto,I,o,140,3,1750.1000003814697,1213262.5999994278,9023,WL,B,10.0
6,35.31700015068054,distr,24682.999849319458,Tue Jan 13 2026 15:32:34 GMT-0500 (Eastern Standard Time),1215146.0999994278,B,stor,I,r,118,3,1883.5,1213262.5999994278,9023,WL,B,10.0
6,35.65000009536743,distr,24349.99990463257,Tue Jan 13 2026 15:32:34 GMT-0500 (Eastern Standard Time),1215479.3999996185,B,storm,I,m,321,3,2216.800000190735,1213262.5999994278,9023,WL,B,10.0
6,37.30000019073486,distr,22699.999809265137,Tue Jan 13 2026 15:32:34 GMT-0500 (Eastern Standard Time),1217128.8999996185,B,stormenter,I,enter,1635,3,3866.300000190735,1213262.5999994278,9023,WL,B,10.0
6,38.23399996757507,distr,21766.000032424927,Tue Jan 13 2026 15:32:34 GMT-0500 (Eastern Standard Time),1218062.8999996185,B,v,I,v,917,3,933.6999998092651,1217129.1999998093,9023,WL,B,11.0
6,38.31700015068054,distr,21682.999849319458,Tue Jan 13 2026 15:32:34 GMT-0500 (Eastern Standard Time),1218146.0999994278,B,vi,I,i,59,3,1016.8999996185303,1217129.1999998093,9023,WL,B,11.0
6,38.56700015068054,distr,21432.999849319458,Tue Jan 13 2026 15:32:34 GMT-0500 (Eastern Standard Time),1218396.0999994278,B,vil,I,l,233,3,1266.8999996185303,1217129.1999998093,9023,WL,B,11.0
6,38.717000007629395,distr,21282.999992370605,Tue Jan 13 2026 15:32:34 GMT-0500 (Eastern Standard Time),1218546.0999994278,B,vill,I,l,127,3,1416.8999996185303,1217129.1999998093,9023,WL,B,11.0
6,38.80000019073486,distr,21199.999809265137,Tue Jan 13 2026 15:32:34 GMT-0500 (Eastern Standard Time),1218629.299999237,B,villa,I,a,73,3,1500.0999994277954,1217129.1999998093,9023,WL,B,11.0
6,39.03400015830994,distr,20965.999841690063,Tue Jan 13 2026 15:32:34 GMT-0500 (Eastern Standard Time),1218862.799999237,B,villag,I,g,206,3,1733.5999994277954,1217129.1999998093,9023,WL,B,11.0
6,39.18400001525879,distr,20815.99998474121,Tue Jan 13 2026 15:32:34 GMT-0500 (Eastern Standard Time),1219012.6999998093,B,village,I,e,124,3,1883.5,1217129.1999998093,9023,WL,B,11.0
6,41.18300008773804,distr,18816.999912261963,Tue Jan 13 2026 15:32:34 GMT-0500 (Eastern Standard Time),1221012.299999237,B,villageenter,I,enter,1963,3,3883.0999994277954,1217129.1999998093,9023,WL,B,11.0
6,42.78400015830994,distr,17215.999841690063,Tue Jan 13 2026 15:32:34 GMT-0500 (Eastern Standard Time),1222612.799999237,B,f,I,f,1578,3,1600.1999998092651,1221012.5999994278,9023,WL,B,12.0
6,43.01700019836426,distr,16982.999801635742,Tue Jan 13 2026 15:32:34 GMT-0500 (Eastern Standard Time),1222846.0999994278,B,fi,I,i,214,3,1833.5,1221012.5999994278,9023,WL,B,12.0
6,43.467000007629395,distr,16532.999992370605,Tue Jan 13 2026 15:32:34 GMT-0500 (Eastern Standard Time),1223296.0999994278,B,f,I,backspace,428,3,2283.5,1221012.5999994278,9023,WL,B,12.0
6,43.63300013542175,distr,16366.999864578247,Tue Jan 13 2026 15:32:34 GMT-0500 (Eastern Standard Time),1223462.6999998093,B,fr,I,r,156,3,2450.1000003814697,1221012.5999994278,9023,WL,B,12.0
6,43.85000014305115,distr,16149.999856948853,Tue Jan 13 2026 15:32:34 GMT-0500 (Eastern Standard Time),1223679.3999996185,B,fri,I,i,197,3,2666.800000190735,1221012.5999994278,9023,WL,B,12.0
6,44.117000102996826,distr,15882.999897003174,Tue Jan 13 2026 15:32:34 GMT-0500 (Eastern Standard Time),1223946.0999994278,B,frie,I,e,242,3,2933.5,1221012.5999994278,9023,WL,B,12.0
6,44.55000019073486,distr,15449.999809265137,Tue Jan 13 2026 15:32:34 GMT-0500 (Eastern Standard Time),1224379.3999996185,B,frien,I,n,418,3,3366.800000190735,1221012.5999994278,9023,WL,B,12.0
6,44.73399996757507,distr,15266.000032424927,Tue Jan 13 2026 15:32:34 GMT-0500 (Eastern Standard Time),1224562.799999237,B,friend,I,d,160,3,3550.199999809265,1221012.5999994278,9023,WL,B,12.0
6,46.25,distr,13750.0,Tue Jan 13 2026 15:32:34 GMT-0500 (Eastern Standard Time),1226078.8999996185,B,friendenter,I,enter,1495,3,5066.300000190735,1221012.5999994278,9023,WL,B,12.0
6,60.01700019836426,distr,-17.000198364257812,Tue Jan 13 2026 15:32:34 GMT-0500 (Eastern Standard Time),1239846.0999994278,B,None,I,None,13760,3,13766.800000190735,1226079.299999237,9023,WL,B,13.0
7,1.6500000953674316,immed,58349.99990463257,Tue Jan 13 2026 15:32:34 GMT-0500 (Eastern Standard Time),1245879.3999996185,A,s,I,s,1639,3,1649.5,1244229.8999996185,9023,WL,B,1.0
7,1.9170000553131104,immed,58082.99994468689,Tue Jan 13 2026 15:32:34 GMT-0500 (Eastern Standard Time),1246146.0999994278,A,st,I,t,244,3,1916.1999998092651,1244229.8999996185,9023,WL,B,1.0
7,2.117000102996826,immed,57882.999897003174,Tue Jan 13 2026 15:32:34 GMT-0500 (Eastern Standard Time),1246346.0999994278,A,str,I,r,186,3,2116.199999809265,1244229.8999996185,9023,WL,B,1.0
7,2.367000102996826,immed,57632.999897003174,Tue Jan 13 2026 15:32:34 GMT-0500 (Eastern Standard Time),1246596.0999994278,A,stre,I,e,226,3,2366.199999809265,1244229.8999996185,9023,WL,B,1.0
7,2.5160000324249268,immed,57483.99996757507,Tue Jan 13 2026 15:32:34 GMT-0500 (Eastern Standard Time),1246745.299999237,A,stree,I,e,132,3,2515.3999996185303,1244229.8999996185,9023,WL,B,1.0
7,2.700000047683716,immed,57299.999952316284,Tue Jan 13 2026 15:32:34 GMT-0500 (Eastern Standard Time),1246928.6999998093,A,street,I,t,164,3,2698.800000190735,1244229.8999996185,9023,WL,B,1.0
7,4.516000032424927,immed,55483.99996757507,Tue Jan 13 2026 15:32:34 GMT-0500 (Eastern Standard Time),1248745.5999994278,A,streetenter,I,enter,1804,3,4515.699999809265,1244229.8999996185,9023,WL,B,1.0
7,5.384000062942505,immed,54615.999937057495,Tue Jan 13 2026 15:32:34 GMT-0500 (Eastern Standard Time),1249612.6999998093,A,g,I,g,853,3,866.8000001907349,1248745.8999996185,9023,WL,B,2.0
7,5.599999904632568,immed,54400.00009536743,Tue Jan 13 2026 15:32:34 GMT-0500 (Eastern Standard Time),1249829.1999998093,A,gr,I,r,206,3,1083.3000001907349,1248745.8999996185,9023,WL,B,2.0
7,5.733999967575073,immed,54266.00003242493,Tue Jan 13 2026 15:32:34 GMT-0500 (Eastern Standard Time),1249962.8999996185,A,gra,I,a,118,3,1217.0,1248745.8999996185,9023,WL,B,2.0
7,6.0,immed,54000.0,Tue Jan 13 2026 15:32:34 GMT-0500 (Eastern Standard Time),1250229.299999237,A,gras,I,s,248,3,1483.3999996185303,1248745.8999996185,9023,WL,B,2.0
7,6.150000095367432,immed,53849.99990463257,Tue Jan 13 2026 15:32:34 GMT-0500 (Eastern Standard Time),1250379.0999994278,A,grass,I,s,133,3,1633.1999998092651,1248745.8999996185,9023,WL,B,2.0
7,6.365999937057495,immed,53634.000062942505,Tue Jan 13 2026 15:32:34 GMT-0500 (Eastern Standard Time),1250595.5999994278,A,grassenter,I,enter,190,3,1849.6999998092651,1248745.8999996185,9023,WL,B,2.0
7,8.049999952316284,immed,51950.000047683716,Tue Jan 13 2026 15:32:34 GMT-0500 (Eastern Standard Time),1252279.3999996185,A,w,I,w,1675,3,1683.5,1250595.8999996185,9023,WL,B,3.0
7,8.217000007629395,immed,51782.999992370605,Tue Jan 13 2026 15:32:34 GMT-0500 (Eastern Standard Time),1252446.0999994278,A,wi,I,i,147,3,1850.1999998092651,1250595.8999996185,9023,WL,B,3.0
7,9.233000040054321,immed,50766.99995994568,Tue Jan 13 2026 15:32:34 GMT-0500 (Eastern Standard Time),1253462.1999998093,A,win,I,n,1005,3,2866.300000190735,1250595.8999996185,9023,WL,B,3.0
7,9.75,immed,50250.0,Tue Jan 13 2026 15:32:34 GMT-0500 (Eastern Standard Time),1253979.3999996185,A,wi,I,backspace,504,3,3383.5,1250595.8999996185,9023,WL,B,3.0
7,10.0,immed,50000.0,Tue Jan 13 2026 15:32:34 GMT-0500 (Eastern Standard Time),1254229.5,A,w,I,backspace,225,3,3633.6000003814697,1250595.8999996185,9023,WL,B,3.0
7,10.25,immed,49750.0,Tue Jan 13 2026 15:32:34 GMT-0500 (Eastern Standard Time),1254479.3999996185,A,,I,backspace,229,3,3883.5,1250595.8999996185,9023,WL,B,3.0
7,10.950000047683716,immed,49049.999952316284,Tue Jan 13 2026 15:32:34 GMT-0500 (Eastern Standard Time),1255179.5,A,d,I,d,684,3,4583.60000038147,1250595.8999996185,9023,WL,B,3.0
7,11.16700005531311,immed,48832.99994468689,Tue Jan 13 2026 15:32:34 GMT-0500 (Eastern Standard Time),1255396.0999994278,A,do,I,o,191,3,4800.199999809265,1250595.8999996185,9023,WL,B,3.0
7,11.333999872207642,immed,48666.00012779236,Tue Jan 13 2026 15:32:34 GMT-0500 (Eastern Standard Time),1255562.799999237,A,doo,I,o,151,3,4966.89999961853,1250595.8999996185,9023,WL,B,3.0
7,11.41700005531311,immed,48582.99994468689,Tue Jan 13 2026 15:32:34 GMT-0500 (Eastern Standard Time),1255646.0999994278,A,door,I,r,65,3,5050.199999809265,1250595.8999996185,9023,WL,B,3.0
7,12.266000032424927,immed,47733.99996757507,Tue Jan 13 2026 15:32:34 GMT-0500 (Eastern Standard Time),1256495.5999994278,A,doorenter,I,enter,828,3,5899.699999809265,1250595.8999996185,9023,WL,B,3.0
7,12.934000015258789,immed,47065.99998474121,Tue Jan 13 2026 15:32:34 GMT-0500 (Eastern Standard Time),1257162.799999237,A,a,I,a,655,3,666.7999992370605,1256496.0,9023,WL,B,4.0
7,13.117000102996826,immed,46882.999897003174,Tue Jan 13 2026 15:32:34 GMT-0500 (Eastern Standard Time),1257346.0999994278,A,ar,I,r,161,3,850.0999994277954,1256496.0,9023,WL,B,4.0
7,13.467000007629395,immed,46532.999992370605,Tue Jan 13 2026 15:32:34 GMT-0500 (Eastern Standard Time),1257696.0,A,arm,I,m,326,3,1200.0,1256496.0,9023,WL,B,4.0
7,14.516000032424927,immed,45483.99996757507,Tue Jan 13 2026 15:32:34 GMT-0500 (Eastern Standard Time),1258745.5999994278,A,armenter,I,enter,1034,3,2249.5999994277954,1256496.0,9023,WL,B,4.0
7,15.033999919891357,immed,44966.00008010864,Tue Jan 13 2026 15:32:34 GMT-0500 (Eastern Standard Time),1259262.6999998093,A,s,I,s,501,3,516.6999998092651,1258746.0,9023,WL,B,5.0
7,15.25,immed,44750.0,Tue Jan 13 2026 15:32:34 GMT-0500 (Eastern Standard Time),1259479.3999996185,A,st,I,t,205,3,733.3999996185303,1258746.0,9023,WL,B,5.0
7,15.400000095367432,immed,44599.99990463257,Tue Jan 13 2026 15:32:34 GMT-0500 (Eastern Standard Time),1259629.3999996185,A,sta,I,a,123,3,883.3999996185303,1258746.0,9023,WL,B,5.0
7,15.58299994468689,immed,44417.00005531311,Tue Jan 13 2026 15:32:34 GMT-0500 (Eastern Standard Time),1259812.5999994278,A,star,I,r,157,3,1066.5999994277954,1258746.0,9023,WL,B,5.0
7,15.849999904632568,immed,44150.00009536743,Tue Jan 13 2026 15:32:34 GMT-0500 (Eastern Standard Time),1260079.3999996185,A,start,I,t,246,3,1333.3999996185303,1258746.0,9023,WL,B,5.0
7,16.467000007629395,immed,43532.999992370605,Tue Jan 13 2026 15:32:34 GMT-0500 (Eastern Standard Time),1260696.0999994278,A,star,I,backspace,604,3,1950.0999994277954,1258746.0,9023,WL,B,5.0
7,17.06599998474121,immed,42934.00001525879,Tue Jan 13 2026 15:32:34 GMT-0500 (Eastern Standard Time),1261295.5999994278,A,starenter,I,enter,578,3,2549.5999994277954,1258746.0,9023,WL,B,5.0
7,17.566999912261963,immed,42433.00008773804,Tue Jan 13 2026 15:32:34 GMT-0500 (Eastern Standard Time),1261796.0,A,w,I,w,477,3,500.0,1261296.0,9023,WL,B,6.0
7,17.65000009536743,immed,42349.99990463257,Tue Jan 13 2026 15:32:34 GMT-0500 (Eastern Standard Time),1261879.299999237,A,wi,I,i,72,3,583.2999992370605,1261296.0,9023,WL,B,6.0
7,17.816999912261963,immed,42183.00008773804,Tue Jan 13 2026 15:32:34 GMT-0500 (Eastern Standard Time),1262046.0999994278,A,win,I,n,146,3,750.0999994277954,1261296.0,9023,WL,B,6.0
7,18.066999912261963,immed,41933.00008773804,Tue Jan 13 2026 15:32:34 GMT-0500 (Eastern Standard Time),1262296.0999994278,A,wind,I,d,238,3,1000.0999994277954,1261296.0,9023,WL,B,6.0
7,18.18400001525879,immed,41815.99998474121,Tue Jan 13 2026 15:32:34 GMT-0500 (Eastern Standard Time),1262412.6999998093,A,windo,I,o,99,3,1116.6999998092651,1261296.0,9023,WL,B,6.0
7,18.34999990463257,immed,41650.00009536743,Tue Jan 13 2026 15:32:34 GMT-0500 (Eastern Standard Time),1262579.3999996185,A,window,I,w,142,3,1283.3999996185303,1261296.0,9023,WL,B,6.0
7,21.58299994468689,immed,38417.00005531311,Tue Jan 13 2026 15:32:34 GMT-0500 (Eastern Standard Time),1265812.5,A,windo,I,backspace,3206,3,4516.5,1261296.0,9023,WL,B,6.0
7,21.799999952316284,immed,38200.000047683716,Tue Jan 13 2026 15:32:34 GMT-0500 (Eastern Standard Time),1266029.5,A,wind,I,backspace,196,3,4733.5,1261296.0,9023,WL,B,6.0
7,22.0,immed,38000.0,Tue Jan 13 2026 15:32:34 GMT-0500 (Eastern Standard Time),1266229.3999996185,A,win,I,backspace,166,3,4933.39999961853,1261296.0,9023,WL,B,6.0
7,22.200000047683716,immed,37799.999952316284,Tue Jan 13 2026 15:32:34 GMT-0500 (Eastern Standard Time),1266429.3999996185,A,wi,I,backspace,174,3,5133.39999961853,1261296.0,9023,WL,B,6.0
7,22.533999919891357,immed,37466.00008010864,Tue Jan 13 2026 15:32:34 GMT-0500 (Eastern Standard Time),1266762.799999237,A,wif,I,f,318,3,5466.799999237061,1261296.0,9023,WL,B,6.0
7,22.950000047683716,immed,37049.999952316284,Tue Jan 13 2026 15:32:34 GMT-0500 (Eastern Standard Time),1267179.3999996185,A,wife,I,e,402,3,5883.39999961853,1261296.0,9023,WL,B,6.0
7,23.6010000705719,immed,36398.9999294281,Tue Jan 13 2026 15:32:34 GMT-0500 (Eastern Standard Time),1267829.8999996185,A,wifeenter,I,enter,639,3,6533.89999961853,1261296.0,9023,WL,B,6.0
7,24.217000007629395,immed,35782.999992370605,Tue Jan 13 2026 15:32:34 GMT-0500 (Eastern Standard Time),1268446.0999994278,A,w,I,w,600,3,615.6999998092651,1267830.3999996185,9023,WL,B,7.0
7,24.33399987220764,immed,35666.00012779236,Tue Jan 13 2026 15:32:34 GMT-0500 (Eastern Standard Time),1268562.6999998093,A,wi,I,i,94,3,732.3000001907349,1267830.3999996185,9023,WL,B,7.0
7,24.483999967575073,immed,35516.00003242493,Tue Jan 13 2026 15:32:34 GMT-0500 (Eastern Standard Time),1268712.6999998093,A,win,I,n,136,3,882.3000001907349,1267830.3999996185,9023,WL,B,7.0
7,24.65000009536743,immed,35349.99990463257,Tue Jan 13 2026 15:32:34 GMT-0500 (Eastern Standard Time),1268879.3999996185,A,wind,I,d,146,3,1049.0,1267830.3999996185,9023,WL,B,7.0
7,24.799999952316284,immed,35200.000047683716,Tue Jan 13 2026 15:32:34 GMT-0500 (Eastern Standard Time),1269029.3999996185,A,windo,I,o,115,3,1199.0,1267830.3999996185,9023,WL,B,7.0
7,24.967000007629395,immed,35032.999992370605,Tue Jan 13 2026 15:32:34 GMT-0500 (Eastern Standard Time),1269196.1999998093,A,window,I,w,141,3,1365.8000001907349,1267830.3999996185,9023,WL,B,7.0
7,25.75,immed,34250.0,Tue Jan 13 2026 15:32:34 GMT-0500 (Eastern Standard Time),1269978.799999237,A,windowenter,I,enter,756,3,2148.3999996185303,1267830.3999996185,9023,WL,B,7.0
7,26.40000009536743,immed,33599.99990463257,Tue Jan 13 2026 15:32:34 GMT-0500 (Eastern Standard Time),1270629.299999237,A,p,I,p,628,3,650.1999998092651,1269979.0999994278,9023,WL,B,8.0
7,26.51699995994568,immed,33483.00004005432,Tue Jan 13 2026 15:32:34 GMT-0500 (Eastern Standard Time),1270746.0,A,pu,I,u,103,3,766.9000005722046,1269979.0999994278,9023,WL,B,8.0
7,26.799999952316284,immed,33200.000047683716,Tue Jan 13 2026 15:32:34 GMT-0500 (Eastern Standard Time),1271029.3999996185,A,pup,I,p,254,3,1050.3000001907349,1269979.0999994278,9023,WL,B,8.0
7,27.033999919891357,immed,32966.00008010864,Tue Jan 13 2026 15:32:34 GMT-0500 (Eastern Standard Time),1271262.799999237,A,pupi,I,i,213,3,1283.6999998092651,1269979.0999994278,9023,WL,B,8.0
7,27.26699995994568,immed,32733.00004005432,Tue Jan 13 2026 15:32:34 GMT-0500 (Eastern Standard Time),1271496.0,A,pupil,I,l,220,3,1516.9000005722046,1269979.0999994278,9023,WL,B,8.0
7,28.58299994468689,immed,31417.00005531311,Tue Jan 13 2026 15:32:34 GMT-0500 (Eastern Standard Time),1272812.1999998093,A,pupilenter,I,enter,1298,3,2833.1000003814697,1269979.0999994278,9023,WL,B,8.0
7,30.117000102996826,immed,29882.999897003174,Tue Jan 13 2026 15:32:34 GMT-0500 (Eastern Standard Time),1274346.0,A,c,I,c,1522,3,1533.5,1272812.5,9023,WL,B,9.0
7,30.217000007629395,immed,29782.999992370605,Tue Jan 13 2026 15:32:34 GMT-0500 (Eastern Standard Time),1274446.0999994278,A,ca,I,a,82,3,1633.5999994277954,1272812.5,9023,WL,B,9.0
7,30.433000087738037,immed,29566.999912261963,Tue Jan 13 2026 15:32:34 GMT-0500 (Eastern Standard Time),1274662.5999994278,A,cab,I,b,197,3,1850.0999994277954,1272812.5,9023,WL,B,9.0
7,30.58399987220764,immed,29416.00012779236,Tue Jan 13 2026 15:32:34 GMT-0500 (Eastern Standard Time),1274812.6999998093,A,cabi,I,i,133,3,2000.1999998092651,1272812.5,9023,WL,B,9.0
7,30.799999952316284,immed,29200.000047683716,Tue Jan 13 2026 15:32:34 GMT-0500 (Eastern Standard Time),1275029.5,A,cabin,I,n,190,3,2217.0,1272812.5,9023,WL,B,9.0
7,31.58299994468689,immed,28417.00005531311,Tue Jan 13 2026 15:32:34 GMT-0500 (Eastern Standard Time),1275812.5,A,cabinenter,I,enter,763,3,3000.0,1272812.5,9023,WL,B,9.0
7,32.384000062942505,immed,27615.999937057495,Tue Jan 13 2026 15:32:34 GMT-0500 (Eastern Standard Time),1276612.6999998093,A,l,I,l,777,3,799.9000005722046,1275812.799999237,9023,WL,B,10.0
7,32.48399996757507,immed,27516.000032424927,Tue Jan 13 2026 15:32:34 GMT-0500 (Eastern Standard Time),1276712.6999998093,A,la,I,a,86,3,899.9000005722046,1275812.799999237,9023,WL,B,10.0
7,32.617000102996826,immed,27382.999897003174,Tue Jan 13 2026 15:32:34 GMT-0500 (Eastern Standard Time),1276846.0999994278,A,lak,I,k,113,3,1033.3000001907349,1275812.799999237,9023,WL,B,10.0
7,33.049999952316284,immed,26950.000047683716,Tue Jan 13 2026 15:32:34 GMT-0500 (Eastern Standard Time),1277279.3999996185,A,lake,I,e,411,3,1466.6000003814697,1275812.799999237,9023,WL,B,10.0
7,33.90000009536743,immed,26099.99990463257,Tue Jan 13 2026 15:32:34 GMT-0500 (Eastern Standard Time),1278128.8999996185,A,lakeenter,I,enter,828,3,2316.1000003814697,1275812.799999237,9023,WL,B,10.0
7,34.634000062942505,immed,25365.999937057495,Tue Jan 13 2026 15:32:34 GMT-0500 (Eastern Standard Time),1278862.799999237,A,p,I,p,718,3,733.5,1278129.299999237,9023,WL,B,11.0
7,34.83299994468689,immed,25167.00005531311,Tue Jan 13 2026 15:32:34 GMT-0500 (Eastern Standard Time),1279062.5999994278,A,pi,I,i,189,3,933.3000001907349,1278129.299999237,9023,WL,B,11.0
7,35.03399991989136,immed,24966.000080108643,Tue Jan 13 2026 15:32:34 GMT-0500 (Eastern Standard Time),1279262.6999998093,A,pip,I,p,180,3,1133.4000005722046,1278129.299999237,9023,WL,B,11.0
