acc_sum,block,block_c,block_cond,con_img,correct,correct_response,datetime,endtime,face,jitter,line,project,response,response_time,row_sel,session_number,start_end,starttime,subject_id,task,task_vers,trial
0,prac,1,A,haborder.png,0,z,Tue Aug 26 2025 16:52:59 GMT-0500 (Central Daylight Time),57810.39999999106,CFD-BF-023-013-A.jpg,1000,solid,I,None,1515,4,2,3298.8999999910593,54511.5,8054,ATS,A,1
1,prac,1,A,haborder.png,1,m,Tue Aug 26 2025 16:52:59 GMT-0500 (Central Daylight Time),61442.59999999404,CFD-BF-028-020-HC.jpg,2000,solid,I,m,848,5,2,6931.0999999940395,54511.5,8054,ATS,A,2
2,prac,1,A,haborder.png,1,m,Tue Aug 26 2025 16:52:59 GMT-0500 (Central Daylight Time),64658.29999999702,CFD-WF-017-016-HC.jpg,1500,solid,I,m,923,11,2,10146.79999999702,54511.5,8054,ATS,A,3
3,prac,1,A,haborder.png,1,m,Tue Aug 26 2025 16:52:59 GMT-0500 (Central Daylight Time),67424.0,CFD-WM-004-005-HC.jpg,1400,solid,I,m,567,7,2,12912.5,54511.5,8054,ATS,A,4
4,prac,1,A,haborder.png,1,m,Tue Aug 26 2025 16:52:59 GMT-0500 (Central Daylight Time),70473.0,CFD-WM-006-013-HC.jpg,1700,solid,I,m,565,9,2,15961.5,54511.5,8054,ATS,A,5
5,prac,1,A,haborder.png,1,m,Tue Aug 26 2025 16:52:59 GMT-0500 (Central Daylight Time),73789.09999999404,CFD-BM-017-052-HC.jpg,1700,solid,I,m,828,1,2,19277.59999999404,54511.5,8054,ATS,A,6
6,prac,1,A,haborder.png,1,z,Tue Aug 26 2025 16:52:59 GMT-0500 (Central Daylight Time),76771.29999999702,CFD-BM-005-010-A.jpg,1600,solid,I,z,597,2,2,22259.79999999702,54511.5,8054,ATS,A,7
7,prac,1,A,haborder.png,1,z,Tue Aug 26 2025 16:52:59 GMT-0500 (Central Daylight Time),79320.5,CFD-WF-019-015-A.jpg,1000,solid,I,z,750,12,2,24809.0,54511.5,8054,ATS,A,8
8,prac,1,A,haborder.png,1,z,Tue Aug 26 2025 16:52:59 GMT-0500 (Central Daylight Time),82653.0,CFD-WM-013-015-A.jpg,1900,solid,I,z,639,8,2,28141.5,54511.5,8054,ATS,A,9
9,prac,1,A,haborder.png,1,m,Tue Aug 26 2025 16:52:59 GMT-0500 (Central Daylight Time),85918.29999999702,CFD-BM-029-026-HC.jpg,1500,solid,I,m,969,3,2,31406.79999999702,54511.5,8054,ATS,A,10
10,prac,1,A,haborder.png,1,z,Tue Aug 26 2025 16:52:59 GMT-0500 (Central Daylight Time),89034.20000000298,CFD-WF-003-014-A.jpg,1600,solid,I,z,732,10,2,34522.70000000298,54511.5,8054,ATS,A,11
11,prac,1,A,haborder.png,1,z,Tue Aug 26 2025 16:52:59 GMT-0500 (Central Daylight Time),91650.0,CFD-BF-039-039-A.jpg,1200,solid,I,z,631,6,2,37138.5,54511.5,8054,ATS,A,12
1,prac,1,B,mfborder.png,1,z,Tue Aug 26 2025 16:52:59 GMT-0500 (Central Daylight Time),115392.59999999404,CFD-WF-002-008-HC.jpg,1900,dash,I,z,1267,8,2,3965.5,111427.09999999404,8054,ATS,A,1
2,prac,1,B,mfborder.png,1,m,Tue Aug 26 2025 16:52:59 GMT-0500 (Central Daylight Time),117858.0,CFD-WM-019-013-A.jpg,1200,dash,I,m,481,6,2,6430.9000000059605,111427.09999999404,8054,ATS,A,2
3,prac,1,B,mfborder.png,1,z,Tue Aug 26 2025 16:52:59 GMT-0500 (Central Daylight Time),120557.70000000298,CFD-WF-017-016-HC.jpg,1000,dash,I,z,903,12,2,9130.60000000894,111427.09999999404,8054,ATS,A,3
3,prac,1,B,mfborder.png,0,z,Tue Aug 26 2025 16:52:59 GMT-0500 (Central Daylight Time),123023.39999999106,CFD-BF-023-013-A.jpg,1000,dash,I,m,677,4,2,11596.29999999702,111427.09999999404,8054,ATS,A,4
4,prac,1,B,mfborder.png,1,m,Tue Aug 26 2025 16:52:59 GMT-0500 (Central Daylight Time),126555.70000000298,CFD-BM-029-026-HC.jpg,1700,dash,I,m,1038,1,2,15128.60000000894,111427.09999999404,8054,ATS,A,5
5,prac,1,B,mfborder.png,1,m,Tue Aug 26 2025 16:52:59 GMT-0500 (Central Daylight Time),129671.5,CFD-BM-010-019-A.jpg,1600,dash,I,m,726,2,2,18244.40000000596,111427.09999999404,8054,ATS,A,6
6,prac,1,B,mfborder.png,1,m,Tue Aug 26 2025 16:52:59 GMT-0500 (Central Daylight Time),132687.0,CFD-WM-006-013-HC.jpg,1600,dash,I,m,626,10,2,21259.90000000596,111427.09999999404,8054,ATS,A,7
7,prac,1,B,mfborder.png,1,m,Tue Aug 26 2025 16:52:59 GMT-0500 (Central Daylight Time),135779.20000000298,CFD-WM-013-015-A.jpg,1700,dash,I,m,543,9,2,24352.10000000894,111427.09999999404,8054,ATS,A,8
8,prac,1,B,mfborder.png,1,z,Tue Aug 26 2025 16:52:59 GMT-0500 (Central Daylight Time),138918.5,CFD-BF-010-005-HC.jpg,1500,dash,I,z,835,3,2,27491.40000000596,111427.09999999404,8054,ATS,A,9
9,prac,1,B,mfborder.png,1,z,Tue Aug 26 2025 16:52:59 GMT-0500 (Central Daylight Time),141817.59999999404,CFD-WF-003-014-A.jpg,1500,dash,I,z,615,11,2,30390.5,111427.09999999404,8054,ATS,A,10
10,prac,1,B,mfborder.png,1,z,Tue Aug 26 2025 16:52:59 GMT-0500 (Central Daylight Time),144733.39999999106,CFD-BF-028-020-HC.jpg,1400,dash,I,z,720,7,2,33306.29999999702,111427.09999999404,8054,ATS,A,11
11,prac,1,B,mfborder.png,1,m,Tue Aug 26 2025 16:52:59 GMT-0500 (Central Daylight Time),148298.79999999702,CFD-BM-005-010-A.jpg,2000,dash,I,m,781,5,2,36871.70000000298,111427.09999999404,8054,ATS,A,12
1,test,1,A,haborder.png,1,m,Tue Aug 26 2025 16:52:59 GMT-0500 (Central Daylight Time),165360.20000000298,CFD-WF-017-016-HC.jpg,1500,solid,I,m,1035,11,2,2565.9000000059605,162794.29999999702,8054,ATS,A,1
2,test,1,A,haborder.png,1,z,Tue Aug 26 2025 16:52:59 GMT-0500 (Central Daylight Time),167159.5,CFD-WF-019-015-A.jpg,1000,solid,I,z,774,12,2,4365.20000000298,162794.29999999702,8054,ATS,A,2
2,test,1,A,haborder.png,0,z,Tue Aug 26 2025 16:52:59 GMT-0500 (Central Daylight Time),169125.5,CFD-BF-039-039-A.jpg,1200,solid,I,m,746,6,2,6331.20000000298,162794.29999999702,8054,ATS,A,3
3,test,1,A,haborder.png,1,z,Tue Aug 26 2025 16:52:59 GMT-0500 (Central Daylight Time),171725.20000000298,CFD-BM-005-010-A.jpg,1600,solid,I,z,973,2,2,8930.90000000596,162794.29999999702,8054,ATS,A,4
4,test,1,A,haborder.png,1,z,Tue Aug 26 2025 16:52:59 GMT-0500 (Central Daylight Time),173974.20000000298,CFD-WF-003-014-A.jpg,1600,solid,I,z,621,10,2,11179.90000000596,162794.29999999702,8054,ATS,A,5
5,test,1,A,haborder.png,1,m,Tue Aug 26 2025 16:52:59 GMT-0500 (Central Daylight Time),176023.29999999702,CFD-WM-004-005-HC.jpg,1400,solid,I,m,627,7,2,13229.0,162794.29999999702,8054,ATS,A,6
6,test,1,A,haborder.png,1,z,Tue Aug 26 2025 16:52:59 GMT-0500 (Central Daylight Time),178539.20000000298,CFD-WM-013-015-A.jpg,1900,solid,I,z,598,8,2,15744.90000000596,162794.29999999702,8054,ATS,A,7
7,test,1,A,haborder.png,1,m,Tue Aug 26 2025 16:52:59 GMT-0500 (Central Daylight Time),180954.89999999106,CFD-WM-006-013-HC.jpg,1700,solid,I,m,698,9,2,18160.59999999404,162794.29999999702,8054,ATS,A,8
8,test,1,A,haborder.png,1,z,Tue Aug 26 2025 16:52:59 GMT-0500 (Central Daylight Time),183804.29999999702,CFD-WM-013-015-A.jpg,1900,solid,I,z,886,8,2,21010.0,162794.29999999702,8054,ATS,A,9
9,test,1,A,haborder.png,1,m,Tue Aug 26 2025 16:52:59 GMT-0500 (Central Daylight Time),186236.89999999106,CFD-BM-017-052-HC.jpg,1700,solid,I,m,705,1,2,23442.59999999404,162794.29999999702,8054,ATS,A,10
10,test,1,A,haborder.png,1,m,Tue Aug 26 2025 16:52:59 GMT-0500 (Central Daylight Time),189036.09999999404,CFD-BF-028-020-HC.jpg,2000,solid,I,m,781,5,2,26241.79999999702,162794.29999999702,8054,ATS,A,11
11,test,1,A,haborder.png,1,z,Tue Aug 26 2025 16:52:59 GMT-0500 (Central Daylight Time),190769.0,CFD-WF-019-015-A.jpg,1000,solid,I,z,710,12,2,27974.70000000298,162794.29999999702,8054,ATS,A,12
12,test,1,A,haborder.png,1,z,Tue Aug 26 2025 16:52:59 GMT-0500 (Central Daylight Time),192801.89999999106,CFD-BF-039-039-A.jpg,1200,solid,I,z,801,6,2,30007.59999999404,162794.29999999702,8054,ATS,A,13
13,test,1,A,haborder.png,1,z,Tue Aug 26 2025 16:52:59 GMT-0500 (Central Daylight Time),194417.70000000298,CFD-BF-023-013-A.jpg,1000,solid,I,z,584,4,2,31623.40000000596,162794.29999999702,8054,ATS,A,14
14,test,1,A,haborder.png,1,z,Tue Aug 26 2025 16:52:59 GMT-0500 (Central Daylight Time),196083.89999999106,CFD-BF-023-013-A.jpg,1000,solid,I,z,648,4,2,33289.59999999404,162794.29999999702,8054,ATS,A,15
15,test,1,A,haborder.png,1,m,Tue Aug 26 2025 16:52:59 GMT-0500 (Central Daylight Time),198466.29999999702,CFD-BM-029-026-HC.jpg,1500,solid,I,m,850,3,2,35672.0,162794.29999999702,8054,ATS,A,16
16,test,1,A,haborder.png,1,m,Tue Aug 26 2025 16:52:59 GMT-0500 (Central Daylight Time),200815.59999999404,CFD-WM-006-013-HC.jpg,1700,solid,I,m,627,9,2,38021.29999999702,162794.29999999702,8054,ATS,A,17
17,test,1,A,haborder.png,1,m,Tue Aug 26 2025 16:52:59 GMT-0500 (Central Daylight Time),203014.89999999106,CFD-WF-017-016-HC.jpg,1500,solid,I,m,670,11,2,40220.59999999404,162794.29999999702,8054,ATS,A,18
18,test,1,A,haborder.png,1,m,Tue Aug 26 2025 16:52:59 GMT-0500 (Central Daylight Time),205231.20000000298,CFD-WM-004-005-HC.jpg,1400,solid,I,m,796,7,2,42436.90000000596,162794.29999999702,8054,ATS,A,19
19,test,1,A,haborder.png,1,z,Tue Aug 26 2025 16:52:59 GMT-0500 (Central Daylight Time),207530.09999999404,CFD-BM-005-010-A.jpg,1600,solid,I,z,667,2,2,44735.79999999702,162794.29999999702,8054,ATS,A,20
19,test,1,A,haborder.png,0,m,Tue Aug 26 2025 16:52:59 GMT-0500 (Central Daylight Time),210079.39999999106,CFD-BF-028-020-HC.jpg,2000,solid,I,z,529,5,2,47285.09999999404,162794.29999999702,8054,ATS,A,21
20,test,1,A,haborder.png,1,m,Tue Aug 26 2025 16:52:59 GMT-0500 (Central Daylight Time),212429.79999999702,CFD-BM-017-052-HC.jpg,1700,solid,I,m,631,1,2,49635.5,162794.29999999702,8054,ATS,A,22
21,test,1,A,haborder.png,1,m,Tue Aug 26 2025 16:52:59 GMT-0500 (Central Daylight Time),214544.70000000298,CFD-BM-029-026-HC.jpg,1500,solid,I,m,594,3,2,51750.40000000596,162794.29999999702,8054,ATS,A,23
22,test,1,A,haborder.png,1,z,Tue Aug 26 2025 16:52:59 GMT-0500 (Central Daylight Time),216760.70000000298,CFD-WF-003-014-A.jpg,1600,solid,I,z,593,10,2,53966.40000000596,162794.29999999702,8054,ATS,A,24
1,test,1,B,mfborder.png,1,m,Tue Aug 26 2025 16:52:59 GMT-0500 (Central Daylight Time),226407.5,CFD-WM-006-013-HC.jpg,1600,dash,I,m,1269,10,2,2898.7999999970198,223508.70000000298,8054,ATS,A,1
2,test,1,B,mfborder.png,1,z,Tue Aug 26 2025 16:52:59 GMT-0500 (Central Daylight Time),228157.0,CFD-BF-023-013-A.jpg,1000,dash,I,z,722,4,2,4648.29999999702,223508.70000000298,8054,ATS,A,2
3,test,1,B,mfborder.png,1,m,Tue Aug 26 2025 16:52:59 GMT-0500 (Central Daylight Time),230539.70000000298,CFD-BM-010-019-A.jpg,1600,dash,I,m,757,2,2,7031.0,223508.70000000298,8054,ATS,A,3
4,test,1,B,mfborder.png,1,z,Tue Aug 26 2025 16:52:59 GMT-0500 (Central Daylight Time),233205.5,CFD-BF-010-005-HC.jpg,1500,dash,I,z,1138,3,2,9696.79999999702,223508.70000000298,8054,ATS,A,4
5,test,1,B,mfborder.png,1,z,Tue Aug 26 2025 16:52:59 GMT-0500 (Central Daylight Time),234838.20000000298,CFD-WF-017-016-HC.jpg,1000,dash,I,z,604,12,2,11329.5,223508.70000000298,8054,ATS,A,5
6,test,1,B,mfborder.png,1,m,Tue Aug 26 2025 16:52:59 GMT-0500 (Central Daylight Time),237404.09999999404,CFD-BM-005-010-A.jpg,2000,dash,I,m,547,5,2,13895.39999999106,223508.70000000298,8054,ATS,A,6
7,test,1,B,mfborder.png,1,m,Tue Aug 26 2025 16:52:59 GMT-0500 (Central Daylight Time),239570.29999999702,CFD-BM-029-026-HC.jpg,1700,dash,I,m,442,1,2,16061.59999999404,223508.70000000298,8054,ATS,A,7
8,test,1,B,mfborder.png,1,z,Tue Aug 26 2025 16:52:59 GMT-0500 (Central Daylight Time),241653.0,CFD-WF-003-014-A.jpg,1500,dash,I,z,555,11,2,18144.29999999702,223508.70000000298,8054,ATS,A,8
9,test,1,B,mfborder.png,1,m,Tue Aug 26 2025 16:52:59 GMT-0500 (Central Daylight Time),243585.79999999702,CFD-WM-019-013-A.jpg,1200,dash,I,m,701,6,2,20077.09999999404,223508.70000000298,8054,ATS,A,9
10,test,1,B,mfborder.png,1,z,Tue Aug 26 2025 16:52:59 GMT-0500 (Central Daylight Time),245701.70000000298,CFD-BF-010-005-HC.jpg,1500,dash,I,z,588,3,2,22193.0,223508.70000000298,8054,ATS,A,10
11,test,1,B,mfborder.png,1,m,Tue Aug 26 2025 16:52:59 GMT-0500 (Central Daylight Time),247867.5,CFD-BM-010-019-A.jpg,1600,dash,I,m,548,2,2,24358.79999999702,223508.70000000298,8054,ATS,A,11
12,test,1,B,mfborder.png,1,z,Tue Aug 26 2025 16:52:59 GMT-0500 (Central Daylight Time),250033.59999999404,CFD-WF-003-014-A.jpg,1500,dash,I,z,643,11,2,26524.89999999106,223508.70000000298,8054,ATS,A,12
13,test,1,B,mfborder.png,1,z,Tue Aug 26 2025 16:52:59 GMT-0500 (Central Daylight Time),251616.5,CFD-BF-023-013-A.jpg,1000,dash,I,z,560,4,2,28107.79999999702,223508.70000000298,8054,ATS,A,13
14,test,1,B,mfborder.png,1,m,Tue Aug 26 2025 16:52:59 GMT-0500 (Central Daylight Time),253877.29999999702,CFD-WM-006-013-HC.jpg,1600,dash,I,m,627,10,2,30368.59999999404,223508.70000000298,8054,ATS,A,14
15,test,1,B,mfborder.png,1,z,Tue Aug 26 2025 16:52:59 GMT-0500 (Central Daylight Time),255548.5,CFD-WF-017-016-HC.jpg,1000,dash,I,z,647,12,2,32039.79999999702,223508.70000000298,8054,ATS,A,15
16,test,1,B,mfborder.png,1,z,Tue Aug 26 2025 16:52:59 GMT-0500 (Central Daylight Time),257797.79999999702,CFD-BF-028-020-HC.jpg,1400,dash,I,z,822,7,2,34289.09999999404,223508.70000000298,8054,ATS,A,16
17,test,1,B,mfborder.png,1,m,Tue Aug 26 2025 16:52:59 GMT-0500 (Central Daylight Time),260097.20000000298,CFD-WM-013-015-A.jpg,1700,dash,I,m,568,9,2,36588.5,223508.70000000298,8054,ATS,A,17
18,test,1,B,mfborder.png,1,m,Tue Aug 26 2025 16:52:59 GMT-0500 (Central Daylight Time),262362.89999999106,CFD-WM-013-015-A.jpg,1700,dash,I,m,540,9,2,38854.19999998808,223508.70000000298,8054,ATS,A,18
19,test,1,B,mfborder.png,1,z,Tue Aug 26 2025 16:52:59 GMT-0500 (Central Daylight Time),264479.200000003,CFD-BF-028-020-HC.jpg,1400,dash,I,z,686,7,2,40970.5,223508.70000000298,8054,ATS,A,19
20,test,1,B,mfborder.png,1,m,Tue Aug 26 2025 16:52:59 GMT-0500 (Central Daylight Time),266311.700000003,CFD-WM-019-013-A.jpg,1200,dash,I,m,611,6,2,42803.0,223508.70000000298,8054,ATS,A,20
21,test,1,B,mfborder.png,1,z,Tue Aug 26 2025 16:52:59 GMT-0500 (Central Daylight Time),268977.5,CFD-WF-002-008-HC.jpg,1900,dash,I,z,734,8,2,45468.79999999702,223508.70000000298,8054,ATS,A,21
22,test,1,B,mfborder.png,1,m,Tue Aug 26 2025 16:52:59 GMT-0500 (Central Daylight Time),271510.200000003,CFD-BM-005-010-A.jpg,2000,dash,I,m,513,5,2,48001.5,223508.70000000298,8054,ATS,A,22
23,test,1,B,mfborder.png,1,m,Tue Aug 26 2025 16:52:59 GMT-0500 (Central Daylight Time),273742.89999999106,CFD-BM-029-026-HC.jpg,1700,dash,I,m,512,1,2,50234.19999998808,223508.70000000298,8054,ATS,A,23
24,test,1,B,mfborder.png,1,z,Tue Aug 26 2025 16:52:59 GMT-0500 (Central Daylight Time),276225.5,CFD-WF-002-008-HC.jpg,1900,dash,I,z,551,8,2,52716.79999999702,223508.70000000298,8054,ATS,A,24
0,prac,1,C,mfborder.png,0,z,Tue Aug 26 2025 16:52:59 GMT-0500 (Central Daylight Time),306366.09999999404,CFD-WF-019-015-A.jpg,1500,solid,I,None,1515,2,2,3798.8999999910593,302567.200000003,8054,ATS,A,1
0,prac,1,C,haborder.png,0,z,Tue Aug 26 2025 16:52:59 GMT-0500 (Central Daylight Time),310564.5,CFD-BF-023-013-A.jpg,1900,dash,I,None,1516,7,2,7997.29999999702,302567.200000003,8054,ATS,A,2
1,prac,1,C,haborder.png,1,m,Tue Aug 26 2025 16:52:59 GMT-0500 (Central Daylight Time),314163.700000003,CFD-BM-029-026-HC.jpg,1500,solid,I,m,1313,10,2,11596.5,302567.200000003,8054,ATS,A,3
2,prac,1,C,mfborder.png,1,m,Tue Aug 26 2025 16:52:59 GMT-0500 (Central Daylight Time),317978.799999997,CFD-BM-017-052-HC.jpg,2000,solid,I,m,1030,4,2,15411.59999999404,302567.200000003,8054,ATS,A,4
2,prac,1,C,mfborder.png,0,z,Tue Aug 26 2025 16:52:59 GMT-0500 (Central Daylight Time),321294.5,CFD-WF-017-016-HC.jpg,1600,dash,I,m,920,1,2,18727.29999999702,302567.200000003,8054,ATS,A,5
3,prac,1,C,mfborder.png,1,z,Tue Aug 26 2025 16:52:59 GMT-0500 (Central Daylight Time),324522.39999999106,CFD-BF-028-020-HC.jpg,1000,dash,I,z,1419,3,2,21955.19999998808,302567.200000003,8054,ATS,A,6
3,prac,1,C,haborder.png,0,z,Tue Aug 26 2025 16:52:59 GMT-0500 (Central Daylight Time),328142.5,CFD-WF-003-014-A.jpg,1600,dash,I,m,1219,9,2,25575.29999999702,302567.200000003,8054,ATS,A,7
4,prac,1,C,mfborder.png,1,m,Tue Aug 26 2025 16:52:59 GMT-0500 (Central Daylight Time),331458.0,CFD-BM-005-010-A.jpg,1200,dash,I,m,1331,5,2,28890.79999999702,302567.200000003,8054,ATS,A,8
4,prac,1,C,haborder.png,0,m,Tue Aug 26 2025 16:52:59 GMT-0500 (Central Daylight Time),334307.299999997,CFD-WM-004-005-HC.jpg,1000,dash,I,z,1055,11,2,31740.09999999404,302567.200000003,8054,ATS,A,9
4,prac,1,C,haborder.png,0,z,Tue Aug 26 2025 16:52:59 GMT-0500 (Central Daylight Time),338305.89999999106,CFD-BF-039-039-A.jpg,1700,solid,I,None,1515,8,2,35738.69999998808,302567.200000003,8054,ATS,A,10
5,prac,1,C,haborder.png,1,m,Tue Aug 26 2025 16:52:59 GMT-0500 (Central Daylight Time),341621.59999999404,CFD-WM-004-005-HC.jpg,1400,solid,I,m,1127,12,2,39054.39999999106,302567.200000003,8054,ATS,A,11
6,prac,1,C,mfborder.png,1,m,Tue Aug 26 2025 16:52:59 GMT-0500 (Central Daylight Time),345337.09999999404,CFD-WM-013-015-A.jpg,1700,solid,I,m,1232,6,2,42769.89999999106,302567.200000003,8054,ATS,A,12
0,test,1,C,mfborder.png,0,m,Tue Aug 26 2025 16:52:59 GMT-0500 (Central Daylight Time),356817.0,CFD-WM-006-013-HC.jpg,1000,dash,I,None,1516,4,2,2532.7000000029802,354284.299999997,8054,ATS,A,1
0,test,1,C,haborder.png,0,m,Tue Aug 26 2025 16:52:59 GMT-0500 (Central Daylight Time),359949.299999997,CFD-BF-028-020-HC.jpg,1600,solid,I,None,1516,10,2,5665.0,354284.299999997,8054,ATS,A,2
1,test,1,C,mfborder.png,1,m,Tue Aug 26 2025 16:52:59 GMT-0500 (Central Daylight Time),363081.59999999404,CFD-WM-019-013-A.jpg,2000,dash,I,m,1109,5,2,8797.29999999702,354284.299999997,8054,ATS,A,3
2,test,1,C,mfborder.png,1,z,Tue Aug 26 2025 16:52:59 GMT-0500 (Central Daylight Time),365897.299999997,CFD-WF-003-014-A.jpg,1500,dash,I,z,1292,3,2,11613.0,354284.299999997,8054,ATS,A,4
3,test,1,C,haborder.png,1,m,Tue Aug 26 2025 16:52:59 GMT-0500 (Central Daylight Time),368546.5,CFD-WF-002-008-HC.jpg,1500,solid,I,m,1116,11,2,14262.20000000298,354284.299999997,8054,ATS,A,5
3,test,1,C,haborder.png,0,z,Tue Aug 26 2025 16:52:59 GMT-0500 (Central Daylight Time),371362.200000003,CFD-BM-010-019-A.jpg,1700,solid,I,m,1091,9,2,17077.90000000596,354284.299999997,8054,ATS,A,6
3,test,1,C,mfborder.png,0,z,Tue Aug 26 2025 16:52:59 GMT-0500 (Central Daylight Time),373861.5,CFD-BF-010-005-HC.jpg,1700,dash,I,m,780,1,2,19577.20000000298,354284.299999997,8054,ATS,A,7
4,test,1,C,haborder.png,1,m,Tue Aug 26 2025 16:52:59 GMT-0500 (Central Daylight Time),376077.299999997,CFD-WF-017-016-HC.jpg,1000,solid,I,m,1197,12,2,21793.0,354284.299999997,8054,ATS,A,8
4,test,1,C,haborder.png,0,z,Tue Aug 26 2025 16:52:59 GMT-0500 (Central Daylight Time),378860.700000003,CFD-WM-013-015-A.jpg,1400,solid,I,m,1365,7,2,24576.40000000596,354284.299999997,8054,ATS,A,9
5,test,1,C,haborder.png,1,m,Tue Aug 26 2025 16:52:59 GMT-0500 (Central Daylight Time),381575.799999997,CFD-BF-028-020-HC.jpg,1600,solid,I,m,1095,10,2,27291.5,354284.299999997,8054,ATS,A,10
6,test,1,C,mfborder.png,1,m,Tue Aug 26 2025 16:52:59 GMT-0500 (Central Daylight Time),384425.0,CFD-WM-019-013-A.jpg,2000,dash,I,m,818,5,2,30140.70000000298,354284.299999997,8054,ATS,A,11
7,test,1,C,mfborder.png,1,m,Tue Aug 26 2025 16:52:59 GMT-0500 (Central Daylight Time),386307.200000003,CFD-WM-006-013-HC.jpg,1000,dash,I,m,865,4,2,32022.90000000596,354284.299999997,8054,ATS,A,12
8,test,1,C,haborder.png,1,z,Tue Aug 26 2025 16:52:59 GMT-0500 (Central Daylight Time),389056.89999999106,CFD-BM-005-010-A.jpg,1900,solid,I,z,826,8,2,34772.59999999404,354284.299999997,8054,ATS,A,13
8,test,1,C,haborder.png,0,z,Tue Aug 26 2025 16:52:59 GMT-0500 (Central Daylight Time),392289.200000003,CFD-BM-010-019-A.jpg,1700,solid,I,None,1516,9,2,38004.90000000596,354284.299999997,8054,ATS,A,14
9,test,1,C,haborder.png,1,z,Tue Aug 26 2025 16:52:59 GMT-0500 (Central Daylight Time),394871.59999999404,CFD-WM-013-015-A.jpg,1400,solid,I,z,1151,7,2,40587.29999999702,354284.299999997,8054,ATS,A,15
9,test,1,C,haborder.png,0,m,Tue Aug 26 2025 16:52:59 GMT-0500 (Central Daylight Time),397653.89999999106,CFD-WF-002-008-HC.jpg,1500,solid,I,z,1262,11,2,43369.59999999404,354284.299999997,8054,ATS,A,16
9,test,1,C,mfborder.png,0,z,Tue Aug 26 2025 16:52:59 GMT-0500 (Central Daylight Time),400652.700000003,CFD-BF-023-013-A.jpg,1600,dash,I,m,1371,2,2,46368.40000000596,354284.299999997,8054,ATS,A,17
10,test,1,C,mfborder.png,1,m,Tue Aug 26 2025 16:52:59 GMT-0500 (Central Daylight Time),402702.299999997,CFD-BM-029-026-HC.jpg,1200,dash,I,m,828,6,2,48418.0,354284.299999997,8054,ATS,A,18
11,test,1,C,haborder.png,1,z,Tue Aug 26 2025 16:52:59 GMT-0500 (Central Daylight Time),405884.89999999106,CFD-BM-005-010-A.jpg,1900,solid,I,z,1256,8,2,51600.59999999404,354284.299999997,8054,ATS,A,19
12,test,1,C,mfborder.png,1,z,Tue Aug 26 2025 16:52:59 GMT-0500 (Central Daylight Time),408783.799999997,CFD-BF-010-005-HC.jpg,1700,dash,I,z,1168,1,2,54499.5,354284.299999997,8054,ATS,A,20
13,test,1,C,mfborder.png,1,z,Tue Aug 26 2025 16:52:59 GMT-0500 (Central Daylight Time),411482.89999999106,CFD-BF-023-013-A.jpg,1600,dash,I,z,1075,2,2,57198.59999999404,354284.299999997,8054,ATS,A,21
14,test,1,C,haborder.png,1,m,Tue Aug 26 2025 16:52:59 GMT-0500 (Central Daylight Time),413882.200000003,CFD-WF-017-016-HC.jpg,1000,solid,I,m,1366,12,2,59597.90000000596,354284.299999997,8054,ATS,A,22
15,test,1,C,mfborder.png,1,m,Tue Aug 26 2025 16:52:59 GMT-0500 (Central Daylight Time),416164.700000003,CFD-BM-029-026-HC.jpg,1200,dash,I,m,1063,6,2,61880.40000000596,354284.299999997,8054,ATS,A,23
15,test,1,C,mfborder.png,0,z,Tue Aug 26 2025 16:52:59 GMT-0500 (Central Daylight Time),418842.39999999106,CFD-WF-003-014-A.jpg,1500,dash,I,m,1145,3,2,64558.09999999404,354284.299999997,8054,ATS,A,24
0,test,2,C,mfborder.png,0,m,Tue Aug 26 2025 16:52:59 GMT-0500 (Central Daylight Time),425362.0,CFD-BM-005-010-A.jpg,2000,dash,I,None,1516,5,2,3532.4000000059605,421829.59999999404,8054,ATS,A,1
0,test,2,C,haborder.png,0,m,Tue Aug 26 2025 16:52:59 GMT-0500 (Central Daylight Time),428494.5,CFD-BM-029-026-HC.jpg,1600,solid,I,None,1516,10,2,6664.9000000059605,421829.59999999404,8054,ATS,A,2
1,test,2,C,haborder.png,1,m,Tue Aug 26 2025 16:52:59 GMT-0500 (Central Daylight Time),430860.09999999404,CFD-WM-004-005-HC.jpg,1500,solid,I,m,848,11,2,9030.5,421829.59999999404,8054,ATS,A,3
2,test,2,C,mfborder.png,1,m,Tue Aug 26 2025 16:52:59 GMT-0500 (Central Daylight Time),432826.09999999404,CFD-BM-017-052-HC.jpg,1000,dash,I,m,942,4,2,10996.5,421829.59999999404,8054,ATS,A,4
2,test,2,C,haborder.png,0,z,Tue Aug 26 2025 16:52:59 GMT-0500 (Central Daylight Time),436258.5,CFD-BF-039-039-A.jpg,1900,solid,I,None,1515,8,2,14428.90000000596,421829.59999999404,8054,ATS,A,5
3,test,2,C,haborder.png,1,m,Tue Aug 26 2025 16:52:59 GMT-0500 (Central Daylight Time),438308.0,CFD-WM-004-005-HC.jpg,1000,solid,I,m,1024,12,2,16478.40000000596,421829.59999999404,8054,ATS,A,6
4,test,2,C,haborder.png,1,m,Tue Aug 26 2025 16:52:59 GMT-0500 (Central Daylight Time),440040.700000003,CFD-WM-004-005-HC.jpg,1000,solid,I,m,710,12,2,18211.10000000894,421829.59999999404,8054,ATS,A,7
5,test,2,C,haborder.png,1,z,Tue Aug 26 2025 16:52:59 GMT-0500 (Central Daylight Time),442506.200000003,CFD-BF-023-013-A.jpg,1400,solid,I,z,1041,7,2,20676.60000000894,421829.59999999404,8054,ATS,A,8
5,test,2,C,mfborder.png,0,z,Tue Aug 26 2025 16:52:59 GMT-0500 (Central Daylight Time),445739.09999999404,CFD-WF-017-016-HC.jpg,1700,dash,I,None,1516,1,2,23909.5,421829.59999999404,8054,ATS,A,9
6,test,2,C,haborder.png,1,z,Tue Aug 26 2025 16:52:59 GMT-0500 (Central Daylight Time),448771.0,CFD-WF-003-014-A.jpg,1700,solid,I,z,1315,9,2,26941.40000000596,421829.59999999404,8054,ATS,A,10
7,test,2,C,haborder.png,1,m,Tue Aug 26 2025 16:52:59 GMT-0500 (Central Daylight Time),451770.299999997,CFD-BM-029-026-HC.jpg,1600,solid,I,m,1375,10,2,29940.70000000298,421829.59999999404,8054,ATS,A,11
8,test,2,C,haborder.png,1,z,Tue Aug 26 2025 16:52:59 GMT-0500 (Central Daylight Time),454536.200000003,CFD-WF-003-014-A.jpg,1700,solid,I,z,1036,9,2,32706.60000000894,421829.59999999404,8054,ATS,A,12
9,test,2,C,haborder.png,1,z,Tue Aug 26 2025 16:52:59 GMT-0500 (Central Daylight Time),456735.39999999106,CFD-BF-023-013-A.jpg,1400,solid,I,z,769,7,2,34905.79999999702,421829.59999999404,8054,ATS,A,13
10,test,2,C,mfborder.png,1,m,Tue Aug 26 2025 16:52:59 GMT-0500 (Central Daylight Time),458668.39999999106,CFD-WM-013-015-A.jpg,1200,dash,I,m,707,6,2,36838.79999999702,421829.59999999404,8054,ATS,A,14
11,test,2,C,haborder.png,1,z,Tue Aug 26 2025 16:52:59 GMT-0500 (Central Daylight Time),461683.89999999106,CFD-BF-039-039-A.jpg,1900,solid,I,z,1097,8,2,39854.29999999702,421829.59999999404,8054,ATS,A,15
12,test,2,C,mfborder.png,1,z,Tue Aug 26 2025 16:52:59 GMT-0500 (Central Daylight Time),464516.299999997,CFD-WF-019-015-A.jpg,1600,dash,I,z,1214,2,2,42686.70000000298,421829.59999999404,8054,ATS,A,16
13,test,2,C,mfborder.png,1,m,Tue Aug 26 2025 16:52:59 GMT-0500 (Central Daylight Time),467448.700000003,CFD-BM-005-010-A.jpg,2000,dash,I,m,902,5,2,45619.10000000894,421829.59999999404,8054,ATS,A,17
13,test,2,C,mfborder.png,0,z,Tue Aug 26 2025 16:52:59 GMT-0500 (Central Daylight Time),470581.0,CFD-WF-019-015-A.jpg,1600,dash,I,None,1516,2,2,48751.40000000596,421829.59999999404,8054,ATS,A,18
14,test,2,C,mfborder.png,1,z,Tue Aug 26 2025 16:52:59 GMT-0500 (Central Daylight Time),473013.59999999404,CFD-BF-028-020-HC.jpg,1500,dash,I,z,904,3,2,51184.0,421829.59999999404,8054,ATS,A,19
15,test,2,C,mfborder.png,1,z,Tue Aug 26 2025 16:52:59 GMT-0500 (Central Daylight Time),475313.0,CFD-WF-017-016-HC.jpg,1700,dash,I,z,568,1,2,53483.40000000596,421829.59999999404,8054,ATS,A,20
16,test,2,C,haborder.png,1,m,Tue Aug 26 2025 16:52:59 GMT-0500 (Central Daylight Time),477912.299999997,CFD-WM-004-005-HC.jpg,1500,solid,I,m,1078,11,2,56082.70000000298,421829.59999999404,8054,ATS,A,21
17,test,2,C,mfborder.png,1,m,Tue Aug 26 2025 16:52:59 GMT-0500 (Central Daylight Time),480028.0,CFD-WM-013-015-A.jpg,1200,dash,I,m,897,6,2,58198.40000000596,421829.59999999404,8054,ATS,A,22
18,test,2,C,mfborder.png,1,z,Tue Aug 26 2025 16:52:59 GMT-0500 (Central Daylight Time),482594.09999999404,CFD-BF-028-020-HC.jpg,1500,dash,I,z,1041,3,2,60764.5,421829.59999999404,8054,ATS,A,23
18,test,2,C,mfborder.png,0,m,Tue Aug 26 2025 16:52:59 GMT-0500 (Central Daylight Time),484643.39999999106,CFD-BM-017-052-HC.jpg,1000,dash,I,z,1023,4,2,62813.79999999702,421829.59999999404,8054,ATS,A,24
1,test,3,C,mfborder.png,1,z,Tue Aug 26 2025 16:52:59 GMT-0500 (Central Daylight Time),489419.799999997,CFD-BF-010-005-HC.jpg,1700,dash,I,z,1193,1,2,2910.2000000029802,486509.59999999404,8054,ATS,A,1
2,test,3,C,haborder.png,1,z,Tue Aug 26 2025 16:52:59 GMT-0500 (Central Daylight Time),492323.89999999106,CFD-WM-013-015-A.jpg,1400,solid,I,z,1472,7,2,5814.29999999702,486509.59999999404,8054,ATS,A,2
3,test,3,C,haborder.png,1,m,Tue Aug 26 2025 16:52:59 GMT-0500 (Central Daylight Time),494690.0,CFD-WF-017-016-HC.jpg,1000,solid,I,m,1333,12,2,8180.4000000059605,486509.59999999404,8054,ATS,A,3
4,test,3,C,haborder.png,1,m,Tue Aug 26 2025 16:52:59 GMT-0500 (Central Daylight Time),497356.0,CFD-BF-028-020-HC.jpg,1600,solid,I,m,1047,10,2,10846.40000000596,486509.59999999404,8054,ATS,A,4
5,test,3,C,mfborder.png,1,z,Tue Aug 26 2025 16:52:59 GMT-0500 (Central Daylight Time),500371.59999999404,CFD-WF-003-014-A.jpg,1500,dash,I,z,1497,3,2,13862.0,486509.59999999404,8054,ATS,A,5
6,test,3,C,mfborder.png,1,m,Tue Aug 26 2025 16:52:59 GMT-0500 (Central Daylight Time),503387.200000003,CFD-WM-019-013-A.jpg,2000,dash,I,m,998,5,2,16877.60000000894,486509.59999999404,8054,ATS,A,6
7,test,3,C,haborder.png,1,z,Tue Aug 26 2025 16:52:59 GMT-0500 (Central Daylight Time),505803.5,CFD-WM-013-015-A.jpg,1400,solid,I,z,990,7,2,19293.90000000596,486509.59999999404,8054,ATS,A,7
7,test,3,C,mfborder.png,0,m,Tue Aug 26 2025 16:52:59 GMT-0500 (Central Daylight Time),508535.89999999106,CFD-BM-029-026-HC.jpg,1200,dash,I,None,1516,6,2,22026.29999999702,486509.59999999404,8054,ATS,A,8
8,test,3,C,haborder.png,1,m,Tue Aug 26 2025 16:52:59 GMT-0500 (Central Daylight Time),510752.200000003,CFD-WF-017-016-HC.jpg,1000,solid,I,m,1194,12,2,24242.60000000894,486509.59999999404,8054,ATS,A,9
9,test,3,C,mfborder.png,1,z,Tue Aug 26 2025 16:52:59 GMT-0500 (Central Daylight Time),513500.700000003,CFD-BF-023-013-A.jpg,1600,dash,I,z,1131,2,2,26991.10000000894,486509.59999999404,8054,ATS,A,10
10,test,3,C,mfborder.png,1,m,Tue Aug 26 2025 16:52:59 GMT-0500 (Central Daylight Time),515650.39999999106,CFD-BM-029-026-HC.jpg,1200,dash,I,m,932,6,2,29140.79999999702,486509.59999999404,8054,ATS,A,11
10,test,3,C,haborder.png,0,m,Tue Aug 26 2025 16:52:59 GMT-0500 (Central Daylight Time),518299.200000003,CFD-WF-002-008-HC.jpg,1500,solid,I,z,1131,11,2,31789.60000000894,486509.59999999404,8054,ATS,A,12
11,test,3,C,haborder.png,1,z,Tue Aug 26 2025 16:52:59 GMT-0500 (Central Daylight Time),520948.700000003,CFD-BM-010-019-A.jpg,1700,solid,I,z,930,9,2,34439.10000000894,486509.59999999404,8054,ATS,A,13
12,test,3,C,haborder.png,1,m,Tue Aug 26 2025 16:52:59 GMT-0500 (Central Daylight Time),523398.0,CFD-BF-028-020-HC.jpg,1600,solid,I,m,830,10,2,36888.40000000596,486509.59999999404,8054,ATS,A,14
13,test,3,C,mfborder.png,1,z,Tue Aug 26 2025 16:52:59 GMT-0500 (Central Daylight Time),526163.799999997,CFD-BF-010-005-HC.jpg,1700,dash,I,z,1041,1,2,39654.20000000298,486509.59999999404,8054,ATS,A,15
14,test,3,C,mfborder.png,1,m,Tue Aug 26 2025 16:52:59 GMT-0500 (Central Daylight Time),528029.700000003,CFD-WM-006-013-HC.jpg,1000,dash,I,m,839,4,2,41520.10000000894,486509.59999999404,8054,ATS,A,16
15,test,3,C,mfborder.png,1,z,Tue Aug 26 2025 16:52:59 GMT-0500 (Central Daylight Time),530278.8999999911,CFD-WF-003-014-A.jpg,1500,dash,I,z,729,3,2,43769.29999999702,486509.59999999404,8054,ATS,A,17
15,test,3,C,haborder.png,0,z,Tue Aug 26 2025 16:52:59 GMT-0500 (Central Daylight Time),533411.299999997,CFD-BM-005-010-A.jpg,1900,solid,I,m,1207,8,2,46901.70000000298,486509.59999999404,8054,ATS,A,18
16,test,3,C,mfborder.png,1,m,Tue Aug 26 2025 16:52:59 GMT-0500 (Central Daylight Time),536705.3999999911,CFD-WM-019-013-A.jpg,2000,dash,I,m,1131,5,2,50195.79999999702,486509.59999999404,8054,ATS,A,19
17,test,3,C,mfborder.png,1,z,Tue Aug 26 2025 16:52:59 GMT-0500 (Central Daylight Time),539409.299999997,CFD-BF-023-013-A.jpg,1600,dash,I,z,1067,2,2,52899.70000000298,486509.59999999404,8054,ATS,A,20
18,test,3,C,haborder.png,1,z,Tue Aug 26 2025 16:52:59 GMT-0500 (Central Daylight Time),542675.200000003,CFD-BM-005-010-A.jpg,1900,solid,I,z,1340,8,2,56165.60000000894,486509.59999999404,8054,ATS,A,21
19,test,3,C,mfborder.png,1,m,Tue Aug 26 2025 16:52:59 GMT-0500 (Central Daylight Time),544907.700000003,CFD-WM-006-013-HC.jpg,1000,dash,I,m,1214,4,2,58398.10000000894,486509.59999999404,8054,ATS,A,22
20,test,3,C,haborder.png,1,z,Tue Aug 26 2025 16:52:59 GMT-0500 (Central Daylight Time),548040.099999994,CFD-BM-010-019-A.jpg,1700,solid,I,z,1403,9,2,61530.5,486509.59999999404,8054,ATS,A,23
21,test,3,C,haborder.png,1,m,Tue Aug 26 2025 16:52:59 GMT-0500 (Central Daylight Time),550789.299999997,CFD-WF-002-008-HC.jpg,1500,solid,I,m,1222,11,2,64279.70000000298,486509.59999999404,8054,ATS,A,24
1,test,4,C,mfborder.png,1,z,Tue Aug 26 2025 16:52:59 GMT-0500 (Central Daylight Time),557370.700000003,CFD-BF-028-020-HC.jpg,1500,dash,I,z,1099,3,2,2615.9000000059605,554754.799999997,8054,ATS,A,1
2,test,4,C,mfborder.png,1,m,Tue Aug 26 2025 16:52:59 GMT-0500 (Central Daylight Time),559869.8999999911,CFD-WM-013-015-A.jpg,1200,dash,I,m,1280,6,2,5115.0999999940395,554754.799999997,8054,ATS,A,2
3,test,4,C,haborder.png,1,z,Tue Aug 26 2025 16:52:59 GMT-0500 (Central Daylight Time),562085.599999994,CFD-BF-023-013-A.jpg,1400,solid,I,z,796,7,2,7330.79999999702,554754.799999997,8054,ATS,A,3
4,test,4,C,haborder.png,1,m,Tue Aug 26 2025 16:52:59 GMT-0500 (Central Daylight Time),564735.099999994,CFD-BM-029-026-HC.jpg,1600,solid,I,m,1029,10,2,9980.29999999702,554754.799999997,8054,ATS,A,4
5,test,4,C,haborder.png,1,z,Tue Aug 26 2025 16:52:59 GMT-0500 (Central Daylight Time),567383.700000003,CFD-BF-039-039-A.jpg,1900,solid,I,z,727,8,2,12628.90000000596,554754.799999997,8054,ATS,A,5
6,test,4,C,haborder.png,1,m,Tue Aug 26 2025 16:52:59 GMT-0500 (Central Daylight Time),570099.700000003,CFD-WM-004-005-HC.jpg,1500,solid,I,m,1190,11,2,15344.90000000596,554754.799999997,8054,ATS,A,6
7,test,4,C,mfborder.png,1,z,Tue Aug 26 2025 16:52:59 GMT-0500 (Central Daylight Time),572482.599999994,CFD-WF-017-016-HC.jpg,1700,dash,I,z,651,1,2,17727.79999999702,554754.799999997,8054,ATS,A,7
8,test,4,C,haborder.png,1,m,Tue Aug 26 2025 16:52:59 GMT-0500 (Central Daylight Time),574598.3999999911,CFD-WM-004-005-HC.jpg,1000,solid,I,m,1096,12,2,19843.59999999404,554754.799999997,8054,ATS,A,8
9,test,4,C,haborder.png,1,m,Tue Aug 26 2025 16:52:59 GMT-0500 (Central Daylight Time),576781.0,CFD-WM-004-005-HC.jpg,1500,solid,I,m,663,11,2,22026.20000000298,554754.799999997,8054,ATS,A,9
10,test,4,C,mfborder.png,1,z,Tue Aug 26 2025 16:52:59 GMT-0500 (Central Daylight Time),579813.5,CFD-WF-019-015-A.jpg,1600,dash,I,z,1405,2,2,25058.70000000298,554754.799999997,8054,ATS,A,10
11,test,4,C,mfborder.png,1,m,Tue Aug 26 2025 16:52:59 GMT-0500 (Central Daylight Time),582779.0,CFD-BM-005-010-A.jpg,2000,dash,I,m,948,5,2,28024.20000000298,554754.799999997,8054,ATS,A,11
12,test,4,C,haborder.png,1,m,Tue Aug 26 2025 16:52:59 GMT-0500 (Central Daylight Time),585328.3999999911,CFD-BM-029-026-HC.jpg,1600,solid,I,m,918,10,2,30573.59999999404,554754.799999997,8054,ATS,A,12
13,test,4,C,mfborder.png,1,z,Tue Aug 26 2025 16:52:59 GMT-0500 (Central Daylight Time),587877.700000003,CFD-BF-028-020-HC.jpg,1500,dash,I,z,1022,3,2,33122.90000000596,554754.799999997,8054,ATS,A,13
14,test,4,C,haborder.png,1,m,Tue Aug 26 2025 16:52:59 GMT-0500 (Central Daylight Time),589910.3999999911,CFD-WM-004-005-HC.jpg,1000,solid,I,m,1012,12,2,35155.59999999404,554754.799999997,8054,ATS,A,14
15,test,4,C,haborder.png,1,z,Tue Aug 26 2025 16:52:59 GMT-0500 (Central Daylight Time),592593.0,CFD-BF-023-013-A.jpg,1400,solid,I,z,1259,7,2,37838.20000000298,554754.799999997,8054,ATS,A,15
16,test,4,C,mfborder.png,1,m,Tue Aug 26 2025 16:52:59 GMT-0500 (Central Daylight Time),594675.700000003,CFD-BM-017-052-HC.jpg,1000,dash,I,m,1058,4,2,39920.90000000596,554754.799999997,8054,ATS,A,16
17,test,4,C,mfborder.png,1,m,Tue Aug 26 2025 16:52:59 GMT-0500 (Central Daylight Time),597091.200000003,CFD-WM-013-015-A.jpg,1200,dash,I,m,1198,6,2,42336.40000000596,554754.799999997,8054,ATS,A,17
18,test,4,C,mfborder.png,1,m,Tue Aug 26 2025 16:52:59 GMT-0500 (Central Daylight Time),598807.700000003,CFD-BM-017-052-HC.jpg,1000,dash,I,m,694,4,2,44052.90000000596,554754.799999997,8054,ATS,A,18
18,test,4,C,haborder.png,0,z,Tue Aug 26 2025 16:52:59 GMT-0500 (Central Daylight Time),601840.0,CFD-WF-003-014-A.jpg,1700,solid,I,m,1310,9,2,47085.20000000298,554754.799999997,8054,ATS,A,19
19,test,4,C,mfborder.png,1,z,Tue Aug 26 2025 16:52:59 GMT-0500 (Central Daylight Time),604789.099999994,CFD-WF-019-015-A.jpg,1600,dash,I,z,1321,2,2,50034.29999999702,554754.799999997,8054,ATS,A,20
19,test,4,C,mfborder.png,0,m,Tue Aug 26 2025 16:52:59 GMT-0500 (Central Daylight Time),608321.200000003,CFD-BM-005-010-A.jpg,2000,dash,I,None,1516,5,2,53566.40000000596,554754.799999997,8054,ATS,A,21
19,test,4,C,haborder.png,0,z,Tue Aug 26 2025 16:52:59 GMT-0500 (Central Daylight Time),611753.5,CFD-BF-039-039-A.jpg,1900,solid,I,None,1515,8,2,56998.70000000298,554754.799999997,8054,ATS,A,22
20,test,4,C,haborder.png,1,z,Tue Aug 26 2025 16:52:59 GMT-0500 (Central Daylight Time),614402.799999997,CFD-WF-003-014-A.jpg,1700,solid,I,z,917,9,2,59648.0,554754.799999997,8054,ATS,A,23
21,test,4,C,mfborder.png,1,z,Tue Aug 26 2025 16:52:59 GMT-0500 (Central Daylight Time),617068.599999994,CFD-WF-017-016-HC.jpg,1700,dash,I,z,947,1,2,62313.79999999702,554754.799999997,8054,ATS,A,24
