block_c,block_dur,condition,countdown,datetime,endtime,list,multichar_response,project,response,response_time,session_number,start_end,starttime,subject_id,task,task_vers,trial
,,,,Mon May 19 2025 17:11:32 GMT-0500 (Central Daylight Time),,,,I,space,401,1,,,8040,WL,C,
prac,,0,,Mon May 19 2025 17:11:32 GMT-0500 (Central Daylight Time),,NA,b,I,b,9047,1,,,8040,WL,C,1.0
prac,,0,,Mon May 19 2025 17:11:32 GMT-0500 (Central Daylight Time),,NA,bo,I,o,432,1,,,8040,WL,C,1.0
prac,,0,,Mon May 19 2025 17:11:32 GMT-0500 (Central Daylight Time),,NA,boo,I,o,153,1,,,8040,WL,C,1.0
prac,,0,,Mon May 19 2025 17:11:32 GMT-0500 (Central Daylight Time),,NA,boos,I,s,266,1,,,8040,WL,C,1.0
prac,,0,,Mon May 19 2025 17:11:32 GMT-0500 (Central Daylight Time),,NA,boost,I,t,279,1,,,8040,WL,C,1.0
prac,,0,,Mon May 19 2025 17:11:32 GMT-0500 (Central Daylight Time),,NA,boostenter,I,enter,2605,1,,,8040,WL,C,1.0
1,2.365999937057495,learn,57634.000062942505,Mon May 19 2025 17:11:32 GMT-0500 (Central Daylight Time),154753.70000004768,A,t,I,t,2345,1,2365.8000000715256,152387.89999997616,8040,WL,C,1.0
1,2.5490000247955322,learn,57450.99997520447,Mon May 19 2025 17:11:32 GMT-0500 (Central Daylight Time),154936.79999995232,A,to,I,o,162,1,2548.899999976158,152387.89999997616,8040,WL,C,1.0
1,2.8489999771118164,learn,57151.00002288818,Mon May 19 2025 17:11:32 GMT-0500 (Central Daylight Time),155236.79999995232,A,tow,I,w,292,1,2848.899999976158,152387.89999997616,8040,WL,C,1.0
1,3.1649999618530273,learn,56835.00003814697,Mon May 19 2025 17:11:32 GMT-0500 (Central Daylight Time),155553.20000004768,A,towe,I,e,305,1,3165.3000000715256,152387.89999997616,8040,WL,C,1.0
1,3.3989999294281006,learn,56601.0000705719,Mon May 19 2025 17:11:32 GMT-0500 (Central Daylight Time),155786.79999995232,A,tower,I,r,227,1,3398.899999976158,152387.89999997616,8040,WL,C,1.0
1,3.931999921798706,learn,56068.000078201294,Mon May 19 2025 17:11:32 GMT-0500 (Central Daylight Time),156319.89999997616,A,towerenter,I,enter,514,1,3932.0,152387.89999997616,8040,WL,C,1.0
1,5.265000104904175,learn,54734.999895095825,Mon May 19 2025 17:11:32 GMT-0500 (Central Daylight Time),157652.79999995232,A,q,I,q,1316,1,1332.2999999523163,156320.5,8040,WL,C,2.0
1,5.515000104904175,learn,54484.999895095825,Mon May 19 2025 17:11:32 GMT-0500 (Central Daylight Time),157902.5,A,qu,I,u,232,1,1582.0,156320.5,8040,WL,C,2.0
1,5.79800009727478,learn,54201.99990272522,Mon May 19 2025 17:11:32 GMT-0500 (Central Daylight Time),158185.60000002384,A,que,I,e,262,1,1865.1000000238419,156320.5,8040,WL,C,2.0
1,5.947999954223633,learn,54052.00004577637,Mon May 19 2025 17:11:32 GMT-0500 (Central Daylight Time),158335.79999995232,A,quee,I,e,140,1,2015.2999999523163,156320.5,8040,WL,C,2.0
1,6.480999946594238,learn,53519.00005340576,Mon May 19 2025 17:11:32 GMT-0500 (Central Daylight Time),158868.79999995232,A,queen,I,n,516,1,2548.2999999523163,156320.5,8040,WL,C,2.0
1,7.480999946594238,learn,52519.00005340576,Mon May 19 2025 17:11:32 GMT-0500 (Central Daylight Time),159868.5,A,queenenter,I,enter,992,1,3548.0,156320.5,8040,WL,C,2.0
1,9.19700002670288,learn,50802.99997329712,Mon May 19 2025 17:11:32 GMT-0500 (Central Daylight Time),161584.5,A,w,I,w,1704,1,1715.7000000476837,159868.79999995232,8040,WL,C,3.0
1,9.44700002670288,learn,50552.99997329712,Mon May 19 2025 17:11:32 GMT-0500 (Central Daylight Time),161834.70000004768,A,wh,I,h,244,1,1965.9000000953674,159868.79999995232,8040,WL,C,3.0
1,9.880000114440918,learn,50119.99988555908,Mon May 19 2025 17:11:32 GMT-0500 (Central Daylight Time),162267.70000004768,A,whe,I,e,418,1,2398.9000000953674,159868.79999995232,8040,WL,C,3.0
1,10.296000003814697,learn,49703.9999961853,Mon May 19 2025 17:11:32 GMT-0500 (Central Daylight Time),162684.29999995232,A,whea,I,a,402,1,2815.5,159868.79999995232,8040,WL,C,3.0
1,10.579999923706055,learn,49420.000076293945,Mon May 19 2025 17:11:32 GMT-0500 (Central Daylight Time),162967.60000002384,A,wheat,I,t,273,1,3098.8000000715256,159868.79999995232,8040,WL,C,3.0
1,11.463000059127808,learn,48536.99994087219,Mon May 19 2025 17:11:32 GMT-0500 (Central Daylight Time),163850.60000002384,A,wheatenter,I,enter,869,1,3981.8000000715256,159868.79999995232,8040,WL,C,3.0
1,13.411999940872192,learn,46588.00005912781,Mon May 19 2025 17:11:32 GMT-0500 (Central Daylight Time),165800.0,A,b,I,b,1928,1,1949.0,163851.0,8040,WL,C,4.0
1,13.545000076293945,learn,46454.999923706055,Mon May 19 2025 17:11:32 GMT-0500 (Central Daylight Time),165933.20000004768,A,bo,I,o,117,1,2082.2000000476837,163851.0,8040,WL,C,4.0
1,13.911999940872192,learn,46088.00005912781,Mon May 19 2025 17:11:32 GMT-0500 (Central Daylight Time),166299.89999997616,A,boy,I,y,353,1,2448.899999976158,163851.0,8040,WL,C,4.0
1,14.394999980926514,learn,45605.000019073486,Mon May 19 2025 17:11:32 GMT-0500 (Central Daylight Time),166783.0,A,boyenter,I,enter,474,1,2932.0,163851.0,8040,WL,C,4.0
1,15.144999980926514,learn,44855.000019073486,Mon May 19 2025 17:11:32 GMT-0500 (Central Daylight Time),167532.89999997616,A,d,I,d,742,1,749.1999999284744,166783.70000004768,8040,WL,C,5.0
1,15.311000108718872,learn,44688.99989128113,Mon May 19 2025 17:11:32 GMT-0500 (Central Daylight Time),167699.20000004768,A,do,I,o,152,1,915.5,166783.70000004768,8040,WL,C,5.0
1,15.510999917984009,learn,44489.00008201599,Mon May 19 2025 17:11:32 GMT-0500 (Central Daylight Time),167899.29999995232,A,doc,I,c,194,1,1115.5999999046326,166783.70000004768,8040,WL,C,5.0
1,15.84500002861023,learn,44154.99997138977,Mon May 19 2025 17:11:32 GMT-0500 (Central Daylight Time),168232.5,A,doct,I,t,322,1,1448.7999999523163,166783.70000004768,8040,WL,C,5.0
1,15.977999925613403,learn,44022.0000743866,Mon May 19 2025 17:11:32 GMT-0500 (Central Daylight Time),168365.89999997616,A,docto,I,o,124,1,1582.1999999284744,166783.70000004768,8040,WL,C,5.0
1,16.16100001335144,learn,43838.99998664856,Mon May 19 2025 17:11:32 GMT-0500 (Central Daylight Time),168549.29999995232,A,doctor,I,r,167,1,1765.5999999046326,166783.70000004768,8040,WL,C,5.0
1,17.710999965667725,learn,42289.000034332275,Mon May 19 2025 17:11:32 GMT-0500 (Central Daylight Time),170098.79999995232,A,doctorenter,I,enter,1544,1,3315.0999999046326,166783.70000004768,8040,WL,C,5.0
1,20.043999910354614,learn,39956.000089645386,Mon May 19 2025 17:11:32 GMT-0500 (Central Daylight Time),172431.39999997616,A,c,I,c,2314,1,2332.2999999523163,170099.10000002384,8040,WL,C,6.0
1,20.22699999809265,learn,39773.00000190735,Mon May 19 2025 17:11:32 GMT-0500 (Central Daylight Time),172614.60000002384,A,ca,I,a,174,1,2515.5,170099.10000002384,8040,WL,C,6.0
1,20.627000093460083,learn,39372.99990653992,Mon May 19 2025 17:11:32 GMT-0500 (Central Daylight Time),173014.39999997616,A,cat,I,t,383,1,2915.2999999523163,170099.10000002384,8040,WL,C,6.0
1,20.776999950408936,learn,39223.000049591064,Mon May 19 2025 17:11:32 GMT-0500 (Central Daylight Time),173164.29999995232,A,catt,I,t,144,1,3065.1999999284744,170099.10000002384,8040,WL,C,6.0
1,21.009999990463257,learn,38990.00000953674,Mon May 19 2025 17:11:32 GMT-0500 (Central Daylight Time),173397.70000004768,A,cattl,I,l,217,1,3298.600000023842,170099.10000002384,8040,WL,C,6.0
1,21.176000118255615,learn,38823.999881744385,Mon May 19 2025 17:11:32 GMT-0500 (Central Daylight Time),173564.10000002384,A,cattle,I,e,150,1,3465.0,170099.10000002384,8040,WL,C,6.0
1,22.45900011062622,learn,37540.99988937378,Mon May 19 2025 17:11:32 GMT-0500 (Central Daylight Time),174847.20000004768,A,cattleenter,I,enter,1273,1,4748.100000023842,170099.10000002384,8040,WL,C,6.0
1,23.443000078201294,learn,36556.999921798706,Mon May 19 2025 17:11:32 GMT-0500 (Central Daylight Time),175830.39999997616,A,s,I,s,973,1,982.6999999284744,174847.70000004768,8040,WL,C,7.0
1,23.592000007629395,learn,36407.999992370605,Mon May 19 2025 17:11:32 GMT-0500 (Central Daylight Time),175980.29999995232,A,sh,I,h,143,1,1132.5999999046326,174847.70000004768,8040,WL,C,7.0
1,23.70900011062622,learn,36290.99988937378,Mon May 19 2025 17:11:32 GMT-0500 (Central Daylight Time),176096.89999997616,A,sho,I,o,97,1,1249.1999999284744,174847.70000004768,8040,WL,C,7.0
1,23.875999927520752,learn,36124.00007247925,Mon May 19 2025 17:11:32 GMT-0500 (Central Daylight Time),176263.5,A,shor,I,r,156,1,1415.7999999523163,174847.70000004768,8040,WL,C,7.0
1,24.075999975204468,learn,35924.00002479553,Mon May 19 2025 17:11:32 GMT-0500 (Central Daylight Time),176463.5,A,shore,I,e,190,1,1615.7999999523163,174847.70000004768,8040,WL,C,7.0
1,25.558000087738037,learn,34441.99991226196,Mon May 19 2025 17:11:32 GMT-0500 (Central Daylight Time),177946.20000004768,A,shoreenter,I,enter,1470,1,3098.5,174847.70000004768,8040,WL,C,7.0
1,26.191999912261963,learn,33808.00008773804,Mon May 19 2025 17:11:32 GMT-0500 (Central Daylight Time),178580.5,A,n,I,n,627,1,633.8999999761581,177946.60000002384,8040,WL,C,8.0
1,26.341000080108643,learn,33658.99991989136,Mon May 19 2025 17:11:32 GMT-0500 (Central Daylight Time),178729.39999997616,A,na,I,a,136,1,782.7999999523163,177946.60000002384,8040,WL,C,8.0
1,26.44099998474121,learn,33559.00001525879,Mon May 19 2025 17:11:32 GMT-0500 (Central Daylight Time),178829.39999997616,A,nai,I,i,84,1,882.7999999523163,177946.60000002384,8040,WL,C,8.0
1,26.77500009536743,learn,33224.99990463257,Mon May 19 2025 17:11:32 GMT-0500 (Central Daylight Time),179162.60000002384,A,nail,I,l,313,1,1216.0,177946.60000002384,8040,WL,C,8.0
1,29.207000017166138,learn,30792.999982833862,Mon May 19 2025 17:11:32 GMT-0500 (Central Daylight Time),181594.79999995232,A,nailenter,I,enter,2427,1,3648.1999999284744,177946.60000002384,8040,WL,C,8.0
1,29.92300009727478,learn,30076.99990272522,Mon May 19 2025 17:11:32 GMT-0500 (Central Daylight Time),182311.60000002384,A,f,I,f,707,1,716.3999999761581,181595.20000004768,8040,WL,C,9.0
1,30.072999954223633,learn,29927.000045776367,Mon May 19 2025 17:11:32 GMT-0500 (Central Daylight Time),182461.60000002384,A,fl,I,l,134,1,866.3999999761581,181595.20000004768,8040,WL,C,9.0
1,30.157000064849854,learn,29842.999935150146,Mon May 19 2025 17:11:32 GMT-0500 (Central Daylight Time),182544.79999995232,A,fla,I,a,72,1,949.5999999046326,181595.20000004768,8040,WL,C,9.0
1,30.572999954223633,learn,29427.000045776367,Mon May 19 2025 17:11:32 GMT-0500 (Central Daylight Time),182961.39999997616,A,flag,I,g,396,1,1366.1999999284744,181595.20000004768,8040,WL,C,9.0
1,32.08899998664856,learn,27911.00001335144,Mon May 19 2025 17:11:32 GMT-0500 (Central Daylight Time),184477.5,A,flagenter,I,enter,1509,1,2882.2999999523163,181595.20000004768,8040,WL,C,9.0
1,36.4210000038147,learn,23578.999996185303,Mon May 19 2025 17:11:32 GMT-0500 (Central Daylight Time),188809.5,A,l,I,l,4313,1,4331.600000023842,184477.89999997616,8040,WL,C,10.0
1,36.57100009918213,learn,23428.99990081787,Mon May 19 2025 17:11:32 GMT-0500 (Central Daylight Time),188959.5,A,le,I,e,140,1,4481.600000023842,184477.89999997616,8040,WL,C,10.0
1,36.83800005912781,learn,23161.999940872192,Mon May 19 2025 17:11:32 GMT-0500 (Central Daylight Time),189226.0,A,let,I,t,255,1,4748.100000023842,184477.89999997616,8040,WL,C,10.0
1,37.00399994850159,learn,22996.000051498413,Mon May 19 2025 17:11:32 GMT-0500 (Central Daylight Time),189392.60000002384,A,lett,I,t,147,1,4914.700000047684,184477.89999997616,8040,WL,C,10.0
1,37.23799991607666,learn,22762.00008392334,Mon May 19 2025 17:11:32 GMT-0500 (Central Daylight Time),189626.10000002384,A,lette,I,e,213,1,5148.200000047684,184477.89999997616,8040,WL,C,10.0
1,37.37100005149841,learn,22628.999948501587,Mon May 19 2025 17:11:32 GMT-0500 (Central Daylight Time),189759.10000002384,A,letter,I,r,124,1,5281.200000047684,184477.89999997616,8040,WL,C,10.0
1,38.65400004386902,learn,21345.99995613098,Mon May 19 2025 17:11:32 GMT-0500 (Central Daylight Time),191042.10000002384,A,letterenter,I,enter,1270,1,6564.200000047684,184477.89999997616,8040,WL,C,10.0
1,40.9539999961853,learn,19046.000003814697,Mon May 19 2025 17:11:32 GMT-0500 (Central Daylight Time),193342.39999997616,A,b,I,b,2291,1,2299.899999976158,191042.5,8040,WL,C,11.0
1,41.0699999332428,learn,18930.000066757202,Mon May 19 2025 17:11:32 GMT-0500 (Central Daylight Time),193458.10000002384,A,bo,I,o,102,1,2415.600000023842,191042.5,8040,WL,C,11.0
1,41.3529999256134,learn,18647.000074386597,Mon May 19 2025 17:11:32 GMT-0500 (Central Daylight Time),193741.39999997616,A,bod,I,d,276,1,2698.899999976158,191042.5,8040,WL,C,11.0
1,41.6029999256134,learn,18397.000074386597,Mon May 19 2025 17:11:32 GMT-0500 (Central Daylight Time),193991.10000002384,A,body,I,y,240,1,2948.600000023842,191042.5,8040,WL,C,11.0
1,42.585999965667725,learn,17414.000034332275,Mon May 19 2025 17:11:32 GMT-0500 (Central Daylight Time),194974.29999995232,A,bodyenter,I,enter,967,1,3931.7999999523163,191042.5,8040,WL,C,11.0
1,45.819000005722046,learn,14180.999994277954,Mon May 19 2025 17:11:32 GMT-0500 (Central Daylight Time),198206.60000002384,A,c,I,c,3222,1,3231.899999976158,194974.70000004768,8040,WL,C,12.0
1,46.00200009346008,learn,13997.999906539917,Mon May 19 2025 17:11:32 GMT-0500 (Central Daylight Time),198389.70000004768,A,ca,I,a,166,1,3415.0,194974.70000004768,8040,WL,C,12.0
1,46.168999910354614,learn,13831.000089645386,Mon May 19 2025 17:11:32 GMT-0500 (Central Daylight Time),198556.60000002384,A,cam,I,m,153,1,3581.899999976158,194974.70000004768,8040,WL,C,12.0
1,46.43499994277954,learn,13565.000057220459,Mon May 19 2025 17:11:32 GMT-0500 (Central Daylight Time),198822.70000004768,A,camp,I,p,248,1,3848.0,194974.70000004768,8040,WL,C,12.0
1,46.76800012588501,learn,13231.99987411499,Mon May 19 2025 17:11:32 GMT-0500 (Central Daylight Time),199156.39999997616,A,campenter,I,enter,326,1,4181.699999928474,194974.70000004768,8040,WL,C,12.0
1,52.115999937057495,learn,7884.000062942505,Mon May 19 2025 17:11:32 GMT-0500 (Central Daylight Time),204504.5,A,h,I,h,5329,1,5347.700000047684,199156.79999995232,8040,WL,C,13.0
1,52.217000007629395,learn,7782.9999923706055,Mon May 19 2025 17:11:32 GMT-0500 (Central Daylight Time),204604.60000002384,A,ho,I,o,84,1,5447.800000071526,199156.79999995232,8040,WL,C,13.0
1,52.367000102996826,learn,7632.999897003174,Mon May 19 2025 17:11:32 GMT-0500 (Central Daylight Time),204754.70000004768,A,hom,I,m,129,1,5597.900000095367,199156.79999995232,8040,WL,C,13.0
1,52.66600012779236,learn,7333.999872207642,Mon May 19 2025 17:11:32 GMT-0500 (Central Daylight Time),205054.39999997616,A,home,I,e,291,1,5897.600000023842,199156.79999995232,8040,WL,C,13.0
1,53.29900002479553,learn,6700.999975204468,Mon May 19 2025 17:11:32 GMT-0500 (Central Daylight Time),205687.29999995232,A,homeenter,I,enter,623,1,6530.5,199156.79999995232,8040,WL,C,13.0
1,60.013999938964844,learn,-13.99993896484375,Mon May 19 2025 17:11:32 GMT-0500 (Central Daylight Time),212402.0,A,None,I,None,6710,1,6714.299999952316,205687.70000004768,8040,WL,C,14.0
2,2.7319998741149902,learn,57268.00012588501,Mon May 19 2025 17:11:32 GMT-0500 (Central Daylight Time),286345.7000000477,A,t,I,t,2722,1,2732.5,283613.2000000477,8040,WL,C,1.0
2,2.8319997787475586,learn,57168.00022125244,Mon May 19 2025 17:11:32 GMT-0500 (Central Daylight Time),286445.60000002384,A,to,I,o,92,1,2832.399999976158,283613.2000000477,8040,WL,C,1.0
2,3.4149999618530273,learn,56585.00003814697,Mon May 19 2025 17:11:32 GMT-0500 (Central Daylight Time),287028.7999999523,A,tow,I,w,569,1,3415.5999999046326,283613.2000000477,8040,WL,C,1.0
2,3.744999885559082,learn,56255.00011444092,Mon May 19 2025 17:11:32 GMT-0500 (Central Daylight Time),287358.5,A,towe,I,e,324,1,3745.2999999523163,283613.2000000477,8040,WL,C,1.0
2,3.8919999599456787,learn,56108.00004005432,Mon May 19 2025 17:11:32 GMT-0500 (Central Daylight Time),287505.5,A,tower,I,r,142,1,3892.2999999523163,283613.2000000477,8040,WL,C,1.0
2,4.347999811172485,learn,55652.000188827515,Mon May 19 2025 17:11:32 GMT-0500 (Central Daylight Time),287961.7000000477,A,towerenter,I,enter,436,1,4348.5,283613.2000000477,8040,WL,C,1.0
2,4.947999954223633,learn,55052.00004577637,Mon May 19 2025 17:11:32 GMT-0500 (Central Daylight Time),288561.39999997616,A,q,I,q,580,1,599.3999999761581,287962.0,8040,WL,C,2.0
2,5.297999858856201,learn,54702.0001411438,Mon May 19 2025 17:11:32 GMT-0500 (Central Daylight Time),288911.5,A,qu,I,u,340,1,949.5,287962.0,8040,WL,C,2.0
2,5.747999906539917,learn,54252.00009346008,Mon May 19 2025 17:11:32 GMT-0500 (Central Daylight Time),289361.2000000477,A,que,I,e,431,1,1399.2000000476837,287962.0,8040,WL,C,2.0
2,5.914999961853027,learn,54085.00003814697,Mon May 19 2025 17:11:32 GMT-0500 (Central Daylight Time),289527.89999997616,A,quee,I,e,148,1,1565.8999999761581,287962.0,8040,WL,C,2.0
2,6.197999954223633,learn,53802.00004577637,Mon May 19 2025 17:11:32 GMT-0500 (Central Daylight Time),289811.2000000477,A,queen,I,n,269,1,1849.2000000476837,287962.0,8040,WL,C,2.0
2,6.763999938964844,learn,53236.000061035156,Mon May 19 2025 17:11:32 GMT-0500 (Central Daylight Time),290377.60000002384,A,queenenter,I,enter,554,1,2415.600000023842,287962.0,8040,WL,C,2.0
2,7.247999906539917,learn,52752.00009346008,Mon May 19 2025 17:11:32 GMT-0500 (Central Daylight Time),290861.0,A,s,I,s,475,1,483.0,290378.0,8040,WL,C,3.0
2,7.5309998989105225,learn,52469.00010108948,Mon May 19 2025 17:11:32 GMT-0500 (Central Daylight Time),291144.0,A,su,I,u,265,1,766.0,290378.0,8040,WL,C,3.0
2,7.996999979019165,learn,52003.000020980835,Mon May 19 2025 17:11:32 GMT-0500 (Central Daylight Time),291610.7000000477,A,sug,I,g,446,1,1232.7000000476837,290378.0,8040,WL,C,3.0
2,8.146999835968018,learn,51853.00016403198,Mon May 19 2025 17:11:32 GMT-0500 (Central Daylight Time),291760.5,A,suga,I,a,131,1,1382.5,290378.0,8040,WL,C,3.0
2,8.596999883651733,learn,51403.00011634827,Mon May 19 2025 17:11:32 GMT-0500 (Central Daylight Time),292210.60000002384,A,sugar,I,r,429,1,1832.6000000238419,290378.0,8040,WL,C,3.0
2,9.229999780654907,learn,50770.00021934509,Mon May 19 2025 17:11:32 GMT-0500 (Central Daylight Time),292843.2999999523,A,sugarenter,I,enter,628,1,2465.2999999523163,290378.0,8040,WL,C,3.0
2,9.979999780654907,learn,50020.00021934509,Mon May 19 2025 17:11:32 GMT-0500 (Central Daylight Time),293593.7000000477,A,b,I,b,730,1,750.0,292843.7000000477,8040,WL,C,4.0
2,10.145999908447266,learn,49854.000091552734,Mon May 19 2025 17:11:32 GMT-0500 (Central Daylight Time),293759.7999999523,A,bo,I,o,156,1,916.0999999046326,292843.7000000477,8040,WL,C,4.0
2,10.52999997138977,learn,49470.00002861023,Mon May 19 2025 17:11:32 GMT-0500 (Central Daylight Time),294143.10000002384,A,boy,I,y,366,1,1299.3999999761581,292843.7000000477,8040,WL,C,4.0
2,11.062999963760376,learn,48937.000036239624,Mon May 19 2025 17:11:32 GMT-0500 (Central Daylight Time),294676.5,A,boyenter,I,enter,518,1,1832.7999999523163,292843.7000000477,8040,WL,C,4.0
2,11.645999908447266,learn,48354.000091552734,Mon May 19 2025 17:11:32 GMT-0500 (Central Daylight Time),295259.2999999523,A,d,I,d,576,1,582.3999999761581,294676.89999997616,8040,WL,C,5.0
2,11.812999963760376,learn,48187.000036239624,Mon May 19 2025 17:11:32 GMT-0500 (Central Daylight Time),295426.2000000477,A,do,I,o,154,1,749.3000000715256,294676.89999997616,8040,WL,C,5.0
2,12.045999765396118,learn,47954.00023460388,Mon May 19 2025 17:11:32 GMT-0500 (Central Daylight Time),295659.39999997616,A,doc,I,c,219,1,982.5,294676.89999997616,8040,WL,C,5.0
2,12.328999996185303,learn,47671.0000038147,Mon May 19 2025 17:11:32 GMT-0500 (Central Daylight Time),295942.5,A,doct,I,t,275,1,1265.6000000238419,294676.89999997616,8040,WL,C,5.0
2,12.411999940872192,learn,47588.00005912781,Mon May 19 2025 17:11:32 GMT-0500 (Central Daylight Time),296025.89999997616,A,docto,I,o,71,1,1349.0,294676.89999997616,8040,WL,C,5.0
2,12.595999956130981,learn,47404.00004386902,Mon May 19 2025 17:11:32 GMT-0500 (Central Daylight Time),296209.2000000477,A,doctor,I,r,163,1,1532.3000000715256,294676.89999997616,8040,WL,C,5.0
2,13.262999773025513,learn,46737.00022697449,Mon May 19 2025 17:11:32 GMT-0500 (Central Daylight Time),296875.89999997616,A,doctorenter,I,enter,653,1,2199.0,294676.89999997616,8040,WL,C,5.0
2,13.644999980926514,learn,46355.000019073486,Mon May 19 2025 17:11:32 GMT-0500 (Central Daylight Time),297258.89999997616,A,w,I,w,378,1,382.6999999284744,296876.2000000477,8040,WL,C,6.0
2,13.878999948501587,learn,46121.00005149841,Mon May 19 2025 17:11:32 GMT-0500 (Central Daylight Time),297492.10000002384,A,wh,I,h,218,1,615.8999999761581,296876.2000000477,8040,WL,C,6.0
2,14.060999870300293,learn,45939.00012969971,Mon May 19 2025 17:11:32 GMT-0500 (Central Daylight Time),297675.2000000477,A,whe,I,e,177,1,799.0,296876.2000000477,8040,WL,C,6.0
2,14.294999837875366,learn,45705.000162124634,Mon May 19 2025 17:11:32 GMT-0500 (Central Daylight Time),297908.7999999523,A,whea,I,a,226,1,1032.5999999046326,296876.2000000477,8040,WL,C,6.0
2,14.644999980926514,learn,45355.000019073486,Mon May 19 2025 17:11:32 GMT-0500 (Central Daylight Time),298258.5,A,wheat,I,t,328,1,1382.2999999523163,296876.2000000477,8040,WL,C,6.0
2,15.26199984550476,learn,44738.00015449524,Mon May 19 2025 17:11:32 GMT-0500 (Central Daylight Time),298875.2000000477,A,wheatenter,I,enter,603,1,1999.0,296876.2000000477,8040,WL,C,6.0
2,15.660999774932861,learn,44339.00022506714,Mon May 19 2025 17:11:32 GMT-0500 (Central Daylight Time),299275.0,A,c,I,c,395,1,399.39999997615814,298875.60000002384,8040,WL,C,7.0
2,15.810999870300293,learn,44189.00012969971,Mon May 19 2025 17:11:32 GMT-0500 (Central Daylight Time),299424.89999997616,A,co,I,o,138,1,549.2999999523163,298875.60000002384,8040,WL,C,7.0
2,16.027999877929688,learn,43972.00012207031,Mon May 19 2025 17:11:32 GMT-0500 (Central Daylight Time),299641.5,A,cor,I,r,205,1,765.8999999761581,298875.60000002384,8040,WL,C,7.0
2,16.51099991798401,learn,43489.00008201599,Mon May 19 2025 17:11:32 GMT-0500 (Central Daylight Time),300124.60000002384,A,corn,I,n,476,1,1249.0,298875.60000002384,8040,WL,C,7.0
2,17.143999814987183,learn,42856.00018501282,Mon May 19 2025 17:11:32 GMT-0500 (Central Daylight Time),300757.5,A,cornenter,I,enter,617,1,1881.8999999761581,298875.60000002384,8040,WL,C,7.0
2,19.209999799728394,learn,40790.00020027161,Mon May 19 2025 17:11:32 GMT-0500 (Central Daylight Time),302823.60000002384,A,s,I,s,2055,1,2065.7000000476837,300757.89999997616,8040,WL,C,8.0
2,19.359999895095825,learn,40640.000104904175,Mon May 19 2025 17:11:32 GMT-0500 (Central Daylight Time),302973.7999999523,A,sh,I,h,134,1,2215.899999976158,300757.89999997616,8040,WL,C,8.0
2,19.47699999809265,learn,40523.00000190735,Mon May 19 2025 17:11:32 GMT-0500 (Central Daylight Time),303090.5,A,sho,I,o,104,1,2332.600000023842,300757.89999997616,8040,WL,C,8.0
2,19.692999839782715,learn,40307.000160217285,Mon May 19 2025 17:11:32 GMT-0500 (Central Daylight Time),303306.60000002384,A,shor,I,r,195,1,2548.7000000476837,300757.89999997616,8040,WL,C,8.0
2,19.926999807357788,learn,40073.00019264221,Mon May 19 2025 17:11:32 GMT-0500 (Central Daylight Time),303540.2000000477,A,shore,I,e,219,1,2782.3000000715256,300757.89999997616,8040,WL,C,8.0
2,20.47699999809265,learn,39523.00000190735,Mon May 19 2025 17:11:32 GMT-0500 (Central Daylight Time),304090.2000000477,A,shoreenter,I,enter,538,1,3332.3000000715256,300757.89999997616,8040,WL,C,8.0
2,20.97599983215332,learn,39024.00016784668,Mon May 19 2025 17:11:32 GMT-0500 (Central Daylight Time),304590.0,A,f,I,f,484,1,499.60000002384186,304090.39999997616,8040,WL,C,9.0
2,21.192999839782715,learn,38807.000160217285,Mon May 19 2025 17:11:32 GMT-0500 (Central Daylight Time),304806.89999997616,A,fl,I,l,199,1,716.5,304090.39999997616,8040,WL,C,9.0
2,21.375999927520752,learn,38624.00007247925,Mon May 19 2025 17:11:32 GMT-0500 (Central Daylight Time),304989.89999997616,A,fla,I,a,174,1,899.5,304090.39999997616,8040,WL,C,9.0
2,21.89299988746643,learn,38107.00011253357,Mon May 19 2025 17:11:32 GMT-0500 (Central Daylight Time),305506.2000000477,A,flag,I,g,505,1,1415.8000000715256,304090.39999997616,8040,WL,C,9.0
2,23.358999967575073,learn,36641.00003242493,Mon May 19 2025 17:11:32 GMT-0500 (Central Daylight Time),306972.60000002384,A,flagenter,I,enter,1451,1,2882.2000000476837,304090.39999997616,8040,WL,C,9.0
2,27.4689998626709,learn,32531.0001373291,Mon May 19 2025 17:11:32 GMT-0500 (Central Daylight Time),311082.2000000477,A,l,I,l,4105,1,4109.300000071526,306972.89999997616,8040,WL,C,10.0
2,27.524999856948853,learn,32475.000143051147,Mon May 19 2025 17:11:32 GMT-0500 (Central Daylight Time),311138.2999999523,A,le,I,e,45,1,4165.399999976158,306972.89999997616,8040,WL,C,10.0
2,27.923999786376953,learn,32076.000213623047,Mon May 19 2025 17:11:32 GMT-0500 (Central Daylight Time),311537.7999999523,A,let,I,t,377,1,4564.899999976158,306972.89999997616,8040,WL,C,10.0
2,28.04099988937378,learn,31959.00011062622,Mon May 19 2025 17:11:32 GMT-0500 (Central Daylight Time),311654.5,A,lett,I,t,107,1,4681.600000023842,306972.89999997616,8040,WL,C,10.0
2,28.2739999294281,learn,31726.0000705719,Mon May 19 2025 17:11:32 GMT-0500 (Central Daylight Time),311887.60000002384,A,lette,I,e,223,1,4914.700000047684,306972.89999997616,8040,WL,C,10.0
2,28.58999991416931,learn,31410.00008583069,Mon May 19 2025 17:11:32 GMT-0500 (Central Daylight Time),312204.0,A,letter,I,r,310,1,5231.100000023842,306972.89999997616,8040,WL,C,10.0
2,28.923999786376953,learn,31076.000213623047,Mon May 19 2025 17:11:32 GMT-0500 (Central Daylight Time),312537.60000002384,A,letterenter,I,enter,313,1,5564.700000047684,306972.89999997616,8040,WL,C,10.0
2,29.306999921798706,learn,30693.000078201294,Mon May 19 2025 17:11:32 GMT-0500 (Central Daylight Time),312920.7000000477,A,n,I,n,372,1,382.90000009536743,312537.7999999523,8040,WL,C,11.0
2,29.473999977111816,learn,30526.000022888184,Mon May 19 2025 17:11:32 GMT-0500 (Central Daylight Time),313087.2000000477,A,na,I,a,149,1,549.4000000953674,312537.7999999523,8040,WL,C,11.0
2,29.572999954223633,learn,30427.000045776367,Mon May 19 2025 17:11:32 GMT-0500 (Central Daylight Time),313187.0,A,nai,I,i,94,1,649.2000000476837,312537.7999999523,8040,WL,C,11.0
2,29.9229998588562,learn,30077.0001411438,Mon May 19 2025 17:11:32 GMT-0500 (Central Daylight Time),313536.89999997616,A,nail,I,l,339,1,999.1000000238419,312537.7999999523,8040,WL,C,11.0
2,31.239999771118164,learn,28760.000228881836,Mon May 19 2025 17:11:32 GMT-0500 (Central Daylight Time),314853.2999999523,A,nailenter,I,enter,1309,1,2315.5,312537.7999999523,8040,WL,C,11.0
2,36.05499982833862,learn,23945.000171661377,Mon May 19 2025 17:11:32 GMT-0500 (Central Daylight Time),319668.60000002384,A,c,I,c,4808,1,4814.899999976158,314853.7000000477,8040,WL,C,12.0
2,36.22099995613098,learn,23779.00004386902,Mon May 19 2025 17:11:32 GMT-0500 (Central Daylight Time),319835.10000002384,A,ca,I,a,162,1,4981.399999976158,314853.7000000477,8040,WL,C,12.0
2,36.42099976539612,learn,23579.000234603882,Mon May 19 2025 17:11:32 GMT-0500 (Central Daylight Time),320034.89999997616,A,cam,I,m,194,1,5181.199999928474,314853.7000000477,8040,WL,C,12.0
2,36.687999963760376,learn,23312.000036239624,Mon May 19 2025 17:11:32 GMT-0500 (Central Daylight Time),320301.60000002384,A,camp,I,p,259,1,5447.899999976158,314853.7000000477,8040,WL,C,12.0
2,37.60499978065491,learn,22395.000219345093,Mon May 19 2025 17:11:32 GMT-0500 (Central Daylight Time),321218.2000000477,A,campenter,I,enter,896,1,6364.5,314853.7000000477,8040,WL,C,12.0
2,38.33899998664856,learn,21661.00001335144,Mon May 19 2025 17:11:32 GMT-0500 (Central Daylight Time),321952.2999999523,A,c,I,c,724,1,733.7999999523163,321218.5,8040,WL,C,13.0
2,38.50399994850159,learn,21496.000051498413,Mon May 19 2025 17:11:32 GMT-0500 (Central Daylight Time),322117.89999997616,A,ca,I,a,149,1,899.3999999761581,321218.5,8040,WL,C,13.0
2,38.78699994087219,learn,21213.000059127808,Mon May 19 2025 17:11:32 GMT-0500 (Central Daylight Time),322400.7999999523,A,cat,I,t,272,1,1182.2999999523163,321218.5,8040,WL,C,13.0
2,38.97099995613098,learn,21029.00004386902,Mon May 19 2025 17:11:32 GMT-0500 (Central Daylight Time),322584.2999999523,A,catt,I,t,166,1,1365.7999999523163,321218.5,8040,WL,C,13.0
2,39.169999837875366,learn,20830.000162124634,Mon May 19 2025 17:11:32 GMT-0500 (Central Daylight Time),322784.10000002384,A,cattl,I,l,190,1,1565.6000000238419,321218.5,8040,WL,C,13.0
2,39.32099986076355,learn,20679.00013923645,Mon May 19 2025 17:11:32 GMT-0500 (Central Daylight Time),322934.2000000477,A,cattle,I,e,134,1,1715.7000000476837,321218.5,8040,WL,C,13.0
2,39.8199999332428,learn,20180.000066757202,Mon May 19 2025 17:11:32 GMT-0500 (Central Daylight Time),323433.89999997616,A,cattleenter,I,enter,479,1,2215.399999976158,321218.5,8040,WL,C,13.0
2,45.20199990272522,learn,14798.00009727478,Mon May 19 2025 17:11:32 GMT-0500 (Central Daylight Time),328815.7999999523,A,s,I,s,5363,1,5381.5,323434.2999999523,8040,WL,C,14.0
2,45.401999950408936,learn,14598.000049591064,Mon May 19 2025 17:11:32 GMT-0500 (Central Daylight Time),329015.5,A,su,I,u,189,1,5581.200000047684,323434.2999999523,8040,WL,C,14.0
2,46.03499984741211,learn,13965.00015258789,Mon May 19 2025 17:11:32 GMT-0500 (Central Daylight Time),329648.89999997616,A,s,I,backspace,614,1,6214.600000023842,323434.2999999523,8040,WL,C,14.0
2,46.20199990272522,learn,13798.00009727478,Mon May 19 2025 17:11:32 GMT-0500 (Central Daylight Time),329815.2999999523,A,,I,backspace,158,1,6381.0,323434.2999999523,8040,WL,C,14.0
2,48.33399987220764,learn,11666.000127792358,Mon May 19 2025 17:11:32 GMT-0500 (Central Daylight Time),331947.89999997616,A,s,I,s,2127,1,8513.600000023842,323434.2999999523,8040,WL,C,14.0
2,48.567999839782715,learn,11432.000160217285,Mon May 19 2025 17:11:32 GMT-0500 (Central Daylight Time),332181.39999997616,A,su,I,u,218,1,8747.100000023842,323434.2999999523,8040,WL,C,14.0
2,48.91699981689453,learn,11083.000183105469,Mon May 19 2025 17:11:32 GMT-0500 (Central Daylight Time),332531.0,A,sup,I,p,336,1,9096.700000047684,323434.2999999523,8040,WL,C,14.0
2,49.45099997520447,learn,10549.000024795532,Mon May 19 2025 17:11:32 GMT-0500 (Central Daylight Time),333064.5,A,su,I,backspace,513,1,9630.200000047684,323434.2999999523,8040,WL,C,14.0
2,49.56699991226196,learn,10433.000087738037,Mon May 19 2025 17:11:32 GMT-0500 (Central Daylight Time),333180.89999997616,A,sug,I,g,102,1,9746.600000023842,323434.2999999523,8040,WL,C,14.0
2,49.716999769210815,learn,10283.000230789185,Mon May 19 2025 17:11:32 GMT-0500 (Central Daylight Time),333330.7000000477,A,suga,I,a,129,1,9896.400000095367,323434.2999999523,8040,WL,C,14.0
2,49.94999980926514,learn,10050.000190734863,Mon May 19 2025 17:11:32 GMT-0500 (Central Daylight Time),333564.0,A,sugar,I,r,228,1,10129.700000047684,323434.2999999523,8040,WL,C,14.0
2,50.36699986457825,learn,9633.000135421753,Mon May 19 2025 17:11:32 GMT-0500 (Central Daylight Time),333980.89999997616,A,sugarenter,I,enter,410,1,10546.600000023842,323434.2999999523,8040,WL,C,14.0
2,52.58299994468689,learn,7417.00005531311,Mon May 19 2025 17:11:32 GMT-0500 (Central Daylight Time),336196.60000002384,A,enter,I,enter,2200,1,2215.399999976158,333981.2000000477,8040,WL,C,15.0
3,1.3999998569488525,learn,58600.00014305115,Mon May 19 2025 17:11:32 GMT-0500 (Central Daylight Time),406024.7000000477,A,t,I,t,1381,1,1399.3000000715256,404625.39999997616,8040,WL,C,1.0
3,1.5499999523162842,learn,58450.000047683716,Mon May 19 2025 17:11:32 GMT-0500 (Central Daylight Time),406175.10000002384,A,to,I,o,141,1,1549.7000000476837,404625.39999997616,8040,WL,C,1.0
3,1.6499998569488525,learn,58350.00014305115,Mon May 19 2025 17:11:32 GMT-0500 (Central Daylight Time),406274.60000002384,A,tow,I,w,94,1,1649.2000000476837,404625.39999997616,8040,WL,C,1.0
3,1.9830000400543213,learn,58016.99995994568,Mon May 19 2025 17:11:32 GMT-0500 (Central Daylight Time),406607.7999999523,A,towe,I,e,315,1,1982.3999999761581,404625.39999997616,8040,WL,C,1.0
3,2.2330000400543213,learn,57766.99995994568,Mon May 19 2025 17:11:32 GMT-0500 (Central Daylight Time),406857.7999999523,A,tower,I,r,238,1,2232.399999976158,404625.39999997616,8040,WL,C,1.0
3,2.6489999294281006,learn,57351.0000705719,Mon May 19 2025 17:11:32 GMT-0500 (Central Daylight Time),407274.39999997616,A,towerenter,I,enter,395,1,2649.0,404625.39999997616,8040,WL,C,1.0
3,3.132999897003174,learn,56867.000102996826,Mon May 19 2025 17:11:32 GMT-0500 (Central Daylight Time),407757.60000002384,A,q,I,q,475,1,482.89999997615814,407274.7000000477,8040,WL,C,2.0
3,3.365999937057495,learn,56634.000062942505,Mon May 19 2025 17:11:32 GMT-0500 (Central Daylight Time),407990.7999999523,A,qu,I,u,224,1,716.0999999046326,407274.7000000477,8040,WL,C,2.0
3,3.6489999294281006,learn,56351.0000705719,Mon May 19 2025 17:11:32 GMT-0500 (Central Daylight Time),408274.2000000477,A,que,I,e,262,1,999.5,407274.7000000477,8040,WL,C,2.0
3,3.8489999771118164,learn,56151.00002288818,Mon May 19 2025 17:11:32 GMT-0500 (Central Daylight Time),408474.10000002384,A,quee,I,e,179,1,1199.3999999761581,407274.7000000477,8040,WL,C,2.0
3,4.5320000648498535,learn,55467.99993515015,Mon May 19 2025 17:11:32 GMT-0500 (Central Daylight Time),409157.10000002384,A,queen,I,n,667,1,1882.3999999761581,407274.7000000477,8040,WL,C,2.0
3,5.249000072479248,learn,54750.99992752075,Mon May 19 2025 17:11:32 GMT-0500 (Central Daylight Time),409873.60000002384,A,queenenter,I,enter,706,1,2598.899999976158,407274.7000000477,8040,WL,C,2.0
3,5.7820000648498535,learn,54217.99993515015,Mon May 19 2025 17:11:32 GMT-0500 (Central Daylight Time),410406.7000000477,A,h,I,h,524,1,532.8000000715256,409873.89999997616,8040,WL,C,3.0
3,5.947999954223633,learn,54052.00004577637,Mon May 19 2025 17:11:32 GMT-0500 (Central Daylight Time),410573.2999999523,A,ho,I,o,152,1,699.3999999761581,409873.89999997616,8040,WL,C,3.0
3,6.0980000495910645,learn,53901.999950408936,Mon May 19 2025 17:11:32 GMT-0500 (Central Daylight Time),410723.39999997616,A,hom,I,m,136,1,849.5,409873.89999997616,8040,WL,C,3.0
3,6.332000017166138,learn,53667.99998283386,Mon May 19 2025 17:11:32 GMT-0500 (Central Daylight Time),410956.60000002384,A,home,I,e,227,1,1082.7000000476837,409873.89999997616,8040,WL,C,3.0
3,6.8480000495910645,learn,53151.999950408936,Mon May 19 2025 17:11:32 GMT-0500 (Central Daylight Time),411473.10000002384,A,homeenter,I,enter,506,1,1599.2000000476837,409873.89999997616,8040,WL,C,3.0
3,7.864000082015991,learn,52135.99991798401,Mon May 19 2025 17:11:32 GMT-0500 (Central Daylight Time),412489.39999997616,A,s,I,s,1004,1,1015.8999999761581,411473.5,8040,WL,C,4.0
3,8.080999851226807,learn,51919.00014877319,Mon May 19 2025 17:11:32 GMT-0500 (Central Daylight Time),412706.2000000477,A,su,I,u,196,1,1232.7000000476837,411473.5,8040,WL,C,4.0
3,8.414000034332275,learn,51585.999965667725,Mon May 19 2025 17:11:32 GMT-0500 (Central Daylight Time),413039.2999999523,A,sug,I,g,316,1,1565.7999999523163,411473.5,8040,WL,C,4.0
3,8.530999898910522,learn,51469.00010108948,Mon May 19 2025 17:11:32 GMT-0500 (Central Daylight Time),413155.7999999523,A,suga,I,a,102,1,1682.2999999523163,411473.5,8040,WL,C,4.0
3,8.813999891281128,learn,51186.00010871887,Mon May 19 2025 17:11:32 GMT-0500 (Central Daylight Time),413439.10000002384,A,sugar,I,r,274,1,1965.6000000238419,411473.5,8040,WL,C,4.0
3,9.647000074386597,learn,50352.9999256134,Mon May 19 2025 17:11:32 GMT-0500 (Central Daylight Time),414272.2000000477,A,sugarenter,I,enter,814,1,2798.7000000476837,411473.5,8040,WL,C,4.0
3,10.313999891281128,learn,49686.00010871887,Mon May 19 2025 17:11:32 GMT-0500 (Central Daylight Time),414938.39999997616,A,l,I,l,654,1,665.7999999523163,414272.60000002384,8040,WL,C,5.0
3,10.44700002670288,learn,49552.99997329712,Mon May 19 2025 17:11:32 GMT-0500 (Central Daylight Time),415071.7999999523,A,le,I,e,124,1,799.1999999284744,414272.60000002384,8040,WL,C,5.0
3,10.79699993133545,learn,49203.00006866455,Mon May 19 2025 17:11:32 GMT-0500 (Central Daylight Time),415421.7999999523,A,let,I,t,333,1,1149.1999999284744,414272.60000002384,8040,WL,C,5.0
3,11.147000074386597,learn,48852.9999256134,Mon May 19 2025 17:11:32 GMT-0500 (Central Daylight Time),415771.60000002384,A,lett,I,t,336,1,1499.0,414272.60000002384,8040,WL,C,5.0
3,11.412999868392944,learn,48587.000131607056,Mon May 19 2025 17:11:32 GMT-0500 (Central Daylight Time),416038.39999997616,A,lette,I,e,250,1,1765.7999999523163,414272.60000002384,8040,WL,C,5.0
3,11.69700002670288,learn,48302.99997329712,Mon May 19 2025 17:11:32 GMT-0500 (Central Daylight Time),416321.60000002384,A,letter,I,r,262,1,2049.0,414272.60000002384,8040,WL,C,5.0
3,12.513000011444092,learn,47486.99998855591,Mon May 19 2025 17:11:32 GMT-0500 (Central Daylight Time),417137.89999997616,A,letterenter,I,enter,805,1,2865.2999999523163,414272.60000002384,8040,WL,C,5.0
3,12.94599986076355,learn,47054.00013923645,Mon May 19 2025 17:11:32 GMT-0500 (Central Daylight Time),417571.10000002384,A,d,I,d,428,1,432.7000000476837,417138.39999997616,8040,WL,C,6.0
3,13.078999996185303,learn,46921.0000038147,Mon May 19 2025 17:11:32 GMT-0500 (Central Daylight Time),417704.5,A,do,I,o,115,1,566.1000000238419,417138.39999997616,8040,WL,C,6.0
3,13.312999963760376,learn,46687.000036239624,Mon May 19 2025 17:11:32 GMT-0500 (Central Daylight Time),417937.7000000477,A,doc,I,c,213,1,799.3000000715256,417138.39999997616,8040,WL,C,6.0
3,13.562999963760376,learn,46437.000036239624,Mon May 19 2025 17:11:32 GMT-0500 (Central Daylight Time),418187.7000000477,A,doct,I,t,237,1,1049.3000000715256,417138.39999997616,8040,WL,C,6.0
3,13.662999868392944,learn,46337.000131607056,Mon May 19 2025 17:11:32 GMT-0500 (Central Daylight Time),418287.7000000477,A,docto,I,o,82,1,1149.3000000715256,417138.39999997616,8040,WL,C,6.0
3,13.996000051498413,learn,46003.99994850159,Mon May 19 2025 17:11:32 GMT-0500 (Central Daylight Time),418620.7999999523,A,doctor,I,r,318,1,1482.3999999761581,417138.39999997616,8040,WL,C,6.0
3,14.595999956130981,learn,45404.00004386902,Mon May 19 2025 17:11:32 GMT-0500 (Central Daylight Time),419220.7000000477,A,doctorenter,I,enter,594,1,2082.3000000715256,417138.39999997616,8040,WL,C,6.0
3,15.26200008392334,learn,44737.99991607666,Mon May 19 2025 17:11:32 GMT-0500 (Central Daylight Time),419887.0,A,s,I,s,650,1,666.0,419221.0,8040,WL,C,7.0
3,15.661999940872192,learn,44338.00005912781,Mon May 19 2025 17:11:32 GMT-0500 (Central Daylight Time),420286.89999997616,A,,I,backspace,390,1,1065.8999999761581,419221.0,8040,WL,C,7.0
3,15.744999885559082,learn,44255.00011444092,Mon May 19 2025 17:11:32 GMT-0500 (Central Daylight Time),420370.10000002384,A,w,I,w,71,1,1149.1000000238419,419221.0,8040,WL,C,7.0
3,16.027999877929688,learn,43972.00012207031,Mon May 19 2025 17:11:32 GMT-0500 (Central Daylight Time),420653.60000002384,A,wh,I,h,267,1,1432.6000000238419,419221.0,8040,WL,C,7.0
3,16.17799997329712,learn,43822.00002670288,Mon May 19 2025 17:11:32 GMT-0500 (Central Daylight Time),420803.39999997616,A,whe,I,e,136,1,1582.3999999761581,419221.0,8040,WL,C,7.0
3,16.361999988555908,learn,43638.00001144409,Mon May 19 2025 17:11:32 GMT-0500 (Central Daylight Time),420986.7999999523,A,whea,I,a,178,1,1765.7999999523163,419221.0,8040,WL,C,7.0
3,16.628000020980835,learn,43371.999979019165,Mon May 19 2025 17:11:32 GMT-0500 (Central Daylight Time),421253.39999997616,A,wheat,I,t,259,1,2032.3999999761581,419221.0,8040,WL,C,7.0
3,17.32800006866455,learn,42671.99993133545,Mon May 19 2025 17:11:32 GMT-0500 (Central Daylight Time),421953.0,A,wheatenter,I,enter,688,1,2732.0,419221.0,8040,WL,C,7.0
3,17.694000005722046,learn,42305.999994277954,Mon May 19 2025 17:11:32 GMT-0500 (Central Daylight Time),422319.60000002384,A,c,I,c,358,1,366.2000000476837,421953.39999997616,8040,WL,C,8.0
3,17.82800006866455,learn,42171.99993133545,Mon May 19 2025 17:11:32 GMT-0500 (Central Daylight Time),422452.89999997616,A,co,I,o,118,1,499.5,421953.39999997616,8040,WL,C,8.0
3,18.01099991798401,learn,41989.00008201599,Mon May 19 2025 17:11:32 GMT-0500 (Central Daylight Time),422636.2000000477,A,cor,I,r,168,1,682.8000000715256,421953.39999997616,8040,WL,C,8.0
3,18.310999870300293,learn,41689.00012969971,Mon May 19 2025 17:11:32 GMT-0500 (Central Daylight Time),422936.39999997616,A,corn,I,n,289,1,983.0,421953.39999997616,8040,WL,C,8.0
3,18.777999877929688,learn,41222.00012207031,Mon May 19 2025 17:11:32 GMT-0500 (Central Daylight Time),423402.7999999523,A,cornenter,I,enter,446,1,1449.3999999761581,421953.39999997616,8040,WL,C,8.0
3,19.14400005340576,learn,40855.99994659424,Mon May 19 2025 17:11:32 GMT-0500 (Central Daylight Time),423769.2999999523,A,c,I,c,347,1,366.1999999284744,423403.10000002384,8040,WL,C,9.0
3,19.26099991798401,learn,40739.00008201599,Mon May 19 2025 17:11:32 GMT-0500 (Central Daylight Time),423885.7000000477,A,ca,I,a,108,1,482.60000002384186,423403.10000002384,8040,WL,C,9.0
3,19.51099991798401,learn,40489.00008201599,Mon May 19 2025 17:11:32 GMT-0500 (Central Daylight Time),424135.7999999523,A,cat,I,t,241,1,732.6999999284744,423403.10000002384,8040,WL,C,9.0
3,19.710999965667725,learn,40289.000034332275,Mon May 19 2025 17:11:32 GMT-0500 (Central Daylight Time),424335.7999999523,A,catt,I,t,182,1,932.6999999284744,423403.10000002384,8040,WL,C,9.0
3,19.927000045776367,learn,40072.99995422363,Mon May 19 2025 17:11:32 GMT-0500 (Central Daylight Time),424552.39999997616,A,cattl,I,l,207,1,1149.2999999523163,423403.10000002384,8040,WL,C,9.0
3,20.07699990272522,learn,39923.00009727478,Mon May 19 2025 17:11:32 GMT-0500 (Central Daylight Time),424702.2999999523,A,cattle,I,e,142,1,1299.1999999284744,423403.10000002384,8040,WL,C,9.0
3,21.493000030517578,learn,38506.99996948242,Mon May 19 2025 17:11:32 GMT-0500 (Central Daylight Time),426118.60000002384,A,cattleenter,I,enter,1408,1,2715.5,423403.10000002384,8040,WL,C,9.0
3,22.109999895095825,learn,37890.000104904175,Mon May 19 2025 17:11:32 GMT-0500 (Central Daylight Time),426734.89999997616,A,f,I,f,598,1,615.8999999761581,426119.0,8040,WL,C,10.0
3,22.276999950408936,learn,37723.000049591064,Mon May 19 2025 17:11:32 GMT-0500 (Central Daylight Time),426901.89999997616,A,fl,I,l,151,1,782.8999999761581,426119.0,8040,WL,C,10.0
3,22.39299988746643,learn,37607.00011253357,Mon May 19 2025 17:11:32 GMT-0500 (Central Daylight Time),427018.2000000477,A,fla,I,a,103,1,899.2000000476837,426119.0,8040,WL,C,10.0
3,22.776000022888184,learn,37223.99997711182,Mon May 19 2025 17:11:32 GMT-0500 (Central Daylight Time),427401.2999999523,A,flag,I,g,363,1,1282.2999999523163,426119.0,8040,WL,C,10.0
3,23.825999975204468,learn,36174.00002479553,Mon May 19 2025 17:11:32 GMT-0500 (Central Daylight Time),428451.10000002384,A,flagenter,I,enter,1037,1,2332.100000023842,426119.0,8040,WL,C,10.0
3,24.39199995994568,learn,35608.00004005432,Mon May 19 2025 17:11:32 GMT-0500 (Central Daylight Time),429017.39999997616,A,n,I,n,546,1,566.0,428451.39999997616,8040,WL,C,11.0
3,24.491999864578247,learn,35508.00013542175,Mon May 19 2025 17:11:32 GMT-0500 (Central Daylight Time),429117.2000000477,A,na,I,a,92,1,665.8000000715256,428451.39999997616,8040,WL,C,11.0
3,24.608999967575073,learn,35391.00003242493,Mon May 19 2025 17:11:32 GMT-0500 (Central Daylight Time),429234.10000002384,A,nai,I,i,106,1,782.7000000476837,428451.39999997616,8040,WL,C,11.0
3,24.858999967575073,learn,35141.00003242493,Mon May 19 2025 17:11:32 GMT-0500 (Central Daylight Time),429483.89999997616,A,nail,I,l,235,1,1032.5,428451.39999997616,8040,WL,C,11.0
3,26.10800004005432,learn,33891.99995994568,Mon May 19 2025 17:11:32 GMT-0500 (Central Daylight Time),430733.60000002384,A,nailenter,I,enter,1235,1,2282.2000000476837,428451.39999997616,8040,WL,C,11.0
3,26.72499990463257,learn,33275.00009536743,Mon May 19 2025 17:11:32 GMT-0500 (Central Daylight Time),431350.2000000477,A,l,I,l,600,1,616.2000000476837,430734.0,8040,WL,C,12.0
3,26.842000007629395,learn,33157.999992370605,Mon May 19 2025 17:11:32 GMT-0500 (Central Daylight Time),431466.7999999523,A,le,I,e,104,1,732.7999999523163,430734.0,8040,WL,C,12.0
3,27.10800004005432,learn,32891.99995994568,Mon May 19 2025 17:11:32 GMT-0500 (Central Daylight Time),431733.39999997616,A,let,I,t,259,1,999.3999999761581,430734.0,8040,WL,C,12.0
3,27.257999897003174,learn,32742.000102996826,Mon May 19 2025 17:11:32 GMT-0500 (Central Daylight Time),431883.10000002384,A,lett,I,t,145,1,1149.1000000238419,430734.0,8040,WL,C,12.0
3,27.44099998474121,learn,32559.00001525879,Mon May 19 2025 17:11:32 GMT-0500 (Central Daylight Time),432066.60000002384,A,lette,I,e,162,1,1332.6000000238419,430734.0,8040,WL,C,12.0
3,27.60800004005432,learn,32391.99995994568,Mon May 19 2025 17:11:32 GMT-0500 (Central Daylight Time),432233.0,A,letter,I,r,155,1,1499.0,430734.0,8040,WL,C,12.0
3,28.60800004005432,learn,31391.99995994568,Mon May 19 2025 17:11:32 GMT-0500 (Central Daylight Time),433232.89999997616,A,letterenter,I,enter,989,1,2498.899999976158,430734.0,8040,WL,C,12.0
3,31.2739999294281,learn,28726.0000705719,Mon May 19 2025 17:11:32 GMT-0500 (Central Daylight Time),435898.7999999523,A,s,I,s,2661,1,2665.5999999046326,433233.2000000477,8040,WL,C,13.0
3,31.407000064849854,learn,28592.999935150146,Mon May 19 2025 17:11:32 GMT-0500 (Central Daylight Time),436032.0,A,sh,I,h,122,1,2798.7999999523163,433233.2000000477,8040,WL,C,13.0
3,31.556999921798706,learn,28443.000078201294,Mon May 19 2025 17:11:32 GMT-0500 (Central Daylight Time),436182.0,A,sho,I,o,134,1,2948.7999999523163,433233.2000000477,8040,WL,C,13.0
3,31.69099998474121,learn,28309.00001525879,Mon May 19 2025 17:11:32 GMT-0500 (Central Daylight Time),436316.2999999523,A,shor,I,r,120,1,3083.0999999046326,433233.2000000477,8040,WL,C,13.0
3,31.9229998588562,learn,28077.0001411438,Mon May 19 2025 17:11:32 GMT-0500 (Central Daylight Time),436548.60000002384,A,shore,I,e,217,1,3315.399999976158,433233.2000000477,8040,WL,C,13.0
3,32.52300000190735,learn,27476.99999809265,Mon May 19 2025 17:11:32 GMT-0500 (Central Daylight Time),437148.39999997616,A,shoreenter,I,enter,593,1,3915.1999999284744,433233.2000000477,8040,WL,C,13.0
3,32.87299990653992,learn,27127.000093460083,Mon May 19 2025 17:11:32 GMT-0500 (Central Daylight Time),437498.10000002384,A,f,I,f,337,1,349.39999997615814,437148.7000000477,8040,WL,C,14.0
3,32.973000049591064,learn,27026.999950408936,Mon May 19 2025 17:11:32 GMT-0500 (Central Daylight Time),437598.60000002384,A,fl,I,l,83,1,449.89999997615814,437148.7000000477,8040,WL,C,14.0
3,33.139999866485596,learn,26860.000133514404,Mon May 19 2025 17:11:32 GMT-0500 (Central Daylight Time),437764.7999999523,A,fla,I,a,160,1,616.0999999046326,437148.7000000477,8040,WL,C,14.0
3,33.49000000953674,learn,26509.999990463257,Mon May 19 2025 17:11:32 GMT-0500 (Central Daylight Time),438114.89999997616,A,flag,I,g,337,1,966.1999999284744,437148.7000000477,8040,WL,C,14.0
3,34.473000049591064,learn,25526.999950408936,Mon May 19 2025 17:11:32 GMT-0500 (Central Daylight Time),439097.7999999523,A,flagenter,I,enter,963,1,1949.0999999046326,437148.7000000477,8040,WL,C,14.0
3,36.07200002670288,learn,23927.99997329712,Mon May 19 2025 17:11:32 GMT-0500 (Central Daylight Time),440697.2999999523,A,enter,I,enter,1580,1,1599.1999999284744,439098.10000002384,8040,WL,C,15.0
4,1.2009999752044678,learn,58799.00002479553,Mon May 19 2025 17:11:32 GMT-0500 (Central Daylight Time),512526.60000002384,A,t,I,t,1194,1,1201.3000000715256,511325.2999999523,8040,WL,C,1.0
4,1.3489999771118164,learn,58651.00002288818,Mon May 19 2025 17:11:32 GMT-0500 (Central Daylight Time),512674.60000002384,A,to,I,o,134,1,1349.3000000715256,511325.2999999523,8040,WL,C,1.0
4,1.5160000324249268,learn,58483.99996757507,Mon May 19 2025 17:11:32 GMT-0500 (Central Daylight Time),512841.2999999523,A,tow,I,w,156,1,1516.0,511325.2999999523,8040,WL,C,1.0
4,1.8489999771118164,learn,58151.00002288818,Mon May 19 2025 17:11:32 GMT-0500 (Central Daylight Time),513174.5,A,towe,I,e,325,1,1849.2000000476837,511325.2999999523,8040,WL,C,1.0
4,2.1489999294281006,learn,57851.0000705719,Mon May 19 2025 17:11:32 GMT-0500 (Central Daylight Time),513474.60000002384,A,tower,I,r,279,1,2149.3000000715256,511325.2999999523,8040,WL,C,1.0
4,2.5989999771118164,learn,57401.00002288818,Mon May 19 2025 17:11:32 GMT-0500 (Central Daylight Time),513924.2999999523,A,towerenter,I,enter,444,1,2599.0,511325.2999999523,8040,WL,C,1.0
4,3.0149998664855957,learn,56985.000133514404,Mon May 19 2025 17:11:32 GMT-0500 (Central Daylight Time),514340.7999999523,A,q,I,q,401,1,416.2999999523163,513924.5,8040,WL,C,2.0
4,3.248999834060669,learn,56751.00016593933,Mon May 19 2025 17:11:32 GMT-0500 (Central Daylight Time),514574.0,A,qu,I,u,225,1,649.5,513924.5,8040,WL,C,2.0
4,3.4649999141693115,learn,56535.00008583069,Mon May 19 2025 17:11:32 GMT-0500 (Central Daylight Time),514790.5,A,que,I,e,199,1,866.0,513924.5,8040,WL,C,2.0
4,3.681999921798706,learn,56318.000078201294,Mon May 19 2025 17:11:32 GMT-0500 (Central Daylight Time),515007.2999999523,A,quee,I,e,199,1,1082.7999999523163,513924.5,8040,WL,C,2.0
4,3.931999921798706,learn,56068.000078201294,Mon May 19 2025 17:11:32 GMT-0500 (Central Daylight Time),515257.2000000477,A,queen,I,n,239,1,1332.7000000476837,513924.5,8040,WL,C,2.0
4,4.297999858856201,learn,55702.0001411438,Mon May 19 2025 17:11:32 GMT-0500 (Central Daylight Time),515623.60000002384,A,queenenter,I,enter,348,1,1699.1000000238419,513924.5,8040,WL,C,2.0
4,4.730999946594238,learn,55269.00005340576,Mon May 19 2025 17:11:32 GMT-0500 (Central Daylight Time),516056.7999999523,A,s,I,s,414,1,432.7999999523163,515624.0,8040,WL,C,3.0
4,4.947999954223633,learn,55052.00004577637,Mon May 19 2025 17:11:32 GMT-0500 (Central Daylight Time),516273.60000002384,A,su,I,u,197,1,649.6000000238419,515624.0,8040,WL,C,3.0
4,5.414999961853027,learn,54585.00003814697,Mon May 19 2025 17:11:32 GMT-0500 (Central Daylight Time),516740.10000002384,A,sug,I,g,452,1,1116.1000000238419,515624.0,8040,WL,C,3.0
4,5.597999811172485,learn,54402.000188827515,Mon May 19 2025 17:11:32 GMT-0500 (Central Daylight Time),516923.5,A,suga,I,a,170,1,1299.5,515624.0,8040,WL,C,3.0
4,5.863999843597412,learn,54136.00015640259,Mon May 19 2025 17:11:32 GMT-0500 (Central Daylight Time),517189.7000000477,A,sugar,I,r,258,1,1565.7000000476837,515624.0,8040,WL,C,3.0
4,6.580999851226807,learn,53419.00014877319,Mon May 19 2025 17:11:32 GMT-0500 (Central Daylight Time),517906.2999999523,A,sugarenter,I,enter,695,1,2282.2999999523163,515624.0,8040,WL,C,3.0
4,7.346999883651733,learn,52653.00011634827,Mon May 19 2025 17:11:32 GMT-0500 (Central Daylight Time),518672.7000000477,A,b,I,b,747,1,766.0,517906.7000000477,8040,WL,C,4.0
4,7.480999946594238,learn,52519.00005340576,Mon May 19 2025 17:11:32 GMT-0500 (Central Daylight Time),518806.10000002384,A,bo,I,o,117,1,899.3999999761581,517906.7000000477,8040,WL,C,4.0
4,7.796999931335449,learn,52203.00006866455,Mon May 19 2025 17:11:32 GMT-0500 (Central Daylight Time),519122.7999999523,A,boy,I,y,304,1,1216.0999999046326,517906.7000000477,8040,WL,C,4.0
4,8.29699993133545,learn,51703.00006866455,Mon May 19 2025 17:11:32 GMT-0500 (Central Daylight Time),519622.60000002384,A,boyenter,I,enter,483,1,1715.8999999761581,517906.7000000477,8040,WL,C,4.0
4,8.763999938964844,learn,51236.000061035156,Mon May 19 2025 17:11:32 GMT-0500 (Central Daylight Time),520089.2000000477,A,b,I,b,456,1,466.2000000476837,519623.0,8040,WL,C,5.0
4,8.912999868392944,learn,51087.000131607056,Mon May 19 2025 17:11:32 GMT-0500 (Central Daylight Time),520238.7999999523,A,bo,I,o,141,1,615.7999999523163,519623.0,8040,WL,C,5.0
4,9.230000019073486,learn,50769.999980926514,Mon May 19 2025 17:11:32 GMT-0500 (Central Daylight Time),520555.7000000477,A,bod,I,d,304,1,932.7000000476837,519623.0,8040,WL,C,5.0
4,9.480000019073486,learn,50519.999980926514,Mon May 19 2025 17:11:32 GMT-0500 (Central Daylight Time),520805.60000002384,A,body,I,y,242,1,1182.6000000238419,519623.0,8040,WL,C,5.0
4,10.129999876022339,learn,49870.00012397766,Mon May 19 2025 17:11:32 GMT-0500 (Central Daylight Time),521455.2000000477,A,bodyenter,I,enter,641,1,1832.2000000476837,519623.0,8040,WL,C,5.0
4,11.296000003814697,learn,48703.9999961853,Mon May 19 2025 17:11:32 GMT-0500 (Central Daylight Time),522621.60000002384,A,n,I,n,1159,1,1166.0,521455.60000002384,8040,WL,C,6.0
4,11.395999908447266,learn,48604.000091552734,Mon May 19 2025 17:11:32 GMT-0500 (Central Daylight Time),522721.7000000477,A,na,I,a,80,1,1266.1000000238419,521455.60000002384,8040,WL,C,6.0
4,11.641999959945679,learn,48358.00004005432,Mon May 19 2025 17:11:32 GMT-0500 (Central Daylight Time),522967.60000002384,A,nai,I,i,241,1,1512.0,521455.60000002384,8040,WL,C,6.0
4,11.815999984741211,learn,48184.00001525879,Mon May 19 2025 17:11:32 GMT-0500 (Central Daylight Time),523141.7000000477,A,nail,I,l,161,1,1686.1000000238419,521455.60000002384,8040,WL,C,6.0
4,12.128999948501587,learn,47871.00005149841,Mon May 19 2025 17:11:32 GMT-0500 (Central Daylight Time),523454.7000000477,A,nailenter,I,enter,304,1,1999.1000000238419,521455.60000002384,8040,WL,C,6.0
4,12.611999988555908,learn,47388.00001144409,Mon May 19 2025 17:11:32 GMT-0500 (Central Daylight Time),523937.7000000477,A,d,I,d,471,1,482.7000000476837,523455.0,8040,WL,C,7.0
4,12.728999853134155,learn,47271.000146865845,Mon May 19 2025 17:11:32 GMT-0500 (Central Daylight Time),524054.89999997616,A,do,I,o,108,1,599.8999999761581,523455.0,8040,WL,C,7.0
4,12.978999853134155,learn,47021.000146865845,Mon May 19 2025 17:11:32 GMT-0500 (Central Daylight Time),524304.7000000477,A,doc,I,c,239,1,849.7000000476837,523455.0,8040,WL,C,7.0
4,13.27899980545044,learn,46721.00019454956,Mon May 19 2025 17:11:32 GMT-0500 (Central Daylight Time),524604.3999999762,A,doct,I,t,285,1,1149.3999999761581,523455.0,8040,WL,C,7.0
4,13.378999948501587,learn,46621.00005149841,Mon May 19 2025 17:11:32 GMT-0500 (Central Daylight Time),524704.2000000477,A,docto,I,o,89,1,1249.2000000476837,523455.0,8040,WL,C,7.0
4,13.59500002861023,learn,46404.99997138977,Mon May 19 2025 17:11:32 GMT-0500 (Central Daylight Time),524920.5,A,doctor,I,r,205,1,1465.5,523455.0,8040,WL,C,7.0
4,15.128000020980835,learn,44871.999979019165,Mon May 19 2025 17:11:32 GMT-0500 (Central Daylight Time),526453.6000000238,A,doctorenter,I,enter,1517,1,2998.600000023842,523455.0,8040,WL,C,7.0
4,16.293999910354614,learn,43706.000089645386,Mon May 19 2025 17:11:32 GMT-0500 (Central Daylight Time),527620.0,A,f,I,f,1153,1,1166.0,526454.0,8040,WL,C,8.0
4,16.477999925613403,learn,43522.0000743866,Mon May 19 2025 17:11:32 GMT-0500 (Central Daylight Time),527803.2999999523,A,fl,I,l,169,1,1349.2999999523163,526454.0,8040,WL,C,8.0
4,16.643999814987183,learn,43356.00018501282,Mon May 19 2025 17:11:32 GMT-0500 (Central Daylight Time),527969.7999999523,A,fla,I,a,146,1,1515.7999999523163,526454.0,8040,WL,C,8.0
4,17.043999910354614,learn,42956.000089645386,Mon May 19 2025 17:11:32 GMT-0500 (Central Daylight Time),528369.7999999523,A,flag,I,g,388,1,1915.7999999523163,526454.0,8040,WL,C,8.0
4,17.42799997329712,learn,42572.00002670288,Mon May 19 2025 17:11:32 GMT-0500 (Central Daylight Time),528753.1000000238,A,flagenter,I,enter,365,1,2299.100000023842,526454.0,8040,WL,C,8.0
4,18.643999814987183,learn,41356.00018501282,Mon May 19 2025 17:11:32 GMT-0500 (Central Daylight Time),529969.3999999762,A,h,I,h,1204,1,1215.8999999761581,528753.5,8040,WL,C,9.0
4,18.776999950408936,learn,41223.000049591064,Mon May 19 2025 17:11:32 GMT-0500 (Central Daylight Time),530102.7000000477,A,ho,I,o,125,1,1349.2000000476837,528753.5,8040,WL,C,9.0
4,18.90999984741211,learn,41090.00015258789,Mon May 19 2025 17:11:32 GMT-0500 (Central Daylight Time),530235.7000000477,A,hom,I,m,126,1,1482.2000000476837,528753.5,8040,WL,C,9.0
4,19.143999814987183,learn,40856.00018501282,Mon May 19 2025 17:11:32 GMT-0500 (Central Daylight Time),530469.2000000477,A,home,I,e,226,1,1715.7000000476837,528753.5,8040,WL,C,9.0
4,20.676999807357788,learn,39323.00019264221,Mon May 19 2025 17:11:32 GMT-0500 (Central Daylight Time),532002.2000000477,A,homeenter,I,enter,1521,1,3248.7000000476837,528753.5,8040,WL,C,9.0
4,21.125999927520752,learn,38874.00007247925,Mon May 19 2025 17:11:32 GMT-0500 (Central Daylight Time),532451.5,A,c,I,c,444,1,448.89999997615814,532002.6000000238,8040,WL,C,10.0
4,21.30999994277954,learn,38690.00005722046,Mon May 19 2025 17:11:32 GMT-0500 (Central Daylight Time),532635.1000000238,A,ca,I,a,178,1,632.5,532002.6000000238,8040,WL,C,10.0
4,21.592999935150146,learn,38407.00006484985,Mon May 19 2025 17:11:32 GMT-0500 (Central Daylight Time),532918.5,A,cam,I,m,266,1,915.8999999761581,532002.6000000238,8040,WL,C,10.0
4,21.825999975204468,learn,38174.00002479553,Mon May 19 2025 17:11:32 GMT-0500 (Central Daylight Time),533151.7000000477,A,camp,I,p,224,1,1149.1000000238419,532002.6000000238,8040,WL,C,10.0
4,22.425999879837036,learn,37574.000120162964,Mon May 19 2025 17:11:32 GMT-0500 (Central Daylight Time),533751.3999999762,A,campenter,I,enter,589,1,1748.7999999523163,532002.6000000238,8040,WL,C,10.0
4,23.424999952316284,learn,36575.000047683716,Mon May 19 2025 17:11:32 GMT-0500 (Central Daylight Time),534751.0,A,s,I,s,991,1,999.2999999523163,533751.7000000477,8040,WL,C,11.0
4,23.80900001525879,learn,36190.99998474121,Mon May 19 2025 17:11:32 GMT-0500 (Central Daylight Time),535134.3999999762,A,,I,backspace,375,1,1382.6999999284744,533751.7000000477,8040,WL,C,11.0
4,23.924999952316284,learn,36075.000047683716,Mon May 19 2025 17:11:32 GMT-0500 (Central Daylight Time),535250.8999999762,A,w,I,w,103,1,1499.1999999284744,533751.7000000477,8040,WL,C,11.0
4,24.125,learn,35875.0,Mon May 19 2025 17:11:32 GMT-0500 (Central Daylight Time),535450.7999999523,A,wh,I,h,180,1,1699.0999999046326,533751.7000000477,8040,WL,C,11.0
4,24.20899987220764,learn,35791.00012779236,Mon May 19 2025 17:11:32 GMT-0500 (Central Daylight Time),535534.0,A,whe,I,e,76,1,1782.2999999523163,533751.7000000477,8040,WL,C,11.0
4,24.45899987220764,learn,35541.00012779236,Mon May 19 2025 17:11:32 GMT-0500 (Central Daylight Time),535784.0,A,whea,I,a,232,1,2032.2999999523163,533751.7000000477,8040,WL,C,11.0
4,24.774999856948853,learn,35225.00014305115,Mon May 19 2025 17:11:32 GMT-0500 (Central Daylight Time),536100.2000000477,A,wheat,I,t,301,1,2348.5,533751.7000000477,8040,WL,C,11.0
4,25.391000032424927,learn,34608.99996757507,Mon May 19 2025 17:11:32 GMT-0500 (Central Daylight Time),536716.8999999762,A,wheatenter,I,enter,609,1,2965.1999999284744,533751.7000000477,8040,WL,C,11.0
4,25.97499990463257,learn,34025.00009536743,Mon May 19 2025 17:11:32 GMT-0500 (Central Daylight Time),537300.0,A,c,I,c,569,1,582.8999999761581,536717.1000000238,8040,WL,C,12.0
4,26.12399983406067,learn,33876.00016593933,Mon May 19 2025 17:11:32 GMT-0500 (Central Daylight Time),537449.7999999523,A,co,I,o,129,1,732.6999999284744,536717.1000000238,8040,WL,C,12.0
4,26.324999809265137,learn,33675.00019073486,Mon May 19 2025 17:11:32 GMT-0500 (Central Daylight Time),537650.2999999523,A,cor,I,r,179,1,933.1999999284744,536717.1000000238,8040,WL,C,12.0
4,26.723999977111816,learn,33276.00002288818,Mon May 19 2025 17:11:32 GMT-0500 (Central Daylight Time),538050.0,A,corn,I,n,388,1,1332.8999999761581,536717.1000000238,8040,WL,C,12.0
4,27.29099988937378,learn,32709.00011062622,Mon May 19 2025 17:11:32 GMT-0500 (Central Daylight Time),538616.5,A,cornenter,I,enter,557,1,1899.3999999761581,536717.1000000238,8040,WL,C,12.0
4,28.2739999294281,learn,31726.0000705719,Mon May 19 2025 17:11:32 GMT-0500 (Central Daylight Time),539599.7000000477,A,c,I,c,974,1,982.9000000953674,538616.7999999523,8040,WL,C,13.0
4,28.406999826431274,learn,31593.000173568726,Mon May 19 2025 17:11:32 GMT-0500 (Central Daylight Time),539732.6000000238,A,ca,I,a,127,1,1115.8000000715256,538616.7999999523,8040,WL,C,13.0
4,28.674000024795532,learn,31325.999975204468,Mon May 19 2025 17:11:32 GMT-0500 (Central Daylight Time),539999.6000000238,A,cat,I,t,257,1,1382.8000000715256,538616.7999999523,8040,WL,C,13.0
4,28.83999991416931,learn,31160.00008583069,Mon May 19 2025 17:11:32 GMT-0500 (Central Daylight Time),540166.1000000238,A,catt,I,t,158,1,1549.3000000715256,538616.7999999523,8040,WL,C,13.0
4,28.990000009536743,learn,31009.999990463257,Mon May 19 2025 17:11:32 GMT-0500 (Central Daylight Time),540316.0,A,cattl,I,l,135,1,1699.2000000476837,538616.7999999523,8040,WL,C,13.0
4,29.207000017166138,learn,30792.999982833862,Mon May 19 2025 17:11:32 GMT-0500 (Central Daylight Time),540532.7999999523,A,cattle,I,e,201,1,1916.0,538616.7999999523,8040,WL,C,13.0
4,29.641000032424927,learn,30358.999967575073,Mon May 19 2025 17:11:32 GMT-0500 (Central Daylight Time),540967.0,A,cattleenter,I,enter,424,1,2350.2000000476837,538616.7999999523,8040,WL,C,13.0
4,30.389999866485596,learn,29610.000133514404,Mon May 19 2025 17:11:32 GMT-0500 (Central Daylight Time),541715.3999999762,A,s,I,s,742,1,748.1000000238419,540967.2999999523,8040,WL,C,14.0
4,30.572999954223633,learn,29427.000045776367,Mon May 19 2025 17:11:32 GMT-0500 (Central Daylight Time),541898.7000000477,A,sh,I,h,163,1,931.4000000953674,540967.2999999523,8040,WL,C,14.0
4,30.68999981880188,learn,29310.00018119812,Mon May 19 2025 17:11:32 GMT-0500 (Central Daylight Time),542015.6000000238,A,sho,I,o,108,1,1048.3000000715256,540967.2999999523,8040,WL,C,14.0
4,30.85599994659424,learn,29144.00005340576,Mon May 19 2025 17:11:32 GMT-0500 (Central Daylight Time),542182.1000000238,A,shor,I,r,151,1,1214.8000000715256,540967.2999999523,8040,WL,C,14.0
4,31.039999961853027,learn,28960.000038146973,Mon May 19 2025 17:11:32 GMT-0500 (Central Daylight Time),542365.6000000238,A,shore,I,e,167,1,1398.3000000715256,540967.2999999523,8040,WL,C,14.0
4,31.60599994659424,learn,28394.00005340576,Mon May 19 2025 17:11:32 GMT-0500 (Central Daylight Time),542931.6000000238,A,shoreenter,I,enter,560,1,1964.3000000715256,540967.2999999523,8040,WL,C,14.0
4,33.80499982833862,learn,26195.000171661377,Mon May 19 2025 17:11:32 GMT-0500 (Central Daylight Time),545130.8999999762,A,enter,I,enter,2195,1,2199.0,542931.8999999762,8040,WL,C,15.0
5,1.5339999198913574,learn,60000.0,Mon May 19 2025 17:11:32 GMT-0500 (Central Daylight Time),616225.7999999523,A,t,I,t,1513,1,1533.2999999523163,614692.5,8040,WL,C,1.0
5,1.6340000629425049,learn,60000.0,Mon May 19 2025 17:11:32 GMT-0500 (Central Daylight Time),616325.7000000477,A,to,I,o,92,1,1633.2000000476837,614692.5,8040,WL,C,1.0
5,1.7669999599456787,learn,60000.0,Mon May 19 2025 17:11:32 GMT-0500 (Central Daylight Time),616459.0,A,tow,I,w,113,1,1766.5,614692.5,8040,WL,C,1.0
5,2.049999952316284,learn,60000.0,Mon May 19 2025 17:11:32 GMT-0500 (Central Daylight Time),616742.1000000238,A,towe,I,e,267,1,2049.600000023842,614692.5,8040,WL,C,1.0
5,2.3499999046325684,learn,60000.0,Mon May 19 2025 17:11:32 GMT-0500 (Central Daylight Time),617042.0,A,tower,I,r,280,1,2349.5,614692.5,8040,WL,C,1.0
5,2.736999988555908,learn,60000.0,Mon May 19 2025 17:11:32 GMT-0500 (Central Daylight Time),617429.1000000238,A,towerenter,I,enter,373,1,2736.600000023842,614692.5,8040,WL,C,1.0
5,3.200000047683716,learn,60000.0,Mon May 19 2025 17:11:32 GMT-0500 (Central Daylight Time),617891.8999999762,A,q,I,q,448,1,462.5,617429.3999999762,8040,WL,C,2.0
5,3.3989999294281006,learn,60000.0,Mon May 19 2025 17:11:32 GMT-0500 (Central Daylight Time),618091.3999999762,A,qu,I,u,195,1,662.0,617429.3999999762,8040,WL,C,2.0
5,3.549999952316284,learn,60000.0,Mon May 19 2025 17:11:32 GMT-0500 (Central Daylight Time),618241.8999999762,A,que,I,e,130,1,812.5,617429.3999999762,8040,WL,C,2.0
5,3.7990000247955322,learn,60000.0,Mon May 19 2025 17:11:32 GMT-0500 (Central Daylight Time),618491.2000000477,A,quee,I,e,244,1,1061.8000000715256,617429.3999999762,8040,WL,C,2.0
5,4.132999897003174,learn,60000.0,Mon May 19 2025 17:11:32 GMT-0500 (Central Daylight Time),618824.7000000477,A,queen,I,n,323,1,1395.3000000715256,617429.3999999762,8040,WL,C,2.0
5,4.83299994468689,learn,60000.0,Mon May 19 2025 17:11:32 GMT-0500 (Central Daylight Time),619524.7999999523,A,queenenter,I,enter,686,1,2095.399999976158,617429.3999999762,8040,WL,C,2.0
5,5.315999984741211,learn,60000.0,Mon May 19 2025 17:11:32 GMT-0500 (Central Daylight Time),620007.7000000477,A,s,I,s,466,1,482.60000002384186,619525.1000000238,8040,WL,C,3.0
5,5.48199987411499,learn,60000.0,Mon May 19 2025 17:11:32 GMT-0500 (Central Daylight Time),620174.3999999762,A,su,I,u,151,1,649.2999999523163,619525.1000000238,8040,WL,C,3.0
5,5.815999984741211,learn,60000.0,Mon May 19 2025 17:11:32 GMT-0500 (Central Daylight Time),620507.6000000238,A,sug,I,g,320,1,982.5,619525.1000000238,8040,WL,C,3.0
5,5.966000080108643,learn,60000.0,Mon May 19 2025 17:11:32 GMT-0500 (Central Daylight Time),620657.6000000238,A,suga,I,a,131,1,1132.5,619525.1000000238,8040,WL,C,3.0
5,6.23199987411499,learn,60000.0,Mon May 19 2025 17:11:32 GMT-0500 (Central Daylight Time),620924.0,A,sugar,I,r,261,1,1398.8999999761581,619525.1000000238,8040,WL,C,3.0
5,7.014999866485596,learn,60000.0,Mon May 19 2025 17:11:32 GMT-0500 (Central Daylight Time),621707.2000000477,A,sugarenter,I,enter,769,1,2182.100000023842,619525.1000000238,8040,WL,C,3.0
5,7.414999961853027,learn,60000.0,Mon May 19 2025 17:11:32 GMT-0500 (Central Daylight Time),622107.0,A,l,I,l,395,1,399.5,621707.5,8040,WL,C,4.0
5,7.598999977111816,learn,60000.0,Mon May 19 2025 17:11:32 GMT-0500 (Central Daylight Time),622290.7999999523,A,le,I,e,163,1,583.2999999523163,621707.5,8040,WL,C,4.0
5,7.898000001907349,learn,60000.0,Mon May 19 2025 17:11:32 GMT-0500 (Central Daylight Time),622590.2999999523,A,let,I,t,284,1,882.7999999523163,621707.5,8040,WL,C,4.0
5,8.04800009727478,learn,60000.0,Mon May 19 2025 17:11:32 GMT-0500 (Central Daylight Time),622740.1000000238,A,lett,I,t,135,1,1032.6000000238419,621707.5,8040,WL,C,4.0
5,8.29800009727478,learn,60000.0,Mon May 19 2025 17:11:32 GMT-0500 (Central Daylight Time),622990.1000000238,A,lette,I,e,242,1,1282.6000000238419,621707.5,8040,WL,C,4.0
5,8.582000017166138,learn,60000.0,Mon May 19 2025 17:11:32 GMT-0500 (Central Daylight Time),623273.5,A,letter,I,r,263,1,1566.0,621707.5,8040,WL,C,4.0
5,9.230999946594238,learn,60000.0,Mon May 19 2025 17:11:32 GMT-0500 (Central Daylight Time),623922.8999999762,A,letterenter,I,enter,645,1,2215.399999976158,621707.5,8040,WL,C,4.0
5,9.730999946594238,learn,60000.0,Mon May 19 2025 17:11:32 GMT-0500 (Central Daylight Time),624423.0,A,b,I,b,484,1,499.7000000476837,623923.2999999523,8040,WL,C,5.0
5,9.848000049591064,learn,60000.0,Mon May 19 2025 17:11:32 GMT-0500 (Central Daylight Time),624539.7999999523,A,bo,I,o,104,1,616.5,623923.2999999523,8040,WL,C,5.0
5,10.13100004196167,learn,60000.0,Mon May 19 2025 17:11:32 GMT-0500 (Central Daylight Time),624822.7999999523,A,boy,I,y,275,1,899.5,623923.2999999523,8040,WL,C,5.0
5,10.598000049591064,learn,60000.0,Mon May 19 2025 17:11:32 GMT-0500 (Central Daylight Time),625289.8999999762,A,boyenter,I,enter,446,1,1366.6000000238419,623923.2999999523,8040,WL,C,5.0
5,11.180999994277954,learn,60000.0,Mon May 19 2025 17:11:32 GMT-0500 (Central Daylight Time),625872.7000000477,A,b,I,b,572,1,582.6000000238419,625290.1000000238,8040,WL,C,6.0
5,11.346999883651733,learn,60000.0,Mon May 19 2025 17:11:32 GMT-0500 (Central Daylight Time),626039.1000000238,A,bo,I,o,149,1,749.0,625290.1000000238,8040,WL,C,6.0
5,11.71399998664856,learn,60000.0,Mon May 19 2025 17:11:32 GMT-0500 (Central Daylight Time),626405.7000000477,A,bod,I,d,350,1,1115.6000000238419,625290.1000000238,8040,WL,C,6.0
5,11.96399998664856,learn,60000.0,Mon May 19 2025 17:11:32 GMT-0500 (Central Daylight Time),626655.6000000238,A,body,I,y,240,1,1365.5,625290.1000000238,8040,WL,C,6.0
5,12.430000066757202,learn,60000.0,Mon May 19 2025 17:11:32 GMT-0500 (Central Daylight Time),627121.7999999523,A,bodyenter,I,enter,445,1,1831.6999999284744,625290.1000000238,8040,WL,C,6.0
5,13.180000066757202,learn,60000.0,Mon May 19 2025 17:11:32 GMT-0500 (Central Daylight Time),627872.1000000238,A,d,I,d,740,1,750.0,627122.1000000238,8040,WL,C,7.0
5,13.345999956130981,learn,60000.0,Mon May 19 2025 17:11:32 GMT-0500 (Central Daylight Time),628038.3999999762,A,do,I,o,150,1,916.2999999523163,627122.1000000238,8040,WL,C,7.0
5,13.629999876022339,learn,60000.0,Mon May 19 2025 17:11:32 GMT-0500 (Central Daylight Time),628321.8999999762,A,doc,I,c,272,1,1199.7999999523163,627122.1000000238,8040,WL,C,7.0
5,13.912999868392944,learn,60000.0,Mon May 19 2025 17:11:32 GMT-0500 (Central Daylight Time),628605.0,A,doct,I,t,268,1,1482.8999999761581,627122.1000000238,8040,WL,C,7.0
5,14.046000003814697,learn,60000.0,Mon May 19 2025 17:11:32 GMT-0500 (Central Daylight Time),628738.2999999523,A,docto,I,o,112,1,1616.1999999284744,627122.1000000238,8040,WL,C,7.0
5,14.180000066757202,learn,60000.0,Mon May 19 2025 17:11:32 GMT-0500 (Central Daylight Time),628871.5,A,doctor,I,r,116,1,1749.3999999761581,627122.1000000238,8040,WL,C,7.0
5,14.546000003814697,learn,60000.0,Mon May 19 2025 17:11:32 GMT-0500 (Central Daylight Time),629238.0,A,doctorenter,I,enter,358,1,2115.899999976158,627122.1000000238,8040,WL,C,7.0
5,14.996000051498413,learn,60000.0,Mon May 19 2025 17:11:32 GMT-0500 (Central Daylight Time),629687.8999999762,A,n,I,n,432,1,449.6999999284744,629238.2000000477,8040,WL,C,8.0
5,15.145999908447266,learn,60000.0,Mon May 19 2025 17:11:32 GMT-0500 (Central Daylight Time),629837.8999999762,A,na,I,a,134,1,599.6999999284744,629238.2000000477,8040,WL,C,8.0
5,15.246000051498413,learn,60000.0,Mon May 19 2025 17:11:32 GMT-0500 (Central Daylight Time),629937.8999999762,A,nai,I,i,88,1,699.6999999284744,629238.2000000477,8040,WL,C,8.0
5,15.645999908447266,learn,60000.0,Mon May 19 2025 17:11:32 GMT-0500 (Central Daylight Time),630337.7000000477,A,nail,I,l,388,1,1099.5,629238.2000000477,8040,WL,C,8.0
5,16.26200008392334,learn,60000.0,Mon May 19 2025 17:11:32 GMT-0500 (Central Daylight Time),630954.3999999762,A,nailenter,I,enter,596,1,1716.1999999284744,629238.2000000477,8040,WL,C,8.0
5,18.194999933242798,learn,60000.0,Mon May 19 2025 17:11:32 GMT-0500 (Central Daylight Time),632886.8999999762,A,c,I,c,1922,1,1932.1999999284744,630954.7000000477,8040,WL,C,9.0
5,18.32800006866455,learn,60000.0,Mon May 19 2025 17:11:32 GMT-0500 (Central Daylight Time),633020.2999999523,A,ca,I,a,127,1,2065.5999999046326,630954.7000000477,8040,WL,C,9.0
5,18.711999893188477,learn,60000.0,Mon May 19 2025 17:11:32 GMT-0500 (Central Daylight Time),633403.6000000238,A,c,I,backspace,370,1,2448.899999976158,630954.7000000477,8040,WL,C,9.0
5,18.92799997329712,learn,60000.0,Mon May 19 2025 17:11:32 GMT-0500 (Central Daylight Time),633620.0,A,co,I,o,203,1,2665.2999999523163,630954.7000000477,8040,WL,C,9.0
5,19.07800006866455,learn,60000.0,Mon May 19 2025 17:11:32 GMT-0500 (Central Daylight Time),633770.0,A,cor,I,r,138,1,2815.2999999523163,630954.7000000477,8040,WL,C,9.0
5,19.295000076293945,learn,60000.0,Mon May 19 2025 17:11:32 GMT-0500 (Central Daylight Time),633986.7999999523,A,corn,I,n,196,1,3032.0999999046326,630954.7000000477,8040,WL,C,9.0
5,19.628000020980835,learn,60000.0,Mon May 19 2025 17:11:32 GMT-0500 (Central Daylight Time),634319.8999999762,A,cornenter,I,enter,324,1,3365.1999999284744,630954.7000000477,8040,WL,C,9.0
5,20.027999877929688,learn,60000.0,Mon May 19 2025 17:11:32 GMT-0500 (Central Daylight Time),634719.7999999523,A,w,I,w,389,1,399.6999999284744,634320.1000000238,8040,WL,C,10.0
5,20.293999910354614,learn,60000.0,Mon May 19 2025 17:11:32 GMT-0500 (Central Daylight Time),634986.2999999523,A,wh,I,h,247,1,666.1999999284744,634320.1000000238,8040,WL,C,10.0
5,20.710999965667725,learn,60000.0,Mon May 19 2025 17:11:32 GMT-0500 (Central Daylight Time),635402.7999999523,A,whe,I,e,403,1,1082.6999999284744,634320.1000000238,8040,WL,C,10.0
5,21.043999910354614,learn,60000.0,Mon May 19 2025 17:11:32 GMT-0500 (Central Daylight Time),635736.0,A,whea,I,a,324,1,1415.8999999761581,634320.1000000238,8040,WL,C,10.0
5,21.32699990272522,learn,60000.0,Mon May 19 2025 17:11:32 GMT-0500 (Central Daylight Time),636019.2000000477,A,wheat,I,t,279,1,1699.1000000238419,634320.1000000238,8040,WL,C,10.0
5,22.009999990463257,learn,60000.0,Mon May 19 2025 17:11:32 GMT-0500 (Central Daylight Time),636702.5,A,wheatenter,I,enter,675,1,2382.399999976158,634320.1000000238,8040,WL,C,10.0
5,23.693000078201294,learn,60000.0,Mon May 19 2025 17:11:32 GMT-0500 (Central Daylight Time),638385.2999999523,A,c,I,c,1664,1,1682.5,636702.7999999523,8040,WL,C,11.0
5,23.877000093460083,learn,60000.0,Mon May 19 2025 17:11:32 GMT-0500 (Central Daylight Time),638568.7999999523,A,ca,I,a,164,1,1866.0,636702.7999999523,8040,WL,C,11.0
5,24.14299988746643,learn,60000.0,Mon May 19 2025 17:11:32 GMT-0500 (Central Daylight Time),638835.1000000238,A,cat,I,t,253,1,2132.3000000715256,636702.7999999523,8040,WL,C,11.0
5,24.30999994277954,learn,60000.0,Mon May 19 2025 17:11:32 GMT-0500 (Central Daylight Time),639001.7999999523,A,catt,I,t,146,1,2299.0,636702.7999999523,8040,WL,C,11.0
5,24.743000030517578,learn,60000.0,Mon May 19 2025 17:11:32 GMT-0500 (Central Daylight Time),639434.7999999523,A,cattl,I,l,420,1,2732.0,636702.7999999523,8040,WL,C,11.0
5,24.875999927520752,learn,60000.0,Mon May 19 2025 17:11:32 GMT-0500 (Central Daylight Time),639568.2000000477,A,cattle,I,e,124,1,2865.4000000953674,636702.7999999523,8040,WL,C,11.0
5,25.259000062942505,learn,60000.0,Mon May 19 2025 17:11:32 GMT-0500 (Central Daylight Time),639951.3999999762,A,cattleenter,I,enter,374,1,3248.600000023842,636702.7999999523,8040,WL,C,11.0
5,26.138999938964844,learn,60000.0,Mon May 19 2025 17:11:32 GMT-0500 (Central Daylight Time),640831.3999999762,A,h,I,h,875,1,879.6000000238419,639951.7999999523,8040,WL,C,12.0
5,26.286999940872192,learn,60000.0,Mon May 19 2025 17:11:32 GMT-0500 (Central Daylight Time),640979.0,A,ha,I,a,143,1,1027.2000000476837,639951.7999999523,8040,WL,C,12.0
5,26.441999912261963,learn,60000.0,Mon May 19 2025 17:11:32 GMT-0500 (Central Daylight Time),641134.2000000477,A,ham,I,m,138,1,1182.4000000953674,639951.7999999523,8040,WL,C,12.0
5,26.9760000705719,learn,60000.0,Mon May 19 2025 17:11:32 GMT-0500 (Central Daylight Time),641667.6000000238,A,ha,I,backspace,519,1,1715.8000000715256,639951.7999999523,8040,WL,C,12.0
5,27.125999927520752,learn,60000.0,Mon May 19 2025 17:11:32 GMT-0500 (Central Daylight Time),641817.5,A,h,I,backspace,130,1,1865.7000000476837,639951.7999999523,8040,WL,C,12.0
5,27.325999975204468,learn,60000.0,Mon May 19 2025 17:11:32 GMT-0500 (Central Daylight Time),642017.6000000238,A,ho,I,o,188,1,2065.8000000715256,639951.7999999523,8040,WL,C,12.0
5,27.491999864578247,learn,60000.0,Mon May 19 2025 17:11:32 GMT-0500 (Central Daylight Time),642183.8999999762,A,hom,I,m,157,1,2232.100000023842,639951.7999999523,8040,WL,C,12.0
5,27.70899987220764,learn,60000.0,Mon May 19 2025 17:11:32 GMT-0500 (Central Daylight Time),642400.6000000238,A,home,I,e,206,1,2448.8000000715256,639951.7999999523,8040,WL,C,12.0
5,28.02500009536743,learn,60000.0,Mon May 19 2025 17:11:32 GMT-0500 (Central Daylight Time),642717.2000000477,A,homeenter,I,enter,309,1,2765.4000000953674,639951.7999999523,8040,WL,C,12.0
5,28.47499990463257,learn,60000.0,Mon May 19 2025 17:11:32 GMT-0500 (Central Daylight Time),643167.0,A,c,I,c,432,1,449.5,642717.5,8040,WL,C,13.0
5,28.625,learn,60000.0,Mon May 19 2025 17:11:32 GMT-0500 (Central Daylight Time),643317.0,A,ca,I,a,143,1,599.5,642717.5,8040,WL,C,13.0
5,28.77500009536743,learn,60000.0,Mon May 19 2025 17:11:32 GMT-0500 (Central Daylight Time),643467.2999999523,A,cam,I,m,138,1,749.7999999523163,642717.5,8040,WL,C,13.0
5,28.95899987220764,learn,60000.0,Mon May 19 2025 17:11:32 GMT-0500 (Central Daylight Time),643650.8999999762,A,camp,I,p,179,1,933.3999999761581,642717.5,8040,WL,C,13.0
5,29.424999952316284,learn,60000.0,Mon May 19 2025 17:11:32 GMT-0500 (Central Daylight Time),644116.8999999762,A,campenter,I,enter,450,1,1399.3999999761581,642717.5,8040,WL,C,13.0
5,29.97499990463257,learn,60000.0,Mon May 19 2025 17:11:32 GMT-0500 (Central Daylight Time),644666.8999999762,A,s,I,s,537,1,549.6999999284744,644117.2000000477,8040,WL,C,14.0
5,30.124000072479248,learn,60000.0,Mon May 19 2025 17:11:32 GMT-0500 (Central Daylight Time),644816.2999999523,A,sh,I,h,131,1,699.0999999046326,644117.2000000477,8040,WL,C,14.0
5,30.223999977111816,learn,60000.0,Mon May 19 2025 17:11:32 GMT-0500 (Central Daylight Time),644916.2000000477,A,sho,I,o,93,1,799.0,644117.2000000477,8040,WL,C,14.0
5,30.45799994468689,learn,60000.0,Mon May 19 2025 17:11:32 GMT-0500 (Central Daylight Time),645149.5,A,shor,I,r,225,1,1032.2999999523163,644117.2000000477,8040,WL,C,14.0
5,30.674000024795532,learn,60000.0,Mon May 19 2025 17:11:32 GMT-0500 (Central Daylight Time),645366.1000000238,A,shore,I,e,200,1,1248.8999999761581,644117.2000000477,8040,WL,C,14.0
5,31.10699987411499,learn,60000.0,Mon May 19 2025 17:11:32 GMT-0500 (Central Daylight Time),645799.2000000477,A,shoreenter,I,enter,423,1,1682.0,644117.2000000477,8040,WL,C,14.0
5,43.78699994087219,learn,60000.0,Mon May 19 2025 17:11:32 GMT-0500 (Central Daylight Time),658478.8999999762,A,f,I,f,12663,1,12679.5,645799.3999999762,8040,WL,C,15.0
5,43.98699998855591,learn,60000.0,Mon May 19 2025 17:11:32 GMT-0500 (Central Daylight Time),658679.1000000238,A,fl,I,l,182,1,12879.700000047684,645799.3999999762,8040,WL,C,15.0
5,44.1029999256134,learn,60000.0,Mon May 19 2025 17:11:32 GMT-0500 (Central Daylight Time),658795.6000000238,A,fla,I,a,103,1,12996.200000047684,645799.3999999762,8040,WL,C,15.0
5,44.30299997329712,learn,60000.0,Mon May 19 2025 17:11:32 GMT-0500 (Central Daylight Time),658995.2000000477,A,flag,I,g,194,1,13195.800000071526,645799.3999999762,8040,WL,C,15.0
5,44.48699998855591,learn,60000.0,Mon May 19 2025 17:11:32 GMT-0500 (Central Daylight Time),659178.8999999762,A,flagenter,I,enter,171,1,13379.5,645799.3999999762,8040,WL,C,15.0
6,2.383000135421753,distr,57616.99986457825,Mon May 19 2025 17:11:32 GMT-0500 (Central Daylight Time),737737.6000000238,B,m,I,m,2363,1,2382.8000000715256,735354.7999999523,8040,WL,C,1.0
6,2.5829999446868896,distr,57417.00005531311,Mon May 19 2025 17:11:32 GMT-0500 (Central Daylight Time),737937.5,B,mo,I,o,180,1,2582.7000000476837,735354.7999999523,8040,WL,C,1.0
6,3.0490000247955322,distr,56950.99997520447,Mon May 19 2025 17:11:32 GMT-0500 (Central Daylight Time),738403.7000000477,B,mot,I,t,461,1,3048.9000000953674,735354.7999999523,8040,WL,C,1.0
6,3.249000072479248,distr,56750.99992752075,Mon May 19 2025 17:11:32 GMT-0500 (Central Daylight Time),738604.0,B,moth,I,h,187,1,3249.2000000476837,735354.7999999523,8040,WL,C,1.0
6,3.4830000400543213,distr,56516.99995994568,Mon May 19 2025 17:11:32 GMT-0500 (Central Daylight Time),738837.2000000477,B,mothe,I,e,227,1,3482.4000000953674,735354.7999999523,8040,WL,C,1.0
6,3.7660000324249268,distr,56233.99996757507,Mon May 19 2025 17:11:32 GMT-0500 (Central Daylight Time),739120.3999999762,B,mother,I,r,264,1,3765.600000023842,735354.7999999523,8040,WL,C,1.0
6,4.549000024795532,distr,55450.99997520447,Mon May 19 2025 17:11:32 GMT-0500 (Central Daylight Time),739903.6000000238,B,motherenter,I,enter,773,1,4548.800000071526,735354.7999999523,8040,WL,C,1.0
6,5.065000057220459,distr,54934.99994277954,Mon May 19 2025 17:11:32 GMT-0500 (Central Daylight Time),740420.0,B,w,I,w,503,1,516.1000000238419,739903.8999999762,8040,WL,C,2.0
6,5.249000072479248,distr,54750.99992752075,Mon May 19 2025 17:11:32 GMT-0500 (Central Daylight Time),740603.2999999523,B,wi,I,i,163,1,699.3999999761581,739903.8999999762,8040,WL,C,2.0
6,5.431999921798706,distr,54568.000078201294,Mon May 19 2025 17:11:32 GMT-0500 (Central Daylight Time),740786.6000000238,B,win,I,n,171,1,882.7000000476837,739903.8999999762,8040,WL,C,2.0
6,5.799000024795532,distr,54200.99997520447,Mon May 19 2025 17:11:32 GMT-0500 (Central Daylight Time),741153.0,B,wint,I,t,356,1,1249.1000000238419,739903.8999999762,8040,WL,C,2.0
6,6.232000112533569,distr,53767.99988746643,Mon May 19 2025 17:11:32 GMT-0500 (Central Daylight Time),741586.2000000477,B,winte,I,e,412,1,1682.3000000715256,739903.8999999762,8040,WL,C,2.0
6,6.565000057220459,distr,53434.99994277954,Mon May 19 2025 17:11:32 GMT-0500 (Central Daylight Time),741919.6000000238,B,winter,I,r,315,1,2015.7000000476837,739903.8999999762,8040,WL,C,2.0
6,6.8480000495910645,distr,53151.999950408936,Mon May 19 2025 17:11:32 GMT-0500 (Central Daylight Time),742202.7000000477,B,winterenter,I,enter,269,1,2298.8000000715256,739903.8999999762,8040,WL,C,2.0
6,7.230999946594238,distr,52769.00005340576,Mon May 19 2025 17:11:32 GMT-0500 (Central Daylight Time),742585.8999999762,B,l,I,l,363,1,382.7999999523163,742203.1000000238,8040,WL,C,3.0
6,7.398000001907349,distr,52601.99999809265,Mon May 19 2025 17:11:32 GMT-0500 (Central Daylight Time),742752.6000000238,B,la,I,a,156,1,549.5,742203.1000000238,8040,WL,C,3.0
6,7.930999994277954,distr,52069.000005722046,Mon May 19 2025 17:11:32 GMT-0500 (Central Daylight Time),743285.7000000477,B,l,I,backspace,518,1,1082.6000000238419,742203.1000000238,8040,WL,C,3.0
6,8.065000057220459,distr,51934.99994277954,Mon May 19 2025 17:11:32 GMT-0500 (Central Daylight Time),743418.8999999762,B,,I,backspace,121,1,1215.7999999523163,742203.1000000238,8040,WL,C,3.0
6,8.614000082015991,distr,51385.99991798401,Mon May 19 2025 17:11:32 GMT-0500 (Central Daylight Time),743968.7999999523,B,v,I,v,540,1,1765.6999999284744,742203.1000000238,8040,WL,C,3.0
6,8.814000129699707,distr,51185.99987030029,Mon May 19 2025 17:11:32 GMT-0500 (Central Daylight Time),744168.7999999523,B,va,I,a,189,1,1965.6999999284744,742203.1000000238,8040,WL,C,3.0
6,9.013999938964844,distr,50986.000061035156,Mon May 19 2025 17:11:32 GMT-0500 (Central Daylight Time),744368.7000000477,B,val,I,l,180,1,2165.600000023842,742203.1000000238,8040,WL,C,3.0
6,9.164000034332275,distr,50835.999965667725,Mon May 19 2025 17:11:32 GMT-0500 (Central Daylight Time),744518.7999999523,B,vall,I,l,141,1,2315.6999999284744,742203.1000000238,8040,WL,C,3.0
6,9.348000049591064,distr,50651.999950408936,Mon May 19 2025 17:11:32 GMT-0500 (Central Daylight Time),744702.0,B,valle,I,e,176,1,2498.899999976158,742203.1000000238,8040,WL,C,3.0
6,9.647000074386597,distr,50352.9999256134,Mon May 19 2025 17:11:32 GMT-0500 (Central Daylight Time),745001.7999999523,B,valley,I,y,279,1,2798.6999999284744,742203.1000000238,8040,WL,C,3.0
6,10.148000001907349,distr,49851.99999809265,Mon May 19 2025 17:11:32 GMT-0500 (Central Daylight Time),745502.1000000238,B,valleyenter,I,enter,484,1,3299.0,742203.1000000238,8040,WL,C,3.0
6,12.595999956130981,distr,47404.00004386902,Mon May 19 2025 17:11:32 GMT-0500 (Central Daylight Time),747950.7999999523,B,p,I,p,2441,1,2448.399999976158,745502.3999999762,8040,WL,C,4.0
6,12.880000114440918,distr,47119.99988555908,Mon May 19 2025 17:11:32 GMT-0500 (Central Daylight Time),748234.1000000238,B,pl,I,l,271,1,2731.7000000476837,745502.3999999762,8040,WL,C,4.0
6,13.098000049591064,distr,46901.999950408936,Mon May 19 2025 17:11:32 GMT-0500 (Central Daylight Time),748451.8999999762,B,pla,I,a,203,1,2949.5,745502.3999999762,8040,WL,C,4.0
6,13.479000091552734,distr,46520.999908447266,Mon May 19 2025 17:11:32 GMT-0500 (Central Daylight Time),748833.8999999762,B,plan,I,n,361,1,3331.5,745502.3999999762,8040,WL,C,4.0
6,13.796000003814697,distr,46203.9999961853,Mon May 19 2025 17:11:32 GMT-0500 (Central Daylight Time),749150.3999999762,B,plant,I,t,299,1,3648.0,745502.3999999762,8040,WL,C,4.0
6,14.246000051498413,distr,45753.99994850159,Mon May 19 2025 17:11:32 GMT-0500 (Central Daylight Time),749600.2999999523,B,plantenter,I,enter,432,1,4097.899999976158,745502.3999999762,8040,WL,C,4.0
6,14.646000146865845,distr,45353.999853134155,Mon May 19 2025 17:11:32 GMT-0500 (Central Daylight Time),750000.2000000477,B,p,I,p,380,1,399.60000002384186,749600.6000000238,8040,WL,C,5.0
6,14.996000051498413,distr,45003.99994850159,Mon May 19 2025 17:11:32 GMT-0500 (Central Daylight Time),750350.6000000238,B,pu,I,u,342,1,750.0,749600.6000000238,8040,WL,C,5.0
6,15.462000131607056,distr,44537.999868392944,Mon May 19 2025 17:11:32 GMT-0500 (Central Daylight Time),750816.8999999762,B,p,I,backspace,456,1,1216.2999999523163,749600.6000000238,8040,WL,C,5.0
6,15.812000036239624,distr,44187.999963760376,Mon May 19 2025 17:11:32 GMT-0500 (Central Daylight Time),751166.6000000238,B,,I,backspace,333,1,1566.0,749600.6000000238,8040,WL,C,5.0
6,15.979000091552734,distr,44020.999908447266,Mon May 19 2025 17:11:32 GMT-0500 (Central Daylight Time),751333.2000000477,B,b,I,b,160,1,1732.6000000238419,749600.6000000238,8040,WL,C,5.0
6,16.161999940872192,distr,43838.00005912781,Mon May 19 2025 17:11:32 GMT-0500 (Central Daylight Time),751516.6000000238,B,bu,I,u,169,1,1916.0,749600.6000000238,8040,WL,C,5.0
6,16.52900004386902,distr,43470.99995613098,Mon May 19 2025 17:11:32 GMT-0500 (Central Daylight Time),751883.0,B,but,I,t,362,1,2282.399999976158,749600.6000000238,8040,WL,C,5.0
6,16.727999925613403,distr,43272.0000743866,Mon May 19 2025 17:11:32 GMT-0500 (Central Daylight Time),752082.7999999523,B,butt,I,t,180,1,2482.1999999284744,749600.6000000238,8040,WL,C,5.0
6,17.01200008392334,distr,42987.99991607666,Mon May 19 2025 17:11:32 GMT-0500 (Central Daylight Time),752366.2000000477,B,butte,I,e,275,1,2765.600000023842,749600.6000000238,8040,WL,C,5.0
6,17.34500002861023,distr,42654.99997138977,Mon May 19 2025 17:11:32 GMT-0500 (Central Daylight Time),752699.0,B,butter,I,r,327,1,3098.399999976158,749600.6000000238,8040,WL,C,5.0
6,18.67799997329712,distr,41322.00002670288,Mon May 19 2025 17:11:32 GMT-0500 (Central Daylight Time),754032.5,B,butterenter,I,enter,1315,1,4431.899999976158,749600.6000000238,8040,WL,C,5.0
6,28.558000087738037,distr,31441.999912261963,Mon May 19 2025 17:11:32 GMT-0500 (Central Daylight Time),763912.7000000477,B,s,I,s,9862,1,9879.800000071526,754032.8999999762,8040,WL,C,6.0
6,28.825000047683716,distr,31174.999952316284,Mon May 19 2025 17:11:32 GMT-0500 (Central Daylight Time),764179.1000000238,B,sk,I,k,261,1,10146.200000047684,754032.8999999762,8040,WL,C,6.0
6,29.091000080108643,distr,30908.999919891357,Mon May 19 2025 17:11:32 GMT-0500 (Central Daylight Time),764445.7999999523,B,sky,I,y,251,1,10412.899999976158,754032.8999999762,8040,WL,C,6.0
6,29.490999937057495,distr,30509.000062942505,Mon May 19 2025 17:11:32 GMT-0500 (Central Daylight Time),764845.2999999523,B,skyenter,I,enter,383,1,10812.399999976158,754032.8999999762,8040,WL,C,6.0
6,34.03999996185303,distr,25960.000038146973,Mon May 19 2025 17:11:32 GMT-0500 (Central Daylight Time),769394.2000000477,B,m,I,m,4537,1,4548.700000047684,764845.5,8040,WL,C,7.0
6,34.24000000953674,distr,25759.999990463257,Mon May 19 2025 17:11:32 GMT-0500 (Central Daylight Time),769594.3999999762,B,mo,I,o,188,1,4748.899999976158,764845.5,8040,WL,C,7.0
6,34.4060001373291,distr,25593.9998626709,Mon May 19 2025 17:11:32 GMT-0500 (Central Daylight Time),769760.7000000477,B,mon,I,n,148,1,4915.200000047684,764845.5,8040,WL,C,7.0
6,34.92300009727478,distr,25076.99990272522,Mon May 19 2025 17:11:32 GMT-0500 (Central Daylight Time),770277.2999999523,B,mone,I,e,510,1,5431.799999952316,764845.5,8040,WL,C,7.0
6,35.138999938964844,distr,24861.000061035156,Mon May 19 2025 17:11:32 GMT-0500 (Central Daylight Time),770493.8999999762,B,money,I,y,209,1,5648.399999976158,764845.5,8040,WL,C,7.0
6,35.77300000190735,distr,24226.99999809265,Mon May 19 2025 17:11:32 GMT-0500 (Central Daylight Time),771127.0,B,moneyenter,I,enter,625,1,6281.5,764845.5,8040,WL,C,7.0
6,43.15300011634827,distr,16846.999883651733,Mon May 19 2025 17:11:32 GMT-0500 (Central Daylight Time),778507.7999999523,B,h,I,h,7367,1,7380.299999952316,771127.5,8040,WL,C,8.0
6,43.337000131607056,distr,16662.999868392944,Mon May 19 2025 17:11:32 GMT-0500 (Central Daylight Time),778691.2999999523,B,ha,I,a,170,1,7563.799999952316,771127.5,8040,WL,C,8.0
6,43.587000131607056,distr,16412.999868392944,Mon May 19 2025 17:11:32 GMT-0500 (Central Daylight Time),778941.2000000477,B,hal,I,l,243,1,7813.700000047684,771127.5,8040,WL,C,8.0
6,43.73699998855591,distr,16263.000011444092,Mon May 19 2025 17:11:32 GMT-0500 (Central Daylight Time),779091.2999999523,B,hall,I,l,145,1,7963.799999952316,771127.5,8040,WL,C,8.0
6,44.670000076293945,distr,15329.999923706055,Mon May 19 2025 17:11:32 GMT-0500 (Central Daylight Time),780024.2999999523,B,hallenter,I,enter,915,1,8896.799999952316,771127.5,8040,WL,C,8.0
6,60.015000104904175,distr,-15.000104904174805,Mon May 19 2025 17:11:32 GMT-0500 (Central Daylight Time),795369.3999999762,B,None,I,None,15339,1,15344.600000023842,780024.7999999523,8040,WL,C,9.0
7,1.432999849319458,immed,58567.00015068054,Mon May 19 2025 17:11:32 GMT-0500 (Central Daylight Time),812197.2999999523,A,t,I,t,1417,1,1432.7999999523163,810764.5,8040,WL,C,1.0
7,1.5499999523162842,immed,58450.000047683716,Mon May 19 2025 17:11:32 GMT-0500 (Central Daylight Time),812314.3999999762,A,to,I,o,104,1,1549.8999999761581,810764.5,8040,WL,C,1.0
7,1.682999849319458,immed,58317.00015068054,Mon May 19 2025 17:11:32 GMT-0500 (Central Daylight Time),812447.5,A,tow,I,w,124,1,1683.0,810764.5,8040,WL,C,1.0
7,1.9830000400543213,immed,58016.99995994568,Mon May 19 2025 17:11:32 GMT-0500 (Central Daylight Time),812747.2999999523,A,towe,I,e,279,1,1982.7999999523163,810764.5,8040,WL,C,1.0
7,2.249000072479248,immed,57750.99992752075,Mon May 19 2025 17:11:32 GMT-0500 (Central Daylight Time),813013.8999999762,A,tower,I,r,258,1,2249.399999976158,810764.5,8040,WL,C,1.0
7,2.749000072479248,immed,57250.99992752075,Mon May 19 2025 17:11:32 GMT-0500 (Central Daylight Time),813513.6000000238,A,towerenter,I,enter,479,1,2749.100000023842,810764.5,8040,WL,C,1.0
7,3.2170000076293945,immed,56782.999992370605,Mon May 19 2025 17:11:32 GMT-0500 (Central Daylight Time),813981.2999999523,A,q,I,q,461,1,467.2999999523163,813514.0,8040,WL,C,2.0
7,3.4819998741149902,immed,56518.00012588501,Mon May 19 2025 17:11:32 GMT-0500 (Central Daylight Time),814246.7999999523,A,qu,I,u,248,1,732.7999999523163,813514.0,8040,WL,C,2.0
7,3.7660000324249268,immed,56233.99996757507,Mon May 19 2025 17:11:32 GMT-0500 (Central Daylight Time),814530.2000000477,A,que,I,e,272,1,1016.2000000476837,813514.0,8040,WL,C,2.0
7,3.9649999141693115,immed,56035.00008583069,Mon May 19 2025 17:11:32 GMT-0500 (Central Daylight Time),814730.1000000238,A,quee,I,e,179,1,1216.1000000238419,813514.0,8040,WL,C,2.0
7,4.332000017166138,immed,55667.99998283386,Mon May 19 2025 17:11:32 GMT-0500 (Central Daylight Time),815096.6000000238,A,queen,I,n,347,1,1582.6000000238419,813514.0,8040,WL,C,2.0
7,4.997999906539917,immed,55002.00009346008,Mon May 19 2025 17:11:32 GMT-0500 (Central Daylight Time),815763.1000000238,A,queenenter,I,enter,662,1,2249.100000023842,813514.0,8040,WL,C,2.0
7,6.0980000495910645,immed,53901.999950408936,Mon May 19 2025 17:11:32 GMT-0500 (Central Daylight Time),816862.7999999523,A,s,I,s,1092,1,1099.5,815763.2999999523,8040,WL,C,3.0
7,6.365000009536743,immed,53634.99999046326,Mon May 19 2025 17:11:32 GMT-0500 (Central Daylight Time),817129.2999999523,A,su,I,u,248,1,1366.0,815763.2999999523,8040,WL,C,3.0
7,6.615000009536743,immed,53384.99999046326,Mon May 19 2025 17:11:32 GMT-0500 (Central Daylight Time),817379.2999999523,A,sug,I,g,229,1,1616.0,815763.2999999523,8040,WL,C,3.0
7,6.763999938964844,immed,53236.000061035156,Mon May 19 2025 17:11:32 GMT-0500 (Central Daylight Time),817529.0,A,suga,I,a,131,1,1765.7000000476837,815763.2999999523,8040,WL,C,3.0
7,7.0980000495910645,immed,52901.999950408936,Mon May 19 2025 17:11:32 GMT-0500 (Central Daylight Time),817862.3999999762,A,sugar,I,r,324,1,2099.100000023842,815763.2999999523,8040,WL,C,3.0
7,7.96399998664856,immed,52036.00001335144,Mon May 19 2025 17:11:32 GMT-0500 (Central Daylight Time),818728.7999999523,A,sugarenter,I,enter,848,1,2965.5,815763.2999999523,8040,WL,C,3.0
7,8.330999851226807,immed,51669.00014877319,Mon May 19 2025 17:11:32 GMT-0500 (Central Daylight Time),819095.2999999523,A,l,I,l,358,1,366.09999990463257,818729.2000000477,8040,WL,C,4.0
7,8.480999946594238,immed,51519.00005340576,Mon May 19 2025 17:11:32 GMT-0500 (Central Daylight Time),819245.2999999523,A,le,I,e,143,1,516.0999999046326,818729.2000000477,8040,WL,C,4.0
7,8.79699993133545,immed,51203.00006866455,Mon May 19 2025 17:11:32 GMT-0500 (Central Daylight Time),819561.7000000477,A,let,I,t,296,1,832.5,818729.2000000477,8040,WL,C,4.0
7,8.94700002670288,immed,51052.99997329712,Mon May 19 2025 17:11:32 GMT-0500 (Central Daylight Time),819711.8999999762,A,lett,I,t,140,1,982.6999999284744,818729.2000000477,8040,WL,C,4.0
7,9.230000019073486,immed,50769.999980926514,Mon May 19 2025 17:11:32 GMT-0500 (Central Daylight Time),819995.1000000238,A,lette,I,e,269,1,1265.8999999761581,818729.2000000477,8040,WL,C,4.0
7,9.629999876022339,immed,50370.00012397766,Mon May 19 2025 17:11:32 GMT-0500 (Central Daylight Time),820394.8999999762,A,letter,I,r,379,1,1665.6999999284744,818729.2000000477,8040,WL,C,4.0
7,10.412999868392944,immed,49587.000131607056,Mon May 19 2025 17:11:32 GMT-0500 (Central Daylight Time),821177.8999999762,A,letterenter,I,enter,762,1,2448.6999999284744,818729.2000000477,8040,WL,C,4.0
7,10.94599986076355,immed,49054.00013923645,Mon May 19 2025 17:11:32 GMT-0500 (Central Daylight Time),821711.1000000238,A,b,I,b,516,1,532.7000000476837,821178.3999999762,8040,WL,C,5.0
7,11.095999956130981,immed,48904.00004386902,Mon May 19 2025 17:11:32 GMT-0500 (Central Daylight Time),821861.0,A,bo,I,o,135,1,682.6000000238419,821178.3999999762,8040,WL,C,5.0
7,11.496999979019165,immed,48503.000020980835,Mon May 19 2025 17:11:32 GMT-0500 (Central Daylight Time),822261.2999999523,A,boy,I,y,386,1,1082.8999999761581,821178.3999999762,8040,WL,C,5.0
7,12.062999963760376,immed,47937.000036239624,Mon May 19 2025 17:11:32 GMT-0500 (Central Daylight Time),822827.5,A,boyenter,I,enter,561,1,1649.1000000238419,821178.3999999762,8040,WL,C,5.0
7,12.44599986076355,immed,47554.00013923645,Mon May 19 2025 17:11:32 GMT-0500 (Central Daylight Time),823210.7999999523,A,b,I,b,363,1,383.09999990463257,822827.7000000477,8040,WL,C,6.0
7,12.562999963760376,immed,47437.000036239624,Mon May 19 2025 17:11:32 GMT-0500 (Central Daylight Time),823327.3999999762,A,bo,I,o,108,1,499.6999999284744,822827.7000000477,8040,WL,C,6.0
7,12.812999963760376,immed,47187.000036239624,Mon May 19 2025 17:11:32 GMT-0500 (Central Daylight Time),823577.2000000477,A,bod,I,d,239,1,749.5,822827.7000000477,8040,WL,C,6.0
7,13.128999948501587,immed,46871.00005149841,Mon May 19 2025 17:11:32 GMT-0500 (Central Daylight Time),823893.7000000477,A,body,I,y,300,1,1066.0,822827.7000000477,8040,WL,C,6.0
7,13.678999900817871,immed,46321.00009918213,Mon May 19 2025 17:11:32 GMT-0500 (Central Daylight Time),824443.3999999762,A,bodyenter,I,enter,544,1,1615.6999999284744,822827.7000000477,8040,WL,C,6.0
7,14.461999893188477,immed,45538.00010681152,Mon May 19 2025 17:11:32 GMT-0500 (Central Daylight Time),825226.2999999523,A,n,I,n,763,1,782.6999999284744,824443.6000000238,8040,WL,C,7.0
7,14.611999988555908,immed,45388.00001144409,Mon May 19 2025 17:11:32 GMT-0500 (Central Daylight Time),825376.2999999523,A,na,I,a,131,1,932.6999999284744,824443.6000000238,8040,WL,C,7.0
7,14.744999885559082,immed,45255.00011444092,Mon May 19 2025 17:11:32 GMT-0500 (Central Daylight Time),825509.7999999523,A,nai,I,i,117,1,1066.1999999284744,824443.6000000238,8040,WL,C,7.0
7,15.027999877929688,immed,44972.00012207031,Mon May 19 2025 17:11:32 GMT-0500 (Central Daylight Time),825792.7999999523,A,nail,I,l,263,1,1349.1999999284744,824443.6000000238,8040,WL,C,7.0
7,15.527999877929688,immed,44472.00012207031,Mon May 19 2025 17:11:32 GMT-0500 (Central Daylight Time),826293.1000000238,A,nailenter,I,enter,494,1,1849.5,824443.6000000238,8040,WL,C,7.0
7,15.994999885559082,immed,44005.00011444092,Mon May 19 2025 17:11:32 GMT-0500 (Central Daylight Time),826759.5,A,d,I,d,449,1,466.10000002384186,826293.3999999762,8040,WL,C,8.0
7,16.09500002861023,immed,43904.99997138977,Mon May 19 2025 17:11:32 GMT-0500 (Central Daylight Time),826859.3999999762,A,do,I,o,94,1,566.0,826293.3999999762,8040,WL,C,8.0
7,16.42799997329712,immed,43572.00002670288,Mon May 19 2025 17:11:32 GMT-0500 (Central Daylight Time),827192.7999999523,A,doc,I,c,314,1,899.3999999761581,826293.3999999762,8040,WL,C,8.0
7,16.744999885559082,immed,43255.00011444092,Mon May 19 2025 17:11:32 GMT-0500 (Central Daylight Time),827509.3999999762,A,doct,I,t,310,1,1216.0,826293.3999999762,8040,WL,C,8.0
7,16.861000061035156,immed,43138.999938964844,Mon May 19 2025 17:11:32 GMT-0500 (Central Daylight Time),827626.1000000238,A,docto,I,o,96,1,1332.7000000476837,826293.3999999762,8040,WL,C,8.0
7,17.060999870300293,immed,42939.00012969971,Mon May 19 2025 17:11:32 GMT-0500 (Central Daylight Time),827826.0,A,doctor,I,r,187,1,1532.6000000238419,826293.3999999762,8040,WL,C,8.0
7,17.72699999809265,immed,42273.00000190735,Mon May 19 2025 17:11:32 GMT-0500 (Central Daylight Time),828491.8999999762,A,doctorenter,I,enter,652,1,2198.5,826293.3999999762,8040,WL,C,8.0
7,18.293999910354614,immed,41706.000089645386,Mon May 19 2025 17:11:32 GMT-0500 (Central Daylight Time),829059.0,A,h,I,h,547,1,566.8999999761581,828492.1000000238,8040,WL,C,9.0
7,18.546000003814697,immed,41453.9999961853,Mon May 19 2025 17:11:32 GMT-0500 (Central Daylight Time),829310.6000000238,A,ho,I,o,108,1,818.5,828492.1000000238,8040,WL,C,9.0
7,18.694000005722046,immed,41305.999994277954,Mon May 19 2025 17:11:32 GMT-0500 (Central Daylight Time),829458.3999999762,A,hom,I,m,142,1,966.2999999523163,828492.1000000238,8040,WL,C,9.0
7,18.80999994277954,immed,41190.00005722046,Mon May 19 2025 17:11:32 GMT-0500 (Central Daylight Time),829575.1000000238,A,home,I,e,101,1,1083.0,828492.1000000238,8040,WL,C,9.0
7,19.444000005722046,immed,40555.999994277954,Mon May 19 2025 17:11:32 GMT-0500 (Central Daylight Time),830208.6000000238,A,homeenter,I,enter,614,1,1716.5,828492.1000000238,8040,WL,C,9.0
7,19.927000045776367,immed,40072.99995422363,Mon May 19 2025 17:11:32 GMT-0500 (Central Daylight Time),830691.5,A,c,I,c,469,1,482.5,830209.0,8040,WL,C,10.0
7,20.0939998626709,immed,39906.0001373291,Mon May 19 2025 17:11:32 GMT-0500 (Central Daylight Time),830858.2999999523,A,ca,I,a,146,1,649.2999999523163,830209.0,8040,WL,C,10.0
7,20.22699999809265,immed,39773.00000190735,Mon May 19 2025 17:11:32 GMT-0500 (Central Daylight Time),830991.6000000238,A,cam,I,m,115,1,782.6000000238419,830209.0,8040,WL,C,10.0
7,20.49399995803833,immed,39506.00004196167,Mon May 19 2025 17:11:32 GMT-0500 (Central Daylight Time),831258.3999999762,A,camp,I,p,246,1,1049.3999999761581,830209.0,8040,WL,C,10.0
7,21.425999879837036,immed,38574.000120162964,Mon May 19 2025 17:11:32 GMT-0500 (Central Daylight Time),832191.1000000238,A,campenter,I,enter,916,1,1982.1000000238419,830209.0,8040,WL,C,10.0
7,21.842999935150146,immed,38157.00006484985,Mon May 19 2025 17:11:32 GMT-0500 (Central Daylight Time),832607.8999999762,A,c,I,c,407,1,416.39999997615814,832191.5,8040,WL,C,11.0
7,21.960000038146973,immed,38039.99996185303,Mon May 19 2025 17:11:32 GMT-0500 (Central Daylight Time),832724.5,A,ca,I,a,110,1,533.0,832191.5,8040,WL,C,11.0
7,22.276000022888184,immed,37723.99997711182,Mon May 19 2025 17:11:32 GMT-0500 (Central Daylight Time),833040.8999999762,A,cat,I,t,298,1,849.3999999761581,832191.5,8040,WL,C,11.0
7,22.425999879837036,immed,37574.000120162964,Mon May 19 2025 17:11:32 GMT-0500 (Central Daylight Time),833191.0,A,catt,I,t,142,1,999.5,832191.5,8040,WL,C,11.0
7,22.658999919891357,immed,37341.00008010864,Mon May 19 2025 17:11:32 GMT-0500 (Central Daylight Time),833424.2000000477,A,cattl,I,l,224,1,1232.7000000476837,832191.5,8040,WL,C,11.0
7,22.80900001525879,immed,37190.99998474121,Mon May 19 2025 17:11:32 GMT-0500 (Central Daylight Time),833574.0,A,cattle,I,e,134,1,1382.5,832191.5,8040,WL,C,11.0
7,23.991999864578247,immed,36008.00013542175,Mon May 19 2025 17:11:32 GMT-0500 (Central Daylight Time),834756.8999999762,A,cattleenter,I,enter,1168,1,2565.399999976158,832191.5,8040,WL,C,11.0
7,25.075000047683716,immed,34924.999952316284,Mon May 19 2025 17:11:32 GMT-0500 (Central Daylight Time),835840.1000000238,A,c,I,c,1065,1,1082.8999999761581,834757.2000000477,8040,WL,C,12.0
7,25.20899987220764,immed,34791.00012779236,Mon May 19 2025 17:11:32 GMT-0500 (Central Daylight Time),835973.3999999762,A,co,I,o,126,1,1216.1999999284744,834757.2000000477,8040,WL,C,12.0
