block_c,block_dur,condition,countdown,datetime,endtime,list,multichar_response,project,response,response_time,session_number,start_end,starttime,subject_id,task,task_vers,trial
,,,,Tue Jul 29 2025 17:40:23 GMT-0500 (Central Daylight Time),,,,I,space,353,2,,,8040,WL,B,
prac,,0,,Tue Jul 29 2025 17:40:23 GMT-0500 (Central Daylight Time),,NA,b,I,b,8197,2,,,8040,WL,B,1.0
prac,,0,,Tue Jul 29 2025 17:40:23 GMT-0500 (Central Daylight Time),,NA,bo,I,o,195,2,,,8040,WL,B,1.0
prac,,0,,Tue Jul 29 2025 17:40:23 GMT-0500 (Central Daylight Time),,NA,boo,I,o,137,2,,,8040,WL,B,1.0
prac,,0,,Tue Jul 29 2025 17:40:23 GMT-0500 (Central Daylight Time),,NA,boos,I,s,167,2,,,8040,WL,B,1.0
prac,,0,,Tue Jul 29 2025 17:40:23 GMT-0500 (Central Daylight Time),,NA,boost,I,t,282,2,,,8040,WL,B,1.0
prac,,0,,Tue Jul 29 2025 17:40:23 GMT-0500 (Central Daylight Time),,NA,boostenter,I,enter,1056,2,,,8040,WL,B,1.0
1,1.566999912261963,learn,58433.00008773804,Tue Jul 29 2025 17:40:23 GMT-0500 (Central Daylight Time),136270.39999997616,A,s,I,s,1560,2,1567.2999999523163,134703.10000002384,8040,WL,B,1.0
1,1.866999864578247,learn,58133.00013542175,Tue Jul 29 2025 17:40:23 GMT-0500 (Central Daylight Time),136569.5,A,st,I,t,288,2,1866.3999999761581,134703.10000002384,8040,WL,B,1.0
1,2.1489999294281006,learn,57851.0000705719,Tue Jul 29 2025 17:40:23 GMT-0500 (Central Daylight Time),136852.19999992847,A,str,I,r,261,2,2149.0999999046326,134703.10000002384,8040,WL,B,1.0
1,2.565000057220459,learn,57434.99994277954,Tue Jul 29 2025 17:40:23 GMT-0500 (Central Daylight Time),137268.0,A,stre,I,e,400,2,2564.899999976158,134703.10000002384,8040,WL,B,1.0
1,2.700000047683716,learn,57299.999952316284,Tue Jul 29 2025 17:40:23 GMT-0500 (Central Daylight Time),137402.39999997616,A,stree,I,e,122,2,2699.2999999523163,134703.10000002384,8040,WL,B,1.0
1,3.181999921798706,learn,56818.000078201294,Tue Jul 29 2025 17:40:23 GMT-0500 (Central Daylight Time),137884.79999995232,A,street,I,t,467,2,3181.6999999284744,134703.10000002384,8040,WL,B,1.0
1,3.9140000343322754,learn,56085.999965667725,Tue Jul 29 2025 17:40:23 GMT-0500 (Central Daylight Time),138617.0,A,streetenter,I,enter,710,2,3913.899999976158,134703.10000002384,8040,WL,B,1.0
1,4.9649999141693115,learn,55035.00008583069,Tue Jul 29 2025 17:40:23 GMT-0500 (Central Daylight Time),139668.10000002384,A,g,I,g,1030,2,1050.7000000476837,138617.39999997616,8040,WL,B,2.0
1,5.38100004196167,learn,54618.99995803833,Tue Jul 29 2025 17:40:23 GMT-0500 (Central Daylight Time),140084.0,A,gr,I,r,401,2,1466.6000000238419,138617.39999997616,8040,WL,B,2.0
1,6.063999891281128,learn,53936.00010871887,Tue Jul 29 2025 17:40:23 GMT-0500 (Central Daylight Time),140767.29999995232,A,gra,I,a,666,2,2149.899999976158,138617.39999997616,8040,WL,B,2.0
1,6.38100004196167,learn,53618.99995803833,Tue Jul 29 2025 17:40:23 GMT-0500 (Central Daylight Time),141084.19999992847,A,gras,I,s,311,2,2466.7999999523163,138617.39999997616,8040,WL,B,2.0
1,6.580999851226807,learn,53419.00014877319,Tue Jul 29 2025 17:40:23 GMT-0500 (Central Daylight Time),141283.69999992847,A,grass,I,s,186,2,2666.2999999523163,138617.39999997616,8040,WL,B,2.0
1,7.431999921798706,learn,52568.000078201294,Tue Jul 29 2025 17:40:23 GMT-0500 (Central Daylight Time),142134.60000002384,A,grassenter,I,enter,834,2,3517.2000000476837,138617.39999997616,8040,WL,B,2.0
1,8.13100004196167,learn,51868.99995803833,Tue Jul 29 2025 17:40:23 GMT-0500 (Central Daylight Time),142833.39999997616,A,d,I,d,688,2,698.2999999523163,142135.10000002384,8040,WL,B,3.0
1,8.480999946594238,learn,51519.00005340576,Tue Jul 29 2025 17:40:23 GMT-0500 (Central Daylight Time),143183.39999997616,A,do,I,o,332,2,1048.2999999523163,142135.10000002384,8040,WL,B,3.0
1,8.629999876022339,learn,51370.00012397766,Tue Jul 29 2025 17:40:23 GMT-0500 (Central Daylight Time),143333.10000002384,A,doo,I,o,142,2,1198.0,142135.10000002384,8040,WL,B,3.0
1,9.148000001907349,learn,50851.99999809265,Tue Jul 29 2025 17:40:23 GMT-0500 (Central Daylight Time),143850.69999992847,A,door,I,r,493,2,1715.5999999046326,142135.10000002384,8040,WL,B,3.0
1,10.312000036239624,learn,49687.999963760376,Tue Jul 29 2025 17:40:23 GMT-0500 (Central Daylight Time),145015.10000002384,A,doorenter,I,enter,1147,2,2880.0,142135.10000002384,8040,WL,B,3.0
1,10.79699993133545,learn,49203.00006866455,Tue Jul 29 2025 17:40:23 GMT-0500 (Central Daylight Time),145499.5,A,a,I,a,468,2,484.2000000476837,145015.29999995232,8040,WL,B,4.0
1,11.062999963760376,learn,48937.000036239624,Tue Jul 29 2025 17:40:23 GMT-0500 (Central Daylight Time),145766.29999995232,A,ar,I,r,250,2,751.0,145015.29999995232,8040,WL,B,4.0
1,11.546000003814697,learn,48453.9999961853,Tue Jul 29 2025 17:40:23 GMT-0500 (Central Daylight Time),146248.89999997616,A,arm,I,m,471,2,1233.6000000238419,145015.29999995232,8040,WL,B,4.0
1,12.295000076293945,learn,47704.999923706055,Tue Jul 29 2025 17:40:23 GMT-0500 (Central Daylight Time),146997.89999997616,A,armenter,I,enter,741,2,1982.6000000238419,145015.29999995232,8040,WL,B,4.0
1,16.111999988555908,learn,43888.00001144409,Tue Jul 29 2025 17:40:23 GMT-0500 (Central Daylight Time),150814.29999995232,A,w,I,w,3800,2,3816.0,146998.29999995232,8040,WL,B,5.0
1,16.295000076293945,learn,43704.999923706055,Tue Jul 29 2025 17:40:23 GMT-0500 (Central Daylight Time),150998.10000002384,A,wi,I,i,167,2,3999.8000000715256,146998.29999995232,8040,WL,B,5.0
1,16.57699990272522,learn,43423.00009727478,Tue Jul 29 2025 17:40:23 GMT-0500 (Central Daylight Time),151279.79999995232,A,win,I,n,263,2,4281.5,146998.29999995232,8040,WL,B,5.0
1,16.878000020980835,learn,43121.999979019165,Tue Jul 29 2025 17:40:23 GMT-0500 (Central Daylight Time),151580.69999992847,A,wind,I,d,283,2,4582.399999976158,146998.29999995232,8040,WL,B,5.0
1,17.027999877929688,learn,42972.00012207031,Tue Jul 29 2025 17:40:23 GMT-0500 (Central Daylight Time),151730.39999997616,A,windo,I,o,128,2,4732.100000023842,146998.29999995232,8040,WL,B,5.0
1,17.76099991798401,learn,42239.00008201599,Tue Jul 29 2025 17:40:23 GMT-0500 (Central Daylight Time),152464.0,A,window,I,w,715,2,5465.700000047684,146998.29999995232,8040,WL,B,5.0
1,18.477999925613403,learn,41522.0000743866,Tue Jul 29 2025 17:40:23 GMT-0500 (Central Daylight Time),153180.89999997616,A,windowenter,I,enter,693,2,6182.600000023842,146998.29999995232,8040,WL,B,5.0
1,18.90999984741211,learn,41090.00015258789,Tue Jul 29 2025 17:40:23 GMT-0500 (Central Daylight Time),153612.89999997616,A,w,I,w,416,2,431.7999999523163,153181.10000002384,8040,WL,B,6.0
1,19.07699990272522,learn,40923.00009727478,Tue Jul 29 2025 17:40:23 GMT-0500 (Central Daylight Time),153780.10000002384,A,wi,I,i,154,2,599.0,153181.10000002384,8040,WL,B,6.0
1,19.3439998626709,learn,40656.0001373291,Tue Jul 29 2025 17:40:23 GMT-0500 (Central Daylight Time),154046.89999997616,A,wif,I,f,250,2,865.7999999523163,153181.10000002384,8040,WL,B,6.0
1,19.609999895095825,learn,40390.000104904175,Tue Jul 29 2025 17:40:23 GMT-0500 (Central Daylight Time),154313.19999992847,A,wife,I,e,245,2,1132.0999999046326,153181.10000002384,8040,WL,B,6.0
1,20.20899987220764,learn,39791.00012779236,Tue Jul 29 2025 17:40:23 GMT-0500 (Central Daylight Time),154912.29999995232,A,wifeenter,I,enter,588,2,1731.1999999284744,153181.10000002384,8040,WL,B,6.0
1,20.628999948501587,learn,39371.00005149841,Tue Jul 29 2025 17:40:23 GMT-0500 (Central Daylight Time),155331.79999995232,A,p,I,p,399,2,419.1999999284744,154912.60000002384,8040,WL,B,7.0
1,20.89299988746643,learn,39107.00011253357,Tue Jul 29 2025 17:40:23 GMT-0500 (Central Daylight Time),155595.69999992847,A,pu,I,u,248,2,683.0999999046326,154912.60000002384,8040,WL,B,7.0
1,21.494999885559082,learn,38505.00011444092,Tue Jul 29 2025 17:40:23 GMT-0500 (Central Daylight Time),156197.29999995232,A,pup,I,p,579,2,1284.6999999284744,154912.60000002384,8040,WL,B,7.0
1,21.927000045776367,learn,38072.99995422363,Tue Jul 29 2025 17:40:23 GMT-0500 (Central Daylight Time),156629.79999995232,A,pupi,I,i,424,2,1717.1999999284744,154912.60000002384,8040,WL,B,7.0
1,22.26099991798401,learn,37739.00008201599,Tue Jul 29 2025 17:40:23 GMT-0500 (Central Daylight Time),156964.10000002384,A,pupil,I,l,320,2,2051.5,154912.60000002384,8040,WL,B,7.0
1,24.05900001525879,learn,35940.99998474121,Tue Jul 29 2025 17:40:23 GMT-0500 (Central Daylight Time),158761.69999992847,A,pupilenter,I,enter,1775,2,3849.0999999046326,154912.60000002384,8040,WL,B,7.0
1,24.493000030517578,learn,35506.99996948242,Tue Jul 29 2025 17:40:23 GMT-0500 (Central Daylight Time),159195.39999997616,A,c,I,c,413,2,433.39999997615814,158762.0,8040,WL,B,8.0
1,24.657000064849854,learn,35342.99993515015,Tue Jul 29 2025 17:40:23 GMT-0500 (Central Daylight Time),159360.29999995232,A,ci,I,i,146,2,598.2999999523163,158762.0,8040,WL,B,8.0
1,24.927000045776367,learn,35072.99995422363,Tue Jul 29 2025 17:40:23 GMT-0500 (Central Daylight Time),159629.29999995232,A,cit,I,t,249,2,867.2999999523163,158762.0,8040,WL,B,8.0
1,25.05900001525879,learn,34940.99998474121,Tue Jul 29 2025 17:40:23 GMT-0500 (Central Daylight Time),159761.60000002384,A,city,I,y,121,2,999.6000000238419,158762.0,8040,WL,B,8.0
1,26.009000062942505,learn,33990.999937057495,Tue Jul 29 2025 17:40:23 GMT-0500 (Central Daylight Time),160711.69999992847,A,cityenter,I,enter,932,2,1949.6999999284744,158762.0,8040,WL,B,8.0
1,29.624000072479248,learn,30375.999927520752,Tue Jul 29 2025 17:40:23 GMT-0500 (Central Daylight Time),164326.89999997616,A,b,I,b,3599,2,3614.899999976158,160712.0,8040,WL,B,9.0
1,30.174999952316284,learn,29825.000047683716,Tue Jul 29 2025 17:40:23 GMT-0500 (Central Daylight Time),164877.5,A,,I,backspace,544,2,4165.5,160712.0,8040,WL,B,9.0
1,30.25499987602234,learn,29745.00012397766,Tue Jul 29 2025 17:40:23 GMT-0500 (Central Daylight Time),164958.10000002384,A,c,I,c,72,2,4246.100000023842,160712.0,8040,WL,B,9.0
1,30.438999891281128,learn,29561.000108718872,Tue Jul 29 2025 17:40:23 GMT-0500 (Central Daylight Time),165141.60000002384,A,ca,I,a,170,2,4429.600000023842,160712.0,8040,WL,B,9.0
1,30.889999866485596,learn,29110.000133514404,Tue Jul 29 2025 17:40:23 GMT-0500 (Central Daylight Time),165592.89999997616,A,cab,I,b,435,2,4880.899999976158,160712.0,8040,WL,B,9.0
1,31.10599994659424,learn,28894.00005340576,Tue Jul 29 2025 17:40:23 GMT-0500 (Central Daylight Time),165809.19999992847,A,cabi,I,i,205,2,5097.199999928474,160712.0,8040,WL,B,9.0
1,31.25600004196167,learn,28743.99995803833,Tue Jul 29 2025 17:40:23 GMT-0500 (Central Daylight Time),165959.0,A,cabin,I,n,133,2,5247.0,160712.0,8040,WL,B,9.0
1,32.289000034332275,learn,27710.999965667725,Tue Jul 29 2025 17:40:23 GMT-0500 (Central Daylight Time),166991.39999997616,A,cabinenter,I,enter,1025,2,6279.399999976158,160712.0,8040,WL,B,9.0
1,37.0550000667572,learn,22944.999933242798,Tue Jul 29 2025 17:40:23 GMT-0500 (Central Daylight Time),171757.89999997616,A,f,I,f,4760,2,4766.200000047684,166991.69999992847,8040,WL,B,10.0
1,37.22000002861023,learn,22779.99997138977,Tue Jul 29 2025 17:40:23 GMT-0500 (Central Daylight Time),171923.19999992847,A,fi,I,i,150,2,4931.5,166991.69999992847,8040,WL,B,10.0
1,37.43899989128113,learn,22561.000108718872,Tue Jul 29 2025 17:40:23 GMT-0500 (Central Daylight Time),172142.10000002384,A,fir,I,r,213,2,5150.400000095367,166991.69999992847,8040,WL,B,10.0
1,37.65499997138977,learn,22345.00002861023,Tue Jul 29 2025 17:40:23 GMT-0500 (Central Daylight Time),172357.39999997616,A,fire,I,e,208,2,5365.700000047684,166991.69999992847,8040,WL,B,10.0
1,38.670000076293945,learn,21329.999923706055,Tue Jul 29 2025 17:40:23 GMT-0500 (Central Daylight Time),173372.69999992847,A,fireenter,I,enter,1007,2,6381.0,166991.69999992847,8040,WL,B,10.0
1,45.33500003814697,learn,14664.999961853027,Tue Jul 29 2025 17:40:23 GMT-0500 (Central Daylight Time),180038.39999997616,A,c,I,c,6650,2,6665.5,173372.89999997616,8040,WL,B,11.0
1,45.51799988746643,learn,14482.00011253357,Tue Jul 29 2025 17:40:23 GMT-0500 (Central Daylight Time),180221.0,A,ci,I,i,168,2,6848.100000023842,173372.89999997616,8040,WL,B,11.0
1,45.818000078201294,learn,14181.999921798706,Tue Jul 29 2025 17:40:23 GMT-0500 (Central Daylight Time),180521.10000002384,A,cit,I,t,289,2,7148.200000047684,173372.89999997616,8040,WL,B,11.0
1,46.001999855041504,learn,13998.000144958496,Tue Jul 29 2025 17:40:23 GMT-0500 (Central Daylight Time),180704.79999995232,A,city,I,y,166,2,7331.899999976158,173372.89999997616,8040,WL,B,11.0
1,47.45099997520447,learn,12549.000024795532,Tue Jul 29 2025 17:40:23 GMT-0500 (Central Daylight Time),182153.89999997616,A,cityenter,I,enter,1428,2,8781.0,173372.89999997616,8040,WL,B,11.0
1,60.013999938964844,learn,-13.99993896484375,Tue Jul 29 2025 17:40:23 GMT-0500 (Central Daylight Time),194717.10000002384,A,None,I,None,12558,2,12562.900000095367,182154.19999992847,8040,WL,B,12.0
2,1.3010001182556152,learn,58698.999881744385,Tue Jul 29 2025 17:40:23 GMT-0500 (Central Daylight Time),264361.2999999523,A,c,I,c,1284,2,1300.7999999523163,263060.5,8040,WL,B,1.0
2,1.568000078201294,learn,58431.999921798706,Tue Jul 29 2025 17:40:23 GMT-0500 (Central Daylight Time),264628.60000002384,A,cl,I,l,246,2,1568.1000000238419,263060.5,8040,WL,B,1.0
2,1.752000093460083,learn,58247.99990653992,Tue Jul 29 2025 17:40:23 GMT-0500 (Central Daylight Time),264812.10000002384,A,clo,I,o,178,2,1751.6000000238419,263060.5,8040,WL,B,1.0
2,2.001000165939331,learn,57998.99983406067,Tue Jul 29 2025 17:40:23 GMT-0500 (Central Daylight Time),265061.10000002384,A,cloc,I,c,242,2,2000.6000000238419,263060.5,8040,WL,B,1.0
2,2.318000078201294,learn,57681.999921798706,Tue Jul 29 2025 17:40:23 GMT-0500 (Central Daylight Time),265378.89999997616,A,clock,I,k,305,2,2318.399999976158,263060.5,8040,WL,B,1.0
2,3.118000030517578,learn,56881.99996948242,Tue Jul 29 2025 17:40:23 GMT-0500 (Central Daylight Time),266178.10000002384,A,clockenter,I,enter,789,2,3117.600000023842,263060.5,8040,WL,B,1.0
2,3.9850001335144043,learn,56014.999866485596,Tue Jul 29 2025 17:40:23 GMT-0500 (Central Daylight Time),267045.39999997616,A,f,I,f,863,2,867.1000000238419,266178.2999999523,8040,WL,B,2.0
2,4.098999977111816,learn,55901.00002288818,Tue Jul 29 2025 17:40:23 GMT-0500 (Central Daylight Time),267159.89999997616,A,fi,I,i,97,2,981.6000000238419,266178.2999999523,8040,WL,B,2.0
2,4.633000135421753,learn,55366.99986457825,Tue Jul 29 2025 17:40:23 GMT-0500 (Central Daylight Time),267693.10000002384,A,fir,I,r,517,2,1514.8000000715256,266178.2999999523,8040,WL,B,2.0
2,4.817000150680542,learn,55182.99984931946,Tue Jul 29 2025 17:40:23 GMT-0500 (Central Daylight Time),267877.89999997616,A,fire,I,e,177,2,1699.6000000238419,266178.2999999523,8040,WL,B,2.0
2,5.481000185012817,learn,54518.99981498718,Tue Jul 29 2025 17:40:23 GMT-0500 (Central Daylight Time),268541.10000002384,A,fireenter,I,enter,648,2,2362.8000000715256,266178.2999999523,8040,WL,B,2.0
2,7.0329999923706055,learn,52967.000007629395,Tue Jul 29 2025 17:40:23 GMT-0500 (Central Daylight Time),270093.5,A,s,I,s,1549,2,1552.2000000476837,268541.2999999523,8040,WL,B,3.0
2,7.248000144958496,learn,52751.999855041504,Tue Jul 29 2025 17:40:23 GMT-0500 (Central Daylight Time),270308.89999997616,A,st,I,t,208,2,1767.6000000238419,268541.2999999523,8040,WL,B,3.0
2,7.432000160217285,learn,52567.999839782715,Tue Jul 29 2025 17:40:23 GMT-0500 (Central Daylight Time),270492.60000002384,A,stq,I,q,170,2,1951.3000000715256,268541.2999999523,8040,WL,B,3.0
2,8.098000049591064,learn,51901.999950408936,Tue Jul 29 2025 17:40:23 GMT-0500 (Central Daylight Time),271158.6999999285,A,st,I,backspace,647,2,2617.399999976158,268541.2999999523,8040,WL,B,3.0
2,8.282000064849854,learn,51717.99993515015,Tue Jul 29 2025 17:40:23 GMT-0500 (Central Daylight Time),271342.5,A,sta,I,a,161,2,2801.2000000476837,268541.2999999523,8040,WL,B,3.0
2,8.666000127792358,learn,51333.99987220764,Tue Jul 29 2025 17:40:23 GMT-0500 (Central Daylight Time),271726.1999999285,A,star,I,r,377,2,3184.899999976158,268541.2999999523,8040,WL,B,3.0
2,8.98200011253357,learn,51017.99988746643,Tue Jul 29 2025 17:40:23 GMT-0500 (Central Daylight Time),272042.5,A,starenter,I,enter,304,2,3501.2000000476837,268541.2999999523,8040,WL,B,3.0
2,9.581000089645386,learn,50418.999910354614,Tue Jul 29 2025 17:40:23 GMT-0500 (Central Daylight Time),272641.89999997616,A,p,I,p,580,2,599.2000000476837,272042.6999999285,8040,WL,B,4.0
2,9.799000024795532,learn,50200.99997520447,Tue Jul 29 2025 17:40:23 GMT-0500 (Central Daylight Time),272859.2999999523,A,pi,I,i,205,2,816.6000000238419,272042.6999999285,8040,WL,B,4.0
2,10.365000009536743,learn,49634.99999046326,Tue Jul 29 2025 17:40:23 GMT-0500 (Central Daylight Time),273425.1999999285,A,pip,I,p,548,2,1382.5,272042.6999999285,8040,WL,B,4.0
2,10.666000127792358,learn,49333.99987220764,Tue Jul 29 2025 17:40:23 GMT-0500 (Central Daylight Time),273726.6999999285,A,pipl,I,l,287,2,1684.0,272042.6999999285,8040,WL,B,4.0
2,11.448000192642212,learn,48551.99980735779,Tue Jul 29 2025 17:40:23 GMT-0500 (Central Daylight Time),274508.5,A,pip,I,backspace,768,2,2465.8000000715256,272042.6999999285,8040,WL,B,4.0
2,11.665000200271606,learn,48334.99979972839,Tue Jul 29 2025 17:40:23 GMT-0500 (Central Daylight Time),274725.1999999285,A,pipe,I,e,203,2,2682.5,272042.6999999285,8040,WL,B,4.0
2,12.29800009727478,learn,47701.99990272522,Tue Jul 29 2025 17:40:23 GMT-0500 (Central Daylight Time),275358.6999999285,A,pipeenter,I,enter,627,2,3316.0,272042.6999999285,8040,WL,B,4.0
2,12.94700002670288,learn,47052.99997329712,Tue Jul 29 2025 17:40:23 GMT-0500 (Central Daylight Time),276007.0,A,p,I,p,628,2,648.0,275359.0,8040,WL,B,5.0
2,13.180000066757202,learn,46819.9999332428,Tue Jul 29 2025 17:40:23 GMT-0500 (Central Daylight Time),276240.60000002384,A,pu,I,u,214,2,881.6000000238419,275359.0,8040,WL,B,5.0
2,13.830000162124634,learn,46169.999837875366,Tue Jul 29 2025 17:40:23 GMT-0500 (Central Daylight Time),276890.1999999285,A,pup,I,p,638,2,1531.1999999284744,275359.0,8040,WL,B,5.0
2,14.347000122070312,learn,45652.99987792969,Tue Jul 29 2025 17:40:23 GMT-0500 (Central Daylight Time),277407.7999999523,A,pupi,I,i,500,2,2048.7999999523163,275359.0,8040,WL,B,5.0
2,14.694000005722046,learn,45305.999994277954,Tue Jul 29 2025 17:40:23 GMT-0500 (Central Daylight Time),277755.0,A,pupil,I,l,342,2,2396.0,275359.0,8040,WL,B,5.0
2,15.129000186920166,learn,44870.999813079834,Tue Jul 29 2025 17:40:23 GMT-0500 (Central Daylight Time),278189.39999997616,A,pupilenter,I,enter,429,2,2830.399999976158,275359.0,8040,WL,B,5.0
2,15.629000186920166,learn,44370.999813079834,Tue Jul 29 2025 17:40:23 GMT-0500 (Central Daylight Time),278689.1999999285,A,w,I,w,488,2,499.5,278189.6999999285,8040,WL,B,6.0
2,15.728000164031982,learn,44271.99983596802,Tue Jul 29 2025 17:40:23 GMT-0500 (Central Daylight Time),278788.1999999285,A,wi,I,i,95,2,598.5,278189.6999999285,8040,WL,B,6.0
2,16.44600009918213,learn,43553.99990081787,Tue Jul 29 2025 17:40:23 GMT-0500 (Central Daylight Time),279506.0,A,wif,I,f,706,2,1316.3000000715256,278189.6999999285,8040,WL,B,6.0
2,16.72699999809265,learn,43273.00000190735,Tue Jul 29 2025 17:40:23 GMT-0500 (Central Daylight Time),279787.2999999523,A,wife,I,e,269,2,1597.6000000238419,278189.6999999285,8040,WL,B,6.0
2,18.695000171661377,learn,41304.99982833862,Tue Jul 29 2025 17:40:23 GMT-0500 (Central Daylight Time),281755.1999999285,A,wifeenter,I,enter,1956,2,3565.5,278189.6999999285,8040,WL,B,6.0
2,19.39900016784668,learn,40600.99983215332,Tue Jul 29 2025 17:40:23 GMT-0500 (Central Daylight Time),282459.2999999523,A,c,I,c,685,2,703.8999999761581,281755.39999997616,8040,WL,B,7.0
2,19.51200008392334,learn,40487.99991607666,Tue Jul 29 2025 17:40:23 GMT-0500 (Central Daylight Time),282572.39999997616,A,ci,I,i,99,2,817.0,281755.39999997616,8040,WL,B,7.0
2,19.77900004386902,learn,40220.99995613098,Tue Jul 29 2025 17:40:23 GMT-0500 (Central Daylight Time),282839.1999999285,A,cit,I,t,249,2,1083.7999999523163,281755.39999997616,8040,WL,B,7.0
2,19.943000078201294,learn,40056.999921798706,Tue Jul 29 2025 17:40:23 GMT-0500 (Central Daylight Time),283003.0,A,city,I,y,150,2,1247.6000000238419,281755.39999997616,8040,WL,B,7.0
2,20.694000005722046,learn,39305.999994277954,Tue Jul 29 2025 17:40:23 GMT-0500 (Central Daylight Time),283754.2999999523,A,cityenter,I,enter,733,2,1998.8999999761581,281755.39999997616,8040,WL,B,7.0
2,21.14400005340576,learn,38855.99994659424,Tue Jul 29 2025 17:40:23 GMT-0500 (Central Daylight Time),284204.5,A,d,I,d,445,2,450.0,283754.5,8040,WL,B,8.0
2,21.394999980926514,learn,38605.000019073486,Tue Jul 29 2025 17:40:23 GMT-0500 (Central Daylight Time),284455.1999999285,A,do,I,o,235,2,700.6999999284744,283754.5,8040,WL,B,8.0
2,21.561000108718872,learn,38438.99989128113,Tue Jul 29 2025 17:40:23 GMT-0500 (Central Daylight Time),284621.2999999523,A,doo,I,o,151,2,866.7999999523163,283754.5,8040,WL,B,8.0
2,21.880000114440918,learn,38119.99988555908,Tue Jul 29 2025 17:40:23 GMT-0500 (Central Daylight Time),284940.10000002384,A,door,I,r,297,2,1185.6000000238419,283754.5,8040,WL,B,8.0
2,23.360000133514404,learn,36639.999866485596,Tue Jul 29 2025 17:40:23 GMT-0500 (Central Daylight Time),286420.7999999523,A,doorenter,I,enter,1458,2,2666.2999999523163,283754.5,8040,WL,B,8.0
2,23.85800004005432,learn,36141.99995994568,Tue Jul 29 2025 17:40:23 GMT-0500 (Central Daylight Time),286918.5,A,g,I,g,480,2,497.5,286421.0,8040,WL,B,9.0
2,24.0770001411438,learn,35922.9998588562,Tue Jul 29 2025 17:40:23 GMT-0500 (Central Daylight Time),287137.0,A,gr,I,r,209,2,716.0,286421.0,8040,WL,B,9.0
2,24.259000062942505,learn,35740.999937057495,Tue Jul 29 2025 17:40:23 GMT-0500 (Central Daylight Time),287319.10000002384,A,gra,I,a,165,2,898.1000000238419,286421.0,8040,WL,B,9.0
2,24.575000047683716,learn,35424.999952316284,Tue Jul 29 2025 17:40:23 GMT-0500 (Central Daylight Time),287635.6999999285,A,gras,I,s,305,2,1214.6999999284744,286421.0,8040,WL,B,9.0
2,24.743000030517578,learn,35256.99996948242,Tue Jul 29 2025 17:40:23 GMT-0500 (Central Daylight Time),287804.0,A,grass,I,s,156,2,1383.0,286421.0,8040,WL,B,9.0
2,25.39300012588501,learn,34606.99987411499,Tue Jul 29 2025 17:40:23 GMT-0500 (Central Daylight Time),288453.60000002384,A,grassenter,I,enter,643,2,2032.6000000238419,286421.0,8040,WL,B,9.0
2,25.74400019645691,learn,34255.99980354309,Tue Jul 29 2025 17:40:23 GMT-0500 (Central Daylight Time),288804.7999999523,A,s,I,s,345,2,350.89999997615814,288453.89999997616,8040,WL,B,10.0
2,26.026000022888184,learn,33973.99997711182,Tue Jul 29 2025 17:40:23 GMT-0500 (Central Daylight Time),289086.6999999285,A,st,I,t,266,2,632.7999999523163,288453.89999997616,8040,WL,B,10.0
2,26.277000188827515,learn,33722.999811172485,Tue Jul 29 2025 17:40:23 GMT-0500 (Central Daylight Time),289337.10000002384,A,str,I,r,232,2,883.2000000476837,288453.89999997616,8040,WL,B,10.0
2,26.4760000705719,learn,33523.9999294281,Tue Jul 29 2025 17:40:23 GMT-0500 (Central Daylight Time),289536.2999999523,A,stre,I,e,191,2,1082.3999999761581,288453.89999997616,8040,WL,B,10.0
2,26.659000158309937,learn,33340.99984169006,Tue Jul 29 2025 17:40:23 GMT-0500 (Central Daylight Time),289719.60000002384,A,stree,I,e,167,2,1265.7000000476837,288453.89999997616,8040,WL,B,10.0
2,26.991000175476074,learn,33008.999824523926,Tue Jul 29 2025 17:40:23 GMT-0500 (Central Daylight Time),290051.6999999285,A,street,I,t,319,2,1597.7999999523163,288453.89999997616,8040,WL,B,10.0
2,27.407999992370605,learn,32592.000007629395,Tue Jul 29 2025 17:40:23 GMT-0500 (Central Daylight Time),290468.2999999523,A,streetenter,I,enter,413,2,2014.3999999761581,288453.89999997616,8040,WL,B,10.0
2,27.657999992370605,learn,32342.000007629395,Tue Jul 29 2025 17:40:23 GMT-0500 (Central Daylight Time),290718.89999997616,A,c,I,c,235,2,250.29999995231628,290468.60000002384,8040,WL,B,11.0
2,27.80900001525879,learn,32190.99998474121,Tue Jul 29 2025 17:40:23 GMT-0500 (Central Daylight Time),290869.2999999523,A,ca,I,a,134,2,400.6999999284744,290468.60000002384,8040,WL,B,11.0
2,28.127000093460083,learn,31872.999906539917,Tue Jul 29 2025 17:40:23 GMT-0500 (Central Daylight Time),291187.10000002384,A,cab,I,b,306,2,718.5,290468.60000002384,8040,WL,B,11.0
2,28.343000173568726,learn,31656.999826431274,Tue Jul 29 2025 17:40:23 GMT-0500 (Central Daylight Time),291403.89999997616,A,cabi,I,i,212,2,935.2999999523163,290468.60000002384,8040,WL,B,11.0
2,28.52500009536743,learn,31474.99990463257,Tue Jul 29 2025 17:40:23 GMT-0500 (Central Daylight Time),291586.0,A,cabin,I,n,161,2,1117.3999999761581,290468.60000002384,8040,WL,B,11.0
2,30.37600016593933,learn,29623.99983406067,Tue Jul 29 2025 17:40:23 GMT-0500 (Central Daylight Time),293436.10000002384,A,cabinenter,I,enter,1836,2,2967.5,290468.60000002384,8040,WL,B,11.0
2,30.79200005531311,learn,29207.99994468689,Tue Jul 29 2025 17:40:23 GMT-0500 (Central Daylight Time),293852.1999999285,A,f,I,f,396,2,415.7999999523163,293436.39999997616,8040,WL,B,12.0
2,30.925000190734863,learn,29074.999809265137,Tue Jul 29 2025 17:40:23 GMT-0500 (Central Daylight Time),293985.0,A,fi,I,i,113,2,548.6000000238419,293436.39999997616,8040,WL,B,12.0
2,31.142000198364258,learn,28857.999801635742,Tue Jul 29 2025 17:40:23 GMT-0500 (Central Daylight Time),294202.10000002384,A,fir,I,r,197,2,765.7000000476837,293436.39999997616,8040,WL,B,12.0
2,31.37600016593933,learn,28623.99983406067,Tue Jul 29 2025 17:40:23 GMT-0500 (Central Daylight Time),294436.2999999523,A,fire,I,e,228,2,999.8999999761581,293436.39999997616,8040,WL,B,12.0
2,32.241000175476074,learn,27758.999824523926,Tue Jul 29 2025 17:40:23 GMT-0500 (Central Daylight Time),295301.60000002384,A,fireenter,I,enter,850,2,1865.2000000476837,293436.39999997616,8040,WL,B,12.0
2,37.12100005149841,learn,22878.999948501587,Tue Jul 29 2025 17:40:23 GMT-0500 (Central Daylight Time),300182.1999999285,A,w,I,w,4873,2,4880.399999976158,295301.7999999523,8040,WL,B,13.0
2,37.241000175476074,learn,22758.999824523926,Tue Jul 29 2025 17:40:23 GMT-0500 (Central Daylight Time),300301.60000002384,A,wi,I,i,113,2,4999.800000071526,295301.7999999523,8040,WL,B,13.0
2,37.42400002479553,learn,22575.999975204468,Tue Jul 29 2025 17:40:23 GMT-0500 (Central Daylight Time),300484.39999997616,A,win,I,n,161,2,5182.600000023842,295301.7999999523,8040,WL,B,13.0
2,37.70700001716614,learn,22292.999982833862,Tue Jul 29 2025 17:40:23 GMT-0500 (Central Daylight Time),300767.89999997616,A,wind,I,d,267,2,5466.100000023842,295301.7999999523,8040,WL,B,13.0
2,37.87400007247925,learn,22125.999927520752,Tue Jul 29 2025 17:40:23 GMT-0500 (Central Daylight Time),300934.5,A,windo,I,o,163,2,5632.700000047684,295301.7999999523,8040,WL,B,13.0
2,38.039000034332275,learn,21960.999965667725,Tue Jul 29 2025 17:40:23 GMT-0500 (Central Daylight Time),301099.89999997616,A,window,I,w,153,2,5798.100000023842,295301.7999999523,8040,WL,B,13.0
2,38.92200016975403,learn,21077.99983024597,Tue Jul 29 2025 17:40:23 GMT-0500 (Central Daylight Time),301982.2999999523,A,windowenter,I,enter,874,2,6680.5,295301.7999999523,8040,WL,B,13.0
2,48.61800003051758,learn,11381.999969482422,Tue Jul 29 2025 17:40:23 GMT-0500 (Central Daylight Time),311678.6999999285,A,s,I,s,9689,2,9696.099999904633,301982.60000002384,8040,WL,B,14.0
2,48.83400011062622,learn,11165.99988937378,Tue Jul 29 2025 17:40:23 GMT-0500 (Central Daylight Time),311894.2999999523,A,sk,I,k,208,2,9911.699999928474,301982.60000002384,8040,WL,B,14.0
2,49.051000118255615,learn,10948.999881744385,Tue Jul 29 2025 17:40:23 GMT-0500 (Central Daylight Time),312111.5,A,ski,I,i,210,2,10128.899999976158,301982.60000002384,8040,WL,B,14.0
2,49.23399996757507,learn,10766.000032424927,Tue Jul 29 2025 17:40:23 GMT-0500 (Central Daylight Time),312294.60000002384,A,skin,I,n,176,2,10312.0,301982.60000002384,8040,WL,B,14.0
2,49.818000078201294,learn,10181.999921798706,Tue Jul 29 2025 17:40:23 GMT-0500 (Central Daylight Time),312878.2999999523,A,skinenter,I,enter,569,2,10895.699999928474,301982.60000002384,8040,WL,B,14.0
2,53.3510000705719,learn,6648.999929428101,Tue Jul 29 2025 17:40:23 GMT-0500 (Central Daylight Time),316411.39999997616,A,a,I,a,3521,2,3532.7999999523163,312878.60000002384,8040,WL,B,15.0
2,53.58400011062622,learn,6415.999889373779,Tue Jul 29 2025 17:40:23 GMT-0500 (Central Daylight Time),316644.6999999285,A,ar,I,r,220,2,3766.0999999046326,312878.60000002384,8040,WL,B,15.0
2,53.85000014305115,learn,6149.9998569488525,Tue Jul 29 2025 17:40:23 GMT-0500 (Central Daylight Time),316910.5,A,arm,I,m,249,2,4031.899999976158,312878.60000002384,8040,WL,B,15.0
2,54.10000014305115,learn,5899.9998569488525,Tue Jul 29 2025 17:40:23 GMT-0500 (Central Daylight Time),317160.39999997616,A,armenter,I,enter,240,2,4281.799999952316,312878.60000002384,8040,WL,B,15.0
3,1.0160000324249268,learn,58983.99996757507,Tue Jul 29 2025 17:40:23 GMT-0500 (Central Daylight Time),386105.1999999285,A,l,I,l,1006,2,1015.7999999523163,385089.39999997616,8040,WL,B,1.0
3,1.1489999294281006,learn,58851.0000705719,Tue Jul 29 2025 17:40:23 GMT-0500 (Central Daylight Time),386238.60000002384,A,la,I,a,125,2,1149.2000000476837,385089.39999997616,8040,WL,B,1.0
3,1.4159998893737793,learn,58584.00011062622,Tue Jul 29 2025 17:40:23 GMT-0500 (Central Daylight Time),386505.1999999285,A,lak,I,k,255,2,1415.7999999523163,385089.39999997616,8040,WL,B,1.0
3,1.8499999046325684,learn,58150.00009536743,Tue Jul 29 2025 17:40:23 GMT-0500 (Central Daylight Time),386939.60000002384,A,lake,I,e,411,2,1850.2000000476837,385089.39999997616,8040,WL,B,1.0
3,2.2160000801086426,learn,57783.99991989136,Tue Jul 29 2025 17:40:23 GMT-0500 (Central Daylight Time),387304.6999999285,A,lakeenter,I,enter,354,2,2215.2999999523163,385089.39999997616,8040,WL,B,1.0
3,2.6499998569488525,learn,57350.00014305115,Tue Jul 29 2025 17:40:23 GMT-0500 (Central Daylight Time),387738.6999999285,A,c,I,c,422,2,433.6999999284744,387305.0,8040,WL,B,2.0
3,2.7660000324249268,learn,57233.99996757507,Tue Jul 29 2025 17:40:23 GMT-0500 (Central Daylight Time),387854.89999997616,A,cl,I,l,100,2,549.8999999761581,387305.0,8040,WL,B,2.0
3,3.000999927520752,learn,56999.00007247925,Tue Jul 29 2025 17:40:23 GMT-0500 (Central Daylight Time),388090.10000002384,A,clo,I,o,213,2,785.1000000238419,387305.0,8040,WL,B,2.0
3,3.3999998569488525,learn,56600.00014305115,Tue Jul 29 2025 17:40:23 GMT-0500 (Central Daylight Time),388488.6999999285,A,cloc,I,c,377,2,1183.6999999284744,387305.0,8040,WL,B,2.0
3,3.6499998569488525,learn,56350.00014305115,Tue Jul 29 2025 17:40:23 GMT-0500 (Central Daylight Time),388739.10000002384,A,clock,I,k,229,2,1434.1000000238419,387305.0,8040,WL,B,2.0
3,4.249000072479248,learn,55750.99992752075,Tue Jul 29 2025 17:40:23 GMT-0500 (Central Daylight Time),389338.10000002384,A,clockenter,I,enter,586,2,2033.1000000238419,387305.0,8040,WL,B,2.0
3,4.764999866485596,learn,55235.000133514404,Tue Jul 29 2025 17:40:23 GMT-0500 (Central Daylight Time),389854.39999997616,A,f,I,f,509,2,516.0,389338.39999997616,8040,WL,B,3.0
3,4.898999929428101,learn,55101.0000705719,Tue Jul 29 2025 17:40:23 GMT-0500 (Central Daylight Time),389988.5,A,fi,I,i,110,2,650.1000000238419,389338.39999997616,8040,WL,B,3.0
3,5.098999977111816,learn,54901.00002288818,Tue Jul 29 2025 17:40:23 GMT-0500 (Central Daylight Time),390187.6999999285,A,fir,I,r,184,2,849.2999999523163,389338.39999997616,8040,WL,B,3.0
3,5.299000024795532,learn,54700.99997520447,Tue Jul 29 2025 17:40:23 GMT-0500 (Central Daylight Time),390388.60000002384,A,fire,I,e,187,2,1050.2000000476837,389338.39999997616,8040,WL,B,3.0
3,5.697999954223633,learn,54302.00004577637,Tue Jul 29 2025 17:40:23 GMT-0500 (Central Daylight Time),390787.2999999523,A,fireenter,I,enter,392,2,1448.8999999761581,389338.39999997616,8040,WL,B,3.0
3,6.132999897003174,learn,53867.000102996826,Tue Jul 29 2025 17:40:23 GMT-0500 (Central Daylight Time),391221.6999999285,A,s,I,s,429,2,434.1999999284744,390787.5,8040,WL,B,4.0
3,6.5,learn,53500.0,Tue Jul 29 2025 17:40:23 GMT-0500 (Central Daylight Time),391589.5,A,sk,I,k,360,2,802.0,390787.5,8040,WL,B,4.0
3,6.73199987411499,learn,53268.00012588501,Tue Jul 29 2025 17:40:23 GMT-0500 (Central Daylight Time),391820.89999997616,A,ski,I,i,216,2,1033.3999999761581,390787.5,8040,WL,B,4.0
3,6.898000001907349,learn,53101.99999809265,Tue Jul 29 2025 17:40:23 GMT-0500 (Central Daylight Time),391987.5,A,skin,I,n,153,2,1200.0,390787.5,8040,WL,B,4.0
3,7.930999994277954,learn,52069.000005722046,Tue Jul 29 2025 17:40:23 GMT-0500 (Central Daylight Time),393020.39999997616,A,skinenter,I,enter,1010,2,2232.899999976158,390787.5,8040,WL,B,4.0
3,8.963000059127808,learn,51036.99994087219,Tue Jul 29 2025 17:40:23 GMT-0500 (Central Daylight Time),394052.39999997616,A,p,I,p,1018,2,1031.7999999523163,393020.60000002384,8040,WL,B,5.0
3,9.19700002670288,learn,50802.99997329712,Tue Jul 29 2025 17:40:23 GMT-0500 (Central Daylight Time),394285.7999999523,A,pu,I,u,216,2,1265.1999999284744,393020.60000002384,8040,WL,B,5.0
3,10.13100004196167,learn,49868.99995803833,Tue Jul 29 2025 17:40:23 GMT-0500 (Central Daylight Time),395219.89999997616,A,pup,I,p,912,2,2199.2999999523163,393020.60000002384,8040,WL,B,5.0
3,10.480000019073486,learn,49519.999980926514,Tue Jul 29 2025 17:40:23 GMT-0500 (Central Daylight Time),395569.1999999285,A,pupi,I,i,337,2,2548.5999999046326,393020.60000002384,8040,WL,B,5.0
3,10.77999997138977,learn,49220.00002861023,Tue Jul 29 2025 17:40:23 GMT-0500 (Central Daylight Time),395868.89999997616,A,pupil,I,l,284,2,2848.2999999523163,393020.60000002384,8040,WL,B,5.0
3,11.379999876022339,learn,48620.00012397766,Tue Jul 29 2025 17:40:23 GMT-0500 (Central Daylight Time),396469.5,A,pupilenter,I,enter,593,2,3448.899999976158,393020.60000002384,8040,WL,B,5.0
3,11.963000059127808,learn,48036.99994087219,Tue Jul 29 2025 17:40:23 GMT-0500 (Central Daylight Time),397052.6999999285,A,c,I,c,578,2,582.8999999761581,396469.7999999523,8040,WL,B,6.0
3,12.079999923706055,learn,47920.000076293945,Tue Jul 29 2025 17:40:23 GMT-0500 (Central Daylight Time),397169.10000002384,A,ci,I,i,106,2,699.3000000715256,396469.7999999523,8040,WL,B,6.0
3,12.713000059127808,learn,47286.99994087219,Tue Jul 29 2025 17:40:23 GMT-0500 (Central Daylight Time),397802.39999997616,A,cit,I,t,621,2,1332.6000000238419,396469.7999999523,8040,WL,B,6.0
3,12.895999908447266,learn,47104.000091552734,Tue Jul 29 2025 17:40:23 GMT-0500 (Central Daylight Time),397984.7999999523,A,city,I,y,172,2,1515.0,396469.7999999523,8040,WL,B,6.0
3,13.894999980926514,learn,46105.000019073486,Tue Jul 29 2025 17:40:23 GMT-0500 (Central Daylight Time),398984.10000002384,A,cityenter,I,enter,982,2,2514.3000000715256,396469.7999999523,8040,WL,B,6.0
3,14.463000059127808,learn,45536.99994087219,Tue Jul 29 2025 17:40:23 GMT-0500 (Central Daylight Time),399552.0,A,c,I,c,552,2,567.7000000476837,398984.2999999523,8040,WL,B,7.0
3,14.661999940872192,learn,45338.00005912781,Tue Jul 29 2025 17:40:23 GMT-0500 (Central Daylight Time),399751.5,A,ca,I,a,191,2,767.2000000476837,398984.2999999523,8040,WL,B,7.0
3,15.078999996185303,learn,44921.0000038147,Tue Jul 29 2025 17:40:23 GMT-0500 (Central Daylight Time),400168.10000002384,A,cab,I,b,397,2,1183.8000000715256,398984.2999999523,8040,WL,B,7.0
3,15.26200008392334,learn,44737.99991607666,Tue Jul 29 2025 17:40:23 GMT-0500 (Central Daylight Time),400351.10000002384,A,cabi,I,i,165,2,1366.8000000715256,398984.2999999523,8040,WL,B,7.0
3,15.378999948501587,learn,44621.00005149841,Tue Jul 29 2025 17:40:23 GMT-0500 (Central Daylight Time),400468.1999999285,A,cabin,I,n,101,2,1483.8999999761581,398984.2999999523,8040,WL,B,7.0
3,17.57699990272522,learn,42423.00009727478,Tue Jul 29 2025 17:40:23 GMT-0500 (Central Daylight Time),402666.60000002384,A,cabinenter,I,enter,2179,2,3682.3000000715256,398984.2999999523,8040,WL,B,7.0
3,19.277999877929688,learn,40722.00012207031,Tue Jul 29 2025 17:40:23 GMT-0500 (Central Daylight Time),404366.89999997616,A,d,I,d,1695,2,1700.1000000238419,402666.7999999523,8040,WL,B,8.0
3,19.478999853134155,learn,40521.000146865845,Tue Jul 29 2025 17:40:23 GMT-0500 (Central Daylight Time),404568.10000002384,A,do,I,o,193,2,1901.3000000715256,402666.7999999523,8040,WL,B,8.0
3,19.66100001335144,learn,40338.99998664856,Tue Jul 29 2025 17:40:23 GMT-0500 (Central Daylight Time),404750.0,A,doo,I,o,166,2,2083.2000000476837,402666.7999999523,8040,WL,B,8.0
3,19.97699999809265,learn,40023.00000190735,Tue Jul 29 2025 17:40:23 GMT-0500 (Central Daylight Time),405066.1999999285,A,door,I,r,302,2,2399.399999976158,402666.7999999523,8040,WL,B,8.0
3,20.32800006866455,learn,39671.99993133545,Tue Jul 29 2025 17:40:23 GMT-0500 (Central Daylight Time),405416.60000002384,A,doorenter,I,enter,333,2,2749.8000000715256,402666.7999999523,8040,WL,B,8.0
3,20.878999948501587,learn,39121.00005149841,Tue Jul 29 2025 17:40:23 GMT-0500 (Central Daylight Time),405967.6999999285,A,w,I,w,545,2,550.6999999284744,405417.0,8040,WL,B,9.0
3,21.01200008392334,learn,38987.99991607666,Tue Jul 29 2025 17:40:23 GMT-0500 (Central Daylight Time),406100.89999997616,A,wi,I,i,129,2,683.8999999761581,405417.0,8040,WL,B,9.0
3,21.158999919891357,learn,38841.00008010864,Tue Jul 29 2025 17:40:23 GMT-0500 (Central Daylight Time),406248.2999999523,A,win,I,n,129,2,831.2999999523163,405417.0,8040,WL,B,9.0
3,21.424999952316284,learn,38575.000047683716,Tue Jul 29 2025 17:40:23 GMT-0500 (Central Daylight Time),406514.10000002384,A,wind,I,d,253,2,1097.1000000238419,405417.0,8040,WL,B,9.0
3,21.658999919891357,learn,38341.00008010864,Tue Jul 29 2025 17:40:23 GMT-0500 (Central Daylight Time),406747.60000002384,A,windo,I,o,229,2,1330.6000000238419,405417.0,8040,WL,B,9.0
3,21.810999870300293,learn,38189.00012969971,Tue Jul 29 2025 17:40:23 GMT-0500 (Central Daylight Time),406900.39999997616,A,window,I,w,133,2,1483.3999999761581,405417.0,8040,WL,B,9.0
3,22.70899987220764,learn,37291.00012779236,Tue Jul 29 2025 17:40:23 GMT-0500 (Central Daylight Time),407797.7999999523,A,windowenter,I,enter,882,2,2380.7999999523163,405417.0,8040,WL,B,9.0
3,23.67799997329712,learn,36322.00002670288,Tue Jul 29 2025 17:40:23 GMT-0500 (Central Daylight Time),408767.2999999523,A,w,I,w,964,2,969.1000000238419,407798.1999999285,8040,WL,B,10.0
3,23.792999982833862,learn,36207.00001716614,Tue Jul 29 2025 17:40:23 GMT-0500 (Central Daylight Time),408882.39999997616,A,wi,I,i,102,2,1084.2000000476837,407798.1999999285,8040,WL,B,10.0
3,24.043999910354614,learn,35956.000089645386,Tue Jul 29 2025 17:40:23 GMT-0500 (Central Daylight Time),409133.39999997616,A,wif,I,f,245,2,1335.2000000476837,407798.1999999285,8040,WL,B,10.0
3,24.259000062942505,learn,35740.999937057495,Tue Jul 29 2025 17:40:23 GMT-0500 (Central Daylight Time),409348.10000002384,A,wife,I,e,201,2,1549.9000000953674,407798.1999999285,8040,WL,B,10.0
3,24.812000036239624,learn,35187.999963760376,Tue Jul 29 2025 17:40:23 GMT-0500 (Central Daylight Time),409900.6999999285,A,wifeenter,I,enter,540,2,2102.5,407798.1999999285,8040,WL,B,10.0
3,25.241999864578247,learn,34758.00013542175,Tue Jul 29 2025 17:40:23 GMT-0500 (Central Daylight Time),410331.6999999285,A,a,I,a,417,2,430.59999990463257,409901.10000002384,8040,WL,B,11.0
3,25.526000022888184,learn,34473.99997711182,Tue Jul 29 2025 17:40:23 GMT-0500 (Central Daylight Time),410614.6999999285,A,ar,I,r,266,2,713.5999999046326,409901.10000002384,8040,WL,B,11.0
3,25.9760000705719,learn,34023.9999294281,Tue Jul 29 2025 17:40:23 GMT-0500 (Central Daylight Time),411065.1999999285,A,arm,I,m,441,2,1164.0999999046326,409901.10000002384,8040,WL,B,11.0
3,28.006999969482422,learn,31993.000030517578,Tue Jul 29 2025 17:40:23 GMT-0500 (Central Daylight Time),413096.39999997616,A,armenter,I,enter,2014,2,3195.2999999523163,409901.10000002384,8040,WL,B,11.0
3,31.02300000190735,learn,28976.99999809265,Tue Jul 29 2025 17:40:23 GMT-0500 (Central Daylight Time),416112.10000002384,A,s,I,s,3008,2,3015.5,413096.60000002384,8040,WL,B,12.0
3,31.2739999294281,learn,28726.0000705719,Tue Jul 29 2025 17:40:23 GMT-0500 (Central Daylight Time),416363.0,A,st,I,t,231,2,3266.399999976158,413096.60000002384,8040,WL,B,12.0
3,31.52300000190735,learn,28476.99999809265,Tue Jul 29 2025 17:40:23 GMT-0500 (Central Daylight Time),416612.5,A,str,I,r,236,2,3515.899999976158,413096.60000002384,8040,WL,B,12.0
3,31.740000009536743,learn,28259.999990463257,Tue Jul 29 2025 17:40:23 GMT-0500 (Central Daylight Time),416829.5,A,stre,I,e,202,2,3732.899999976158,413096.60000002384,8040,WL,B,12.0
3,32.19000005722046,learn,27809.99994277954,Tue Jul 29 2025 17:40:23 GMT-0500 (Central Daylight Time),417279.2999999523,A,stree,I,e,432,2,4182.699999928474,413096.60000002384,8040,WL,B,12.0
3,32.53999996185303,learn,27460.000038146973,Tue Jul 29 2025 17:40:23 GMT-0500 (Central Daylight Time),417629.39999997616,A,street,I,t,333,2,4532.799999952316,413096.60000002384,8040,WL,B,12.0
3,33.0550000667572,learn,26944.999933242798,Tue Jul 29 2025 17:40:23 GMT-0500 (Central Daylight Time),418144.0,A,streetenter,I,enter,497,2,5047.399999976158,413096.60000002384,8040,WL,B,12.0
3,33.57299995422363,learn,26427.000045776367,Tue Jul 29 2025 17:40:23 GMT-0500 (Central Daylight Time),418662.10000002384,A,g,I,g,513,2,517.8000000715256,418144.2999999523,8040,WL,B,13.0
3,33.83999991416931,learn,26160.00008583069,Tue Jul 29 2025 17:40:23 GMT-0500 (Central Daylight Time),418929.1999999285,A,gr,I,r,256,2,784.8999999761581,418144.2999999523,8040,WL,B,13.0
3,34.055999994277954,learn,25944.000005722046,Tue Jul 29 2025 17:40:23 GMT-0500 (Central Daylight Time),419145.6999999285,A,gra,I,a,198,2,1001.3999999761581,418144.2999999523,8040,WL,B,13.0
3,34.33899998664856,learn,25661.00001335144,Tue Jul 29 2025 17:40:23 GMT-0500 (Central Daylight Time),419428.2999999523,A,gras,I,s,263,2,1284.0,418144.2999999523,8040,WL,B,13.0
3,34.50699996948242,learn,25493.000030517578,Tue Jul 29 2025 17:40:23 GMT-0500 (Central Daylight Time),419596.6999999285,A,grass,I,s,163,2,1452.3999999761581,418144.2999999523,8040,WL,B,13.0
3,35.539000034332275,learn,24460.999965667725,Tue Jul 29 2025 17:40:23 GMT-0500 (Central Daylight Time),420628.5,A,grassenter,I,enter,1026,2,2484.2000000476837,418144.2999999523,8040,WL,B,13.0
3,35.888999938964844,learn,24111.000061035156,Tue Jul 29 2025 17:40:23 GMT-0500 (Central Daylight Time),420978.5,A,s,I,s,331,2,349.7000000476837,420628.7999999523,8040,WL,B,14.0
3,36.12299990653992,learn,23877.000093460083,Tue Jul 29 2025 17:40:23 GMT-0500 (Central Daylight Time),421212.5,A,st,I,t,210,2,583.7000000476837,420628.7999999523,8040,WL,B,14.0
3,36.287999868392944,learn,23712.000131607056,Tue Jul 29 2025 17:40:23 GMT-0500 (Central Daylight Time),421377.2999999523,A,sta,I,a,145,2,748.5,420628.7999999523,8040,WL,B,14.0
3,36.47199988365173,learn,23528.000116348267,Tue Jul 29 2025 17:40:23 GMT-0500 (Central Daylight Time),421561.10000002384,A,star,I,r,166,2,932.3000000715256,420628.7999999523,8040,WL,B,14.0
3,36.770999908447266,learn,23229.000091552734,Tue Jul 29 2025 17:40:23 GMT-0500 (Central Daylight Time),421860.89999997616,A,starenter,I,enter,295,2,1232.1000000238419,420628.7999999523,8040,WL,B,14.0
3,41.5699999332428,learn,18430.000066757202,Tue Jul 29 2025 17:40:23 GMT-0500 (Central Daylight Time),426659.39999997616,A,f,I,f,4787,2,4798.299999952316,421861.10000002384,8040,WL,B,15.0
3,41.687000036239624,learn,18312.999963760376,Tue Jul 29 2025 17:40:23 GMT-0500 (Central Daylight Time),426776.0,A,fi,I,i,108,2,4914.899999976158,421861.10000002384,8040,WL,B,15.0
3,41.835999965667725,learn,18164.000034332275,Tue Jul 29 2025 17:40:23 GMT-0500 (Central Daylight Time),426925.2999999523,A,fir,I,r,134,2,5064.199999928474,421861.10000002384,8040,WL,B,15.0
3,42.003000020980835,learn,17996.999979019165,Tue Jul 29 2025 17:40:23 GMT-0500 (Central Daylight Time),427092.10000002384,A,fire,I,e,153,2,5231.0,421861.10000002384,8040,WL,B,15.0
3,42.40599989891052,learn,17594.000101089478,Tue Jul 29 2025 17:40:23 GMT-0500 (Central Daylight Time),427495.7999999523,A,fireenter,I,enter,398,2,5634.699999928474,421861.10000002384,8040,WL,B,15.0
4,0.9839999675750732,learn,59016.00003242493,Tue Jul 29 2025 17:40:23 GMT-0500 (Central Daylight Time),497955.0,A,c,I,c,963,2,984.2000000476837,496970.7999999523,8040,WL,B,1.0
4,1.2339999675750732,learn,58766.00003242493,Tue Jul 29 2025 17:40:23 GMT-0500 (Central Daylight Time),498204.6999999285,A,cl,I,l,234,2,1233.8999999761581,496970.7999999523,8040,WL,B,1.0
4,1.3999998569488525,learn,58600.00014305115,Tue Jul 29 2025 17:40:23 GMT-0500 (Central Daylight Time),498371.10000002384,A,clo,I,o,154,2,1400.3000000715256,496970.7999999523,8040,WL,B,1.0
4,1.6669998168945312,learn,58333.00018310547,Tue Jul 29 2025 17:40:23 GMT-0500 (Central Daylight Time),498637.7999999523,A,cloc,I,c,260,2,1667.0,496970.7999999523,8040,WL,B,1.0
4,1.9159998893737793,learn,58084.00011062622,Tue Jul 29 2025 17:40:23 GMT-0500 (Central Daylight Time),498886.7999999523,A,clock,I,k,232,2,1916.0,496970.7999999523,8040,WL,B,1.0
4,2.4649999141693115,learn,57535.00008583069,Tue Jul 29 2025 17:40:23 GMT-0500 (Central Daylight Time),499436.0,A,clockenter,I,enter,543,2,2465.2000000476837,496970.7999999523,8040,WL,B,1.0
4,2.9819998741149902,learn,57018.00012588501,Tue Jul 29 2025 17:40:23 GMT-0500 (Central Daylight Time),499952.2999999523,A,f,I,f,507,2,516.1000000238419,499436.1999999285,8040,WL,B,2.0
4,3.131999969482422,learn,56868.00003051758,Tue Jul 29 2025 17:40:23 GMT-0500 (Central Daylight Time),500102.6999999285,A,fi,I,i,144,2,666.5,499436.1999999285,8040,WL,B,2.0
4,3.2990000247955322,learn,56700.99997520447,Tue Jul 29 2025 17:40:23 GMT-0500 (Central Daylight Time),500269.2999999523,A,fir,I,r,152,2,833.1000000238419,499436.1999999285,8040,WL,B,2.0
4,3.497999906539917,learn,56502.00009346008,Tue Jul 29 2025 17:40:23 GMT-0500 (Central Daylight Time),500468.39999997616,A,fire,I,e,185,2,1032.2000000476837,499436.1999999285,8040,WL,B,2.0
4,4.483000040054321,learn,55516.99995994568,Tue Jul 29 2025 17:40:23 GMT-0500 (Central Daylight Time),501453.1999999285,A,fireenter,I,enter,967,2,2017.0,499436.1999999285,8040,WL,B,2.0
4,5.031999826431274,learn,54968.000173568726,Tue Jul 29 2025 17:40:23 GMT-0500 (Central Daylight Time),502002.1999999285,A,s,I,s,529,2,548.6999999284744,501453.5,8040,WL,B,3.0
4,5.165999889373779,learn,54834.00011062622,Tue Jul 29 2025 17:40:23 GMT-0500 (Central Daylight Time),502136.2999999523,A,sk,I,k,127,2,682.7999999523163,501453.5,8040,WL,B,3.0
4,5.38100004196167,learn,54618.99995803833,Tue Jul 29 2025 17:40:23 GMT-0500 (Central Daylight Time),502351.5,A,ski,I,i,197,2,898.0,501453.5,8040,WL,B,3.0
4,5.580999851226807,learn,54419.00014877319,Tue Jul 29 2025 17:40:23 GMT-0500 (Central Daylight Time),502552.0,A,skin,I,n,182,2,1098.5,501453.5,8040,WL,B,3.0
4,6.480999946594238,learn,53519.00005340576,Tue Jul 29 2025 17:40:23 GMT-0500 (Central Daylight Time),503451.89999997616,A,skinenter,I,enter,884,2,1998.3999999761581,501453.5,8040,WL,B,3.0
4,10.297999858856201,learn,49702.0001411438,Tue Jul 29 2025 17:40:23 GMT-0500 (Central Daylight Time),507269.0,A,s,I,s,3811,2,3816.8000000715256,503452.1999999285,8040,WL,B,4.0
4,10.529000043869019,learn,49470.99995613098,Tue Jul 29 2025 17:40:23 GMT-0500 (Central Daylight Time),507500.10000002384,A,st,I,t,226,2,4047.9000000953674,503452.1999999285,8040,WL,B,4.0
4,10.714999914169312,learn,49285.00008583069,Tue Jul 29 2025 17:40:23 GMT-0500 (Central Daylight Time),507685.60000002384,A,sta,I,a,179,2,4233.400000095367,503452.1999999285,8040,WL,B,4.0
4,10.914000034332275,learn,49085.999965667725,Tue Jul 29 2025 17:40:23 GMT-0500 (Central Daylight Time),507884.7999999523,A,star,I,r,193,2,4432.600000023842,503452.1999999285,8040,WL,B,4.0
4,11.396999835968018,learn,48603.00016403198,Tue Jul 29 2025 17:40:23 GMT-0500 (Central Daylight Time),508367.6999999285,A,starenter,I,enter,475,2,4915.5,503452.1999999285,8040,WL,B,4.0
4,11.763000011444092,learn,48236.99998855591,Tue Jul 29 2025 17:40:23 GMT-0500 (Central Daylight Time),508733.5,A,c,I,c,351,2,365.5,508368.0,8040,WL,B,5.0
4,11.911999940872192,learn,48088.00005912781,Tue Jul 29 2025 17:40:23 GMT-0500 (Central Daylight Time),508882.5,A,ci,I,i,138,2,514.5,508368.0,8040,WL,B,5.0
4,12.097999811172485,learn,47902.000188827515,Tue Jul 29 2025 17:40:23 GMT-0500 (Central Daylight Time),509068.2999999523,A,cit,I,t,179,2,700.2999999523163,508368.0,8040,WL,B,5.0
4,12.299000024795532,learn,47700.99997520447,Tue Jul 29 2025 17:40:23 GMT-0500 (Central Daylight Time),509269.6999999285,A,city,I,y,196,2,901.6999999284744,508368.0,8040,WL,B,5.0
4,13.245999813079834,learn,46754.000186920166,Tue Jul 29 2025 17:40:23 GMT-0500 (Central Daylight Time),510217.0,A,cityenter,I,enter,926,2,1849.0,508368.0,8040,WL,B,5.0
4,15.977999925613403,learn,44022.0000743866,Tue Jul 29 2025 17:40:23 GMT-0500 (Central Daylight Time),512948.7999999523,A,l,I,l,2718,2,2731.5,510217.2999999523,8040,WL,B,6.0
4,16.07799983024597,learn,43922.00016975403,Tue Jul 29 2025 17:40:23 GMT-0500 (Central Daylight Time),513049.10000002384,A,la,I,a,81,2,2831.8000000715256,510217.2999999523,8040,WL,B,6.0
4,16.329999923706055,learn,43670.000076293945,Tue Jul 29 2025 17:40:23 GMT-0500 (Central Daylight Time),513300.5,A,lak,I,k,244,2,3083.2000000476837,510217.2999999523,8040,WL,B,6.0
4,16.643999814987183,learn,43356.00018501282,Tue Jul 29 2025 17:40:23 GMT-0500 (Central Daylight Time),513614.7999999523,A,lake,I,e,296,2,3397.5,510217.2999999523,8040,WL,B,6.0
4,18.41100001335144,learn,41588.99998664856,Tue Jul 29 2025 17:40:23 GMT-0500 (Central Daylight Time),515381.5,A,lakeenter,I,enter,1758,2,5164.200000047684,510217.2999999523,8040,WL,B,6.0
4,19.526000022888184,learn,40473.99997711182,Tue Jul 29 2025 17:40:23 GMT-0500 (Central Daylight Time),516496.1999999285,A,d,I,d,1106,2,1114.3999999761581,515381.7999999523,8040,WL,B,7.0
4,19.694000005722046,learn,40305.999994277954,Tue Jul 29 2025 17:40:23 GMT-0500 (Central Daylight Time),516664.60000002384,A,do,I,o,152,2,1282.8000000715256,515381.7999999523,8040,WL,B,7.0
4,19.875999927520752,learn,40124.00007247925,Tue Jul 29 2025 17:40:23 GMT-0500 (Central Daylight Time),516846.60000002384,A,doo,I,o,161,2,1464.8000000715256,515381.7999999523,8040,WL,B,7.0
4,20.126999855041504,learn,39873.000144958496,Tue Jul 29 2025 17:40:23 GMT-0500 (Central Daylight Time),517097.39999997616,A,door,I,r,240,2,1715.6000000238419,515381.7999999523,8040,WL,B,7.0
4,20.460000038146973,learn,39539.99996185303,Tue Jul 29 2025 17:40:23 GMT-0500 (Central Daylight Time),517430.5,A,doorenter,I,enter,317,2,2048.7000000476837,515381.7999999523,8040,WL,B,7.0
4,20.82699990272522,learn,39173.00009727478,Tue Jul 29 2025 17:40:23 GMT-0500 (Central Daylight Time),517797.60000002384,A,w,I,w,353,2,366.90000009536743,517430.6999999285,8040,WL,B,8.0
4,20.960999965667725,learn,39039.000034332275,Tue Jul 29 2025 17:40:23 GMT-0500 (Central Daylight Time),517931.39999997616,A,wi,I,i,121,2,500.7000000476837,517430.6999999285,8040,WL,B,8.0
4,21.125999927520752,learn,38874.00007247925,Tue Jul 29 2025 17:40:23 GMT-0500 (Central Daylight Time),518097.10000002384,A,win,I,n,146,2,666.4000000953674,517430.6999999285,8040,WL,B,8.0
4,21.292999982833862,learn,38707.00001716614,Tue Jul 29 2025 17:40:23 GMT-0500 (Central Daylight Time),518263.60000002384,A,wind,I,d,147,2,832.9000000953674,517430.6999999285,8040,WL,B,8.0
4,21.47599983215332,learn,38524.00016784668,Tue Jul 29 2025 17:40:23 GMT-0500 (Central Daylight Time),518447.0,A,windo,I,o,165,2,1016.3000000715256,517430.6999999285,8040,WL,B,8.0
4,21.609999895095825,learn,38390.000104904175,Tue Jul 29 2025 17:40:23 GMT-0500 (Central Daylight Time),518581.1999999285,A,window,I,w,111,2,1150.5,517430.6999999285,8040,WL,B,8.0
4,22.608999967575073,learn,37391.00003242493,Tue Jul 29 2025 17:40:23 GMT-0500 (Central Daylight Time),519579.7999999523,A,windowenter,I,enter,984,2,2149.100000023842,517430.6999999285,8040,WL,B,8.0
4,23.194000005722046,learn,36805.999994277954,Tue Jul 29 2025 17:40:23 GMT-0500 (Central Daylight Time),520164.60000002384,A,w,I,w,580,2,584.5,519580.10000002384,8040,WL,B,9.0
4,23.29199981689453,learn,36708.00018310547,Tue Jul 29 2025 17:40:23 GMT-0500 (Central Daylight Time),520262.7999999523,A,wi,I,i,89,2,682.6999999284744,519580.10000002384,8040,WL,B,9.0
4,23.508999824523926,learn,36491.000175476074,Tue Jul 29 2025 17:40:23 GMT-0500 (Central Daylight Time),520479.60000002384,A,wif,I,f,208,2,899.5,519580.10000002384,8040,WL,B,9.0
4,23.76099991798401,learn,36239.00008201599,Tue Jul 29 2025 17:40:23 GMT-0500 (Central Daylight Time),520731.5,A,wife,I,e,231,2,1151.3999999761581,519580.10000002384,8040,WL,B,9.0
4,24.441999912261963,learn,35558.00008773804,Tue Jul 29 2025 17:40:23 GMT-0500 (Central Daylight Time),521413.10000002384,A,wifeenter,I,enter,674,2,1833.0,519580.10000002384,8040,WL,B,9.0
4,24.691999912261963,learn,35308.00008773804,Tue Jul 29 2025 17:40:23 GMT-0500 (Central Daylight Time),521663.10000002384,A,a,I,a,233,2,249.70000004768372,521413.39999997616,8040,WL,B,10.0
4,24.93999981880188,learn,35060.00018119812,Tue Jul 29 2025 17:40:23 GMT-0500 (Central Daylight Time),521910.39999997616,A,ar,I,r,231,2,497.0,521413.39999997616,8040,WL,B,10.0
4,25.222999811172485,learn,34777.000188827515,Tue Jul 29 2025 17:40:23 GMT-0500 (Central Daylight Time),522193.2999999523,A,arm,I,m,274,2,779.8999999761581,521413.39999997616,8040,WL,B,10.0
4,25.574999809265137,learn,34425.00019073486,Tue Jul 29 2025 17:40:23 GMT-0500 (Central Daylight Time),522545.7999999523,A,armenter,I,enter,335,2,1132.3999999761581,521413.39999997616,8040,WL,B,10.0
4,26.024999856948853,learn,33975.00014305115,Tue Jul 29 2025 17:40:23 GMT-0500 (Central Daylight Time),522996.2999999523,A,p,I,p,428,2,450.2999999523163,522546.0,8040,WL,B,11.0
4,26.22499990463257,learn,33775.00009536743,Tue Jul 29 2025 17:40:23 GMT-0500 (Central Daylight Time),523196.0,A,pu,I,u,185,2,650.0,522546.0,8040,WL,B,11.0
4,26.524999856948853,learn,33475.00014305115,Tue Jul 29 2025 17:40:23 GMT-0500 (Central Daylight Time),523495.7999999523,A,pup,I,p,292,2,949.7999999523163,522546.0,8040,WL,B,11.0
4,27.073999881744385,learn,32926.000118255615,Tue Jul 29 2025 17:40:23 GMT-0500 (Central Daylight Time),524044.89999997616,A,pupi,I,i,535,2,1498.8999999761581,522546.0,8040,WL,B,11.0
4,27.39299988746643,learn,32607.00011253357,Tue Jul 29 2025 17:40:23 GMT-0500 (Central Daylight Time),524363.6999999285,A,pupil,I,l,314,2,1817.6999999284744,522546.0,8040,WL,B,11.0
4,28.289999961853027,learn,31710.000038146973,Tue Jul 29 2025 17:40:23 GMT-0500 (Central Daylight Time),525261.0,A,pupilenter,I,enter,889,2,2715.0,522546.0,8040,WL,B,11.0
4,28.840999841690063,learn,31159.000158309937,Tue Jul 29 2025 17:40:23 GMT-0500 (Central Daylight Time),525812.1000000238,A,s,I,s,546,2,550.8000000715256,525261.2999999523,8040,WL,B,12.0
4,29.073999881744385,learn,30926.000118255615,Tue Jul 29 2025 17:40:23 GMT-0500 (Central Daylight Time),526045.1000000238,A,st,I,t,227,2,783.8000000715256,525261.2999999523,8040,WL,B,12.0
4,29.322999954223633,learn,30677.000045776367,Tue Jul 29 2025 17:40:23 GMT-0500 (Central Daylight Time),526293.8999999762,A,str,I,r,232,2,1032.6000000238419,525261.2999999523,8040,WL,B,12.0
4,29.590999841690063,learn,30409.000158309937,Tue Jul 29 2025 17:40:23 GMT-0500 (Central Daylight Time),526562.0,A,stre,I,e,257,2,1300.7000000476837,525261.2999999523,8040,WL,B,12.0
4,30.304999828338623,learn,29695.000171661377,Tue Jul 29 2025 17:40:23 GMT-0500 (Central Daylight Time),527275.7999999523,A,stree,I,e,708,2,2014.5,525261.2999999523,8040,WL,B,12.0
4,30.60699987411499,learn,29393.00012588501,Tue Jul 29 2025 17:40:23 GMT-0500 (Central Daylight Time),527577.5,A,street,I,t,293,2,2316.2000000476837,525261.2999999523,8040,WL,B,12.0
4,31.04099988937378,learn,28959.00011062622,Tue Jul 29 2025 17:40:23 GMT-0500 (Central Daylight Time),528011.2999999523,A,streetenter,I,enter,412,2,2750.0,525261.2999999523,8040,WL,B,12.0
4,32.70700001716614,learn,27292.999982833862,Tue Jul 29 2025 17:40:23 GMT-0500 (Central Daylight Time),529677.6999999285,A,g,I,g,1661,2,1666.1999999284744,528011.5,8040,WL,B,13.0
4,32.954999923706055,learn,27045.000076293945,Tue Jul 29 2025 17:40:23 GMT-0500 (Central Daylight Time),529925.6999999285,A,gr,I,r,238,2,1914.1999999284744,528011.5,8040,WL,B,13.0
4,33.18899989128113,learn,26811.000108718872,Tue Jul 29 2025 17:40:23 GMT-0500 (Central Daylight Time),530160.0,A,gra,I,a,224,2,2148.5,528011.5,8040,WL,B,13.0
4,33.58899998664856,learn,26411.00001335144,Tue Jul 29 2025 17:40:23 GMT-0500 (Central Daylight Time),530559.7999999523,A,gras,I,s,383,2,2548.2999999523163,528011.5,8040,WL,B,13.0
4,33.77199983596802,learn,26228.000164031982,Tue Jul 29 2025 17:40:23 GMT-0500 (Central Daylight Time),530742.2999999523,A,grass,I,s,166,2,2730.7999999523163,528011.5,8040,WL,B,13.0
4,34.93899989128113,learn,25061.000108718872,Tue Jul 29 2025 17:40:23 GMT-0500 (Central Daylight Time),531909.2999999523,A,grassenter,I,enter,1150,2,3897.7999999523163,528011.5,8040,WL,B,13.0
4,53.24899983406067,learn,6751.000165939331,Tue Jul 29 2025 17:40:23 GMT-0500 (Central Daylight Time),550220.3999999762,A,c,I,c,18299,2,18310.700000047684,531909.6999999285,8040,WL,B,14.0
4,53.3989999294281,learn,6601.000070571899,Tue Jul 29 2025 17:40:23 GMT-0500 (Central Daylight Time),550370.2999999523,A,ca,I,a,129,2,18460.600000023842,531909.6999999285,8040,WL,B,14.0
4,53.69799995422363,learn,6302.000045776367,Tue Jul 29 2025 17:40:23 GMT-0500 (Central Daylight Time),550669.2999999523,A,cab,I,b,284,2,18759.600000023842,531909.6999999285,8040,WL,B,14.0
4,53.967000007629395,learn,6032.9999923706055,Tue Jul 29 2025 17:40:23 GMT-0500 (Central Daylight Time),550938.3999999762,A,cabi,I,i,257,2,19028.700000047684,531909.6999999285,8040,WL,B,14.0
4,54.09999990463257,learn,5900.000095367432,Tue Jul 29 2025 17:40:23 GMT-0500 (Central Daylight Time),551070.6000000238,A,cabin,I,n,127,2,19160.900000095367,531909.6999999285,8040,WL,B,14.0
4,54.382999897003174,learn,5617.000102996826,Tue Jul 29 2025 17:40:23 GMT-0500 (Central Daylight Time),551353.5,A,cabinenter,I,enter,264,2,19443.800000071526,531909.6999999285,8040,WL,B,14.0
4,60.013999938964844,learn,-13.99993896484375,Tue Jul 29 2025 17:40:23 GMT-0500 (Central Daylight Time),556984.6999999285,A,None,I,None,5626,2,5630.899999976158,551353.7999999523,8040,WL,B,15.0
5,1.7170000076293945,learn,60000.0,Tue Jul 29 2025 17:40:23 GMT-0500 (Central Daylight Time),624580.3999999762,A,s,I,s,1694,2,1716.2000000476837,622864.1999999285,8040,WL,B,1.0
5,2.0850000381469727,learn,60000.0,Tue Jul 29 2025 17:40:23 GMT-0500 (Central Daylight Time),624947.7999999523,A,st,I,t,358,2,2083.600000023842,622864.1999999285,8040,WL,B,1.0
5,2.3510000705718994,learn,60000.0,Tue Jul 29 2025 17:40:23 GMT-0500 (Central Daylight Time),625214.7999999523,A,str,I,r,261,2,2350.600000023842,622864.1999999285,8040,WL,B,1.0
5,2.7339999675750732,learn,60000.0,Tue Jul 29 2025 17:40:23 GMT-0500 (Central Daylight Time),625597.2999999523,A,stre,I,e,378,2,2733.100000023842,622864.1999999285,8040,WL,B,1.0
5,2.8999998569488525,learn,60000.0,Tue Jul 29 2025 17:40:23 GMT-0500 (Central Daylight Time),625763.1000000238,A,stree,I,e,144,2,2898.9000000953674,622864.1999999285,8040,WL,B,1.0
5,3.1010000705718994,learn,60000.0,Tue Jul 29 2025 17:40:23 GMT-0500 (Central Daylight Time),625964.0,A,street,I,t,195,2,3099.8000000715256,622864.1999999285,8040,WL,B,1.0
5,3.5,learn,60000.0,Tue Jul 29 2025 17:40:23 GMT-0500 (Central Daylight Time),626363.1000000238,A,streetenter,I,enter,387,2,3498.9000000953674,622864.1999999285,8040,WL,B,1.0
5,3.8999998569488525,learn,60000.0,Tue Jul 29 2025 17:40:23 GMT-0500 (Central Daylight Time),626763.0,A,g,I,g,380,2,399.7000000476837,626363.2999999523,8040,WL,B,2.0
5,4.233000040054321,learn,60000.0,Tue Jul 29 2025 17:40:23 GMT-0500 (Central Daylight Time),627096.1999999285,A,gr,I,r,312,2,732.8999999761581,626363.2999999523,8040,WL,B,2.0
5,4.697999954223633,learn,60000.0,Tue Jul 29 2025 17:40:23 GMT-0500 (Central Daylight Time),627561.5,A,gra,I,a,446,2,1198.2000000476837,626363.2999999523,8040,WL,B,2.0
5,4.997999906539917,learn,60000.0,Tue Jul 29 2025 17:40:23 GMT-0500 (Central Daylight Time),627861.3999999762,A,gras,I,s,286,2,1498.1000000238419,626363.2999999523,8040,WL,B,2.0
5,5.164999961853027,learn,60000.0,Tue Jul 29 2025 17:40:23 GMT-0500 (Central Daylight Time),628028.1000000238,A,grass,I,s,150,2,1664.8000000715256,626363.2999999523,8040,WL,B,2.0
5,6.365999937057495,learn,60000.0,Tue Jul 29 2025 17:40:23 GMT-0500 (Central Daylight Time),629229.1000000238,A,grassenter,I,enter,1195,2,2865.8000000715256,626363.2999999523,8040,WL,B,2.0
5,7.497999906539917,learn,60000.0,Tue Jul 29 2025 17:40:23 GMT-0500 (Central Daylight Time),630361.1000000238,A,d,I,d,1114,2,1131.6000000238419,629229.5,8040,WL,B,3.0
5,7.664999961853027,learn,60000.0,Tue Jul 29 2025 17:40:23 GMT-0500 (Central Daylight Time),630528.1000000238,A,do,I,o,151,2,1298.6000000238419,629229.5,8040,WL,B,3.0
5,7.815000057220459,learn,60000.0,Tue Jul 29 2025 17:40:23 GMT-0500 (Central Daylight Time),630678.6000000238,A,doo,I,o,146,2,1449.1000000238419,629229.5,8040,WL,B,3.0
5,8.164000034332275,learn,60000.0,Tue Jul 29 2025 17:40:23 GMT-0500 (Central Daylight Time),631027.6999999285,A,door,I,r,336,2,1798.1999999284744,629229.5,8040,WL,B,3.0
5,8.664000034332275,learn,60000.0,Tue Jul 29 2025 17:40:23 GMT-0500 (Central Daylight Time),631527.6000000238,A,doorenter,I,enter,493,2,2298.100000023842,629229.5,8040,WL,B,3.0
5,9.447999954223633,learn,60000.0,Tue Jul 29 2025 17:40:23 GMT-0500 (Central Daylight Time),632311.0,A,w,I,w,769,2,783.1000000238419,631527.8999999762,8040,WL,B,4.0
5,9.614000082015991,learn,60000.0,Tue Jul 29 2025 17:40:23 GMT-0500 (Central Daylight Time),632477.7999999523,A,wi,I,i,162,2,949.8999999761581,631527.8999999762,8040,WL,B,4.0
5,9.782000064849854,learn,60000.0,Tue Jul 29 2025 17:40:23 GMT-0500 (Central Daylight Time),632645.7999999523,A,win,I,n,162,2,1117.8999999761581,631527.8999999762,8040,WL,B,4.0
5,9.948999881744385,learn,60000.0,Tue Jul 29 2025 17:40:23 GMT-0500 (Central Daylight Time),632812.2999999523,A,wind,I,d,162,2,1284.3999999761581,631527.8999999762,8040,WL,B,4.0
5,10.062999963760376,learn,60000.0,Tue Jul 29 2025 17:40:23 GMT-0500 (Central Daylight Time),632926.5,A,windo,I,o,107,2,1398.6000000238419,631527.8999999762,8040,WL,B,4.0
5,10.246999979019165,learn,60000.0,Tue Jul 29 2025 17:40:23 GMT-0500 (Central Daylight Time),633110.6999999285,A,window,I,w,168,2,1582.7999999523163,631527.8999999762,8040,WL,B,4.0
5,10.964999914169312,learn,60000.0,Tue Jul 29 2025 17:40:23 GMT-0500 (Central Daylight Time),633828.2999999523,A,windowenter,I,enter,712,2,2300.399999976158,631527.8999999762,8040,WL,B,4.0
5,11.263000011444092,learn,60000.0,Tue Jul 29 2025 17:40:23 GMT-0500 (Central Daylight Time),634126.1000000238,A,w,I,w,289,2,297.60000002384186,633828.5,8040,WL,B,5.0
5,11.365000009536743,learn,60000.0,Tue Jul 29 2025 17:40:23 GMT-0500 (Central Daylight Time),634228.0,A,wi,I,i,99,2,399.5,633828.5,8040,WL,B,5.0
5,11.69700002670288,learn,60000.0,Tue Jul 29 2025 17:40:23 GMT-0500 (Central Daylight Time),634560.1999999285,A,wif,I,f,315,2,731.6999999284744,633828.5,8040,WL,B,5.0
5,11.912999868392944,learn,60000.0,Tue Jul 29 2025 17:40:23 GMT-0500 (Central Daylight Time),634776.5,A,wife,I,e,207,2,948.0,633828.5,8040,WL,B,5.0
5,12.312999963760376,learn,60000.0,Tue Jul 29 2025 17:40:23 GMT-0500 (Central Daylight Time),635176.6000000238,A,wifeenter,I,enter,383,2,1348.1000000238419,633828.5,8040,WL,B,5.0
5,13.36299991607666,learn,60000.0,Tue Jul 29 2025 17:40:23 GMT-0500 (Central Daylight Time),636226.5,A,a,I,a,1030,2,1049.6000000238419,635176.8999999762,8040,WL,B,6.0
5,13.595999956130981,learn,60000.0,Tue Jul 29 2025 17:40:23 GMT-0500 (Central Daylight Time),636459.0,A,ar,I,r,228,2,1282.1000000238419,635176.8999999762,8040,WL,B,6.0
5,13.861000061035156,learn,60000.0,Tue Jul 29 2025 17:40:23 GMT-0500 (Central Daylight Time),636723.8999999762,A,arm,I,m,253,2,1547.0,635176.8999999762,8040,WL,B,6.0
5,14.427000045776367,learn,60000.0,Tue Jul 29 2025 17:40:23 GMT-0500 (Central Daylight Time),637290.0,A,armenter,I,enter,546,2,2113.100000023842,635176.8999999762,8040,WL,B,6.0
5,14.961999893188477,learn,60000.0,Tue Jul 29 2025 17:40:23 GMT-0500 (Central Daylight Time),637825.3999999762,A,p,I,p,526,2,535.1000000238419,637290.2999999523,8040,WL,B,7.0
5,15.161999940872192,learn,60000.0,Tue Jul 29 2025 17:40:23 GMT-0500 (Central Daylight Time),638025.6999999285,A,pu,I,u,191,2,735.3999999761581,637290.2999999523,8040,WL,B,7.0
5,15.478999853134155,learn,60000.0,Tue Jul 29 2025 17:40:23 GMT-0500 (Central Daylight Time),638342.3999999762,A,pup,I,p,301,2,1052.1000000238419,637290.2999999523,8040,WL,B,7.0
5,15.895999908447266,learn,60000.0,Tue Jul 29 2025 17:40:23 GMT-0500 (Central Daylight Time),638759.0,A,pupi,I,i,408,2,1468.7000000476837,637290.2999999523,8040,WL,B,7.0
5,16.277999877929688,learn,60000.0,Tue Jul 29 2025 17:40:23 GMT-0500 (Central Daylight Time),639141.6999999285,A,pupil,I,l,367,2,1851.3999999761581,637290.2999999523,8040,WL,B,7.0
5,16.92799997329712,learn,60000.0,Tue Jul 29 2025 17:40:23 GMT-0500 (Central Daylight Time),639790.8999999762,A,pupilenter,I,enter,641,2,2500.600000023842,637290.2999999523,8040,WL,B,7.0
5,17.795000076293945,learn,60000.0,Tue Jul 29 2025 17:40:23 GMT-0500 (Central Daylight Time),640658.2999999523,A,c,I,c,848,2,867.1999999284744,639791.1000000238,8040,WL,B,8.0
5,17.92799997329712,learn,60000.0,Tue Jul 29 2025 17:40:23 GMT-0500 (Central Daylight Time),640791.6000000238,A,ci,I,i,129,2,1000.5,639791.1000000238,8040,WL,B,8.0
5,18.161999940872192,learn,60000.0,Tue Jul 29 2025 17:40:23 GMT-0500 (Central Daylight Time),641025.1000000238,A,cit,I,t,215,2,1234.0,639791.1000000238,8040,WL,B,8.0
5,18.312000036239624,learn,60000.0,Tue Jul 29 2025 17:40:23 GMT-0500 (Central Daylight Time),641175.3999999762,A,city,I,y,146,2,1384.2999999523163,639791.1000000238,8040,WL,B,8.0
5,18.861000061035156,learn,60000.0,Tue Jul 29 2025 17:40:23 GMT-0500 (Central Daylight Time),641724.6999999285,A,cityenter,I,enter,543,2,1933.5999999046326,639791.1000000238,8040,WL,B,8.0
5,19.41000008583069,learn,60000.0,Tue Jul 29 2025 17:40:23 GMT-0500 (Central Daylight Time),642272.8999999762,A,c,I,c,530,2,547.8999999761581,641725.0,8040,WL,B,9.0
5,19.59500002861023,learn,60000.0,Tue Jul 29 2025 17:40:23 GMT-0500 (Central Daylight Time),642458.1000000238,A,ca,I,a,164,2,733.1000000238419,641725.0,8040,WL,B,9.0
5,19.859999895095825,learn,60000.0,Tue Jul 29 2025 17:40:23 GMT-0500 (Central Daylight Time),642723.7999999523,A,cab,I,b,252,2,998.7999999523163,641725.0,8040,WL,B,9.0
5,20.026000022888184,learn,60000.0,Tue Jul 29 2025 17:40:23 GMT-0500 (Central Daylight Time),642889.5,A,cabi,I,i,154,2,1164.5,641725.0,8040,WL,B,9.0
5,20.17799997329712,learn,60000.0,Tue Jul 29 2025 17:40:23 GMT-0500 (Central Daylight Time),643041.6000000238,A,cabin,I,n,134,2,1316.6000000238419,641725.0,8040,WL,B,9.0
5,21.01099991798401,learn,60000.0,Tue Jul 29 2025 17:40:23 GMT-0500 (Central Daylight Time),643874.2999999523,A,cabinenter,I,enter,813,2,2149.2999999523163,641725.0,8040,WL,B,9.0
5,21.57800006866455,learn,60000.0,Tue Jul 29 2025 17:40:23 GMT-0500 (Central Daylight Time),644440.8999999762,A,s,I,s,557,2,566.2999999523163,643874.6000000238,8040,WL,B,10.0
5,21.793999910354614,learn,60000.0,Tue Jul 29 2025 17:40:23 GMT-0500 (Central Daylight Time),644657.1000000238,A,sa,I,a,197,2,782.5,643874.6000000238,8040,WL,B,10.0
5,22.295000076293945,learn,60000.0,Tue Jul 29 2025 17:40:23 GMT-0500 (Central Daylight Time),645158.1999999285,A,s,I,backspace,496,2,1283.5999999046326,643874.6000000238,8040,WL,B,10.0
5,22.39199995994568,learn,60000.0,Tue Jul 29 2025 17:40:23 GMT-0500 (Central Daylight Time),645255.6999999285,A,st,I,t,89,2,1381.0999999046326,643874.6000000238,8040,WL,B,10.0
5,22.560999870300293,learn,60000.0,Tue Jul 29 2025 17:40:23 GMT-0500 (Central Daylight Time),645423.8999999762,A,sta,I,a,149,2,1549.2999999523163,643874.6000000238,8040,WL,B,10.0
5,22.793999910354614,learn,60000.0,Tue Jul 29 2025 17:40:23 GMT-0500 (Central Daylight Time),645656.8999999762,A,star,I,r,213,2,1782.2999999523163,643874.6000000238,8040,WL,B,10.0
5,23.608999967575073,learn,60000.0,Tue Jul 29 2025 17:40:23 GMT-0500 (Central Daylight Time),646472.2999999523,A,starenter,I,enter,796,2,2597.6999999284744,643874.6000000238,8040,WL,B,10.0
5,24.0939998626709,learn,60000.0,Tue Jul 29 2025 17:40:23 GMT-0500 (Central Daylight Time),646957.1000000238,A,l,I,l,462,2,484.60000002384186,646472.5,8040,WL,B,11.0
5,24.193000078201294,learn,60000.0,Tue Jul 29 2025 17:40:23 GMT-0500 (Central Daylight Time),647055.8999999762,A,la,I,a,81,2,583.3999999761581,646472.5,8040,WL,B,11.0
5,24.391000032424927,learn,60000.0,Tue Jul 29 2025 17:40:23 GMT-0500 (Central Daylight Time),647254.6000000238,A,lak,I,k,180,2,782.1000000238419,646472.5,8040,WL,B,11.0
5,24.557999849319458,learn,60000.0,Tue Jul 29 2025 17:40:23 GMT-0500 (Central Daylight Time),647421.6999999285,A,lake,I,e,153,2,949.1999999284744,646472.5,8040,WL,B,11.0
5,25.306999921798706,learn,60000.0,Tue Jul 29 2025 17:40:23 GMT-0500 (Central Daylight Time),648170.1999999285,A,lakeenter,I,enter,725,2,1697.6999999284744,646472.5,8040,WL,B,11.0
5,27.32699990272522,learn,60000.0,Tue Jul 29 2025 17:40:23 GMT-0500 (Central Daylight Time),650190.7999999523,A,p,I,p,2001,2,2020.3999999761581,648170.3999999762,8040,WL,B,12.0
5,27.55900001525879,learn,60000.0,Tue Jul 29 2025 17:40:23 GMT-0500 (Central Daylight Time),650422.1000000238,A,pi,I,i,216,2,2251.7000000476837,648170.3999999762,8040,WL,B,12.0
5,27.776000022888184,learn,60000.0,Tue Jul 29 2025 17:40:23 GMT-0500 (Central Daylight Time),650639.3999999762,A,pip,I,p,212,2,2469.0,648170.3999999762,8040,WL,B,12.0
5,28.35800004005432,learn,60000.0,Tue Jul 29 2025 17:40:23 GMT-0500 (Central Daylight Time),651221.2999999523,A,pipe,I,e,567,2,3050.899999976158,648170.3999999762,8040,WL,B,12.0
5,28.85800004005432,learn,60000.0,Tue Jul 29 2025 17:40:23 GMT-0500 (Central Daylight Time),651720.7999999523,A,pipeenter,I,enter,481,2,3550.399999976158,648170.3999999762,8040,WL,B,12.0
5,29.490999937057495,learn,60000.0,Tue Jul 29 2025 17:40:23 GMT-0500 (Central Daylight Time),652354.5,A,f,I,f,623,2,633.3999999761581,651721.1000000238,8040,WL,B,13.0
5,29.60699987411499,learn,60000.0,Tue Jul 29 2025 17:40:23 GMT-0500 (Central Daylight Time),652470.1000000238,A,fi,I,i,100,2,749.0,651721.1000000238,8040,WL,B,13.0
5,29.789999961853027,learn,60000.0,Tue Jul 29 2025 17:40:23 GMT-0500 (Central Daylight Time),652653.3999999762,A,fir,I,r,163,2,932.2999999523163,651721.1000000238,8040,WL,B,13.0
5,29.941999912261963,learn,60000.0,Tue Jul 29 2025 17:40:23 GMT-0500 (Central Daylight Time),652805.0,A,fire,I,e,142,2,1083.8999999761581,651721.1000000238,8040,WL,B,13.0
5,30.506999969482422,learn,60000.0,Tue Jul 29 2025 17:40:23 GMT-0500 (Central Daylight Time),653370.5,A,fireenter,I,enter,546,2,1649.3999999761581,651721.1000000238,8040,WL,B,13.0
5,30.94099998474121,learn,60000.0,Tue Jul 29 2025 17:40:23 GMT-0500 (Central Daylight Time),653804.1000000238,A,s,I,s,413,2,433.2000000476837,653370.8999999762,8040,WL,B,14.0
5,31.072999954223633,learn,60000.0,Tue Jul 29 2025 17:40:23 GMT-0500 (Central Daylight Time),653936.2999999523,A,sk,I,k,122,2,565.3999999761581,653370.8999999762,8040,WL,B,14.0
5,31.272000074386597,learn,60000.0,Tue Jul 29 2025 17:40:23 GMT-0500 (Central Daylight Time),654135.5,A,ski,I,i,182,2,764.6000000238419,653370.8999999762,8040,WL,B,14.0
5,31.723999977111816,learn,60000.0,Tue Jul 29 2025 17:40:23 GMT-0500 (Central Daylight Time),654587.2999999523,A,skin,I,n,439,2,1216.3999999761581,653370.8999999762,8040,WL,B,14.0
5,35.039000034332275,learn,60000.0,Tue Jul 29 2025 17:40:23 GMT-0500 (Central Daylight Time),657902.5,A,skinenter,I,enter,3299,2,4531.600000023842,653370.8999999762,8040,WL,B,14.0
5,46.68599987030029,learn,60000.0,Tue Jul 29 2025 17:40:23 GMT-0500 (Central Daylight Time),669549.6999999285,A,c,I,c,11634,2,11646.899999976158,657902.7999999523,8040,WL,B,15.0
5,46.8529999256134,learn,60000.0,Tue Jul 29 2025 17:40:23 GMT-0500 (Central Daylight Time),669716.6999999285,A,cl,I,l,160,2,11813.899999976158,657902.7999999523,8040,WL,B,15.0
5,47.085999965667725,learn,60000.0,Tue Jul 29 2025 17:40:23 GMT-0500 (Central Daylight Time),669949.6000000238,A,clo,I,o,227,2,12046.800000071526,657902.7999999523,8040,WL,B,15.0
5,47.36800003051758,learn,60000.0,Tue Jul 29 2025 17:40:23 GMT-0500 (Central Daylight Time),670231.1999999285,A,clok,I,k,264,2,12328.399999976158,657902.7999999523,8040,WL,B,15.0
5,47.8529999256134,learn,60000.0,Tue Jul 29 2025 17:40:23 GMT-0500 (Central Daylight Time),670716.6999999285,A,clo,I,backspace,480,2,12813.899999976158,657902.7999999523,8040,WL,B,15.0
5,47.93499994277954,learn,60000.0,Tue Jul 29 2025 17:40:23 GMT-0500 (Central Daylight Time),670798.5,A,cloc,I,c,66,2,12895.700000047684,657902.7999999523,8040,WL,B,15.0
5,48.13499999046326,learn,60000.0,Tue Jul 29 2025 17:40:23 GMT-0500 (Central Daylight Time),670998.6999999285,A,clock,I,k,194,2,13095.899999976158,657902.7999999523,8040,WL,B,15.0
5,48.634000062942505,learn,60000.0,Tue Jul 29 2025 17:40:23 GMT-0500 (Central Daylight Time),671498.0,A,clockenter,I,enter,478,2,13595.200000047684,657902.7999999523,8040,WL,B,15.0
6,0.9830000400543213,distr,59016.99995994568,Tue Jul 29 2025 17:40:23 GMT-0500 (Central Daylight Time),742059.1999999285,B,b,I,b,970,2,982.5,741076.6999999285,8040,WL,B,1.0
6,1.1500000953674316,distr,58849.99990463257,Tue Jul 29 2025 17:40:23 GMT-0500 (Central Daylight Time),742225.6000000238,B,ba,I,a,155,2,1148.9000000953674,741076.6999999285,8040,WL,B,1.0
6,1.4660000801086426,distr,58533.99991989136,Tue Jul 29 2025 17:40:23 GMT-0500 (Central Daylight Time),742542.1000000238,B,bab,I,b,302,2,1465.4000000953674,741076.6999999285,8040,WL,B,1.0
6,1.8500001430511475,distr,58149.99985694885,Tue Jul 29 2025 17:40:23 GMT-0500 (Central Daylight Time),742925.8999999762,B,baby,I,y,362,2,1849.2000000476837,741076.6999999285,8040,WL,B,1.0
6,3.381999969482422,distr,56618.00003051758,Tue Jul 29 2025 17:40:23 GMT-0500 (Central Daylight Time),744458.3999999762,B,babyenter,I,enter,1519,2,3381.7000000476837,741076.6999999285,8040,WL,B,1.0
6,4.466000080108643,distr,55533.99991989136,Tue Jul 29 2025 17:40:23 GMT-0500 (Central Daylight Time),745542.2999999523,B,o,I,o,1079,2,1083.6999999284744,744458.6000000238,8040,WL,B,2.0
6,4.802000045776367,distr,55197.99995422363,Tue Jul 29 2025 17:40:23 GMT-0500 (Central Daylight Time),745877.5,B,oc,I,c,312,2,1418.8999999761581,744458.6000000238,8040,WL,B,2.0
6,5.116000175476074,distr,54883.999824523926,Tue Jul 29 2025 17:40:23 GMT-0500 (Central Daylight Time),746191.5,B,oce,I,e,292,2,1732.8999999761581,744458.6000000238,8040,WL,B,2.0
6,5.312999963760376,distr,54687.000036239624,Tue Jul 29 2025 17:40:23 GMT-0500 (Central Daylight Time),746388.5,B,ocea,I,a,181,2,1929.8999999761581,744458.6000000238,8040,WL,B,2.0
6,5.51200008392334,distr,54487.99991607666,Tue Jul 29 2025 17:40:23 GMT-0500 (Central Daylight Time),746588.5,B,ocean,I,n,186,2,2129.899999976158,744458.6000000238,8040,WL,B,2.0
6,8.065000057220459,distr,51934.99994277954,Tue Jul 29 2025 17:40:23 GMT-0500 (Central Daylight Time),749140.5,B,oceanenter,I,enter,2549,2,4681.899999976158,744458.6000000238,8040,WL,B,2.0
6,8.948000192642212,distr,51051.99980735779,Tue Jul 29 2025 17:40:23 GMT-0500 (Central Daylight Time),750023.7999999523,B,b,I,b,862,2,883.0,749140.7999999523,8040,WL,B,3.0
6,9.082000017166138,distr,50917.99998283386,Tue Jul 29 2025 17:40:23 GMT-0500 (Central Daylight Time),750157.6000000238,B,ba,I,a,127,2,1016.8000000715256,749140.7999999523,8040,WL,B,3.0
6,9.547000169754028,distr,50452.99983024597,Tue Jul 29 2025 17:40:23 GMT-0500 (Central Daylight Time),750623.1999999285,B,bar,I,r,456,2,1482.3999999761581,749140.7999999523,8040,WL,B,3.0
6,10.231000185012817,distr,49768.99981498718,Tue Jul 29 2025 17:40:23 GMT-0500 (Central Daylight Time),751307.1000000238,B,barenter,I,enter,670,2,2166.3000000715256,749140.7999999523,8040,WL,B,3.0
6,10.898000001907349,distr,49101.99999809265,Tue Jul 29 2025 17:40:23 GMT-0500 (Central Daylight Time),751974.2999999523,B,p,I,p,664,2,667.1000000238419,751307.1999999285,8040,WL,B,4.0
6,11.080000162124634,distr,48919.999837875366,Tue Jul 29 2025 17:40:23 GMT-0500 (Central Daylight Time),752156.3999999762,B,pa,I,a,167,2,849.2000000476837,751307.1999999285,8040,WL,B,4.0
6,11.36300015449524,distr,48636.99984550476,Tue Jul 29 2025 17:40:23 GMT-0500 (Central Daylight Time),752439.0,B,pal,I,l,266,2,1131.8000000715256,751307.1999999285,8040,WL,B,4.0
6,11.562999963760376,distr,48437.000036239624,Tue Jul 29 2025 17:40:23 GMT-0500 (Central Daylight Time),752638.6000000238,B,pala,I,a,192,2,1331.4000000953674,751307.1999999285,8040,WL,B,4.0
6,11.828999996185303,distr,48171.0000038147,Tue Jul 29 2025 17:40:23 GMT-0500 (Central Daylight Time),752904.7999999523,B,palac,I,c,255,2,1597.6000000238419,751307.1999999285,8040,WL,B,4.0
6,12.114000082015991,distr,47885.99991798401,Tue Jul 29 2025 17:40:23 GMT-0500 (Central Daylight Time),753190.0,B,palace,I,e,280,2,1882.8000000715256,751307.1999999285,8040,WL,B,4.0
6,13.578999996185303,distr,46421.0000038147,Tue Jul 29 2025 17:40:23 GMT-0500 (Central Daylight Time),754654.6999999285,B,palaceenter,I,enter,1446,2,3347.5,751307.1999999285,8040,WL,B,4.0
6,15.712000131607056,distr,44287.999868392944,Tue Jul 29 2025 17:40:23 GMT-0500 (Central Daylight Time),756788.2999999523,B,d,I,d,2129,2,2133.5,754654.7999999523,8040,WL,B,5.0
6,15.995000123977661,distr,44004.99987602234,Tue Jul 29 2025 17:40:23 GMT-0500 (Central Daylight Time),757071.2999999523,B,dr,I,r,267,2,2416.5,754654.7999999523,8040,WL,B,5.0
6,16.16200017929077,distr,43837.99982070923,Tue Jul 29 2025 17:40:23 GMT-0500 (Central Daylight Time),757237.6999999285,B,dre,I,e,150,2,2582.899999976158,754654.7999999523,8040,WL,B,5.0
6,16.462000131607056,distr,43537.999868392944,Tue Jul 29 2025 17:40:23 GMT-0500 (Central Daylight Time),757538.1999999285,B,dres,I,s,290,2,2883.399999976158,754654.7999999523,8040,WL,B,5.0
6,16.66200017929077,distr,43337.99982070923,Tue Jul 29 2025 17:40:23 GMT-0500 (Central Daylight Time),757737.6999999285,B,dress,I,s,180,2,3082.899999976158,754654.7999999523,8040,WL,B,5.0
6,19.544000148773193,distr,40455.99985122681,Tue Jul 29 2025 17:40:23 GMT-0500 (Central Daylight Time),760619.8999999762,B,dressenter,I,enter,2858,2,5965.100000023842,754654.7999999523,8040,WL,B,5.0
6,23.60700011253357,distr,36392.99988746643,Tue Jul 29 2025 17:40:23 GMT-0500 (Central Daylight Time),764682.5,B,b,I,b,4050,2,4062.399999976158,760620.1000000238,8040,WL,B,6.0
6,23.807000160217285,distr,36192.999839782715,Tue Jul 29 2025 17:40:23 GMT-0500 (Central Daylight Time),764882.7999999523,B,bu,I,u,188,2,4262.699999928474,760620.1000000238,8040,WL,B,6.0
6,24.29200005531311,distr,35707.99994468689,Tue Jul 29 2025 17:40:23 GMT-0500 (Central Daylight Time),765367.5,B,bui,I,i,470,2,4747.399999976158,760620.1000000238,8040,WL,B,6.0
6,24.692000150680542,distr,35307.99984931946,Tue Jul 29 2025 17:40:23 GMT-0500 (Central Daylight Time),765768.2999999523,B,buil,I,l,381,2,5148.199999928474,760620.1000000238,8040,WL,B,6.0
6,24.925000190734863,distr,35074.99980926514,Tue Jul 29 2025 17:40:23 GMT-0500 (Central Daylight Time),766000.6999999285,B,build,I,d,222,2,5380.599999904633,760620.1000000238,8040,WL,B,6.0
6,25.04100012779236,distr,34958.99987220764,Tue Jul 29 2025 17:40:23 GMT-0500 (Central Daylight Time),766117.0,B,buildi,I,i,102,2,5496.899999976158,760620.1000000238,8040,WL,B,6.0
6,25.193000078201294,distr,34806.999921798706,Tue Jul 29 2025 17:40:23 GMT-0500 (Central Daylight Time),766268.5,B,buildin,I,n,136,2,5648.399999976158,760620.1000000238,8040,WL,B,6.0
6,25.407999992370605,distr,34592.000007629395,Tue Jul 29 2025 17:40:23 GMT-0500 (Central Daylight Time),766484.3999999762,B,building,I,g,203,2,5864.299999952316,760620.1000000238,8040,WL,B,6.0
6,26.542999982833862,distr,33457.00001716614,Tue Jul 29 2025 17:40:23 GMT-0500 (Central Daylight Time),767618.6999999285,B,buildingenter,I,enter,1114,2,6998.599999904633,760620.1000000238,8040,WL,B,6.0
6,26.973999977111816,distr,33026.00002288818,Tue Jul 29 2025 17:40:23 GMT-0500 (Central Daylight Time),768050.5,B,s,I,s,413,2,431.5,767619.0,8040,WL,B,7.0
6,27.341000080108643,distr,32658.999919891357,Tue Jul 29 2025 17:40:23 GMT-0500 (Central Daylight Time),768417.0,B,st,I,t,346,2,798.0,767619.0,8040,WL,B,7.0
6,27.508000135421753,distr,32491.999864578247,Tue Jul 29 2025 17:40:23 GMT-0500 (Central Daylight Time),768583.6999999285,B,ste,I,e,148,2,964.6999999284744,767619.0,8040,WL,B,7.0
6,27.707000017166138,distr,32292.999982833862,Tue Jul 29 2025 17:40:23 GMT-0500 (Central Daylight Time),768782.3999999762,B,stea,I,a,181,2,1163.3999999761581,767619.0,8040,WL,B,7.0
6,28.058000087738037,distr,31941.999912261963,Tue Jul 29 2025 17:40:23 GMT-0500 (Central Daylight Time),769133.3999999762,B,steam,I,m,337,2,1514.3999999761581,767619.0,8040,WL,B,7.0
6,28.842000007629395,distr,31157.999992370605,Tue Jul 29 2025 17:40:23 GMT-0500 (Central Daylight Time),769917.3999999762,B,steamenter,I,enter,767,2,2298.399999976158,767619.0,8040,WL,B,7.0
6,29.174000024795532,distr,30825.999975204468,Tue Jul 29 2025 17:40:23 GMT-0500 (Central Daylight Time),770249.6000000238,B,c,I,c,313,2,331.8000000715256,769917.7999999523,8040,WL,B,8.0
6,29.323000192642212,distr,30676.999807357788,Tue Jul 29 2025 17:40:23 GMT-0500 (Central Daylight Time),770398.8999999762,B,co,I,o,142,2,481.10000002384186,769917.7999999523,8040,WL,B,8.0
6,29.506999969482422,distr,30493.000030517578,Tue Jul 29 2025 17:40:23 GMT-0500 (Central Daylight Time),770583.0,B,coi,I,i,167,2,665.2000000476837,769917.7999999523,8040,WL,B,8.0
6,29.808000087738037,distr,30191.999912261963,Tue Jul 29 2025 17:40:23 GMT-0500 (Central Daylight Time),770884.1000000238,B,coin,I,n,287,2,966.3000000715256,769917.7999999523,8040,WL,B,8.0
6,31.722000122070312,distr,28277.999877929688,Tue Jul 29 2025 17:40:23 GMT-0500 (Central Daylight Time),772798.1000000238,B,coinenter,I,enter,1898,2,2880.3000000715256,769917.7999999523,8040,WL,B,8.0
6,32.07300019264221,distr,27926.999807357788,Tue Jul 29 2025 17:40:23 GMT-0500 (Central Daylight Time),773149.0,B,d,I,d,336,2,350.60000002384186,772798.3999999762,8040,WL,B,9.0
6,32.33899998664856,distr,27661.00001335144,Tue Jul 29 2025 17:40:23 GMT-0500 (Central Daylight Time),773415.1999999285,B,dr,I,r,248,2,616.7999999523163,772798.3999999762,8040,WL,B,9.0
6,32.50699996948242,distr,27493.000030517578,Tue Jul 29 2025 17:40:23 GMT-0500 (Central Daylight Time),773582.7999999523,B,dre,I,e,160,2,784.3999999761581,772798.3999999762,8040,WL,B,9.0
6,32.789000034332275,distr,27210.999965667725,Tue Jul 29 2025 17:40:23 GMT-0500 (Central Daylight Time),773865.1999999285,B,dres,I,s,273,2,1066.7999999523163,772798.3999999762,8040,WL,B,9.0
6,32.98900008201599,distr,27010.99991798401,Tue Jul 29 2025 17:40:23 GMT-0500 (Central Daylight Time),774064.8999999762,B,dress,I,s,180,2,1266.5,772798.3999999762,8040,WL,B,9.0
6,34.47200012207031,distr,25527.999877929688,Tue Jul 29 2025 17:40:23 GMT-0500 (Central Daylight Time),775547.7999999523,B,dressenter,I,enter,1469,2,2749.399999976158,772798.3999999762,8040,WL,B,9.0
6,36.98699998855591,distr,23013.00001144409,Tue Jul 29 2025 17:40:23 GMT-0500 (Central Daylight Time),778063.3999999762,B,a,I,a,2508,2,2515.399999976158,775548.0,8040,WL,B,10.0
6,37.30400013923645,distr,22695.99986076355,Tue Jul 29 2025 17:40:23 GMT-0500 (Central Daylight Time),778380.2999999523,B,ar,I,r,311,2,2832.2999999523163,775548.0,8040,WL,B,10.0
6,37.97000002861023,distr,22029.99997138977,Tue Jul 29 2025 17:40:23 GMT-0500 (Central Daylight Time),779046.2999999523,B,arm,I,m,654,2,3498.2999999523163,775548.0,8040,WL,B,10.0
6,38.3050000667572,distr,21694.999933242798,Tue Jul 29 2025 17:40:23 GMT-0500 (Central Daylight Time),779381.0,B,army,I,y,322,2,3833.0,775548.0,8040,WL,B,10.0
6,38.68600010871887,distr,21313.999891281128,Tue Jul 29 2025 17:40:23 GMT-0500 (Central Daylight Time),779762.6999999285,B,armyenter,I,enter,369,2,4214.699999928474,775548.0,8040,WL,B,10.0
6,39.07100009918213,distr,20928.99990081787,Tue Jul 29 2025 17:40:23 GMT-0500 (Central Daylight Time),780147.6999999285,B,s,I,s,373,2,384.7999999523163,779762.8999999762,8040,WL,B,11.0
6,39.4539999961853,distr,20546.000003814697,Tue Jul 29 2025 17:40:23 GMT-0500 (Central Daylight Time),780530.8999999762,B,st,I,t,363,2,768.0,779762.8999999762,8040,WL,B,11.0
6,39.55299997329712,distr,20447.00002670288,Tue Jul 29 2025 17:40:23 GMT-0500 (Central Daylight Time),780629.5,B,sto,I,o,81,2,866.6000000238419,779762.8999999762,8040,WL,B,11.0
6,39.82300019264221,distr,20176.999807357788,Tue Jul 29 2025 17:40:23 GMT-0500 (Central Daylight Time),780899.0,B,stor,I,r,254,2,1136.1000000238419,779762.8999999762,8040,WL,B,11.0
6,40.33800005912781,distr,19661.999940872192,Tue Jul 29 2025 17:40:23 GMT-0500 (Central Daylight Time),781414.6999999285,B,storm,I,m,511,2,1651.7999999523163,779762.8999999762,8040,WL,B,11.0
6,40.835999965667725,distr,19164.000034332275,Tue Jul 29 2025 17:40:23 GMT-0500 (Central Daylight Time),781912.1999999285,B,stormenter,I,enter,477,2,2149.2999999523163,779762.8999999762,8040,WL,B,11.0
6,41.26900005340576,distr,18730.99994659424,Tue Jul 29 2025 17:40:23 GMT-0500 (Central Daylight Time),782345.5,B,c,I,c,423,2,433.0,781912.5,8040,WL,B,12.0
6,41.503000020980835,distr,18496.999979019165,Tue Jul 29 2025 17:40:23 GMT-0500 (Central Daylight Time),782579.7999999523,B,ce,I,e,221,2,667.2999999523163,781912.5,8040,WL,B,12.0
6,41.753000020980835,distr,18246.999979019165,Tue Jul 29 2025 17:40:23 GMT-0500 (Central Daylight Time),782829.0,B,cel,I,l,236,2,916.5,781912.5,8040,WL,B,12.0
6,41.920000076293945,distr,18079.999923706055,Tue Jul 29 2025 17:40:23 GMT-0500 (Central Daylight Time),782995.8999999762,B,cell,I,l,154,2,1083.3999999761581,781912.5,8040,WL,B,12.0
6,43.55299997329712,distr,16447.00002670288,Tue Jul 29 2025 17:40:23 GMT-0500 (Central Daylight Time),784629.0,B,cellenter,I,enter,1620,2,2716.5,781912.5,8040,WL,B,12.0
6,43.902000188827515,distr,16097.999811172485,Tue Jul 29 2025 17:40:23 GMT-0500 (Central Daylight Time),784978.6000000238,B,d,I,d,338,2,349.40000009536743,784629.1999999285,8040,WL,B,13.0
6,44.21900010108948,distr,15780.999898910522,Tue Jul 29 2025 17:40:23 GMT-0500 (Central Daylight Time),785295.1000000238,B,dr,I,r,311,2,665.9000000953674,784629.1999999285,8040,WL,B,13.0
6,44.617000102996826,distr,15382.999897003174,Tue Jul 29 2025 17:40:23 GMT-0500 (Central Daylight Time),785692.7999999523,B,d,I,backspace,382,2,1063.6000000238419,784629.1999999285,8040,WL,B,13.0
6,44.78600001335144,distr,15213.99998664856,Tue Jul 29 2025 17:40:23 GMT-0500 (Central Daylight Time),785862.1999999285,B,,I,backspace,156,2,1233.0,784629.1999999285,8040,WL,B,13.0
6,44.95099997520447,distr,15049.000024795532,Tue Jul 29 2025 17:40:23 GMT-0500 (Central Daylight Time),786027.1000000238,B,f,I,f,143,2,1397.9000000953674,784629.1999999285,8040,WL,B,13.0
6,45.170000076293945,distr,14829.999923706055,Tue Jul 29 2025 17:40:23 GMT-0500 (Central Daylight Time),786246.2999999523,B,fr,I,r,213,2,1617.1000000238419,784629.1999999285,8040,WL,B,13.0
6,45.25200009346008,distr,14747.999906539917,Tue Jul 29 2025 17:40:23 GMT-0500 (Central Daylight Time),786328.1000000238,B,fri,I,i,65,2,1698.9000000953674,784629.1999999285,8040,WL,B,13.0
6,45.43500018119812,distr,14564.99981880188,Tue Jul 29 2025 17:40:23 GMT-0500 (Central Daylight Time),786511.7999999523,B,frie,I,e,165,2,1882.6000000238419,784629.1999999285,8040,WL,B,13.0
6,45.66700005531311,distr,14332.99994468689,Tue Jul 29 2025 17:40:23 GMT-0500 (Central Daylight Time),786743.7999999523,B,frien,I,n,214,2,2114.600000023842,784629.1999999285,8040,WL,B,13.0
6,46.03500008583069,distr,13964.999914169312,Tue Jul 29 2025 17:40:23 GMT-0500 (Central Daylight Time),787111.2999999523,B,friend,I,d,349,2,2482.100000023842,784629.1999999285,8040,WL,B,13.0
6,46.50100016593933,distr,13498.999834060669,Tue Jul 29 2025 17:40:23 GMT-0500 (Central Daylight Time),787577.5,B,friendenter,I,enter,456,2,2948.3000000715256,784629.1999999285,8040,WL,B,13.0
6,59.129000186920166,distr,870.999813079834,Tue Jul 29 2025 17:40:23 GMT-0500 (Central Daylight Time),800205.6000000238,B,b,I,b,12612,2,12627.900000095367,787577.6999999285,8040,WL,B,14.0
6,59.28200006484985,distr,717.9999351501465,Tue Jul 29 2025 17:40:23 GMT-0500 (Central Daylight Time),800358.6999999285,B,ba,I,a,147,2,12781.0,787577.6999999285,8040,WL,B,14.0
6,59.52999997138977,distr,470.0000286102295,Tue Jul 29 2025 17:40:23 GMT-0500 (Central Daylight Time),800606.1999999285,B,bar,I,r,239,2,13028.5,787577.6999999285,8040,WL,B,14.0
6,59.7960000038147,distr,203.99999618530273,Tue Jul 29 2025 17:40:23 GMT-0500 (Central Daylight Time),800872.5,B,barenter,I,enter,246,2,13294.800000071526,787577.6999999285,8040,WL,B,14.0
6,60.015000104904175,distr,-15.000104904174805,Tue Jul 29 2025 17:40:23 GMT-0500 (Central Daylight Time),801091.0,B,None,I,None,214,2,218.10000002384186,800872.8999999762,8040,WL,B,15.0
7,8.746999979019165,immed,51253.000020980835,Tue Jul 29 2025 17:40:23 GMT-0500 (Central Daylight Time),812820.3999999762,A,s,I,s,8734,2,8746.799999952316,804073.6000000238,8040,WL,B,1.0
7,9.046000003814697,immed,50953.9999961853,Tue Jul 29 2025 17:40:23 GMT-0500 (Central Daylight Time),813118.8999999762,A,st,I,t,283,2,9045.299999952316,804073.6000000238,8040,WL,B,1.0
7,9.296000003814697,immed,50703.9999961853,Tue Jul 29 2025 17:40:23 GMT-0500 (Central Daylight Time),813369.1000000238,A,str,I,r,240,2,9295.5,804073.6000000238,8040,WL,B,1.0
7,9.54800009727478,immed,50451.99990272522,Tue Jul 29 2025 17:40:23 GMT-0500 (Central Daylight Time),813620.8999999762,A,stre,I,e,246,2,9547.299999952316,804073.6000000238,8040,WL,B,1.0
7,9.713000059127808,immed,50286.99994087219,Tue Jul 29 2025 17:40:23 GMT-0500 (Central Daylight Time),813786.6000000238,A,stree,I,e,145,2,9713.0,804073.6000000238,8040,WL,B,1.0
7,10.09600019454956,immed,49903.99980545044,Tue Jul 29 2025 17:40:23 GMT-0500 (Central Daylight Time),814169.0,A,street,I,t,372,2,10095.399999976158,804073.6000000238,8040,WL,B,1.0
7,11.062000036239624,immed,48937.999963760376,Tue Jul 29 2025 17:40:23 GMT-0500 (Central Daylight Time),815135.6000000238,A,streetenter,I,enter,949,2,11062.0,804073.6000000238,8040,WL,B,1.0
7,11.629000186920166,immed,48370.999813079834,Tue Jul 29 2025 17:40:23 GMT-0500 (Central Daylight Time),815702.3999999762,A,g,I,g,563,2,566.6000000238419,815135.7999999523,8040,WL,B,2.0
7,11.880000114440918,immed,48119.99988555908,Tue Jul 29 2025 17:40:23 GMT-0500 (Central Daylight Time),815953.3999999762,A,gr,I,r,232,2,817.6000000238419,815135.7999999523,8040,WL,B,2.0
7,12.078999996185303,immed,47921.0000038147,Tue Jul 29 2025 17:40:23 GMT-0500 (Central Daylight Time),816152.2999999523,A,gra,I,a,181,2,1016.5,815135.7999999523,8040,WL,B,2.0
7,12.361000061035156,immed,47638.999938964844,Tue Jul 29 2025 17:40:23 GMT-0500 (Central Daylight Time),816434.6000000238,A,gras,I,s,262,2,1298.8000000715256,815135.7999999523,8040,WL,B,2.0
7,12.562000036239624,immed,47437.999963760376,Tue Jul 29 2025 17:40:23 GMT-0500 (Central Daylight Time),816635.1000000238,A,grass,I,s,178,2,1499.3000000715256,815135.7999999523,8040,WL,B,2.0
7,13.296000003814697,immed,46703.9999961853,Tue Jul 29 2025 17:40:23 GMT-0500 (Central Daylight Time),817369.3999999762,A,grassenter,I,enter,723,2,2233.600000023842,815135.7999999523,8040,WL,B,2.0
7,14.42900013923645,immed,45570.99986076355,Tue Jul 29 2025 17:40:23 GMT-0500 (Central Daylight Time),818502.1000000238,A,w,I,w,1128,2,1132.5,817369.6000000238,8040,WL,B,3.0
7,14.57800006866455,immed,45421.99993133545,Tue Jul 29 2025 17:40:23 GMT-0500 (Central Daylight Time),818650.8999999762,A,wi,I,i,128,2,1281.2999999523163,817369.6000000238,8040,WL,B,3.0
7,14.811000108718872,immed,45188.99989128113,Tue Jul 29 2025 17:40:23 GMT-0500 (Central Daylight Time),818883.7999999523,A,win,I,n,219,2,1514.1999999284744,817369.6000000238,8040,WL,B,3.0
7,14.995000123977661,immed,45004.99987602234,Tue Jul 29 2025 17:40:23 GMT-0500 (Central Daylight Time),819068.2999999523,A,wind,I,d,171,2,1698.6999999284744,817369.6000000238,8040,WL,B,3.0
7,15.629000186920166,immed,44370.999813079834,Tue Jul 29 2025 17:40:23 GMT-0500 (Central Daylight Time),819701.8999999762,A,windo,I,o,627,2,2332.2999999523163,817369.6000000238,8040,WL,B,3.0
7,16.061000108718872,immed,43938.99989128113,Tue Jul 29 2025 17:40:23 GMT-0500 (Central Daylight Time),820134.2999999523,A,window,I,w,417,2,2764.6999999284744,817369.6000000238,8040,WL,B,3.0
7,16.47699999809265,immed,43523.00000190735,Tue Jul 29 2025 17:40:23 GMT-0500 (Central Daylight Time),820550.1000000238,A,windowenter,I,enter,399,2,3180.5,817369.6000000238,8040,WL,B,3.0
7,16.82800006866455,immed,43171.99993133545,Tue Jul 29 2025 17:40:23 GMT-0500 (Central Daylight Time),820901.3999999762,A,d,I,d,338,2,351.0,820550.3999999762,8040,WL,B,4.0
7,16.960000038146973,immed,43039.99996185303,Tue Jul 29 2025 17:40:23 GMT-0500 (Central Daylight Time),821033.1000000238,A,do,I,o,120,2,482.7000000476837,820550.3999999762,8040,WL,B,4.0
7,17.177000045776367,immed,42822.99995422363,Tue Jul 29 2025 17:40:23 GMT-0500 (Central Daylight Time),821250.7999999523,A,dor,I,r,197,2,700.3999999761581,820550.3999999762,8040,WL,B,4.0
7,17.3270001411438,immed,42672.9998588562,Tue Jul 29 2025 17:40:23 GMT-0500 (Central Daylight Time),821400.6999999285,A,dorr,I,r,132,2,850.2999999523163,820550.3999999762,8040,WL,B,4.0
7,17.796000003814697,immed,42203.9999961853,Tue Jul 29 2025 17:40:23 GMT-0500 (Central Daylight Time),821869.0,A,dor,I,backspace,462,2,1318.6000000238419,820550.3999999762,8040,WL,B,4.0
7,17.927000045776367,immed,42072.99995422363,Tue Jul 29 2025 17:40:23 GMT-0500 (Central Daylight Time),822000.2999999523,A,do,I,backspace,122,2,1449.8999999761581,820550.3999999762,8040,WL,B,4.0
7,18.159000158309937,immed,41840.99984169006,Tue Jul 29 2025 17:40:23 GMT-0500 (Central Daylight Time),822232.6000000238,A,doo,I,o,223,2,1682.2000000476837,820550.3999999762,8040,WL,B,4.0
7,18.41000008583069,immed,41589.99991416931,Tue Jul 29 2025 17:40:23 GMT-0500 (Central Daylight Time),822483.6000000238,A,door,I,r,237,2,1933.2000000476837,820550.3999999762,8040,WL,B,4.0
7,18.80900001525879,immed,41190.99998474121,Tue Jul 29 2025 17:40:23 GMT-0500 (Central Daylight Time),822882.5,A,doorenter,I,enter,386,2,2332.100000023842,820550.3999999762,8040,WL,B,4.0
7,19.177000045776367,immed,40822.99995422363,Tue Jul 29 2025 17:40:23 GMT-0500 (Central Daylight Time),823250.5,A,a,I,a,357,2,367.8000000715256,822882.6999999285,8040,WL,B,5.0
7,19.427000045776367,immed,40572.99995422363,Tue Jul 29 2025 17:40:23 GMT-0500 (Central Daylight Time),823500.3999999762,A,ar,I,r,236,2,617.7000000476837,822882.6999999285,8040,WL,B,5.0
7,19.611000061035156,immed,40388.999938964844,Tue Jul 29 2025 17:40:23 GMT-0500 (Central Daylight Time),823684.6000000238,A,arm,I,m,168,2,801.9000000953674,822882.6999999285,8040,WL,B,5.0
7,20.076000213623047,immed,39923.99978637695,Tue Jul 29 2025 17:40:23 GMT-0500 (Central Daylight Time),824149.6999999285,A,armenter,I,enter,455,2,1267.0,822882.6999999285,8040,WL,B,5.0
7,20.542999982833862,immed,39457.00001716614,Tue Jul 29 2025 17:40:23 GMT-0500 (Central Daylight Time),824616.1000000238,A,w,I,w,451,2,466.10000002384186,824150.0,8040,WL,B,6.0
7,20.743000030517578,immed,39256.99996948242,Tue Jul 29 2025 17:40:23 GMT-0500 (Central Daylight Time),824815.8999999762,A,wi,I,i,176,2,665.8999999761581,824150.0,8040,WL,B,6.0
7,20.97699999809265,immed,39023.00000190735,Tue Jul 29 2025 17:40:23 GMT-0500 (Central Daylight Time),825050.1000000238,A,wif,I,f,209,2,900.1000000238419,824150.0,8040,WL,B,6.0
7,21.2260000705719,immed,38773.9999294281,Tue Jul 29 2025 17:40:23 GMT-0500 (Central Daylight Time),825300.2999999523,A,wife,I,e,223,2,1150.2999999523163,824150.0,8040,WL,B,6.0
7,22.19099998474121,immed,37809.00001525879,Tue Jul 29 2025 17:40:23 GMT-0500 (Central Daylight Time),826264.6999999285,A,wifeenter,I,enter,944,2,2114.6999999284744,824150.0,8040,WL,B,6.0
7,24.725000143051147,immed,35274.99985694885,Tue Jul 29 2025 17:40:23 GMT-0500 (Central Daylight Time),828798.0,A,c,I,c,2527,2,2533.100000023842,826264.8999999762,8040,WL,B,7.0
7,24.874000072479248,immed,35125.99992752075,Tue Jul 29 2025 17:40:23 GMT-0500 (Central Daylight Time),828947.3999999762,A,ci,I,i,135,2,2682.5,826264.8999999762,8040,WL,B,7.0
7,25.157000064849854,immed,34842.99993515015,Tue Jul 29 2025 17:40:23 GMT-0500 (Central Daylight Time),829229.7999999523,A,cit,I,t,265,2,2964.899999976158,826264.8999999762,8040,WL,B,7.0
7,25.323000192642212,immed,34676.99980735779,Tue Jul 29 2025 17:40:23 GMT-0500 (Central Daylight Time),829396.0,A,city,I,y,154,2,3131.100000023842,826264.8999999762,8040,WL,B,7.0
7,25.95900011062622,immed,34040.99988937378,Tue Jul 29 2025 17:40:23 GMT-0500 (Central Daylight Time),830032.6000000238,A,cityenter,I,enter,620,2,3767.7000000476837,826264.8999999762,8040,WL,B,7.0
7,26.493000030517578,immed,33506.99996948242,Tue Jul 29 2025 17:40:23 GMT-0500 (Central Daylight Time),830565.8999999762,A,l,I,l,529,2,533.1000000238419,830032.7999999523,8040,WL,B,8.0
7,26.609000205993652,immed,33390.99979400635,Tue Jul 29 2025 17:40:23 GMT-0500 (Central Daylight Time),830681.7999999523,A,la,I,a,100,2,649.0,830032.7999999523,8040,WL,B,8.0
7,26.825000047683716,immed,33174.999952316284,Tue Jul 29 2025 17:40:23 GMT-0500 (Central Daylight Time),830898.3999999762,A,lak,I,k,200,2,865.6000000238419,830032.7999999523,8040,WL,B,8.0
7,26.95800018310547,immed,33041.99981689453,Tue Jul 29 2025 17:40:23 GMT-0500 (Central Daylight Time),831030.7999999523,A,lake,I,e,121,2,998.0,830032.7999999523,8040,WL,B,8.0
7,27.324000120162964,immed,32675.999879837036,Tue Jul 29 2025 17:40:23 GMT-0500 (Central Daylight Time),831396.8999999762,A,lakeenter,I,enter,350,2,1364.1000000238419,830032.7999999523,8040,WL,B,8.0
7,27.759000062942505,immed,32240.999937057495,Tue Jul 29 2025 17:40:23 GMT-0500 (Central Daylight Time),831831.7999999523,A,c,I,c,428,2,434.60000002384186,831397.1999999285,8040,WL,B,9.0
7,27.909000158309937,immed,32090.999841690063,Tue Jul 29 2025 17:40:23 GMT-0500 (Central Daylight Time),831982.0,A,ca,I,a,142,2,584.8000000715256,831397.1999999285,8040,WL,B,9.0
7,28.17300009727478,immed,31826.99990272522,Tue Jul 29 2025 17:40:23 GMT-0500 (Central Daylight Time),832246.6000000238,A,cab,I,b,251,2,849.4000000953674,831397.1999999285,8040,WL,B,9.0
7,28.325000047683716,immed,31674.999952316284,Tue Jul 29 2025 17:40:23 GMT-0500 (Central Daylight Time),832398.6000000238,A,cabi,I,i,144,2,1001.4000000953674,831397.1999999285,8040,WL,B,9.0
7,28.473999977111816,immed,31526.000022888184,Tue Jul 29 2025 17:40:23 GMT-0500 (Central Daylight Time),832547.5,A,cabin,I,n,127,2,1150.3000000715256,831397.1999999285,8040,WL,B,9.0
7,29.407000064849854,immed,30592.999935150146,Tue Jul 29 2025 17:40:23 GMT-0500 (Central Daylight Time),833480.1999999285,A,cabinenter,I,enter,922,2,2083.0,831397.1999999285,8040,WL,B,9.0
7,31.223999977111816,immed,28776.000022888184,Tue Jul 29 2025 17:40:23 GMT-0500 (Central Daylight Time),835296.7999999523,A,s,I,s,1799,2,1816.2999999523163,833480.5,8040,WL,B,10.0
7,31.356000185012817,immed,28643.999814987183,Tue Jul 29 2025 17:40:23 GMT-0500 (Central Daylight Time),835428.8999999762,A,sk,I,k,121,2,1948.3999999761581,833480.5,8040,WL,B,10.0
7,31.555999994277954,immed,28444.000005722046,Tue Jul 29 2025 17:40:23 GMT-0500 (Central Daylight Time),835629.3999999762,A,ski,I,i,196,2,2148.899999976158,833480.5,8040,WL,B,10.0
7,31.758000135421753,immed,28241.999864578247,Tue Jul 29 2025 17:40:23 GMT-0500 (Central Daylight Time),835831.2999999523,A,skin,I,n,194,2,2350.7999999523163,833480.5,8040,WL,B,10.0
7,32.34000015258789,immed,27659.99984741211,Tue Jul 29 2025 17:40:23 GMT-0500 (Central Daylight Time),836413.1000000238,A,skinenter,I,enter,574,2,2932.600000023842,833480.5,8040,WL,B,10.0
7,32.9060001373291,immed,27093.9998626709,Tue Jul 29 2025 17:40:23 GMT-0500 (Central Daylight Time),836978.8999999762,A,p,I,p,554,2,565.6000000238419,836413.2999999523,8040,WL,B,11.0
7,33.188000202178955,immed,26811.999797821045,Tue Jul 29 2025 17:40:23 GMT-0500 (Central Daylight Time),837261.6000000238,A,pi,I,i,265,2,848.3000000715256,836413.2999999523,8040,WL,B,11.0
