acc_sum,block,block_c,change,condition,correct,correct_response,datetime,endtime,face,project,response,response_time,row_sel,session_number,start_end,starttime,subject_id,task,task_vers,trial
0,prac,1,,1-Back,,,Wed Jun 03 2026 17:14:01 GMT-0500 (Central Daylight Time),,124_o_f_d_a.png,I,space,3355,1,3,,,8084,VNB,A,0
1,prac,1,0.0,1-Back,1.0,m,Wed Jun 03 2026 17:14:01 GMT-0500 (Central Daylight Time),153806.10000002384,071_y_f_n_a.png,I,m,845,2,3,1640.8000000715256,152165.29999995232,8084,VNB,A,1
2,prac,1,0.0,1-Back,1.0,m,Wed Jun 03 2026 17:14:01 GMT-0500 (Central Daylight Time),155639.0,165_m_m_h_a.png,I,m,1026,3,3,1828.8999999761581,153810.10000002384,8084,VNB,A,2
3,prac,1,0.0,1-Back,1.0,m,Wed Jun 03 2026 17:14:01 GMT-0500 (Central Daylight Time),157438.39999997616,109_y_m_d_a.png,I,m,994,4,3,1791.6000000238419,155646.79999995232,8084,VNB,A,3
4,prac,1,0.0,1-Back,1.0,m,Wed Jun 03 2026 17:14:01 GMT-0500 (Central Daylight Time),159171.20000004768,124_o_f_n_a.png,I,m,901,5,3,1728.8000000715256,157442.39999997616,8084,VNB,A,4
5,prac,1,1.0,1-Back,1.0,z,Wed Jun 03 2026 17:14:01 GMT-0500 (Central Daylight Time),161037.20000004768,109_y_m_n_a.png,I,z,1043,6,3,1857.6000000238419,159179.60000002384,8084,VNB,A,5
6,prac,1,0.0,1-Back,1.0,m,Wed Jun 03 2026 17:14:01 GMT-0500 (Central Daylight Time),162753.70000004768,039_o_m_h_a.png,I,m,909,7,3,1712.2000000476837,161041.5,8084,VNB,A,6
7,prac,1,0.0,1-Back,1.0,m,Wed Jun 03 2026 17:14:01 GMT-0500 (Central Daylight Time),164519.5,139_m_f_d_a.png,I,m,955,8,3,1757.6000000238419,162761.89999997616,8084,VNB,A,7
8,prac,1,1.0,1-Back,1.0,z,Wed Jun 03 2026 17:14:01 GMT-0500 (Central Daylight Time),166085.29999995232,071_y_f_d_a.png,I,z,760,9,3,1561.1999999284744,164524.10000002384,8084,VNB,A,8
9,prac,1,0.0,1-Back,1.0,m,Wed Jun 03 2026 17:14:01 GMT-0500 (Central Daylight Time),167768.5,165_m_m_n_a.png,I,m,878,10,3,1674.7999999523163,166093.70000004768,8084,VNB,A,9
10,prac,1,0.0,1-Back,1.0,m,Wed Jun 03 2026 17:14:01 GMT-0500 (Central Daylight Time),169484.79999995232,124_o_f_h_a.png,I,m,887,11,3,1712.0999999046326,167772.70000004768,8084,VNB,A,10
11,prac,1,0.0,1-Back,1.0,m,Wed Jun 03 2026 17:14:01 GMT-0500 (Central Daylight Time),171200.79999995232,109_y_m_d_a.png,I,m,938,12,3,1708.7999999523163,169492.0,8084,VNB,A,11
0,test,1,0.0,1-Back,,,Wed Jun 03 2026 17:14:01 GMT-0500 (Central Daylight Time),171200.79999995232,071_y_f_d_a.png,I,space,7177,1,3,1708.7999999523163,169492.0,8084,VNB,A,0
1,test,1,0.0,1-Back,1.0,m,Wed Jun 03 2026 17:14:01 GMT-0500 (Central Daylight Time),189445.0,139_m_f_n_a.png,I,m,843,2,3,1860.7999999523163,187584.20000004768,8084,VNB,A,1
2,test,1,0.0,1-Back,1.0,m,Wed Jun 03 2026 17:14:01 GMT-0500 (Central Daylight Time),191194.29999995232,039_o_m_h_a.png,I,m,720,3,3,1746.0999999046326,189448.20000004768,8084,VNB,A,2
3,test,1,1.0,1-Back,1.0,z,Wed Jun 03 2026 17:14:01 GMT-0500 (Central Daylight Time),192977.20000004768,165_m_m_h_a.png,I,z,764,4,3,1780.0,191197.20000004768,8084,VNB,A,3
4,test,1,0.0,1-Back,1.0,m,Wed Jun 03 2026 17:14:01 GMT-0500 (Central Daylight Time),194759.70000004768,124_o_f_n_a.png,I,m,764,5,3,1779.8000000715256,192979.89999997616,8084,VNB,A,4
5,test,1,0.0,1-Back,1.0,m,Wed Jun 03 2026 17:14:01 GMT-0500 (Central Daylight Time),196542.79999995232,109_y_m_d_a.png,I,m,766,6,3,1780.5999999046326,194762.20000004768,8084,VNB,A,5
6,test,1,1.0,1-Back,1.0,z,Wed Jun 03 2026 17:14:01 GMT-0500 (Central Daylight Time),198342.10000002384,139_m_f_d_a.png,I,z,779,7,3,1796.7000000476837,196545.39999997616,8084,VNB,A,6
7,test,1,0.0,1-Back,1.0,m,Wed Jun 03 2026 17:14:01 GMT-0500 (Central Daylight Time),200092.89999997616,071_y_f_h_a.png,I,m,727,8,3,1748.1000000238419,198344.79999995232,8084,VNB,A,7
8,test,1,0.0,1-Back,1.0,m,Wed Jun 03 2026 17:14:01 GMT-0500 (Central Daylight Time),201974.29999995232,039_o_m_n_a.png,I,m,850,9,3,1878.6999999284744,200095.60000002384,8084,VNB,A,8
9,test,1,0.0,1-Back,1.0,m,Wed Jun 03 2026 17:14:01 GMT-0500 (Central Daylight Time),203790.39999997616,109_y_m_h_a.png,I,m,799,10,3,1813.6999999284744,201976.70000004768,8084,VNB,A,9
10,test,1,0.0,1-Back,1.0,m,Wed Jun 03 2026 17:14:01 GMT-0500 (Central Daylight Time),205606.60000002384,039_o_m_d_a.png,I,m,784,11,3,1813.3999999761581,203793.20000004768,8084,VNB,A,10
11,test,1,1.0,1-Back,1.0,z,Wed Jun 03 2026 17:14:01 GMT-0500 (Central Daylight Time),207489.39999997616,124_o_f_d_a.png,I,z,855,12,3,1880.1000000238419,205609.29999995232,8084,VNB,A,11
12,test,1,0.0,1-Back,1.0,m,Wed Jun 03 2026 17:14:01 GMT-0500 (Central Daylight Time),209255.5,165_m_m_n_a.png,I,m,740,13,3,1763.0,207492.5,8084,VNB,A,12
13,test,1,1.0,1-Back,1.0,z,Wed Jun 03 2026 17:14:01 GMT-0500 (Central Daylight Time),211155.0,071_y_f_n_a.png,I,z,879,14,3,1896.2999999523163,209258.70000004768,8084,VNB,A,13
14,test,1,0.0,1-Back,1.0,m,Wed Jun 03 2026 17:14:01 GMT-0500 (Central Daylight Time),212987.5,139_m_f_h_a.png,I,m,802,15,3,1829.8999999761581,211157.60000002384,8084,VNB,A,14
15,test,1,0.0,1-Back,1.0,m,Wed Jun 03 2026 17:14:01 GMT-0500 (Central Daylight Time),214937.20000004768,165_m_m_d_a.png,I,m,922,16,3,1947.1000000238419,212990.10000002384,8084,VNB,A,15
16,test,1,0.0,1-Back,1.0,m,Wed Jun 03 2026 17:14:01 GMT-0500 (Central Daylight Time),217003.10000002384,109_y_m_n_a.png,I,m,1036,17,3,2063.100000023842,214940.0,8084,VNB,A,16
17,test,1,0.0,1-Back,1.0,m,Wed Jun 03 2026 17:14:01 GMT-0500 (Central Daylight Time),218819.0,124_o_f_h_a.png,I,m,787,18,3,1813.2999999523163,217005.70000004768,8084,VNB,A,17
0,test,2,0.0,1-Back,,,Wed Jun 03 2026 17:14:01 GMT-0500 (Central Daylight Time),218819.0,109_y_m_n_a.png,I,space,1211,1,3,1813.2999999523163,217005.70000004768,8084,VNB,A,0
1,test,2,0.0,1-Back,1.0,m,Wed Jun 03 2026 17:14:01 GMT-0500 (Central Daylight Time),224200.79999995232,071_y_f_h_a.png,I,m,1123,2,3,2144.0999999046326,222056.70000004768,8084,VNB,A,1
2,test,2,1.0,1-Back,1.0,m,Wed Jun 03 2026 17:14:01 GMT-0500 (Central Daylight Time),225883.39999997616,039_o_m_n_a.png,I,m,652,3,3,1679.7999999523163,224203.60000002384,8084,VNB,A,2
3,test,2,0.0,1-Back,1.0,m,Wed Jun 03 2026 17:14:01 GMT-0500 (Central Daylight Time),227566.29999995232,139_m_f_d_a.png,I,m,658,4,3,1680.1999999284744,225886.10000002384,8084,VNB,A,3
4,test,2,0.0,1-Back,1.0,z,Wed Jun 03 2026 17:14:01 GMT-0500 (Central Daylight Time),229299.29999995232,165_m_m_d_a.png,I,z,704,5,3,1729.7999999523163,227569.5,8084,VNB,A,4
5,test,2,0.0,1-Back,1.0,m,Wed Jun 03 2026 17:14:01 GMT-0500 (Central Daylight Time),231098.60000002384,109_y_m_h_a.png,I,m,779,6,3,1796.6000000238419,229302.0,8084,VNB,A,5
6,test,2,1.0,1-Back,1.0,z,Wed Jun 03 2026 17:14:01 GMT-0500 (Central Daylight Time),232781.0,124_o_f_h_a.png,I,z,659,7,3,1679.5,231101.5,8084,VNB,A,6
7,test,2,0.0,1-Back,1.0,m,Wed Jun 03 2026 17:14:01 GMT-0500 (Central Daylight Time),234397.20000004768,139_m_f_n_a.png,I,m,584,8,3,1613.4000000953674,232783.79999995232,8084,VNB,A,7
8,test,2,0.0,1-Back,1.0,m,Wed Jun 03 2026 17:14:01 GMT-0500 (Central Daylight Time),236196.60000002384,071_y_f_d_a.png,I,m,768,9,3,1796.7000000476837,234399.89999997616,8084,VNB,A,8
9,test,2,0.0,1-Back,1.0,m,Wed Jun 03 2026 17:14:01 GMT-0500 (Central Daylight Time),238046.10000002384,165_m_m_n_a.png,I,m,816,10,3,1846.7000000476837,236199.39999997616,8084,VNB,A,9
10,test,2,1.0,1-Back,1.0,m,Wed Jun 03 2026 17:14:01 GMT-0500 (Central Daylight Time),239796.10000002384,139_m_f_h_a.png,I,m,720,11,3,1747.6000000238419,238048.5,8084,VNB,A,10
11,test,2,0.0,1-Back,1.0,z,Wed Jun 03 2026 17:14:01 GMT-0500 (Central Daylight Time),241595.5,039_o_m_h_a.png,I,z,770,12,3,1797.0,239798.5,8084,VNB,A,11
12,test,2,0.0,1-Back,1.0,m,Wed Jun 03 2026 17:14:01 GMT-0500 (Central Daylight Time),243294.79999995232,109_y_m_d_a.png,I,m,667,13,3,1696.5,241598.29999995232,8084,VNB,A,12
13,test,2,0.0,1-Back,1.0,m,Wed Jun 03 2026 17:14:01 GMT-0500 (Central Daylight Time),245112.0,124_o_f_n_a.png,I,m,702,14,3,1814.2000000476837,243297.79999995232,8084,VNB,A,13
14,test,2,0.0,1-Back,1.0,z,Wed Jun 03 2026 17:14:01 GMT-0500 (Central Daylight Time),246843.60000002384,071_y_f_n_a.png,I,z,704,15,3,1728.3999999761581,245115.20000004768,8084,VNB,A,14
15,test,2,1.0,1-Back,1.0,m,Wed Jun 03 2026 17:14:01 GMT-0500 (Central Daylight Time),248576.39999997616,165_m_m_h_a.png,I,m,715,16,3,1730.1000000238419,246846.29999995232,8084,VNB,A,15
16,test,2,0.0,1-Back,1.0,m,Wed Jun 03 2026 17:14:01 GMT-0500 (Central Daylight Time),250359.0,124_o_f_d_a.png,I,m,758,17,3,1780.2000000476837,248578.79999995232,8084,VNB,A,16
17,test,2,1.0,1-Back,1.0,z,Wed Jun 03 2026 17:14:01 GMT-0500 (Central Daylight Time),251908.70000004768,039_o_m_d_a.png,I,z,518,18,3,1547.0,250361.70000004768,8084,VNB,A,17
0,test,3,1.0,1-Back,,,Wed Jun 03 2026 17:14:01 GMT-0500 (Central Daylight Time),251908.70000004768,124_o_f_h_a.png,I,space,1242,1,3,1547.0,250361.70000004768,8084,VNB,A,0
1,test,3,0.0,1-Back,1.0,m,Wed Jun 03 2026 17:14:01 GMT-0500 (Central Daylight Time),256840.60000002384,139_m_f_d_a.png,I,m,614,2,3,1627.7000000476837,255212.89999997616,8084,VNB,A,1
2,test,3,1.0,1-Back,1.0,m,Wed Jun 03 2026 17:14:01 GMT-0500 (Central Daylight Time),258656.60000002384,165_m_m_n_a.png,I,m,790,3,3,1813.2000000476837,256843.39999997616,8084,VNB,A,2
3,test,3,0.0,1-Back,1.0,z,Wed Jun 03 2026 17:14:01 GMT-0500 (Central Daylight Time),260422.89999997616,124_o_f_n_a.png,I,z,741,4,3,1763.3999999761581,258659.5,8084,VNB,A,3
4,test,3,1.0,1-Back,1.0,m,Wed Jun 03 2026 17:14:01 GMT-0500 (Central Daylight Time),262072.0,039_o_m_d_a.png,I,m,632,5,3,1646.6000000238419,260425.39999997616,8084,VNB,A,4
5,test,3,0.0,1-Back,1.0,m,Wed Jun 03 2026 17:14:01 GMT-0500 (Central Daylight Time),263871.7999999523,071_y_f_h_a.png,I,m,773,6,3,1797.2999999523163,262074.5,8084,VNB,A,5
6,test,3,0.0,1-Back,1.0,z,Wed Jun 03 2026 17:14:01 GMT-0500 (Central Daylight Time),265421.10000002384,109_y_m_h_a.png,I,z,527,7,3,1546.8999999761581,263874.2000000477,8084,VNB,A,6
7,test,3,0.0,1-Back,1.0,m,Wed Jun 03 2026 17:14:01 GMT-0500 (Central Daylight Time),267020.7000000477,139_m_f_n_a.png,I,m,569,8,3,1596.3000000715256,265424.39999997616,8084,VNB,A,7
8,test,3,0.0,1-Back,1.0,m,Wed Jun 03 2026 17:14:01 GMT-0500 (Central Daylight Time),268820.0,071_y_f_d_a.png,I,m,716,9,3,1796.5,267023.5,8084,VNB,A,8
9,test,3,1.0,1-Back,1.0,m,Wed Jun 03 2026 17:14:01 GMT-0500 (Central Daylight Time),270503.0,039_o_m_n_a.png,I,m,658,10,3,1680.5,268822.5,8084,VNB,A,9
10,test,3,0.0,1-Back,1.0,m,Wed Jun 03 2026 17:14:01 GMT-0500 (Central Daylight Time),272435.7000000477,165_m_m_h_a.png,I,m,904,11,3,1930.0,270505.7000000477,8084,VNB,A,10
11,test,3,0.0,1-Back,1.0,z,Wed Jun 03 2026 17:14:01 GMT-0500 (Central Daylight Time),274251.7999999523,139_m_f_h_a.png,I,z,786,12,3,1813.5,272438.2999999523,8084,VNB,A,11
12,test,3,1.0,1-Back,1.0,m,Wed Jun 03 2026 17:14:01 GMT-0500 (Central Daylight Time),275901.2999999523,124_o_f_d_a.png,I,m,618,13,3,1646.7999999523163,274254.5,8084,VNB,A,12
13,test,3,0.0,1-Back,1.0,z,Wed Jun 03 2026 17:14:01 GMT-0500 (Central Daylight Time),277834.10000002384,165_m_m_d_a.png,I,z,904,14,3,1930.2000000476837,275903.89999997616,8084,VNB,A,13
14,test,3,0.0,1-Back,1.0,m,Wed Jun 03 2026 17:14:01 GMT-0500 (Central Daylight Time),279566.89999997616,109_y_m_n_a.png,I,m,716,15,3,1730.0,277836.89999997616,8084,VNB,A,14
15,test,3,1.0,1-Back,1.0,m,Wed Jun 03 2026 17:14:01 GMT-0500 (Central Daylight Time),281216.2999999523,039_o_m_h_a.png,I,m,623,16,3,1646.5,279569.7999999523,8084,VNB,A,15
16,test,3,0.0,1-Back,1.0,m,Wed Jun 03 2026 17:14:01 GMT-0500 (Central Daylight Time),283099.0,109_y_m_d_a.png,I,m,861,17,3,1879.7999999523163,281219.2000000477,8084,VNB,A,16
17,test,3,1.0,1-Back,1.0,m,Wed Jun 03 2026 17:14:01 GMT-0500 (Central Daylight Time),285031.60000002384,071_y_f_n_a.png,I,m,914,18,3,1930.0,283101.60000002384,8084,VNB,A,17
0,test,4,1.0,1-Back,,,Wed Jun 03 2026 17:14:01 GMT-0500 (Central Daylight Time),285031.60000002384,165_m_m_d_a.png,I,space,1038,1,3,1930.0,283101.60000002384,8084,VNB,A,0
1,test,4,0.0,1-Back,1.0,z,Wed Jun 03 2026 17:14:01 GMT-0500 (Central Daylight Time),290113.60000002384,039_o_m_d_a.png,I,z,988,2,3,2012.3000000715256,288101.2999999523,8084,VNB,A,1
2,test,4,0.0,1-Back,1.0,m,Wed Jun 03 2026 17:14:01 GMT-0500 (Central Daylight Time),291780.5,109_y_m_h_a.png,I,m,636,3,3,1664.2999999523163,290116.2000000477,8084,VNB,A,2
3,test,4,0.0,1-Back,1.0,m,Wed Jun 03 2026 17:14:01 GMT-0500 (Central Daylight Time),293562.2000000477,139_m_f_n_a.png,I,m,762,4,3,1776.9000000953674,291785.2999999523,8084,VNB,A,3
4,test,4,1.0,1-Back,1.0,m,Wed Jun 03 2026 17:14:01 GMT-0500 (Central Daylight Time),295478.39999997616,124_o_f_h_a.png,I,m,882,5,3,1913.5,293564.89999997616,8084,VNB,A,4
5,test,4,0.0,1-Back,1.0,m,Wed Jun 03 2026 17:14:01 GMT-0500 (Central Daylight Time),297294.2999999523,165_m_m_n_a.png,I,m,791,6,3,1813.0,295481.2999999523,8084,VNB,A,5
6,test,4,0.0,1-Back,1.0,m,Wed Jun 03 2026 17:14:01 GMT-0500 (Central Daylight Time),299210.2000000477,109_y_m_d_a.png,I,m,887,7,3,1912.4000000953674,297297.7999999523,8084,VNB,A,6
7,test,4,1.0,1-Back,1.0,z,Wed Jun 03 2026 17:14:01 GMT-0500 (Central Daylight Time),301093.10000002384,071_y_f_d_a.png,I,z,860,8,3,1879.7000000476837,299213.39999997616,8084,VNB,A,7
8,test,4,0.0,1-Back,1.0,m,Wed Jun 03 2026 17:14:01 GMT-0500 (Central Daylight Time),302742.7999999523,139_m_f_h_a.png,I,m,625,9,3,1646.5,301096.2999999523,8084,VNB,A,8
9,test,4,0.0,1-Back,1.0,z,Wed Jun 03 2026 17:14:01 GMT-0500 (Central Daylight Time),304392.0,039_o_m_h_a.png,I,z,632,10,3,1646.6000000238419,302745.39999997616,8084,VNB,A,9
10,test,4,1.0,1-Back,1.0,m,Wed Jun 03 2026 17:14:01 GMT-0500 (Central Daylight Time),306075.2000000477,124_o_f_n_a.png,I,m,662,11,3,1680.7000000476837,304394.5,8084,VNB,A,10
10,test,4,0.0,1-Back,0.0,m,Wed Jun 03 2026 17:14:01 GMT-0500 (Central Daylight Time),308008.7999999523,139_m_f_d_a.png,I,z,915,12,3,1930.7999999523163,306078.0,8084,VNB,A,11
11,test,4,0.0,1-Back,1.0,m,Wed Jun 03 2026 17:14:01 GMT-0500 (Central Daylight Time),309825.10000002384,071_y_f_n_a.png,I,m,791,13,3,1813.5,308011.60000002384,8084,VNB,A,12
12,test,4,0.0,1-Back,1.0,m,Wed Jun 03 2026 17:14:01 GMT-0500 (Central Daylight Time),311540.10000002384,124_o_f_d_a.png,I,m,685,14,3,1712.2000000476837,309827.89999997616,8084,VNB,A,13
13,test,4,0.0,1-Back,1.0,m,Wed Jun 03 2026 17:14:01 GMT-0500 (Central Daylight Time),313356.2000000477,071_y_f_h_a.png,I,m,786,15,3,1813.5,311542.7000000477,8084,VNB,A,14
14,test,4,1.0,1-Back,1.0,z,Wed Jun 03 2026 17:14:01 GMT-0500 (Central Daylight Time),315221.5,165_m_m_h_a.png,I,z,848,16,3,1862.6000000238419,313358.89999997616,8084,VNB,A,15
15,test,4,0.0,1-Back,1.0,m,Wed Jun 03 2026 17:14:01 GMT-0500 (Central Daylight Time),316938.2999999523,039_o_m_n_a.png,I,m,686,17,3,1714.2999999523163,315224.0,8084,VNB,A,16
16,test,4,1.0,1-Back,1.0,z,Wed Jun 03 2026 17:14:01 GMT-0500 (Central Daylight Time),318854.5,109_y_m_n_a.png,I,z,899,18,3,1913.6000000238419,316940.89999997616,8084,VNB,A,17
0,test,5,1.0,1-Back,,,Wed Jun 03 2026 17:14:01 GMT-0500 (Central Daylight Time),318854.5,039_o_m_n_a.png,I,space,1144,1,3,1913.6000000238419,316940.89999997616,8084,VNB,A,0
1,test,5,1.0,1-Back,1.0,m,Wed Jun 03 2026 17:14:01 GMT-0500 (Central Daylight Time),323803.0,124_o_f_h_a.png,I,m,753,2,3,1778.2999999523163,322024.7000000477,8084,VNB,A,1
2,test,5,0.0,1-Back,1.0,m,Wed Jun 03 2026 17:14:01 GMT-0500 (Central Daylight Time),325485.89999997616,109_y_m_d_a.png,I,m,650,3,3,1680.2999999523163,323805.60000002384,8084,VNB,A,2
3,test,5,0.0,1-Back,1.0,z,Wed Jun 03 2026 17:14:01 GMT-0500 (Central Daylight Time),327385.39999997616,039_o_m_d_a.png,I,z,873,4,3,1897.0,325488.39999997616,8084,VNB,A,3
4,test,5,0.0,1-Back,1.0,m,Wed Jun 03 2026 17:14:01 GMT-0500 (Central Daylight Time),328868.0,139_m_f_h_a.png,I,m,460,5,3,1480.2000000476837,327387.7999999523,8084,VNB,A,4
5,test,5,0.0,1-Back,1.0,m,Wed Jun 03 2026 17:14:01 GMT-0500 (Central Daylight Time),330667.39999997616,071_y_f_n_a.png,I,m,770,6,3,1796.7999999523163,328870.60000002384,8084,VNB,A,5
6,test,5,1.0,1-Back,1.0,z,Wed Jun 03 2026 17:14:01 GMT-0500 (Central Daylight Time),332716.60000002384,124_o_f_n_a.png,I,z,1019,7,3,2046.5,330670.10000002384,8084,VNB,A,6
7,test,5,0.0,1-Back,1.0,m,Wed Jun 03 2026 17:14:01 GMT-0500 (Central Daylight Time),334582.7000000477,139_m_f_d_a.png,I,m,848,8,3,1863.0,332719.7000000477,8084,VNB,A,7
8,test,5,0.0,1-Back,1.0,m,Wed Jun 03 2026 17:14:01 GMT-0500 (Central Daylight Time),336182.2999999523,109_y_m_h_a.png,I,m,567,9,3,1596.7999999523163,334585.5,8084,VNB,A,8
9,test,5,0.0,1-Back,1.0,m,Wed Jun 03 2026 17:14:01 GMT-0500 (Central Daylight Time),337865.10000002384,071_y_f_d_a.png,I,m,663,10,3,1680.2000000476837,336184.89999997616,8084,VNB,A,9
10,test,5,0.0,1-Back,1.0,m,Wed Jun 03 2026 17:14:01 GMT-0500 (Central Daylight Time),339581.10000002384,165_m_m_n_a.png,I,m,692,11,3,1713.5,337867.60000002384,8084,VNB,A,10
11,test,5,1.0,1-Back,1.0,z,Wed Jun 03 2026 17:14:01 GMT-0500 (Central Daylight Time),341247.5,139_m_f_n_a.png,I,z,633,12,3,1663.5,339584.0,8084,VNB,A,11
12,test,5,0.0,1-Back,1.0,m,Wed Jun 03 2026 17:14:01 GMT-0500 (Central Daylight Time),342846.89999997616,039_o_m_h_a.png,I,m,583,13,3,1596.8999999761581,341250.0,8084,VNB,A,12
13,test,5,0.0,1-Back,1.0,z,Wed Jun 03 2026 17:14:01 GMT-0500 (Central Daylight Time),344796.5,165_m_m_h_a.png,I,z,918,14,3,1947.2000000476837,342849.2999999523,8084,VNB,A,13
14,test,5,1.0,1-Back,1.0,m,Wed Jun 03 2026 17:14:01 GMT-0500 (Central Daylight Time),346512.60000002384,124_o_f_d_a.png,I,m,689,15,3,1713.3999999761581,344799.2000000477,8084,VNB,A,14
15,test,5,0.0,1-Back,1.0,m,Wed Jun 03 2026 17:14:01 GMT-0500 (Central Daylight Time),348129.60000002384,109_y_m_n_a.png,I,m,589,16,3,1614.7000000476837,346514.89999997616,8084,VNB,A,15
16,test,5,0.0,1-Back,1.0,m,Wed Jun 03 2026 17:14:01 GMT-0500 (Central Daylight Time),349861.7000000477,071_y_f_h_a.png,I,m,710,17,3,1729.5,348132.2000000477,8084,VNB,A,16
17,test,5,0.0,1-Back,1.0,m,Wed Jun 03 2026 17:14:01 GMT-0500 (Central Daylight Time),351710.7000000477,165_m_m_d_a.png,I,m,832,18,3,1846.4000000953674,349864.2999999523,8084,VNB,A,17
0,prac,1,0.0,2-Back,,,Wed Jun 03 2026 17:14:01 GMT-0500 (Central Daylight Time),351710.7000000477,139_m_f_n_a.png,I,space,2751,1,3,1846.4000000953674,349864.2999999523,8084,VNB,A,0
0,prac,1,0.0,2-Back,,,Wed Jun 03 2026 17:14:01 GMT-0500 (Central Daylight Time),351710.7000000477,124_o_f_h_a.png,I,space,2751,2,3,1846.4000000953674,349864.2999999523,8084,VNB,A,0
1,prac,1,0.0,2-Back,1.0,m,Wed Jun 03 2026 17:14:01 GMT-0500 (Central Daylight Time),436202.10000002384,039_o_m_d_a.png,I,m,876,3,3,1663.8000000715256,434538.2999999523,8084,VNB,A,1
2,prac,1,1.0,2-Back,1.0,z,Wed Jun 03 2026 17:14:01 GMT-0500 (Central Daylight Time),438267.10000002384,165_m_m_h_a.png,I,z,1250,4,3,2058.0,436209.10000002384,8084,VNB,A,2
3,prac,1,0.0,2-Back,1.0,m,Wed Jun 03 2026 17:14:01 GMT-0500 (Central Daylight Time),440049.89999997616,071_y_f_n_a.png,I,m,981,5,3,1778.8999999761581,438271.0,8084,VNB,A,3
3,prac,1,1.0,2-Back,0.0,z,Wed Jun 03 2026 17:14:01 GMT-0500 (Central Daylight Time),442132.5,039_o_m_h_a.png,I,m,1296,6,3,2078.7999999523163,440053.7000000477,8084,VNB,A,4
4,prac,1,1.0,2-Back,1.0,z,Wed Jun 03 2026 17:14:01 GMT-0500 (Central Daylight Time),444215.2000000477,109_y_m_n_a.png,I,z,1271,7,3,2078.600000023842,442136.60000002384,8084,VNB,A,5
5,prac,1,0.0,2-Back,1.0,m,Wed Jun 03 2026 17:14:01 GMT-0500 (Central Daylight Time),445915.89999997616,139_m_f_d_a.png,I,m,914,8,3,1696.6000000238419,444219.2999999523,8084,VNB,A,6
5,prac,1,0.0,2-Back,0.0,m,Wed Jun 03 2026 17:14:01 GMT-0500 (Central Daylight Time),448164.10000002384,124_o_f_d_a.png,I,z,1411,9,3,2240.399999976158,445923.7000000477,8084,VNB,A,7
6,prac,1,0.0,2-Back,1.0,m,Wed Jun 03 2026 17:14:01 GMT-0500 (Central Daylight Time),450096.7999999523,165_m_m_h_a.png,I,m,1158,10,3,1929.0999999046326,448167.7000000477,8084,VNB,A,8
6,prac,1,1.0,2-Back,0.0,z,Wed Jun 03 2026 17:14:01 GMT-0500 (Central Daylight Time),451746.2000000477,071_y_f_d_a.png,I,m,849,11,3,1645.8000000715256,450100.39999997616,8084,VNB,A,9
6,prac,1,0.0,2-Back,0.0,m,Wed Jun 03 2026 17:14:01 GMT-0500 (Central Daylight Time),453812.10000002384,039_o_m_n_a.png,I,z,1263,12,3,2062.2000000476837,451749.89999997616,8084,VNB,A,10
0,prac,2,0.0,2-Back,,,Wed Jun 03 2026 17:14:01 GMT-0500 (Central Daylight Time),453812.10000002384,139_m_f_n_a.png,I,a,3535,1,3,2062.2000000476837,451749.89999997616,8084,VNB,A,0
0,prac,2,0.0,2-Back,,,Wed Jun 03 2026 17:14:01 GMT-0500 (Central Daylight Time),453812.10000002384,124_o_f_h_a.png,I,a,3535,2,3,2062.2000000476837,451749.89999997616,8084,VNB,A,0
1,prac,2,0.0,2-Back,1.0,m,Wed Jun 03 2026 17:14:01 GMT-0500 (Central Daylight Time),464558.7999999523,039_o_m_d_a.png,I,m,1294,3,3,2094.5,462464.2999999523,8084,VNB,A,1
2,prac,2,1.0,2-Back,1.0,z,Wed Jun 03 2026 17:14:01 GMT-0500 (Central Daylight Time),466625.89999997616,165_m_m_h_a.png,I,z,1284,4,3,2063.2999999523163,464562.60000002384,8084,VNB,A,2
3,prac,2,0.0,2-Back,1.0,m,Wed Jun 03 2026 17:14:01 GMT-0500 (Central Daylight Time),468574.2999999523,071_y_f_n_a.png,I,m,1135,5,3,1944.6999999284744,466629.60000002384,8084,VNB,A,3
3,prac,2,1.0,2-Back,0.0,z,Wed Jun 03 2026 17:14:01 GMT-0500 (Central Daylight Time),470573.60000002384,039_o_m_h_a.png,I,m,1196,6,3,1995.3999999761581,468578.2000000477,8084,VNB,A,4
4,prac,2,1.0,2-Back,1.0,z,Wed Jun 03 2026 17:14:01 GMT-0500 (Central Daylight Time),472573.10000002384,109_y_m_n_a.png,I,z,1184,7,3,1991.0,470582.10000002384,8084,VNB,A,5
5,prac,2,0.0,2-Back,1.0,m,Wed Jun 03 2026 17:14:01 GMT-0500 (Central Daylight Time),474705.7000000477,139_m_f_d_a.png,I,m,1323,8,3,2128.9000000953674,472576.7999999523,8084,VNB,A,6
6,prac,2,0.0,2-Back,1.0,m,Wed Jun 03 2026 17:14:01 GMT-0500 (Central Daylight Time),476705.0,124_o_f_d_a.png,I,m,1169,9,3,1995.6000000238419,474709.39999997616,8084,VNB,A,7
6,prac,2,0.0,2-Back,0.0,m,Wed Jun 03 2026 17:14:01 GMT-0500 (Central Daylight Time),478121.2000000477,165_m_m_h_a.png,I,z,634,10,3,1412.3000000715256,476708.89999997616,8084,VNB,A,8
6,prac,2,1.0,2-Back,0.0,z,Wed Jun 03 2026 17:14:01 GMT-0500 (Central Daylight Time),479853.89999997616,071_y_f_d_a.png,I,m,937,11,3,1729.1000000238419,478124.7999999523,8084,VNB,A,9
7,prac,2,0.0,2-Back,1.0,m,Wed Jun 03 2026 17:14:01 GMT-0500 (Central Daylight Time),482253.2999999523,039_o_m_n_a.png,I,m,1586,12,3,2392.5,479860.7999999523,8084,VNB,A,10
0,test,1,0.0,2-Back,,,Wed Jun 03 2026 17:14:01 GMT-0500 (Central Daylight Time),482253.2999999523,109_y_m_h_a.png,I,space,3459,1,3,2392.5,479860.7999999523,8084,VNB,A,0
0,test,1,0.0,2-Back,,,Wed Jun 03 2026 17:14:01 GMT-0500 (Central Daylight Time),482253.2999999523,124_o_f_n_a.png,I,space,3459,2,3,2392.5,479860.7999999523,8084,VNB,A,0
1,test,1,0.0,2-Back,1.0,z,Wed Jun 03 2026 17:14:01 GMT-0500 (Central Daylight Time),500364.60000002384,039_o_m_h_a.png,I,z,886,3,3,1913.6000000238419,498451.0,8084,VNB,A,1
2,test,1,0.0,2-Back,1.0,m,Wed Jun 03 2026 17:14:01 GMT-0500 (Central Daylight Time),502147.2000000477,139_m_f_d_a.png,I,m,762,4,3,1780.1000000238419,500367.10000002384,8084,VNB,A,2
2,test,1,1.0,2-Back,0.0,m,Wed Jun 03 2026 17:14:01 GMT-0500 (Central Daylight Time),504796.2000000477,109_y_m_n_a.png,I,z,1627,5,3,2646.600000023842,502149.60000002384,8084,VNB,A,3
3,test,1,0.0,2-Back,1.0,z,Wed Jun 03 2026 17:14:01 GMT-0500 (Central Daylight Time),507228.7000000477,071_y_f_d_a.png,I,z,1401,6,3,2429.5,504799.2000000477,8084,VNB,A,4
3,test,1,0.0,2-Back,0.0,m,Wed Jun 03 2026 17:14:01 GMT-0500 (Central Daylight Time),509611.2999999523,165_m_m_h_a.png,I,z,1361,7,3,2379.5999999046326,507231.7000000477,8084,VNB,A,5
4,test,1,1.0,2-Back,1.0,m,Wed Jun 03 2026 17:14:01 GMT-0500 (Central Daylight Time),511377.39999997616,071_y_f_n_a.png,I,m,738,8,3,1763.3999999761581,509614.0,8084,VNB,A,6
4,test,1,0.0,2-Back,0.0,z,Wed Jun 03 2026 17:14:01 GMT-0500 (Central Daylight Time),514093.2999999523,124_o_f_h_a.png,I,m,1685,9,3,2713.1999999284744,511380.10000002384,8084,VNB,A,7
5,test,1,0.0,2-Back,1.0,m,Wed Jun 03 2026 17:14:01 GMT-0500 (Central Daylight Time),516309.39999997616,039_o_m_d_a.png,I,m,1184,10,3,2213.399999976158,514096.0,8084,VNB,A,8
5,test,1,1.0,2-Back,0.0,m,Wed Jun 03 2026 17:14:01 GMT-0500 (Central Daylight Time),518292.0,165_m_m_d_a.png,I,z,960,11,3,1980.2000000476837,516311.7999999523,8084,VNB,A,9
6,test,1,0.0,2-Back,1.0,m,Wed Jun 03 2026 17:14:01 GMT-0500 (Central Daylight Time),520474.7999999523,139_m_f_n_a.png,I,m,1154,12,3,2179.7999999523163,518295.0,8084,VNB,A,10
7,test,1,0.0,2-Back,1.0,m,Wed Jun 03 2026 17:14:01 GMT-0500 (Central Daylight Time),522657.2000000477,071_y_f_h_a.png,I,m,1162,13,3,2179.9000000953674,520477.2999999523,8084,VNB,A,11
8,test,1,0.0,2-Back,1.0,z,Wed Jun 03 2026 17:14:01 GMT-0500 (Central Daylight Time),524889.8999999762,165_m_m_n_a.png,I,z,1213,14,3,2230.399999976158,522659.5,8084,VNB,A,12
9,test,1,0.0,2-Back,1.0,m,Wed Jun 03 2026 17:14:01 GMT-0500 (Central Daylight Time),526739.6000000238,109_y_m_d_a.png,I,m,828,15,3,1847.3000000715256,524892.2999999523,8084,VNB,A,13
10,test,1,1.0,2-Back,1.0,m,Wed Jun 03 2026 17:14:01 GMT-0500 (Central Daylight Time),528855.3999999762,139_m_f_h_a.png,I,m,1099,16,3,2113.1999999284744,526742.2000000477,8084,VNB,A,14
10,test,1,0.0,2-Back,0.0,z,Wed Jun 03 2026 17:14:01 GMT-0500 (Central Daylight Time),531288.1000000238,124_o_f_d_a.png,I,m,1407,17,3,2429.8000000715256,528858.2999999523,8084,VNB,A,15
11,test,1,0.0,2-Back,1.0,m,Wed Jun 03 2026 17:14:01 GMT-0500 (Central Daylight Time),533570.5,039_o_m_n_a.png,I,m,1254,18,3,2279.5,531291.0,8084,VNB,A,16
0,test,2,0.0,2-Back,,,Wed Jun 03 2026 17:14:01 GMT-0500 (Central Daylight Time),533570.5,165_m_m_h_a.png,I,space,883,1,3,2279.5,531291.0,8084,VNB,A,0
0,test,2,0.0,2-Back,,,Wed Jun 03 2026 17:14:01 GMT-0500 (Central Daylight Time),533570.5,071_y_f_n_a.png,I,space,883,2,3,2279.5,531291.0,8084,VNB,A,0
1,test,2,1.0,2-Back,1.0,z,Wed Jun 03 2026 17:14:01 GMT-0500 (Central Daylight Time),541534.7999999523,124_o_f_h_a.png,I,z,948,3,3,1978.5,539556.2999999523,8084,VNB,A,1
2,test,2,0.0,2-Back,1.0,m,Wed Jun 03 2026 17:14:01 GMT-0500 (Central Daylight Time),543234.2999999523,039_o_m_d_a.png,I,m,680,4,3,1697.0,541537.2999999523,8084,VNB,A,2
3,test,2,0.0,2-Back,1.0,m,Wed Jun 03 2026 17:14:01 GMT-0500 (Central Daylight Time),545433.2999999523,139_m_f_d_a.png,I,m,1180,5,3,2196.2999999523163,543237.0,8084,VNB,A,3
3,test,2,0.0,2-Back,0.0,m,Wed Jun 03 2026 17:14:01 GMT-0500 (Central Daylight Time),547366.3999999762,109_y_m_h_a.png,I,z,900,6,3,1930.6999999284744,545435.7000000477,8084,VNB,A,4
4,test,2,0.0,2-Back,1.0,m,Wed Jun 03 2026 17:14:01 GMT-0500 (Central Daylight Time),549482.2000000477,124_o_f_n_a.png,I,m,1088,7,3,2113.3000000715256,547368.8999999762,8084,VNB,A,5
5,test,2,1.0,2-Back,1.0,z,Wed Jun 03 2026 17:14:01 GMT-0500 (Central Daylight Time),551598.3999999762,039_o_m_h_a.png,I,z,1083,8,3,2113.5,549484.8999999762,8084,VNB,A,6
6,test,2,0.0,2-Back,1.0,m,Wed Jun 03 2026 17:14:01 GMT-0500 (Central Daylight Time),553547.6000000238,071_y_f_d_a.png,I,m,927,9,3,1946.3999999761581,551601.2000000477,8084,VNB,A,7
7,test,2,0.0,2-Back,1.0,m,Wed Jun 03 2026 17:14:01 GMT-0500 (Central Daylight Time),555213.7999999523,109_y_m_d_a.png,I,m,643,10,3,1663.6999999284744,553550.1000000238,8084,VNB,A,8
7,test,2,0.0,2-Back,0.0,m,Wed Jun 03 2026 17:14:01 GMT-0500 (Central Daylight Time),556979.7999999523,165_m_m_n_a.png,I,z,745,11,3,1763.3999999761581,555216.3999999762,8084,VNB,A,9
8,test,2,0.0,2-Back,1.0,m,Wed Jun 03 2026 17:14:01 GMT-0500 (Central Daylight Time),558846.0,139_m_f_h_a.png,I,m,834,12,3,1863.3999999761581,556982.6000000238,8084,VNB,A,10
8,test,2,1.0,2-Back,0.0,z,Wed Jun 03 2026 17:14:01 GMT-0500 (Central Daylight Time),561045.1000000238,039_o_m_n_a.png,I,m,1168,13,3,2196.7000000476837,558848.3999999762,8084,VNB,A,11
9,test,2,0.0,2-Back,1.0,m,Wed Jun 03 2026 17:14:01 GMT-0500 (Central Daylight Time),563144.5,124_o_f_d_a.png,I,m,1072,14,3,2096.7999999523163,561047.7000000477,8084,VNB,A,12
10,test,2,0.0,2-Back,1.0,m,Wed Jun 03 2026 17:14:01 GMT-0500 (Central Daylight Time),565460.6000000238,071_y_f_h_a.png,I,m,1294,15,3,2313.2000000476837,563147.3999999762,8084,VNB,A,13
10,test,2,0.0,2-Back,0.0,z,Wed Jun 03 2026 17:14:01 GMT-0500 (Central Daylight Time),567393.2000000477,165_m_m_d_a.png,I,m,905,16,3,1930.0,565463.2000000477,8084,VNB,A,14
10,test,2,0.0,2-Back,0.0,m,Wed Jun 03 2026 17:14:01 GMT-0500 (Central Daylight Time),569292.7000000477,109_y_m_n_a.png,I,z,869,17,3,1897.0,567395.7000000477,8084,VNB,A,15
11,test,2,1.0,2-Back,1.0,m,Wed Jun 03 2026 17:14:01 GMT-0500 (Central Daylight Time),570976.6000000238,139_m_f_n_a.png,I,m,665,18,3,1681.3000000715256,569295.2999999523,8084,VNB,A,16
0,test,3,1.0,2-Back,,,Wed Jun 03 2026 17:14:01 GMT-0500 (Central Daylight Time),570976.6000000238,039_o_m_n_a.png,I,space,909,1,3,1681.3000000715256,569295.2999999523,8084,VNB,A,0
0,test,3,1.0,2-Back,,,Wed Jun 03 2026 17:14:01 GMT-0500 (Central Daylight Time),570976.6000000238,124_o_f_d_a.png,I,space,909,2,3,1681.3000000715256,569295.2999999523,8084,VNB,A,0
1,test,3,0.0,2-Back,1.0,m,Wed Jun 03 2026 17:14:01 GMT-0500 (Central Daylight Time),578939.5,071_y_f_h_a.png,I,m,978,3,3,1997.1000000238419,576942.3999999762,8084,VNB,A,1
2,test,3,0.0,2-Back,1.0,z,Wed Jun 03 2026 17:14:01 GMT-0500 (Central Daylight Time),581022.2999999523,139_m_f_d_a.png,I,z,1059,4,3,2080.2999999523163,578942.0,8084,VNB,A,2
3,test,3,1.0,2-Back,1.0,m,Wed Jun 03 2026 17:14:01 GMT-0500 (Central Daylight Time),582871.7999999523,109_y_m_n_a.png,I,m,824,5,3,1847.0999999046326,581024.7000000477,8084,VNB,A,3
4,test,3,0.0,2-Back,1.0,m,Wed Jun 03 2026 17:14:01 GMT-0500 (Central Daylight Time),585620.7999999523,039_o_m_h_a.png,I,m,1718,6,3,2746.2999999523163,582874.5,8084,VNB,A,4
4,test,3,0.0,2-Back,0.0,z,Wed Jun 03 2026 17:14:01 GMT-0500 (Central Daylight Time),587687.1000000238,071_y_f_n_a.png,I,m,1049,7,3,2063.600000023842,585623.5,8084,VNB,A,5
5,test,3,1.0,2-Back,1.0,m,Wed Jun 03 2026 17:14:01 GMT-0500 (Central Daylight Time),589786.2999999523,165_m_m_d_a.png,I,m,1079,8,3,2096.6999999284744,587689.6000000238,8084,VNB,A,6
6,test,3,0.0,2-Back,1.0,m,Wed Jun 03 2026 17:14:01 GMT-0500 (Central Daylight Time),592020.1000000238,109_y_m_d_a.png,I,m,1211,9,3,2231.100000023842,589789.0,8084,VNB,A,7
7,test,3,0.0,2-Back,1.0,m,Wed Jun 03 2026 17:14:01 GMT-0500 (Central Daylight Time),594618.2999999523,124_o_f_h_a.png,I,m,1580,10,3,2595.399999976158,592022.8999999762,8084,VNB,A,8
8,test,3,1.0,2-Back,1.0,m,Wed Jun 03 2026 17:14:01 GMT-0500 (Central Daylight Time),596917.2999999523,139_m_f_n_a.png,I,m,1267,11,3,2296.5999999046326,594620.7000000477,8084,VNB,A,9
9,test,3,1.0,2-Back,1.0,z,Wed Jun 03 2026 17:14:01 GMT-0500 (Central Daylight Time),599250.0,165_m_m_h_a.png,I,z,1236,12,3,2329.899999976158,596920.1000000238,8084,VNB,A,10
10,test,3,0.0,2-Back,1.0,m,Wed Jun 03 2026 17:14:01 GMT-0500 (Central Daylight Time),601182.5,071_y_f_d_a.png,I,m,907,13,3,1930.2000000476837,599252.2999999523,8084,VNB,A,11
11,test,3,0.0,2-Back,1.0,m,Wed Jun 03 2026 17:14:01 GMT-0500 (Central Daylight Time),603082.1000000238,124_o_f_n_a.png,I,m,880,14,3,1897.1000000238419,601185.0,8084,VNB,A,12
11,test,3,0.0,2-Back,0.0,z,Wed Jun 03 2026 17:14:01 GMT-0500 (Central Daylight Time),605681.3999999762,039_o_m_d_a.png,I,m,1580,15,3,2596.7999999523163,603084.6000000238,8084,VNB,A,13
11,test,3,1.0,2-Back,0.0,m,Wed Jun 03 2026 17:14:01 GMT-0500 (Central Daylight Time),608130.2999999523,139_m_f_h_a.png,I,z,1429,16,3,2446.2999999523163,605684.0,8084,VNB,A,14
12,test,3,0.0,2-Back,1.0,m,Wed Jun 03 2026 17:14:01 GMT-0500 (Central Daylight Time),610313.2000000477,165_m_m_n_a.png,I,m,1164,17,3,2179.3000000715256,608133.8999999762,8084,VNB,A,15
13,test,3,0.0,2-Back,1.0,z,Wed Jun 03 2026 17:14:01 GMT-0500 (Central Daylight Time),612529.1000000238,109_y_m_h_a.png,I,z,1197,18,3,2213.2000000476837,610315.8999999762,8084,VNB,A,16
0,test,4,0.0,2-Back,,,Wed Jun 03 2026 17:14:01 GMT-0500 (Central Daylight Time),612529.1000000238,139_m_f_n_a.png,I,space,1173,1,3,2213.2000000476837,610315.8999999762,8084,VNB,A,0
0,test,4,0.0,2-Back,,,Wed Jun 03 2026 17:14:01 GMT-0500 (Central Daylight Time),612529.1000000238,039_o_m_n_a.png,I,space,1173,2,3,2213.2000000476837,610315.8999999762,8084,VNB,A,0
1,test,4,1.0,2-Back,1.0,m,Wed Jun 03 2026 17:14:01 GMT-0500 (Central Daylight Time),620643.2999999523,109_y_m_h_a.png,I,m,837,3,3,1863.8999999761581,618779.3999999762,8084,VNB,A,1
2,test,4,1.0,2-Back,1.0,m,Wed Jun 03 2026 17:14:01 GMT-0500 (Central Daylight Time),622842.5,124_o_f_d_a.png,I,m,1171,4,3,2196.399999976158,620646.1000000238,8084,VNB,A,2
3,test,4,0.0,2-Back,1.0,z,Wed Jun 03 2026 17:14:01 GMT-0500 (Central Daylight Time),624542.0,039_o_m_h_a.png,I,z,676,5,3,1696.3999999761581,622845.6000000238,8084,VNB,A,3
4,test,4,0.0,2-Back,1.0,m,Wed Jun 03 2026 17:14:01 GMT-0500 (Central Daylight Time),626375.0,165_m_m_n_a.png,I,m,807,6,3,1829.7999999523163,624545.2000000477,8084,VNB,A,4
5,test,4,0.0,2-Back,1.0,m,Wed Jun 03 2026 17:14:01 GMT-0500 (Central Daylight Time),628624.1000000238,139_m_f_d_a.png,I,m,1231,7,3,2246.600000023842,626377.5,8084,VNB,A,5
5,test,4,0.0,2-Back,0.0,z,Wed Jun 03 2026 17:14:01 GMT-0500 (Central Daylight Time),631189.8999999762,071_y_f_n_a.png,I,m,1542,8,3,2563.1999999284744,628626.7000000477,8084,VNB,A,6
6,test,4,1.0,2-Back,1.0,m,Wed Jun 03 2026 17:14:01 GMT-0500 (Central Daylight Time),633189.3999999762,124_o_f_h_a.png,I,m,977,9,3,1996.8999999761581,631192.5,8084,VNB,A,7
7,test,4,0.0,2-Back,1.0,m,Wed Jun 03 2026 17:14:01 GMT-0500 (Central Daylight Time),635105.3999999762,165_m_m_h_a.png,I,m,889,10,3,1913.6000000238419,633191.7999999523,8084,VNB,A,8
8,test,4,0.0,2-Back,1.0,m,Wed Jun 03 2026 17:14:01 GMT-0500 (Central Daylight Time),637204.6000000238,071_y_f_d_a.png,I,m,1077,11,3,2096.7000000476837,635107.8999999762,8084,VNB,A,9
9,test,4,0.0,2-Back,1.0,m,Wed Jun 03 2026 17:14:01 GMT-0500 (Central Daylight Time),639270.7999999523,109_y_m_n_a.png,I,m,1041,12,3,2063.7999999523163,637207.0,8084,VNB,A,10
10,test,4,0.0,2-Back,1.0,z,Wed Jun 03 2026 17:14:01 GMT-0500 (Central Daylight Time),641403.3999999762,039_o_m_d_a.png,I,z,1112,13,3,2129.899999976158,639273.5,8084,VNB,A,11
11,test,4,1.0,2-Back,1.0,m,Wed Jun 03 2026 17:14:01 GMT-0500 (Central Daylight Time),643236.1000000238,139_m_f_h_a.png,I,m,811,14,3,1830.0,641406.1000000238,8084,VNB,A,12
12,test,4,1.0,2-Back,1.0,m,Wed Jun 03 2026 17:14:01 GMT-0500 (Central Daylight Time),645268.6000000238,071_y_f_h_a.png,I,m,1002,15,3,2029.7000000476837,643238.8999999762,8084,VNB,A,13
13,test,4,0.0,2-Back,1.0,m,Wed Jun 03 2026 17:14:01 GMT-0500 (Central Daylight Time),647018.2000000477,124_o_f_n_a.png,I,m,730,16,3,1747.1000000238419,645271.1000000238,8084,VNB,A,14
14,test,4,0.0,2-Back,1.0,m,Wed Jun 03 2026 17:14:01 GMT-0500 (Central Daylight Time),649051.1000000238,109_y_m_d_a.png,I,m,1012,17,3,2030.3000000715256,647020.7999999523,8084,VNB,A,15
15,test,4,1.0,2-Back,1.0,m,Wed Jun 03 2026 17:14:01 GMT-0500 (Central Daylight Time),651333.6000000238,165_m_m_d_a.png,I,m,1258,18,3,2279.899999976158,649053.7000000477,8084,VNB,A,16
0,test,5,1.0,2-Back,,,Wed Jun 03 2026 17:14:01 GMT-0500 (Central Daylight Time),651333.6000000238,071_y_f_d_a.png,I,space,944,1,3,2279.899999976158,649053.7000000477,8084,VNB,A,0
0,test,5,1.0,2-Back,,,Wed Jun 03 2026 17:14:01 GMT-0500 (Central Daylight Time),651333.6000000238,124_o_f_h_a.png,I,space,944,2,3,2279.899999976158,649053.7000000477,8084,VNB,A,0
1,test,5,1.0,2-Back,1.0,z,Wed Jun 03 2026 17:14:01 GMT-0500 (Central Daylight Time),659381.0,039_o_m_d_a.png,I,z,993,3,3,2013.2999999523163,657367.7000000477,8084,VNB,A,1
2,test,5,1.0,2-Back,1.0,m,Wed Jun 03 2026 17:14:01 GMT-0500 (Central Daylight Time),661346.8999999762,139_m_f_n_a.png,I,m,944,4,3,1963.6999999284744,659383.2000000477,8084,VNB,A,2
3,test,5,0.0,2-Back,1.0,m,Wed Jun 03 2026 17:14:01 GMT-0500 (Central Daylight Time),663246.7999999523,165_m_m_h_a.png,I,m,874,5,3,1897.5999999046326,661349.2000000477,8084,VNB,A,3
4,test,5,0.0,2-Back,1.0,z,Wed Jun 03 2026 17:14:01 GMT-0500 (Central Daylight Time),665062.7999999523,071_y_f_n_a.png,I,z,784,6,3,1813.5999999046326,663249.2000000477,8084,VNB,A,4
5,test,5,0.0,2-Back,1.0,m,Wed Jun 03 2026 17:14:01 GMT-0500 (Central Daylight Time),666928.7000000477,124_o_f_d_a.png,I,m,847,7,3,1863.3000000715256,665065.3999999762,8084,VNB,A,5
6,test,5,0.0,2-Back,1.0,m,Wed Jun 03 2026 17:14:01 GMT-0500 (Central Daylight Time),668978.2000000477,039_o_m_h_a.png,I,m,1029,8,3,2046.6000000238419,666931.6000000238,8084,VNB,A,6
7,test,5,1.0,2-Back,1.0,z,Wed Jun 03 2026 17:14:01 GMT-0500 (Central Daylight Time),671328.7000000477,139_m_f_d_a.png,I,z,1331,9,3,2347.7000000476837,668981.0,8084,VNB,A,7
7,test,5,0.0,2-Back,0.0,m,Wed Jun 03 2026 17:14:01 GMT-0500 (Central Daylight Time),673377.0,109_y_m_n_a.png,I,z,1023,10,3,2046.1000000238419,671330.8999999762,8084,VNB,A,8
8,test,5,0.0,2-Back,1.0,m,Wed Jun 03 2026 17:14:01 GMT-0500 (Central Daylight Time),675309.5,165_m_m_n_a.png,I,m,908,11,3,1929.8999999761581,673379.6000000238,8084,VNB,A,9
9,test,5,0.0,2-Back,1.0,m,Wed Jun 03 2026 17:14:01 GMT-0500 (Central Daylight Time),677308.7999999523,071_y_f_h_a.png,I,m,975,12,3,1996.6999999284744,675312.1000000238,8084,VNB,A,10
10,test,5,0.0,2-Back,1.0,m,Wed Jun 03 2026 17:14:01 GMT-0500 (Central Daylight Time),679407.8999999762,109_y_m_d_a.png,I,m,1082,13,3,2096.0,677311.8999999762,8084,VNB,A,11
11,test,5,1.0,2-Back,1.0,z,Wed Jun 03 2026 17:14:01 GMT-0500 (Central Daylight Time),681107.5,139_m_f_h_a.png,I,z,670,14,3,1697.2999999523163,679410.2000000477,8084,VNB,A,12
12,test,5,0.0,2-Back,1.0,m,Wed Jun 03 2026 17:14:01 GMT-0500 (Central Daylight Time),683291.3999999762,039_o_m_n_a.png,I,m,1154,15,3,2181.399999976158,681110.0,8084,VNB,A,13
13,test,5,0.0,2-Back,1.0,m,Wed Jun 03 2026 17:14:01 GMT-0500 (Central Daylight Time),685256.5,165_m_m_d_a.png,I,m,939,16,3,1962.2000000476837,683294.2999999523,8084,VNB,A,14
14,test,5,0.0,2-Back,1.0,z,Wed Jun 03 2026 17:14:01 GMT-0500 (Central Daylight Time),686889.1000000238,124_o_f_n_a.png,I,z,605,17,3,1630.0,685259.1000000238,8084,VNB,A,15
15,test,5,1.0,2-Back,1.0,m,Wed Jun 03 2026 17:14:01 GMT-0500 (Central Daylight Time),688556.5,109_y_m_h_a.png,I,m,643,18,3,1664.7999999523163,686891.7000000477,8084,VNB,A,16
