block_c,block_dur,condition,countdown,datetime,endtime,list,multichar_response,project,response,response_time,session_number,start_end,starttime,subject_id,task,task_vers,trial
,,,,Wed Mar 25 2026 16:08:31 GMT-0500 (Central Daylight Time),,,,O,space,2333,1,,,7787,WL,B,
prac,,0,,Wed Mar 25 2026 16:08:31 GMT-0500 (Central Daylight Time),,NA,b,O,b,4099,1,,,7787,WL,B,1.0
prac,,0,,Wed Mar 25 2026 16:08:31 GMT-0500 (Central Daylight Time),,NA,bo,O,o,293,1,,,7787,WL,B,1.0
prac,,0,,Wed Mar 25 2026 16:08:31 GMT-0500 (Central Daylight Time),,NA,boo,O,o,109,1,,,7787,WL,B,1.0
prac,,0,,Wed Mar 25 2026 16:08:31 GMT-0500 (Central Daylight Time),,NA,boos,O,s,423,1,,,7787,WL,B,1.0
prac,,0,,Wed Mar 25 2026 16:08:31 GMT-0500 (Central Daylight Time),,NA,boost,O,t,256,1,,,7787,WL,B,1.0
prac,,0,,Wed Mar 25 2026 16:08:31 GMT-0500 (Central Daylight Time),,NA,boostenter,O,enter,1939,1,,,7787,WL,B,1.0
1,1.5329999923706055,learn,58467.000007629395,Wed Mar 25 2026 16:08:31 GMT-0500 (Central Daylight Time),194119.10000014305,A,s,O,s,1515,1,1532.2999999523163,192586.80000019073,7787,WL,B,1.0
1,1.6659998893737793,learn,58334.00011062622,Wed Mar 25 2026 16:08:31 GMT-0500 (Central Daylight Time),194252.60000014305,A,st,O,t,113,1,1665.7999999523163,192586.80000019073,7787,WL,B,1.0
1,1.9169998168945312,learn,58083.00018310547,Wed Mar 25 2026 16:08:31 GMT-0500 (Central Daylight Time),194503.20000004768,A,str,O,r,227,1,1916.3999998569489,192586.80000019073,7787,WL,B,1.0
1,2.1489999294281006,learn,57851.0000705719,Wed Mar 25 2026 16:08:31 GMT-0500 (Central Daylight Time),194735.70000004768,A,stre,O,e,216,1,2148.899999856949,192586.80000019073,7787,WL,B,1.0
1,2.2990000247955322,learn,57700.99997520447,Wed Mar 25 2026 16:08:31 GMT-0500 (Central Daylight Time),194885.60000014305,A,stree,O,e,127,1,2298.7999999523163,192586.80000019073,7787,WL,B,1.0
1,2.4659998416900635,learn,57534.00015830994,Wed Mar 25 2026 16:08:31 GMT-0500 (Central Daylight Time),195052.60000014305,A,street,O,t,146,1,2465.7999999523163,192586.80000019073,7787,WL,B,1.0
1,7.330999851226807,learn,52669.00014877319,Wed Mar 25 2026 16:08:31 GMT-0500 (Central Daylight Time),199917.40000009537,A,streetenter,O,enter,4843,1,7330.599999904633,192586.80000019073,7787,WL,B,1.0
1,8.79699993133545,learn,51203.00006866455,Wed Mar 25 2026 16:08:31 GMT-0500 (Central Daylight Time),201383.30000019073,A,g,O,g,1452,1,1465.4000000953674,199917.90000009537,7787,WL,B,2.0
1,9.046000003814697,learn,50953.9999961853,Wed Mar 25 2026 16:08:31 GMT-0500 (Central Daylight Time),201632.40000009537,A,gr,O,r,239,1,1714.5,199917.90000009537,7787,WL,B,2.0
1,9.328999996185303,learn,50671.0000038147,Wed Mar 25 2026 16:08:31 GMT-0500 (Central Daylight Time),201914.80000019073,A,gra,O,a,273,1,1996.9000000953674,199917.90000009537,7787,WL,B,2.0
1,9.596999883651733,learn,50403.00011634827,Wed Mar 25 2026 16:08:31 GMT-0500 (Central Daylight Time),202183.60000014305,A,gras,O,s,264,1,2265.7000000476837,199917.90000009537,7787,WL,B,2.0
1,9.746999979019165,learn,50253.000020980835,Wed Mar 25 2026 16:08:31 GMT-0500 (Central Daylight Time),202333.60000014305,A,grass,O,s,128,1,2415.7000000476837,199917.90000009537,7787,WL,B,2.0
1,10.929999828338623,learn,49070.00017166138,Wed Mar 25 2026 16:08:31 GMT-0500 (Central Daylight Time),203516.5,A,grassenter,O,enter,1162,1,3598.5999999046326,199917.90000009537,7787,WL,B,2.0
1,11.495999813079834,learn,48504.000186920166,Wed Mar 25 2026 16:08:31 GMT-0500 (Central Daylight Time),204082.40000009537,A,d,O,d,556,1,565.5,203516.90000009537,7787,WL,B,3.0
1,11.812999963760376,learn,48187.000036239624,Wed Mar 25 2026 16:08:31 GMT-0500 (Central Daylight Time),204399.80000019073,A,do,O,o,304,1,882.9000000953674,203516.90000009537,7787,WL,B,3.0
1,11.948999881744385,learn,48051.000118255615,Wed Mar 25 2026 16:08:31 GMT-0500 (Central Daylight Time),204535.40000009537,A,doo,O,o,113,1,1018.5,203516.90000009537,7787,WL,B,3.0
1,12.097999811172485,learn,47902.000188827515,Wed Mar 25 2026 16:08:31 GMT-0500 (Central Daylight Time),204684.20000004768,A,door,O,r,127,1,1167.2999999523163,203516.90000009537,7787,WL,B,3.0
1,12.996999979019165,learn,47003.000020980835,Wed Mar 25 2026 16:08:31 GMT-0500 (Central Daylight Time),205583.40000009537,A,doorenter,O,enter,883,1,2066.5,203516.90000009537,7787,WL,B,3.0
1,13.828999996185303,learn,46171.0000038147,Wed Mar 25 2026 16:08:31 GMT-0500 (Central Daylight Time),206415.80000019073,A,a,O,a,827,1,832.1000001430511,205583.70000004768,7787,WL,B,4.0
1,14.460999965667725,learn,45539.000034332275,Wed Mar 25 2026 16:08:31 GMT-0500 (Central Daylight Time),207047.70000004768,A,ar,O,r,624,1,1464.0,205583.70000004768,7787,WL,B,4.0
1,15.343999862670898,learn,44656.0001373291,Wed Mar 25 2026 16:08:31 GMT-0500 (Central Daylight Time),207930.60000014305,A,arm,O,m,872,1,2346.9000000953674,205583.70000004768,7787,WL,B,4.0
1,16.59500002861023,learn,43404.99997138977,Wed Mar 25 2026 16:08:31 GMT-0500 (Central Daylight Time),209181.0,A,armenter,O,enter,1231,1,3597.2999999523163,205583.70000004768,7787,WL,B,4.0
1,17.02899980545044,learn,42971.00019454956,Wed Mar 25 2026 16:08:31 GMT-0500 (Central Daylight Time),209615.20000004768,A,c,O,c,421,1,433.7999999523163,209181.40000009537,7787,WL,B,5.0
1,17.325999975204468,learn,42674.00002479553,Wed Mar 25 2026 16:08:31 GMT-0500 (Central Daylight Time),209912.70000004768,A,ca,O,a,282,1,731.2999999523163,209181.40000009537,7787,WL,B,5.0
1,17.777999877929688,learn,42222.00012207031,Wed Mar 25 2026 16:08:31 GMT-0500 (Central Daylight Time),210364.5,A,cab,O,b,435,1,1183.0999999046326,209181.40000009537,7787,WL,B,5.0
1,18.060999870300293,learn,41939.00012969971,Wed Mar 25 2026 16:08:31 GMT-0500 (Central Daylight Time),210646.80000019073,A,cabi,O,i,270,1,1465.4000000953674,209181.40000009537,7787,WL,B,5.0
1,18.376999855041504,learn,41623.000144958496,Wed Mar 25 2026 16:08:31 GMT-0500 (Central Daylight Time),210962.90000009537,A,cabin,O,n,297,1,1781.5,209181.40000009537,7787,WL,B,5.0
1,19.876999855041504,learn,40123.000144958496,Wed Mar 25 2026 16:08:31 GMT-0500 (Central Daylight Time),212463.60000014305,A,cabinenter,O,enter,1488,1,3282.2000000476837,209181.40000009537,7787,WL,B,5.0
1,20.876999855041504,learn,39123.000144958496,Wed Mar 25 2026 16:08:31 GMT-0500 (Central Daylight Time),213463.5,A,l,O,l,977,1,999.5999999046326,212463.90000009537,7787,WL,B,6.0
1,21.07699990272522,learn,38923.00009727478,Wed Mar 25 2026 16:08:31 GMT-0500 (Central Daylight Time),213663.10000014305,A,la,O,a,173,1,1199.2000000476837,212463.90000009537,7787,WL,B,6.0
1,21.543999910354614,learn,38456.000089645386,Wed Mar 25 2026 16:08:31 GMT-0500 (Central Daylight Time),214130.20000004768,A,lak,O,k,460,1,1666.2999999523163,212463.90000009537,7787,WL,B,6.0
1,21.676999807357788,learn,38323.00019264221,Wed Mar 25 2026 16:08:31 GMT-0500 (Central Daylight Time),214263.30000019073,A,lake,O,e,126,1,1799.4000000953674,212463.90000009537,7787,WL,B,6.0
1,23.493000030517578,learn,36506.99996948242,Wed Mar 25 2026 16:08:31 GMT-0500 (Central Daylight Time),216079.5,A,lakeenter,O,enter,1801,1,3615.5999999046326,212463.90000009537,7787,WL,B,6.0
1,58.764999866485596,learn,1235.0001335144043,Wed Mar 25 2026 16:08:31 GMT-0500 (Central Daylight Time),251351.40000009537,A,enter,O,enter,35265,1,35271.59999990463,216079.80000019073,7787,WL,B,7.0
1,60.013999938964844,learn,-13.99993896484375,Wed Mar 25 2026 16:08:31 GMT-0500 (Central Daylight Time),252600.70000004768,A,None,O,None,1242,1,1248.7999999523163,251351.90000009537,7787,WL,B,8.0
2,1.502000093460083,learn,58497.99990653992,Wed Mar 25 2026 16:08:31 GMT-0500 (Central Daylight Time),328728.60000014305,A,c,O,c,1487,1,1501.5,327227.10000014305,7787,WL,B,1.0
2,2.1500000953674316,learn,57849.99990463257,Wed Mar 25 2026 16:08:31 GMT-0500 (Central Daylight Time),329376.5,A,ca,O,a,629,1,2149.399999856949,327227.10000014305,7787,WL,B,1.0
2,2.5820000171661377,learn,57417.99998283386,Wed Mar 25 2026 16:08:31 GMT-0500 (Central Daylight Time),329808.2000000477,A,cab,O,b,425,1,2581.0999999046326,327227.10000014305,7787,WL,B,1.0
2,2.8499999046325684,learn,57150.00009536743,Wed Mar 25 2026 16:08:31 GMT-0500 (Central Daylight Time),330076.40000009537,A,cabi,O,i,251,1,2849.2999999523163,327227.10000014305,7787,WL,B,1.0
2,3.5160000324249268,learn,56483.99996757507,Wed Mar 25 2026 16:08:31 GMT-0500 (Central Daylight Time),330742.60000014305,A,cabin,O,n,661,1,3515.5,327227.10000014305,7787,WL,B,1.0
2,5.296999931335449,learn,54703.00006866455,Wed Mar 25 2026 16:08:31 GMT-0500 (Central Daylight Time),332523.60000014305,A,cabinenter,O,enter,1762,1,5296.5,327227.10000014305,7787,WL,B,1.0
2,5.846999883651733,learn,54153.00011634827,Wed Mar 25 2026 16:08:31 GMT-0500 (Central Daylight Time),333073.7000000477,A,l,O,l,534,1,549.7000000476837,332524.0,7787,WL,B,2.0
2,6.050999879837036,learn,53949.000120162964,Wed Mar 25 2026 16:08:31 GMT-0500 (Central Daylight Time),333277.5,A,la,O,a,184,1,753.5,332524.0,7787,WL,B,2.0
2,6.496999979019165,learn,53503.000020980835,Wed Mar 25 2026 16:08:31 GMT-0500 (Central Daylight Time),333723.0,A,lak,O,k,427,1,1199.0,332524.0,7787,WL,B,2.0
2,6.61299991607666,learn,53387.00008392334,Wed Mar 25 2026 16:08:31 GMT-0500 (Central Daylight Time),333839.30000019073,A,lake,O,e,100,1,1315.3000001907349,332524.0,7787,WL,B,2.0
2,7.04800009727478,learn,52951.99990272522,Wed Mar 25 2026 16:08:31 GMT-0500 (Central Daylight Time),334274.10000014305,A,lakes,O,s,420,1,1750.1000001430511,332524.0,7787,WL,B,2.0
2,7.2809998989105225,learn,52719.00010108948,Wed Mar 25 2026 16:08:31 GMT-0500 (Central Daylight Time),334507.5,A,lakesk,O,k,216,1,1983.5,332524.0,7787,WL,B,2.0
2,7.463000059127808,learn,52536.99994087219,Wed Mar 25 2026 16:08:31 GMT-0500 (Central Daylight Time),334689.7000000477,A,lakeski,O,i,173,1,2165.7000000476837,332524.0,7787,WL,B,2.0
2,8.1489999294281,learn,51851.0000705719,Wed Mar 25 2026 16:08:31 GMT-0500 (Central Daylight Time),335375.30000019073,A,lakeskin,O,n,682,1,2851.300000190735,332524.0,7787,WL,B,2.0
2,10.280999898910522,learn,49719.00010108948,Wed Mar 25 2026 16:08:31 GMT-0500 (Central Daylight Time),337507.40000009537,A,lakeski,O,backspace,2122,1,4983.400000095367,332524.0,7787,WL,B,2.0
2,10.496999979019165,learn,49503.000020980835,Wed Mar 25 2026 16:08:31 GMT-0500 (Central Daylight Time),337723.10000014305,A,lakesk,O,backspace,205,1,5199.100000143051,332524.0,7787,WL,B,2.0
2,10.69599986076355,learn,49304.00013923645,Wed Mar 25 2026 16:08:31 GMT-0500 (Central Daylight Time),337922.40000009537,A,lakes,O,backspace,192,1,5398.400000095367,332524.0,7787,WL,B,2.0
2,10.914000034332275,learn,49085.999965667725,Wed Mar 25 2026 16:08:31 GMT-0500 (Central Daylight Time),338140.7000000477,A,lake,O,backspace,198,1,5616.700000047684,332524.0,7787,WL,B,2.0
2,11.114000082015991,learn,48885.99991798401,Wed Mar 25 2026 16:08:31 GMT-0500 (Central Daylight Time),338340.2000000477,A,lak,O,backspace,189,1,5816.200000047684,332524.0,7787,WL,B,2.0
2,12.213000059127808,learn,47786.99994087219,Wed Mar 25 2026 16:08:31 GMT-0500 (Central Daylight Time),339439.30000019073,A,lake,O,e,1084,1,6915.300000190735,332524.0,7787,WL,B,2.0
2,12.644999980926514,learn,47355.000019073486,Wed Mar 25 2026 16:08:31 GMT-0500 (Central Daylight Time),339870.80000019073,A,lakeenter,O,enter,410,1,7346.800000190735,332524.0,7787,WL,B,2.0
2,14.111999988555908,learn,45888.00001144409,Wed Mar 25 2026 16:08:31 GMT-0500 (Central Daylight Time),341338.10000014305,A,s,O,s,1460,1,1467.0,339871.10000014305,7787,WL,B,3.0
2,14.911999940872192,learn,45088.00005912781,Wed Mar 25 2026 16:08:31 GMT-0500 (Central Daylight Time),342138.7000000477,A,sk,O,k,791,1,2267.5999999046326,339871.10000014305,7787,WL,B,3.0
2,15.128000020980835,learn,44871.999979019165,Wed Mar 25 2026 16:08:31 GMT-0500 (Central Daylight Time),342353.80000019073,A,ski,O,i,197,1,2482.7000000476837,339871.10000014305,7787,WL,B,3.0
2,15.829999923706055,learn,44170.000076293945,Wed Mar 25 2026 16:08:31 GMT-0500 (Central Daylight Time),343056.30000019073,A,skin,O,n,688,1,3185.2000000476837,339871.10000014305,7787,WL,B,3.0
2,17.480000019073486,learn,42519.999980926514,Wed Mar 25 2026 16:08:31 GMT-0500 (Central Daylight Time),344706.30000019073,A,skinenter,O,enter,1644,1,4835.200000047684,339871.10000014305,7787,WL,B,3.0
2,18.32699990272522,learn,41673.00009727478,Wed Mar 25 2026 16:08:31 GMT-0500 (Central Daylight Time),345553.7000000477,A,c,O,c,840,1,847.0999999046326,344706.60000014305,7787,WL,B,4.0
2,18.57800006866455,learn,41421.99993133545,Wed Mar 25 2026 16:08:31 GMT-0500 (Central Daylight Time),345804.0,A,cl,O,l,242,1,1097.3999998569489,344706.60000014305,7787,WL,B,4.0
2,18.76099991798401,learn,41239.00008201599,Wed Mar 25 2026 16:08:31 GMT-0500 (Central Daylight Time),345987.10000014305,A,clo,O,o,175,1,1280.5,344706.60000014305,7787,WL,B,4.0
2,19.127000093460083,learn,40872.99990653992,Wed Mar 25 2026 16:08:31 GMT-0500 (Central Daylight Time),346353.60000014305,A,cloc,O,c,358,1,1647.0,344706.60000014305,7787,WL,B,4.0
2,19.47699999809265,learn,40523.00000190735,Wed Mar 25 2026 16:08:31 GMT-0500 (Central Daylight Time),346703.5,A,clock,O,k,343,1,1996.8999998569489,344706.60000014305,7787,WL,B,4.0
2,20.427000045776367,learn,39572.99995422363,Wed Mar 25 2026 16:08:31 GMT-0500 (Central Daylight Time),347653.0,A,clockenter,O,enter,939,1,2946.399999856949,344706.60000014305,7787,WL,B,4.0
2,20.861000061035156,learn,39138.999938964844,Wed Mar 25 2026 16:08:31 GMT-0500 (Central Daylight Time),348087.40000009537,A,s,O,s,414,1,434.09999990463257,347653.30000019073,7787,WL,B,5.0
2,21.111000061035156,learn,38888.999938964844,Wed Mar 25 2026 16:08:31 GMT-0500 (Central Daylight Time),348337.40000009537,A,st,O,t,243,1,684.0999999046326,347653.30000019073,7787,WL,B,5.0
2,21.293999910354614,learn,38706.000089645386,Wed Mar 25 2026 16:08:31 GMT-0500 (Central Daylight Time),348520.5,A,str,O,r,166,1,867.1999998092651,347653.30000019073,7787,WL,B,5.0
2,21.51099991798401,learn,38489.00008201599,Wed Mar 25 2026 16:08:31 GMT-0500 (Central Daylight Time),348736.90000009537,A,stre,O,e,201,1,1083.5999999046326,347653.30000019073,7787,WL,B,5.0
2,21.64400005340576,learn,38355.99994659424,Wed Mar 25 2026 16:08:31 GMT-0500 (Central Daylight Time),348870.0,A,stree,O,e,122,1,1216.6999998092651,347653.30000019073,7787,WL,B,5.0
2,21.84500002861023,learn,38154.99997138977,Wed Mar 25 2026 16:08:31 GMT-0500 (Central Daylight Time),349071.40000009537,A,street,O,t,195,1,1418.0999999046326,347653.30000019073,7787,WL,B,5.0
2,22.908999919891357,learn,37091.00008010864,Wed Mar 25 2026 16:08:31 GMT-0500 (Central Daylight Time),350135.30000019073,A,streetenter,O,enter,1050,1,2482.0,347653.30000019073,7787,WL,B,5.0
2,23.293999910354614,learn,36706.000089645386,Wed Mar 25 2026 16:08:31 GMT-0500 (Central Daylight Time),350520.30000019073,A,g,O,g,380,1,384.7000000476837,350135.60000014305,7787,WL,B,6.0
2,23.542999982833862,learn,36457.00001716614,Wed Mar 25 2026 16:08:31 GMT-0500 (Central Daylight Time),350769.7000000477,A,gr,O,r,231,1,634.0999999046326,350135.60000014305,7787,WL,B,6.0
2,23.842000007629395,learn,36157.999992370605,Wed Mar 25 2026 16:08:31 GMT-0500 (Central Daylight Time),351068.60000014305,A,gra,O,a,285,1,933.0,350135.60000014305,7787,WL,B,6.0
2,24.313999891281128,learn,35686.00010871887,Wed Mar 25 2026 16:08:31 GMT-0500 (Central Daylight Time),351540.2000000477,A,gras,O,s,451,1,1404.5999999046326,350135.60000014305,7787,WL,B,6.0
2,24.47699999809265,learn,35523.00000190735,Wed Mar 25 2026 16:08:31 GMT-0500 (Central Daylight Time),351703.0,A,grass,O,s,151,1,1567.3999998569489,350135.60000014305,7787,WL,B,6.0
2,25.325999975204468,learn,34674.00002479553,Wed Mar 25 2026 16:08:31 GMT-0500 (Central Daylight Time),352552.10000014305,A,grassenter,O,enter,844,1,2416.5,350135.60000014305,7787,WL,B,6.0
2,26.325999975204468,learn,33674.00002479553,Wed Mar 25 2026 16:08:31 GMT-0500 (Central Daylight Time),353552.5,A,d,O,d,987,1,1000.1999998092651,352552.30000019073,7787,WL,B,7.0
2,26.759999990463257,learn,33240.00000953674,Wed Mar 25 2026 16:08:31 GMT-0500 (Central Daylight Time),353985.90000009537,A,do,O,o,425,1,1433.5999999046326,352552.30000019073,7787,WL,B,7.0
2,26.91000008583069,learn,33089.99991416931,Wed Mar 25 2026 16:08:31 GMT-0500 (Central Daylight Time),354135.90000009537,A,doo,O,o,145,1,1583.5999999046326,352552.30000019073,7787,WL,B,7.0
2,27.375999927520752,learn,32624.000072479248,Wed Mar 25 2026 16:08:31 GMT-0500 (Central Daylight Time),354602.30000019073,A,door,O,r,460,1,2050.0,352552.30000019073,7787,WL,B,7.0
2,28.30900001525879,learn,31690.99998474121,Wed Mar 25 2026 16:08:31 GMT-0500 (Central Daylight Time),355535.2000000477,A,doorenter,O,enter,919,1,2982.899999856949,352552.30000019073,7787,WL,B,7.0
2,28.674999952316284,learn,31325.000047683716,Wed Mar 25 2026 16:08:31 GMT-0500 (Central Daylight Time),355901.10000014305,A,a,O,a,356,1,365.60000014305115,355535.5,7787,WL,B,8.0
2,29.108999967575073,learn,30891.000032424927,Wed Mar 25 2026 16:08:31 GMT-0500 (Central Daylight Time),356335.40000009537,A,ar,O,r,428,1,799.9000000953674,355535.5,7787,WL,B,8.0
2,29.575000047683716,learn,30424.999952316284,Wed Mar 25 2026 16:08:31 GMT-0500 (Central Daylight Time),356800.80000019073,A,arm,O,m,451,1,1265.3000001907349,355535.5,7787,WL,B,8.0
2,30.157999992370605,learn,29842.000007629395,Wed Mar 25 2026 16:08:31 GMT-0500 (Central Daylight Time),357384.5,A,armenter,O,enter,570,1,1849.0,355535.5,7787,WL,B,8.0
2,30.625999927520752,learn,29374.000072479248,Wed Mar 25 2026 16:08:31 GMT-0500 (Central Daylight Time),357851.90000009537,A,w,O,w,444,1,467.09999990463257,357384.80000019073,7787,WL,B,9.0
2,30.907000064849854,learn,29092.999935150146,Wed Mar 25 2026 16:08:31 GMT-0500 (Central Daylight Time),358133.5,A,wi,O,i,267,1,748.6999998092651,357384.80000019073,7787,WL,B,9.0
2,31.457000017166138,learn,28542.999982833862,Wed Mar 25 2026 16:08:31 GMT-0500 (Central Daylight Time),358683.60000014305,A,wif,O,f,540,1,1298.7999999523163,357384.80000019073,7787,WL,B,9.0
2,31.60599994659424,learn,28394.00005340576,Wed Mar 25 2026 16:08:31 GMT-0500 (Central Daylight Time),358832.90000009537,A,wife,O,e,135,1,1448.0999999046326,357384.80000019073,7787,WL,B,9.0
2,32.24000000953674,learn,27759.999990463257,Wed Mar 25 2026 16:08:31 GMT-0500 (Central Daylight Time),359466.0,A,wifeenter,O,enter,618,1,2081.199999809265,357384.80000019073,7787,WL,B,9.0
2,32.75699996948242,learn,27243.000030517578,Wed Mar 25 2026 16:08:31 GMT-0500 (Central Daylight Time),359983.10000014305,A,p,O,p,504,1,516.9000000953674,359466.2000000477,7787,WL,B,10.0
2,33.039000034332275,learn,26960.999965667725,Wed Mar 25 2026 16:08:31 GMT-0500 (Central Daylight Time),360265.30000019073,A,pu,O,u,266,1,799.1000001430511,359466.2000000477,7787,WL,B,10.0
2,33.520999908447266,learn,26479.000091552734,Wed Mar 25 2026 16:08:31 GMT-0500 (Central Daylight Time),360748.2000000477,A,pup,O,p,464,1,1282.0,359466.2000000477,7787,WL,B,10.0
2,33.83800005912781,learn,26161.999940872192,Wed Mar 25 2026 16:08:31 GMT-0500 (Central Daylight Time),361065.2000000477,A,pupi,O,i,302,1,1599.0,359466.2000000477,7787,WL,B,10.0
2,34.139999866485596,learn,25860.000133514404,Wed Mar 25 2026 16:08:31 GMT-0500 (Central Daylight Time),361366.5,A,pupil,O,l,278,1,1900.2999999523163,359466.2000000477,7787,WL,B,10.0
2,35.6710000038147,learn,24328.999996185303,Wed Mar 25 2026 16:08:31 GMT-0500 (Central Daylight Time),362897.60000014305,A,pupilenter,O,enter,1512,1,3431.4000000953674,359466.2000000477,7787,WL,B,10.0
2,53.51600003242493,learn,6483.999967575073,Wed Mar 25 2026 16:08:31 GMT-0500 (Central Daylight Time),380742.90000009537,A,p,O,p,17833,1,17845.0,362897.90000009537,7787,WL,B,11.0
2,53.782999992370605,learn,6217.0000076293945,Wed Mar 25 2026 16:08:31 GMT-0500 (Central Daylight Time),381010.10000014305,A,pi,O,i,246,1,18112.200000047684,362897.90000009537,7787,WL,B,11.0
2,54.014999866485596,learn,5985.000133514404,Wed Mar 25 2026 16:08:31 GMT-0500 (Central Daylight Time),381241.90000009537,A,pip,O,p,217,1,18344.0,362897.90000009537,7787,WL,B,11.0
2,54.31599998474121,learn,5684.000015258789,Wed Mar 25 2026 16:08:31 GMT-0500 (Central Daylight Time),381543.0,A,pipe,O,e,292,1,18645.099999904633,362897.90000009537,7787,WL,B,11.0
2,55.264999866485596,learn,4735.000133514404,Wed Mar 25 2026 16:08:31 GMT-0500 (Central Daylight Time),382492.10000014305,A,pipeenter,O,enter,935,1,19594.200000047684,362897.90000009537,7787,WL,B,11.0
2,60.013999938964844,learn,-13.99993896484375,Wed Mar 25 2026 16:08:31 GMT-0500 (Central Daylight Time),387240.90000009537,A,None,O,None,4744,1,4748.599999904633,382492.30000019073,7787,WL,B,12.0
3,2.430999994277954,learn,57569.000005722046,Wed Mar 25 2026 16:08:31 GMT-0500 (Central Daylight Time),460067.7000000477,A,s,O,s,2412,1,2431.2999999523163,457636.40000009537,7787,WL,B,1.0
3,2.6649999618530273,learn,57335.00003814697,Wed Mar 25 2026 16:08:31 GMT-0500 (Central Daylight Time),460301.40000009537,A,sk,O,k,220,1,2665.0,457636.40000009537,7787,WL,B,1.0
3,2.864000082015991,learn,57135.99991798401,Wed Mar 25 2026 16:08:31 GMT-0500 (Central Daylight Time),460500.40000009537,A,ski,O,i,187,1,2864.0,457636.40000009537,7787,WL,B,1.0
3,3.182000160217285,learn,56817.999839782715,Wed Mar 25 2026 16:08:31 GMT-0500 (Central Daylight Time),460817.80000019073,A,skin,O,n,301,1,3181.4000000953674,457636.40000009537,7787,WL,B,1.0
3,4.5320000648498535,learn,55467.99993515015,Wed Mar 25 2026 16:08:31 GMT-0500 (Central Daylight Time),462167.90000009537,A,skinenter,O,enter,1346,1,4531.5,457636.40000009537,7787,WL,B,1.0
3,5.281000137329102,learn,54718.9998626709,Wed Mar 25 2026 16:08:31 GMT-0500 (Central Daylight Time),462917.10000014305,A,c,O,c,729,1,749.0,462168.10000014305,7787,WL,B,2.0
3,5.680999994277954,learn,54319.000005722046,Wed Mar 25 2026 16:08:31 GMT-0500 (Central Daylight Time),463317.10000014305,A,ca,O,a,389,1,1149.0,462168.10000014305,7787,WL,B,2.0
3,6.0970001220703125,learn,53902.99987792969,Wed Mar 25 2026 16:08:31 GMT-0500 (Central Daylight Time),463733.40000009537,A,cab,O,b,404,1,1565.2999999523163,462168.10000014305,7787,WL,B,2.0
3,6.947999954223633,learn,53052.00004577637,Wed Mar 25 2026 16:08:31 GMT-0500 (Central Daylight Time),464583.90000009537,A,cabi,O,i,846,1,2415.7999999523163,462168.10000014305,7787,WL,B,2.0
3,7.930000066757202,learn,52069.9999332428,Wed Mar 25 2026 16:08:31 GMT-0500 (Central Daylight Time),465565.80000019073,A,cabin,O,n,967,1,3397.7000000476837,462168.10000014305,7787,WL,B,2.0
3,8.797000169754028,learn,51202.99983024597,Wed Mar 25 2026 16:08:31 GMT-0500 (Central Daylight Time),466433.0,A,cabinenter,O,enter,853,1,4264.899999856949,462168.10000014305,7787,WL,B,2.0
3,9.580000162124634,learn,50419.999837875366,Wed Mar 25 2026 16:08:31 GMT-0500 (Central Daylight Time),467216.60000014305,A,s,O,s,762,1,783.2999999523163,466433.30000019073,7787,WL,B,3.0
3,10.164000034332275,learn,49835.999965667725,Wed Mar 25 2026 16:08:31 GMT-0500 (Central Daylight Time),467799.80000019073,A,st,O,t,561,1,1366.5,466433.30000019073,7787,WL,B,3.0
3,10.330000162124634,learn,49669.999837875366,Wed Mar 25 2026 16:08:31 GMT-0500 (Central Daylight Time),467965.7000000477,A,sta,O,a,143,1,1532.3999998569489,466433.30000019073,7787,WL,B,3.0
3,10.42799997329712,learn,49572.00002670288,Wed Mar 25 2026 16:08:31 GMT-0500 (Central Daylight Time),468064.30000019073,A,star,O,r,91,1,1631.0,466433.30000019073,7787,WL,B,3.0
3,11.511000156402588,learn,48488.99984359741,Wed Mar 25 2026 16:08:31 GMT-0500 (Central Daylight Time),469147.10000014305,A,starenter,O,enter,1070,1,2713.7999999523163,466433.30000019073,7787,WL,B,3.0
3,12.695000171661377,learn,47304.99982833862,Wed Mar 25 2026 16:08:31 GMT-0500 (Central Daylight Time),470331.0,A,w,O,w,1164,1,1183.5999999046326,469147.40000009537,7787,WL,B,4.0
3,12.894999980926514,learn,47105.000019073486,Wed Mar 25 2026 16:08:31 GMT-0500 (Central Daylight Time),470531.5,A,wi,O,i,188,1,1384.0999999046326,469147.40000009537,7787,WL,B,4.0
3,13.11300015449524,learn,46886.99984550476,Wed Mar 25 2026 16:08:31 GMT-0500 (Central Daylight Time),470748.90000009537,A,win,O,n,209,1,1601.5,469147.40000009537,7787,WL,B,4.0
3,13.445000171661377,learn,46554.99982833862,Wed Mar 25 2026 16:08:31 GMT-0500 (Central Daylight Time),471080.80000019073,A,wind,O,d,315,1,1933.4000000953674,469147.40000009537,7787,WL,B,4.0
3,13.712000131607056,learn,46287.999868392944,Wed Mar 25 2026 16:08:31 GMT-0500 (Central Daylight Time),471348.10000014305,A,windo,O,o,257,1,2200.7000000476837,469147.40000009537,7787,WL,B,4.0
3,14.013000011444092,learn,45986.99998855591,Wed Mar 25 2026 16:08:31 GMT-0500 (Central Daylight Time),471648.80000019073,A,window,O,w,287,1,2501.4000000953674,469147.40000009537,7787,WL,B,4.0
3,15.062000036239624,learn,44937.999963760376,Wed Mar 25 2026 16:08:31 GMT-0500 (Central Daylight Time),472697.90000009537,A,windowenter,O,enter,1032,1,3550.5,469147.40000009537,7787,WL,B,4.0
3,15.894000053405762,learn,44105.99994659424,Wed Mar 25 2026 16:08:31 GMT-0500 (Central Daylight Time),473530.2000000477,A,f,O,f,811,1,832.0,472698.2000000477,7787,WL,B,5.0
3,16.194000005722046,learn,43805.999994277954,Wed Mar 25 2026 16:08:31 GMT-0500 (Central Daylight Time),473830.0,A,fi,O,i,286,1,1131.7999999523163,472698.2000000477,7787,WL,B,5.0
3,16.37600016593933,learn,43623.99983406067,Wed Mar 25 2026 16:08:31 GMT-0500 (Central Daylight Time),474012.5,A,fir,O,r,172,1,1314.2999999523163,472698.2000000477,7787,WL,B,5.0
3,16.47699999809265,learn,43523.00000190735,Wed Mar 25 2026 16:08:31 GMT-0500 (Central Daylight Time),474113.0,A,fire,O,e,86,1,1414.7999999523163,472698.2000000477,7787,WL,B,5.0
3,18.108999967575073,learn,41891.00003242493,Wed Mar 25 2026 16:08:31 GMT-0500 (Central Daylight Time),475745.40000009537,A,fireenter,O,enter,1615,1,3047.2000000476837,472698.2000000477,7787,WL,B,5.0
3,18.960000038146973,learn,41039.99996185303,Wed Mar 25 2026 16:08:31 GMT-0500 (Central Daylight Time),476596.0,A,s,O,s,841,1,850.3999998569489,475745.60000014305,7787,WL,B,6.0
3,19.276999950408936,learn,40723.000049591064,Wed Mar 25 2026 16:08:31 GMT-0500 (Central Daylight Time),476913.30000019073,A,st,O,t,312,1,1167.7000000476837,475745.60000014305,7787,WL,B,6.0
3,19.426000118255615,learn,40573.999881744385,Wed Mar 25 2026 16:08:31 GMT-0500 (Central Daylight Time),477062.60000014305,A,str,O,r,143,1,1317.0,475745.60000014305,7787,WL,B,6.0
3,19.66000008583069,learn,40339.99991416931,Wed Mar 25 2026 16:08:31 GMT-0500 (Central Daylight Time),477295.80000019073,A,stre,O,e,220,1,1550.2000000476837,475745.60000014305,7787,WL,B,6.0
3,19.8270001411438,learn,40172.9998588562,Wed Mar 25 2026 16:08:31 GMT-0500 (Central Daylight Time),477463.10000014305,A,stree,O,e,143,1,1717.5,475745.60000014305,7787,WL,B,6.0
3,19.993000030517578,learn,40006.99996948242,Wed Mar 25 2026 16:08:31 GMT-0500 (Central Daylight Time),477628.7000000477,A,street,O,t,153,1,1883.0999999046326,475745.60000014305,7787,WL,B,6.0
3,21.093000173568726,learn,38906.999826431274,Wed Mar 25 2026 16:08:31 GMT-0500 (Central Daylight Time),478728.7000000477,A,streetenter,O,enter,1084,1,2983.0999999046326,475745.60000014305,7787,WL,B,6.0
3,21.424999952316284,learn,38575.000047683716,Wed Mar 25 2026 16:08:31 GMT-0500 (Central Daylight Time),479061.0,A,g,O,g,312,1,332.0,478729.0,7787,WL,B,7.0
3,21.62600016593933,learn,38373.99983406067,Wed Mar 25 2026 16:08:31 GMT-0500 (Central Daylight Time),479262.5,A,gr,O,r,198,1,533.5,478729.0,7787,WL,B,7.0
3,23.006999969482422,learn,36993.00003051758,Wed Mar 25 2026 16:08:31 GMT-0500 (Central Daylight Time),480644.0,A,gra,O,a,1361,1,1915.0,478729.0,7787,WL,B,7.0
3,23.27400016784668,learn,36725.99983215332,Wed Mar 25 2026 16:08:31 GMT-0500 (Central Daylight Time),480910.2000000477,A,gras,O,s,246,1,2181.2000000476837,478729.0,7787,WL,B,7.0
3,23.44000005722046,learn,36559.99994277954,Wed Mar 25 2026 16:08:31 GMT-0500 (Central Daylight Time),481076.90000009537,A,grass,O,s,157,1,2347.9000000953674,478729.0,7787,WL,B,7.0
3,24.424999952316284,learn,35575.000047683716,Wed Mar 25 2026 16:08:31 GMT-0500 (Central Daylight Time),482061.60000014305,A,grassenter,O,enter,966,1,3332.600000143051,478729.0,7787,WL,B,7.0
3,25.192000150680542,learn,34807.99984931946,Wed Mar 25 2026 16:08:31 GMT-0500 (Central Daylight Time),482828.2000000477,A,d,O,d,748,1,766.3999998569489,482061.80000019073,7787,WL,B,8.0
3,25.574000120162964,learn,34425.999879837036,Wed Mar 25 2026 16:08:31 GMT-0500 (Central Daylight Time),483210.2000000477,A,do,O,o,364,1,1148.3999998569489,482061.80000019073,7787,WL,B,8.0
3,25.707000017166138,learn,34292.99998283386,Wed Mar 25 2026 16:08:31 GMT-0500 (Central Daylight Time),483343.80000019073,A,doo,O,o,119,1,1282.0,482061.80000019073,7787,WL,B,8.0
3,25.89199995994568,learn,34108.00004005432,Wed Mar 25 2026 16:08:31 GMT-0500 (Central Daylight Time),483528.2000000477,A,door,O,r,178,1,1466.3999998569489,482061.80000019073,7787,WL,B,8.0
3,27.057000160217285,learn,32942.999839782715,Wed Mar 25 2026 16:08:31 GMT-0500 (Central Daylight Time),484693.7000000477,A,doorenter,O,enter,1144,1,2631.899999856949,482061.80000019073,7787,WL,B,8.0
3,27.621999979019165,learn,32378.000020980835,Wed Mar 25 2026 16:08:31 GMT-0500 (Central Daylight Time),485259.0,A,a,O,a,549,1,565.0999999046326,484693.90000009537,7787,WL,B,9.0
3,27.924000024795532,learn,32075.999975204468,Wed Mar 25 2026 16:08:31 GMT-0500 (Central Daylight Time),485560.40000009537,A,ar,O,r,280,1,866.5,484693.90000009537,7787,WL,B,9.0
3,28.42200016975403,learn,31577.99983024597,Wed Mar 25 2026 16:08:31 GMT-0500 (Central Daylight Time),486058.90000009537,A,arn,O,n,488,1,1365.0,484693.90000009537,7787,WL,B,9.0
3,29.124000072479248,learn,30875.999927520752,Wed Mar 25 2026 16:08:31 GMT-0500 (Central Daylight Time),486760.2000000477,A,ar,O,backspace,696,1,2066.2999999523163,484693.90000009537,7787,WL,B,9.0
3,29.390000104904175,learn,30609.999895095825,Wed Mar 25 2026 16:08:31 GMT-0500 (Central Daylight Time),487026.2000000477,A,arm,O,m,259,1,2332.2999999523163,484693.90000009537,7787,WL,B,9.0
3,29.94000005722046,learn,30059.99994277954,Wed Mar 25 2026 16:08:31 GMT-0500 (Central Daylight Time),487576.10000014305,A,armenter,O,enter,534,1,2882.2000000476837,484693.90000009537,7787,WL,B,9.0
3,31.65499997138977,learn,28345.00002861023,Wed Mar 25 2026 16:08:31 GMT-0500 (Central Daylight Time),489292.0,A,w,O,w,1699,1,1715.5,487576.5,7787,WL,B,10.0
3,31.937999963760376,learn,28062.000036239624,Wed Mar 25 2026 16:08:31 GMT-0500 (Central Daylight Time),489574.7000000477,A,wi,O,i,277,1,1998.2000000476837,487576.5,7787,WL,B,10.0
3,32.2720000743866,learn,27727.999925613403,Wed Mar 25 2026 16:08:31 GMT-0500 (Central Daylight Time),489908.60000014305,A,wif,O,f,314,1,2332.100000143051,487576.5,7787,WL,B,10.0
3,32.4060001373291,learn,27593.9998626709,Wed Mar 25 2026 16:08:31 GMT-0500 (Central Daylight Time),490042.7000000477,A,wife,O,e,118,1,2466.2000000476837,487576.5,7787,WL,B,10.0
3,33.73900008201599,learn,26260.99991798401,Wed Mar 25 2026 16:08:31 GMT-0500 (Central Daylight Time),491375.80000019073,A,wifeenter,O,enter,1328,1,3799.300000190735,487576.5,7787,WL,B,10.0
3,34.604000091552734,learn,25395.999908447266,Wed Mar 25 2026 16:08:31 GMT-0500 (Central Daylight Time),492240.7000000477,A,p,O,p,860,1,864.7000000476837,491376.0,7787,WL,B,11.0
3,34.87100005149841,learn,25128.999948501587,Wed Mar 25 2026 16:08:31 GMT-0500 (Central Daylight Time),492507.60000014305,A,pu,O,u,257,1,1131.6000001430511,491376.0,7787,WL,B,11.0
3,36.03699994087219,learn,23963.000059127808,Wed Mar 25 2026 16:08:31 GMT-0500 (Central Daylight Time),493673.7000000477,A,pup,O,p,1145,1,2297.7000000476837,491376.0,7787,WL,B,11.0
3,36.8050000667572,learn,23194.999933242798,Wed Mar 25 2026 16:08:31 GMT-0500 (Central Daylight Time),494441.40000009537,A,pupi,O,i,762,1,3065.4000000953674,491376.0,7787,WL,B,11.0
3,37.121999979019165,learn,22878.000020980835,Wed Mar 25 2026 16:08:31 GMT-0500 (Central Daylight Time),494758.10000014305,A,pupil,O,l,295,1,3382.100000143051,491376.0,7787,WL,B,11.0
3,39.253000020980835,learn,20746.999979019165,Wed Mar 25 2026 16:08:31 GMT-0500 (Central Daylight Time),496889.7000000477,A,pupilenter,O,enter,2114,1,5513.700000047684,491376.0,7787,WL,B,11.0
3,56.61300015449524,learn,3386.9998455047607,Wed Mar 25 2026 16:08:31 GMT-0500 (Central Daylight Time),514250.0,A,c,O,c,17352,1,17360.099999904633,496889.90000009537,7787,WL,B,12.0
3,56.91300010681152,learn,3086.9998931884766,Wed Mar 25 2026 16:08:31 GMT-0500 (Central Daylight Time),514549.90000009537,A,cl,O,l,286,1,17660.0,496889.90000009537,7787,WL,B,12.0
3,57.09599995613098,learn,2904.0000438690186,Wed Mar 25 2026 16:08:31 GMT-0500 (Central Daylight Time),514733.10000014305,A,clo,O,o,170,1,17843.200000047684,496889.90000009537,7787,WL,B,12.0
3,57.36400008201599,learn,2635.999917984009,Wed Mar 25 2026 16:08:31 GMT-0500 (Central Daylight Time),515000.7000000477,A,cloc,O,c,249,1,18110.799999952316,496889.90000009537,7787,WL,B,12.0
3,57.59599995613098,learn,2404.0000438690186,Wed Mar 25 2026 16:08:31 GMT-0500 (Central Daylight Time),515232.80000019073,A,clock,O,k,222,1,18342.900000095367,496889.90000009537,7787,WL,B,12.0
3,58.46399998664856,learn,1536.0000133514404,Wed Mar 25 2026 16:08:31 GMT-0500 (Central Daylight Time),516100.40000009537,A,clockenter,O,enter,858,1,19210.5,496889.90000009537,7787,WL,B,12.0
3,60.01300001144409,learn,-13.000011444091797,Wed Mar 25 2026 16:08:31 GMT-0500 (Central Daylight Time),517649.40000009537,A,None,O,None,1543,1,1548.7000000476837,516100.7000000477,7787,WL,B,13.0
4,2.9649999141693115,learn,57035.00008583069,Wed Mar 25 2026 16:08:31 GMT-0500 (Central Daylight Time),595558.0,A,s,O,s,2950,1,2964.399999856949,592593.600000143,7787,WL,B,1.0
4,3.430999994277954,learn,56569.000005722046,Wed Mar 25 2026 16:08:31 GMT-0500 (Central Daylight Time),596024.3000001907,A,st,O,t,451,1,3430.7000000476837,592593.600000143,7787,WL,B,1.0
4,3.631999969482422,learn,56368.00003051758,Wed Mar 25 2026 16:08:31 GMT-0500 (Central Daylight Time),596224.600000143,A,sta,O,a,192,1,3631.0,592593.600000143,7787,WL,B,1.0
4,3.7660000324249268,learn,56233.99996757507,Wed Mar 25 2026 16:08:31 GMT-0500 (Central Daylight Time),596358.9000000954,A,star,O,r,119,1,3765.2999999523163,592593.600000143,7787,WL,B,1.0
4,5.013000011444092,learn,54986.99998855591,Wed Mar 25 2026 16:08:31 GMT-0500 (Central Daylight Time),597606.4000000954,A,starenter,O,enter,1233,1,5012.799999952316,592593.600000143,7787,WL,B,1.0
4,5.746999979019165,learn,54253.000020980835,Wed Mar 25 2026 16:08:31 GMT-0500 (Central Daylight Time),598340.2000000477,A,w,O,w,723,1,733.5,597606.7000000477,7787,WL,B,2.0
4,5.947000026702881,learn,54052.99997329712,Wed Mar 25 2026 16:08:31 GMT-0500 (Central Daylight Time),598540.5,A,wi,O,i,191,1,933.7999999523163,597606.7000000477,7787,WL,B,2.0
4,6.164000034332275,learn,53835.999965667725,Wed Mar 25 2026 16:08:31 GMT-0500 (Central Daylight Time),598757.0,A,win,O,n,205,1,1150.2999999523163,597606.7000000477,7787,WL,B,2.0
4,6.8480000495910645,learn,53151.999950408936,Wed Mar 25 2026 16:08:31 GMT-0500 (Central Daylight Time),599441.4000000954,A,wind,O,d,668,1,1834.7000000476837,597606.7000000477,7787,WL,B,2.0
4,7.263000011444092,learn,52736.99998855591,Wed Mar 25 2026 16:08:31 GMT-0500 (Central Daylight Time),599856.3000001907,A,windo,O,o,407,1,2249.600000143051,597606.7000000477,7787,WL,B,2.0
4,7.397000074386597,learn,52602.9999256134,Wed Mar 25 2026 16:08:31 GMT-0500 (Central Daylight Time),599990.3000001907,A,window,O,w,124,1,2383.600000143051,597606.7000000477,7787,WL,B,2.0
4,8.361000061035156,learn,51638.999938964844,Wed Mar 25 2026 16:08:31 GMT-0500 (Central Daylight Time),600954.7000000477,A,windowenter,O,enter,954,1,3348.0,597606.7000000477,7787,WL,B,2.0
4,9.812999963760376,learn,50187.000036239624,Wed Mar 25 2026 16:08:31 GMT-0500 (Central Daylight Time),602406.2000000477,A,c,O,c,1431,1,1451.2999999523163,600954.9000000954,7787,WL,B,3.0
4,10.027999877929688,learn,49972.00012207031,Wed Mar 25 2026 16:08:31 GMT-0500 (Central Daylight Time),602621.600000143,A,ci,O,i,202,1,1666.7000000476837,600954.9000000954,7787,WL,B,3.0
4,10.277999877929688,learn,49722.00012207031,Wed Mar 25 2026 16:08:31 GMT-0500 (Central Daylight Time),602872.0,A,cit,O,t,243,1,1917.0999999046326,600954.9000000954,7787,WL,B,3.0
4,10.394000053405762,learn,49605.99994659424,Wed Mar 25 2026 16:08:31 GMT-0500 (Central Daylight Time),602987.9000000954,A,city,O,y,103,1,2033.0,600954.9000000954,7787,WL,B,3.0
4,11.34500002861023,learn,48654.99997138977,Wed Mar 25 2026 16:08:31 GMT-0500 (Central Daylight Time),603938.5,A,cityenter,O,enter,940,1,2983.5999999046326,600954.9000000954,7787,WL,B,3.0
4,11.82800006866455,learn,48171.99993133545,Wed Mar 25 2026 16:08:31 GMT-0500 (Central Daylight Time),604421.9000000954,A,f,O,f,463,1,483.2000000476837,603938.7000000477,7787,WL,B,4.0
4,12.078999996185303,learn,47921.0000038147,Wed Mar 25 2026 16:08:31 GMT-0500 (Central Daylight Time),604672.4000000954,A,fi,O,i,234,1,733.7000000476837,603938.7000000477,7787,WL,B,4.0
4,12.343999862670898,learn,47656.0001373291,Wed Mar 25 2026 16:08:31 GMT-0500 (Central Daylight Time),604937.5,A,fir,O,r,245,1,998.7999999523163,603938.7000000477,7787,WL,B,4.0
4,12.427000045776367,learn,47572.99995422363,Wed Mar 25 2026 16:08:31 GMT-0500 (Central Daylight Time),605020.7000000477,A,fire,O,e,65,1,1082.0,603938.7000000477,7787,WL,B,4.0
4,14.593999862670898,learn,45406.0001373291,Wed Mar 25 2026 16:08:31 GMT-0500 (Central Daylight Time),607187.5,A,fireenter,O,enter,2147,1,3248.7999999523163,603938.7000000477,7787,WL,B,4.0
4,16.960000038146973,learn,43039.99996185303,Wed Mar 25 2026 16:08:31 GMT-0500 (Central Daylight Time),609553.4000000954,A,c,O,c,2350,1,2365.7000000476837,607187.7000000477,7787,WL,B,5.0
4,17.144999980926514,learn,42855.000019073486,Wed Mar 25 2026 16:08:31 GMT-0500 (Central Daylight Time),609738.100000143,A,cl,O,l,174,1,2550.4000000953674,607187.7000000477,7787,WL,B,5.0
4,17.342999935150146,learn,42657.00006484985,Wed Mar 25 2026 16:08:31 GMT-0500 (Central Daylight Time),609936.600000143,A,clo,O,o,181,1,2748.9000000953674,607187.7000000477,7787,WL,B,5.0
4,17.710000038146973,learn,42289.99996185303,Wed Mar 25 2026 16:08:31 GMT-0500 (Central Daylight Time),610303.4000000954,A,cloc,O,c,360,1,3115.7000000476837,607187.7000000477,7787,WL,B,5.0
4,18.09599995613098,learn,41904.00004386902,Wed Mar 25 2026 16:08:31 GMT-0500 (Central Daylight Time),610689.8000001907,A,clock,O,k,379,1,3502.100000143051,607187.7000000477,7787,WL,B,5.0
4,19.30999994277954,learn,40690.00005722046,Wed Mar 25 2026 16:08:31 GMT-0500 (Central Daylight Time),611903.4000000954,A,clockenter,O,enter,1210,1,4715.700000047684,607187.7000000477,7787,WL,B,5.0
4,20.391000032424927,learn,39608.99996757507,Wed Mar 25 2026 16:08:31 GMT-0500 (Central Daylight Time),612984.100000143,A,w,O,w,1074,1,1080.5,611903.600000143,7787,WL,B,6.0
4,20.675999879837036,learn,39324.000120162964,Wed Mar 25 2026 16:08:31 GMT-0500 (Central Daylight Time),613269.9000000954,A,wi,O,i,267,1,1366.2999999523163,611903.600000143,7787,WL,B,6.0
4,20.95899987220764,learn,39041.00012779236,Wed Mar 25 2026 16:08:31 GMT-0500 (Central Daylight Time),613553.0,A,wif,O,f,268,1,1649.3999998569489,611903.600000143,7787,WL,B,6.0
4,21.075999975204468,learn,38924.00002479553,Wed Mar 25 2026 16:08:31 GMT-0500 (Central Daylight Time),613669.8000001907,A,wife,O,e,103,1,1766.2000000476837,611903.600000143,7787,WL,B,6.0
4,22.358999967575073,learn,37641.00003242493,Wed Mar 25 2026 16:08:31 GMT-0500 (Central Daylight Time),614952.0,A,wifeenter,O,enter,1275,1,3048.399999856949,611903.600000143,7787,WL,B,6.0
4,23.657000064849854,learn,36342.99993515015,Wed Mar 25 2026 16:08:31 GMT-0500 (Central Daylight Time),616250.8000001907,A,w,O,w,1290,1,1298.5,614952.3000001907,7787,WL,B,7.0
4,23.89199995994568,learn,36108.00004005432,Wed Mar 25 2026 16:08:31 GMT-0500 (Central Daylight Time),616485.2000000477,A,wi,O,i,214,1,1532.8999998569489,614952.3000001907,7787,WL,B,7.0
4,24.10800004005432,learn,35891.99995994568,Wed Mar 25 2026 16:08:31 GMT-0500 (Central Daylight Time),616701.7000000477,A,win,O,n,203,1,1749.3999998569489,614952.3000001907,7787,WL,B,7.0
4,24.374000072479248,learn,35625.99992752075,Wed Mar 25 2026 16:08:31 GMT-0500 (Central Daylight Time),616967.600000143,A,wind,O,d,250,1,2015.2999999523163,614952.3000001907,7787,WL,B,7.0
4,24.641000032424927,learn,35358.99996757507,Wed Mar 25 2026 16:08:31 GMT-0500 (Central Daylight Time),617234.3000001907,A,windo,O,o,249,1,2282.0,614952.3000001907,7787,WL,B,7.0
4,24.94099998474121,learn,35059.00001525879,Wed Mar 25 2026 16:08:31 GMT-0500 (Central Daylight Time),617534.2000000477,A,window,O,w,280,1,2581.899999856949,614952.3000001907,7787,WL,B,7.0
4,26.537999868392944,learn,33462.000131607056,Wed Mar 25 2026 16:08:31 GMT-0500 (Central Daylight Time),619132.0,A,windowenter,O,enter,1585,1,4179.699999809265,614952.3000001907,7787,WL,B,7.0
4,27.455999851226807,learn,32544.000148773193,Wed Mar 25 2026 16:08:31 GMT-0500 (Central Daylight Time),620049.100000143,A,s,O,s,900,1,916.9000000953674,619132.2000000477,7787,WL,B,8.0
4,27.625,learn,32375.0,Wed Mar 25 2026 16:08:31 GMT-0500 (Central Daylight Time),620218.2000000477,A,st,O,t,164,1,1086.0,619132.2000000477,7787,WL,B,8.0
4,27.79200005531311,learn,32207.99994468689,Wed Mar 25 2026 16:08:31 GMT-0500 (Central Daylight Time),620385.8000001907,A,str,O,r,159,1,1253.6000001430511,619132.2000000477,7787,WL,B,8.0
4,28.056999921798706,learn,31943.000078201294,Wed Mar 25 2026 16:08:31 GMT-0500 (Central Daylight Time),620650.4000000954,A,stre,O,e,245,1,1518.2000000476837,619132.2000000477,7787,WL,B,8.0
4,28.20899987220764,learn,31791.00012779236,Wed Mar 25 2026 16:08:31 GMT-0500 (Central Daylight Time),620802.100000143,A,stree,O,e,135,1,1669.9000000953674,619132.2000000477,7787,WL,B,8.0
4,28.32699990272522,learn,31673.00009727478,Wed Mar 25 2026 16:08:31 GMT-0500 (Central Daylight Time),620921.100000143,A,street,O,t,114,1,1788.9000000953674,619132.2000000477,7787,WL,B,8.0
4,30.210000038146973,learn,29789.999961853027,Wed Mar 25 2026 16:08:31 GMT-0500 (Central Daylight Time),622803.5,A,streetenter,O,enter,1878,1,3671.2999999523163,619132.2000000477,7787,WL,B,8.0
4,31.20899987220764,learn,28791.00012779236,Wed Mar 25 2026 16:08:31 GMT-0500 (Central Daylight Time),623802.4000000954,A,g,O,g,975,1,998.7000000476837,622803.7000000477,7787,WL,B,9.0
4,31.305000066757202,learn,28694.999933242798,Wed Mar 25 2026 16:08:31 GMT-0500 (Central Daylight Time),623898.9000000954,A,gr,O,r,77,1,1095.2000000476837,622803.7000000477,7787,WL,B,9.0
4,31.558000087738037,learn,28441.999912261963,Wed Mar 25 2026 16:08:31 GMT-0500 (Central Daylight Time),624151.2000000477,A,gra,O,a,246,1,1347.5,622803.7000000477,7787,WL,B,9.0
4,31.88700008392334,learn,28112.99991607666,Wed Mar 25 2026 16:08:31 GMT-0500 (Central Daylight Time),624480.4000000954,A,gras,O,s,320,1,1676.7000000476837,622803.7000000477,7787,WL,B,9.0
4,32.0699999332428,learn,27930.000066757202,Wed Mar 25 2026 16:08:31 GMT-0500 (Central Daylight Time),624663.4000000954,A,grass,O,s,171,1,1859.7000000476837,622803.7000000477,7787,WL,B,9.0
4,33.7720000743866,learn,26227.999925613403,Wed Mar 25 2026 16:08:31 GMT-0500 (Central Daylight Time),626365.2000000477,A,grassenter,O,enter,1683,1,3561.5,622803.7000000477,7787,WL,B,9.0
4,34.15400004386902,learn,25845.99995613098,Wed Mar 25 2026 16:08:31 GMT-0500 (Central Daylight Time),626747.4000000954,A,d,O,d,372,1,382.0,626365.4000000954,7787,WL,B,10.0
4,34.473000049591064,learn,25526.999950408936,Wed Mar 25 2026 16:08:31 GMT-0500 (Central Daylight Time),627066.5,A,do,O,o,294,1,701.0999999046326,626365.4000000954,7787,WL,B,10.0
4,34.58899998664856,learn,25411.00001335144,Wed Mar 25 2026 16:08:31 GMT-0500 (Central Daylight Time),627182.8000001907,A,doo,O,o,102,1,817.4000000953674,626365.4000000954,7787,WL,B,10.0
4,34.75399994850159,learn,25246.000051498413,Wed Mar 25 2026 16:08:31 GMT-0500 (Central Daylight Time),627347.5,A,door,O,r,146,1,982.0999999046326,626365.4000000954,7787,WL,B,10.0
4,35.22099995613098,learn,24779.00004386902,Wed Mar 25 2026 16:08:31 GMT-0500 (Central Daylight Time),627814.8000001907,A,doorenter,O,enter,461,1,1449.4000000953674,626365.4000000954,7787,WL,B,10.0
4,35.47000002861023,learn,24529.99997138977,Wed Mar 25 2026 16:08:31 GMT-0500 (Central Daylight Time),628063.7000000477,A,a,O,a,242,1,248.5,627815.2000000477,7787,WL,B,11.0
4,35.97000002861023,learn,24029.99997138977,Wed Mar 25 2026 16:08:31 GMT-0500 (Central Daylight Time),628563.600000143,A,ar,O,r,487,1,748.4000000953674,627815.2000000477,7787,WL,B,11.0
4,36.83699989318848,learn,23163.000106811523,Wed Mar 25 2026 16:08:31 GMT-0500 (Central Daylight Time),629430.8000001907,A,arm,O,m,844,1,1615.6000001430511,627815.2000000477,7787,WL,B,11.0
4,38.08699989318848,learn,21913.000106811523,Wed Mar 25 2026 16:08:31 GMT-0500 (Central Daylight Time),630680.8000001907,A,armenter,O,enter,1240,1,2865.600000143051,627815.2000000477,7787,WL,B,11.0
4,39.8529999256134,learn,20147.000074386597,Wed Mar 25 2026 16:08:31 GMT-0500 (Central Daylight Time),632446.4000000954,A,c,O,c,1761,1,1765.4000000953674,630681.0,7787,WL,B,12.0
4,40.168999910354614,learn,19831.000089645386,Wed Mar 25 2026 16:08:31 GMT-0500 (Central Daylight Time),632762.600000143,A,ca,O,a,298,1,2081.600000143051,630681.0,7787,WL,B,12.0
4,40.501999855041504,learn,19498.000144958496,Wed Mar 25 2026 16:08:31 GMT-0500 (Central Daylight Time),633095.8000001907,A,cab,O,b,325,1,2414.800000190735,630681.0,7787,WL,B,12.0
4,40.751999855041504,learn,19248.000144958496,Wed Mar 25 2026 16:08:31 GMT-0500 (Central Daylight Time),633345.8000001907,A,cabi,O,i,240,1,2664.800000190735,630681.0,7787,WL,B,12.0
4,40.93499994277954,learn,19065.00005722046,Wed Mar 25 2026 16:08:31 GMT-0500 (Central Daylight Time),633528.7000000477,A,cabin,O,n,165,1,2847.7000000476837,630681.0,7787,WL,B,12.0
4,41.4229998588562,learn,18577.0001411438,Wed Mar 25 2026 16:08:31 GMT-0500 (Central Daylight Time),634016.4000000954,A,cabinenter,O,enter,462,1,3335.4000000953674,630681.0,7787,WL,B,12.0
4,41.83500003814697,learn,18164.999961853027,Wed Mar 25 2026 16:08:31 GMT-0500 (Central Daylight Time),634428.5,A,l,O,l,393,1,411.69999980926514,634016.8000001907,7787,WL,B,13.0
4,42.05399990081787,learn,17946.00009918213,Wed Mar 25 2026 16:08:31 GMT-0500 (Central Daylight Time),634647.2000000477,A,la,O,a,201,1,630.3999998569489,634016.8000001907,7787,WL,B,13.0
4,42.486000061035156,learn,17513.999938964844,Wed Mar 25 2026 16:08:31 GMT-0500 (Central Daylight Time),635079.3000001907,A,lak,O,k,409,1,1062.5,634016.8000001907,7787,WL,B,13.0
4,42.63499999046326,learn,17365.000009536743,Wed Mar 25 2026 16:08:31 GMT-0500 (Central Daylight Time),635229.0,A,lake,O,e,126,1,1212.1999998092651,634016.8000001907,7787,WL,B,13.0
4,44.7189998626709,learn,15281.000137329102,Wed Mar 25 2026 16:08:31 GMT-0500 (Central Daylight Time),637312.5,A,lakeenter,O,enter,2069,1,3295.699999809265,634016.8000001907,7787,WL,B,13.0
4,46.38599991798401,learn,13614.000082015991,Wed Mar 25 2026 16:08:31 GMT-0500 (Central Daylight Time),638979.100000143,A,s,O,s,1650,1,1666.2999999523163,637312.8000001907,7787,WL,B,14.0
4,46.76699995994568,learn,13233.000040054321,Wed Mar 25 2026 16:08:31 GMT-0500 (Central Daylight Time),639360.0,A,sk,O,k,375,1,2047.1999998092651,637312.8000001907,7787,WL,B,14.0
4,46.95099997520447,learn,13049.000024795532,Wed Mar 25 2026 16:08:31 GMT-0500 (Central Daylight Time),639544.5,A,ski,O,i,159,1,2231.699999809265,637312.8000001907,7787,WL,B,14.0
4,47.200000047683716,learn,12799.999952316284,Wed Mar 25 2026 16:08:31 GMT-0500 (Central Daylight Time),639793.100000143,A,skin,O,n,241,1,2480.2999999523163,637312.8000001907,7787,WL,B,14.0
4,48.01600003242493,learn,11983.999967575073,Wed Mar 25 2026 16:08:31 GMT-0500 (Central Daylight Time),640609.7000000477,A,skinenter,O,enter,796,1,3296.899999856949,637312.8000001907,7787,WL,B,14.0
4,60.013999938964844,learn,-13.99993896484375,Wed Mar 25 2026 16:08:31 GMT-0500 (Central Daylight Time),652607.7000000477,A,None,O,None,11993,1,11997.700000047684,640610.0,7787,WL,B,15.0
5,0.8169999122619629,learn,60000.0,Wed Mar 25 2026 16:08:31 GMT-0500 (Central Daylight Time),724150.7000000477,A,f,O,f,797,1,816.7999999523163,723333.9000000954,7787,WL,B,1.0
5,1.0679998397827148,learn,60000.0,Wed Mar 25 2026 16:08:31 GMT-0500 (Central Daylight Time),724401.7000000477,A,fi,O,i,245,1,1067.7999999523163,723333.9000000954,7787,WL,B,1.0
5,1.2849998474121094,learn,60000.0,Wed Mar 25 2026 16:08:31 GMT-0500 (Central Daylight Time),724618.7000000477,A,fir,O,r,209,1,1284.7999999523163,723333.9000000954,7787,WL,B,1.0
5,1.36899995803833,learn,60000.0,Wed Mar 25 2026 16:08:31 GMT-0500 (Central Daylight Time),724701.9000000954,A,fire,O,e,61,1,1368.0,723333.9000000954,7787,WL,B,1.0
5,2.4009997844696045,learn,60000.0,Wed Mar 25 2026 16:08:31 GMT-0500 (Central Daylight Time),725733.9000000954,A,fireenter,O,enter,1011,1,2400.0,723333.9000000954,7787,WL,B,1.0
5,3.382999897003174,learn,60000.0,Wed Mar 25 2026 16:08:31 GMT-0500 (Central Daylight Time),726716.7000000477,A,c,O,c,964,1,982.5999999046326,725734.100000143,7787,WL,B,2.0
5,3.617999792098999,learn,60000.0,Wed Mar 25 2026 16:08:31 GMT-0500 (Central Daylight Time),726950.9000000954,A,cl,O,l,229,1,1216.7999999523163,725734.100000143,7787,WL,B,2.0
5,3.8329999446868896,learn,60000.0,Wed Mar 25 2026 16:08:31 GMT-0500 (Central Daylight Time),727166.7000000477,A,clo,O,o,195,1,1432.5999999046326,725734.100000143,7787,WL,B,2.0
5,4.266999959945679,learn,60000.0,Wed Mar 25 2026 16:08:31 GMT-0500 (Central Daylight Time),727600.3000001907,A,cloc,O,c,429,1,1866.2000000476837,725734.100000143,7787,WL,B,2.0
5,4.365999937057495,learn,60000.0,Wed Mar 25 2026 16:08:31 GMT-0500 (Central Daylight Time),727699.4000000954,A,clock,O,k,81,1,1965.2999999523163,725734.100000143,7787,WL,B,2.0
5,5.187999963760376,learn,60000.0,Wed Mar 25 2026 16:08:31 GMT-0500 (Central Daylight Time),728521.0,A,clockenter,O,enter,806,1,2786.899999856949,725734.100000143,7787,WL,B,2.0
5,6.148000001907349,learn,60000.0,Wed Mar 25 2026 16:08:31 GMT-0500 (Central Daylight Time),729481.8000001907,A,s,O,s,946,1,960.7000000476837,728521.100000143,7787,WL,B,3.0
5,6.497999906539917,learn,60000.0,Wed Mar 25 2026 16:08:31 GMT-0500 (Central Daylight Time),729831.7000000477,A,sk,O,k,334,1,1310.5999999046326,728521.100000143,7787,WL,B,3.0
5,6.682999849319458,learn,60000.0,Wed Mar 25 2026 16:08:31 GMT-0500 (Central Daylight Time),730016.0,A,ski,O,i,178,1,1494.8999998569489,728521.100000143,7787,WL,B,3.0
5,7.496999979019165,learn,60000.0,Wed Mar 25 2026 16:08:31 GMT-0500 (Central Daylight Time),730830.4000000954,A,skin,O,n,802,1,2309.2999999523163,728521.100000143,7787,WL,B,3.0
5,8.413999795913696,learn,60000.0,Wed Mar 25 2026 16:08:31 GMT-0500 (Central Daylight Time),731747.2000000477,A,skinenter,O,enter,910,1,3226.0999999046326,728521.100000143,7787,WL,B,3.0
5,9.596999883651733,learn,60000.0,Wed Mar 25 2026 16:08:31 GMT-0500 (Central Daylight Time),732930.5,A,w,O,w,1174,1,1183.0,731747.5,7787,WL,B,4.0
5,9.847999811172485,learn,60000.0,Wed Mar 25 2026 16:08:31 GMT-0500 (Central Daylight Time),733181.100000143,A,wi,O,i,230,1,1433.6000001430511,731747.5,7787,WL,B,4.0
5,10.063999891281128,learn,60000.0,Wed Mar 25 2026 16:08:31 GMT-0500 (Central Daylight Time),733397.600000143,A,win,O,n,195,1,1650.1000001430511,731747.5,7787,WL,B,4.0
5,10.514999866485596,learn,60000.0,Wed Mar 25 2026 16:08:31 GMT-0500 (Central Daylight Time),733847.8000001907,A,wind,O,d,437,1,2100.300000190735,731747.5,7787,WL,B,4.0
5,10.863999843597412,learn,60000.0,Wed Mar 25 2026 16:08:31 GMT-0500 (Central Daylight Time),734197.2000000477,A,windo,O,o,337,1,2449.7000000476837,731747.5,7787,WL,B,4.0
5,11.014999866485596,learn,60000.0,Wed Mar 25 2026 16:08:31 GMT-0500 (Central Daylight Time),734348.100000143,A,window,O,w,140,1,2600.600000143051,731747.5,7787,WL,B,4.0
5,12.71399998664856,learn,60000.0,Wed Mar 25 2026 16:08:31 GMT-0500 (Central Daylight Time),736047.4000000954,A,windowenter,O,enter,1685,1,4299.900000095367,731747.5,7787,WL,B,4.0
5,13.563999891281128,learn,60000.0,Wed Mar 25 2026 16:08:31 GMT-0500 (Central Daylight Time),736897.0,A,s,O,s,845,1,849.3999998569489,736047.600000143,7787,WL,B,5.0
5,14.096999883651733,learn,60000.0,Wed Mar 25 2026 16:08:31 GMT-0500 (Central Daylight Time),737429.9000000954,A,st,O,t,520,1,1382.2999999523163,736047.600000143,7787,WL,B,5.0
5,14.29699993133545,learn,60000.0,Wed Mar 25 2026 16:08:31 GMT-0500 (Central Daylight Time),737630.0,A,sta,O,a,182,1,1582.3999998569489,736047.600000143,7787,WL,B,5.0
5,14.478999853134155,learn,60000.0,Wed Mar 25 2026 16:08:31 GMT-0500 (Central Daylight Time),737812.8000001907,A,star,O,r,164,1,1765.2000000476837,736047.600000143,7787,WL,B,5.0
5,16.078999996185303,learn,60000.0,Wed Mar 25 2026 16:08:31 GMT-0500 (Central Daylight Time),739412.2000000477,A,starenter,O,enter,1583,1,3364.5999999046326,736047.600000143,7787,WL,B,5.0
5,18.17799997329712,learn,60000.0,Wed Mar 25 2026 16:08:31 GMT-0500 (Central Daylight Time),741511.8000001907,A,c,O,c,2087,1,2099.4000000953674,739412.4000000954,7787,WL,B,6.0
5,18.460999965667725,learn,60000.0,Wed Mar 25 2026 16:08:31 GMT-0500 (Central Daylight Time),741794.3000001907,A,ci,O,i,273,1,2381.9000000953674,739412.4000000954,7787,WL,B,6.0
5,18.710999965667725,learn,60000.0,Wed Mar 25 2026 16:08:31 GMT-0500 (Central Daylight Time),742044.0,A,cit,O,t,232,1,2631.5999999046326,739412.4000000954,7787,WL,B,6.0
5,18.810999870300293,learn,60000.0,Wed Mar 25 2026 16:08:31 GMT-0500 (Central Daylight Time),742144.100000143,A,city,O,y,86,1,2731.7000000476837,739412.4000000954,7787,WL,B,6.0
5,19.675999879837036,learn,60000.0,Wed Mar 25 2026 16:08:31 GMT-0500 (Central Daylight Time),743009.2000000477,A,cityenter,O,enter,847,1,3596.7999999523163,739412.4000000954,7787,WL,B,6.0
5,20.15999984741211,learn,60000.0,Wed Mar 25 2026 16:08:31 GMT-0500 (Central Daylight Time),743493.8000001907,A,f,O,f,464,1,484.30000019073486,743009.5,7787,WL,B,7.0
5,20.426999807357788,learn,60000.0,Wed Mar 25 2026 16:08:31 GMT-0500 (Central Daylight Time),743760.2000000477,A,fi,O,i,254,1,750.7000000476837,743009.5,7787,WL,B,7.0
5,20.64299988746643,learn,60000.0,Wed Mar 25 2026 16:08:31 GMT-0500 (Central Daylight Time),743976.7000000477,A,fir,O,r,194,1,967.2000000476837,743009.5,7787,WL,B,7.0
5,21.444999933242798,learn,60000.0,Wed Mar 25 2026 16:08:31 GMT-0500 (Central Daylight Time),744778.4000000954,A,firs,O,s,783,1,1768.9000000953674,743009.5,7787,WL,B,7.0
5,21.575999975204468,learn,60000.0,Wed Mar 25 2026 16:08:31 GMT-0500 (Central Daylight Time),744909.9000000954,A,firsr,O,r,115,1,1900.4000000953674,743009.5,7787,WL,B,7.0
5,22.793999910354614,learn,60000.0,Wed Mar 25 2026 16:08:31 GMT-0500 (Central Daylight Time),746127.4000000954,A,firs,O,backspace,1206,1,3117.9000000953674,743009.5,7787,WL,B,7.0
5,23.01099991798401,learn,60000.0,Wed Mar 25 2026 16:08:31 GMT-0500 (Central Daylight Time),746343.9000000954,A,fir,O,backspace,200,1,3334.4000000953674,743009.5,7787,WL,B,7.0
5,23.776999950408936,learn,60000.0,Wed Mar 25 2026 16:08:31 GMT-0500 (Central Daylight Time),747110.4000000954,A,fire,O,e,746,1,4100.900000095367,743009.5,7787,WL,B,7.0
5,24.292999982833862,learn,60000.0,Wed Mar 25 2026 16:08:31 GMT-0500 (Central Daylight Time),747626.600000143,A,fireenter,O,enter,505,1,4617.100000143051,743009.5,7787,WL,B,7.0
5,26.491999864578247,learn,60000.0,Wed Mar 25 2026 16:08:31 GMT-0500 (Central Daylight Time),749825.600000143,A,s,O,s,2191,1,2198.7000000476837,747626.9000000954,7787,WL,B,8.0
5,26.840999841690063,learn,60000.0,Wed Mar 25 2026 16:08:31 GMT-0500 (Central Daylight Time),750174.600000143,A,st,O,t,325,1,2547.7000000476837,747626.9000000954,7787,WL,B,8.0
5,26.95899987220764,learn,60000.0,Wed Mar 25 2026 16:08:31 GMT-0500 (Central Daylight Time),750292.600000143,A,str,O,r,103,1,2665.7000000476837,747626.9000000954,7787,WL,B,8.0
5,27.242999792099,learn,60000.0,Wed Mar 25 2026 16:08:31 GMT-0500 (Central Daylight Time),750576.4000000954,A,stre,O,e,264,1,2949.5,747626.9000000954,7787,WL,B,8.0
5,27.39199995994568,learn,60000.0,Wed Mar 25 2026 16:08:31 GMT-0500 (Central Daylight Time),750725.2000000477,A,stree,O,e,132,1,3098.2999999523163,747626.9000000954,7787,WL,B,8.0
5,27.542999982833862,learn,60000.0,Wed Mar 25 2026 16:08:31 GMT-0500 (Central Daylight Time),750876.600000143,A,street,O,t,137,1,3249.7000000476837,747626.9000000954,7787,WL,B,8.0
5,28.45799994468689,learn,60000.0,Wed Mar 25 2026 16:08:31 GMT-0500 (Central Daylight Time),751791.100000143,A,streetenter,O,enter,906,1,4164.200000047684,747626.9000000954,7787,WL,B,8.0
5,29.507999897003174,learn,60000.0,Wed Mar 25 2026 16:08:31 GMT-0500 (Central Daylight Time),752841.8000001907,A,a,O,a,1034,1,1050.1000001430511,751791.7000000477,7787,WL,B,9.0
5,30.241999864578247,learn,60000.0,Wed Mar 25 2026 16:08:31 GMT-0500 (Central Daylight Time),753575.8000001907,A,ar,O,r,719,1,1784.1000001430511,751791.7000000477,7787,WL,B,9.0
5,30.756999969482422,learn,60000.0,Wed Mar 25 2026 16:08:31 GMT-0500 (Central Daylight Time),754090.8000001907,A,arm,O,m,502,1,2299.100000143051,751791.7000000477,7787,WL,B,9.0
5,32.007999897003174,learn,60000.0,Wed Mar 25 2026 16:08:31 GMT-0500 (Central Daylight Time),755341.0,A,armenter,O,enter,1238,1,3549.2999999523163,751791.7000000477,7787,WL,B,9.0
5,32.59099984169006,learn,60000.0,Wed Mar 25 2026 16:08:31 GMT-0500 (Central Daylight Time),755923.9000000954,A,g,O,g,573,1,582.7000000476837,755341.2000000477,7787,WL,B,10.0
5,32.85599994659424,learn,60000.0,Wed Mar 25 2026 16:08:31 GMT-0500 (Central Daylight Time),756189.2000000477,A,gr,O,r,243,1,848.0,755341.2000000477,7787,WL,B,10.0
5,33.12299990653992,learn,60000.0,Wed Mar 25 2026 16:08:31 GMT-0500 (Central Daylight Time),756456.2000000477,A,gra,O,a,257,1,1115.0,755341.2000000477,7787,WL,B,10.0
5,33.389999866485596,learn,60000.0,Wed Mar 25 2026 16:08:31 GMT-0500 (Central Daylight Time),756723.2000000477,A,gras,O,s,251,1,1382.0,755341.2000000477,7787,WL,B,10.0
5,33.555999994277954,learn,60000.0,Wed Mar 25 2026 16:08:31 GMT-0500 (Central Daylight Time),756889.0,A,grass,O,s,155,1,1547.7999999523163,755341.2000000477,7787,WL,B,10.0
5,33.95599985122681,learn,60000.0,Wed Mar 25 2026 16:08:31 GMT-0500 (Central Daylight Time),757289.7000000477,A,grassenter,O,enter,389,1,1948.5,755341.2000000477,7787,WL,B,10.0
5,34.27300000190735,learn,60000.0,Wed Mar 25 2026 16:08:31 GMT-0500 (Central Daylight Time),757606.600000143,A,d,O,d,297,1,316.60000014305115,757290.0,7787,WL,B,11.0
5,34.638999938964844,learn,60000.0,Wed Mar 25 2026 16:08:31 GMT-0500 (Central Daylight Time),757972.100000143,A,do,O,o,345,1,682.1000001430511,757290.0,7787,WL,B,11.0
5,34.75599980354309,learn,60000.0,Wed Mar 25 2026 16:08:31 GMT-0500 (Central Daylight Time),758088.9000000954,A,doo,O,o,99,1,798.9000000953674,757290.0,7787,WL,B,11.0
5,34.93999981880188,learn,60000.0,Wed Mar 25 2026 16:08:31 GMT-0500 (Central Daylight Time),758273.4000000954,A,door,O,r,170,1,983.4000000953674,757290.0,7787,WL,B,11.0
5,36.204999923706055,learn,60000.0,Wed Mar 25 2026 16:08:31 GMT-0500 (Central Daylight Time),759538.7000000477,A,doorenter,O,enter,1244,1,2248.7000000476837,757290.0,7787,WL,B,11.0
5,37.65499997138977,learn,60000.0,Wed Mar 25 2026 16:08:31 GMT-0500 (Central Daylight Time),760988.3000001907,A,c,O,c,1430,1,1449.3000001907349,759539.0,7787,WL,B,12.0
5,37.9539999961853,learn,60000.0,Wed Mar 25 2026 16:08:31 GMT-0500 (Central Daylight Time),761287.8000001907,A,ca,O,a,292,1,1748.8000001907349,759539.0,7787,WL,B,12.0
5,38.47099995613098,learn,60000.0,Wed Mar 25 2026 16:08:31 GMT-0500 (Central Daylight Time),761804.8000001907,A,cab,O,b,502,1,2265.800000190735,759539.0,7787,WL,B,12.0
5,38.72099995613098,learn,60000.0,Wed Mar 25 2026 16:08:31 GMT-0500 (Central Daylight Time),762054.600000143,A,cabi,O,i,229,1,2515.600000143051,759539.0,7787,WL,B,12.0
5,38.954999923706055,learn,60000.0,Wed Mar 25 2026 16:08:31 GMT-0500 (Central Daylight Time),762288.2000000477,A,cabin,O,n,224,1,2749.2000000476837,759539.0,7787,WL,B,12.0
5,39.47099995613098,learn,60000.0,Wed Mar 25 2026 16:08:31 GMT-0500 (Central Daylight Time),762803.9000000954,A,cabinenter,O,enter,491,1,3264.9000000953674,759539.0,7787,WL,B,12.0
5,39.85499978065491,learn,60000.0,Wed Mar 25 2026 16:08:31 GMT-0500 (Central Daylight Time),763188.600000143,A,l,O,l,367,1,384.40000009536743,762804.2000000477,7787,WL,B,13.0
5,40.08899998664856,learn,60000.0,Wed Mar 25 2026 16:08:31 GMT-0500 (Central Daylight Time),763422.5,A,la,O,a,209,1,618.2999999523163,762804.2000000477,7787,WL,B,13.0
5,40.57099986076355,learn,60000.0,Wed Mar 25 2026 16:08:31 GMT-0500 (Central Daylight Time),763904.600000143,A,lak,O,k,463,1,1100.4000000953674,762804.2000000477,7787,WL,B,13.0
5,40.819000005722046,learn,60000.0,Wed Mar 25 2026 16:08:31 GMT-0500 (Central Daylight Time),764152.7000000477,A,lake,O,e,240,1,1348.5,762804.2000000477,7787,WL,B,13.0
5,42.38699984550476,learn,60000.0,Wed Mar 25 2026 16:08:31 GMT-0500 (Central Daylight Time),765720.0,A,lakeenter,O,enter,1559,1,2915.7999999523163,762804.2000000477,7787,WL,B,13.0
5,48.10199999809265,learn,60000.0,Wed Mar 25 2026 16:08:31 GMT-0500 (Central Daylight Time),771435.5,A,p,O,p,5710,1,5715.299999952316,765720.2000000477,7787,WL,B,14.0
5,48.38699984550476,learn,60000.0,Wed Mar 25 2026 16:08:31 GMT-0500 (Central Daylight Time),771720.4000000954,A,pu,O,u,263,1,6000.200000047684,765720.2000000477,7787,WL,B,14.0
5,49.28499984741211,learn,60000.0,Wed Mar 25 2026 16:08:31 GMT-0500 (Central Daylight Time),772617.9000000954,A,p,O,backspace,890,1,6897.700000047684,765720.2000000477,7787,WL,B,14.0
5,49.83399987220764,learn,60000.0,Wed Mar 25 2026 16:08:31 GMT-0500 (Central Daylight Time),773167.4000000954,A,pu,O,u,543,1,7447.200000047684,765720.2000000477,7787,WL,B,14.0
5,50.76799988746643,learn,60000.0,Wed Mar 25 2026 16:08:31 GMT-0500 (Central Daylight Time),774101.0,A,pup,O,p,912,1,8380.799999952316,765720.2000000477,7787,WL,B,14.0
5,51.001999855041504,learn,60000.0,Wed Mar 25 2026 16:08:31 GMT-0500 (Central Daylight Time),774335.4000000954,A,pupi,O,i,214,1,8615.200000047684,765720.2000000477,7787,WL,B,14.0
5,51.21799993515015,learn,60000.0,Wed Mar 25 2026 16:08:31 GMT-0500 (Central Daylight Time),774551.3000001907,A,pupil,O,l,210,1,8831.100000143051,765720.2000000477,7787,WL,B,14.0
5,52.240999937057495,learn,60000.0,Wed Mar 25 2026 16:08:31 GMT-0500 (Central Daylight Time),775574.100000143,A,pupilenter,O,enter,1012,1,9853.900000095367,765720.2000000477,7787,WL,B,14.0
5,63.58099985122681,learn,60000.0,Wed Mar 25 2026 16:08:31 GMT-0500 (Central Daylight Time),786914.4000000954,A,c,O,c,11335,1,11340.099999904633,775574.3000001907,7787,WL,B,15.0
6,0.7310001850128174,distr,59268.99981498718,Wed Mar 25 2026 16:08:31 GMT-0500 (Central Daylight Time),881334.0,B,c,O,c,711,1,730.3999998569489,880603.600000143,7787,WL,B,1.0
6,1.064000129699707,distr,58935.99987030029,Wed Mar 25 2026 16:08:31 GMT-0500 (Central Daylight Time),881666.8000001907,B,ce,O,e,321,1,1063.2000000476837,880603.600000143,7787,WL,B,1.0
6,1.4130001068115234,distr,58586.99989318848,Wed Mar 25 2026 16:08:31 GMT-0500 (Central Daylight Time),882016.2000000477,B,cel,O,l,332,1,1412.5999999046326,880603.600000143,7787,WL,B,1.0
6,1.5460000038146973,distr,58453.9999961853,Wed Mar 25 2026 16:08:31 GMT-0500 (Central Daylight Time),882149.3000001907,B,cell,O,l,119,1,1545.7000000476837,880603.600000143,7787,WL,B,1.0
6,2.4130001068115234,distr,57586.99989318848,Wed Mar 25 2026 16:08:31 GMT-0500 (Central Daylight Time),883015.9000000954,B,cellenter,O,enter,854,1,2412.2999999523163,880603.600000143,7787,WL,B,1.0
6,3.013000011444092,distr,56986.99998855591,Wed Mar 25 2026 16:08:31 GMT-0500 (Central Daylight Time),883615.8000001907,B,v,O,v,594,1,599.6000001430511,883016.2000000477,7787,WL,B,2.0
6,3.312999963760376,distr,56687.000036239624,Wed Mar 25 2026 16:08:31 GMT-0500 (Central Daylight Time),883916.2000000477,B,vi,O,i,288,1,900.0,883016.2000000477,7787,WL,B,2.0
6,3.562999963760376,distr,56437.000036239624,Wed Mar 25 2026 16:08:31 GMT-0500 (Central Daylight Time),884166.4000000954,B,vil,O,l,229,1,1150.2000000476837,883016.2000000477,7787,WL,B,2.0
6,3.6460001468658447,distr,56353.999853134155,Wed Mar 25 2026 16:08:31 GMT-0500 (Central Daylight Time),884249.600000143,B,vill,O,l,74,1,1233.4000000953674,883016.2000000477,7787,WL,B,2.0
6,3.830000162124634,distr,56169.999837875366,Wed Mar 25 2026 16:08:31 GMT-0500 (Central Daylight Time),884432.7000000477,B,villa,O,a,168,1,1416.5,883016.2000000477,7787,WL,B,2.0
6,4.413000106811523,distr,55586.99989318848,Wed Mar 25 2026 16:08:31 GMT-0500 (Central Daylight Time),885016.0,B,villag,O,g,576,1,1999.7999999523163,883016.2000000477,7787,WL,B,2.0
6,4.5290000438690186,distr,55470.99995613098,Wed Mar 25 2026 16:08:31 GMT-0500 (Central Daylight Time),885132.600000143,B,village,O,e,104,1,2116.4000000953674,883016.2000000477,7787,WL,B,2.0
6,6.361999988555908,distr,53638.00001144409,Wed Mar 25 2026 16:08:31 GMT-0500 (Central Daylight Time),886965.4000000954,B,villageenter,O,enter,1815,1,3949.2000000476837,883016.2000000477,7787,WL,B,2.0
6,10.66100001335144,distr,49338.99998664856,Wed Mar 25 2026 16:08:31 GMT-0500 (Central Daylight Time),891263.9000000954,B,b,O,b,4287,1,4298.099999904633,886965.8000001907,7787,WL,B,3.0
6,10.777000188827515,distr,49222.999811172485,Wed Mar 25 2026 16:08:31 GMT-0500 (Central Daylight Time),891380.100000143,B,ba,O,a,106,1,4414.299999952316,886965.8000001907,7787,WL,B,3.0
6,11.210999965667725,distr,48789.000034332275,Wed Mar 25 2026 16:08:31 GMT-0500 (Central Daylight Time),891814.5,B,bab,O,b,423,1,4848.699999809265,886965.8000001907,7787,WL,B,3.0
6,11.743000030517578,distr,48256.99996948242,Wed Mar 25 2026 16:08:31 GMT-0500 (Central Daylight Time),892346.100000143,B,baby,O,y,515,1,5380.299999952316,886965.8000001907,7787,WL,B,3.0
6,12.96500015258789,distr,47034.99984741211,Wed Mar 25 2026 16:08:31 GMT-0500 (Central Daylight Time),893568.0,B,babyenter,O,enter,1197,1,6602.199999809265,886965.8000001907,7787,WL,B,3.0
6,13.575999975204468,distr,46424.00002479553,Wed Mar 25 2026 16:08:31 GMT-0500 (Central Daylight Time),894179.5,B,d,O,d,594,1,610.8999998569489,893568.600000143,7787,WL,B,4.0
6,13.776000022888184,distr,46223.99997711182,Wed Mar 25 2026 16:08:31 GMT-0500 (Central Daylight Time),894379.5,B,dr,O,r,189,1,810.8999998569489,893568.600000143,7787,WL,B,4.0
6,13.9760000705719,distr,46023.9999294281,Wed Mar 25 2026 16:08:31 GMT-0500 (Central Daylight Time),894579.7000000477,B,dre,O,e,179,1,1011.0999999046326,893568.600000143,7787,WL,B,4.0
6,14.24399995803833,distr,45756.00004196167,Wed Mar 25 2026 16:08:31 GMT-0500 (Central Daylight Time),894846.9000000954,B,dres,O,s,246,1,1278.2999999523163,893568.600000143,7787,WL,B,4.0
6,14.41100001335144,distr,45588.99998664856,Wed Mar 25 2026 16:08:31 GMT-0500 (Central Daylight Time),895013.8000001907,B,dress,O,s,147,1,1445.2000000476837,893568.600000143,7787,WL,B,4.0
6,15.575000047683716,distr,44424.999952316284,Wed Mar 25 2026 16:08:31 GMT-0500 (Central Daylight Time),896178.7000000477,B,dressenter,O,enter,1146,1,2610.0999999046326,893568.600000143,7787,WL,B,4.0
6,38.35199999809265,distr,21648.00000190735,Wed Mar 25 2026 16:08:31 GMT-0500 (Central Daylight Time),918955.100000143,B,enter,O,enter,22759,1,22776.200000047684,896178.9000000954,7787,WL,B,5.0
6,41.13300013542175,distr,18866.999864578247,Wed Mar 25 2026 16:08:31 GMT-0500 (Central Daylight Time),921736.8000001907,B,enter,O,enter,2767,1,2781.4000000953674,918955.4000000954,7787,WL,B,6.0
6,60.01699995994568,distr,-16.99995994567871,Wed Mar 25 2026 16:08:31 GMT-0500 (Central Daylight Time),940620.600000143,B,None,O,None,18879,1,18883.60000014305,921737.0,7787,WL,B,7.0
7,1.6470000743865967,immed,58352.9999256134,Wed Mar 25 2026 16:08:31 GMT-0500 (Central Daylight Time),964439.2000000477,A,s,O,s,1634,1,1646.7999999523163,962792.4000000954,7787,WL,B,1.0
7,1.81600022315979,immed,58183.99977684021,Wed Mar 25 2026 16:08:31 GMT-0500 (Central Daylight Time),964607.600000143,A,st,O,t,152,1,1815.2000000476837,962792.4000000954,7787,WL,B,1.0
7,1.998000144958496,immed,58001.999855041504,Wed Mar 25 2026 16:08:31 GMT-0500 (Central Daylight Time),964790.3000001907,A,str,O,r,166,1,1997.9000000953674,962792.4000000954,7787,WL,B,1.0
7,2.2660000324249268,immed,57733.99996757507,Wed Mar 25 2026 16:08:31 GMT-0500 (Central Daylight Time),965057.5,A,stre,O,e,249,1,2265.0999999046326,962792.4000000954,7787,WL,B,1.0
7,2.432000160217285,immed,57567.999839782715,Wed Mar 25 2026 16:08:31 GMT-0500 (Central Daylight Time),965223.9000000954,A,stree,O,e,153,1,2431.5,962792.4000000954,7787,WL,B,1.0
7,2.7150001525878906,immed,57284.99984741211,Wed Mar 25 2026 16:08:31 GMT-0500 (Central Daylight Time),965506.5,A,street,O,t,264,1,2714.0999999046326,962792.4000000954,7787,WL,B,1.0
7,4.5970001220703125,immed,55402.99987792969,Wed Mar 25 2026 16:08:31 GMT-0500 (Central Daylight Time),967389.5,A,streetenter,O,enter,1871,1,4597.099999904633,962792.4000000954,7787,WL,B,1.0
7,5.564000129699707,immed,54435.99987030029,Wed Mar 25 2026 16:08:31 GMT-0500 (Central Daylight Time),968355.5,A,g,O,g,948,1,965.7999999523163,967389.7000000477,7787,WL,B,2.0
7,5.830000162124634,immed,54169.999837875366,Wed Mar 25 2026 16:08:31 GMT-0500 (Central Daylight Time),968622.0,A,gr,O,r,244,1,1232.2999999523163,967389.7000000477,7787,WL,B,2.0
7,6.046000003814697,immed,53953.9999961853,Wed Mar 25 2026 16:08:31 GMT-0500 (Central Daylight Time),968838.100000143,A,gra,O,a,208,1,1448.4000000953674,967389.7000000477,7787,WL,B,2.0
7,6.331000089645386,immed,53668.999910354614,Wed Mar 25 2026 16:08:31 GMT-0500 (Central Daylight Time),969122.7000000477,A,gras,O,s,267,1,1733.0,967389.7000000477,7787,WL,B,2.0
7,6.480000019073486,immed,53519.999980926514,Wed Mar 25 2026 16:08:31 GMT-0500 (Central Daylight Time),969272.3000001907,A,grass,O,s,142,1,1882.6000001430511,967389.7000000477,7787,WL,B,2.0
7,7.265000104904175,immed,52734.999895095825,Wed Mar 25 2026 16:08:31 GMT-0500 (Central Daylight Time),970057.3000001907,A,grassenter,O,enter,767,1,2667.600000143051,967389.7000000477,7787,WL,B,2.0
7,7.946000099182129,immed,52053.99990081787,Wed Mar 25 2026 16:08:31 GMT-0500 (Central Daylight Time),970738.5,A,a,O,a,665,1,680.8999998569489,970057.600000143,7787,WL,B,3.0
7,8.463000059127808,immed,51536.99994087219,Wed Mar 25 2026 16:08:31 GMT-0500 (Central Daylight Time),971254.7000000477,A,ar,O,r,511,1,1197.0999999046326,970057.600000143,7787,WL,B,3.0
7,9.080000162124634,immed,50919.999837875366,Wed Mar 25 2026 16:08:31 GMT-0500 (Central Daylight Time),971871.600000143,A,arm,O,m,596,1,1814.0,970057.600000143,7787,WL,B,3.0
7,10.746000051498413,immed,49253.99994850159,Wed Mar 25 2026 16:08:31 GMT-0500 (Central Daylight Time),973537.7000000477,A,armenter,O,enter,1649,1,3480.0999999046326,970057.600000143,7787,WL,B,3.0
7,11.480000019073486,immed,48519.999980926514,Wed Mar 25 2026 16:08:31 GMT-0500 (Central Daylight Time),974272.4000000954,A,d,O,d,730,1,734.5,973537.9000000954,7787,WL,B,4.0
7,11.86300015449524,immed,48136.99984550476,Wed Mar 25 2026 16:08:31 GMT-0500 (Central Daylight Time),974654.7000000477,A,do,O,o,358,1,1116.7999999523163,973537.9000000954,7787,WL,B,4.0
7,11.978000164031982,immed,48021.99983596802,Wed Mar 25 2026 16:08:31 GMT-0500 (Central Daylight Time),974769.8000001907,A,doo,O,o,98,1,1231.9000000953674,973537.9000000954,7787,WL,B,4.0
7,12.16100001335144,immed,47838.99998664856,Wed Mar 25 2026 16:08:31 GMT-0500 (Central Daylight Time),974953.4000000954,A,door,O,r,168,1,1415.5,973537.9000000954,7787,WL,B,4.0
7,13.245000123977661,immed,46754.99987602234,Wed Mar 25 2026 16:08:31 GMT-0500 (Central Daylight Time),976037.3000001907,A,doorenter,O,enter,1064,1,2499.4000000953674,973537.9000000954,7787,WL,B,4.0
7,14.228000164031982,immed,45771.99983596802,Wed Mar 25 2026 16:08:31 GMT-0500 (Central Daylight Time),977020.0,A,c,O,c,964,1,982.3999998569489,976037.600000143,7787,WL,B,5.0
7,14.461000204086304,immed,45538.999795913696,Wed Mar 25 2026 16:08:31 GMT-0500 (Central Daylight Time),977253.2000000477,A,ci,O,i,221,1,1215.5999999046326,976037.600000143,7787,WL,B,5.0
7,14.729000091552734,immed,45270.999908447266,Wed Mar 25 2026 16:08:31 GMT-0500 (Central Daylight Time),977521.0,A,cit,O,t,246,1,1483.3999998569489,976037.600000143,7787,WL,B,5.0
7,14.844000101089478,immed,45155.99989891052,Wed Mar 25 2026 16:08:31 GMT-0500 (Central Daylight Time),977636.0,A,city,O,y,94,1,1598.3999998569489,976037.600000143,7787,WL,B,5.0
7,16.06000018119812,immed,43939.99981880188,Wed Mar 25 2026 16:08:31 GMT-0500 (Central Daylight Time),978851.600000143,A,cityenter,O,enter,1197,1,2814.0,976037.600000143,7787,WL,B,5.0
7,17.076000213623047,immed,42923.99978637695,Wed Mar 25 2026 16:08:31 GMT-0500 (Central Daylight Time),979867.600000143,A,s,O,s,1007,1,1015.7999999523163,978851.8000001907,7787,WL,B,6.0
7,17.344000101089478,immed,42655.99989891052,Wed Mar 25 2026 16:08:31 GMT-0500 (Central Daylight Time),980135.600000143,A,st,O,t,262,1,1283.7999999523163,978851.8000001907,7787,WL,B,6.0
7,17.478000164031982,immed,42521.99983596802,Wed Mar 25 2026 16:08:31 GMT-0500 (Central Daylight Time),980270.4000000954,A,sta,O,a,121,1,1418.5999999046326,978851.8000001907,7787,WL,B,6.0
7,17.578999996185303,immed,42421.0000038147,Wed Mar 25 2026 16:08:31 GMT-0500 (Central Daylight Time),980370.600000143,A,star,O,r,93,1,1518.7999999523163,978851.8000001907,7787,WL,B,6.0
7,18.359000205993652,immed,41640.99979400635,Wed Mar 25 2026 16:08:31 GMT-0500 (Central Daylight Time),981151.5,A,starenter,O,enter,775,1,2299.699999809265,978851.8000001907,7787,WL,B,6.0
7,18.742000102996826,immed,41257.999897003174,Wed Mar 25 2026 16:08:31 GMT-0500 (Central Daylight Time),981534.4000000954,A,w,O,w,363,1,382.7000000476837,981151.7000000477,7787,WL,B,7.0
7,18.97699999809265,immed,41023.00000190735,Wed Mar 25 2026 16:08:31 GMT-0500 (Central Daylight Time),981768.8000001907,A,wi,O,i,219,1,617.1000001430511,981151.7000000477,7787,WL,B,7.0
7,19.210000038146973,immed,40789.99996185303,Wed Mar 25 2026 16:08:31 GMT-0500 (Central Daylight Time),982002.0,A,win,O,n,225,1,850.2999999523163,981151.7000000477,7787,WL,B,7.0
7,19.492000102996826,immed,40507.999897003174,Wed Mar 25 2026 16:08:31 GMT-0500 (Central Daylight Time),982284.0,A,wind,O,d,261,1,1132.2999999523163,981151.7000000477,7787,WL,B,7.0
7,19.759000062942505,immed,40240.999937057495,Wed Mar 25 2026 16:08:31 GMT-0500 (Central Daylight Time),982551.2000000477,A,windo,O,o,259,1,1399.5,981151.7000000477,7787,WL,B,7.0
7,20.04200005531311,immed,39957.99994468689,Wed Mar 25 2026 16:08:31 GMT-0500 (Central Daylight Time),982833.9000000954,A,window,O,w,273,1,1682.2000000476837,981151.7000000477,7787,WL,B,7.0
7,21.225000143051147,immed,38774.99985694885,Wed Mar 25 2026 16:08:31 GMT-0500 (Central Daylight Time),984017.4000000954,A,windowenter,O,enter,1168,1,2865.7000000476837,981151.7000000477,7787,WL,B,7.0
7,21.675000190734863,immed,38324.99980926514,Wed Mar 25 2026 16:08:31 GMT-0500 (Central Daylight Time),984466.8000001907,A,c,O,c,433,1,449.10000014305115,984017.7000000477,7787,WL,B,8.0
7,22.02400016784668,immed,37975.99983215332,Wed Mar 25 2026 16:08:31 GMT-0500 (Central Daylight Time),984816.3000001907,A,ca,O,a,342,1,798.6000001430511,984017.7000000477,7787,WL,B,8.0
7,22.426000118255615,immed,37573.999881744385,Wed Mar 25 2026 16:08:31 GMT-0500 (Central Daylight Time),985218.0,A,cab,O,b,396,1,1200.2999999523163,984017.7000000477,7787,WL,B,8.0
7,22.659000158309937,immed,37340.99984169006,Wed Mar 25 2026 16:08:31 GMT-0500 (Central Daylight Time),985450.5,A,cabi,O,i,214,1,1432.7999999523163,984017.7000000477,7787,WL,B,8.0
7,22.85800004005432,immed,37141.99995994568,Wed Mar 25 2026 16:08:31 GMT-0500 (Central Daylight Time),985650.3000001907,A,cabin,O,n,190,1,1632.6000001430511,984017.7000000477,7787,WL,B,8.0
7,23.35800004005432,immed,36641.99995994568,Wed Mar 25 2026 16:08:31 GMT-0500 (Central Daylight Time),986149.600000143,A,cabinenter,O,enter,487,1,2131.9000000953674,984017.7000000477,7787,WL,B,8.0
7,23.725000143051147,immed,36274.99985694885,Wed Mar 25 2026 16:08:31 GMT-0500 (Central Daylight Time),986517.100000143,A,l,O,l,356,1,367.2000000476837,986149.9000000954,7787,WL,B,9.0
7,23.907000064849854,immed,36092.99993515015,Wed Mar 25 2026 16:08:31 GMT-0500 (Central Daylight Time),986699.4000000954,A,la,O,a,171,1,549.5,986149.9000000954,7787,WL,B,9.0
7,24.289000034332275,immed,35710.999965667725,Wed Mar 25 2026 16:08:31 GMT-0500 (Central Daylight Time),987081.100000143,A,lak,O,k,362,1,931.2000000476837,986149.9000000954,7787,WL,B,9.0
7,24.52500009536743,immed,35474.99990463257,Wed Mar 25 2026 16:08:31 GMT-0500 (Central Daylight Time),987317.0,A,lake,O,e,218,1,1167.0999999046326,986149.9000000954,7787,WL,B,9.0
7,25.70900011062622,immed,34290.99988937378,Wed Mar 25 2026 16:08:31 GMT-0500 (Central Daylight Time),988500.5,A,lakeenter,O,enter,1162,1,2350.5999999046326,986149.9000000954,7787,WL,B,9.0
7,31.106000185012817,immed,28893.999814987183,Wed Mar 25 2026 16:08:31 GMT-0500 (Central Daylight Time),993898.0,A,p,O,p,5382,1,5397.299999952316,988500.7000000477,7787,WL,B,10.0
7,31.472000122070312,immed,28527.999877929688,Wed Mar 25 2026 16:08:31 GMT-0500 (Central Daylight Time),994263.8000001907,A,pu,O,u,343,1,5763.100000143051,988500.7000000477,7787,WL,B,10.0
7,31.98800015449524,immed,28011.99984550476,Wed Mar 25 2026 16:08:31 GMT-0500 (Central Daylight Time),994780.0,A,pup,O,p,505,1,6279.299999952316,988500.7000000477,7787,WL,B,10.0
7,32.290000200271606,immed,27709.999799728394,Wed Mar 25 2026 16:08:31 GMT-0500 (Central Daylight Time),995081.7000000477,A,pupi,O,i,283,1,6581.0,988500.7000000477,7787,WL,B,10.0
7,32.63900017738342,immed,27360.999822616577,Wed Mar 25 2026 16:08:31 GMT-0500 (Central Daylight Time),995431.3000001907,A,pupil,O,l,335,1,6930.600000143051,988500.7000000477,7787,WL,B,10.0
7,33.955000162124634,immed,26044.999837875366,Wed Mar 25 2026 16:08:31 GMT-0500 (Central Daylight Time),996746.5,A,pupilenter,O,enter,1297,1,8245.799999952316,988500.7000000477,7787,WL,B,10.0
7,36.688000202178955,immed,23311.999797821045,Wed Mar 25 2026 16:08:31 GMT-0500 (Central Daylight Time),999479.9000000954,A,f,O,f,2719,1,2733.0999999046326,996746.8000001907,7787,WL,B,11.0
7,36.955000162124634,immed,23044.999837875366,Wed Mar 25 2026 16:08:31 GMT-0500 (Central Daylight Time),999747.4000000954,A,fi,O,i,246,1,3000.5999999046326,996746.8000001907,7787,WL,B,11.0
7,37.42200016975403,immed,22577.99983024597,Wed Mar 25 2026 16:08:31 GMT-0500 (Central Daylight Time),1000213.5,A,fir,O,r,445,1,3466.699999809265,996746.8000001907,7787,WL,B,11.0
7,37.55400013923645,immed,22445.99986076355,Wed Mar 25 2026 16:08:31 GMT-0500 (Central Daylight Time),1000346.0,A,fire,O,e,123,1,3599.199999809265,996746.8000001907,7787,WL,B,11.0
7,38.504000186920166,immed,21495.999813079834,Wed Mar 25 2026 16:08:31 GMT-0500 (Central Daylight Time),1001296.4000000954,A,fireenter,O,enter,942,1,4549.599999904633,996746.8000001907,7787,WL,B,11.0
7,46.68300008773804,immed,13316.999912261963,Wed Mar 25 2026 16:08:31 GMT-0500 (Central Daylight Time),1009475.100000143,A,p,O,p,8161,1,8178.5,1001296.600000143,7787,WL,B,12.0
7,46.96900010108948,immed,13030.999898910522,Wed Mar 25 2026 16:08:31 GMT-0500 (Central Daylight Time),1009760.9000000954,A,pi,O,i,262,1,8464.299999952316,1001296.600000143,7787,WL,B,12.0
7,47.25,immed,12750.0,Wed Mar 25 2026 16:08:31 GMT-0500 (Central Daylight Time),1010042.5,A,pip,O,p,272,1,8745.899999856949,1001296.600000143,7787,WL,B,12.0
7,47.717000007629395,immed,12282.999992370605,Wed Mar 25 2026 16:08:31 GMT-0500 (Central Daylight Time),1010509.2000000477,A,pipe,O,e,448,1,9212.599999904633,1001296.600000143,7787,WL,B,12.0
7,48.474000215530396,immed,11525.999784469604,Wed Mar 25 2026 16:08:31 GMT-0500 (Central Daylight Time),1011265.7000000477,A,pipeenter,O,enter,732,1,9969.099999904633,1001296.600000143,7787,WL,B,12.0
7,60.01300001144409,immed,-13.000011444091797,Wed Mar 25 2026 16:08:31 GMT-0500 (Central Daylight Time),1022805.5,A,None,O,None,11536,1,11539.599999904633,1011265.9000000954,7787,WL,B,13.0
