acc_sum,block,block_c,block_cond,con_img,correct,correct_response,datetime,endtime,face,jitter,line,project,response,response_time,row_sel,session_number,start_end,starttime,subject_id,task,task_vers,trial
1,prac,1,A,haborder.png,1,z,Thu Jun 12 2025 11:04:22 GMT-0400 (Eastern Daylight Time),72212.19999980927,CFD-BF-050-012-A.jpg,1200,solid,I,z,1141,6,1,3150.4000000953674,69061.7999997139,9021,ATS,B,1
2,prac,1,A,haborder.png,1,z,Thu Jun 12 2025 11:04:22 GMT-0400 (Eastern Daylight Time),74678.59999990463,CFD-BF-051-043-A.jpg,1000,solid,I,z,654,4,1,5616.800000190735,69061.7999997139,9021,ATS,B,2
3,prac,1,A,haborder.png,1,m,Thu Jun 12 2025 11:04:22 GMT-0400 (Eastern Daylight Time),77795.09999990463,CFD-BM-020-024-HC.jpg,1500,solid,I,m,809,3,1,8733.300000190735,69061.7999997139,9021,ATS,B,3
4,prac,1,A,haborder.png,1,z,Thu Jun 12 2025 11:04:22 GMT-0400 (Eastern Daylight Time),81228.59999990463,CFD-WM-009-009-A.jpg,1900,solid,I,z,716,8,1,12166.800000190735,69061.7999997139,9021,ATS,B,4
5,prac,1,A,haborder.png,1,m,Thu Jun 12 2025 11:04:22 GMT-0400 (Eastern Daylight Time),84511.7999997139,CFD-WM-012-007-HC.jpg,1700,solid,I,m,779,9,1,15450.0,69061.7999997139,9021,ATS,B,5
6,prac,1,A,haborder.png,1,m,Thu Jun 12 2025 11:04:22 GMT-0400 (Eastern Daylight Time),87461.69999980927,CFD-WF-011-006-HC.jpg,1500,solid,I,m,640,11,1,18399.900000095367,69061.7999997139,9021,ATS,B,6
7,prac,1,A,haborder.png,1,z,Thu Jun 12 2025 11:04:22 GMT-0400 (Eastern Daylight Time),90011.69999980927,CFD-WF-013-015-A.jpg,1000,solid,I,z,749,12,1,20949.900000095367,69061.7999997139,9021,ATS,B,7
8,prac,1,A,haborder.png,1,m,Thu Jun 12 2025 11:04:22 GMT-0400 (Eastern Daylight Time),92861.69999980927,CFD-WM-011-006-HC.jpg,1400,solid,I,m,664,7,1,23799.900000095367,69061.7999997139,9021,ATS,B,8
9,prac,1,A,haborder.png,1,m,Thu Jun 12 2025 11:04:22 GMT-0400 (Eastern Daylight Time),96045.19999980927,CFD-BM-015-017-HC.jpg,1700,solid,I,m,698,1,1,26983.400000095367,69061.7999997139,9021,ATS,B,9
10,prac,1,A,haborder.png,1,m,Thu Jun 12 2025 11:04:22 GMT-0400 (Eastern Daylight Time),99495.19999980927,CFD-BF-035-007-HC.jpg,2000,solid,I,m,638,5,1,30433.400000095367,69061.7999997139,9021,ATS,B,10
11,prac,1,A,haborder.png,1,z,Thu Jun 12 2025 11:04:22 GMT-0400 (Eastern Daylight Time),102678.59999990463,CFD-WF-026-008-A.jpg,1600,solid,I,z,772,10,1,33616.800000190735,69061.7999997139,9021,ATS,B,11
12,prac,1,A,haborder.png,1,z,Thu Jun 12 2025 11:04:22 GMT-0400 (Eastern Daylight Time),105961.90000009537,CFD-BM-037-041-A.jpg,1600,solid,I,z,869,2,1,36900.10000038147,69061.7999997139,9021,ATS,B,12
1,prac,1,B,mfborder.png,1,z,Thu Jun 12 2025 11:04:22 GMT-0400 (Eastern Daylight Time),142795.09999990463,CFD-BF-035-007-HC.jpg,1400,dash,I,z,734,7,1,2950.0999999046326,139845.0,9021,ATS,B,1
2,prac,1,B,mfborder.png,1,m,Thu Jun 12 2025 11:04:22 GMT-0400 (Eastern Daylight Time),147028.40000009537,CFD-BM-037-041-A.jpg,2000,dash,I,m,1424,5,1,7183.400000095367,139845.0,9021,ATS,B,2
3,prac,1,B,mfborder.png,1,m,Thu Jun 12 2025 11:04:22 GMT-0400 (Eastern Daylight Time),150478.2999997139,CFD-WM-012-007-HC.jpg,1600,dash,I,m,1047,10,1,10633.299999713898,139845.0,9021,ATS,B,3
4,prac,1,B,mfborder.png,1,m,Thu Jun 12 2025 11:04:22 GMT-0400 (Eastern Daylight Time),153311.69999980927,CFD-WM-037-060-A.jpg,1200,dash,I,m,828,6,1,13466.699999809265,139845.0,9021,ATS,B,4
5,prac,1,B,mfborder.png,1,z,Thu Jun 12 2025 11:04:22 GMT-0400 (Eastern Daylight Time),156411.59999990463,CFD-WF-026-008-A.jpg,1500,dash,I,z,784,11,1,16566.599999904633,139845.0,9021,ATS,B,5
6,prac,1,B,mfborder.png,1,z,Thu Jun 12 2025 11:04:22 GMT-0400 (Eastern Daylight Time),159011.7999997139,CFD-BF-051-043-A.jpg,1000,dash,I,z,791,4,1,19166.799999713898,139845.0,9021,ATS,B,6
7,prac,1,B,mfborder.png,1,z,Thu Jun 12 2025 11:04:22 GMT-0400 (Eastern Daylight Time),161928.40000009537,CFD-BF-027-013-HC.jpg,1500,dash,I,z,603,3,1,22083.400000095367,139845.0,9021,ATS,B,7
8,prac,1,B,mfborder.png,1,m,Thu Jun 12 2025 11:04:22 GMT-0400 (Eastern Daylight Time),165078.40000009537,CFD-WM-009-009-A.jpg,1700,dash,I,m,638,9,1,25233.400000095367,139845.0,9021,ATS,B,8
9,prac,1,B,mfborder.png,1,z,Thu Jun 12 2025 11:04:22 GMT-0400 (Eastern Daylight Time),167511.7999997139,CFD-WF-011-006-HC.jpg,1000,dash,I,z,619,12,1,27666.799999713898,139845.0,9021,ATS,B,9
10,prac,1,B,mfborder.png,1,z,Thu Jun 12 2025 11:04:22 GMT-0400 (Eastern Daylight Time),170811.69999980927,CFD-WF-027-007-HC.jpg,1900,dash,I,z,617,8,1,30966.699999809265,139845.0,9021,ATS,B,10
11,prac,1,B,mfborder.png,1,m,Thu Jun 12 2025 11:04:22 GMT-0400 (Eastern Daylight Time),173978.40000009537,CFD-BM-020-024-HC.jpg,1700,dash,I,m,651,1,1,34133.40000009537,139845.0,9021,ATS,B,11
12,prac,1,B,mfborder.png,1,m,Thu Jun 12 2025 11:04:22 GMT-0400 (Eastern Daylight Time),177061.59999990463,CFD-BM-041-048-A.jpg,1600,dash,I,m,672,2,1,37216.59999990463,139845.0,9021,ATS,B,12
1,test,1,A,haborder.png,1,z,Thu Jun 12 2025 11:04:22 GMT-0400 (Eastern Daylight Time),201161.69999980927,CFD-WF-026-008-A.jpg,1600,solid,I,z,670,10,1,2299.9000000953674,198861.7999997139,9021,ATS,B,1
2,test,1,A,haborder.png,1,m,Thu Jun 12 2025 11:04:22 GMT-0400 (Eastern Daylight Time),203328.2999997139,CFD-BM-020-024-HC.jpg,1500,solid,I,m,646,3,1,4466.5,198861.7999997139,9021,ATS,B,2
3,test,1,A,haborder.png,1,z,Thu Jun 12 2025 11:04:22 GMT-0400 (Eastern Daylight Time),205911.40000009537,CFD-BM-037-041-A.jpg,1600,solid,I,z,955,2,1,7049.60000038147,198861.7999997139,9021,ATS,B,3
4,test,1,A,haborder.png,1,z,Thu Jun 12 2025 11:04:22 GMT-0400 (Eastern Daylight Time),207711.5,CFD-WF-013-015-A.jpg,1000,solid,I,z,780,12,1,8849.700000286102,198861.7999997139,9021,ATS,B,4
5,test,1,A,haborder.png,1,z,Thu Jun 12 2025 11:04:22 GMT-0400 (Eastern Daylight Time),209611.2999997139,CFD-BF-050-012-A.jpg,1200,solid,I,z,667,6,1,10749.5,198861.7999997139,9021,ATS,B,5
6,test,1,A,haborder.png,1,z,Thu Jun 12 2025 11:04:22 GMT-0400 (Eastern Daylight Time),211261.5,CFD-WF-013-015-A.jpg,1000,solid,I,z,633,12,1,12399.700000286102,198861.7999997139,9021,ATS,B,6
7,test,1,A,haborder.png,1,m,Thu Jun 12 2025 11:04:22 GMT-0400 (Eastern Daylight Time),214078.0,CFD-BF-035-007-HC.jpg,2000,solid,I,m,798,5,1,15216.200000286102,198861.7999997139,9021,ATS,B,7
8,test,1,A,haborder.png,1,m,Thu Jun 12 2025 11:04:22 GMT-0400 (Eastern Daylight Time),216511.5,CFD-WM-012-007-HC.jpg,1700,solid,I,m,713,9,1,17649.700000286102,198861.7999997139,9021,ATS,B,8
9,test,1,A,haborder.png,1,m,Thu Jun 12 2025 11:04:22 GMT-0400 (Eastern Daylight Time),218594.7999997139,CFD-BM-020-024-HC.jpg,1500,solid,I,m,560,3,1,19733.0,198861.7999997139,9021,ATS,B,9
10,test,1,A,haborder.png,1,m,Thu Jun 12 2025 11:04:22 GMT-0400 (Eastern Daylight Time),221128.09999990463,CFD-BF-035-007-HC.jpg,2000,solid,I,m,505,5,1,22266.300000190735,198861.7999997139,9021,ATS,B,10
11,test,1,A,haborder.png,1,m,Thu Jun 12 2025 11:04:22 GMT-0400 (Eastern Daylight Time),223495.0,CFD-BM-015-017-HC.jpg,1700,solid,I,m,639,1,1,24633.200000286102,198861.7999997139,9021,ATS,B,11
12,test,1,A,haborder.png,1,m,Thu Jun 12 2025 11:04:22 GMT-0400 (Eastern Daylight Time),225545.0,CFD-WM-011-006-HC.jpg,1400,solid,I,m,621,7,1,26683.200000286102,198861.7999997139,9021,ATS,B,12
13,test,1,A,haborder.png,1,z,Thu Jun 12 2025 11:04:22 GMT-0400 (Eastern Daylight Time),228161.59999990463,CFD-WM-009-009-A.jpg,1900,solid,I,z,695,8,1,29299.800000190735,198861.7999997139,9021,ATS,B,13
14,test,1,A,haborder.png,1,z,Thu Jun 12 2025 11:04:22 GMT-0400 (Eastern Daylight Time),230828.2999997139,CFD-WM-009-009-A.jpg,1900,solid,I,z,734,8,1,31966.5,198861.7999997139,9021,ATS,B,14
15,test,1,A,haborder.png,1,m,Thu Jun 12 2025 11:04:22 GMT-0400 (Eastern Daylight Time),233328.09999990463,CFD-WM-012-007-HC.jpg,1700,solid,I,m,763,9,1,34466.300000190735,198861.7999997139,9021,ATS,B,15
16,test,1,A,haborder.png,1,m,Thu Jun 12 2025 11:04:22 GMT-0400 (Eastern Daylight Time),235528.2999997139,CFD-WF-011-006-HC.jpg,1500,solid,I,m,670,11,1,36666.5,198861.7999997139,9021,ATS,B,16
17,test,1,A,haborder.png,1,m,Thu Jun 12 2025 11:04:22 GMT-0400 (Eastern Daylight Time),237961.59999990463,CFD-BM-015-017-HC.jpg,1700,solid,I,m,686,1,1,39099.800000190735,198861.7999997139,9021,ATS,B,17
18,test,1,A,haborder.png,1,z,Thu Jun 12 2025 11:04:22 GMT-0400 (Eastern Daylight Time),239678.0,CFD-BF-051-043-A.jpg,1000,solid,I,z,698,4,1,40816.2000002861,198861.7999997139,9021,ATS,B,18
19,test,1,A,haborder.png,1,z,Thu Jun 12 2025 11:04:22 GMT-0400 (Eastern Daylight Time),241294.59999990463,CFD-BF-051-043-A.jpg,1000,solid,I,z,598,4,1,42432.800000190735,198861.7999997139,9021,ATS,B,19
20,test,1,A,haborder.png,1,z,Thu Jun 12 2025 11:04:22 GMT-0400 (Eastern Daylight Time),243544.90000009537,CFD-WF-026-008-A.jpg,1600,solid,I,z,621,10,1,44683.10000038147,198861.7999997139,9021,ATS,B,20
21,test,1,A,haborder.png,1,m,Thu Jun 12 2025 11:04:22 GMT-0400 (Eastern Daylight Time),245761.59999990463,CFD-WF-011-006-HC.jpg,1500,solid,I,m,695,11,1,46899.800000190735,198861.7999997139,9021,ATS,B,21
22,test,1,A,haborder.png,1,z,Thu Jun 12 2025 11:04:22 GMT-0400 (Eastern Daylight Time),247811.5,CFD-BF-050-012-A.jpg,1200,solid,I,z,826,6,1,48949.7000002861,198861.7999997139,9021,ATS,B,22
23,test,1,A,haborder.png,1,z,Thu Jun 12 2025 11:04:22 GMT-0400 (Eastern Daylight Time),250594.7999997139,CFD-BM-037-041-A.jpg,1600,solid,I,z,1160,2,1,51733.0,198861.7999997139,9021,ATS,B,23
24,test,1,A,haborder.png,1,m,Thu Jun 12 2025 11:04:22 GMT-0400 (Eastern Daylight Time),252678.2999997139,CFD-WM-011-006-HC.jpg,1400,solid,I,m,657,7,1,53816.5,198861.7999997139,9021,ATS,B,24
1,test,1,B,mfborder.png,1,z,Thu Jun 12 2025 11:04:22 GMT-0400 (Eastern Daylight Time),267595.0,CFD-BF-035-007-HC.jpg,1400,dash,I,z,768,7,1,2200.0999999046326,265394.90000009537,9021,ATS,B,1
2,test,1,B,mfborder.png,1,z,Thu Jun 12 2025 11:04:22 GMT-0400 (Eastern Daylight Time),269761.59999990463,CFD-BF-027-013-HC.jpg,1500,dash,I,z,645,3,1,4366.699999809265,265394.90000009537,9021,ATS,B,2
3,test,1,B,mfborder.png,1,m,Thu Jun 12 2025 11:04:22 GMT-0400 (Eastern Daylight Time),272061.59999990463,CFD-BM-020-024-HC.jpg,1700,dash,I,m,582,1,1,6666.699999809265,265394.90000009537,9021,ATS,B,3
4,test,1,B,mfborder.png,1,z,Thu Jun 12 2025 11:04:22 GMT-0400 (Eastern Daylight Time),274678.2999997139,CFD-WF-027-007-HC.jpg,1900,dash,I,z,690,8,1,9283.39999961853,265394.90000009537,9021,ATS,B,4
5,test,1,B,mfborder.png,1,m,Thu Jun 12 2025 11:04:22 GMT-0400 (Eastern Daylight Time),277078.0,CFD-WM-009-009-A.jpg,1700,dash,I,m,673,9,1,11683.099999904633,265394.90000009537,9021,ATS,B,5
6,test,1,B,mfborder.png,1,z,Thu Jun 12 2025 11:04:22 GMT-0400 (Eastern Daylight Time),279228.2999997139,CFD-BF-035-007-HC.jpg,1400,dash,I,z,716,7,1,13833.39999961853,265394.90000009537,9021,ATS,B,6
7,test,1,B,mfborder.png,1,m,Thu Jun 12 2025 11:04:22 GMT-0400 (Eastern Daylight Time),281478.09999990463,CFD-WM-012-007-HC.jpg,1600,dash,I,m,623,10,1,16083.199999809265,265394.90000009537,9021,ATS,B,7
8,test,1,B,mfborder.png,1,m,Thu Jun 12 2025 11:04:22 GMT-0400 (Eastern Daylight Time),284077.90000009537,CFD-BM-037-041-A.jpg,2000,dash,I,m,581,5,1,18683.0,265394.90000009537,9021,ATS,B,8
9,test,1,B,mfborder.png,1,m,Thu Jun 12 2025 11:04:22 GMT-0400 (Eastern Daylight Time),286661.5,CFD-BM-037-041-A.jpg,2000,dash,I,m,557,5,1,21266.599999904633,265394.90000009537,9021,ATS,B,9
10,test,1,B,mfborder.png,1,m,Thu Jun 12 2025 11:04:22 GMT-0400 (Eastern Daylight Time),288944.7999997139,CFD-BM-020-024-HC.jpg,1700,dash,I,m,562,1,1,23549.89999961853,265394.90000009537,9021,ATS,B,10
11,test,1,B,mfborder.png,1,z,Thu Jun 12 2025 11:04:22 GMT-0400 (Eastern Daylight Time),291444.7999997139,CFD-WF-027-007-HC.jpg,1900,dash,I,z,575,8,1,26049.89999961853,265394.90000009537,9021,ATS,B,11
12,test,1,B,mfborder.png,1,m,Thu Jun 12 2025 11:04:22 GMT-0400 (Eastern Daylight Time),293694.19999980927,CFD-BM-041-048-A.jpg,1600,dash,I,m,629,2,1,28299.299999713898,265394.90000009537,9021,ATS,B,12
13,test,1,B,mfborder.png,1,m,Thu Jun 12 2025 11:04:22 GMT-0400 (Eastern Daylight Time),296044.7999997139,CFD-WM-009-009-A.jpg,1700,dash,I,m,617,9,1,30649.89999961853,265394.90000009537,9021,ATS,B,13
14,test,1,B,mfborder.png,1,z,Thu Jun 12 2025 11:04:22 GMT-0400 (Eastern Daylight Time),298278.09999990463,CFD-BF-027-013-HC.jpg,1500,dash,I,z,707,3,1,32883.199999809265,265394.90000009537,9021,ATS,B,14
15,test,1,B,mfborder.png,1,m,Thu Jun 12 2025 11:04:22 GMT-0400 (Eastern Daylight Time),300511.5,CFD-WM-037-060-A.jpg,1200,dash,I,m,1013,6,1,35116.59999990463,265394.90000009537,9021,ATS,B,15
16,test,1,B,mfborder.png,1,m,Thu Jun 12 2025 11:04:22 GMT-0400 (Eastern Daylight Time),302344.69999980927,CFD-WM-037-060-A.jpg,1200,dash,I,m,604,6,1,36949.7999997139,265394.90000009537,9021,ATS,B,16
17,test,1,B,mfborder.png,1,z,Thu Jun 12 2025 11:04:22 GMT-0400 (Eastern Daylight Time),304077.7999997139,CFD-WF-011-006-HC.jpg,1000,dash,I,z,715,12,1,38682.89999961853,265394.90000009537,9021,ATS,B,17
18,test,1,B,mfborder.png,1,z,Thu Jun 12 2025 11:04:22 GMT-0400 (Eastern Daylight Time),306394.69999980927,CFD-WF-026-008-A.jpg,1500,dash,I,z,785,11,1,40999.7999997139,265394.90000009537,9021,ATS,B,18
19,test,1,B,mfborder.png,1,z,Thu Jun 12 2025 11:04:22 GMT-0400 (Eastern Daylight Time),308028.09999990463,CFD-WF-011-006-HC.jpg,1000,dash,I,z,600,12,1,42633.199999809265,265394.90000009537,9021,ATS,B,19
20,test,1,B,mfborder.png,1,z,Thu Jun 12 2025 11:04:22 GMT-0400 (Eastern Daylight Time),310194.7999997139,CFD-WF-026-008-A.jpg,1500,dash,I,z,643,11,1,44799.89999961853,265394.90000009537,9021,ATS,B,20
21,test,1,B,mfborder.png,1,m,Thu Jun 12 2025 11:04:22 GMT-0400 (Eastern Daylight Time),312545.0,CFD-WM-012-007-HC.jpg,1600,dash,I,m,729,10,1,47150.09999990463,265394.90000009537,9021,ATS,B,21
22,test,1,B,mfborder.png,1,z,Thu Jun 12 2025 11:04:22 GMT-0400 (Eastern Daylight Time),314328.19999980927,CFD-BF-051-043-A.jpg,1000,dash,I,z,755,4,1,48933.2999997139,265394.90000009537,9021,ATS,B,22
23,test,1,B,mfborder.png,1,z,Thu Jun 12 2025 11:04:22 GMT-0400 (Eastern Daylight Time),316011.59999990463,CFD-BF-051-043-A.jpg,1000,dash,I,z,652,4,1,50616.699999809265,265394.90000009537,9021,ATS,B,23
24,test,1,B,mfborder.png,1,m,Thu Jun 12 2025 11:04:22 GMT-0400 (Eastern Daylight Time),318394.7999997139,CFD-BM-041-048-A.jpg,1600,dash,I,m,752,2,1,52999.89999961853,265394.90000009537,9021,ATS,B,24
1,4,1,C,mfborder.png,1,m,Thu Jun 12 2025 11:04:22 GMT-0400 (Eastern Daylight Time),375328.2999997139,CFD-BM-015-017-HC.jpg,2000,solid,I,m,1345,prac,1,4149.89999961853,371178.40000009537,9021,ATS,B,1
1,3,1,C,mfborder.png,0,z,Thu Jun 12 2025 11:04:22 GMT-0400 (Eastern Daylight Time),378644.69999980927,CFD-BF-035-007-HC.jpg,1000,dash,I,None,1516,prac,1,7466.299999713898,371178.40000009537,9021,ATS,B,2
2,8,1,C,haborder.png,1,z,Thu Jun 12 2025 11:04:22 GMT-0400 (Eastern Daylight Time),382078.2999997139,CFD-BF-050-012-A.jpg,1700,solid,I,z,930,prac,1,10899.89999961853,371178.40000009537,9021,ATS,B,3
3,11,1,C,haborder.png,1,m,Thu Jun 12 2025 11:04:22 GMT-0400 (Eastern Daylight Time),384645.2999997139,CFD-WM-011-006-HC.jpg,1000,dash,I,m,757,prac,1,13466.89999961853,371178.40000009537,9021,ATS,B,4
3,7,1,C,haborder.png,0,z,Thu Jun 12 2025 11:04:22 GMT-0400 (Eastern Daylight Time),388844.59999990463,CFD-BF-051-043-A.jpg,1900,dash,I,None,1517,prac,1,17666.199999809265,371178.40000009537,9021,ATS,B,5
4,10,1,C,haborder.png,1,m,Thu Jun 12 2025 11:04:22 GMT-0400 (Eastern Daylight Time),392178.2999997139,CFD-BM-020-024-HC.jpg,1500,solid,I,m,1026,prac,1,20999.89999961853,371178.40000009537,9021,ATS,B,6
4,5,1,C,mfborder.png,0,m,Thu Jun 12 2025 11:04:22 GMT-0400 (Eastern Daylight Time),395078.09999990463,CFD-BM-037-041-A.jpg,1200,dash,I,z,906,prac,1,23899.699999809265,371178.40000009537,9021,ATS,B,7
5,12,1,C,haborder.png,1,m,Thu Jun 12 2025 11:04:22 GMT-0400 (Eastern Daylight Time),398628.19999980927,CFD-WM-011-006-HC.jpg,1400,solid,I,m,1358,prac,1,27449.799999713898,371178.40000009537,9021,ATS,B,8
5,9,1,C,haborder.png,0,z,Thu Jun 12 2025 11:04:22 GMT-0400 (Eastern Daylight Time),402528.0,CFD-WF-026-008-A.jpg,1600,dash,I,None,1516,prac,1,31349.599999904633,371178.40000009537,9021,ATS,B,9
5,6,1,C,mfborder.png,0,m,Thu Jun 12 2025 11:04:22 GMT-0400 (Eastern Daylight Time),406544.40000009537,CFD-WM-009-009-A.jpg,1700,solid,I,None,1516,prac,1,35366.0,371178.40000009537,9021,ATS,B,10
6,2,1,C,mfborder.png,1,z,Thu Jun 12 2025 11:04:22 GMT-0400 (Eastern Daylight Time),409644.7999997139,CFD-WF-013-015-A.jpg,1500,solid,I,z,814,prac,1,38466.39999961853,371178.40000009537,9021,ATS,B,11
7,1,1,C,mfborder.png,1,z,Thu Jun 12 2025 11:04:22 GMT-0400 (Eastern Daylight Time),412894.7999997139,CFD-WF-011-006-HC.jpg,1600,dash,I,z,863,prac,1,41716.39999961853,371178.40000009537,9021,ATS,B,12
0,8,2,C,haborder.png,0,z,Thu Jun 12 2025 11:04:22 GMT-0400 (Eastern Daylight Time),449894.59999990463,CFD-BF-050-012-A.jpg,1700,solid,I,None,1516,prac,1,78716.19999980927,371178.40000009537,9021,ATS,B,1
1,9,2,C,haborder.png,1,z,Thu Jun 12 2025 11:04:22 GMT-0400 (Eastern Daylight Time),453378.09999990463,CFD-WF-026-008-A.jpg,1600,dash,I,z,1093,prac,1,82199.69999980927,371178.40000009537,9021,ATS,B,2
1,1,2,C,mfborder.png,0,z,Thu Jun 12 2025 11:04:22 GMT-0400 (Eastern Daylight Time),456844.59999990463,CFD-WF-011-006-HC.jpg,1600,dash,I,m,1065,prac,1,85666.19999980927,371178.40000009537,9021,ATS,B,3
2,12,2,C,haborder.png,1,m,Thu Jun 12 2025 11:04:22 GMT-0400 (Eastern Daylight Time),459894.09999990463,CFD-WM-011-006-HC.jpg,1400,solid,I,m,838,prac,1,88715.69999980927,371178.40000009537,9021,ATS,B,4
2,2,2,C,mfborder.png,0,z,Thu Jun 12 2025 11:04:22 GMT-0400 (Eastern Daylight Time),463694.69999980927,CFD-WF-013-015-A.jpg,1500,solid,I,None,1517,prac,1,92516.2999997139,371178.40000009537,9021,ATS,B,5
2,6,2,C,mfborder.png,0,m,Thu Jun 12 2025 11:04:22 GMT-0400 (Eastern Daylight Time),467378.09999990463,CFD-WM-009-009-A.jpg,1700,solid,I,z,1193,prac,1,96199.69999980927,371178.40000009537,9021,ATS,B,6
2,3,2,C,mfborder.png,0,z,Thu Jun 12 2025 11:04:22 GMT-0400 (Eastern Daylight Time),470694.7999997139,CFD-BF-035-007-HC.jpg,1000,dash,I,None,1516,prac,1,99516.39999961853,371178.40000009537,9021,ATS,B,7
2,7,2,C,haborder.png,0,z,Thu Jun 12 2025 11:04:22 GMT-0400 (Eastern Daylight Time),474911.19999980927,CFD-BF-051-043-A.jpg,1900,dash,I,None,1516,prac,1,103732.7999997139,371178.40000009537,9021,ATS,B,8
2,11,2,C,haborder.png,0,m,Thu Jun 12 2025 11:04:22 GMT-0400 (Eastern Daylight Time),478227.90000009537,CFD-WM-011-006-HC.jpg,1000,dash,I,None,1516,prac,1,107049.5,371178.40000009537,9021,ATS,B,9
3,10,2,C,haborder.png,1,m,Thu Jun 12 2025 11:04:22 GMT-0400 (Eastern Daylight Time),481594.90000009537,CFD-BM-020-024-HC.jpg,1500,solid,I,m,1051,prac,1,110416.5,371178.40000009537,9021,ATS,B,10
3,5,2,C,mfborder.png,0,m,Thu Jun 12 2025 11:04:22 GMT-0400 (Eastern Daylight Time),485111.5,CFD-BM-037-041-A.jpg,1200,dash,I,None,1516,prac,1,113933.09999990463,371178.40000009537,9021,ATS,B,11
3,4,2,C,mfborder.png,0,m,Thu Jun 12 2025 11:04:22 GMT-0400 (Eastern Daylight Time),488994.69999980927,CFD-BM-015-017-HC.jpg,2000,solid,I,z,1092,prac,1,117816.2999997139,371178.40000009537,9021,ATS,B,12
1,8,3,C,haborder.png,1,z,Thu Jun 12 2025 11:04:22 GMT-0400 (Eastern Daylight Time),507694.90000009537,CFD-BF-050-012-A.jpg,1700,solid,I,z,963,prac,1,136516.5,371178.40000009537,9021,ATS,B,1
2,11,3,C,haborder.png,1,m,Thu Jun 12 2025 11:04:22 GMT-0400 (Eastern Daylight Time),510211.40000009537,CFD-WM-011-006-HC.jpg,1000,dash,I,m,708,prac,1,139033.0,371178.40000009537,9021,ATS,B,2
3,2,3,C,mfborder.png,1,z,Thu Jun 12 2025 11:04:22 GMT-0400 (Eastern Daylight Time),513628.19999980927,CFD-WF-013-015-A.jpg,1500,solid,I,z,1116,prac,1,142449.7999997139,371178.40000009537,9021,ATS,B,3
3,1,3,C,mfborder.png,0,z,Thu Jun 12 2025 11:04:22 GMT-0400 (Eastern Daylight Time),517544.69999980927,CFD-WF-011-006-HC.jpg,1600,dash,I,None,1516,prac,1,146366.2999997139,371178.40000009537,9021,ATS,B,4
3,5,3,C,mfborder.png,0,m,Thu Jun 12 2025 11:04:22 GMT-0400 (Eastern Daylight Time),520278.09999990463,CFD-BM-037-041-A.jpg,1200,dash,I,z,723,prac,1,149099.69999980927,371178.40000009537,9021,ATS,B,5
3,3,3,C,mfborder.png,0,z,Thu Jun 12 2025 11:04:22 GMT-0400 (Eastern Daylight Time),522894.7999997139,CFD-BF-035-007-HC.jpg,1000,dash,I,m,813,prac,1,151716.39999961853,371178.40000009537,9021,ATS,B,6
3,4,3,C,mfborder.png,0,m,Thu Jun 12 2025 11:04:22 GMT-0400 (Eastern Daylight Time),526644.7999997139,CFD-BM-015-017-HC.jpg,2000,solid,I,z,956,prac,1,155466.39999961853,371178.40000009537,9021,ATS,B,7
4,6,3,C,mfborder.png,1,m,Thu Jun 12 2025 11:04:22 GMT-0400 (Eastern Daylight Time),530261.1999998093,CFD-WM-009-009-A.jpg,1700,solid,I,m,1106,prac,1,159082.7999997139,371178.40000009537,9021,ATS,B,8
5,10,3,C,haborder.png,1,m,Thu Jun 12 2025 11:04:22 GMT-0400 (Eastern Daylight Time),533294.6999998093,CFD-BM-020-024-HC.jpg,1500,solid,I,m,730,prac,1,162116.2999997139,371178.40000009537,9021,ATS,B,9
6,12,3,C,haborder.png,1,m,Thu Jun 12 2025 11:04:22 GMT-0400 (Eastern Daylight Time),536411.5,CFD-WM-011-006-HC.jpg,1400,solid,I,m,917,prac,1,165233.09999990463,371178.40000009537,9021,ATS,B,10
7,9,3,C,haborder.png,1,z,Thu Jun 12 2025 11:04:22 GMT-0400 (Eastern Daylight Time),540028.0999999046,CFD-WF-026-008-A.jpg,1600,dash,I,z,1216,prac,1,168849.69999980927,371178.40000009537,9021,ATS,B,11
8,7,3,C,haborder.png,1,z,Thu Jun 12 2025 11:04:22 GMT-0400 (Eastern Daylight Time),543561.5999999046,CFD-BF-051-043-A.jpg,1900,dash,I,z,836,prac,1,172383.19999980927,371178.40000009537,9021,ATS,B,12
1,test,1,C,mfborder.png,1,z,Thu Jun 12 2025 11:04:22 GMT-0400 (Eastern Daylight Time),570244.2999997139,CFD-WF-026-008-A.jpg,1500,dash,I,z,958,3,1,2482.7999997138977,567761.5,9021,ATS,B,1
2,test,1,C,mfborder.png,1,z,Thu Jun 12 2025 11:04:22 GMT-0400 (Eastern Daylight Time),572727.7999997139,CFD-BF-051-043-A.jpg,1600,dash,I,z,855,2,1,4966.299999713898,567761.5,9021,ATS,B,2
3,test,1,C,haborder.png,1,m,Thu Jun 12 2025 11:04:22 GMT-0400 (Eastern Daylight Time),575578.0999999046,CFD-BF-035-007-HC.jpg,1600,solid,I,m,1203,10,1,7816.599999904633,567761.5,9021,ATS,B,3
4,test,1,C,haborder.png,1,z,Thu Jun 12 2025 11:04:22 GMT-0400 (Eastern Daylight Time),577994.5,CFD-WM-009-009-A.jpg,1400,solid,I,z,986,7,1,10233.0,567761.5,9021,ATS,B,4
5,test,1,C,haborder.png,1,m,Thu Jun 12 2025 11:04:22 GMT-0400 (Eastern Daylight Time),580827.9000000954,CFD-WF-027-007-HC.jpg,1500,solid,I,m,1300,11,1,13066.400000095367,567761.5,9021,ATS,B,5
5,test,1,C,mfborder.png,0,m,Thu Jun 12 2025 11:04:22 GMT-0400 (Eastern Daylight Time),583328.0,CFD-WM-012-007-HC.jpg,1000,dash,I,z,1480,4,1,15566.5,567761.5,9021,ATS,B,6
6,test,1,C,haborder.png,1,z,Thu Jun 12 2025 11:04:22 GMT-0400 (Eastern Daylight Time),586061.2999997139,CFD-BM-041-048-A.jpg,1700,solid,I,z,999,9,1,18299.799999713898,567761.5,9021,ATS,B,7
7,test,1,C,mfborder.png,1,z,Thu Jun 12 2025 11:04:22 GMT-0400 (Eastern Daylight Time),589094.5999999046,CFD-BF-051-043-A.jpg,1600,dash,I,z,1407,2,1,21333.099999904633,567761.5,9021,ATS,B,8
8,test,1,C,haborder.png,1,m,Thu Jun 12 2025 11:04:22 GMT-0400 (Eastern Daylight Time),591094.6999998093,CFD-WF-011-006-HC.jpg,1000,solid,I,m,973,12,1,23333.199999809265,567761.5,9021,ATS,B,9
9,test,1,C,haborder.png,1,m,Thu Jun 12 2025 11:04:22 GMT-0400 (Eastern Daylight Time),593378.0999999046,CFD-WF-027-007-HC.jpg,1500,solid,I,m,760,11,1,25616.599999904633,567761.5,9021,ATS,B,10
9,test,1,C,mfborder.png,0,m,Thu Jun 12 2025 11:04:22 GMT-0400 (Eastern Daylight Time),596661.2999997139,CFD-WM-037-060-A.jpg,2000,dash,I,z,1257,5,1,28899.799999713898,567761.5,9021,ATS,B,11
10,test,1,C,mfborder.png,1,m,Thu Jun 12 2025 11:04:22 GMT-0400 (Eastern Daylight Time),598711.1999998093,CFD-WM-012-007-HC.jpg,1000,dash,I,m,1023,4,1,30949.699999809265,567761.5,9021,ATS,B,12
11,test,1,C,mfborder.png,1,m,Thu Jun 12 2025 11:04:22 GMT-0400 (Eastern Daylight Time),600928.0,CFD-BM-020-024-HC.jpg,1200,dash,I,m,996,6,1,33166.5,567761.5,9021,ATS,B,13
12,test,1,C,mfborder.png,1,z,Thu Jun 12 2025 11:04:22 GMT-0400 (Eastern Daylight Time),603277.5999999046,CFD-WF-026-008-A.jpg,1500,dash,I,z,831,3,1,35516.09999990463,567761.5,9021,ATS,B,14
13,test,1,C,haborder.png,1,z,Thu Jun 12 2025 11:04:22 GMT-0400 (Eastern Daylight Time),606094.4000000954,CFD-WM-009-009-A.jpg,1400,solid,I,z,1397,7,1,38332.90000009537,567761.5,9021,ATS,B,15
14,test,1,C,mfborder.png,1,z,Thu Jun 12 2025 11:04:22 GMT-0400 (Eastern Daylight Time),609311.1999998093,CFD-BF-027-013-HC.jpg,1700,dash,I,z,1497,1,1,41549.699999809265,567761.5,9021,ATS,B,16
15,test,1,C,haborder.png,1,m,Thu Jun 12 2025 11:04:22 GMT-0400 (Eastern Daylight Time),611944.6999998093,CFD-BF-035-007-HC.jpg,1600,solid,I,m,1004,10,1,44183.199999809265,567761.5,9021,ATS,B,17
15,test,1,C,mfborder.png,0,m,Thu Jun 12 2025 11:04:22 GMT-0400 (Eastern Daylight Time),614678.1999998093,CFD-BM-020-024-HC.jpg,1200,dash,I,None,1516,6,1,46916.699999809265,567761.5,9021,ATS,B,18
16,test,1,C,haborder.png,1,m,Thu Jun 12 2025 11:04:22 GMT-0400 (Eastern Daylight Time),616828.0,CFD-WF-011-006-HC.jpg,1000,solid,I,m,1117,12,1,49066.5,567761.5,9021,ATS,B,19
17,test,1,C,haborder.png,1,z,Thu Jun 12 2025 11:04:22 GMT-0400 (Eastern Daylight Time),619894.5999999046,CFD-BM-037-041-A.jpg,1900,solid,I,z,1123,8,1,52133.09999990463,567761.5,9021,ATS,B,20
18,test,1,C,haborder.png,1,z,Thu Jun 12 2025 11:04:22 GMT-0400 (Eastern Daylight Time),622828.0,CFD-BM-041-048-A.jpg,1700,solid,I,z,1201,9,1,55066.5,567761.5,9021,ATS,B,21
18,test,1,C,haborder.png,0,z,Thu Jun 12 2025 11:04:22 GMT-0400 (Eastern Daylight Time),625927.7999997139,CFD-BM-037-041-A.jpg,1900,solid,I,m,1155,8,1,58166.2999997139,567761.5,9021,ATS,B,22
19,test,1,C,mfborder.png,1,z,Thu Jun 12 2025 11:04:22 GMT-0400 (Eastern Daylight Time),628978.0,CFD-BF-027-013-HC.jpg,1700,dash,I,z,1327,1,1,61216.5,567761.5,9021,ATS,B,23
19,test,1,C,mfborder.png,0,m,Thu Jun 12 2025 11:04:22 GMT-0400 (Eastern Daylight Time),632511.2999997139,CFD-WM-037-060-A.jpg,2000,dash,I,None,1516,5,1,64749.7999997139,567761.5,9021,ATS,B,24
1,test,2,C,mfborder.png,1,m,Thu Jun 12 2025 11:04:22 GMT-0400 (Eastern Daylight Time),643844.6999998093,CFD-BM-015-017-HC.jpg,1000,dash,I,m,1192,4,1,2216.5999999046326,641628.0999999046,9021,ATS,B,1
2,test,2,C,mfborder.png,1,z,Thu Jun 12 2025 11:04:22 GMT-0400 (Eastern Daylight Time),646460.5999999046,CFD-BF-035-007-HC.jpg,1500,dash,I,z,1098,3,1,4832.5,641628.0999999046,9021,ATS,B,2
2,test,2,C,mfborder.png,0,m,Thu Jun 12 2025 11:04:22 GMT-0400 (Eastern Daylight Time),648511.0999999046,CFD-WM-009-009-A.jpg,1200,dash,I,z,829,6,1,6883.0,641628.0999999046,9021,ATS,B,3
3,test,2,C,mfborder.png,1,z,Thu Jun 12 2025 11:04:22 GMT-0400 (Eastern Daylight Time),650927.7999997139,CFD-WF-013-015-A.jpg,1600,dash,I,z,796,2,1,9299.699999809265,641628.0999999046,9021,ATS,B,4
3,test,2,C,haborder.png,0,z,Thu Jun 12 2025 11:04:22 GMT-0400 (Eastern Daylight Time),653711.0,CFD-BF-050-012-A.jpg,1900,solid,I,m,865,8,1,12082.900000095367,641628.0999999046,9021,ATS,B,5
3,test,2,C,mfborder.png,0,m,Thu Jun 12 2025 11:04:22 GMT-0400 (Eastern Daylight Time),656361.0999999046,CFD-WM-009-009-A.jpg,1200,dash,I,z,1421,6,1,14733.0,641628.0999999046,9021,ATS,B,6
3,test,2,C,mfborder.png,0,z,Thu Jun 12 2025 11:04:22 GMT-0400 (Eastern Daylight Time),659494.5999999046,CFD-WF-011-006-HC.jpg,1700,dash,I,m,1407,1,1,17866.5,641628.0999999046,9021,ATS,B,7
4,test,2,C,haborder.png,1,m,Thu Jun 12 2025 11:04:22 GMT-0400 (Eastern Daylight Time),661244.5999999046,CFD-WM-011-006-HC.jpg,1000,solid,I,m,717,12,1,19616.5,641628.0999999046,9021,ATS,B,8
5,test,2,C,haborder.png,1,m,Thu Jun 12 2025 11:04:22 GMT-0400 (Eastern Daylight Time),663594.5999999046,CFD-BM-020-024-HC.jpg,1600,solid,I,m,719,10,1,21966.5,641628.0999999046,9021,ATS,B,9
6,test,2,C,haborder.png,1,m,Thu Jun 12 2025 11:04:22 GMT-0400 (Eastern Daylight Time),665761.2999997139,CFD-WM-011-006-HC.jpg,1500,solid,I,m,645,11,1,24133.199999809265,641628.0999999046,9021,ATS,B,10
7,test,2,C,haborder.png,1,m,Thu Jun 12 2025 11:04:22 GMT-0400 (Eastern Daylight Time),668227.9000000954,CFD-BM-020-024-HC.jpg,1600,solid,I,m,843,10,1,26599.800000190735,641628.0999999046,9021,ATS,B,11
8,test,2,C,haborder.png,1,z,Thu Jun 12 2025 11:04:22 GMT-0400 (Eastern Daylight Time),670445.0,CFD-BF-051-043-A.jpg,1400,solid,I,z,799,7,1,28816.900000095367,641628.0999999046,9021,ATS,B,12
9,test,2,C,haborder.png,1,z,Thu Jun 12 2025 11:04:22 GMT-0400 (Eastern Daylight Time),672961.4000000954,CFD-BF-051-043-A.jpg,1400,solid,I,z,1095,7,1,31333.300000190735,641628.0999999046,9021,ATS,B,13
10,test,2,C,haborder.png,1,z,Thu Jun 12 2025 11:04:22 GMT-0400 (Eastern Daylight Time),675611.0,CFD-WF-026-008-A.jpg,1700,solid,I,z,918,9,1,33982.90000009537,641628.0999999046,9021,ATS,B,14
11,test,2,C,mfborder.png,1,m,Thu Jun 12 2025 11:04:22 GMT-0400 (Eastern Daylight Time),678377.7999997139,CFD-BM-037-041-A.jpg,2000,dash,I,m,737,5,1,36749.699999809265,641628.0999999046,9021,ATS,B,15
12,test,2,C,mfborder.png,1,z,Thu Jun 12 2025 11:04:22 GMT-0400 (Eastern Daylight Time),680912.5999999046,CFD-BF-035-007-HC.jpg,1500,dash,I,z,1013,3,1,39284.5,641628.0999999046,9021,ATS,B,16
13,test,2,C,mfborder.png,1,m,Thu Jun 12 2025 11:04:22 GMT-0400 (Eastern Daylight Time),683944.5,CFD-BM-037-041-A.jpg,2000,dash,I,m,1005,5,1,42316.40000009537,641628.0999999046,9021,ATS,B,17
14,test,2,C,mfborder.png,1,m,Thu Jun 12 2025 11:04:22 GMT-0400 (Eastern Daylight Time),686177.5999999046,CFD-BM-015-017-HC.jpg,1000,dash,I,m,1211,4,1,44549.5,641628.0999999046,9021,ATS,B,18
14,test,2,C,haborder.png,0,z,Thu Jun 12 2025 11:04:22 GMT-0400 (Eastern Daylight Time),689411.2999997139,CFD-WF-026-008-A.jpg,1700,solid,I,None,1516,9,1,47783.199999809265,641628.0999999046,9021,ATS,B,19
15,test,2,C,mfborder.png,1,z,Thu Jun 12 2025 11:04:22 GMT-0400 (Eastern Daylight Time),691927.7999997139,CFD-WF-013-015-A.jpg,1600,dash,I,z,889,2,1,50299.699999809265,641628.0999999046,9021,ATS,B,20
16,test,2,C,mfborder.png,1,z,Thu Jun 12 2025 11:04:22 GMT-0400 (Eastern Daylight Time),694711.2999997139,CFD-WF-011-006-HC.jpg,1700,dash,I,z,1056,1,1,53083.199999809265,641628.0999999046,9021,ATS,B,21
17,test,2,C,haborder.png,1,m,Thu Jun 12 2025 11:04:22 GMT-0400 (Eastern Daylight Time),696544.5,CFD-WM-011-006-HC.jpg,1000,solid,I,m,813,12,1,54916.40000009537,641628.0999999046,9021,ATS,B,22
17,test,2,C,haborder.png,0,z,Thu Jun 12 2025 11:04:22 GMT-0400 (Eastern Daylight Time),699978.0999999046,CFD-BF-050-012-A.jpg,1900,solid,I,None,1516,8,1,58350.0,641628.0999999046,9021,ATS,B,23
18,test,2,C,haborder.png,1,m,Thu Jun 12 2025 11:04:22 GMT-0400 (Eastern Daylight Time),702211.2999997139,CFD-WM-011-006-HC.jpg,1500,solid,I,m,710,11,1,60583.199999809265,641628.0999999046,9021,ATS,B,24
1,test,3,C,haborder.png,1,m,Thu Jun 12 2025 11:04:22 GMT-0400 (Eastern Daylight Time),710744.6999998093,CFD-BF-035-007-HC.jpg,1600,solid,I,m,1105,10,1,2733.2999997138977,708011.4000000954,9021,ATS,B,1
2,test,3,C,haborder.png,1,z,Thu Jun 12 2025 11:04:22 GMT-0400 (Eastern Daylight Time),713344.4000000954,CFD-BM-041-048-A.jpg,1700,solid,I,z,878,9,1,5333.0,708011.4000000954,9021,ATS,B,2
3,test,3,C,haborder.png,1,m,Thu Jun 12 2025 11:04:22 GMT-0400 (Eastern Daylight Time),715894.4000000954,CFD-BF-035-007-HC.jpg,1600,solid,I,m,922,10,1,7883.0,708011.4000000954,9021,ATS,B,3
4,test,3,C,mfborder.png,1,z,Thu Jun 12 2025 11:04:22 GMT-0400 (Eastern Daylight Time),718761.1999998093,CFD-BF-027-013-HC.jpg,1700,dash,I,z,1137,1,1,10749.799999713898,708011.4000000954,9021,ATS,B,4
5,test,3,C,haborder.png,1,m,Thu Jun 12 2025 11:04:22 GMT-0400 (Eastern Daylight Time),721094.4000000954,CFD-WF-027-007-HC.jpg,1500,solid,I,m,807,11,1,13083.0,708011.4000000954,9021,ATS,B,5
5,test,3,C,mfborder.png,0,m,Thu Jun 12 2025 11:04:22 GMT-0400 (Eastern Daylight Time),724094.1999998093,CFD-WM-037-060-A.jpg,2000,dash,I,z,980,5,1,16082.799999713898,708011.4000000954,9021,ATS,B,6
6,test,3,C,mfborder.png,1,m,Thu Jun 12 2025 11:04:22 GMT-0400 (Eastern Daylight Time),726277.9000000954,CFD-WM-012-007-HC.jpg,1000,dash,I,m,1157,4,1,18266.5,708011.4000000954,9021,ATS,B,7
7,test,3,C,mfborder.png,1,m,Thu Jun 12 2025 11:04:22 GMT-0400 (Eastern Daylight Time),728211.2999997139,CFD-BM-020-024-HC.jpg,1200,dash,I,m,710,6,1,20199.89999961853,708011.4000000954,9021,ATS,B,8
8,test,3,C,haborder.png,1,z,Thu Jun 12 2025 11:04:22 GMT-0400 (Eastern Daylight Time),730444.5,CFD-WM-009-009-A.jpg,1400,solid,I,z,801,7,1,22433.099999904633,708011.4000000954,9021,ATS,B,9
9,test,3,C,mfborder.png,1,m,Thu Jun 12 2025 11:04:22 GMT-0400 (Eastern Daylight Time),732327.9000000954,CFD-WM-012-007-HC.jpg,1000,dash,I,m,855,4,1,24316.5,708011.4000000954,9021,ATS,B,10
9,test,3,C,haborder.png,0,z,Thu Jun 12 2025 11:04:22 GMT-0400 (Eastern Daylight Time),735344.5999999046,CFD-BM-037-041-A.jpg,1900,solid,I,m,1095,8,1,27333.199999809265,708011.4000000954,9021,ATS,B,11
10,test,3,C,mfborder.png,1,z,Thu Jun 12 2025 11:04:22 GMT-0400 (Eastern Daylight Time),738011.0999999046,CFD-WF-026-008-A.jpg,1500,dash,I,z,1134,3,1,29999.699999809265,708011.4000000954,9021,ATS,B,12
10,test,3,C,mfborder.png,0,m,Thu Jun 12 2025 11:04:22 GMT-0400 (Eastern Daylight Time),741061.1999998093,CFD-WM-037-060-A.jpg,2000,dash,I,z,1024,5,1,33049.7999997139,708011.4000000954,9021,ATS,B,13
11,test,3,C,haborder.png,1,z,Thu Jun 12 2025 11:04:22 GMT-0400 (Eastern Daylight Time),744477.6999998093,CFD-BM-037-041-A.jpg,1900,solid,I,z,1499,8,1,36466.2999997139,708011.4000000954,9021,ATS,B,14
12,test,3,C,haborder.png,1,z,Thu Jun 12 2025 11:04:22 GMT-0400 (Eastern Daylight Time),747377.7999997139,CFD-BM-041-048-A.jpg,1700,solid,I,z,1177,9,1,39366.39999961853,708011.4000000954,9021,ATS,B,15
13,test,3,C,haborder.png,1,m,Thu Jun 12 2025 11:04:22 GMT-0400 (Eastern Daylight Time),749211.0999999046,CFD-WF-011-006-HC.jpg,1000,solid,I,m,801,12,1,41199.699999809265,708011.4000000954,9021,ATS,B,16
14,test,3,C,haborder.png,1,m,Thu Jun 12 2025 11:04:22 GMT-0400 (Eastern Daylight Time),752044.5,CFD-WF-027-007-HC.jpg,1500,solid,I,m,1301,11,1,44033.09999990463,708011.4000000954,9021,ATS,B,17
15,test,3,C,mfborder.png,1,m,Thu Jun 12 2025 11:04:22 GMT-0400 (Eastern Daylight Time),754644.5999999046,CFD-BM-020-024-HC.jpg,1200,dash,I,m,1375,6,1,46633.199999809265,708011.4000000954,9021,ATS,B,18
16,test,3,C,haborder.png,1,m,Thu Jun 12 2025 11:04:22 GMT-0400 (Eastern Daylight Time),756544.5,CFD-WF-011-006-HC.jpg,1000,solid,I,m,879,12,1,48533.09999990463,708011.4000000954,9021,ATS,B,19
17,test,3,C,mfborder.png,1,z,Thu Jun 12 2025 11:04:22 GMT-0400 (Eastern Daylight Time),759161.1999998093,CFD-WF-026-008-A.jpg,1500,dash,I,z,1086,3,1,51149.7999997139,708011.4000000954,9021,ATS,B,20
18,test,3,C,mfborder.png,1,z,Thu Jun 12 2025 11:04:22 GMT-0400 (Eastern Daylight Time),761577.9000000954,CFD-BF-051-043-A.jpg,1600,dash,I,z,786,2,1,53566.5,708011.4000000954,9021,ATS,B,21
19,test,3,C,haborder.png,1,z,Thu Jun 12 2025 11:04:22 GMT-0400 (Eastern Daylight Time),764377.9000000954,CFD-WM-009-009-A.jpg,1400,solid,I,z,1352,7,1,56366.5,708011.4000000954,9021,ATS,B,22
20,test,3,C,mfborder.png,1,z,Thu Jun 12 2025 11:04:22 GMT-0400 (Eastern Daylight Time),767327.7999997139,CFD-BF-027-013-HC.jpg,1700,dash,I,z,1230,1,1,59316.39999961853,708011.4000000954,9021,ATS,B,23
21,test,3,C,mfborder.png,1,z,Thu Jun 12 2025 11:04:22 GMT-0400 (Eastern Daylight Time),769861.1999998093,CFD-BF-051-043-A.jpg,1600,dash,I,z,907,2,1,61849.7999997139,708011.4000000954,9021,ATS,B,24
1,test,4,C,mfborder.png,1,m,Thu Jun 12 2025 11:04:22 GMT-0400 (Eastern Daylight Time),780411.4000000954,CFD-WM-009-009-A.jpg,1200,dash,I,m,1168,6,1,2400.0,778011.4000000954,9021,ATS,B,1
2,test,4,C,haborder.png,1,m,Thu Jun 12 2025 11:04:22 GMT-0400 (Eastern Daylight Time),782777.9000000954,CFD-WM-011-006-HC.jpg,1500,solid,I,m,836,11,1,4766.5,778011.4000000954,9021,ATS,B,2
2,test,4,C,haborder.png,0,z,Thu Jun 12 2025 11:04:22 GMT-0400 (Eastern Daylight Time),785844.4000000954,CFD-BF-050-012-A.jpg,1900,solid,I,m,1141,8,1,7833.0,778011.4000000954,9021,ATS,B,3
3,test,4,C,haborder.png,1,m,Thu Jun 12 2025 11:04:22 GMT-0400 (Eastern Daylight Time),788411.1999998093,CFD-BM-020-024-HC.jpg,1600,solid,I,m,935,10,1,10399.799999713898,778011.4000000954,9021,ATS,B,4
4,test,4,C,mfborder.png,1,z,Thu Jun 12 2025 11:04:22 GMT-0400 (Eastern Daylight Time),791127.6999998093,CFD-WF-011-006-HC.jpg,1700,dash,I,z,989,1,1,13116.299999713898,778011.4000000954,9021,ATS,B,5
5,test,4,C,mfborder.png,1,z,Thu Jun 12 2025 11:04:22 GMT-0400 (Eastern Daylight Time),793761.0999999046,CFD-WF-013-015-A.jpg,1600,dash,I,z,1011,2,1,15749.699999809265,778011.4000000954,9021,ATS,B,6
6,test,4,C,mfborder.png,1,z,Thu Jun 12 2025 11:04:22 GMT-0400 (Eastern Daylight Time),796111.0999999046,CFD-WF-013-015-A.jpg,1600,dash,I,z,730,2,1,18099.699999809265,778011.4000000954,9021,ATS,B,7
7,test,4,C,haborder.png,1,m,Thu Jun 12 2025 11:04:22 GMT-0400 (Eastern Daylight Time),798061.0,CFD-WM-011-006-HC.jpg,1000,solid,I,m,933,12,1,20049.599999904633,778011.4000000954,9021,ATS,B,8
7,test,4,C,mfborder.png,0,m,Thu Jun 12 2025 11:04:22 GMT-0400 (Eastern Daylight Time),800794.6999998093,CFD-WM-009-009-A.jpg,1200,dash,I,None,1516,6,1,22783.299999713898,778011.4000000954,9021,ATS,B,9
8,test,4,C,haborder.png,1,m,Thu Jun 12 2025 11:04:22 GMT-0400 (Eastern Daylight Time),803027.7999997139,CFD-WM-011-006-HC.jpg,1500,solid,I,m,708,11,1,25016.39999961853,778011.4000000954,9021,ATS,B,10
9,test,4,C,haborder.png,1,z,Thu Jun 12 2025 11:04:22 GMT-0400 (Eastern Daylight Time),805927.9000000954,CFD-BF-051-043-A.jpg,1400,solid,I,z,1472,7,1,27916.5,778011.4000000954,9021,ATS,B,11
10,test,4,C,haborder.png,1,m,Thu Jun 12 2025 11:04:22 GMT-0400 (Eastern Daylight Time),808511.0999999046,CFD-BM-020-024-HC.jpg,1600,solid,I,m,963,10,1,30499.699999809265,778011.4000000954,9021,ATS,B,12
11,test,4,C,haborder.png,1,z,Thu Jun 12 2025 11:04:22 GMT-0400 (Eastern Daylight Time),810977.7999997139,CFD-WF-026-008-A.jpg,1700,solid,I,z,745,9,1,32966.39999961853,778011.4000000954,9021,ATS,B,13
12,test,4,C,haborder.png,1,z,Thu Jun 12 2025 11:04:22 GMT-0400 (Eastern Daylight Time),813311.0,CFD-BF-051-043-A.jpg,1400,solid,I,z,913,7,1,35299.59999990463,778011.4000000954,9021,ATS,B,14
13,test,4,C,mfborder.png,1,z,Thu Jun 12 2025 11:04:22 GMT-0400 (Eastern Daylight Time),815827.9000000954,CFD-BF-035-007-HC.jpg,1500,dash,I,z,992,3,1,37816.5,778011.4000000954,9021,ATS,B,15
14,test,4,C,mfborder.png,1,z,Thu Jun 12 2025 11:04:22 GMT-0400 (Eastern Daylight Time),818394.4000000954,CFD-WF-011-006-HC.jpg,1700,dash,I,z,835,1,1,40383.0,778011.4000000954,9021,ATS,B,16
15,test,4,C,haborder.png,1,z,Thu Jun 12 2025 11:04:22 GMT-0400 (Eastern Daylight Time),821277.7999997139,CFD-BF-050-012-A.jpg,1900,solid,I,z,965,8,1,43266.39999961853,778011.4000000954,9021,ATS,B,17
16,test,4,C,haborder.png,1,m,Thu Jun 12 2025 11:04:22 GMT-0400 (Eastern Daylight Time),822944.4000000954,CFD-WM-011-006-HC.jpg,1000,solid,I,m,646,12,1,44933.0,778011.4000000954,9021,ATS,B,18
17,test,4,C,mfborder.png,1,z,Thu Jun 12 2025 11:04:22 GMT-0400 (Eastern Daylight Time),825461.2999997139,CFD-BF-035-007-HC.jpg,1500,dash,I,z,991,3,1,47449.89999961853,778011.4000000954,9021,ATS,B,19
17,test,4,C,mfborder.png,0,m,Thu Jun 12 2025 11:04:22 GMT-0400 (Eastern Daylight Time),828861.0999999046,CFD-BM-037-041-A.jpg,2000,dash,I,z,1383,5,1,50849.699999809265,778011.4000000954,9021,ATS,B,20
17,test,4,C,mfborder.png,0,m,Thu Jun 12 2025 11:04:22 GMT-0400 (Eastern Daylight Time),832394.4000000954,CFD-BM-037-041-A.jpg,2000,dash,I,None,1516,5,1,54383.0,778011.4000000954,9021,ATS,B,21
18,test,4,C,haborder.png,1,z,Thu Jun 12 2025 11:04:22 GMT-0400 (Eastern Daylight Time),835477.7999997139,CFD-WF-026-008-A.jpg,1700,solid,I,z,1356,9,1,57466.39999961853,778011.4000000954,9021,ATS,B,22
19,test,4,C,mfborder.png,1,m,Thu Jun 12 2025 11:04:22 GMT-0400 (Eastern Daylight Time),837710.9000000954,CFD-BM-015-017-HC.jpg,1000,dash,I,m,1196,4,1,59699.5,778011.4000000954,9021,ATS,B,23
20,test,4,C,mfborder.png,1,m,Thu Jun 12 2025 11:04:22 GMT-0400 (Eastern Daylight Time),839661.0999999046,CFD-BM-015-017-HC.jpg,1000,dash,I,m,917,4,1,61649.699999809265,778011.4000000954,9021,ATS,B,24
