acc_sum,block,block_c,block_cond,con_img,correct,correct_response,datetime,endtime,face,jitter,line,project,response,response_time,row_sel,session_number,start_end,starttime,subject_id,task,task_vers,trial
0,prac,1,A,haborder.png,0,m,Tue Dec 02 2025 11:43:19 GMT-0500 (Eastern Standard Time),66371.20000004768,CFD-WF-017-016-HC.jpg,1500,solid,I,None,1515,11,3,3816.7000000476837,62554.5,9021,ATS,A,1
1,prac,1,A,haborder.png,1,z,Tue Dec 02 2025 11:43:19 GMT-0500 (Eastern Standard Time),69604.5,CFD-BF-039-039-A.jpg,1200,solid,I,z,1224,6,3,7050.0,62554.5,9021,ATS,A,2
2,prac,1,A,haborder.png,1,m,Tue Dec 02 2025 11:43:19 GMT-0500 (Eastern Standard Time),73004.5,CFD-WM-006-013-HC.jpg,1700,solid,I,m,883,9,3,10450.0,62554.5,9021,ATS,A,3
3,prac,1,A,haborder.png,1,z,Tue Dec 02 2025 11:43:19 GMT-0500 (Eastern Standard Time),76287.59999990463,CFD-WF-003-014-A.jpg,1600,solid,I,z,879,10,3,13733.099999904633,62554.5,9021,ATS,A,4
4,prac,1,A,haborder.png,1,z,Tue Dec 02 2025 11:43:19 GMT-0500 (Eastern Standard Time),78904.39999985695,CFD-WF-019-015-A.jpg,1000,solid,I,z,803,12,3,16349.899999856949,62554.5,9021,ATS,A,5
5,prac,1,A,haborder.png,1,z,Tue Dec 02 2025 11:43:19 GMT-0500 (Eastern Standard Time),81487.89999985695,CFD-BF-023-013-A.jpg,1000,solid,I,z,779,4,3,18933.39999985695,62554.5,9021,ATS,A,6
6,prac,1,A,haborder.png,1,m,Tue Dec 02 2025 11:43:19 GMT-0500 (Eastern Standard Time),84554.59999990463,CFD-BM-029-026-HC.jpg,1500,solid,I,m,750,3,3,22000.099999904633,62554.5,9021,ATS,A,7
7,prac,1,A,haborder.png,1,m,Tue Dec 02 2025 11:43:19 GMT-0500 (Eastern Standard Time),88187.70000004768,CFD-BF-028-020-HC.jpg,2000,solid,I,m,817,5,3,25633.200000047684,62554.5,9021,ATS,A,8
8,prac,1,A,haborder.png,1,z,Tue Dec 02 2025 11:43:19 GMT-0500 (Eastern Standard Time),91321.0,CFD-BM-005-010-A.jpg,1600,solid,I,z,719,2,3,28766.5,62554.5,9021,ATS,A,9
9,prac,1,A,haborder.png,1,z,Tue Dec 02 2025 11:43:19 GMT-0500 (Eastern Standard Time),94904.39999985695,CFD-WM-013-015-A.jpg,1900,solid,I,z,870,8,3,32349.89999985695,62554.5,9021,ATS,A,10
10,prac,1,A,haborder.png,1,m,Tue Dec 02 2025 11:43:19 GMT-0500 (Eastern Standard Time),97787.70000004768,CFD-WM-004-005-HC.jpg,1400,solid,I,m,667,7,3,35233.200000047684,62554.5,9021,ATS,A,11
11,prac,1,A,haborder.png,1,m,Tue Dec 02 2025 11:43:19 GMT-0500 (Eastern Standard Time),101387.89999985695,CFD-BM-017-052-HC.jpg,1700,solid,I,m,1083,1,3,38833.39999985695,62554.5,9021,ATS,A,12
1,prac,1,B,mfborder.png,1,z,Tue Dec 02 2025 11:43:19 GMT-0500 (Eastern Standard Time),137587.70000004768,CFD-WF-002-008-HC.jpg,1900,dash,I,z,1374,8,3,4083.300000190735,133504.39999985695,9021,ATS,A,1
2,prac,1,B,mfborder.png,1,m,Tue Dec 02 2025 11:43:19 GMT-0500 (Eastern Standard Time),140237.70000004768,CFD-WM-019-013-A.jpg,1200,dash,I,m,647,6,3,6733.300000190735,133504.39999985695,9021,ATS,A,2
3,prac,1,B,mfborder.png,1,m,Tue Dec 02 2025 11:43:19 GMT-0500 (Eastern Standard Time),143771.0,CFD-WM-013-015-A.jpg,1700,dash,I,m,1016,9,3,10266.600000143051,133504.39999985695,9021,ATS,A,3
4,prac,1,B,mfborder.png,1,m,Tue Dec 02 2025 11:43:19 GMT-0500 (Eastern Standard Time),146737.70000004768,CFD-BM-010-019-A.jpg,1600,dash,I,m,560,2,3,13233.300000190735,133504.39999985695,9021,ATS,A,4
5,prac,1,B,mfborder.png,1,z,Tue Dec 02 2025 11:43:19 GMT-0500 (Eastern Standard Time),149787.59999990463,CFD-BF-028-020-HC.jpg,1400,dash,I,z,849,7,3,16283.200000047684,133504.39999985695,9021,ATS,A,5
6,prac,1,B,mfborder.png,1,z,Tue Dec 02 2025 11:43:19 GMT-0500 (Eastern Standard Time),152487.70000004768,CFD-BF-023-013-A.jpg,1000,dash,I,z,887,4,3,18983.300000190735,133504.39999985695,9021,ATS,A,6
7,prac,1,B,mfborder.png,1,z,Tue Dec 02 2025 11:43:19 GMT-0500 (Eastern Standard Time),154871.0,CFD-WF-017-016-HC.jpg,1000,dash,I,z,571,12,3,21366.60000014305,133504.39999985695,9021,ATS,A,7
8,prac,1,B,mfborder.png,1,z,Tue Dec 02 2025 11:43:19 GMT-0500 (Eastern Standard Time),157903.89999985695,CFD-WF-003-014-A.jpg,1500,dash,I,z,728,11,3,24399.5,133504.39999985695,9021,ATS,A,8
9,prac,1,B,mfborder.png,1,m,Tue Dec 02 2025 11:43:19 GMT-0500 (Eastern Standard Time),161154.39999985695,CFD-WM-006-013-HC.jpg,1600,dash,I,m,843,10,3,27650.0,133504.39999985695,9021,ATS,A,9
10,prac,1,B,mfborder.png,1,m,Tue Dec 02 2025 11:43:19 GMT-0500 (Eastern Standard Time),164670.79999995232,CFD-BM-005-010-A.jpg,2000,dash,I,m,713,5,3,31166.400000095367,133504.39999985695,9021,ATS,A,10
11,prac,1,B,mfborder.png,1,m,Tue Dec 02 2025 11:43:19 GMT-0500 (Eastern Standard Time),167887.70000004768,CFD-BM-029-026-HC.jpg,1700,dash,I,m,711,1,3,34383.300000190735,133504.39999985695,9021,ATS,A,11
12,prac,1,B,mfborder.png,1,z,Tue Dec 02 2025 11:43:19 GMT-0500 (Eastern Standard Time),170871.0,CFD-BF-010-005-HC.jpg,1500,dash,I,z,671,3,3,37366.60000014305,133504.39999985695,9021,ATS,A,12
1,test,1,A,haborder.png,1,z,Tue Dec 02 2025 11:43:19 GMT-0500 (Eastern Standard Time),194621.0,CFD-BF-039-039-A.jpg,1200,solid,I,z,833,6,3,2066.600000143051,192554.39999985695,9021,ATS,A,1
2,test,1,A,haborder.png,1,z,Tue Dec 02 2025 11:43:19 GMT-0500 (Eastern Standard Time),196354.20000004768,CFD-BF-023-013-A.jpg,1000,solid,I,z,711,4,3,3799.800000190735,192554.39999985695,9021,ATS,A,2
3,test,1,A,haborder.png,1,m,Tue Dec 02 2025 11:43:19 GMT-0500 (Eastern Standard Time),199320.79999995232,CFD-BF-028-020-HC.jpg,2000,solid,I,m,937,5,3,6766.400000095367,192554.39999985695,9021,ATS,A,3
4,test,1,A,haborder.png,1,m,Tue Dec 02 2025 11:43:19 GMT-0500 (Eastern Standard Time),202037.5,CFD-BM-017-052-HC.jpg,1700,solid,I,m,974,1,3,9483.100000143051,192554.39999985695,9021,ATS,A,4
5,test,1,A,haborder.png,1,z,Tue Dec 02 2025 11:43:19 GMT-0500 (Eastern Standard Time),204804.09999990463,CFD-WM-013-015-A.jpg,1900,solid,I,z,842,8,3,12249.700000047684,192554.39999985695,9021,ATS,A,5
6,test,1,A,haborder.png,1,z,Tue Dec 02 2025 11:43:19 GMT-0500 (Eastern Standard Time),206470.79999995232,CFD-WF-019-015-A.jpg,1000,solid,I,z,641,12,3,13916.400000095367,192554.39999985695,9021,ATS,A,6
7,test,1,A,haborder.png,1,z,Tue Dec 02 2025 11:43:19 GMT-0500 (Eastern Standard Time),208737.5,CFD-WF-003-014-A.jpg,1600,solid,I,z,627,10,3,16183.100000143051,192554.39999985695,9021,ATS,A,7
8,test,1,A,haborder.png,1,z,Tue Dec 02 2025 11:43:19 GMT-0500 (Eastern Standard Time),212020.59999990463,CFD-WM-013-015-A.jpg,1900,solid,I,z,1342,8,3,19466.200000047684,192554.39999985695,9021,ATS,A,8
9,test,1,A,haborder.png,1,m,Tue Dec 02 2025 11:43:19 GMT-0500 (Eastern Standard Time),214204.20000004768,CFD-WF-017-016-HC.jpg,1500,solid,I,m,650,11,3,21649.800000190735,192554.39999985695,9021,ATS,A,9
10,test,1,A,haborder.png,1,m,Tue Dec 02 2025 11:43:19 GMT-0500 (Eastern Standard Time),216537.5,CFD-BM-029-026-HC.jpg,1500,solid,I,m,787,3,3,23983.10000014305,192554.39999985695,9021,ATS,A,10
11,test,1,A,haborder.png,1,z,Tue Dec 02 2025 11:43:19 GMT-0500 (Eastern Standard Time),219270.39999985695,CFD-BM-005-010-A.jpg,1600,solid,I,z,1089,2,3,26716.0,192554.39999985695,9021,ATS,A,11
12,test,1,A,haborder.png,1,m,Tue Dec 02 2025 11:43:19 GMT-0500 (Eastern Standard Time),221987.39999985695,CFD-WF-017-016-HC.jpg,1500,solid,I,m,1193,11,3,29433.0,192554.39999985695,9021,ATS,A,12
13,test,1,A,haborder.png,1,m,Tue Dec 02 2025 11:43:19 GMT-0500 (Eastern Standard Time),224220.0,CFD-WM-004-005-HC.jpg,1400,solid,I,m,815,7,3,31665.60000014305,192554.39999985695,9021,ATS,A,13
14,test,1,A,haborder.png,1,m,Tue Dec 02 2025 11:43:19 GMT-0500 (Eastern Standard Time),226304.20000004768,CFD-WM-004-005-HC.jpg,1400,solid,I,m,663,7,3,33749.800000190735,192554.39999985695,9021,ATS,A,14
15,test,1,A,haborder.png,1,z,Tue Dec 02 2025 11:43:19 GMT-0500 (Eastern Standard Time),228454.20000004768,CFD-BF-023-013-A.jpg,1000,solid,I,z,1123,4,3,35899.800000190735,192554.39999985695,9021,ATS,A,15
16,test,1,A,haborder.png,1,m,Tue Dec 02 2025 11:43:19 GMT-0500 (Eastern Standard Time),230954.09999990463,CFD-WM-006-013-HC.jpg,1700,solid,I,m,752,9,3,38399.700000047684,192554.39999985695,9021,ATS,A,16
17,test,1,A,haborder.png,1,m,Tue Dec 02 2025 11:43:19 GMT-0500 (Eastern Standard Time),233587.5,CFD-BM-017-052-HC.jpg,1700,solid,I,m,893,1,3,41033.10000014305,192554.39999985695,9021,ATS,A,17
18,test,1,A,haborder.png,1,m,Tue Dec 02 2025 11:43:19 GMT-0500 (Eastern Standard Time),236537.5,CFD-WM-006-013-HC.jpg,1700,solid,I,m,1220,9,3,43983.10000014305,192554.39999985695,9021,ATS,A,18
18,test,1,A,haborder.png,0,m,Tue Dec 02 2025 11:43:19 GMT-0500 (Eastern Standard Time),239437.5,CFD-BF-028-020-HC.jpg,2000,solid,I,z,865,5,3,46883.10000014305,192554.39999985695,9021,ATS,A,19
19,test,1,A,haborder.png,1,z,Tue Dec 02 2025 11:43:19 GMT-0500 (Eastern Standard Time),241287.5,CFD-WF-019-015-A.jpg,1000,solid,I,z,822,12,3,48733.10000014305,192554.39999985695,9021,ATS,A,20
20,test,1,A,haborder.png,1,m,Tue Dec 02 2025 11:43:19 GMT-0500 (Eastern Standard Time),243504.0,CFD-BM-029-026-HC.jpg,1500,solid,I,m,696,3,3,50949.60000014305,192554.39999985695,9021,ATS,A,21
21,test,1,A,haborder.png,1,z,Tue Dec 02 2025 11:43:19 GMT-0500 (Eastern Standard Time),245870.59999990463,CFD-WF-003-014-A.jpg,1600,solid,I,z,731,10,3,53316.200000047684,192554.39999985695,9021,ATS,A,22
22,test,1,A,haborder.png,1,z,Tue Dec 02 2025 11:43:19 GMT-0500 (Eastern Standard Time),248454.09999990463,CFD-BF-039-039-A.jpg,1200,solid,I,z,1357,6,3,55899.700000047684,192554.39999985695,9021,ATS,A,23
23,test,1,A,haborder.png,1,z,Tue Dec 02 2025 11:43:19 GMT-0500 (Eastern Standard Time),251154.09999990463,CFD-BM-005-010-A.jpg,1600,solid,I,z,1078,2,3,58599.700000047684,192554.39999985695,9021,ATS,A,24
1,test,1,B,mfborder.png,1,z,Tue Dec 02 2025 11:43:19 GMT-0500 (Eastern Standard Time),267654.09999990463,CFD-WF-017-016-HC.jpg,1000,dash,I,z,840,12,3,1866.7000000476837,265787.39999985695,9021,ATS,A,1
2,test,1,B,mfborder.png,1,z,Tue Dec 02 2025 11:43:19 GMT-0500 (Eastern Standard Time),269820.89999985695,CFD-BF-010-005-HC.jpg,1500,dash,I,z,648,3,3,4033.5,265787.39999985695,9021,ATS,A,2
3,test,1,B,mfborder.png,1,m,Tue Dec 02 2025 11:43:19 GMT-0500 (Eastern Standard Time),272370.7999999523,CFD-WM-006-013-HC.jpg,1600,dash,I,m,910,10,3,6583.400000095367,265787.39999985695,9021,ATS,A,3
4,test,1,B,mfborder.png,1,z,Tue Dec 02 2025 11:43:19 GMT-0500 (Eastern Standard Time),274320.7000000477,CFD-WF-017-016-HC.jpg,1000,dash,I,z,928,12,3,8533.300000190735,265787.39999985695,9021,ATS,A,4
5,test,1,B,mfborder.png,1,z,Tue Dec 02 2025 11:43:19 GMT-0500 (Eastern Standard Time),276054.0,CFD-BF-023-013-A.jpg,1000,dash,I,z,690,4,3,10266.600000143051,265787.39999985695,9021,ATS,A,5
6,test,1,B,mfborder.png,1,m,Tue Dec 02 2025 11:43:19 GMT-0500 (Eastern Standard Time),278470.7999999523,CFD-WM-013-015-A.jpg,1700,dash,I,m,689,9,3,12683.400000095367,265787.39999985695,9021,ATS,A,6
7,test,1,B,mfborder.png,1,z,Tue Dec 02 2025 11:43:19 GMT-0500 (Eastern Standard Time),280637.0,CFD-WF-003-014-A.jpg,1500,dash,I,z,649,11,3,14849.600000143051,265787.39999985695,9021,ATS,A,7
8,test,1,B,mfborder.png,1,z,Tue Dec 02 2025 11:43:19 GMT-0500 (Eastern Standard Time),282737.39999985695,CFD-BF-010-005-HC.jpg,1500,dash,I,z,561,3,3,16950.0,265787.39999985695,9021,ATS,A,8
9,test,1,B,mfborder.png,1,m,Tue Dec 02 2025 11:43:19 GMT-0500 (Eastern Standard Time),285004.09999990463,CFD-WM-006-013-HC.jpg,1600,dash,I,m,633,10,3,19216.700000047684,265787.39999985695,9021,ATS,A,9
10,test,1,B,mfborder.png,1,m,Tue Dec 02 2025 11:43:19 GMT-0500 (Eastern Standard Time),287837.39999985695,CFD-BM-005-010-A.jpg,2000,dash,I,m,815,5,3,22050.0,265787.39999985695,9021,ATS,A,10
11,test,1,B,mfborder.png,1,m,Tue Dec 02 2025 11:43:19 GMT-0500 (Eastern Standard Time),289687.39999985695,CFD-WM-019-013-A.jpg,1200,dash,I,m,622,6,3,23900.0,265787.39999985695,9021,ATS,A,11
12,test,1,B,mfborder.png,1,m,Tue Dec 02 2025 11:43:19 GMT-0500 (Eastern Standard Time),291487.39999985695,CFD-WM-019-013-A.jpg,1200,dash,I,m,563,6,3,25700.0,265787.39999985695,9021,ATS,A,12
13,test,1,B,mfborder.png,1,z,Tue Dec 02 2025 11:43:19 GMT-0500 (Eastern Standard Time),293604.09999990463,CFD-BF-028-020-HC.jpg,1400,dash,I,z,691,7,3,27816.700000047684,265787.39999985695,9021,ATS,A,13
14,test,1,B,mfborder.png,1,m,Tue Dec 02 2025 11:43:19 GMT-0500 (Eastern Standard Time),295937.39999985695,CFD-BM-010-019-A.jpg,1600,dash,I,m,694,2,3,30150.0,265787.39999985695,9021,ATS,A,14
15,test,1,B,mfborder.png,1,m,Tue Dec 02 2025 11:43:19 GMT-0500 (Eastern Standard Time),298220.7000000477,CFD-BM-010-019-A.jpg,1600,dash,I,m,634,2,3,32433.300000190735,265787.39999985695,9021,ATS,A,15
16,test,1,B,mfborder.png,1,z,Tue Dec 02 2025 11:43:19 GMT-0500 (Eastern Standard Time),300787.39999985695,CFD-WF-002-008-HC.jpg,1900,dash,I,z,643,8,3,35000.0,265787.39999985695,9021,ATS,A,16
17,test,1,B,mfborder.png,1,m,Tue Dec 02 2025 11:43:19 GMT-0500 (Eastern Standard Time),303437.39999985695,CFD-BM-005-010-A.jpg,2000,dash,I,m,632,5,3,37650.0,265787.39999985695,9021,ATS,A,17
18,test,1,B,mfborder.png,1,z,Tue Dec 02 2025 11:43:19 GMT-0500 (Eastern Standard Time),305554.09999990463,CFD-BF-023-013-A.jpg,1000,dash,I,z,1078,4,3,39766.700000047684,265787.39999985695,9021,ATS,A,18
19,test,1,B,mfborder.png,1,z,Tue Dec 02 2025 11:43:19 GMT-0500 (Eastern Standard Time),307904.0,CFD-BF-028-020-HC.jpg,1400,dash,I,z,928,7,3,42116.60000014305,265787.39999985695,9021,ATS,A,19
20,test,1,B,mfborder.png,1,m,Tue Dec 02 2025 11:43:19 GMT-0500 (Eastern Standard Time),310204.09999990463,CFD-BM-029-026-HC.jpg,1700,dash,I,m,567,1,3,44416.700000047684,265787.39999985695,9021,ATS,A,20
21,test,1,B,mfborder.png,1,z,Tue Dec 02 2025 11:43:19 GMT-0500 (Eastern Standard Time),312653.7999999523,CFD-WF-002-008-HC.jpg,1900,dash,I,z,515,8,3,46866.40000009537,265787.39999985695,9021,ATS,A,21
22,test,1,B,mfborder.png,1,m,Tue Dec 02 2025 11:43:19 GMT-0500 (Eastern Standard Time),315137.2999999523,CFD-BM-029-026-HC.jpg,1700,dash,I,m,744,1,3,49349.90000009537,265787.39999985695,9021,ATS,A,22
23,test,1,B,mfborder.png,1,m,Tue Dec 02 2025 11:43:19 GMT-0500 (Eastern Standard Time),317504.0,CFD-WM-013-015-A.jpg,1700,dash,I,m,646,9,3,51716.60000014305,265787.39999985695,9021,ATS,A,23
24,test,1,B,mfborder.png,1,z,Tue Dec 02 2025 11:43:19 GMT-0500 (Eastern Standard Time),319604.09999990463,CFD-WF-003-014-A.jpg,1500,dash,I,z,574,11,3,53816.700000047684,265787.39999985695,9021,ATS,A,24
1,prac,1,C,mfborder.png,1,z,Tue Dec 02 2025 11:43:19 GMT-0500 (Eastern Standard Time),355621.0,CFD-WF-017-016-HC.jpg,1600,dash,I,z,840,1,3,3250.100000143051,352370.89999985695,9021,ATS,A,1
2,prac,1,C,mfborder.png,1,z,Tue Dec 02 2025 11:43:19 GMT-0500 (Eastern Standard Time),358554.2000000477,CFD-BF-028-020-HC.jpg,1000,dash,I,z,1118,3,3,6183.300000190735,352370.89999985695,9021,ATS,A,2
2,prac,1,C,mfborder.png,0,m,Tue Dec 02 2025 11:43:19 GMT-0500 (Eastern Standard Time),362070.7999999523,CFD-BM-005-010-A.jpg,1200,dash,I,None,1516,5,3,9699.900000095367,352370.89999985695,9021,ATS,A,3
3,prac,1,C,haborder.png,1,z,Tue Dec 02 2025 11:43:19 GMT-0500 (Eastern Standard Time),366004.09999990463,CFD-BF-023-013-A.jpg,1900,dash,I,z,1224,7,3,13633.200000047684,352370.89999985695,9021,ATS,A,4
4,prac,1,C,haborder.png,1,z,Tue Dec 02 2025 11:43:19 GMT-0500 (Eastern Standard Time),369437.39999985695,CFD-BF-039-039-A.jpg,1700,solid,I,z,930,8,3,17066.5,352370.89999985695,9021,ATS,A,5
5,prac,1,C,haborder.png,1,m,Tue Dec 02 2025 11:43:19 GMT-0500 (Eastern Standard Time),372254.0,CFD-WM-004-005-HC.jpg,1000,dash,I,m,1013,11,3,19883.10000014305,352370.89999985695,9021,ATS,A,6
6,prac,1,C,haborder.png,1,z,Tue Dec 02 2025 11:43:19 GMT-0500 (Eastern Standard Time),375554.7000000477,CFD-WF-003-014-A.jpg,1600,dash,I,z,892,9,3,23183.800000190735,352370.89999985695,9021,ATS,A,7
6,prac,1,C,mfborder.png,0,m,Tue Dec 02 2025 11:43:19 GMT-0500 (Eastern Standard Time),379870.39999985695,CFD-BM-017-052-HC.jpg,2000,solid,I,None,1516,4,3,27499.5,352370.89999985695,9021,ATS,A,8
7,prac,1,C,mfborder.png,1,z,Tue Dec 02 2025 11:43:19 GMT-0500 (Eastern Standard Time),383304.09999990463,CFD-WF-019-015-A.jpg,1500,solid,I,z,1120,2,3,30933.200000047684,352370.89999985695,9021,ATS,A,9
8,prac,1,C,haborder.png,1,m,Tue Dec 02 2025 11:43:19 GMT-0500 (Eastern Standard Time),386437.2999999523,CFD-WM-004-005-HC.jpg,1400,solid,I,m,922,12,3,34066.40000009537,352370.89999985695,9021,ATS,A,10
9,prac,1,C,haborder.png,1,m,Tue Dec 02 2025 11:43:19 GMT-0500 (Eastern Standard Time),389554.0,CFD-BM-029-026-HC.jpg,1500,solid,I,m,809,10,3,37183.10000014305,352370.89999985695,9021,ATS,A,11
9,prac,1,C,mfborder.png,0,m,Tue Dec 02 2025 11:43:19 GMT-0500 (Eastern Standard Time),393237.39999985695,CFD-WM-013-015-A.jpg,1700,solid,I,z,1173,6,3,40866.5,352370.89999985695,9021,ATS,A,12
1,test,1,C,haborder.png,1,m,Tue Dec 02 2025 11:43:19 GMT-0500 (Eastern Standard Time),415470.7000000477,CFD-WF-002-008-HC.jpg,1500,solid,I,m,1097,11,3,2615.800000190735,412854.89999985695,9021,ATS,A,1
2,test,1,C,mfborder.png,1,m,Tue Dec 02 2025 11:43:19 GMT-0500 (Eastern Standard Time),417470.39999985695,CFD-BM-029-026-HC.jpg,1200,dash,I,m,764,6,3,4615.5,412854.89999985695,9021,ATS,A,2
2,test,1,C,mfborder.png,0,z,Tue Dec 02 2025 11:43:19 GMT-0500 (Eastern Standard Time),420704.0,CFD-BF-010-005-HC.jpg,1700,dash,I,None,1516,1,3,7849.100000143051,412854.89999985695,9021,ATS,A,3
3,test,1,C,mfborder.png,1,m,Tue Dec 02 2025 11:43:19 GMT-0500 (Eastern Standard Time),422487.2000000477,CFD-WM-006-013-HC.jpg,1000,dash,I,m,755,4,3,9632.300000190735,412854.89999985695,9021,ATS,A,4
4,test,1,C,mfborder.png,1,m,Tue Dec 02 2025 11:43:19 GMT-0500 (Eastern Standard Time),425287.2000000477,CFD-WM-019-013-A.jpg,2000,dash,I,m,756,5,3,12432.300000190735,412854.89999985695,9021,ATS,A,5
5,test,1,C,haborder.png,1,z,Tue Dec 02 2025 11:43:19 GMT-0500 (Eastern Standard Time),427570.59999990463,CFD-WM-013-015-A.jpg,1400,solid,I,z,860,7,3,14715.700000047684,412854.89999985695,9021,ATS,A,6
6,test,1,C,mfborder.png,1,m,Tue Dec 02 2025 11:43:19 GMT-0500 (Eastern Standard Time),429853.59999990463,CFD-WM-006-013-HC.jpg,1000,dash,I,m,1248,4,3,16998.700000047684,412854.89999985695,9021,ATS,A,7
7,test,1,C,mfborder.png,1,z,Tue Dec 02 2025 11:43:19 GMT-0500 (Eastern Standard Time),432053.89999985695,CFD-WF-003-014-A.jpg,1500,dash,I,z,673,3,3,19199.0,412854.89999985695,9021,ATS,A,8
8,test,1,C,haborder.png,1,z,Tue Dec 02 2025 11:43:19 GMT-0500 (Eastern Standard Time),434487.2000000477,CFD-WM-013-015-A.jpg,1400,solid,I,z,988,7,3,21632.300000190735,412854.89999985695,9021,ATS,A,9
9,test,1,C,haborder.png,1,z,Tue Dec 02 2025 11:43:19 GMT-0500 (Eastern Standard Time),437420.5,CFD-BM-010-019-A.jpg,1700,solid,I,z,1201,9,3,24565.60000014305,412854.89999985695,9021,ATS,A,10
9,test,1,C,haborder.png,0,m,Tue Dec 02 2025 11:43:19 GMT-0500 (Eastern Standard Time),440570.7000000477,CFD-BF-028-020-HC.jpg,1600,solid,I,None,1516,10,3,27715.800000190735,412854.89999985695,9021,ATS,A,11
10,test,1,C,mfborder.png,1,z,Tue Dec 02 2025 11:43:19 GMT-0500 (Eastern Standard Time),443603.7999999523,CFD-BF-023-013-A.jpg,1600,dash,I,z,1408,2,3,30748.900000095367,412854.89999985695,9021,ATS,A,12
11,test,1,C,haborder.png,1,z,Tue Dec 02 2025 11:43:19 GMT-0500 (Eastern Standard Time),446453.89999985695,CFD-BM-005-010-A.jpg,1900,solid,I,z,906,8,3,33599.0,412854.89999985695,9021,ATS,A,13
12,test,1,C,mfborder.png,1,z,Tue Dec 02 2025 11:43:19 GMT-0500 (Eastern Standard Time),448753.89999985695,CFD-WF-003-014-A.jpg,1500,dash,I,z,778,3,3,35899.0,412854.89999985695,9021,ATS,A,14
13,test,1,C,haborder.png,1,m,Tue Dec 02 2025 11:43:19 GMT-0500 (Eastern Standard Time),450903.89999985695,CFD-WF-017-016-HC.jpg,1000,solid,I,m,1121,12,3,38049.0,412854.89999985695,9021,ATS,A,15
13,test,1,C,mfborder.png,0,m,Tue Dec 02 2025 11:43:19 GMT-0500 (Eastern Standard Time),454453.7999999523,CFD-WM-019-013-A.jpg,2000,dash,I,None,1516,5,3,41598.90000009537,412854.89999985695,9021,ATS,A,16
14,test,1,C,haborder.png,1,m,Tue Dec 02 2025 11:43:19 GMT-0500 (Eastern Standard Time),457254.0,CFD-WF-002-008-HC.jpg,1500,solid,I,m,1273,11,3,44399.10000014305,412854.89999985695,9021,ATS,A,17
15,test,1,C,haborder.png,1,m,Tue Dec 02 2025 11:43:19 GMT-0500 (Eastern Standard Time),459237.2999999523,CFD-WF-017-016-HC.jpg,1000,solid,I,m,958,12,3,46382.40000009537,412854.89999985695,9021,ATS,A,18
16,test,1,C,mfborder.png,1,z,Tue Dec 02 2025 11:43:19 GMT-0500 (Eastern Standard Time),461703.89999985695,CFD-BF-023-013-A.jpg,1600,dash,I,z,838,2,3,48849.0,412854.89999985695,9021,ATS,A,19
16,test,1,C,mfborder.png,0,m,Tue Dec 02 2025 11:43:19 GMT-0500 (Eastern Standard Time),463787.2999999523,CFD-BM-029-026-HC.jpg,1200,dash,I,z,834,6,3,50932.40000009537,412854.89999985695,9021,ATS,A,20
17,test,1,C,haborder.png,1,m,Tue Dec 02 2025 11:43:19 GMT-0500 (Eastern Standard Time),466587.2000000477,CFD-BF-028-020-HC.jpg,1600,solid,I,m,1168,10,3,53732.300000190735,412854.89999985695,9021,ATS,A,21
18,test,1,C,mfborder.png,1,z,Tue Dec 02 2025 11:43:19 GMT-0500 (Eastern Standard Time),469053.5,CFD-BF-010-005-HC.jpg,1700,dash,I,z,732,1,3,56198.60000014305,412854.89999985695,9021,ATS,A,22
19,test,1,C,haborder.png,1,z,Tue Dec 02 2025 11:43:19 GMT-0500 (Eastern Standard Time),472137.2000000477,CFD-BM-005-010-A.jpg,1900,solid,I,z,1153,8,3,59282.300000190735,412854.89999985695,9021,ATS,A,23
20,test,1,C,haborder.png,1,z,Tue Dec 02 2025 11:43:19 GMT-0500 (Eastern Standard Time),474670.2000000477,CFD-BM-010-019-A.jpg,1700,solid,I,z,797,9,3,61815.300000190735,412854.89999985695,9021,ATS,A,24
1,test,2,C,haborder.png,1,m,Tue Dec 02 2025 11:43:19 GMT-0500 (Eastern Standard Time),480970.7000000477,CFD-WM-004-005-HC.jpg,1500,solid,I,m,768,11,3,2300.4000000953674,478670.2999999523,9021,ATS,A,1
2,test,2,C,mfborder.png,1,z,Tue Dec 02 2025 11:43:19 GMT-0500 (Eastern Standard Time),483520.39999985695,CFD-WF-017-016-HC.jpg,1700,dash,I,z,813,1,3,4850.099999904633,478670.2999999523,9021,ATS,A,2
3,test,2,C,haborder.png,1,z,Tue Dec 02 2025 11:43:19 GMT-0500 (Eastern Standard Time),486120.5,CFD-WF-003-014-A.jpg,1700,solid,I,z,870,9,3,7450.200000047684,478670.2999999523,9021,ATS,A,3
4,test,2,C,mfborder.png,1,z,Tue Dec 02 2025 11:43:19 GMT-0500 (Eastern Standard Time),488520.39999985695,CFD-BF-028-020-HC.jpg,1500,dash,I,z,854,3,3,9850.099999904633,478670.2999999523,9021,ATS,A,4
5,test,2,C,haborder.png,1,m,Tue Dec 02 2025 11:43:19 GMT-0500 (Eastern Standard Time),490286.89999985695,CFD-WM-004-005-HC.jpg,1000,solid,I,m,747,12,3,11616.599999904633,478670.2999999523,9021,ATS,A,5
6,test,2,C,mfborder.png,1,z,Tue Dec 02 2025 11:43:19 GMT-0500 (Eastern Standard Time),492853.7999999523,CFD-WF-017-016-HC.jpg,1700,dash,I,z,840,1,3,14183.5,478670.2999999523,9021,ATS,A,6
7,test,2,C,haborder.png,1,z,Tue Dec 02 2025 11:43:19 GMT-0500 (Eastern Standard Time),495187.2000000477,CFD-BF-023-013-A.jpg,1400,solid,I,z,910,7,3,16516.900000095367,478670.2999999523,9021,ATS,A,7
8,test,2,C,haborder.png,1,m,Tue Dec 02 2025 11:43:19 GMT-0500 (Eastern Standard Time),497837.0,CFD-BM-029-026-HC.jpg,1600,solid,I,m,1016,10,3,19166.700000047684,478670.2999999523,9021,ATS,A,8
9,test,2,C,haborder.png,1,m,Tue Dec 02 2025 11:43:19 GMT-0500 (Eastern Standard Time),500053.7999999523,CFD-WM-004-005-HC.jpg,1500,solid,I,m,690,11,3,21383.5,478670.2999999523,9021,ATS,A,9
10,test,2,C,mfborder.png,1,m,Tue Dec 02 2025 11:43:19 GMT-0500 (Eastern Standard Time),503020.39999985695,CFD-BM-005-010-A.jpg,2000,dash,I,m,917,5,3,24350.099999904633,478670.2999999523,9021,ATS,A,10
11,test,2,C,mfborder.png,1,z,Tue Dec 02 2025 11:43:19 GMT-0500 (Eastern Standard Time),505370.5,CFD-WF-019-015-A.jpg,1600,dash,I,z,719,2,3,26700.200000047684,478670.2999999523,9021,ATS,A,11
12,test,2,C,mfborder.png,1,m,Tue Dec 02 2025 11:43:19 GMT-0500 (Eastern Standard Time),507687.2000000477,CFD-WM-013-015-A.jpg,1200,dash,I,m,1088,6,3,29016.900000095367,478670.2999999523,9021,ATS,A,12
13,test,2,C,haborder.png,1,m,Tue Dec 02 2025 11:43:19 GMT-0500 (Eastern Standard Time),509653.7999999523,CFD-WM-004-005-HC.jpg,1000,solid,I,m,940,12,3,30983.5,478670.2999999523,9021,ATS,A,13
14,test,2,C,mfborder.png,1,z,Tue Dec 02 2025 11:43:19 GMT-0500 (Eastern Standard Time),512070.39999985695,CFD-BF-028-020-HC.jpg,1500,dash,I,z,872,3,3,33400.09999990463,478670.2999999523,9021,ATS,A,14
15,test,2,C,mfborder.png,1,z,Tue Dec 02 2025 11:43:19 GMT-0500 (Eastern Standard Time),514570.39999985695,CFD-WF-019-015-A.jpg,1600,dash,I,z,868,2,3,35900.09999990463,478670.2999999523,9021,ATS,A,15
16,test,2,C,mfborder.png,1,m,Tue Dec 02 2025 11:43:19 GMT-0500 (Eastern Standard Time),516820.39999985695,CFD-WM-013-015-A.jpg,1200,dash,I,m,1025,6,3,38150.09999990463,478670.2999999523,9021,ATS,A,16
17,test,2,C,mfborder.png,1,m,Tue Dec 02 2025 11:43:19 GMT-0500 (Eastern Standard Time),519087.0,CFD-BM-017-052-HC.jpg,1000,dash,I,m,1231,4,3,40416.700000047684,478670.2999999523,9021,ATS,A,17
18,test,2,C,haborder.png,1,m,Tue Dec 02 2025 11:43:19 GMT-0500 (Eastern Standard Time),521553.7000000477,CFD-BM-029-026-HC.jpg,1600,solid,I,m,844,10,3,42883.40000009537,478670.2999999523,9021,ATS,A,18
19,test,2,C,haborder.png,1,z,Tue Dec 02 2025 11:43:19 GMT-0500 (Eastern Standard Time),524120.2999999523,CFD-WF-003-014-A.jpg,1700,solid,I,z,804,9,3,45450.0,478670.2999999523,9021,ATS,A,19
20,test,2,C,haborder.png,1,z,Tue Dec 02 2025 11:43:19 GMT-0500 (Eastern Standard Time),526904.2999999523,CFD-BF-039-039-A.jpg,1900,solid,I,z,854,8,3,48234.0,478670.2999999523,9021,ATS,A,20
21,test,2,C,haborder.png,1,z,Tue Dec 02 2025 11:43:19 GMT-0500 (Eastern Standard Time),529553.7999999523,CFD-BF-039-039-A.jpg,1900,solid,I,z,727,8,3,50883.5,478670.2999999523,9021,ATS,A,21
21,test,2,C,mfborder.png,0,m,Tue Dec 02 2025 11:43:19 GMT-0500 (Eastern Standard Time),532087.2999999523,CFD-BM-017-052-HC.jpg,1000,dash,I,None,1516,4,3,53417.0,478670.2999999523,9021,ATS,A,22
22,test,2,C,haborder.png,1,z,Tue Dec 02 2025 11:43:19 GMT-0500 (Eastern Standard Time),534887.0,CFD-BF-023-013-A.jpg,1400,solid,I,z,1372,7,3,56216.700000047684,478670.2999999523,9021,ATS,A,23
23,test,2,C,mfborder.png,1,m,Tue Dec 02 2025 11:43:19 GMT-0500 (Eastern Standard Time),537987.0,CFD-BM-005-010-A.jpg,2000,dash,I,m,1059,5,3,59316.700000047684,478670.2999999523,9021,ATS,A,24
1,test,3,C,haborder.png,1,m,Tue Dec 02 2025 11:43:19 GMT-0500 (Eastern Standard Time),542253.7000000477,CFD-WF-002-008-HC.jpg,1500,solid,I,m,1314,11,3,2832.9000000953674,539420.7999999523,9021,ATS,A,1
2,test,3,C,haborder.png,1,m,Tue Dec 02 2025 11:43:19 GMT-0500 (Eastern Standard Time),544787.0,CFD-BF-028-020-HC.jpg,1600,solid,I,m,909,10,3,5366.200000047684,539420.7999999523,9021,ATS,A,2
3,test,3,C,mfborder.png,1,z,Tue Dec 02 2025 11:43:19 GMT-0500 (Eastern Standard Time),547003.7999999523,CFD-WF-003-014-A.jpg,1500,dash,I,z,684,3,3,7583.0,539420.7999999523,9021,ATS,A,3
4,test,3,C,haborder.png,1,m,Tue Dec 02 2025 11:43:19 GMT-0500 (Eastern Standard Time),548837.2000000477,CFD-WF-017-016-HC.jpg,1000,solid,I,m,791,12,3,9416.400000095367,539420.7999999523,9021,ATS,A,4
5,test,3,C,mfborder.png,1,z,Tue Dec 02 2025 11:43:19 GMT-0500 (Eastern Standard Time),551270.399999857,CFD-BF-023-013-A.jpg,1600,dash,I,z,806,2,3,11849.599999904633,539420.7999999523,9021,ATS,A,5
5,test,3,C,haborder.png,0,z,Tue Dec 02 2025 11:43:19 GMT-0500 (Eastern Standard Time),554070.399999857,CFD-BM-010-019-A.jpg,1700,solid,I,m,1072,9,3,14649.599999904633,539420.7999999523,9021,ATS,A,6
5,test,3,C,mfborder.png,0,m,Tue Dec 02 2025 11:43:19 GMT-0500 (Eastern Standard Time),556437.0,CFD-BM-029-026-HC.jpg,1200,dash,I,z,1140,6,3,17016.200000047684,539420.7999999523,9021,ATS,A,7
6,test,3,C,haborder.png,1,z,Tue Dec 02 2025 11:43:19 GMT-0500 (Eastern Standard Time),558987.0999999046,CFD-WM-013-015-A.jpg,1400,solid,I,z,1101,7,3,19566.299999952316,539420.7999999523,9021,ATS,A,8
7,test,3,C,mfborder.png,1,z,Tue Dec 02 2025 11:43:19 GMT-0500 (Eastern Standard Time),561436.899999857,CFD-BF-023-013-A.jpg,1600,dash,I,z,832,2,3,22016.099999904633,539420.7999999523,9021,ATS,A,9
8,test,3,C,mfborder.png,1,m,Tue Dec 02 2025 11:43:19 GMT-0500 (Eastern Standard Time),564603.7999999523,CFD-WM-019-013-A.jpg,2000,dash,I,m,1134,5,3,25183.0,539420.7999999523,9021,ATS,A,10
8,test,3,C,haborder.png,0,z,Tue Dec 02 2025 11:43:19 GMT-0500 (Eastern Standard Time),567503.7000000477,CFD-WM-013-015-A.jpg,1400,solid,I,m,1462,7,3,28082.900000095367,539420.7999999523,9021,ATS,A,11
9,test,3,C,haborder.png,1,z,Tue Dec 02 2025 11:43:19 GMT-0500 (Eastern Standard Time),570587.0999999046,CFD-BM-010-019-A.jpg,1700,solid,I,z,1351,9,3,31166.299999952316,539420.7999999523,9021,ATS,A,12
9,test,3,C,mfborder.png,0,m,Tue Dec 02 2025 11:43:19 GMT-0500 (Eastern Standard Time),572803.7000000477,CFD-WM-006-013-HC.jpg,1000,dash,I,z,1192,4,3,33382.90000009537,539420.7999999523,9021,ATS,A,13
10,test,3,C,haborder.png,1,m,Tue Dec 02 2025 11:43:19 GMT-0500 (Eastern Standard Time),575270.399999857,CFD-WF-017-016-HC.jpg,1000,solid,I,m,1422,12,3,35849.59999990463,539420.7999999523,9021,ATS,A,14
11,test,3,C,mfborder.png,1,z,Tue Dec 02 2025 11:43:19 GMT-0500 (Eastern Standard Time),577670.399999857,CFD-WF-003-014-A.jpg,1500,dash,I,z,872,3,3,38249.59999990463,539420.7999999523,9021,ATS,A,15
12,test,3,C,mfborder.png,1,z,Tue Dec 02 2025 11:43:19 GMT-0500 (Eastern Standard Time),580253.399999857,CFD-BF-010-005-HC.jpg,1700,dash,I,z,864,1,3,40832.59999990463,539420.7999999523,9021,ATS,A,16
13,test,3,C,mfborder.png,1,m,Tue Dec 02 2025 11:43:19 GMT-0500 (Eastern Standard Time),583587.0999999046,CFD-WM-019-013-A.jpg,2000,dash,I,m,1310,5,3,44166.299999952316,539420.7999999523,9021,ATS,A,17
14,test,3,C,haborder.png,1,z,Tue Dec 02 2025 11:43:19 GMT-0500 (Eastern Standard Time),586836.5,CFD-BM-005-010-A.jpg,1900,solid,I,z,1325,8,3,47415.700000047684,539420.7999999523,9021,ATS,A,18
14,test,3,C,mfborder.png,0,m,Tue Dec 02 2025 11:43:19 GMT-0500 (Eastern Standard Time),589320.2999999523,CFD-BM-029-026-HC.jpg,1200,dash,I,z,1237,6,3,49899.5,539420.7999999523,9021,ATS,A,19
15,test,3,C,mfborder.png,1,m,Tue Dec 02 2025 11:43:19 GMT-0500 (Eastern Standard Time),591436.899999857,CFD-WM-006-013-HC.jpg,1000,dash,I,m,1082,4,3,52016.09999990463,539420.7999999523,9021,ATS,A,20
16,test,3,C,haborder.png,1,m,Tue Dec 02 2025 11:43:19 GMT-0500 (Eastern Standard Time),594253.399999857,CFD-WF-002-008-HC.jpg,1500,solid,I,m,1299,11,3,54832.59999990463,539420.7999999523,9021,ATS,A,21
17,test,3,C,haborder.png,1,z,Tue Dec 02 2025 11:43:19 GMT-0500 (Eastern Standard Time),597453.399999857,CFD-BM-005-010-A.jpg,1900,solid,I,z,1264,8,3,58032.59999990463,539420.7999999523,9021,ATS,A,22
18,test,3,C,mfborder.png,1,z,Tue Dec 02 2025 11:43:19 GMT-0500 (Eastern Standard Time),600037.0999999046,CFD-BF-010-005-HC.jpg,1700,dash,I,z,857,1,3,60616.299999952316,539420.7999999523,9021,ATS,A,23
19,test,3,C,haborder.png,1,m,Tue Dec 02 2025 11:43:19 GMT-0500 (Eastern Standard Time),602770.2000000477,CFD-BF-028-020-HC.jpg,1600,solid,I,m,1110,10,3,63349.40000009537,539420.7999999523,9021,ATS,A,24
1,test,4,C,mfborder.png,1,z,Tue Dec 02 2025 11:43:19 GMT-0500 (Eastern Standard Time),606920.399999857,CFD-WF-017-016-HC.jpg,1700,dash,I,z,721,1,3,2449.899999856949,604470.5,9021,ATS,A,1
2,test,4,C,mfborder.png,1,z,Tue Dec 02 2025 11:43:19 GMT-0500 (Eastern Standard Time),609403.7999999523,CFD-WF-017-016-HC.jpg,1700,dash,I,z,751,1,3,4933.299999952316,604470.5,9021,ATS,A,2
3,test,4,C,mfborder.png,1,m,Tue Dec 02 2025 11:43:19 GMT-0500 (Eastern Standard Time),612437.0,CFD-BM-005-010-A.jpg,2000,dash,I,m,1007,5,3,7966.5,604470.5,9021,ATS,A,3
4,test,4,C,mfborder.png,1,m,Tue Dec 02 2025 11:43:19 GMT-0500 (Eastern Standard Time),614270.0999999046,CFD-BM-017-052-HC.jpg,1000,dash,I,m,814,4,3,9799.599999904633,604470.5,9021,ATS,A,4
5,test,4,C,haborder.png,1,z,Tue Dec 02 2025 11:43:19 GMT-0500 (Eastern Standard Time),617353.5999999046,CFD-BF-039-039-A.jpg,1900,solid,I,z,1152,8,3,12883.099999904633,604470.5,9021,ATS,A,5
6,test,4,C,mfborder.png,1,m,Tue Dec 02 2025 11:43:19 GMT-0500 (Eastern Standard Time),620336.899999857,CFD-BM-005-010-A.jpg,2000,dash,I,m,961,5,3,15866.399999856949,604470.5,9021,ATS,A,6
7,test,4,C,mfborder.png,1,z,Tue Dec 02 2025 11:43:19 GMT-0500 (Eastern Standard Time),622736.899999857,CFD-WF-019-015-A.jpg,1600,dash,I,z,778,2,3,18266.39999985695,604470.5,9021,ATS,A,7
8,test,4,C,mfborder.png,1,z,Tue Dec 02 2025 11:43:19 GMT-0500 (Eastern Standard Time),625070.0999999046,CFD-WF-019-015-A.jpg,1600,dash,I,z,697,2,3,20599.599999904633,604470.5,9021,ATS,A,8
9,test,4,C,haborder.png,1,m,Tue Dec 02 2025 11:43:19 GMT-0500 (Eastern Standard Time),626970.2999999523,CFD-WM-004-005-HC.jpg,1000,solid,I,m,869,12,3,22499.799999952316,604470.5,9021,ATS,A,9
10,test,4,C,haborder.png,1,z,Tue Dec 02 2025 11:43:19 GMT-0500 (Eastern Standard Time),629870.0999999046,CFD-WF-003-014-A.jpg,1700,solid,I,z,1182,9,3,25399.599999904633,604470.5,9021,ATS,A,10
11,test,4,C,haborder.png,1,z,Tue Dec 02 2025 11:43:19 GMT-0500 (Eastern Standard Time),632553.7000000477,CFD-BF-023-013-A.jpg,1400,solid,I,z,1236,7,3,28083.200000047684,604470.5,9021,ATS,A,11
12,test,4,C,haborder.png,1,m,Tue Dec 02 2025 11:43:19 GMT-0500 (Eastern Standard Time),635070.0999999046,CFD-BM-029-026-HC.jpg,1600,solid,I,m,897,10,3,30599.599999904633,604470.5,9021,ATS,A,12
13,test,4,C,mfborder.png,1,m,Tue Dec 02 2025 11:43:19 GMT-0500 (Eastern Standard Time),637436.899999857,CFD-WM-013-015-A.jpg,1200,dash,I,m,1149,6,3,32966.39999985695,604470.5,9021,ATS,A,13
14,test,4,C,haborder.png,1,z,Tue Dec 02 2025 11:43:19 GMT-0500 (Eastern Standard Time),640587.0,CFD-WF-003-014-A.jpg,1700,solid,I,z,1418,9,3,36116.5,604470.5,9021,ATS,A,14
15,test,4,C,mfborder.png,1,z,Tue Dec 02 2025 11:43:19 GMT-0500 (Eastern Standard Time),643103.5999999046,CFD-BF-028-020-HC.jpg,1500,dash,I,z,996,3,3,38633.09999990463,604470.5,9021,ATS,A,15
16,test,4,C,haborder.png,1,m,Tue Dec 02 2025 11:43:19 GMT-0500 (Eastern Standard Time),645436.899999857,CFD-WM-004-005-HC.jpg,1500,solid,I,m,782,11,3,40966.39999985695,604470.5,9021,ATS,A,16
17,test,4,C,haborder.png,1,z,Tue Dec 02 2025 11:43:19 GMT-0500 (Eastern Standard Time),647986.7999999523,CFD-BF-023-013-A.jpg,1400,solid,I,z,1126,7,3,43516.299999952316,604470.5,9021,ATS,A,17
18,test,4,C,haborder.png,1,m,Tue Dec 02 2025 11:43:19 GMT-0500 (Eastern Standard Time),650487.0,CFD-BM-029-026-HC.jpg,1600,solid,I,m,855,10,3,46016.5,604470.5,9021,ATS,A,18
19,test,4,C,haborder.png,1,z,Tue Dec 02 2025 11:43:19 GMT-0500 (Eastern Standard Time),653253.5999999046,CFD-BF-039-039-A.jpg,1900,solid,I,z,841,8,3,48783.09999990463,604470.5,9021,ATS,A,19
20,test,4,C,mfborder.png,1,m,Tue Dec 02 2025 11:43:19 GMT-0500 (Eastern Standard Time),655386.899999857,CFD-BM-017-052-HC.jpg,1000,dash,I,m,1084,4,3,50916.39999985695,604470.5,9021,ATS,A,20
21,test,4,C,haborder.png,1,m,Tue Dec 02 2025 11:43:19 GMT-0500 (Eastern Standard Time),657737.0,CFD-WM-004-005-HC.jpg,1500,solid,I,m,820,11,3,53266.5,604470.5,9021,ATS,A,21
22,test,4,C,mfborder.png,1,z,Tue Dec 02 2025 11:43:19 GMT-0500 (Eastern Standard Time),660654.2999999523,CFD-BF-028-020-HC.jpg,1500,dash,I,z,1381,3,3,56183.799999952316,604470.5,9021,ATS,A,22
23,test,4,C,mfborder.png,1,m,Tue Dec 02 2025 11:43:19 GMT-0500 (Eastern Standard Time),662903.7000000477,CFD-WM-013-015-A.jpg,1200,dash,I,m,1021,6,3,58433.200000047684,604470.5,9021,ATS,A,23
24,test,4,C,haborder.png,1,m,Tue Dec 02 2025 11:43:19 GMT-0500 (Eastern Standard Time),664753.7000000477,CFD-WM-004-005-HC.jpg,1000,solid,I,m,827,12,3,60283.200000047684,604470.5,9021,ATS,A,24
