acc_sum,block,block_c,change,condition,correct,correct_response,datetime,endtime,face,project,response,response_time,row_sel,session_number,start_end,starttime,subject_id,task,task_vers,trial
0,prac,1,,1-Back,,,Wed Jun 03 2026 16:45:19 GMT-0500 (Central Daylight Time),,050_m_f_n_a.png,I,space,3551,1,3,,,8084,NNB,A,0
1,prac,1,0.0,1-Back,1.0,m,Wed Jun 03 2026 16:45:19 GMT-0500 (Central Daylight Time),112365.60000002384,063_y_f_n_a.png,I,m,729,2,3,1541.6000000238419,110824.0,8084,NNB,A,1
1,prac,1,1.0,1-Back,0.0,z,Wed Jun 03 2026 16:45:19 GMT-0500 (Central Daylight Time),114214.80000007153,063_y_f_n_a.png,I,m,1071,3,3,1844.5,112370.30000007153,8084,NNB,A,2
2,prac,1,0.0,1-Back,1.0,m,Wed Jun 03 2026 16:45:19 GMT-0500 (Central Daylight Time),116031.20000004768,053_o_m_n_a.png,I,m,1001,4,3,1809.0,114222.20000004768,8084,NNB,A,3
3,prac,1,0.0,1-Back,1.0,m,Wed Jun 03 2026 16:45:19 GMT-0500 (Central Daylight Time),117647.20000004768,058_m_m_n_a.png,I,m,804,5,3,1612.1000000238419,116035.10000002384,8084,NNB,A,4
4,prac,1,1.0,1-Back,1.0,z,Wed Jun 03 2026 16:45:19 GMT-0500 (Central Daylight Time),119146.70000004768,058_m_m_n_a.png,I,z,714,6,3,1492.3000000715256,117654.39999997616,8084,NNB,A,5
5,prac,1,0.0,1-Back,1.0,m,Wed Jun 03 2026 16:45:19 GMT-0500 (Central Daylight Time),120646.30000007153,047_o_f_n_a.png,I,m,715,7,3,1495.2000000476837,119151.10000002384,8084,NNB,A,6
6,prac,1,0.0,1-Back,1.0,m,Wed Jun 03 2026 16:45:19 GMT-0500 (Central Daylight Time),122129.20000004768,045_m_m_n_a.png,I,m,699,8,3,1476.0,120653.20000004768,8084,NNB,A,7
7,prac,1,0.0,1-Back,1.0,m,Wed Jun 03 2026 16:45:19 GMT-0500 (Central Daylight Time),123762.20000004768,050_m_f_n_a.png,I,m,851,9,3,1628.8000000715256,122133.39999997616,8084,NNB,A,8
8,prac,1,1.0,1-Back,1.0,z,Wed Jun 03 2026 16:45:19 GMT-0500 (Central Daylight Time),125071.0,050_m_f_n_a.png,I,z,537,10,3,1302.1999999284744,123768.80000007153,8084,NNB,A,9
9,prac,1,0.0,1-Back,1.0,m,Wed Jun 03 2026 16:45:19 GMT-0500 (Central Daylight Time),126544.39999997616,053_o_m_n_a.png,I,m,686,11,3,1469.0,125075.39999997616,8084,NNB,A,10
10,prac,1,0.0,1-Back,1.0,m,Wed Jun 03 2026 16:45:19 GMT-0500 (Central Daylight Time),128310.60000002384,010_y_f_n_a.png,I,m,933,12,3,1758.7999999523163,126551.80000007153,8084,NNB,A,11
0,test,1,0.0,1-Back,,,Wed Jun 03 2026 16:45:19 GMT-0500 (Central Daylight Time),128310.60000002384,063_y_f_n_a.png,I,space,2249,1,3,1758.7999999523163,126551.80000007153,8084,NNB,A,0
1,test,1,0.0,1-Back,1.0,m,Wed Jun 03 2026 16:45:19 GMT-0500 (Central Daylight Time),140490.0,043_m_f_n_a.png,I,m,600,2,3,1627.3999999761581,138862.60000002384,8084,NNB,A,1
2,test,1,0.0,1-Back,1.0,m,Wed Jun 03 2026 16:45:19 GMT-0500 (Central Daylight Time),142072.89999997616,010_y_f_n_a.png,I,m,550,3,3,1580.0,140492.89999997616,8084,NNB,A,2
3,test,1,1.0,1-Back,1.0,z,Wed Jun 03 2026 16:45:19 GMT-0500 (Central Daylight Time),143705.89999997616,010_y_f_n_a.png,I,z,609,4,3,1630.5999999046326,142075.30000007153,8084,NNB,A,3
4,test,1,0.0,1-Back,1.0,m,Wed Jun 03 2026 16:45:19 GMT-0500 (Central Daylight Time),145322.10000002384,043_m_f_n_a.png,I,m,592,5,3,1613.5,143708.60000002384,8084,NNB,A,4
5,test,1,0.0,1-Back,1.0,m,Wed Jun 03 2026 16:45:19 GMT-0500 (Central Daylight Time),146904.80000007153,053_o_m_n_a.png,I,m,551,6,3,1580.2000000476837,145324.60000002384,8084,NNB,A,5
6,test,1,1.0,1-Back,1.0,z,Wed Jun 03 2026 16:45:19 GMT-0500 (Central Daylight Time),148815.80000007153,053_o_m_n_a.png,I,z,748,7,3,1908.3000000715256,146907.5,8084,NNB,A,6
7,test,1,0.0,1-Back,1.0,m,Wed Jun 03 2026 16:45:19 GMT-0500 (Central Daylight Time),150336.70000004768,058_m_m_n_a.png,I,m,491,8,3,1515.8999999761581,148820.80000007153,8084,NNB,A,7
8,test,1,0.0,1-Back,1.0,m,Wed Jun 03 2026 16:45:19 GMT-0500 (Central Daylight Time),151919.70000004768,047_o_f_n_a.png,I,m,561,9,3,1580.0,150339.70000004768,8084,NNB,A,8
9,test,1,0.0,1-Back,1.0,m,Wed Jun 03 2026 16:45:19 GMT-0500 (Central Daylight Time),153752.30000007153,058_m_m_n_a.png,I,m,809,10,3,1830.0,151922.30000007153,8084,NNB,A,9
10,test,1,0.0,1-Back,1.0,m,Wed Jun 03 2026 16:45:19 GMT-0500 (Central Daylight Time),155468.5,041_y_m_n_a.png,I,m,697,11,3,1713.5,153755.0,8084,NNB,A,10
11,test,1,1.0,1-Back,1.0,z,Wed Jun 03 2026 16:45:19 GMT-0500 (Central Daylight Time),157168.30000007153,041_y_m_n_a.png,I,z,677,12,3,1697.3000000715256,155471.0,8084,NNB,A,11
12,test,1,0.0,1-Back,1.0,m,Wed Jun 03 2026 16:45:19 GMT-0500 (Central Daylight Time),158767.60000002384,044_o_f_n_a.png,I,m,568,13,3,1596.5,157171.10000002384,8084,NNB,A,12
13,test,1,1.0,1-Back,1.0,z,Wed Jun 03 2026 16:45:19 GMT-0500 (Central Daylight Time),160500.20000004768,044_o_f_n_a.png,I,z,706,14,3,1730.0,158770.20000004768,8084,NNB,A,13
14,test,1,0.0,1-Back,1.0,m,Wed Jun 03 2026 16:45:19 GMT-0500 (Central Daylight Time),162199.80000007153,008_y_m_n_a.png,I,m,668,15,3,1696.8000000715256,160503.0,8084,NNB,A,14
15,test,1,0.0,1-Back,1.0,m,Wed Jun 03 2026 16:45:19 GMT-0500 (Central Daylight Time),163916.10000002384,050_m_f_n_a.png,I,m,689,16,3,1713.5,162202.60000002384,8084,NNB,A,15
16,test,1,0.0,1-Back,1.0,m,Wed Jun 03 2026 16:45:19 GMT-0500 (Central Daylight Time),165565.70000004768,046_o_m_n_a.png,I,m,629,17,3,1646.8000000715256,163918.89999997616,8084,NNB,A,16
17,test,1,0.0,1-Back,1.0,m,Wed Jun 03 2026 16:45:19 GMT-0500 (Central Daylight Time),167281.70000004768,050_m_f_n_a.png,I,m,692,18,3,1713.3999999761581,165568.30000007153,8084,NNB,A,17
0,test,2,0.0,1-Back,,,Wed Jun 03 2026 16:45:19 GMT-0500 (Central Daylight Time),167281.70000004768,058_m_m_n_a.png,I,space,1792,1,3,1713.3999999761581,165568.30000007153,8084,NNB,A,0
1,test,2,0.0,1-Back,1.0,m,Wed Jun 03 2026 16:45:19 GMT-0500 (Central Daylight Time),172680.0,043_m_f_n_a.png,I,m,552,2,3,1578.0,171102.0,8084,NNB,A,1
2,test,2,1.0,1-Back,1.0,z,Wed Jun 03 2026 16:45:19 GMT-0500 (Central Daylight Time),174146.10000002384,043_m_f_n_a.png,I,z,434,3,3,1463.6000000238419,172682.5,8084,NNB,A,2
3,test,2,0.0,1-Back,1.0,m,Wed Jun 03 2026 16:45:19 GMT-0500 (Central Daylight Time),175828.70000004768,058_m_m_n_a.png,I,m,663,4,3,1680.0,174148.70000004768,8084,NNB,A,3
4,test,2,0.0,1-Back,1.0,m,Wed Jun 03 2026 16:45:19 GMT-0500 (Central Daylight Time),177711.80000007153,041_y_m_n_a.png,I,m,852,5,3,1880.2000000476837,175831.60000002384,8084,NNB,A,4
5,test,2,0.0,1-Back,1.0,m,Wed Jun 03 2026 16:45:19 GMT-0500 (Central Daylight Time),179277.70000004768,063_y_f_n_a.png,I,m,546,6,3,1563.3000000715256,177714.39999997616,8084,NNB,A,5
6,test,2,1.0,1-Back,1.0,z,Wed Jun 03 2026 16:45:19 GMT-0500 (Central Daylight Time),180727.39999997616,063_y_f_n_a.png,I,z,420,7,3,1447.1999999284744,179280.20000004768,8084,NNB,A,6
7,test,2,0.0,1-Back,1.0,m,Wed Jun 03 2026 16:45:19 GMT-0500 (Central Daylight Time),182293.80000007153,041_y_m_n_a.png,I,m,538,8,3,1563.8000000715256,180730.0,8084,NNB,A,7
8,test,2,0.0,1-Back,1.0,m,Wed Jun 03 2026 16:45:19 GMT-0500 (Central Daylight Time),183893.10000002384,044_o_f_n_a.png,I,m,572,9,3,1596.5,182296.60000002384,8084,NNB,A,8
9,test,2,0.0,1-Back,1.0,m,Wed Jun 03 2026 16:45:19 GMT-0500 (Central Daylight Time),185460.20000004768,045_m_m_n_a.png,I,m,540,10,3,1564.5,183895.70000004768,8084,NNB,A,9
10,test,2,1.0,1-Back,1.0,z,Wed Jun 03 2026 16:45:19 GMT-0500 (Central Daylight Time),186875.30000007153,045_m_m_n_a.png,I,z,397,11,3,1412.1000000238419,185463.20000004768,8084,NNB,A,10
11,test,2,0.0,1-Back,1.0,m,Wed Jun 03 2026 16:45:19 GMT-0500 (Central Daylight Time),188458.5,044_o_f_n_a.png,I,m,550,12,3,1580.6999999284744,186877.80000007153,8084,NNB,A,11
12,test,2,0.0,1-Back,1.0,m,Wed Jun 03 2026 16:45:19 GMT-0500 (Central Daylight Time),190025.70000004768,047_o_f_n_a.png,I,m,534,13,3,1564.6000000238419,188461.10000002384,8084,NNB,A,12
13,test,2,0.0,1-Back,1.0,m,Wed Jun 03 2026 16:45:19 GMT-0500 (Central Daylight Time),191673.89999997616,053_o_m_n_a.png,I,m,633,14,3,1645.2999999523163,190028.60000002384,8084,NNB,A,13
14,test,2,0.0,1-Back,1.0,m,Wed Jun 03 2026 16:45:19 GMT-0500 (Central Daylight Time),193406.60000002384,046_o_m_n_a.png,I,m,711,15,3,1730.2000000476837,191676.39999997616,8084,NNB,A,14
15,test,2,1.0,1-Back,1.0,z,Wed Jun 03 2026 16:45:19 GMT-0500 (Central Daylight Time),194889.80000007153,046_o_m_n_a.png,I,z,450,16,3,1480.4000000953674,193409.39999997616,8084,NNB,A,15
16,test,2,0.0,1-Back,1.0,m,Wed Jun 03 2026 16:45:19 GMT-0500 (Central Daylight Time),196722.39999997616,008_y_m_n_a.png,I,m,732,17,3,1829.5999999046326,194892.80000007153,8084,NNB,A,16
17,test,2,1.0,1-Back,1.0,z,Wed Jun 03 2026 16:45:19 GMT-0500 (Central Daylight Time),198455.5,008_y_m_n_a.png,I,z,702,18,3,1730.5,196725.0,8084,NNB,A,17
0,test,3,1.0,1-Back,,,Wed Jun 03 2026 16:45:19 GMT-0500 (Central Daylight Time),198455.5,010_y_f_n_a.png,I,space,1353,1,3,1730.5,196725.0,8084,NNB,A,0
1,test,3,0.0,1-Back,1.0,m,Wed Jun 03 2026 16:45:19 GMT-0500 (Central Daylight Time),203503.5,046_o_m_n_a.png,I,m,594,2,3,1610.6999999284744,201892.80000007153,8084,NNB,A,1
2,test,3,1.0,1-Back,1.0,z,Wed Jun 03 2026 16:45:19 GMT-0500 (Central Daylight Time),205169.89999997616,046_o_m_n_a.png,I,z,634,3,3,1663.2999999523163,203506.60000002384,8084,NNB,A,2
3,test,3,0.0,1-Back,1.0,m,Wed Jun 03 2026 16:45:19 GMT-0500 (Central Daylight Time),206802.30000007153,050_m_f_n_a.png,I,m,614,4,3,1629.8000000715256,205172.5,8084,NNB,A,3
4,test,3,1.0,1-Back,1.0,z,Wed Jun 03 2026 16:45:19 GMT-0500 (Central Daylight Time),208485.5,050_m_f_n_a.png,I,z,663,5,3,1677.8999999761581,206807.60000002384,8084,NNB,A,4
5,test,3,0.0,1-Back,1.0,m,Wed Jun 03 2026 16:45:19 GMT-0500 (Central Daylight Time),210068.30000007153,044_o_f_n_a.png,I,m,564,6,3,1580.0,208488.30000007153,8084,NNB,A,5
6,test,3,0.0,1-Back,1.0,m,Wed Jun 03 2026 16:45:19 GMT-0500 (Central Daylight Time),211751.10000002384,041_y_m_n_a.png,I,m,661,7,3,1680.2000000476837,210070.89999997616,8084,NNB,A,6
7,test,3,0.0,1-Back,1.0,m,Wed Jun 03 2026 16:45:19 GMT-0500 (Central Daylight Time),213450.39999997616,044_o_f_n_a.png,I,m,673,8,3,1695.0999999046326,211755.30000007153,8084,NNB,A,7
8,test,3,0.0,1-Back,1.0,m,Wed Jun 03 2026 16:45:19 GMT-0500 (Central Daylight Time),215099.60000002384,008_y_m_n_a.png,I,m,630,9,3,1645.6000000238419,213454.0,8084,NNB,A,8
9,test,3,1.0,1-Back,1.0,z,Wed Jun 03 2026 16:45:19 GMT-0500 (Central Daylight Time),216515.89999997616,008_y_m_n_a.png,I,z,397,10,3,1413.5,215102.39999997616,8084,NNB,A,9
10,test,3,0.0,1-Back,1.0,m,Wed Jun 03 2026 16:45:19 GMT-0500 (Central Daylight Time),218082.10000002384,043_m_f_n_a.png,I,m,548,11,3,1562.6000000238419,216519.5,8084,NNB,A,10
11,test,3,0.0,1-Back,1.0,m,Wed Jun 03 2026 16:45:19 GMT-0500 (Central Daylight Time),219981.80000007153,063_y_f_n_a.png,I,m,871,12,3,1896.5,218085.30000007153,8084,NNB,A,11
12,test,3,1.0,1-Back,1.0,z,Wed Jun 03 2026 16:45:19 GMT-0500 (Central Daylight Time),221731.10000002384,063_y_f_n_a.png,I,z,723,13,3,1746.2999999523163,219984.80000007153,8084,NNB,A,12
13,test,3,0.0,1-Back,1.0,m,Wed Jun 03 2026 16:45:19 GMT-0500 (Central Daylight Time),223264.20000004768,043_m_f_n_a.png,I,m,510,14,3,1528.5,221735.70000004768,8084,NNB,A,13
14,test,3,0.0,1-Back,1.0,m,Wed Jun 03 2026 16:45:19 GMT-0500 (Central Daylight Time),224930.20000004768,058_m_m_n_a.png,I,m,642,15,3,1663.0,223267.20000004768,8084,NNB,A,14
15,test,3,1.0,1-Back,1.0,z,Wed Jun 03 2026 16:45:19 GMT-0500 (Central Daylight Time),226429.80000007153,058_m_m_n_a.png,I,z,479,16,3,1497.0,224932.80000007153,8084,NNB,A,15
16,test,3,0.0,1-Back,1.0,m,Wed Jun 03 2026 16:45:19 GMT-0500 (Central Daylight Time),227979.39999997616,047_o_f_n_a.png,I,m,524,17,3,1545.0999999046326,226434.30000007153,8084,NNB,A,16
17,test,3,1.0,1-Back,1.0,z,Wed Jun 03 2026 16:45:19 GMT-0500 (Central Daylight Time),229662.10000002384,047_o_f_n_a.png,I,z,662,18,3,1680.0,227982.10000002384,8084,NNB,A,17
0,test,4,1.0,1-Back,,,Wed Jun 03 2026 16:45:19 GMT-0500 (Central Daylight Time),229662.10000002384,050_m_f_n_a.png,I,space,1059,1,3,1680.0,227982.10000002384,8084,NNB,A,0
1,test,4,0.0,1-Back,1.0,m,Wed Jun 03 2026 16:45:19 GMT-0500 (Central Daylight Time),234345.20000004768,046_o_m_n_a.png,I,m,577,2,3,1595.3999999761581,232749.80000007153,8084,NNB,A,1
2,test,4,0.0,1-Back,1.0,m,Wed Jun 03 2026 16:45:19 GMT-0500 (Central Daylight Time),235993.70000004768,050_m_f_n_a.png,I,m,616,3,3,1645.8999999761581,234347.80000007153,8084,NNB,A,2
3,test,4,0.0,1-Back,1.0,m,Wed Jun 03 2026 16:45:19 GMT-0500 (Central Daylight Time),237642.80000007153,044_o_f_n_a.png,I,m,624,4,3,1646.4000000953674,235996.39999997616,8084,NNB,A,3
4,test,4,1.0,1-Back,1.0,z,Wed Jun 03 2026 16:45:19 GMT-0500 (Central Daylight Time),239109.20000004768,044_o_f_n_a.png,I,z,439,5,3,1463.7000000476837,237645.5,8084,NNB,A,4
5,test,4,0.0,1-Back,1.0,m,Wed Jun 03 2026 16:45:19 GMT-0500 (Central Daylight Time),240675.30000007153,063_y_f_n_a.png,I,m,539,6,3,1563.3000000715256,239112.0,8084,NNB,A,5
6,test,4,0.0,1-Back,1.0,m,Wed Jun 03 2026 16:45:19 GMT-0500 (Central Daylight Time),242274.70000004768,041_y_m_n_a.png,I,m,582,7,3,1597.0,240677.70000004768,8084,NNB,A,6
7,test,4,1.0,1-Back,1.0,z,Wed Jun 03 2026 16:45:19 GMT-0500 (Central Daylight Time),243874.20000004768,041_y_m_n_a.png,I,z,575,8,3,1596.8000000715256,242277.39999997616,8084,NNB,A,7
8,test,4,0.0,1-Back,1.0,m,Wed Jun 03 2026 16:45:19 GMT-0500 (Central Daylight Time),245373.89999997616,063_y_f_n_a.png,I,m,471,9,3,1497.0,243876.89999997616,8084,NNB,A,8
9,test,4,0.0,1-Back,1.0,m,Wed Jun 03 2026 16:45:19 GMT-0500 (Central Daylight Time),247023.30000007153,045_m_m_n_a.png,I,m,627,10,3,1646.9000000953674,245376.39999997616,8084,NNB,A,9
10,test,4,1.0,1-Back,1.0,z,Wed Jun 03 2026 16:45:19 GMT-0500 (Central Daylight Time),248739.20000004768,045_m_m_n_a.png,I,z,698,11,3,1713.2000000476837,247026.0,8084,NNB,A,10
11,test,4,0.0,1-Back,1.0,m,Wed Jun 03 2026 16:45:19 GMT-0500 (Central Daylight Time),250288.89999997616,047_o_f_n_a.png,I,m,526,12,3,1546.8999999761581,248742.0,8084,NNB,A,11
12,test,4,0.0,1-Back,1.0,m,Wed Jun 03 2026 16:45:19 GMT-0500 (Central Daylight Time),251838.5,053_o_m_n_a.png,I,m,520,13,3,1546.8999999761581,250291.60000002384,8084,NNB,A,12
13,test,4,0.0,1-Back,1.0,m,Wed Jun 03 2026 16:45:19 GMT-0500 (Central Daylight Time),253521.20000004768,047_o_f_n_a.png,I,m,650,14,3,1679.3000000715256,251841.89999997616,8084,NNB,A,13
14,test,4,0.0,1-Back,1.0,m,Wed Jun 03 2026 16:45:19 GMT-0500 (Central Daylight Time),255254.0,010_y_f_n_a.png,I,m,704,15,3,1730.1999999284744,253523.80000007153,8084,NNB,A,14
15,test,4,1.0,1-Back,1.0,z,Wed Jun 03 2026 16:45:19 GMT-0500 (Central Daylight Time),256886.70000004768,010_y_f_n_a.png,I,z,611,16,3,1630.2000000476837,255256.5,8084,NNB,A,15
16,test,4,0.0,1-Back,1.0,m,Wed Jun 03 2026 16:45:19 GMT-0500 (Central Daylight Time),258436.5,043_m_f_n_a.png,I,m,529,17,3,1547.3999999761581,256889.10000002384,8084,NNB,A,16
17,test,4,1.0,1-Back,1.0,z,Wed Jun 03 2026 16:45:19 GMT-0500 (Central Daylight Time),260002.39999997616,043_m_f_n_a.png,I,z,540,18,3,1563.3999999761581,258439.0,8084,NNB,A,17
0,test,5,1.0,1-Back,,,Wed Jun 03 2026 16:45:19 GMT-0500 (Central Daylight Time),260002.39999997616,053_o_m_n_a.png,I,space,1031,1,3,1563.3999999761581,258439.0,8084,NNB,A,0
1,test,5,1.0,1-Back,1.0,z,Wed Jun 03 2026 16:45:19 GMT-0500 (Central Daylight Time),264834.2000000477,053_o_m_n_a.png,I,z,758,2,3,1779.3000000715256,263054.89999997616,8084,NNB,A,1
2,test,5,0.0,1-Back,1.0,m,Wed Jun 03 2026 16:45:19 GMT-0500 (Central Daylight Time),266350.60000002384,063_y_f_n_a.png,I,m,487,3,3,1513.3999999761581,264837.2000000477,8084,NNB,A,2
3,test,5,0.0,1-Back,1.0,m,Wed Jun 03 2026 16:45:19 GMT-0500 (Central Daylight Time),267866.5,041_y_m_n_a.png,I,m,499,4,3,1513.5,266353.0,8084,NNB,A,3
4,test,5,0.0,1-Back,1.0,m,Wed Jun 03 2026 16:45:19 GMT-0500 (Central Daylight Time),269499.5,063_y_f_n_a.png,I,m,604,5,3,1630.5,267869.0,8084,NNB,A,4
5,test,5,0.0,1-Back,1.0,m,Wed Jun 03 2026 16:45:19 GMT-0500 (Central Daylight Time),271282.39999997616,058_m_m_n_a.png,I,m,758,6,3,1780.3999999761581,269502.0,8084,NNB,A,5
6,test,5,1.0,1-Back,1.0,z,Wed Jun 03 2026 16:45:19 GMT-0500 (Central Daylight Time),272983.0,058_m_m_n_a.png,I,z,671,7,3,1697.7999999523163,271285.2000000477,8084,NNB,A,6
7,test,5,0.0,1-Back,1.0,m,Wed Jun 03 2026 16:45:19 GMT-0500 (Central Daylight Time),274614.7000000477,010_y_f_n_a.png,I,m,611,8,3,1629.0,272985.7000000477,8084,NNB,A,7
8,test,5,0.0,1-Back,1.0,m,Wed Jun 03 2026 16:45:19 GMT-0500 (Central Daylight Time),276164.2000000477,008_y_m_n_a.png,I,m,531,9,3,1546.2000000476837,274618.0,8084,NNB,A,8
9,test,5,0.0,1-Back,1.0,m,Wed Jun 03 2026 16:45:19 GMT-0500 (Central Daylight Time),277697.3000000715,010_y_f_n_a.png,I,m,500,10,3,1530.3000000715256,276167.0,8084,NNB,A,9
10,test,5,0.0,1-Back,1.0,m,Wed Jun 03 2026 16:45:19 GMT-0500 (Central Daylight Time),279263.2000000477,047_o_f_n_a.png,I,m,544,11,3,1563.2000000476837,277700.0,8084,NNB,A,10
11,test,5,1.0,1-Back,1.0,z,Wed Jun 03 2026 16:45:19 GMT-0500 (Central Daylight Time),280696.3000000715,047_o_f_n_a.png,I,z,401,12,3,1430.5,279265.8000000715,8084,NNB,A,11
12,test,5,0.0,1-Back,1.0,m,Wed Jun 03 2026 16:45:19 GMT-0500 (Central Daylight Time),282245.60000002384,046_o_m_n_a.png,I,m,529,13,3,1546.8999999761581,280698.7000000477,8084,NNB,A,12
13,test,5,0.0,1-Back,1.0,m,Wed Jun 03 2026 16:45:19 GMT-0500 (Central Daylight Time),284028.5,050_m_f_n_a.png,I,m,763,14,3,1780.1000000238419,282248.39999997616,8084,NNB,A,13
14,test,5,1.0,1-Back,1.0,z,Wed Jun 03 2026 16:45:19 GMT-0500 (Central Daylight Time),285661.39999997616,050_m_f_n_a.png,I,z,613,15,3,1630.0999999046326,284031.3000000715,8084,NNB,A,14
15,test,5,0.0,1-Back,1.0,m,Wed Jun 03 2026 16:45:19 GMT-0500 (Central Daylight Time),287177.5,046_o_m_n_a.png,I,m,483,16,3,1513.6999999284744,285663.8000000715,8084,NNB,A,15
16,test,5,0.0,1-Back,1.0,m,Wed Jun 03 2026 16:45:19 GMT-0500 (Central Daylight Time),288809.8000000715,043_m_f_n_a.png,I,m,615,17,3,1629.8000000715256,287180.0,8084,NNB,A,16
17,test,5,0.0,1-Back,1.0,m,Wed Jun 03 2026 16:45:19 GMT-0500 (Central Daylight Time),290362.5,045_m_m_n_a.png,I,m,518,18,3,1550.1999999284744,288812.3000000715,8084,NNB,A,17
0,prac,1,0.0,2-Back,,,Wed Jun 03 2026 16:45:19 GMT-0500 (Central Daylight Time),290362.5,008_y_m_n_a.png,I,space,6804,1,3,1550.1999999284744,288812.3000000715,8084,NNB,A,0
0,prac,1,0.0,2-Back,,,Wed Jun 03 2026 16:45:19 GMT-0500 (Central Daylight Time),290362.5,043_m_f_n_a.png,I,space,6804,2,3,1550.1999999284744,288812.3000000715,8084,NNB,A,0
1,prac,1,1.0,2-Back,1.0,m,Wed Jun 03 2026 16:45:19 GMT-0500 (Central Daylight Time),390528.3000000715,046_o_m_n_a.png,I,m,872,3,3,1662.2000000476837,388866.10000002384,8084,NNB,A,1
2,prac,1,0.0,2-Back,1.0,m,Wed Jun 03 2026 16:45:19 GMT-0500 (Central Daylight Time),392461.3000000715,047_o_f_n_a.png,I,m,1098,4,3,1925.8000000715256,390535.5,8084,NNB,A,2
3,prac,1,0.0,2-Back,1.0,z,Wed Jun 03 2026 16:45:19 GMT-0500 (Central Daylight Time),394010.7000000477,046_o_m_n_a.png,I,z,768,5,3,1545.3000000715256,392465.39999997616,8084,NNB,A,3
4,prac,1,1.0,2-Back,1.0,z,Wed Jun 03 2026 16:45:19 GMT-0500 (Central Daylight Time),395978.0,047_o_f_n_a.png,I,z,1202,6,3,1963.3999999761581,394014.60000002384,8084,NNB,A,4
5,prac,1,0.0,2-Back,1.0,m,Wed Jun 03 2026 16:45:19 GMT-0500 (Central Daylight Time),397909.39999997616,045_m_m_n_a.png,I,m,1132,7,3,1927.5999999046326,395981.8000000715,8084,NNB,A,5
5,prac,1,0.0,2-Back,0.0,m,Wed Jun 03 2026 16:45:19 GMT-0500 (Central Daylight Time),400441.89999997616,053_o_m_n_a.png,I,z,1736,8,3,2528.5999999046326,397913.3000000715,8084,NNB,A,6
6,prac,1,0.0,2-Back,1.0,m,Wed Jun 03 2026 16:45:19 GMT-0500 (Central Daylight Time),402208.2000000477,010_y_f_n_a.png,I,m,936,9,3,1762.3999999761581,400445.8000000715,8084,NNB,A,7
7,prac,1,1.0,2-Back,1.0,z,Wed Jun 03 2026 16:45:19 GMT-0500 (Central Daylight Time),403841.0,053_o_m_n_a.png,I,z,862,10,3,1629.1999999284744,402211.8000000715,8084,NNB,A,8
8,prac,1,0.0,2-Back,1.0,m,Wed Jun 03 2026 16:45:19 GMT-0500 (Central Daylight Time),405523.8000000715,063_y_f_n_a.png,I,m,869,11,3,1679.4000000953674,403844.39999997616,8084,NNB,A,9
9,prac,1,0.0,2-Back,1.0,m,Wed Jun 03 2026 16:45:19 GMT-0500 (Central Daylight Time),407289.89999997616,045_m_m_n_a.png,I,m,985,12,3,1762.6999999284744,405527.2000000477,8084,NNB,A,10
0,test,1,0.0,2-Back,,,Wed Jun 03 2026 16:45:19 GMT-0500 (Central Daylight Time),407289.89999997616,041_y_m_n_a.png,I,space,3577,1,3,1762.6999999284744,405527.2000000477,8084,NNB,A,0
0,test,1,0.0,2-Back,,,Wed Jun 03 2026 16:45:19 GMT-0500 (Central Daylight Time),407289.89999997616,041_y_m_n_a.png,I,space,3577,2,3,1762.6999999284744,405527.2000000477,8084,NNB,A,0
1,test,1,0.0,2-Back,1.0,m,Wed Jun 03 2026 16:45:19 GMT-0500 (Central Daylight Time),423051.7000000477,047_o_f_n_a.png,I,m,831,3,3,1847.1000000238419,421204.60000002384,8084,NNB,A,1
2,test,1,0.0,2-Back,1.0,m,Wed Jun 03 2026 16:45:19 GMT-0500 (Central Daylight Time),425034.3000000715,058_m_m_n_a.png,I,m,958,4,3,1980.0,423054.3000000715,8084,NNB,A,2
3,test,1,1.0,2-Back,1.0,z,Wed Jun 03 2026 16:45:19 GMT-0500 (Central Daylight Time),426833.60000002384,047_o_f_n_a.png,I,z,775,5,3,1796.5,425037.10000002384,8084,NNB,A,3
4,test,1,0.0,2-Back,1.0,m,Wed Jun 03 2026 16:45:19 GMT-0500 (Central Daylight Time),428500.0,063_y_f_n_a.png,I,m,646,6,3,1664.0,426836.0,8084,NNB,A,4
5,test,1,0.0,2-Back,1.0,m,Wed Jun 03 2026 16:45:19 GMT-0500 (Central Daylight Time),430565.8000000715,058_m_m_n_a.png,I,m,1046,7,3,2063.5,428502.3000000715,8084,NNB,A,5
5,test,1,1.0,2-Back,0.0,z,Wed Jun 03 2026 16:45:19 GMT-0500 (Central Daylight Time),433164.89999997616,063_y_f_n_a.png,I,m,1554,8,3,2596.5,430568.39999997616,8084,NNB,A,6
6,test,1,0.0,2-Back,1.0,m,Wed Jun 03 2026 16:45:19 GMT-0500 (Central Daylight Time),435130.7000000477,008_y_m_n_a.png,I,m,948,9,3,1963.0,433167.7000000477,8084,NNB,A,7
7,test,1,0.0,2-Back,1.0,m,Wed Jun 03 2026 16:45:19 GMT-0500 (Central Daylight Time),436780.60000002384,044_o_f_n_a.png,I,m,622,10,3,1647.3999999761581,435133.2000000477,8084,NNB,A,8
7,test,1,1.0,2-Back,0.0,z,Wed Jun 03 2026 16:45:19 GMT-0500 (Central Daylight Time),439213.2000000477,008_y_m_n_a.png,I,m,1404,11,3,2430.2000000476837,436783.0,8084,NNB,A,9
8,test,1,0.0,2-Back,1.0,m,Wed Jun 03 2026 16:45:19 GMT-0500 (Central Daylight Time),441762.0,043_m_f_n_a.png,I,m,1531,12,3,2546.399999976158,439215.60000002384,8084,NNB,A,10
9,test,1,0.0,2-Back,1.0,m,Wed Jun 03 2026 16:45:19 GMT-0500 (Central Daylight Time),443911.5,043_m_f_n_a.png,I,m,1119,13,3,2147.100000023842,441764.39999997616,8084,NNB,A,11
10,test,1,0.0,2-Back,1.0,m,Wed Jun 03 2026 16:45:19 GMT-0500 (Central Daylight Time),445927.60000002384,046_o_m_n_a.png,I,m,986,14,3,2013.3999999761581,443914.2000000477,8084,NNB,A,12
11,test,1,0.0,2-Back,1.0,m,Wed Jun 03 2026 16:45:19 GMT-0500 (Central Daylight Time),447760.5,044_o_f_n_a.png,I,m,810,15,3,1830.2999999523163,445930.2000000477,8084,NNB,A,13
12,test,1,1.0,2-Back,1.0,z,Wed Jun 03 2026 16:45:19 GMT-0500 (Central Daylight Time),449709.89999997616,046_o_m_n_a.png,I,z,929,16,3,1946.7999999523163,447763.10000002384,8084,NNB,A,14
13,test,1,0.0,2-Back,1.0,m,Wed Jun 03 2026 16:45:19 GMT-0500 (Central Daylight Time),451525.60000002384,050_m_f_n_a.png,I,m,794,17,3,1813.2999999523163,449712.3000000715,8084,NNB,A,15
14,test,1,0.0,2-Back,1.0,m,Wed Jun 03 2026 16:45:19 GMT-0500 (Central Daylight Time),453375.3000000715,045_m_m_n_a.png,I,m,819,18,3,1846.7000000476837,451528.60000002384,8084,NNB,A,16
0,test,2,0.0,2-Back,,,Wed Jun 03 2026 16:45:19 GMT-0500 (Central Daylight Time),453375.3000000715,045_m_m_n_a.png,I,space,1250,1,3,1846.7000000476837,451528.60000002384,8084,NNB,A,0
0,test,2,0.0,2-Back,,,Wed Jun 03 2026 16:45:19 GMT-0500 (Central Daylight Time),453375.3000000715,010_y_f_n_a.png,I,space,1250,2,3,1846.7000000476837,451528.60000002384,8084,NNB,A,0
1,test,2,1.0,2-Back,1.0,z,Wed Jun 03 2026 16:45:19 GMT-0500 (Central Daylight Time),461772.8000000715,045_m_m_n_a.png,I,z,1005,3,3,2030.1000000238419,459742.7000000477,8084,NNB,A,1
2,test,2,0.0,2-Back,1.0,m,Wed Jun 03 2026 16:45:19 GMT-0500 (Central Daylight Time),464221.89999997616,050_m_f_n_a.png,I,m,1420,4,3,2446.2999999523163,461775.60000002384,8084,NNB,A,2
3,test,2,0.0,2-Back,1.0,m,Wed Jun 03 2026 16:45:19 GMT-0500 (Central Daylight Time),466404.7000000477,010_y_f_n_a.png,I,m,1156,5,3,2180.100000023842,464224.60000002384,8084,NNB,A,3
4,test,2,0.0,2-Back,1.0,m,Wed Jun 03 2026 16:45:19 GMT-0500 (Central Daylight Time),468254.10000002384,046_o_m_n_a.png,I,m,829,6,3,1846.6000000238419,466407.5,8084,NNB,A,4
5,test,2,0.0,2-Back,1.0,m,Wed Jun 03 2026 16:45:19 GMT-0500 (Central Daylight Time),470036.7000000477,063_y_f_n_a.png,I,m,763,7,3,1780.0,468256.7000000477,8084,NNB,A,5
6,test,2,1.0,2-Back,1.0,z,Wed Jun 03 2026 16:45:19 GMT-0500 (Central Daylight Time),472054.0,046_o_m_n_a.png,I,z,996,8,3,2014.7999999523163,470039.2000000477,8084,NNB,A,6
7,test,2,0.0,2-Back,1.0,m,Wed Jun 03 2026 16:45:19 GMT-0500 (Central Daylight Time),473885.5,008_y_m_n_a.png,I,m,804,9,3,1828.7999999523163,472056.7000000477,8084,NNB,A,7
8,test,2,0.0,2-Back,1.0,m,Wed Jun 03 2026 16:45:19 GMT-0500 (Central Daylight Time),475901.5,008_y_m_n_a.png,I,m,995,10,3,2013.5,473888.0,8084,NNB,A,8
9,test,2,0.0,2-Back,1.0,m,Wed Jun 03 2026 16:45:19 GMT-0500 (Central Daylight Time),477801.10000002384,043_m_f_n_a.png,I,m,876,11,3,1896.5,475904.60000002384,8084,NNB,A,9
10,test,2,0.0,2-Back,1.0,m,Wed Jun 03 2026 16:45:19 GMT-0500 (Central Daylight Time),479617.2000000477,010_y_f_n_a.png,I,m,714,12,3,1813.5,477803.7000000477,8084,NNB,A,10
11,test,2,1.0,2-Back,1.0,z,Wed Jun 03 2026 16:45:19 GMT-0500 (Central Daylight Time),481050.0,043_m_f_n_a.png,I,z,407,13,3,1430.2999999523163,479619.7000000477,8084,NNB,A,11
12,test,2,0.0,2-Back,1.0,m,Wed Jun 03 2026 16:45:19 GMT-0500 (Central Daylight Time),482799.7000000477,053_o_m_n_a.png,I,m,718,14,3,1747.2000000476837,481052.5,8084,NNB,A,12
13,test,2,0.0,2-Back,1.0,m,Wed Jun 03 2026 16:45:19 GMT-0500 (Central Daylight Time),484748.89999997616,053_o_m_n_a.png,I,m,921,15,3,1946.5,482802.39999997616,8084,NNB,A,13
14,test,2,0.0,2-Back,1.0,m,Wed Jun 03 2026 16:45:19 GMT-0500 (Central Daylight Time),487048.2000000477,044_o_f_n_a.png,I,m,1268,16,3,2296.100000023842,484752.10000002384,8084,NNB,A,14
15,test,2,0.0,2-Back,1.0,m,Wed Jun 03 2026 16:45:19 GMT-0500 (Central Daylight Time),488964.10000002384,058_m_m_n_a.png,I,m,889,17,3,1913.0,487051.10000002384,8084,NNB,A,15
16,test,2,1.0,2-Back,1.0,z,Wed Jun 03 2026 16:45:19 GMT-0500 (Central Daylight Time),490513.8000000715,044_o_f_n_a.png,I,z,517,18,3,1547.3000000715256,488966.5,8084,NNB,A,16
0,test,3,1.0,2-Back,,,Wed Jun 03 2026 16:45:19 GMT-0500 (Central Daylight Time),490513.8000000715,041_y_m_n_a.png,I,space,1030,1,3,1547.3000000715256,488966.5,8084,NNB,A,0
0,test,3,1.0,2-Back,,,Wed Jun 03 2026 16:45:19 GMT-0500 (Central Daylight Time),490513.8000000715,041_y_m_n_a.png,I,space,1030,2,3,1547.3000000715256,488966.5,8084,NNB,A,0
1,test,3,0.0,2-Back,1.0,m,Wed Jun 03 2026 16:45:19 GMT-0500 (Central Daylight Time),498828.0,044_o_f_n_a.png,I,m,1189,3,3,2212.1999999284744,496615.8000000715,8084,NNB,A,1
2,test,3,0.0,2-Back,1.0,m,Wed Jun 03 2026 16:45:19 GMT-0500 (Central Daylight Time),500577.3000000715,045_m_m_n_a.png,I,m,725,4,3,1746.5,498830.8000000715,8084,NNB,A,2
3,test,3,1.0,2-Back,1.0,z,Wed Jun 03 2026 16:45:19 GMT-0500 (Central Daylight Time),502341.89999997616,044_o_f_n_a.png,I,z,748,5,3,1761.3999999761581,500580.5,8084,NNB,A,3
4,test,3,0.0,2-Back,1.0,m,Wed Jun 03 2026 16:45:19 GMT-0500 (Central Daylight Time),504292.8000000715,008_y_m_n_a.png,I,m,930,6,3,1948.2000000476837,502344.60000002384,8084,NNB,A,4
5,test,3,0.0,2-Back,1.0,m,Wed Jun 03 2026 16:45:19 GMT-0500 (Central Daylight Time),506742.10000002384,045_m_m_n_a.png,I,m,1428,7,3,2446.7000000476837,504295.39999997616,8084,NNB,A,5
6,test,3,1.0,2-Back,1.0,z,Wed Jun 03 2026 16:45:19 GMT-0500 (Central Daylight Time),508957.89999997616,008_y_m_n_a.png,I,z,1187,8,3,2213.1999999284744,506744.7000000477,8084,NNB,A,6
7,test,3,0.0,2-Back,1.0,m,Wed Jun 03 2026 16:45:19 GMT-0500 (Central Daylight Time),510757.5,010_y_f_n_a.png,I,m,778,9,3,1796.6999999284744,508960.8000000715,8084,NNB,A,7
8,test,3,0.0,2-Back,1.0,m,Wed Jun 03 2026 16:45:19 GMT-0500 (Central Daylight Time),512657.0,058_m_m_n_a.png,I,m,876,10,3,1896.8999999761581,510760.10000002384,8084,NNB,A,8
9,test,3,1.0,2-Back,1.0,z,Wed Jun 03 2026 16:45:19 GMT-0500 (Central Daylight Time),514189.7000000477,010_y_f_n_a.png,I,z,504,11,3,1530.2000000476837,512659.5,8084,NNB,A,9
10,test,3,1.0,2-Back,1.0,z,Wed Jun 03 2026 16:45:19 GMT-0500 (Central Daylight Time),515956.7000000477,058_m_m_n_a.png,I,z,748,12,3,1764.5,514192.2000000477,8084,NNB,A,10
11,test,3,0.0,2-Back,1.0,m,Wed Jun 03 2026 16:45:19 GMT-0500 (Central Daylight Time),517738.60000002384,044_o_f_n_a.png,I,m,751,13,3,1779.2000000476837,515959.39999997616,8084,NNB,A,11
12,test,3,0.0,2-Back,1.0,m,Wed Jun 03 2026 16:45:19 GMT-0500 (Central Daylight Time),519388.0,050_m_f_n_a.png,I,m,631,14,3,1647.0,517741.0,8084,NNB,A,12
13,test,3,0.0,2-Back,1.0,m,Wed Jun 03 2026 16:45:19 GMT-0500 (Central Daylight Time),521137.39999997616,046_o_m_n_a.png,I,m,725,15,3,1746.6999999284744,519390.7000000477,8084,NNB,A,13
14,test,3,1.0,2-Back,1.0,z,Wed Jun 03 2026 16:45:19 GMT-0500 (Central Daylight Time),522853.7000000477,050_m_f_n_a.png,I,z,696,16,3,1713.8000000715256,521139.89999997616,8084,NNB,A,14
15,test,3,0.0,2-Back,1.0,m,Wed Jun 03 2026 16:45:19 GMT-0500 (Central Daylight Time),524553.1000000238,047_o_f_n_a.png,I,m,667,17,3,1696.8999999761581,522856.2000000477,8084,NNB,A,15
16,test,3,0.0,2-Back,1.0,m,Wed Jun 03 2026 16:45:19 GMT-0500 (Central Daylight Time),526319.2000000477,047_o_f_n_a.png,I,m,737,18,3,1763.3999999761581,524555.8000000715,8084,NNB,A,16
0,test,4,0.0,2-Back,,,Wed Jun 03 2026 16:45:19 GMT-0500 (Central Daylight Time),526319.2000000477,053_o_m_n_a.png,I,space,946,1,3,1763.3999999761581,524555.8000000715,8084,NNB,A,0
0,test,4,0.0,2-Back,,,Wed Jun 03 2026 16:45:19 GMT-0500 (Central Daylight Time),526319.2000000477,063_y_f_n_a.png,I,space,946,2,3,1763.3999999761581,524555.8000000715,8084,NNB,A,0
1,test,4,1.0,2-Back,1.0,z,Wed Jun 03 2026 16:45:19 GMT-0500 (Central Daylight Time),534016.8999999762,053_o_m_n_a.png,I,z,626,3,3,1647.0999999046326,532369.8000000715,8084,NNB,A,1
2,test,4,1.0,2-Back,1.0,z,Wed Jun 03 2026 16:45:19 GMT-0500 (Central Daylight Time),535766.3999999762,063_y_f_n_a.png,I,z,721,4,3,1747.0,534019.3999999762,8084,NNB,A,2
3,test,4,0.0,2-Back,1.0,m,Wed Jun 03 2026 16:45:19 GMT-0500 (Central Daylight Time),537532.1000000238,044_o_f_n_a.png,I,m,747,5,3,1763.2000000476837,535768.8999999762,8084,NNB,A,3
4,test,4,0.0,2-Back,1.0,m,Wed Jun 03 2026 16:45:19 GMT-0500 (Central Daylight Time),539331.6000000238,044_o_f_n_a.png,I,m,773,6,3,1797.0,537534.6000000238,8084,NNB,A,4
5,test,4,0.0,2-Back,1.0,m,Wed Jun 03 2026 16:45:19 GMT-0500 (Central Daylight Time),541715.3999999762,043_m_f_n_a.png,I,m,1365,7,3,2381.399999976158,539334.0,8084,NNB,A,5
6,test,4,0.0,2-Back,1.0,m,Wed Jun 03 2026 16:45:19 GMT-0500 (Central Daylight Time),543630.3000000715,008_y_m_n_a.png,I,m,895,8,3,1912.0,541718.3000000715,8084,NNB,A,6
7,test,4,1.0,2-Back,1.0,z,Wed Jun 03 2026 16:45:19 GMT-0500 (Central Daylight Time),545379.8000000715,043_m_f_n_a.png,I,z,731,9,3,1746.9000000953674,543632.8999999762,8084,NNB,A,7
8,test,4,0.0,2-Back,1.0,m,Wed Jun 03 2026 16:45:19 GMT-0500 (Central Daylight Time),547262.8000000715,058_m_m_n_a.png,I,m,854,10,3,1880.6000000238419,545382.2000000477,8084,NNB,A,8
8,test,4,0.0,2-Back,0.0,m,Wed Jun 03 2026 16:45:19 GMT-0500 (Central Daylight Time),549245.5,008_y_m_n_a.png,I,z,963,11,3,1980.0,547265.5,8084,NNB,A,9
9,test,4,0.0,2-Back,1.0,m,Wed Jun 03 2026 16:45:19 GMT-0500 (Central Daylight Time),550861.6000000238,047_o_f_n_a.png,I,m,595,12,3,1613.6000000238419,549248.0,8084,NNB,A,10
10,test,4,0.0,2-Back,1.0,m,Wed Jun 03 2026 16:45:19 GMT-0500 (Central Daylight Time),552477.7000000477,041_y_m_n_a.png,I,m,588,13,3,1613.6000000238419,550864.1000000238,8084,NNB,A,11
10,test,4,1.0,2-Back,0.0,z,Wed Jun 03 2026 16:45:19 GMT-0500 (Central Daylight Time),554210.5,047_o_f_n_a.png,I,m,708,14,3,1730.1000000238419,552480.3999999762,8084,NNB,A,12
10,test,4,1.0,2-Back,0.0,z,Wed Jun 03 2026 16:45:19 GMT-0500 (Central Daylight Time),555959.8999999762,041_y_m_n_a.png,I,m,727,15,3,1746.8999999761581,554213.0,8084,NNB,A,13
11,test,4,0.0,2-Back,1.0,m,Wed Jun 03 2026 16:45:19 GMT-0500 (Central Daylight Time),557842.6000000238,045_m_m_n_a.png,I,m,856,16,3,1880.0,555962.6000000238,8084,NNB,A,14
12,test,4,0.0,2-Back,1.0,m,Wed Jun 03 2026 16:45:19 GMT-0500 (Central Daylight Time),559592.1000000238,050_m_f_n_a.png,I,m,719,17,3,1747.1000000238419,557845.0,8084,NNB,A,15
13,test,4,1.0,2-Back,1.0,z,Wed Jun 03 2026 16:45:19 GMT-0500 (Central Daylight Time),561058.6000000238,045_m_m_n_a.png,I,z,433,18,3,1463.7999999523163,559594.8000000715,8084,NNB,A,16
0,test,5,1.0,2-Back,,,Wed Jun 03 2026 16:45:19 GMT-0500 (Central Daylight Time),561058.6000000238,041_y_m_n_a.png,I,space,991,1,3,1463.7999999523163,559594.8000000715,8084,NNB,A,0
0,test,5,1.0,2-Back,,,Wed Jun 03 2026 16:45:19 GMT-0500 (Central Daylight Time),561058.6000000238,050_m_f_n_a.png,I,space,991,2,3,1463.7999999523163,559594.8000000715,8084,NNB,A,0
1,test,5,1.0,2-Back,1.0,z,Wed Jun 03 2026 16:45:19 GMT-0500 (Central Daylight Time),568905.8999999762,041_y_m_n_a.png,I,z,767,3,3,1797.0999999046326,567108.8000000715,8084,NNB,A,1
2,test,5,1.0,2-Back,1.0,z,Wed Jun 03 2026 16:45:19 GMT-0500 (Central Daylight Time),570438.5,050_m_f_n_a.png,I,z,512,4,3,1529.8999999761581,568908.6000000238,8084,NNB,A,2
3,test,5,0.0,2-Back,1.0,m,Wed Jun 03 2026 16:45:19 GMT-0500 (Central Daylight Time),572321.2000000477,047_o_f_n_a.png,I,m,856,5,3,1880.2000000476837,570441.0,8084,NNB,A,3
4,test,5,0.0,2-Back,1.0,m,Wed Jun 03 2026 16:45:19 GMT-0500 (Central Daylight Time),574420.6000000238,041_y_m_n_a.png,I,m,1080,6,3,2096.7000000476837,572323.8999999762,8084,NNB,A,4
5,test,5,0.0,2-Back,1.0,m,Wed Jun 03 2026 16:45:19 GMT-0500 (Central Daylight Time),576320.2000000477,010_y_f_n_a.png,I,m,877,7,3,1897.0,574423.2000000477,8084,NNB,A,5
6,test,5,0.0,2-Back,1.0,m,Wed Jun 03 2026 16:45:19 GMT-0500 (Central Daylight Time),578236.1000000238,047_o_f_n_a.png,I,m,897,8,3,1913.0,576323.1000000238,8084,NNB,A,6
7,test,5,1.0,2-Back,1.0,z,Wed Jun 03 2026 16:45:19 GMT-0500 (Central Daylight Time),580052.3000000715,010_y_f_n_a.png,I,z,797,9,3,1814.0,578238.3000000715,8084,NNB,A,7
8,test,5,0.0,2-Back,1.0,m,Wed Jun 03 2026 16:45:19 GMT-0500 (Central Daylight Time),581751.8999999762,046_o_m_n_a.png,I,m,669,10,3,1697.0,580054.8999999762,8084,NNB,A,8
9,test,5,0.0,2-Back,1.0,m,Wed Jun 03 2026 16:45:19 GMT-0500 (Central Daylight Time),583734.6000000238,043_m_f_n_a.png,I,m,961,11,3,1980.0,581754.6000000238,8084,NNB,A,9
10,test,5,0.0,2-Back,1.0,m,Wed Jun 03 2026 16:45:19 GMT-0500 (Central Daylight Time),585617.2000000477,058_m_m_n_a.png,I,m,859,12,3,1879.8999999761581,583737.3000000715,8084,NNB,A,10
11,test,5,0.0,2-Back,1.0,m,Wed Jun 03 2026 16:45:19 GMT-0500 (Central Daylight Time),587300.1000000238,046_o_m_n_a.png,I,m,655,13,3,1680.2999999523163,585619.8000000715,8084,NNB,A,11
12,test,5,1.0,2-Back,1.0,z,Wed Jun 03 2026 16:45:19 GMT-0500 (Central Daylight Time),589082.6000000238,058_m_m_n_a.png,I,z,765,14,3,1779.7000000476837,587302.8999999762,8084,NNB,A,12
13,test,5,0.0,2-Back,1.0,m,Wed Jun 03 2026 16:45:19 GMT-0500 (Central Daylight Time),590849.2000000477,063_y_f_n_a.png,I,m,743,15,3,1764.2000000476837,589085.0,8084,NNB,A,13
14,test,5,0.0,2-Back,1.0,m,Wed Jun 03 2026 16:45:19 GMT-0500 (Central Daylight Time),592648.5,053_o_m_n_a.png,I,m,775,16,3,1796.7999999523163,590851.7000000477,8084,NNB,A,14
15,test,5,0.0,2-Back,1.0,m,Wed Jun 03 2026 16:45:19 GMT-0500 (Central Daylight Time),594264.8000000715,043_m_f_n_a.png,I,m,593,17,3,1613.8000000715256,592651.0,8084,NNB,A,15
16,test,5,1.0,2-Back,1.0,z,Wed Jun 03 2026 16:45:19 GMT-0500 (Central Daylight Time),595814.3000000715,053_o_m_n_a.png,I,z,529,18,3,1547.0,594267.3000000715,8084,NNB,A,16
