acc_sum,block,block_c,change,condition,correct,correct_response,datetime,endtime,face,project,response,response_time,row_sel,session_number,start_end,starttime,subject_id,task,task_vers,trial
0,prac,1,,1-Back,,,Fri Jun 20 2025 15:50:36 GMT-0500 (Central Daylight Time),,012_o_f_d_a.png,O,space,9104,1,1,,,7167,VNB,C,0
0,prac,1,0.0,1-Back,0,m,Fri Jun 20 2025 15:50:36 GMT-0500 (Central Daylight Time),145454.6000000015,022_y_f_n_a.png,O,None,2014,2,1,2905.10000000149,142549.5,7167,VNB,C,1
1,prac,1,0.0,1-Back,1,m,Fri Jun 20 2025 15:50:36 GMT-0500 (Central Daylight Time),147571.0,014_m_m_h_a.png,O,m,1232,3,1,2107.2999999970198,145463.70000000298,7167,VNB,C,2
2,prac,1,0.0,1-Back,1,m,Fri Jun 20 2025 15:50:36 GMT-0500 (Central Daylight Time),149471.1000000015,025_y_m_d_a.png,O,m,1028,4,1,1891.0,147580.1000000015,7167,VNB,C,3
2,prac,1,0.0,1-Back,0,m,Fri Jun 20 2025 15:50:36 GMT-0500 (Central Daylight Time),151238.1000000015,012_o_f_n_a.png,O,z,869,5,1,1757.2999999970198,149480.80000000447,7167,VNB,C,4
3,prac,1,1.0,1-Back,1,z,Fri Jun 20 2025 15:50:36 GMT-0500 (Central Daylight Time),153136.6000000015,025_y_m_n_a.png,O,z,1018,6,1,1887.7999999970198,151248.80000000447,7167,VNB,C,5
4,prac,1,0.0,1-Back,1,m,Fri Jun 20 2025 15:50:36 GMT-0500 (Central Daylight Time),154701.80000000447,015_o_m_h_a.png,O,m,657,7,1,1553.0,153148.80000000447,7167,VNB,C,6
4,prac,1,0.0,1-Back,0,m,Fri Jun 20 2025 15:50:36 GMT-0500 (Central Daylight Time),156351.70000000298,019_m_f_d_a.png,O,z,733,8,1,1638.8999999985099,154712.80000000447,7167,VNB,C,7
5,prac,1,1.0,1-Back,1,z,Fri Jun 20 2025 15:50:36 GMT-0500 (Central Daylight Time),158618.20000000298,022_y_f_d_a.png,O,z,1374,9,1,2255.2000000029802,156363.0,7167,VNB,C,8
6,prac,1,0.0,1-Back,1,m,Fri Jun 20 2025 15:50:36 GMT-0500 (Central Daylight Time),160451.40000000596,014_m_m_n_a.png,O,m,974,10,1,1822.4000000059605,158629.0,7167,VNB,C,9
7,prac,1,0.0,1-Back,1,m,Fri Jun 20 2025 15:50:36 GMT-0500 (Central Daylight Time),162333.80000000447,012_o_f_h_a.png,O,m,992,11,1,1873.3999999985099,160460.40000000596,7167,VNB,C,10
8,prac,1,0.0,1-Back,1,m,Fri Jun 20 2025 15:50:36 GMT-0500 (Central Daylight Time),164018.0,025_y_m_d_a.png,O,m,816,12,1,1673.7999999970198,162344.20000000298,7167,VNB,C,11
0,prac,2,0.0,1-Back,,,Fri Jun 20 2025 15:50:36 GMT-0500 (Central Daylight Time),164018.0,012_o_f_d_a.png,O,a,3803,1,1,1673.7999999970198,162344.20000000298,7167,VNB,C,0
1,prac,2,0.0,1-Back,1,m,Fri Jun 20 2025 15:50:36 GMT-0500 (Central Daylight Time),172862.6000000015,022_y_f_n_a.png,O,m,1110,2,1,1988.5,170874.1000000015,7167,VNB,C,1
2,prac,2,0.0,1-Back,1,m,Fri Jun 20 2025 15:50:36 GMT-0500 (Central Daylight Time),174746.30000000447,014_m_m_h_a.png,O,m,993,3,1,1873.8000000044703,172872.5,7167,VNB,C,2
3,prac,2,0.0,1-Back,1,m,Fri Jun 20 2025 15:50:36 GMT-0500 (Central Daylight Time),176294.6000000015,025_y_m_d_a.png,O,m,767,4,1,1537.7999999970198,174756.80000000447,7167,VNB,C,3
4,prac,2,0.0,1-Back,1,m,Fri Jun 20 2025 15:50:36 GMT-0500 (Central Daylight Time),177946.0,012_o_f_n_a.png,O,m,749,5,1,1642.0,176304.0,7167,VNB,C,4
5,prac,2,1.0,1-Back,1,z,Fri Jun 20 2025 15:50:36 GMT-0500 (Central Daylight Time),179743.5,025_y_m_n_a.png,O,z,927,6,1,1788.7999999970198,177954.70000000298,7167,VNB,C,5
6,prac,2,0.0,1-Back,1,m,Fri Jun 20 2025 15:50:36 GMT-0500 (Central Daylight Time),181410.70000000298,015_o_m_h_a.png,O,m,766,7,1,1657.5,179753.20000000298,7167,VNB,C,6
7,prac,2,0.0,1-Back,1,m,Fri Jun 20 2025 15:50:36 GMT-0500 (Central Daylight Time),183410.40000000596,019_m_f_d_a.png,O,m,1098,8,1,1990.2000000029802,181420.20000000298,7167,VNB,C,7
8,prac,2,1.0,1-Back,1,z,Fri Jun 20 2025 15:50:36 GMT-0500 (Central Daylight Time),185326.0,022_y_f_d_a.png,O,z,1023,9,1,1905.5999999940395,183420.40000000596,7167,VNB,C,8
9,prac,2,0.0,1-Back,1,m,Fri Jun 20 2025 15:50:36 GMT-0500 (Central Daylight Time),187091.40000000596,014_m_m_n_a.png,O,m,897,10,1,1754.3000000044703,185337.1000000015,7167,VNB,C,9
10,prac,2,0.0,1-Back,1,m,Fri Jun 20 2025 15:50:36 GMT-0500 (Central Daylight Time),189308.5,012_o_f_h_a.png,O,m,1315,11,1,2208.39999999851,187100.1000000015,7167,VNB,C,10
11,prac,2,0.0,1-Back,1,m,Fri Jun 20 2025 15:50:36 GMT-0500 (Central Daylight Time),191307.90000000596,025_y_m_d_a.png,O,m,1123,12,1,1990.8000000044703,189317.1000000015,7167,VNB,C,11
0,test,1,0.0,1-Back,,,Fri Jun 20 2025 15:50:36 GMT-0500 (Central Daylight Time),191307.90000000596,022_y_f_d_a.png,O,space,4689,1,1,1990.8000000044703,189317.1000000015,7167,VNB,C,0
1,test,1,0.0,1-Back,1,m,Fri Jun 20 2025 15:50:36 GMT-0500 (Central Daylight Time),205102.70000000298,019_m_f_n_a.png,O,m,848,2,1,1859.2999999970198,203243.40000000596,7167,VNB,C,1
2,test,1,0.0,1-Back,1,m,Fri Jun 20 2025 15:50:36 GMT-0500 (Central Daylight Time),206835.30000000447,015_o_m_h_a.png,O,m,708,3,1,1725.7000000029802,205109.6000000015,7167,VNB,C,2
3,test,1,1.0,1-Back,1,z,Fri Jun 20 2025 15:50:36 GMT-0500 (Central Daylight Time),208434.0,014_m_m_h_a.png,O,z,566,4,1,1592.8999999985099,206841.1000000015,7167,VNB,C,3
4,test,1,0.0,1-Back,1,m,Fri Jun 20 2025 15:50:36 GMT-0500 (Central Daylight Time),210182.80000000447,012_o_f_n_a.png,O,m,728,5,1,1741.7000000029802,208441.1000000015,7167,VNB,C,4
5,test,1,0.0,1-Back,1,m,Fri Jun 20 2025 15:50:36 GMT-0500 (Central Daylight Time),212399.6000000015,025_y_m_d_a.png,O,m,1195,6,1,2209.5,210190.1000000015,7167,VNB,C,5
6,test,1,1.0,1-Back,1,z,Fri Jun 20 2025 15:50:36 GMT-0500 (Central Daylight Time),214382.30000000447,019_m_f_d_a.png,O,z,954,7,1,1976.1000000014901,212406.20000000298,7167,VNB,C,6
7,test,1,0.0,1-Back,1,m,Fri Jun 20 2025 15:50:36 GMT-0500 (Central Daylight Time),216100.6000000015,022_y_f_h_a.png,O,m,701,8,1,1710.5,214390.1000000015,7167,VNB,C,7
8,test,1,0.0,1-Back,1,m,Fri Jun 20 2025 15:50:36 GMT-0500 (Central Daylight Time),217881.20000000298,015_o_m_n_a.png,O,m,762,9,1,1775.8999999985099,216105.30000000447,7167,VNB,C,8
9,test,1,0.0,1-Back,1,m,Fri Jun 20 2025 15:50:36 GMT-0500 (Central Daylight Time),219764.80000000447,025_y_m_h_a.png,O,m,865,10,1,1876.0,217888.80000000447,7167,VNB,C,9
10,test,1,0.0,1-Back,1,m,Fri Jun 20 2025 15:50:36 GMT-0500 (Central Daylight Time),221513.30000000447,015_o_m_d_a.png,O,m,726,11,1,1739.8000000044703,219773.5,7167,VNB,C,10
11,test,1,1.0,1-Back,1,z,Fri Jun 20 2025 15:50:36 GMT-0500 (Central Daylight Time),223730.1000000015,012_o_f_d_a.png,O,z,1184,12,1,2209.60000000149,221520.5,7167,VNB,C,11
12,test,1,0.0,1-Back,1,m,Fri Jun 20 2025 15:50:36 GMT-0500 (Central Daylight Time),225678.90000000596,014_m_m_n_a.png,O,m,933,13,1,1940.8000000044703,223738.1000000015,7167,VNB,C,12
13,test,1,1.0,1-Back,1,z,Fri Jun 20 2025 15:50:36 GMT-0500 (Central Daylight Time),227762.6000000015,022_y_f_n_a.png,O,z,1059,14,1,2073.2999999970198,225689.30000000447,7167,VNB,C,13
14,test,1,0.0,1-Back,1,m,Fri Jun 20 2025 15:50:36 GMT-0500 (Central Daylight Time),229344.6000000015,019_m_f_h_a.png,O,m,560,15,1,1576.0,227768.6000000015,7167,VNB,C,14
15,test,1,0.0,1-Back,1,m,Fri Jun 20 2025 15:50:36 GMT-0500 (Central Daylight Time),231444.80000000447,014_m_m_d_a.png,O,m,1073,16,1,2091.60000000149,229353.20000000298,7167,VNB,C,15
15,test,1,0.0,1-Back,0,m,Fri Jun 20 2025 15:50:36 GMT-0500 (Central Daylight Time),233442.70000000298,025_y_m_n_a.png,O,z,967,17,1,1989.2000000029802,231453.5,7167,VNB,C,16
16,test,1,0.0,1-Back,1,m,Fri Jun 20 2025 15:50:36 GMT-0500 (Central Daylight Time),235175.30000000447,012_o_f_h_a.png,O,m,710,18,1,1724.1000000014901,233451.20000000298,7167,VNB,C,17
0,test,2,0.0,1-Back,,,Fri Jun 20 2025 15:50:36 GMT-0500 (Central Daylight Time),235175.30000000447,025_y_m_n_a.png,O,space,1717,1,1,1724.1000000014901,233451.20000000298,7167,VNB,C,0
1,test,2,0.0,1-Back,1,m,Fri Jun 20 2025 15:50:36 GMT-0500 (Central Daylight Time),240924.6000000015,022_y_f_h_a.png,O,m,992,2,1,2007.5,238917.1000000015,7167,VNB,C,1
2,test,2,1.0,1-Back,1,m,Fri Jun 20 2025 15:50:36 GMT-0500 (Central Daylight Time),243156.90000000596,015_o_m_n_a.png,O,m,1206,3,1,2225.2000000029802,240931.70000000298,7167,VNB,C,2
3,test,2,0.0,1-Back,1,m,Fri Jun 20 2025 15:50:36 GMT-0500 (Central Daylight Time),244905.1000000015,019_m_f_d_a.png,O,m,716,4,1,1739.6000000014901,243165.5,7167,VNB,C,3
4,test,2,0.0,1-Back,1,z,Fri Jun 20 2025 15:50:36 GMT-0500 (Central Daylight Time),246922.30000000447,014_m_m_d_a.png,O,z,985,5,1,2013.3000000044703,244909.0,7167,VNB,C,4
5,test,2,0.0,1-Back,1,m,Fri Jun 20 2025 15:50:36 GMT-0500 (Central Daylight Time),248555.5,025_y_m_h_a.png,O,m,609,6,1,1625.8999999985099,246929.6000000015,7167,VNB,C,5
6,test,2,1.0,1-Back,1,z,Fri Jun 20 2025 15:50:36 GMT-0500 (Central Daylight Time),250538.6000000015,012_o_f_h_a.png,O,z,959,7,1,1976.6000000014901,248562.0,7167,VNB,C,6
7,test,2,0.0,1-Back,1,m,Fri Jun 20 2025 15:50:36 GMT-0500 (Central Daylight Time),252336.30000000447,019_m_f_n_a.png,O,m,768,8,1,1788.2000000029802,250548.1000000015,7167,VNB,C,7
8,test,2,0.0,1-Back,1,m,Fri Jun 20 2025 15:50:36 GMT-0500 (Central Daylight Time),254805.0,022_y_f_d_a.png,O,m,1431,9,1,2460.39999999851,252344.6000000015,7167,VNB,C,8
9,test,2,0.0,1-Back,1,m,Fri Jun 20 2025 15:50:36 GMT-0500 (Central Daylight Time),256653.90000000596,014_m_m_n_a.png,O,m,823,10,1,1844.3000000044703,254809.6000000015,7167,VNB,C,9
10,test,2,1.0,1-Back,1,m,Fri Jun 20 2025 15:50:36 GMT-0500 (Central Daylight Time),258403.1000000015,019_m_f_h_a.png,O,m,725,11,1,1740.5,256662.6000000015,7167,VNB,C,10
11,test,2,0.0,1-Back,1,z,Fri Jun 20 2025 15:50:36 GMT-0500 (Central Daylight Time),260118.0,015_o_m_h_a.png,O,z,694,12,1,1705.5,258412.5,7167,VNB,C,11
12,test,2,0.0,1-Back,1,m,Fri Jun 20 2025 15:50:36 GMT-0500 (Central Daylight Time),261785.30000000447,025_y_m_d_a.png,O,m,636,13,1,1657.7000000029802,260127.6000000015,7167,VNB,C,12
13,test,2,0.0,1-Back,1,m,Fri Jun 20 2025 15:50:36 GMT-0500 (Central Daylight Time),263851.0,012_o_f_n_a.png,O,m,1034,14,1,2057.0,261794.0,7167,VNB,C,13
14,test,2,0.0,1-Back,1,z,Fri Jun 20 2025 15:50:36 GMT-0500 (Central Daylight Time),265849.90000000596,022_y_f_n_a.png,O,z,974,15,1,1990.5,263859.40000000596,7167,VNB,C,14
15,test,2,1.0,1-Back,1,m,Fri Jun 20 2025 15:50:36 GMT-0500 (Central Daylight Time),267581.80000000447,014_m_m_h_a.png,O,m,712,16,1,1724.3000000044703,265857.5,7167,VNB,C,15
16,test,2,0.0,1-Back,1,m,Fri Jun 20 2025 15:50:36 GMT-0500 (Central Daylight Time),269415.200000003,012_o_f_d_a.png,O,m,813,17,1,1824.7999999970198,267590.40000000596,7167,VNB,C,16
17,test,2,1.0,1-Back,1,z,Fri Jun 20 2025 15:50:36 GMT-0500 (Central Daylight Time),271447.200000003,015_o_m_d_a.png,O,z,1012,18,1,2022.2000000029802,269425.0,7167,VNB,C,17
0,test,3,1.0,1-Back,,,Fri Jun 20 2025 15:50:36 GMT-0500 (Central Daylight Time),271447.200000003,012_o_f_h_a.png,O,space,1307,1,1,2022.2000000029802,269425.0,7167,VNB,C,0
1,test,3,0.0,1-Back,1,m,Fri Jun 20 2025 15:50:36 GMT-0500 (Central Daylight Time),276614.90000000596,019_m_f_d_a.png,O,m,714,2,1,1724.8000000044703,274890.1000000015,7167,VNB,C,1
2,test,3,1.0,1-Back,1,m,Fri Jun 20 2025 15:50:36 GMT-0500 (Central Daylight Time),278312.80000000447,014_m_m_n_a.png,O,m,669,3,1,1689.8999999985099,276622.90000000596,7167,VNB,C,2
3,test,3,0.0,1-Back,1,z,Fri Jun 20 2025 15:50:36 GMT-0500 (Central Daylight Time),280195.700000003,012_o_f_n_a.png,O,z,841,4,1,1866.6000000014901,278329.1000000015,7167,VNB,C,3
4,test,3,1.0,1-Back,1,m,Fri Jun 20 2025 15:50:36 GMT-0500 (Central Daylight Time),282027.90000000596,015_o_m_d_a.png,O,m,806,5,1,1824.6000000014901,280203.30000000447,7167,VNB,C,4
4,test,3,0.0,1-Back,0,m,Fri Jun 20 2025 15:50:36 GMT-0500 (Central Daylight Time),283928.0,022_y_f_h_a.png,O,z,881,6,1,1892.0999999940395,282035.90000000596,7167,VNB,C,5
5,test,3,0.0,1-Back,1,z,Fri Jun 20 2025 15:50:36 GMT-0500 (Central Daylight Time),285777.6000000015,025_y_m_h_a.png,O,z,820,7,1,1840.7999999970198,283936.80000000447,7167,VNB,C,6
6,test,3,0.0,1-Back,1,m,Fri Jun 20 2025 15:50:36 GMT-0500 (Central Daylight Time),287543.6000000015,019_m_f_n_a.png,O,m,751,8,1,1757.1999999955297,285786.40000000596,7167,VNB,C,7
7,test,3,0.0,1-Back,1,m,Fri Jun 20 2025 15:50:36 GMT-0500 (Central Daylight Time),289374.5,022_y_f_d_a.png,O,m,801,9,1,1823.2999999970198,287551.200000003,7167,VNB,C,8
8,test,3,1.0,1-Back,1,m,Fri Jun 20 2025 15:50:36 GMT-0500 (Central Daylight Time),291159.40000000596,015_o_m_n_a.png,O,m,756,10,1,1778.2000000029802,289381.200000003,7167,VNB,C,9
9,test,3,0.0,1-Back,1,m,Fri Jun 20 2025 15:50:36 GMT-0500 (Central Daylight Time),293024.0,014_m_m_h_a.png,O,m,836,11,1,1856.8999999985099,291167.1000000015,7167,VNB,C,10
10,test,3,0.0,1-Back,1,z,Fri Jun 20 2025 15:50:36 GMT-0500 (Central Daylight Time),294709.200000003,019_m_f_h_a.png,O,z,667,12,1,1676.7000000029802,293032.5,7167,VNB,C,11
11,test,3,1.0,1-Back,1,m,Fri Jun 20 2025 15:50:36 GMT-0500 (Central Daylight Time),296273.700000003,012_o_f_d_a.png,O,m,534,13,1,1555.8999999985099,294717.80000000447,7167,VNB,C,12
12,test,3,0.0,1-Back,1,z,Fri Jun 20 2025 15:50:36 GMT-0500 (Central Daylight Time),298038.5,014_m_m_d_a.png,O,z,732,14,1,1756.8999999985099,296281.6000000015,7167,VNB,C,13
13,test,3,0.0,1-Back,1,m,Fri Jun 20 2025 15:50:36 GMT-0500 (Central Daylight Time),299887.200000003,025_y_m_n_a.png,O,m,818,15,1,1840.2999999970198,298046.90000000596,7167,VNB,C,14
14,test,3,1.0,1-Back,1,m,Fri Jun 20 2025 15:50:36 GMT-0500 (Central Daylight Time),302155.30000000447,015_o_m_h_a.png,O,m,1235,16,1,2264.8000000044703,299890.5,7167,VNB,C,15
15,test,3,0.0,1-Back,1,m,Fri Jun 20 2025 15:50:36 GMT-0500 (Central Daylight Time),303954.6000000015,025_y_m_d_a.png,O,m,777,17,1,1791.7999999970198,302162.80000000447,7167,VNB,C,16
16,test,3,1.0,1-Back,1,m,Fri Jun 20 2025 15:50:36 GMT-0500 (Central Daylight Time),305903.6000000015,022_y_f_n_a.png,O,m,922,18,1,1940.2999999970198,303963.30000000447,7167,VNB,C,17
0,test,4,1.0,1-Back,,,Fri Jun 20 2025 15:50:36 GMT-0500 (Central Daylight Time),305903.6000000015,014_m_m_d_a.png,O,space,1075,1,1,1940.2999999970198,303963.30000000447,7167,VNB,C,0
1,test,4,0.0,1-Back,1,z,Fri Jun 20 2025 15:50:36 GMT-0500 (Central Daylight Time),311185.200000003,015_o_m_d_a.png,O,z,1151,2,1,2173.7999999970198,309011.40000000596,7167,VNB,C,1
2,test,4,0.0,1-Back,1,m,Fri Jun 20 2025 15:50:36 GMT-0500 (Central Daylight Time),312852.30000000447,025_y_m_h_a.png,O,m,642,3,1,1657.6000000014901,311194.700000003,7167,VNB,C,2
3,test,4,0.0,1-Back,1,m,Fri Jun 20 2025 15:50:36 GMT-0500 (Central Daylight Time),314634.200000003,019_m_f_n_a.png,O,m,759,4,1,1776.2000000029802,312858.0,7167,VNB,C,3
4,test,4,1.0,1-Back,1,m,Fri Jun 20 2025 15:50:36 GMT-0500 (Central Daylight Time),316450.5,012_o_f_h_a.png,O,m,784,5,1,1810.0999999940395,314640.40000000596,7167,VNB,C,4
5,test,4,0.0,1-Back,1,m,Fri Jun 20 2025 15:50:36 GMT-0500 (Central Daylight Time),318165.40000000596,014_m_m_n_a.png,O,m,688,6,1,1708.0,316457.40000000596,7167,VNB,C,5
6,test,4,0.0,1-Back,1,m,Fri Jun 20 2025 15:50:36 GMT-0500 (Central Daylight Time),319883.0,025_y_m_d_a.png,O,m,685,7,1,1709.6999999955297,318173.30000000447,7167,VNB,C,6
7,test,4,1.0,1-Back,1,z,Fri Jun 20 2025 15:50:36 GMT-0500 (Central Daylight Time),321914.90000000596,022_y_f_d_a.png,O,z,1000,8,1,2024.6000000014901,319890.30000000447,7167,VNB,C,7
8,test,4,0.0,1-Back,1,m,Fri Jun 20 2025 15:50:36 GMT-0500 (Central Daylight Time),323597.6000000015,019_m_f_h_a.png,O,m,651,9,1,1677.7999999970198,321919.80000000447,7167,VNB,C,8
8,test,4,0.0,1-Back,0,z,Fri Jun 20 2025 15:50:36 GMT-0500 (Central Daylight Time),325347.80000000447,015_o_m_h_a.png,O,m,716,10,1,1742.5,323605.30000000447,7167,VNB,C,9
9,test,4,1.0,1-Back,1,m,Fri Jun 20 2025 15:50:36 GMT-0500 (Central Daylight Time),327296.40000000596,012_o_f_n_a.png,O,m,919,11,1,1939.2000000029802,325357.200000003,7167,VNB,C,10
10,test,4,0.0,1-Back,1,m,Fri Jun 20 2025 15:50:36 GMT-0500 (Central Daylight Time),329712.30000000447,019_m_f_d_a.png,O,m,1394,12,1,2407.0,327305.30000000447,7167,VNB,C,11
11,test,4,0.0,1-Back,1,m,Fri Jun 20 2025 15:50:36 GMT-0500 (Central Daylight Time),331446.1000000015,022_y_f_n_a.png,O,m,706,13,1,1725.8999999985099,329720.200000003,7167,VNB,C,12
12,test,4,0.0,1-Back,1,m,Fri Jun 20 2025 15:50:36 GMT-0500 (Central Daylight Time),333479.1000000015,012_o_f_d_a.png,O,m,1016,14,1,2025.3999999985099,331453.700000003,7167,VNB,C,13
13,test,4,0.0,1-Back,1,m,Fri Jun 20 2025 15:50:36 GMT-0500 (Central Daylight Time),335345.700000003,022_y_f_h_a.png,O,m,837,15,1,1860.5,333485.200000003,7167,VNB,C,14
14,test,4,1.0,1-Back,1,z,Fri Jun 20 2025 15:50:36 GMT-0500 (Central Daylight Time),337078.30000000447,014_m_m_h_a.png,O,z,716,16,1,1726.0,335352.30000000447,7167,VNB,C,15
15,test,4,0.0,1-Back,1,m,Fri Jun 20 2025 15:50:36 GMT-0500 (Central Daylight Time),338643.200000003,015_o_m_n_a.png,O,m,549,17,1,1557.1000000014901,337086.1000000015,7167,VNB,C,16
16,test,4,1.0,1-Back,1,z,Fri Jun 20 2025 15:50:36 GMT-0500 (Central Daylight Time),340860.30000000447,025_y_m_n_a.png,O,z,1186,18,1,2210.39999999851,338649.90000000596,7167,VNB,C,17
0,test,5,1.0,1-Back,,,Fri Jun 20 2025 15:50:36 GMT-0500 (Central Daylight Time),340860.30000000447,015_o_m_n_a.png,O,space,1127,1,1,2210.39999999851,338649.90000000596,7167,VNB,C,0
1,test,5,1.0,1-Back,1,m,Fri Jun 20 2025 15:50:36 GMT-0500 (Central Daylight Time),346174.40000000596,012_o_f_h_a.png,O,m,1141,2,1,2156.7000000029802,344017.700000003,7167,VNB,C,1
2,test,5,0.0,1-Back,1,m,Fri Jun 20 2025 15:50:36 GMT-0500 (Central Daylight Time),348107.5,025_y_m_d_a.png,O,m,901,3,1,1918.8999999985099,346188.6000000015,7167,VNB,C,2
3,test,5,0.0,1-Back,1,z,Fri Jun 20 2025 15:50:36 GMT-0500 (Central Daylight Time),349938.80000000447,015_o_m_d_a.png,O,z,810,4,1,1824.2000000029802,348114.6000000015,7167,VNB,C,3
4,test,5,0.0,1-Back,1,m,Fri Jun 20 2025 15:50:36 GMT-0500 (Central Daylight Time),351656.6000000015,019_m_f_h_a.png,O,m,686,5,1,1705.6000000014901,349951.0,7167,VNB,C,4
5,test,5,0.0,1-Back,1,m,Fri Jun 20 2025 15:50:36 GMT-0500 (Central Daylight Time),354070.80000000447,022_y_f_n_a.png,O,m,1396,6,1,2406.60000000149,351664.200000003,7167,VNB,C,5
6,test,5,1.0,1-Back,1,z,Fri Jun 20 2025 15:50:36 GMT-0500 (Central Daylight Time),356519.0,012_o_f_n_a.png,O,z,1418,7,1,2441.0,354078.0,7167,VNB,C,6
7,test,5,0.0,1-Back,1,m,Fri Jun 20 2025 15:50:36 GMT-0500 (Central Daylight Time),358303.0,019_m_f_d_a.png,O,m,759,8,1,1780.5999999940395,356522.40000000596,7167,VNB,C,7
8,test,5,0.0,1-Back,1,m,Fri Jun 20 2025 15:50:36 GMT-0500 (Central Daylight Time),360485.5,025_y_m_h_a.png,O,m,1154,9,1,2172.6999999955297,358312.80000000447,7167,VNB,C,8
8,test,5,0.0,1-Back,0,m,Fri Jun 20 2025 15:50:36 GMT-0500 (Central Daylight Time),362534.1000000015,022_y_f_d_a.png,O,z,1029,10,1,2040.6999999955297,360493.40000000596,7167,VNB,C,9
9,test,5,0.0,1-Back,1,m,Fri Jun 20 2025 15:50:36 GMT-0500 (Central Daylight Time),364270.0,014_m_m_n_a.png,O,m,718,11,1,1728.1999999955297,362541.80000000447,7167,VNB,C,10
10,test,5,1.0,1-Back,1,z,Fri Jun 20 2025 15:50:36 GMT-0500 (Central Daylight Time),366252.1000000015,019_m_f_n_a.png,O,z,969,12,1,1973.6000000014901,364278.5,7167,VNB,C,11
11,test,5,0.0,1-Back,1,m,Fri Jun 20 2025 15:50:36 GMT-0500 (Central Daylight Time),368083.5,015_o_m_h_a.png,O,m,798,13,1,1823.0999999940395,366260.40000000596,7167,VNB,C,12
12,test,5,0.0,1-Back,1,z,Fri Jun 20 2025 15:50:36 GMT-0500 (Central Daylight Time),370401.700000003,014_m_m_h_a.png,O,z,1288,14,1,2310.2999999970198,368091.40000000596,7167,VNB,C,13
13,test,5,1.0,1-Back,1,m,Fri Jun 20 2025 15:50:36 GMT-0500 (Central Daylight Time),372248.1000000015,012_o_f_d_a.png,O,m,819,15,1,1838.1000000014901,370410.0,7167,VNB,C,14
14,test,5,0.0,1-Back,1,m,Fri Jun 20 2025 15:50:36 GMT-0500 (Central Daylight Time),374264.90000000596,025_y_m_n_a.png,O,m,984,16,1,2008.6000000014901,372256.30000000447,7167,VNB,C,15
15,test,5,0.0,1-Back,1,m,Fri Jun 20 2025 15:50:36 GMT-0500 (Central Daylight Time),376014.90000000596,022_y_f_h_a.png,O,m,719,17,1,1742.8000000044703,374272.1000000015,7167,VNB,C,16
16,test,5,0.0,1-Back,1,m,Fri Jun 20 2025 15:50:36 GMT-0500 (Central Daylight Time),377780.700000003,014_m_m_d_a.png,O,m,741,18,1,1760.2000000029802,376020.5,7167,VNB,C,17
0,prac,1,0.0,2-Back,,,Fri Jun 20 2025 15:50:36 GMT-0500 (Central Daylight Time),377780.700000003,019_m_f_n_a.png,O,space,9183,1,1,1760.2000000029802,376020.5,7167,VNB,C,0
0,prac,1,0.0,2-Back,,,Fri Jun 20 2025 15:50:36 GMT-0500 (Central Daylight Time),377780.700000003,012_o_f_h_a.png,O,space,9183,2,1,1760.2000000029802,376020.5,7167,VNB,C,0
1,prac,1,0.0,2-Back,1,m,Fri Jun 20 2025 15:50:36 GMT-0500 (Central Daylight Time),475565.90000000596,015_o_m_d_a.png,O,m,1423,3,1,2319.60000000149,473246.30000000447,7167,VNB,C,1
2,prac,1,1.0,2-Back,1,z,Fri Jun 20 2025 15:50:36 GMT-0500 (Central Daylight Time),477566.700000003,014_m_m_h_a.png,O,z,1112,4,1,1991.7000000029802,475575.0,7167,VNB,C,2
3,prac,1,0.0,2-Back,1,m,Fri Jun 20 2025 15:50:36 GMT-0500 (Central Daylight Time),480015.80000000447,022_y_f_n_a.png,O,m,1546,5,1,2440.39999999851,477575.40000000596,7167,VNB,C,3
4,prac,1,1.0,2-Back,1,z,Fri Jun 20 2025 15:50:36 GMT-0500 (Central Daylight Time),482298.200000003,015_o_m_h_a.png,O,z,1388,6,1,2271.5,480026.700000003,7167,VNB,C,4
4,prac,1,1.0,2-Back,0,z,Fri Jun 20 2025 15:50:36 GMT-0500 (Central Daylight Time),484213.0,025_y_m_n_a.png,O,m,1045,7,1,1904.5999999940395,482308.40000000596,7167,VNB,C,5
5,prac,1,0.0,2-Back,1,m,Fri Jun 20 2025 15:50:36 GMT-0500 (Central Daylight Time),486531.80000000447,019_m_f_d_a.png,O,m,1424,8,1,2308.60000000149,484223.200000003,7167,VNB,C,6
5,prac,1,0.0,2-Back,0,m,Fri Jun 20 2025 15:50:36 GMT-0500 (Central Daylight Time),488947.90000000596,012_o_f_d_a.png,O,z,1525,9,1,2411.5,486536.40000000596,7167,VNB,C,7
6,prac,1,0.0,2-Back,1,m,Fri Jun 20 2025 15:50:36 GMT-0500 (Central Daylight Time),491561.5,014_m_m_h_a.png,O,m,1823,10,1,2605.1999999955297,488956.30000000447,7167,VNB,C,8
7,prac,1,1.0,2-Back,1,z,Fri Jun 20 2025 15:50:36 GMT-0500 (Central Daylight Time),493611.6000000015,022_y_f_d_a.png,O,z,1139,11,1,2038.6000000014901,491573.0,7167,VNB,C,9
7,prac,1,0.0,2-Back,0,m,Fri Jun 20 2025 15:50:36 GMT-0500 (Central Daylight Time),496126.90000000596,015_o_m_n_a.png,O,z,1611,12,1,2506.8000000044703,493620.1000000015,7167,VNB,C,10
0,prac,2,0.0,2-Back,,,Fri Jun 20 2025 15:50:36 GMT-0500 (Central Daylight Time),496126.90000000596,019_m_f_n_a.png,O,a,4384,1,1,2506.8000000044703,493620.1000000015,7167,VNB,C,0
0,prac,2,0.0,2-Back,,,Fri Jun 20 2025 15:50:36 GMT-0500 (Central Daylight Time),496126.90000000596,012_o_f_h_a.png,O,a,4384,2,1,2506.8000000044703,493620.1000000015,7167,VNB,C,0
0,prac,2,0.0,2-Back,0,m,Fri Jun 20 2025 15:50:36 GMT-0500 (Central Daylight Time),508689.200000003,015_o_m_d_a.png,O,None,2007,3,1,2888.7000000029802,505800.5,7167,VNB,C,1
0,prac,2,1.0,2-Back,0,z,Fri Jun 20 2025 15:50:36 GMT-0500 (Central Daylight Time),511006.1000000015,014_m_m_h_a.png,O,m,1529,4,1,2307.5,508698.6000000015,7167,VNB,C,2
0,prac,2,0.0,2-Back,0,m,Fri Jun 20 2025 15:50:36 GMT-0500 (Central Daylight Time),513656.200000003,022_y_f_n_a.png,O,z,1753,5,1,2641.2999999970198,511014.90000000596,7167,VNB,C,3
0,prac,2,1.0,2-Back,0,z,Fri Jun 20 2025 15:50:36 GMT-0500 (Central Daylight Time),516139.1000000015,015_o_m_h_a.png,O,m,1590,6,1,2474.60000000149,513664.5,7167,VNB,C,4
1,prac,2,1.0,2-Back,1,z,Fri Jun 20 2025 15:50:36 GMT-0500 (Central Daylight Time),518203.0,025_y_m_n_a.png,O,z,1196,7,1,2052.0,516151.0,7167,VNB,C,5
2,prac,2,0.0,2-Back,1,m,Fri Jun 20 2025 15:50:36 GMT-0500 (Central Daylight Time),520469.6000000015,019_m_f_d_a.png,O,m,1372,8,1,2256.5,518213.1000000015,7167,VNB,C,6
3,prac,2,0.0,2-Back,1,m,Fri Jun 20 2025 15:50:36 GMT-0500 (Central Daylight Time),522984.80000000447,012_o_f_d_a.png,O,m,1632,9,1,2507.3000000044703,520477.5,7167,VNB,C,7
4,prac,2,0.0,2-Back,1,m,Fri Jun 20 2025 15:50:36 GMT-0500 (Central Daylight Time),524918.5,014_m_m_h_a.png,O,m,1169,10,1,1924.6999999955297,522993.80000000447,7167,VNB,C,8
5,prac,2,1.0,2-Back,1,z,Fri Jun 20 2025 15:50:36 GMT-0500 (Central Daylight Time),526933.3000000045,022_y_f_d_a.png,O,z,1114,11,1,2006.3000000044703,524927.0,7167,VNB,C,9
6,prac,2,0.0,2-Back,1,m,Fri Jun 20 2025 15:50:36 GMT-0500 (Central Daylight Time),529500.3000000045,015_o_m_n_a.png,O,m,1674,12,1,2556.5,526943.8000000045,7167,VNB,C,10
0,prac,3,0.0,2-Back,,,Fri Jun 20 2025 15:50:36 GMT-0500 (Central Daylight Time),529500.3000000045,019_m_f_n_a.png,O,a,2866,1,1,2556.5,526943.8000000045,7167,VNB,C,0
0,prac,3,0.0,2-Back,,,Fri Jun 20 2025 15:50:36 GMT-0500 (Central Daylight Time),529500.3000000045,012_o_f_h_a.png,O,a,2866,2,1,2556.5,526943.8000000045,7167,VNB,C,0
1,prac,3,0.0,2-Back,1,m,Fri Jun 20 2025 15:50:36 GMT-0500 (Central Daylight Time),539914.0,015_o_m_d_a.png,O,m,1365,3,1,2256.0,537658.0,7167,VNB,C,1
2,prac,3,1.0,2-Back,1,z,Fri Jun 20 2025 15:50:36 GMT-0500 (Central Daylight Time),541846.400000006,014_m_m_h_a.png,O,z,1161,4,1,1923.4000000059605,539923.0,7167,VNB,C,2
3,prac,3,0.0,2-Back,1,m,Fri Jun 20 2025 15:50:36 GMT-0500 (Central Daylight Time),544244.900000006,022_y_f_n_a.png,O,m,1497,5,1,2388.0,541856.900000006,7167,VNB,C,3
4,prac,3,1.0,2-Back,1,z,Fri Jun 20 2025 15:50:36 GMT-0500 (Central Daylight Time),546343.900000006,015_o_m_h_a.png,O,z,1194,6,1,2091.60000000149,544252.3000000045,7167,VNB,C,4
4,prac,3,1.0,2-Back,0,z,Fri Jun 20 2025 15:50:36 GMT-0500 (Central Daylight Time),549027.1000000015,025_y_m_n_a.png,O,m,1796,7,1,2671.6999999955297,546355.400000006,7167,VNB,C,5
5,prac,3,0.0,2-Back,1,m,Fri Jun 20 2025 15:50:36 GMT-0500 (Central Daylight Time),551276.3000000045,019_m_f_d_a.png,O,m,1360,8,1,2241.7000000029802,549034.6000000015,7167,VNB,C,6
6,prac,3,0.0,2-Back,1,m,Fri Jun 20 2025 15:50:36 GMT-0500 (Central Daylight Time),553743.200000003,012_o_f_d_a.png,O,m,1569,9,1,2458.39999999851,551284.8000000045,7167,VNB,C,7
7,prac,3,0.0,2-Back,1,m,Fri Jun 20 2025 15:50:36 GMT-0500 (Central Daylight Time),555691.6000000015,014_m_m_h_a.png,O,m,1170,10,1,1939.2999999970198,553752.3000000045,7167,VNB,C,8
8,prac,3,1.0,2-Back,1,z,Fri Jun 20 2025 15:50:36 GMT-0500 (Central Daylight Time),557541.3000000045,022_y_f_d_a.png,O,z,966,11,1,1842.3000000044703,555699.0,7167,VNB,C,9
9,prac,3,0.0,2-Back,1,m,Fri Jun 20 2025 15:50:36 GMT-0500 (Central Daylight Time),559556.900000006,015_o_m_n_a.png,O,m,1112,12,1,2006.7000000029802,557550.200000003,7167,VNB,C,10
0,test,1,0.0,2-Back,,,Fri Jun 20 2025 15:50:36 GMT-0500 (Central Daylight Time),559556.900000006,025_y_m_h_a.png,O,space,3633,1,1,2006.7000000029802,557550.200000003,7167,VNB,C,0
0,test,1,0.0,2-Back,,,Fri Jun 20 2025 15:50:36 GMT-0500 (Central Daylight Time),559556.900000006,012_o_f_n_a.png,O,space,3633,2,1,2006.7000000029802,557550.200000003,7167,VNB,C,0
1,test,1,0.0,2-Back,1,z,Fri Jun 20 2025 15:50:36 GMT-0500 (Central Daylight Time),576201.400000006,015_o_m_h_a.png,O,z,1860,3,1,2875.9000000059605,573325.5,7167,VNB,C,1
2,test,1,0.0,2-Back,1,m,Fri Jun 20 2025 15:50:36 GMT-0500 (Central Daylight Time),578183.3000000045,019_m_f_d_a.png,O,m,963,4,1,1975.6000000014901,576207.700000003,7167,VNB,C,2
2,test,1,1.0,2-Back,0,m,Fri Jun 20 2025 15:50:36 GMT-0500 (Central Daylight Time),580049.3000000045,025_y_m_n_a.png,O,z,842,5,1,1856.8999999985099,578192.400000006,7167,VNB,C,3
2,test,1,0.0,2-Back,0,z,Fri Jun 20 2025 15:50:36 GMT-0500 (Central Daylight Time),582335.6000000015,022_y_f_d_a.png,O,m,1267,6,1,2276.10000000149,580059.5,7167,VNB,C,4
2,test,1,0.0,2-Back,0,m,Fri Jun 20 2025 15:50:36 GMT-0500 (Central Daylight Time),584598.0,014_m_m_h_a.png,O,z,1249,7,1,2253.0999999940395,582344.900000006,7167,VNB,C,5
3,test,1,1.0,2-Back,1,m,Fri Jun 20 2025 15:50:36 GMT-0500 (Central Daylight Time),586631.200000003,022_y_f_n_a.png,O,m,1013,8,1,2026.8999999985099,584604.3000000045,7167,VNB,C,6
4,test,1,0.0,2-Back,1,z,Fri Jun 20 2025 15:50:36 GMT-0500 (Central Daylight Time),588581.8000000045,012_o_f_h_a.png,O,z,934,9,1,1944.0,586637.8000000045,7167,VNB,C,7
5,test,1,0.0,2-Back,1,m,Fri Jun 20 2025 15:50:36 GMT-0500 (Central Daylight Time),590445.0,015_o_m_d_a.png,O,m,847,10,1,1855.1999999955297,588589.8000000045,7167,VNB,C,8
5,test,1,1.0,2-Back,0,m,Fri Jun 20 2025 15:50:36 GMT-0500 (Central Daylight Time),592716.6000000015,014_m_m_d_a.png,O,z,1244,11,1,2269.1999999955297,590447.400000006,7167,VNB,C,9
6,test,1,0.0,2-Back,1,m,Fri Jun 20 2025 15:50:36 GMT-0500 (Central Daylight Time),594961.3000000045,019_m_f_n_a.png,O,m,1229,12,1,2240.89999999851,592720.400000006,7167,VNB,C,10
7,test,1,0.0,2-Back,1,m,Fri Jun 20 2025 15:50:36 GMT-0500 (Central Daylight Time),596844.900000006,022_y_f_h_a.png,O,m,858,13,1,1876.9000000059605,594968.0,7167,VNB,C,11
8,test,1,0.0,2-Back,1,z,Fri Jun 20 2025 15:50:36 GMT-0500 (Central Daylight Time),598827.200000003,014_m_m_n_a.png,O,z,950,14,1,1973.7000000029802,596853.5,7167,VNB,C,12
9,test,1,0.0,2-Back,1,m,Fri Jun 20 2025 15:50:36 GMT-0500 (Central Daylight Time),600742.400000006,025_y_m_d_a.png,O,m,897,15,1,1908.1000000014901,598834.3000000045,7167,VNB,C,13
9,test,1,1.0,2-Back,0,m,Fri Jun 20 2025 15:50:36 GMT-0500 (Central Daylight Time),602975.1000000015,019_m_f_h_a.png,O,z,1202,16,1,2223.7999999970198,600751.3000000045,7167,VNB,C,14
9,test,1,0.0,2-Back,0,z,Fri Jun 20 2025 15:50:36 GMT-0500 (Central Daylight Time),605023.400000006,012_o_f_d_a.png,O,m,1017,17,1,2040.8000000044703,602982.6000000015,7167,VNB,C,15
10,test,1,0.0,2-Back,1,m,Fri Jun 20 2025 15:50:36 GMT-0500 (Central Daylight Time),606892.8000000045,015_o_m_n_a.png,O,m,851,18,1,1866.3000000044703,605026.5,7167,VNB,C,16
0,test,2,0.0,2-Back,,,Fri Jun 20 2025 15:50:36 GMT-0500 (Central Daylight Time),606892.8000000045,014_m_m_h_a.png,O,space,1558,1,1,1866.3000000044703,605026.5,7167,VNB,C,0
0,test,2,0.0,2-Back,,,Fri Jun 20 2025 15:50:36 GMT-0500 (Central Daylight Time),606892.8000000045,022_y_f_n_a.png,O,space,1558,2,1,1866.3000000044703,605026.5,7167,VNB,C,0
1,test,2,1.0,2-Back,1,z,Fri Jun 20 2025 15:50:36 GMT-0500 (Central Daylight Time),616302.900000006,012_o_f_h_a.png,O,z,1578,3,1,2586.8000000044703,613716.1000000015,7167,VNB,C,1
2,test,2,0.0,2-Back,1,m,Fri Jun 20 2025 15:50:36 GMT-0500 (Central Daylight Time),618237.3000000045,015_o_m_d_a.png,O,m,914,4,1,1924.7000000029802,616312.6000000015,7167,VNB,C,2
3,test,2,0.0,2-Back,1,m,Fri Jun 20 2025 15:50:36 GMT-0500 (Central Daylight Time),620471.400000006,019_m_f_d_a.png,O,m,1213,5,1,2228.2000000029802,618243.200000003,7167,VNB,C,3
4,test,2,0.0,2-Back,1,m,Fri Jun 20 2025 15:50:36 GMT-0500 (Central Daylight Time),622786.200000003,025_y_m_h_a.png,O,m,1293,6,1,2304.5,620481.700000003,7167,VNB,C,4
5,test,2,0.0,2-Back,1,m,Fri Jun 20 2025 15:50:36 GMT-0500 (Central Daylight Time),625101.3000000045,012_o_f_n_a.png,O,m,1289,7,1,2306.89999999851,622794.400000006,7167,VNB,C,5
5,test,2,1.0,2-Back,0,z,Fri Jun 20 2025 15:50:36 GMT-0500 (Central Daylight Time),627234.400000006,015_o_m_h_a.png,O,m,1110,8,1,2122.5,625111.900000006,7167,VNB,C,6
5,test,2,0.0,2-Back,0,m,Fri Jun 20 2025 15:50:36 GMT-0500 (Central Daylight Time),629567.1000000015,022_y_f_d_a.png,O,z,1305,9,1,2326.39999999851,627240.700000003,7167,VNB,C,7
6,test,2,0.0,2-Back,1,m,Fri Jun 20 2025 15:50:36 GMT-0500 (Central Daylight Time),631616.400000006,025_y_m_d_a.png,O,m,1020,10,1,2042.7000000029802,629573.700000003,7167,VNB,C,8
7,test,2,0.0,2-Back,1,m,Fri Jun 20 2025 15:50:36 GMT-0500 (Central Daylight Time),633850.6000000015,014_m_m_n_a.png,O,m,1202,11,1,2225.60000000149,631625.0,7167,VNB,C,9
8,test,2,0.0,2-Back,1,m,Fri Jun 20 2025 15:50:36 GMT-0500 (Central Daylight Time),635666.5,019_m_f_h_a.png,O,m,785,12,1,1806.8999999985099,633859.6000000015,7167,VNB,C,10
9,test,2,1.0,2-Back,1,z,Fri Jun 20 2025 15:50:36 GMT-0500 (Central Daylight Time),637731.8000000045,015_o_m_n_a.png,O,z,1032,13,1,2056.2000000029802,635675.6000000015,7167,VNB,C,11
10,test,2,0.0,2-Back,1,m,Fri Jun 20 2025 15:50:36 GMT-0500 (Central Daylight Time),639597.8000000045,012_o_f_d_a.png,O,m,838,14,1,1858.8999999985099,637738.900000006,7167,VNB,C,12
11,test,2,0.0,2-Back,1,m,Fri Jun 20 2025 15:50:36 GMT-0500 (Central Daylight Time),641663.400000006,022_y_f_h_a.png,O,m,1037,15,1,2063.10000000149,639600.3000000045,7167,VNB,C,13
12,test,2,0.0,2-Back,1,z,Fri Jun 20 2025 15:50:36 GMT-0500 (Central Daylight Time),643579.8000000045,014_m_m_d_a.png,O,z,891,16,1,1907.5,641672.3000000045,7167,VNB,C,14
13,test,2,0.0,2-Back,1,m,Fri Jun 20 2025 15:50:36 GMT-0500 (Central Daylight Time),645944.900000006,025_y_m_n_a.png,O,m,1343,17,1,2355.10000000149,643589.8000000045,7167,VNB,C,15
14,test,2,1.0,2-Back,1,m,Fri Jun 20 2025 15:50:36 GMT-0500 (Central Daylight Time),648328.700000003,019_m_f_n_a.png,O,m,1366,18,1,2375.7999999970198,645952.900000006,7167,VNB,C,16
0,test,3,1.0,2-Back,,,Fri Jun 20 2025 15:50:36 GMT-0500 (Central Daylight Time),648328.700000003,015_o_m_n_a.png,O,space,1316,1,1,2375.7999999970198,645952.900000006,7167,VNB,C,0
0,test,3,1.0,2-Back,,,Fri Jun 20 2025 15:50:36 GMT-0500 (Central Daylight Time),648328.700000003,012_o_f_d_a.png,O,space,1316,2,1,2375.7999999970198,645952.900000006,7167,VNB,C,0
1,test,3,0.0,2-Back,1,m,Fri Jun 20 2025 15:50:36 GMT-0500 (Central Daylight Time),656792.400000006,022_y_f_h_a.png,O,m,1066,3,1,2090.7000000029802,654701.700000003,7167,VNB,C,1
2,test,3,0.0,2-Back,1,z,Fri Jun 20 2025 15:50:36 GMT-0500 (Central Daylight Time),659309.1000000015,019_m_f_d_a.png,O,z,1483,4,1,2507.89999999851,656801.200000003,7167,VNB,C,2
3,test,3,1.0,2-Back,1,m,Fri Jun 20 2025 15:50:36 GMT-0500 (Central Daylight Time),661456.900000006,025_y_m_n_a.png,O,m,1118,5,1,2138.5,659318.400000006,7167,VNB,C,3
4,test,3,0.0,2-Back,1,m,Fri Jun 20 2025 15:50:36 GMT-0500 (Central Daylight Time),663323.5,015_o_m_h_a.png,O,m,834,6,1,1859.7999999970198,661463.700000003,7167,VNB,C,4
5,test,3,0.0,2-Back,1,z,Fri Jun 20 2025 15:50:36 GMT-0500 (Central Daylight Time),665221.900000006,022_y_f_n_a.png,O,z,871,7,1,1888.1000000014901,663333.8000000045,7167,VNB,C,5
5,test,3,1.0,2-Back,0,m,Fri Jun 20 2025 15:50:36 GMT-0500 (Central Daylight Time),667355.400000006,014_m_m_d_a.png,O,z,1109,8,1,2130.3000000044703,665225.1000000015,7167,VNB,C,6
6,test,3,0.0,2-Back,1,m,Fri Jun 20 2025 15:50:36 GMT-0500 (Central Daylight Time),669571.6000000015,025_y_m_d_a.png,O,m,1191,9,1,2208.39999999851,667363.200000003,7167,VNB,C,7
7,test,3,0.0,2-Back,1,m,Fri Jun 20 2025 15:50:36 GMT-0500 (Central Daylight Time),671487.1000000015,012_o_f_h_a.png,O,m,889,10,1,1908.1999999955297,669578.900000006,7167,VNB,C,8
8,test,3,1.0,2-Back,1,m,Fri Jun 20 2025 15:50:36 GMT-0500 (Central Daylight Time),673603.6000000015,019_m_f_n_a.png,O,m,1091,11,1,2107.0,671496.6000000015,7167,VNB,C,9
8,test,3,1.0,2-Back,0,z,Fri Jun 20 2025 15:50:36 GMT-0500 (Central Daylight Time),675767.8000000045,014_m_m_h_a.png,O,m,1135,12,1,2154.8000000044703,673613.0,7167,VNB,C,10
9,test,3,0.0,2-Back,1,m,Fri Jun 20 2025 15:50:36 GMT-0500 (Central Daylight Time),677902.200000003,022_y_f_d_a.png,O,m,1107,13,1,2128.39999999851,675773.8000000045,7167,VNB,C,11
9,test,3,0.0,2-Back,0,m,Fri Jun 20 2025 15:50:36 GMT-0500 (Central Daylight Time),679818.0,012_o_f_n_a.png,O,z,886,14,1,1907.7999999970198,677910.200000003,7167,VNB,C,12
10,test,3,0.0,2-Back,1,z,Fri Jun 20 2025 15:50:36 GMT-0500 (Central Daylight Time),682101.900000006,015_o_m_d_a.png,O,z,1266,15,1,2276.5,679825.400000006,7167,VNB,C,13
11,test,3,1.0,2-Back,1,m,Fri Jun 20 2025 15:50:36 GMT-0500 (Central Daylight Time),684216.3000000045,019_m_f_h_a.png,O,m,1086,16,1,2108.8000000044703,682107.5,7167,VNB,C,14
12,test,3,0.0,2-Back,1,m,Fri Jun 20 2025 15:50:36 GMT-0500 (Central Daylight Time),686504.0,014_m_m_n_a.png,O,m,1257,17,1,2280.5,684223.5,7167,VNB,C,15
13,test,3,0.0,2-Back,1,z,Fri Jun 20 2025 15:50:36 GMT-0500 (Central Daylight Time),688615.8000000045,025_y_m_h_a.png,O,z,1101,18,1,2109.2000000029802,686506.6000000015,7167,VNB,C,16
0,test,4,0.0,2-Back,,,Fri Jun 20 2025 15:50:36 GMT-0500 (Central Daylight Time),688615.8000000045,019_m_f_n_a.png,O,space,1316,1,1,2109.2000000029802,686506.6000000015,7167,VNB,C,0
0,test,4,0.0,2-Back,,,Fri Jun 20 2025 15:50:36 GMT-0500 (Central Daylight Time),688615.8000000045,015_o_m_n_a.png,O,space,1316,2,1,2109.2000000029802,686506.6000000015,7167,VNB,C,0
1,test,4,1.0,2-Back,1,m,Fri Jun 20 2025 15:50:36 GMT-0500 (Central Daylight Time),697414.0,025_y_m_h_a.png,O,m,1150,3,1,2176.2999999970198,695237.700000003,7167,VNB,C,1
2,test,4,1.0,2-Back,1,m,Fri Jun 20 2025 15:50:36 GMT-0500 (Central Daylight Time),699629.1000000015,012_o_f_d_a.png,O,m,1190,4,1,2206.0,697423.1000000015,7167,VNB,C,2
2,test,4,0.0,2-Back,0,z,Fri Jun 20 2025 15:50:36 GMT-0500 (Central Daylight Time),701661.200000003,015_o_m_h_a.png,O,m,1006,5,1,2022.8999999985099,699638.3000000045,7167,VNB,C,3
2,test,4,0.0,2-Back,0,m,Fri Jun 20 2025 15:50:36 GMT-0500 (Central Daylight Time),703760.5,014_m_m_n_a.png,O,z,1069,6,1,2096.39999999851,701664.1000000015,7167,VNB,C,4
2,test,4,0.0,2-Back,0,m,Fri Jun 20 2025 15:50:36 GMT-0500 (Central Daylight Time),706060.3000000045,019_m_f_d_a.png,O,z,1282,7,1,2292.60000000149,703767.700000003,7167,VNB,C,5
3,test,4,0.0,2-Back,1,z,Fri Jun 20 2025 15:50:36 GMT-0500 (Central Daylight Time),708459.400000006,022_y_f_n_a.png,O,z,1374,8,1,2392.7000000029802,706066.700000003,7167,VNB,C,6
4,test,4,1.0,2-Back,1,m,Fri Jun 20 2025 15:50:36 GMT-0500 (Central Daylight Time),710212.1000000015,012_o_f_h_a.png,O,m,727,9,1,1743.8999999985099,708468.200000003,7167,VNB,C,7
5,test,4,0.0,2-Back,1,m,Fri Jun 20 2025 15:50:36 GMT-0500 (Central Daylight Time),712407.0,014_m_m_h_a.png,O,m,1183,10,1,2191.7999999970198,710215.200000003,7167,VNB,C,8
6,test,4,0.0,2-Back,1,m,Fri Jun 20 2025 15:50:36 GMT-0500 (Central Daylight Time),714623.8000000045,022_y_f_d_a.png,O,m,1197,11,1,2208.0,712415.8000000045,7167,VNB,C,9
7,test,4,0.0,2-Back,1,m,Fri Jun 20 2025 15:50:36 GMT-0500 (Central Daylight Time),716789.0,025_y_m_n_a.png,O,m,1140,12,1,2157.5,714631.5,7167,VNB,C,10
8,test,4,0.0,2-Back,1,z,Fri Jun 20 2025 15:50:36 GMT-0500 (Central Daylight Time),718738.0,015_o_m_d_a.png,O,z,925,13,1,1942.0999999940395,716795.900000006,7167,VNB,C,11
9,test,4,1.0,2-Back,1,m,Fri Jun 20 2025 15:50:36 GMT-0500 (Central Daylight Time),720721.900000006,019_m_f_h_a.png,O,m,951,14,1,1975.7000000029802,718746.200000003,7167,VNB,C,12
9,test,4,1.0,2-Back,0,m,Fri Jun 20 2025 15:50:36 GMT-0500 (Central Daylight Time),722770.1000000015,022_y_f_h_a.png,O,z,1026,15,1,2039.1999999955297,720730.900000006,7167,VNB,C,13
10,test,4,0.0,2-Back,1,m,Fri Jun 20 2025 15:50:36 GMT-0500 (Central Daylight Time),724802.900000006,012_o_f_n_a.png,O,m,1008,16,1,2027.4000000059605,722775.5,7167,VNB,C,14
11,test,4,0.0,2-Back,1,m,Fri Jun 20 2025 15:50:36 GMT-0500 (Central Daylight Time),727054.3000000045,025_y_m_d_a.png,O,m,1232,17,1,2244.89999999851,724809.400000006,7167,VNB,C,15
12,test,4,1.0,2-Back,1,m,Fri Jun 20 2025 15:50:36 GMT-0500 (Central Daylight Time),728988.1000000015,014_m_m_d_a.png,O,m,903,18,1,1926.6000000014901,727061.5,7167,VNB,C,16
0,test,5,1.0,2-Back,,,Fri Jun 20 2025 15:50:36 GMT-0500 (Central Daylight Time),728988.1000000015,022_y_f_d_a.png,O,space,1198,1,1,1926.6000000014901,727061.5,7167,VNB,C,0
0,test,5,1.0,2-Back,,,Fri Jun 20 2025 15:50:36 GMT-0500 (Central Daylight Time),728988.1000000015,012_o_f_h_a.png,O,space,1198,2,1,1926.6000000014901,727061.5,7167,VNB,C,0
1,test,5,1.0,2-Back,1,z,Fri Jun 20 2025 15:50:36 GMT-0500 (Central Daylight Time),738416.6000000015,015_o_m_d_a.png,O,z,1886,3,1,2905.39999999851,735511.200000003,7167,VNB,C,1
2,test,5,1.0,2-Back,1,m,Fri Jun 20 2025 15:50:36 GMT-0500 (Central Daylight Time),740365.3000000045,019_m_f_n_a.png,O,m,922,4,1,1941.1000000014901,738424.200000003,7167,VNB,C,2
3,test,5,0.0,2-Back,1,m,Fri Jun 20 2025 15:50:36 GMT-0500 (Central Daylight Time),742465.5,014_m_m_h_a.png,O,m,1071,5,1,2091.6999999955297,740373.8000000045,7167,VNB,C,3
4,test,5,0.0,2-Back,1,z,Fri Jun 20 2025 15:50:36 GMT-0500 (Central Daylight Time),744497.6000000015,022_y_f_n_a.png,O,z,1002,6,1,2024.5,742473.1000000015,7167,VNB,C,4
4,test,5,0.0,2-Back,0,m,Fri Jun 20 2025 15:50:36 GMT-0500 (Central Daylight Time),747045.1000000015,012_o_f_d_a.png,O,z,1520,7,1,2539.7999999970198,744505.3000000045,7167,VNB,C,5
5,test,5,0.0,2-Back,1,m,Fri Jun 20 2025 15:50:36 GMT-0500 (Central Daylight Time),749013.0,015_o_m_h_a.png,O,m,940,8,1,1961.5,747051.5,7167,VNB,C,6
5,test,5,1.0,2-Back,0,z,Fri Jun 20 2025 15:50:36 GMT-0500 (Central Daylight Time),751612.5,019_m_f_d_a.png,O,m,1564,9,1,2590.2999999970198,749022.200000003,7167,VNB,C,7
5,test,5,0.0,2-Back,0,m,Fri Jun 20 2025 15:50:36 GMT-0500 (Central Daylight Time),753795.1000000015,025_y_m_n_a.png,O,z,1159,10,1,2173.6999999955297,751621.400000006,7167,VNB,C,8
6,test,5,0.0,2-Back,1,m,Fri Jun 20 2025 15:50:36 GMT-0500 (Central Daylight Time),755810.700000003,014_m_m_n_a.png,O,m,991,11,1,2007.0,753803.700000003,7167,VNB,C,9
7,test,5,0.0,2-Back,1,m,Fri Jun 20 2025 15:50:36 GMT-0500 (Central Daylight Time),757859.400000006,022_y_f_h_a.png,O,m,1024,12,1,2034.1000000014901,755825.3000000045,7167,VNB,C,10
8,test,5,0.0,2-Back,1,m,Fri Jun 20 2025 15:50:36 GMT-0500 (Central Daylight Time),760275.0,025_y_m_d_a.png,O,m,1392,13,1,2406.0999999940395,757868.900000006,7167,VNB,C,11
9,test,5,1.0,2-Back,1,z,Fri Jun 20 2025 15:50:36 GMT-0500 (Central Daylight Time),762574.0,019_m_f_h_a.png,O,z,1272,14,1,2296.39999999851,760277.6000000015,7167,VNB,C,12
10,test,5,0.0,2-Back,1,m,Fri Jun 20 2025 15:50:36 GMT-0500 (Central Daylight Time),764792.3000000045,015_o_m_n_a.png,O,m,1199,15,1,2213.89999999851,762578.400000006,7167,VNB,C,13
11,test,5,0.0,2-Back,1,m,Fri Jun 20 2025 15:50:36 GMT-0500 (Central Daylight Time),767090.1000000015,014_m_m_d_a.png,O,m,1277,16,1,2289.2999999970198,764800.8000000045,7167,VNB,C,14
12,test,5,0.0,2-Back,1,z,Fri Jun 20 2025 15:50:36 GMT-0500 (Central Daylight Time),768873.400000006,012_o_f_n_a.png,O,z,758,17,1,1775.3000000044703,767098.1000000015,7167,VNB,C,15
13,test,5,1.0,2-Back,1,m,Fri Jun 20 2025 15:50:36 GMT-0500 (Central Daylight Time),770923.1000000015,025_y_m_h_a.png,O,m,1027,18,1,2041.7999999970198,768881.3000000045,7167,VNB,C,16
