acc_sum,block,block_c,block_cond,con_img,correct,correct_response,datetime,endtime,face,jitter,line,project,response,response_time,row_sel,session_number,start_end,starttime,subject_id,task,task_vers,trial
0,prac,1,A,haborder.png,0,z,Thu Mar 26 2026 10:42:24 GMT-0500 (Central Daylight Time),67924.19999980927,CFD-BF-002-018-A.jpg,1200,solid,O,None,1516,6,1,3514.0999999046326,64410.09999990463,7778,ATS,C,1
1,prac,1,A,haborder.png,1,z,Thu Mar 26 2026 10:42:24 GMT-0500 (Central Daylight Time),71722.79999995232,CFD-WM-036-018-A.jpg,1900,solid,O,z,1101,8,1,7312.700000047684,64410.09999990463,7778,ATS,C,2
2,prac,1,A,haborder.png,1,m,Thu Mar 26 2026 10:42:24 GMT-0500 (Central Daylight Time),74905.29999995232,CFD-WF-013-009-HC.jpg,1500,solid,O,m,886,11,1,10495.200000047684,64410.09999990463,7778,ATS,C,3
2,prac,1,A,haborder.png,0,z,Thu Mar 26 2026 10:42:24 GMT-0500 (Central Daylight Time),78803.59999990463,CFD-BM-043-014-A.jpg,1600,solid,O,None,1516,2,1,14393.5,64410.09999990463,7778,ATS,C,4
3,prac,1,A,haborder.png,1,m,Thu Mar 26 2026 10:42:24 GMT-0500 (Central Daylight Time),81770.39999985695,CFD-WM-028-005-HC.jpg,1400,solid,O,m,772,7,1,17360.299999952316,64410.09999990463,7778,ATS,C,5
4,prac,1,A,haborder.png,1,z,Thu Mar 26 2026 10:42:24 GMT-0500 (Central Daylight Time),84937.0,CFD-WF-037-016-A.jpg,1600,solid,O,z,783,10,1,20526.900000095367,64410.09999990463,7778,ATS,C,6
4,prac,1,A,haborder.png,0,m,Thu Mar 26 2026 10:42:24 GMT-0500 (Central Daylight Time),89233.59999990463,CFD-BF-019-004-HC.jpg,2000,solid,O,None,1515,5,1,24823.5,64410.09999990463,7778,ATS,C,7
5,prac,1,A,haborder.png,1,z,Thu Mar 26 2026 10:42:24 GMT-0500 (Central Daylight Time),91965.29999995232,CFD-WF-023-013-A.jpg,1000,solid,O,z,940,12,1,27555.200000047684,64410.09999990463,7778,ATS,C,8
6,prac,1,A,haborder.png,1,m,Thu Mar 26 2026 10:42:24 GMT-0500 (Central Daylight Time),95497.59999990463,CFD-WM-035-036-HC.jpg,1700,solid,O,m,1035,9,1,31087.5,64410.09999990463,7778,ATS,C,9
7,prac,1,A,haborder.png,1,m,Thu Mar 26 2026 10:42:24 GMT-0500 (Central Daylight Time),98930.39999985695,CFD-BM-034-035-HC.jpg,1700,solid,O,m,935,1,1,34520.299999952316,64410.09999990463,7778,ATS,C,10
8,prac,1,A,haborder.png,1,m,Thu Mar 26 2026 10:42:24 GMT-0500 (Central Daylight Time),102196.69999980927,CFD-BM-022-004-HC.jpg,1500,solid,O,m,989,3,1,37786.59999990463,64410.09999990463,7778,ATS,C,11
9,prac,1,A,haborder.png,1,z,Thu Mar 26 2026 10:42:24 GMT-0500 (Central Daylight Time),104880.09999990463,CFD-BF-031-020-A.jpg,1000,solid,O,z,890,4,1,40470.0,64410.09999990463,7778,ATS,C,12
1,prac,1,B,mfborder.png,1,z,Thu Mar 26 2026 10:42:24 GMT-0500 (Central Daylight Time),143789.39999985695,CFD-WF-037-016-A.jpg,1500,11,O,z,1338,dash,1,3623.399999856949,140166.0,7778,ATS,C,1
1,prac,1,B,mfborder.png,0,z,Thu Mar 26 2026 10:42:24 GMT-0500 (Central Daylight Time),147581.19999980927,CFD-BF-042-031-HC.jpg,1500,3,O,None,1515,dash,1,7415.199999809265,140166.0,7778,ATS,C,2
2,prac,1,B,mfborder.png,1,m,Thu Mar 26 2026 10:42:24 GMT-0500 (Central Daylight Time),150713.79999995232,CFD-BM-021-026-A.jpg,1600,2,O,m,742,dash,1,10547.799999952316,140166.0,7778,ATS,C,3
2,prac,1,B,mfborder.png,0,z,Thu Mar 26 2026 10:42:24 GMT-0500 (Central Daylight Time),153513.09999990463,CFD-WF-013-009-HC.jpg,1000,12,O,m,1012,dash,1,13347.099999904633,140166.0,7778,ATS,C,4
3,prac,1,B,mfborder.png,1,m,Thu Mar 26 2026 10:42:24 GMT-0500 (Central Daylight Time),156979.5,CFD-WM-036-018-A.jpg,1700,9,O,m,968,dash,1,16813.5,140166.0,7778,ATS,C,5
4,prac,1,B,mfborder.png,1,z,Thu Mar 26 2026 10:42:24 GMT-0500 (Central Daylight Time),160310.59999990463,CFD-BF-019-004-HC.jpg,1400,7,O,z,1143,dash,1,20144.599999904633,140166.0,7778,ATS,C,6
5,prac,1,B,mfborder.png,1,m,Thu Mar 26 2026 10:42:24 GMT-0500 (Central Daylight Time),163876.0,CFD-WM-035-036-HC.jpg,1600,10,O,m,1176,dash,1,23710.0,140166.0,7778,ATS,C,7
6,prac,1,B,mfborder.png,1,z,Thu Mar 26 2026 10:42:24 GMT-0500 (Central Daylight Time),167724.79999995232,CFD-WF-001-010-HC.jpg,1900,8,O,z,1141,dash,1,27558.799999952316,140166.0,7778,ATS,C,8
7,prac,1,B,mfborder.png,1,m,Thu Mar 26 2026 10:42:24 GMT-0500 (Central Daylight Time),170507.5,CFD-WM-034-040-A.jpg,1200,6,O,m,799,dash,1,30341.5,140166.0,7778,ATS,C,9
8,prac,1,B,mfborder.png,1,z,Thu Mar 26 2026 10:42:24 GMT-0500 (Central Daylight Time),173273.09999990463,CFD-BF-031-020-A.jpg,1000,4,O,z,971,dash,1,33107.09999990463,140166.0,7778,ATS,C,10
9,prac,1,B,mfborder.png,1,m,Thu Mar 26 2026 10:42:24 GMT-0500 (Central Daylight Time),176191.09999990463,CFD-BM-043-014-A.jpg,2000,5,O,m,117,dash,1,36025.09999990463,140166.0,7778,ATS,C,11
10,prac,1,B,mfborder.png,1,m,Thu Mar 26 2026 10:42:24 GMT-0500 (Central Daylight Time),179389.5,CFD-BM-022-004-HC.jpg,1700,1,O,m,716,dash,1,39223.5,140166.0,7778,ATS,C,12
0,test,1,A,haborder.png,0,z,Thu Mar 26 2026 10:42:24 GMT-0500 (Central Daylight Time),203064.5,CFD-BM-043-014-A.jpg,1600,solid,O,m,1382,2,1,3000.0,200064.5,7778,ATS,C,1
1,test,1,A,haborder.png,1,z,Thu Mar 26 2026 10:42:24 GMT-0500 (Central Daylight Time),205380.5,CFD-BF-002-018-A.jpg,1200,solid,O,z,1085,6,1,5316.0,200064.5,7778,ATS,C,2
2,test,1,A,haborder.png,1,m,Thu Mar 26 2026 10:42:24 GMT-0500 (Central Daylight Time),208496.59999990463,CFD-BF-019-004-HC.jpg,2000,solid,O,m,1098,5,1,8432.099999904633,200064.5,7778,ATS,C,3
3,test,1,A,haborder.png,1,m,Thu Mar 26 2026 10:42:24 GMT-0500 (Central Daylight Time),210645.09999990463,CFD-WM-028-005-HC.jpg,1400,solid,O,m,724,7,1,10580.599999904633,200064.5,7778,ATS,C,4
4,test,1,A,haborder.png,1,m,Thu Mar 26 2026 10:42:24 GMT-0500 (Central Daylight Time),212894.09999990463,CFD-WF-013-009-HC.jpg,1500,solid,O,m,723,11,1,12829.599999904633,200064.5,7778,ATS,C,5
5,test,1,A,haborder.png,1,z,Thu Mar 26 2026 10:42:24 GMT-0500 (Central Daylight Time),216010.09999990463,CFD-WM-036-018-A.jpg,1900,solid,O,z,1197,8,1,15945.599999904633,200064.5,7778,ATS,C,6
6,test,1,A,haborder.png,1,z,Thu Mar 26 2026 10:42:24 GMT-0500 (Central Daylight Time),217776.59999990463,CFD-WF-023-013-A.jpg,1000,solid,O,z,740,12,1,17712.099999904633,200064.5,7778,ATS,C,7
7,test,1,A,haborder.png,1,m,Thu Mar 26 2026 10:42:24 GMT-0500 (Central Daylight Time),220574.89999985695,CFD-BF-019-004-HC.jpg,2000,solid,O,m,782,5,1,20510.39999985695,200064.5,7778,ATS,C,8
8,test,1,A,haborder.png,1,m,Thu Mar 26 2026 10:42:24 GMT-0500 (Central Daylight Time),223025.0,CFD-BM-034-035-HC.jpg,1700,solid,O,m,733,1,1,22960.5,200064.5,7778,ATS,C,9
9,test,1,A,haborder.png,1,z,Thu Mar 26 2026 10:42:24 GMT-0500 (Central Daylight Time),225507.09999990463,CFD-WF-037-016-A.jpg,1600,solid,O,z,859,10,1,25442.599999904633,200064.5,7778,ATS,C,10
10,test,1,A,haborder.png,1,m,Thu Mar 26 2026 10:42:24 GMT-0500 (Central Daylight Time),227823.19999980927,CFD-BM-022-004-HC.jpg,1500,solid,O,m,791,3,1,27758.699999809265,200064.5,7778,ATS,C,11
11,test,1,A,haborder.png,1,z,Thu Mar 26 2026 10:42:24 GMT-0500 (Central Daylight Time),230987.5,CFD-WM-036-018-A.jpg,1900,solid,O,z,1235,8,1,30923.0,200064.5,7778,ATS,C,12
12,test,1,A,haborder.png,1,z,Thu Mar 26 2026 10:42:24 GMT-0500 (Central Daylight Time),233553.39999985695,CFD-WF-037-016-A.jpg,1600,solid,O,z,936,10,1,33488.89999985695,200064.5,7778,ATS,C,13
13,test,1,A,haborder.png,1,m,Thu Mar 26 2026 10:42:24 GMT-0500 (Central Daylight Time),236286.79999995232,CFD-WM-035-036-HC.jpg,1700,solid,O,m,1006,9,1,36222.299999952316,200064.5,7778,ATS,C,14
14,test,1,A,haborder.png,1,m,Thu Mar 26 2026 10:42:24 GMT-0500 (Central Daylight Time),238768.79999995232,CFD-WM-035-036-HC.jpg,1700,solid,O,m,761,9,1,38704.299999952316,200064.5,7778,ATS,C,15
15,test,1,A,haborder.png,1,z,Thu Mar 26 2026 10:42:24 GMT-0500 (Central Daylight Time),240652.89999985695,CFD-BF-031-020-A.jpg,1000,solid,O,z,850,4,1,40588.39999985695,200064.5,7778,ATS,C,16
16,test,1,A,haborder.png,1,z,Thu Mar 26 2026 10:42:24 GMT-0500 (Central Daylight Time),242452.09999990463,CFD-WF-023-013-A.jpg,1000,solid,O,z,779,12,1,42387.59999990463,200064.5,7778,ATS,C,17
17,test,1,A,haborder.png,1,m,Thu Mar 26 2026 10:42:24 GMT-0500 (Central Daylight Time),245050.29999995232,CFD-BM-034-035-HC.jpg,1700,solid,O,m,869,1,1,44985.799999952316,200064.5,7778,ATS,C,18
17,test,1,A,haborder.png,0,z,Thu Mar 26 2026 10:42:24 GMT-0500 (Central Daylight Time),248049.89999985695,CFD-BM-043-014-A.jpg,1600,solid,O,m,1371,2,1,47985.39999985695,200064.5,7778,ATS,C,19
18,test,1,A,haborder.png,1,m,Thu Mar 26 2026 10:42:24 GMT-0500 (Central Daylight Time),250148.79999995232,CFD-WM-028-005-HC.jpg,1400,solid,O,m,667,7,1,50084.299999952316,200064.5,7778,ATS,C,20
19,test,1,A,haborder.png,1,m,Thu Mar 26 2026 10:42:24 GMT-0500 (Central Daylight Time),252383.09999990463,CFD-WF-013-009-HC.jpg,1500,solid,O,m,717,11,1,52318.59999990463,200064.5,7778,ATS,C,21
20,test,1,A,haborder.png,1,z,Thu Mar 26 2026 10:42:24 GMT-0500 (Central Daylight Time),254514.79999995232,CFD-BF-002-018-A.jpg,1200,solid,O,z,906,6,1,54450.299999952316,200064.5,7778,ATS,C,22
21,test,1,A,haborder.png,1,m,Thu Mar 26 2026 10:42:24 GMT-0500 (Central Daylight Time),257048.59999990463,CFD-BM-022-004-HC.jpg,1500,solid,O,m,1016,3,1,56984.09999990463,200064.5,7778,ATS,C,23
22,test,1,A,haborder.png,1,z,Thu Mar 26 2026 10:42:24 GMT-0500 (Central Daylight Time),258879.39999985695,CFD-BF-031-020-A.jpg,1000,solid,O,z,807,4,1,58814.89999985695,200064.5,7778,ATS,C,24
1,test,1,B,mfborder.png,1,z,Thu Mar 26 2026 10:42:24 GMT-0500 (Central Daylight Time),275741.59999990463,CFD-BF-019-004-HC.jpg,1400,dash,O,z,1008,7,1,2433.5999999046326,273308.0,7778,ATS,C,1
2,test,1,B,mfborder.png,1,z,Thu Mar 26 2026 10:42:24 GMT-0500 (Central Daylight Time),277941.09999990463,CFD-BF-019-004-HC.jpg,1400,dash,O,z,779,7,1,4633.099999904633,273308.0,7778,ATS,C,2
3,test,1,B,mfborder.png,1,z,Thu Mar 26 2026 10:42:24 GMT-0500 (Central Daylight Time),279774.59999990463,CFD-WF-013-009-HC.jpg,1000,dash,O,z,816,12,1,6466.599999904633,273308.0,7778,ATS,C,3
4,test,1,B,mfborder.png,1,m,Thu Mar 26 2026 10:42:24 GMT-0500 (Central Daylight Time),282139.19999980927,CFD-BM-022-004-HC.jpg,1700,dash,O,m,636,1,1,8831.199999809265,273308.0,7778,ATS,C,4
5,test,1,B,mfborder.png,1,m,Thu Mar 26 2026 10:42:24 GMT-0500 (Central Daylight Time),285070.19999980927,CFD-WM-036-018-A.jpg,1700,dash,O,m,1204,9,1,11762.199999809265,273308.0,7778,ATS,C,5
6,test,1,B,mfborder.png,1,m,Thu Mar 26 2026 10:42:24 GMT-0500 (Central Daylight Time),288452.89999985695,CFD-BM-043-014-A.jpg,2000,dash,O,m,1350,5,1,15144.899999856949,273308.0,7778,ATS,C,6
7,test,1,B,mfborder.png,1,m,Thu Mar 26 2026 10:42:24 GMT-0500 (Central Daylight Time),290769.5,CFD-WM-035-036-HC.jpg,1600,dash,O,m,699,10,1,17461.5,273308.0,7778,ATS,C,7
8,test,1,B,mfborder.png,1,z,Thu Mar 26 2026 10:42:24 GMT-0500 (Central Daylight Time),293019.19999980927,CFD-WF-037-016-A.jpg,1500,dash,O,z,727,11,1,19711.199999809265,273308.0,7778,ATS,C,8
9,test,1,B,mfborder.png,1,m,Thu Mar 26 2026 10:42:24 GMT-0500 (Central Daylight Time),295951.0,CFD-BM-043-014-A.jpg,2000,dash,O,m,903,5,1,22643.0,273308.0,7778,ATS,C,9
10,test,1,B,mfborder.png,1,z,Thu Mar 26 2026 10:42:24 GMT-0500 (Central Daylight Time),297800.0,CFD-BF-031-020-A.jpg,1000,dash,O,z,822,4,1,24492.0,273308.0,7778,ATS,C,10
10,test,1,B,mfborder.png,0,z,Thu Mar 26 2026 10:42:24 GMT-0500 (Central Daylight Time),300334.59999990463,CFD-BF-031-020-A.jpg,1000,dash,O,None,1515,4,1,27026.599999904633,273308.0,7778,ATS,C,11
11,test,1,B,mfborder.png,1,m,Thu Mar 26 2026 10:42:24 GMT-0500 (Central Daylight Time),302216.0,CFD-WM-034-040-A.jpg,1200,dash,O,m,656,6,1,28908.0,273308.0,7778,ATS,C,12
12,test,1,B,mfborder.png,1,z,Thu Mar 26 2026 10:42:24 GMT-0500 (Central Daylight Time),304881.0,CFD-WF-001-010-HC.jpg,1900,dash,O,z,746,8,1,31573.0,273308.0,7778,ATS,C,13
13,test,1,B,mfborder.png,1,z,Thu Mar 26 2026 10:42:24 GMT-0500 (Central Daylight Time),307348.0,CFD-BF-042-031-HC.jpg,1500,dash,O,z,937,3,1,34040.0,273308.0,7778,ATS,C,14
14,test,1,B,mfborder.png,1,m,Thu Mar 26 2026 10:42:24 GMT-0500 (Central Daylight Time),309547.19999980927,CFD-BM-021-026-A.jpg,1600,dash,O,m,570,2,1,36239.199999809265,273308.0,7778,ATS,C,15
15,test,1,B,mfborder.png,1,m,Thu Mar 26 2026 10:42:24 GMT-0500 (Central Daylight Time),311762.5,CFD-WM-035-036-HC.jpg,1600,dash,O,m,586,10,1,38454.5,273308.0,7778,ATS,C,16
16,test,1,B,mfborder.png,1,z,Thu Mar 26 2026 10:42:24 GMT-0500 (Central Daylight Time),313993.5,CFD-WF-037-016-A.jpg,1500,dash,O,z,701,11,1,40685.5,273308.0,7778,ATS,C,17
17,test,1,B,mfborder.png,1,z,Thu Mar 26 2026 10:42:24 GMT-0500 (Central Daylight Time),315777.09999990463,CFD-WF-013-009-HC.jpg,1000,dash,O,z,755,12,1,42469.09999990463,273308.0,7778,ATS,C,18
18,test,1,B,mfborder.png,1,m,Thu Mar 26 2026 10:42:24 GMT-0500 (Central Daylight Time),318625.89999985695,CFD-WM-036-018-A.jpg,1700,dash,O,m,1126,9,1,45317.89999985695,273308.0,7778,ATS,C,19
19,test,1,B,mfborder.png,1,m,Thu Mar 26 2026 10:42:24 GMT-0500 (Central Daylight Time),321093.09999990463,CFD-WM-034-040-A.jpg,1200,dash,O,m,1241,6,1,47785.09999990463,273308.0,7778,ATS,C,20
20,test,1,B,mfborder.png,1,m,Thu Mar 26 2026 10:42:24 GMT-0500 (Central Daylight Time),323625.0,CFD-BM-021-026-A.jpg,1600,dash,O,m,912,2,1,50317.0,273308.0,7778,ATS,C,21
21,test,1,B,mfborder.png,1,z,Thu Mar 26 2026 10:42:24 GMT-0500 (Central Daylight Time),326357.09999990463,CFD-WF-001-010-HC.jpg,1900,dash,O,z,799,8,1,53049.09999990463,273308.0,7778,ATS,C,22
22,test,1,B,mfborder.png,1,m,Thu Mar 26 2026 10:42:24 GMT-0500 (Central Daylight Time),328842.0,CFD-BM-022-004-HC.jpg,1700,dash,O,m,766,1,1,55534.0,273308.0,7778,ATS,C,23
23,test,1,B,mfborder.png,1,z,Thu Mar 26 2026 10:42:24 GMT-0500 (Central Daylight Time),331856.7999999523,CFD-BF-042-031-HC.jpg,1500,dash,O,z,1488,3,1,58548.799999952316,273308.0,7778,ATS,C,24
0,prac,1,C,haborder.png,0,z,Thu Mar 26 2026 10:42:24 GMT-0500 (Central Daylight Time),377226.19999980927,CFD-BF-031-020-A.jpg,1900,dash,O,None,1516,3,1,4201.099999904633,373025.09999990463,7778,ATS,C,1
1,prac,1,C,haborder.png,1,m,Thu Mar 26 2026 10:42:24 GMT-0500 (Central Daylight Time),380608.2999999523,CFD-BM-022-004-HC.jpg,1500,solid,O,m,1096,3,1,7583.200000047684,373025.09999990463,7778,ATS,C,2
2,prac,1,C,haborder.png,1,z,Thu Mar 26 2026 10:42:24 GMT-0500 (Central Daylight Time),384223.19999980927,CFD-BF-002-018-A.jpg,1700,solid,O,z,1133,3,1,11198.099999904633,373025.09999990463,7778,ATS,C,3
3,prac,1,C,mfborder.png,1,m,Thu Mar 26 2026 10:42:24 GMT-0500 (Central Daylight Time),387323.69999980927,CFD-BM-043-014-A.jpg,1200,dash,O,m,1110,3,1,14298.599999904633,373025.09999990463,7778,ATS,C,4
4,prac,1,C,mfborder.png,1,m,Thu Mar 26 2026 10:42:24 GMT-0500 (Central Daylight Time),391537.89999985695,CFD-BM-034-035-HC.jpg,2000,solid,O,m,1427,3,1,18512.799999952316,373025.09999990463,7778,ATS,C,5
5,prac,1,C,mfborder.png,1,z,Thu Mar 26 2026 10:42:24 GMT-0500 (Central Daylight Time),395119.69999980927,CFD-WF-023-013-A.jpg,1500,solid,O,z,1303,3,1,22094.599999904633,373025.09999990463,7778,ATS,C,6
5,prac,1,C,mfborder.png,0,z,Thu Mar 26 2026 10:42:24 GMT-0500 (Central Daylight Time),398401.69999980927,CFD-BF-019-004-HC.jpg,1000,dash,O,None,1501,3,1,25376.599999904633,373025.09999990463,7778,ATS,C,7
6,prac,1,C,haborder.png,1,z,Thu Mar 26 2026 10:42:24 GMT-0500 (Central Daylight Time),401501.19999980927,CFD-WF-037-016-A.jpg,1600,dash,O,z,701,3,1,28476.099999904633,373025.09999990463,7778,ATS,C,8
6,prac,1,C,mfborder.png,0,m,Thu Mar 26 2026 10:42:24 GMT-0500 (Central Daylight Time),405482.39999985695,CFD-WM-036-018-A.jpg,1700,solid,O,None,1503,3,1,32457.299999952316,373025.09999990463,7778,ATS,C,9
7,prac,1,C,mfborder.png,1,z,Thu Mar 26 2026 10:42:24 GMT-0500 (Central Daylight Time),408731.2999999523,CFD-WF-013-009-HC.jpg,1600,dash,O,z,850,3,1,35706.200000047684,373025.09999990463,7778,ATS,C,10
8,prac,1,C,haborder.png,1,m,Thu Mar 26 2026 10:42:24 GMT-0500 (Central Daylight Time),411698.19999980927,CFD-WM-028-005-HC.jpg,1000,dash,O,m,1167,3,1,38673.09999990463,373025.09999990463,7778,ATS,C,11
9,prac,1,C,haborder.png,1,m,Thu Mar 26 2026 10:42:24 GMT-0500 (Central Daylight Time),414697.5,CFD-WM-028-005-HC.jpg,1400,solid,O,m,806,3,1,41672.40000009537,373025.09999990463,7778,ATS,C,12
1,test,1,C,haborder.png,1,z,Thu Mar 26 2026 10:42:24 GMT-0500 (Central Daylight Time),431958.19999980927,CFD-BM-021-026-A.jpg,1700,solid,O,z,1033,9,1,2765.199999809265,429193.0,7778,ATS,C,1
1,test,1,C,mfborder.png,0,z,Thu Mar 26 2026 10:42:24 GMT-0500 (Central Daylight Time),434974.89999985695,CFD-WF-037-016-A.jpg,1500,dash,O,None,1502,3,1,5781.899999856949,429193.0,7778,ATS,C,2
1,test,1,C,haborder.png,0,z,Thu Mar 26 2026 10:42:24 GMT-0500 (Central Daylight Time),437659.69999980927,CFD-WM-036-018-A.jpg,1400,solid,O,m,1270,7,1,8466.699999809265,429193.0,7778,ATS,C,3
1,test,1,C,haborder.png,0,m,Thu Mar 26 2026 10:42:24 GMT-0500 (Central Daylight Time),440688.59999990463,CFD-WF-001-010-HC.jpg,1500,solid,O,None,1515,11,1,11495.599999904633,429193.0,7778,ATS,C,4
1,test,1,C,haborder.png,0,m,Thu Mar 26 2026 10:42:24 GMT-0500 (Central Daylight Time),443054.5,CFD-WF-013-009-HC.jpg,1000,solid,O,z,1334,12,1,13861.5,429193.0,7778,ATS,C,5
2,test,1,C,mfborder.png,1,z,Thu Mar 26 2026 10:42:24 GMT-0500 (Central Daylight Time),446169.39999985695,CFD-BF-042-031-HC.jpg,1700,dash,O,z,1386,1,1,16976.39999985695,429193.0,7778,ATS,C,6
3,test,1,C,mfborder.png,1,z,Thu Mar 26 2026 10:42:24 GMT-0500 (Central Daylight Time),449201.59999990463,CFD-BF-031-020-A.jpg,1600,dash,O,z,1403,2,1,20008.599999904633,429193.0,7778,ATS,C,7
4,test,1,C,haborder.png,1,m,Thu Mar 26 2026 10:42:24 GMT-0500 (Central Daylight Time),451535.7999999523,CFD-WF-013-009-HC.jpg,1000,solid,O,m,1314,12,1,22342.799999952316,429193.0,7778,ATS,C,8
5,test,1,C,mfborder.png,1,m,Thu Mar 26 2026 10:42:24 GMT-0500 (Central Daylight Time),453570.09999990463,CFD-BM-022-004-HC.jpg,1200,dash,O,m,816,6,1,24377.099999904633,429193.0,7778,ATS,C,9
5,test,1,C,haborder.png,0,z,Thu Mar 26 2026 10:42:24 GMT-0500 (Central Daylight Time),456966.39999985695,CFD-BM-043-014-A.jpg,1900,solid,O,m,1475,8,1,27773.39999985695,429193.0,7778,ATS,C,10
6,test,1,C,mfborder.png,1,z,Thu Mar 26 2026 10:42:24 GMT-0500 (Central Daylight Time),459881.7999999523,CFD-BF-031-020-A.jpg,1600,dash,O,z,1287,2,1,30688.799999952316,429193.0,7778,ATS,C,11
6,test,1,C,haborder.png,0,z,Thu Mar 26 2026 10:42:24 GMT-0500 (Central Daylight Time),462698.39999985695,CFD-BM-043-014-A.jpg,1900,solid,O,m,887,8,1,33505.39999985695,429193.0,7778,ATS,C,12
6,test,1,C,haborder.png,0,m,Thu Mar 26 2026 10:42:24 GMT-0500 (Central Daylight Time),465831.89999985695,CFD-BF-019-004-HC.jpg,1600,solid,O,None,1517,10,1,36638.89999985695,429193.0,7778,ATS,C,13
7,test,1,C,haborder.png,1,z,Thu Mar 26 2026 10:42:24 GMT-0500 (Central Daylight Time),468728.89999985695,CFD-BM-021-026-A.jpg,1700,solid,O,z,1170,9,1,39535.89999985695,429193.0,7778,ATS,C,14
8,test,1,C,haborder.png,1,m,Thu Mar 26 2026 10:42:24 GMT-0500 (Central Daylight Time),471612.59999990463,CFD-WF-001-010-HC.jpg,1500,solid,O,m,1359,11,1,42419.59999990463,429193.0,7778,ATS,C,15
9,test,1,C,mfborder.png,1,m,Thu Mar 26 2026 10:42:24 GMT-0500 (Central Daylight Time),474044.7999999523,CFD-WM-035-036-HC.jpg,1000,dash,O,m,1402,4,1,44851.799999952316,429193.0,7778,ATS,C,16
10,test,1,C,mfborder.png,1,m,Thu Mar 26 2026 10:42:24 GMT-0500 (Central Daylight Time),476178.0,CFD-BM-022-004-HC.jpg,1200,dash,O,m,901,6,1,46985.0,429193.0,7778,ATS,C,17
11,test,1,C,mfborder.png,1,z,Thu Mar 26 2026 10:42:24 GMT-0500 (Central Daylight Time),478709.2999999523,CFD-WF-037-016-A.jpg,1500,dash,O,z,1008,3,1,49516.299999952316,429193.0,7778,ATS,C,18
11,test,1,C,haborder.png,0,z,Thu Mar 26 2026 10:42:24 GMT-0500 (Central Daylight Time),481441.5,CFD-WM-036-018-A.jpg,1400,solid,O,m,1304,7,1,52248.5,429193.0,7778,ATS,C,19
11,test,1,C,mfborder.png,0,m,Thu Mar 26 2026 10:42:24 GMT-0500 (Central Daylight Time),483974.39999985695,CFD-WM-035-036-HC.jpg,1000,dash,O,None,1515,4,1,54781.39999985695,429193.0,7778,ATS,C,20
12,test,1,C,mfborder.png,1,m,Thu Mar 26 2026 10:42:24 GMT-0500 (Central Daylight Time),487091.0,CFD-WM-034-040-A.jpg,2000,dash,O,m,1086,5,1,57898.0,429193.0,7778,ATS,C,21
12,test,1,C,haborder.png,0,m,Thu Mar 26 2026 10:42:24 GMT-0500 (Central Daylight Time),490222.7999999523,CFD-BF-019-004-HC.jpg,1600,solid,O,None,1516,10,1,61029.799999952316,429193.0,7778,ATS,C,22
12,test,1,C,mfborder.png,0,z,Thu Mar 26 2026 10:42:24 GMT-0500 (Central Daylight Time),493453.59999990463,CFD-BF-042-031-HC.jpg,1700,dash,O,None,1516,1,1,64260.59999990463,429193.0,7778,ATS,C,23
13,test,1,C,mfborder.png,1,m,Thu Mar 26 2026 10:42:24 GMT-0500 (Central Daylight Time),496770.39999985695,CFD-WM-034-040-A.jpg,2000,dash,O,m,1299,5,1,67577.39999985695,429193.0,7778,ATS,C,24
1,test,2,C,haborder.png,1,z,Thu Mar 26 2026 10:42:24 GMT-0500 (Central Daylight Time),507084.2999999523,CFD-BF-002-018-A.jpg,1900,solid,O,z,1435,8,1,3364.9000000953674,503719.39999985695,7778,ATS,C,1
1,test,2,C,haborder.png,0,m,Thu Mar 26 2026 10:42:24 GMT-0500 (Central Daylight Time),509617.2999999523,CFD-WM-028-005-HC.jpg,1000,solid,O,None,1517,12,1,5897.900000095367,503719.39999985695,7778,ATS,C,2
2,test,2,C,haborder.png,1,m,Thu Mar 26 2026 10:42:24 GMT-0500 (Central Daylight Time),511932.59999990463,CFD-BM-022-004-HC.jpg,1600,solid,O,m,693,10,1,8213.200000047684,503719.39999985695,7778,ATS,C,3
3,test,2,C,haborder.png,1,m,Thu Mar 26 2026 10:42:24 GMT-0500 (Central Daylight Time),514165.5,CFD-WM-028-005-HC.jpg,1500,solid,O,m,702,11,1,10446.100000143051,503719.39999985695,7778,ATS,C,4
4,test,2,C,haborder.png,1,m,Thu Mar 26 2026 10:42:24 GMT-0500 (Central Daylight Time),516480.5,CFD-WM-028-005-HC.jpg,1500,solid,O,m,797,11,1,12761.100000143051,503719.39999985695,7778,ATS,C,5
4,test,2,C,mfborder.png,0,z,Thu Mar 26 2026 10:42:24 GMT-0500 (Central Daylight Time),519613.39999985695,CFD-WF-023-013-A.jpg,1600,dash,O,None,1516,2,1,15894.0,503719.39999985695,7778,ATS,C,6
5,test,2,C,mfborder.png,1,z,Thu Mar 26 2026 10:42:24 GMT-0500 (Central Daylight Time),522345.59999990463,CFD-BF-019-004-HC.jpg,1500,dash,O,z,1214,3,1,18626.200000047684,503719.39999985695,7778,ATS,C,7
6,test,2,C,mfborder.png,1,m,Thu Mar 26 2026 10:42:24 GMT-0500 (Central Daylight Time),524727.5999999046,CFD-WM-036-018-A.jpg,1200,dash,O,m,1157,6,1,21008.200000047684,503719.39999985695,7778,ATS,C,8
7,test,2,C,haborder.png,1,z,Thu Mar 26 2026 10:42:24 GMT-0500 (Central Daylight Time),527144.0999999046,CFD-BF-031-020-A.jpg,1400,solid,O,z,998,7,1,23424.700000047684,503719.39999985695,7778,ATS,C,9
8,test,2,C,mfborder.png,1,m,Thu Mar 26 2026 10:42:24 GMT-0500 (Central Daylight Time),529526.7999999523,CFD-BM-034-035-HC.jpg,1000,dash,O,m,1363,4,1,25807.400000095367,503719.39999985695,7778,ATS,C,10
9,test,2,C,mfborder.png,1,m,Thu Mar 26 2026 10:42:24 GMT-0500 (Central Daylight Time),531341.399999857,CFD-BM-034-035-HC.jpg,1000,dash,O,m,800,4,1,27622.0,503719.39999985695,7778,ATS,C,11
10,test,2,C,mfborder.png,1,m,Thu Mar 26 2026 10:42:24 GMT-0500 (Central Daylight Time),534441.0,CFD-BM-043-014-A.jpg,2000,dash,O,m,1080,5,1,30721.60000014305,503719.39999985695,7778,ATS,C,12
11,test,2,C,haborder.png,1,z,Thu Mar 26 2026 10:42:24 GMT-0500 (Central Daylight Time),537524.7999999523,CFD-WF-037-016-A.jpg,1700,solid,O,z,1360,9,1,33805.40000009537,503719.39999985695,7778,ATS,C,13
12,test,2,C,haborder.png,1,m,Thu Mar 26 2026 10:42:24 GMT-0500 (Central Daylight Time),539391.5,CFD-WM-028-005-HC.jpg,1000,solid,O,m,850,12,1,35672.10000014305,503719.39999985695,7778,ATS,C,14
12,test,2,C,haborder.png,0,z,Thu Mar 26 2026 10:42:24 GMT-0500 (Central Daylight Time),542822.1999998093,CFD-BF-002-018-A.jpg,1900,solid,O,None,1516,8,1,39102.799999952316,503719.39999985695,7778,ATS,C,15
13,test,2,C,haborder.png,1,m,Thu Mar 26 2026 10:42:24 GMT-0500 (Central Daylight Time),545336.7999999523,CFD-BM-022-004-HC.jpg,1600,solid,O,m,897,10,1,41617.40000009537,503719.39999985695,7778,ATS,C,16
14,test,2,C,mfborder.png,1,z,Thu Mar 26 2026 10:42:24 GMT-0500 (Central Daylight Time),547704.899999857,CFD-WF-023-013-A.jpg,1600,dash,O,z,749,2,1,43985.5,503719.39999985695,7778,ATS,C,17
15,test,2,C,haborder.png,1,z,Thu Mar 26 2026 10:42:24 GMT-0500 (Central Daylight Time),550137.5999999046,CFD-WF-037-016-A.jpg,1700,solid,O,z,717,9,1,46418.200000047684,503719.39999985695,7778,ATS,C,18
16,test,2,C,mfborder.png,1,z,Thu Mar 26 2026 10:42:24 GMT-0500 (Central Daylight Time),552852.6999998093,CFD-WF-013-009-HC.jpg,1700,dash,O,z,983,1,1,49133.299999952316,503719.39999985695,7778,ATS,C,19
17,test,2,C,mfborder.png,1,z,Thu Mar 26 2026 10:42:24 GMT-0500 (Central Daylight Time),555319.5999999046,CFD-WF-013-009-HC.jpg,1700,dash,O,z,733,1,1,51600.200000047684,503719.39999985695,7778,ATS,C,20
18,test,2,C,haborder.png,1,z,Thu Mar 26 2026 10:42:24 GMT-0500 (Central Daylight Time),558118.2999999523,CFD-BF-031-020-A.jpg,1400,solid,O,z,1367,7,1,54398.90000009537,503719.39999985695,7778,ATS,C,21
19,test,2,C,mfborder.png,1,z,Thu Mar 26 2026 10:42:24 GMT-0500 (Central Daylight Time),560415.6999998093,CFD-BF-019-004-HC.jpg,1500,dash,O,z,778,3,1,56696.299999952316,503719.39999985695,7778,ATS,C,22
19,test,2,C,mfborder.png,0,m,Thu Mar 26 2026 10:42:24 GMT-0500 (Central Daylight Time),563198.899999857,CFD-BM-043-014-A.jpg,2000,dash,O,z,749,5,1,59479.5,503719.39999985695,7778,ATS,C,23
20,test,2,C,mfborder.png,1,m,Thu Mar 26 2026 10:42:24 GMT-0500 (Central Daylight Time),565416.7999999523,CFD-WM-036-018-A.jpg,1200,dash,O,m,999,6,1,61697.40000009537,503719.39999985695,7778,ATS,C,24
0,test,3,C,haborder.png,0,z,Thu Mar 26 2026 10:42:24 GMT-0500 (Central Daylight Time),572147.5,CFD-BM-043-014-A.jpg,1900,solid,O,None,1516,8,1,3433.4000000953674,568714.0999999046,7778,ATS,C,1
0,test,3,C,mfborder.png,0,z,Thu Mar 26 2026 10:42:24 GMT-0500 (Central Daylight Time),575279.6999998093,CFD-BF-031-020-A.jpg,1600,dash,O,None,1517,2,1,6565.599999904633,568714.0999999046,7778,ATS,C,2
0,test,3,C,haborder.png,0,m,Thu Mar 26 2026 10:42:24 GMT-0500 (Central Daylight Time),578378.5,CFD-BF-019-004-HC.jpg,1600,solid,O,z,1471,10,1,9664.400000095367,568714.0999999046,7778,ATS,C,3
0,test,3,C,haborder.png,0,m,Thu Mar 26 2026 10:42:24 GMT-0500 (Central Daylight Time),580675.7999999523,CFD-BF-019-004-HC.jpg,1600,solid,O,z,676,10,1,11961.700000047684,568714.0999999046,7778,ATS,C,4
0,test,3,C,haborder.png,0,z,Thu Mar 26 2026 10:42:24 GMT-0500 (Central Daylight Time),583509.1999998093,CFD-WM-036-018-A.jpg,1400,solid,O,m,1408,7,1,14795.099999904633,568714.0999999046,7778,ATS,C,5
0,test,3,C,haborder.png,0,z,Thu Mar 26 2026 10:42:24 GMT-0500 (Central Daylight Time),586741.5999999046,CFD-BM-021-026-A.jpg,1700,solid,O,None,1514,9,1,18027.5,568714.0999999046,7778,ATS,C,6
1,test,3,C,mfborder.png,1,z,Thu Mar 26 2026 10:42:24 GMT-0500 (Central Daylight Time),589425.2999999523,CFD-WF-037-016-A.jpg,1500,dash,O,z,1150,3,1,20711.200000047684,568714.0999999046,7778,ATS,C,7
1,test,3,C,haborder.png,0,z,Thu Mar 26 2026 10:42:24 GMT-0500 (Central Daylight Time),592857.0,CFD-BM-043-014-A.jpg,1900,solid,O,None,1516,8,1,24142.900000095367,568714.0999999046,7778,ATS,C,8
2,test,3,C,mfborder.png,1,m,Thu Mar 26 2026 10:42:24 GMT-0500 (Central Daylight Time),595089.5999999046,CFD-WM-035-036-HC.jpg,1000,dash,O,m,1213,4,1,26375.5,568714.0999999046,7778,ATS,C,9
2,test,3,C,haborder.png,0,z,Thu Mar 26 2026 10:42:24 GMT-0500 (Central Daylight Time),597871.7999999523,CFD-BM-021-026-A.jpg,1700,solid,O,m,1058,9,1,29157.700000047684,568714.0999999046,7778,ATS,C,10
2,test,3,C,mfborder.png,0,z,Thu Mar 26 2026 10:42:24 GMT-0500 (Central Daylight Time),600505.0,CFD-BF-042-031-HC.jpg,1700,dash,O,m,917,1,1,31790.900000095367,568714.0999999046,7778,ATS,C,11
3,test,3,C,mfborder.png,1,m,Thu Mar 26 2026 10:42:24 GMT-0500 (Central Daylight Time),602887.7999999523,CFD-BM-022-004-HC.jpg,1200,dash,O,m,1165,6,1,34173.700000047684,568714.0999999046,7778,ATS,C,12
4,test,3,C,mfborder.png,1,m,Thu Mar 26 2026 10:42:24 GMT-0500 (Central Daylight Time),605886.0,CFD-WM-034-040-A.jpg,2000,dash,O,m,975,5,1,37171.90000009537,568714.0999999046,7778,ATS,C,13
4,test,3,C,mfborder.png,0,z,Thu Mar 26 2026 10:42:24 GMT-0500 (Central Daylight Time),609118.0,CFD-BF-042-031-HC.jpg,1700,dash,O,None,1515,1,1,40403.90000009537,568714.0999999046,7778,ATS,C,14
4,test,3,C,haborder.png,0,m,Thu Mar 26 2026 10:42:24 GMT-0500 (Central Daylight Time),611716.7999999523,CFD-WF-001-010-HC.jpg,1500,solid,O,z,1077,11,1,43002.700000047684,568714.0999999046,7778,ATS,C,15
5,test,3,C,mfborder.png,1,m,Thu Mar 26 2026 10:42:24 GMT-0500 (Central Daylight Time),614399.6999998093,CFD-BM-022-004-HC.jpg,1200,dash,O,m,1457,6,1,45685.59999990463,568714.0999999046,7778,ATS,C,16
5,test,3,C,mfborder.png,0,z,Thu Mar 26 2026 10:42:24 GMT-0500 (Central Daylight Time),617432.0999999046,CFD-WF-037-016-A.jpg,1500,dash,O,None,1515,3,1,48718.0,568714.0999999046,7778,ATS,C,17
6,test,3,C,mfborder.png,1,m,Thu Mar 26 2026 10:42:24 GMT-0500 (Central Daylight Time),620313.2999999523,CFD-WM-034-040-A.jpg,2000,dash,O,m,860,5,1,51599.200000047684,568714.0999999046,7778,ATS,C,18
7,test,3,C,haborder.png,1,m,Thu Mar 26 2026 10:42:24 GMT-0500 (Central Daylight Time),622297.0999999046,CFD-WF-013-009-HC.jpg,1000,solid,O,m,964,12,1,53583.0,568714.0999999046,7778,ATS,C,19
8,test,3,C,haborder.png,1,m,Thu Mar 26 2026 10:42:24 GMT-0500 (Central Daylight Time),623898.2999999523,CFD-WF-013-009-HC.jpg,1000,solid,O,m,581,12,1,55184.200000047684,568714.0999999046,7778,ATS,C,20
8,test,3,C,mfborder.png,0,z,Thu Mar 26 2026 10:42:24 GMT-0500 (Central Daylight Time),627029.5999999046,CFD-BF-031-020-A.jpg,1600,dash,O,None,1516,2,1,58315.5,568714.0999999046,7778,ATS,C,21
9,test,3,C,mfborder.png,1,m,Thu Mar 26 2026 10:42:24 GMT-0500 (Central Daylight Time),629363.0,CFD-WM-035-036-HC.jpg,1000,dash,O,m,1314,4,1,60648.90000009537,568714.0999999046,7778,ATS,C,22
10,test,3,C,haborder.png,1,z,Thu Mar 26 2026 10:42:24 GMT-0500 (Central Daylight Time),632144.0999999046,CFD-WM-036-018-A.jpg,1400,solid,O,z,1358,7,1,63430.0,568714.0999999046,7778,ATS,C,23
10,test,3,C,haborder.png,0,m,Thu Mar 26 2026 10:42:24 GMT-0500 (Central Daylight Time),634859.5,CFD-WF-001-010-HC.jpg,1500,solid,O,z,1185,11,1,66145.40000009537,568714.0999999046,7778,ATS,C,24
0,test,4,C,mfborder.png,0,z,Thu Mar 26 2026 10:42:24 GMT-0500 (Central Daylight Time),645189.5999999046,CFD-WF-013-009-HC.jpg,1700,dash,O,None,1513,1,1,3232.4000000953674,641957.1999998093,7778,ATS,C,1
0,test,4,C,mfborder.png,0,z,Thu Mar 26 2026 10:42:24 GMT-0500 (Central Daylight Time),648222.5999999046,CFD-BF-019-004-HC.jpg,1500,dash,O,None,1517,3,1,6265.400000095367,641957.1999998093,7778,ATS,C,2
1,test,4,C,mfborder.png,1,m,Thu Mar 26 2026 10:42:24 GMT-0500 (Central Daylight Time),651455.1999998093,CFD-BM-043-014-A.jpg,2000,dash,O,m,1210,5,1,9498.0,641957.1999998093,7778,ATS,C,3
2,test,4,C,haborder.png,1,m,Thu Mar 26 2026 10:42:24 GMT-0500 (Central Daylight Time),653869.7999999523,CFD-BM-022-004-HC.jpg,1600,solid,O,m,792,10,1,11912.600000143051,641957.1999998093,7778,ATS,C,4
3,test,4,C,mfborder.png,1,m,Thu Mar 26 2026 10:42:24 GMT-0500 (Central Daylight Time),655819.0,CFD-BM-034-035-HC.jpg,1000,dash,O,m,927,4,1,13861.800000190735,641957.1999998093,7778,ATS,C,5
4,test,4,C,mfborder.png,1,m,Thu Mar 26 2026 10:42:24 GMT-0500 (Central Daylight Time),658235.399999857,CFD-WM-036-018-A.jpg,1200,dash,O,m,1185,6,1,16278.200000047684,641957.1999998093,7778,ATS,C,6
5,test,4,C,haborder.png,1,m,Thu Mar 26 2026 10:42:24 GMT-0500 (Central Daylight Time),660201.5,CFD-WM-028-005-HC.jpg,1000,solid,O,m,946,12,1,18244.300000190735,641957.1999998093,7778,ATS,C,7
6,test,4,C,mfborder.png,1,z,Thu Mar 26 2026 10:42:24 GMT-0500 (Central Daylight Time),662951.6999998093,CFD-BF-019-004-HC.jpg,1500,dash,O,z,1224,3,1,20994.5,641957.1999998093,7778,ATS,C,8
6,test,4,C,mfborder.png,0,m,Thu Mar 26 2026 10:42:24 GMT-0500 (Central Daylight Time),665067.0999999046,CFD-WM-036-018-A.jpg,1200,dash,O,z,895,6,1,23109.900000095367,641957.1999998093,7778,ATS,C,9
7,test,4,C,haborder.png,1,z,Thu Mar 26 2026 10:42:24 GMT-0500 (Central Daylight Time),668399.399999857,CFD-BF-002-018-A.jpg,1900,solid,O,z,1415,8,1,26442.200000047684,641957.1999998093,7778,ATS,C,10
8,test,4,C,haborder.png,1,z,Thu Mar 26 2026 10:42:24 GMT-0500 (Central Daylight Time),670498.7999999523,CFD-BF-031-020-A.jpg,1400,solid,O,z,683,7,1,28541.60000014305,641957.1999998093,7778,ATS,C,11
9,test,4,C,mfborder.png,1,m,Thu Mar 26 2026 10:42:24 GMT-0500 (Central Daylight Time),673680.399999857,CFD-BM-043-014-A.jpg,2000,dash,O,m,1154,5,1,31723.200000047684,641957.1999998093,7778,ATS,C,12
10,test,4,C,haborder.png,1,m,Thu Mar 26 2026 10:42:24 GMT-0500 (Central Daylight Time),676196.7999999523,CFD-WM-028-005-HC.jpg,1500,solid,O,m,996,11,1,34239.60000014305,641957.1999998093,7778,ATS,C,13
11,test,4,C,mfborder.png,1,z,Thu Mar 26 2026 10:42:24 GMT-0500 (Central Daylight Time),678996.0,CFD-WF-023-013-A.jpg,1600,dash,O,z,1177,2,1,37038.800000190735,641957.1999998093,7778,ATS,C,14
12,test,4,C,haborder.png,1,z,Thu Mar 26 2026 10:42:24 GMT-0500 (Central Daylight Time),682077.7999999523,CFD-BF-002-018-A.jpg,1900,solid,O,z,1160,8,1,40120.60000014305,641957.1999998093,7778,ATS,C,15
13,test,4,C,haborder.png,1,z,Thu Mar 26 2026 10:42:24 GMT-0500 (Central Daylight Time),684160.6999998093,CFD-BF-031-020-A.jpg,1400,solid,O,z,663,7,1,42203.5,641957.1999998093,7778,ATS,C,16
14,test,4,C,haborder.png,1,m,Thu Mar 26 2026 10:42:24 GMT-0500 (Central Daylight Time),686626.0999999046,CFD-WM-028-005-HC.jpg,1500,solid,O,m,937,11,1,44668.90000009537,641957.1999998093,7778,ATS,C,17
15,test,4,C,haborder.png,1,z,Thu Mar 26 2026 10:42:24 GMT-0500 (Central Daylight Time),689208.899999857,CFD-WF-037-016-A.jpg,1700,solid,O,z,855,9,1,47251.700000047684,641957.1999998093,7778,ATS,C,18
16,test,4,C,mfborder.png,1,z,Thu Mar 26 2026 10:42:24 GMT-0500 (Central Daylight Time),691958.5,CFD-WF-023-013-A.jpg,1600,dash,O,z,1127,2,1,50001.300000190735,641957.1999998093,7778,ATS,C,19
17,test,4,C,haborder.png,1,m,Thu Mar 26 2026 10:42:24 GMT-0500 (Central Daylight Time),694690.5,CFD-BM-022-004-HC.jpg,1600,solid,O,m,1103,10,1,52733.300000190735,641957.1999998093,7778,ATS,C,20
17,test,4,C,mfborder.png,0,m,Thu Mar 26 2026 10:42:24 GMT-0500 (Central Daylight Time),697224.0999999046,CFD-BM-034-035-HC.jpg,1000,dash,O,None,1516,4,1,55266.90000009537,641957.1999998093,7778,ATS,C,21
18,test,4,C,mfborder.png,1,z,Thu Mar 26 2026 10:42:24 GMT-0500 (Central Daylight Time),699989.0999999046,CFD-WF-013-009-HC.jpg,1700,dash,O,z,1033,1,1,58031.90000009537,641957.1999998093,7778,ATS,C,22
19,test,4,C,haborder.png,1,m,Thu Mar 26 2026 10:42:24 GMT-0500 (Central Daylight Time),701939.0,CFD-WM-028-005-HC.jpg,1000,solid,O,m,933,12,1,59981.800000190735,641957.1999998093,7778,ATS,C,23
20,test,4,C,haborder.png,1,z,Thu Mar 26 2026 10:42:24 GMT-0500 (Central Daylight Time),704854.6999998093,CFD-WF-037-016-A.jpg,1700,solid,O,z,1198,9,1,62897.5,641957.1999998093,7778,ATS,C,24
