acc_sum,block,block_c,change,condition,correct,correct_response,datetime,endtime,face,project,response,response_time,row_sel,session_number,start_end,starttime,subject_id,task,task_vers,trial
0,prac,1,,1-Back,,,Thu Sep 18 2025 11:42:44 GMT-0500 (Central Daylight Time),,005_o_f_d_a.png,O,space,3019,1,1,,,7213,VNB,B,0
1,prac,1,0.0,1-Back,1.0,m,Thu Sep 18 2025 11:42:44 GMT-0500 (Central Daylight Time),181879.20000004768,020_y_f_n_a.png,O,m,1372,2,1,2222.2999999523163,179656.90000009537,7213,VNB,B,1
2,prac,1,0.0,1-Back,1.0,m,Thu Sep 18 2025 11:42:44 GMT-0500 (Central Daylight Time),183777.20000004768,007_m_m_h_a.png,O,m,1020,3,1,1881.3999998569489,181895.80000019073,7213,VNB,B,2
3,prac,1,0.0,1-Back,1.0,m,Thu Sep 18 2025 11:42:44 GMT-0500 (Central Daylight Time),185411.60000014305,016_y_m_d_a.png,O,m,786,4,1,1622.9000000953674,183788.70000004768,7213,VNB,B,3
4,prac,1,0.0,1-Back,1.0,m,Thu Sep 18 2025 11:42:44 GMT-0500 (Central Daylight Time),187459.10000014305,005_o_f_n_a.png,O,m,1176,5,1,2036.9000000953674,185422.20000004768,7213,VNB,B,4
5,prac,1,1.0,1-Back,1.0,z,Thu Sep 18 2025 11:42:44 GMT-0500 (Central Daylight Time),189860.20000004768,016_y_m_n_a.png,O,z,1522,6,1,2388.5999999046326,187471.60000014305,7213,VNB,B,5
6,prac,1,0.0,1-Back,1.0,m,Thu Sep 18 2025 11:42:44 GMT-0500 (Central Daylight Time),191524.40000009537,004_o_m_h_a.png,O,m,819,7,1,1654.2000000476837,189870.20000004768,7213,VNB,B,6
7,prac,1,0.0,1-Back,1.0,m,Thu Sep 18 2025 11:42:44 GMT-0500 (Central Daylight Time),193391.70000004768,011_m_f_d_a.png,O,m,1005,8,1,1856.0,191535.70000004768,7213,VNB,B,7
7,prac,1,1.0,1-Back,0.0,z,Thu Sep 18 2025 11:42:44 GMT-0500 (Central Daylight Time),195589.60000014305,020_y_f_d_a.png,O,m,1337,9,1,2185.7999999523163,193403.80000019073,7213,VNB,B,8
8,prac,1,0.0,1-Back,1.0,m,Thu Sep 18 2025 11:42:44 GMT-0500 (Central Daylight Time),198238.40000009537,007_m_m_n_a.png,O,m,1774,10,1,2639.7999999523163,195598.60000014305,7213,VNB,B,9
9,prac,1,0.0,1-Back,1.0,m,Thu Sep 18 2025 11:42:44 GMT-0500 (Central Daylight Time),200223.40000009537,005_o_f_h_a.png,O,m,1132,11,1,1976.5,198246.90000009537,7213,VNB,B,10
10,prac,1,0.0,1-Back,1.0,m,Thu Sep 18 2025 11:42:44 GMT-0500 (Central Daylight Time),202438.60000014305,016_y_m_d_a.png,O,m,1347,12,1,2205.2999999523163,200233.30000019073,7213,VNB,B,11
0,test,1,0.0,1-Back,,,Thu Sep 18 2025 11:42:44 GMT-0500 (Central Daylight Time),202438.60000014305,020_y_f_d_a.png,O,space,2394,1,1,2205.2999999523163,200233.30000019073,7213,VNB,B,0
1,test,1,0.0,1-Back,1.0,m,Thu Sep 18 2025 11:42:44 GMT-0500 (Central Daylight Time),214566.40000009537,011_m_f_n_a.png,O,m,794,2,1,1801.9000000953674,212764.5,7213,VNB,B,1
2,test,1,0.0,1-Back,1.0,m,Thu Sep 18 2025 11:42:44 GMT-0500 (Central Daylight Time),216332.90000009537,004_o_m_h_a.png,O,m,738,3,1,1758.7000000476837,214574.20000004768,7213,VNB,B,2
3,test,1,1.0,1-Back,1.0,z,Thu Sep 18 2025 11:42:44 GMT-0500 (Central Daylight Time),218231.90000009537,007_m_m_h_a.png,O,z,876,4,1,1887.0,216344.90000009537,7213,VNB,B,3
4,test,1,0.0,1-Back,1.0,m,Thu Sep 18 2025 11:42:44 GMT-0500 (Central Daylight Time),220031.0,005_o_f_n_a.png,O,m,777,5,1,1789.3999998569489,218241.60000014305,7213,VNB,B,4
5,test,1,0.0,1-Back,1.0,m,Thu Sep 18 2025 11:42:44 GMT-0500 (Central Daylight Time),221963.90000009537,016_y_m_d_a.png,O,m,904,6,1,1923.2999999523163,220040.60000014305,7213,VNB,B,5
6,test,1,1.0,1-Back,1.0,z,Thu Sep 18 2025 11:42:44 GMT-0500 (Central Daylight Time),223881.40000009537,011_m_f_d_a.png,O,z,885,7,1,1909.9000000953674,221971.5,7213,VNB,B,6
7,test,1,0.0,1-Back,1.0,m,Thu Sep 18 2025 11:42:44 GMT-0500 (Central Daylight Time),225529.90000009537,020_y_f_h_a.png,O,m,617,8,1,1638.7999999523163,223891.10000014305,7213,VNB,B,7
8,test,1,0.0,1-Back,1.0,m,Thu Sep 18 2025 11:42:44 GMT-0500 (Central Daylight Time),227778.90000009537,004_o_m_n_a.png,O,m,1223,9,1,2237.2999999523163,225541.60000014305,7213,VNB,B,8
9,test,1,0.0,1-Back,1.0,m,Thu Sep 18 2025 11:42:44 GMT-0500 (Central Daylight Time),229545.70000004768,016_y_m_h_a.png,O,m,742,10,1,1756.0999999046326,227789.60000014305,7213,VNB,B,9
10,test,1,0.0,1-Back,1.0,m,Thu Sep 18 2025 11:42:44 GMT-0500 (Central Daylight Time),231144.80000019073,004_o_m_d_a.png,O,m,577,11,1,1588.6000001430511,229556.20000004768,7213,VNB,B,10
11,test,1,1.0,1-Back,1.0,z,Thu Sep 18 2025 11:42:44 GMT-0500 (Central Daylight Time),233760.90000009537,005_o_f_d_a.png,O,z,1593,12,1,2603.4000000953674,231157.5,7213,VNB,B,11
12,test,1,0.0,1-Back,1.0,m,Thu Sep 18 2025 11:42:44 GMT-0500 (Central Daylight Time),236227.20000004768,007_m_m_n_a.png,O,m,1441,13,1,2457.7999999523163,233769.40000009537,7213,VNB,B,12
12,test,1,1.0,1-Back,0.0,z,Thu Sep 18 2025 11:42:44 GMT-0500 (Central Daylight Time),239258.30000019073,020_y_f_n_a.png,O,None,2015,14,1,3020.2000000476837,236238.10000014305,7213,VNB,B,13
13,test,1,0.0,1-Back,1.0,m,Thu Sep 18 2025 11:42:44 GMT-0500 (Central Daylight Time),241191.30000019073,011_m_f_h_a.png,O,m,912,15,1,1928.2000000476837,239263.10000014305,7213,VNB,B,14
14,test,1,0.0,1-Back,1.0,m,Thu Sep 18 2025 11:42:44 GMT-0500 (Central Daylight Time),243141.40000009537,007_m_m_d_a.png,O,m,931,16,1,1943.9000000953674,241197.5,7213,VNB,B,15
15,test,1,0.0,1-Back,1.0,m,Thu Sep 18 2025 11:42:44 GMT-0500 (Central Daylight Time),245257.60000014305,016_y_m_n_a.png,O,m,1083,17,1,2104.4000000953674,243153.20000004768,7213,VNB,B,16
16,test,1,0.0,1-Back,1.0,m,Thu Sep 18 2025 11:42:44 GMT-0500 (Central Daylight Time),247323.10000014305,005_o_f_h_a.png,O,m,1048,18,1,2056.4000000953674,245266.70000004768,7213,VNB,B,17
0,test,2,0.0,1-Back,,,Thu Sep 18 2025 11:42:44 GMT-0500 (Central Daylight Time),247323.10000014305,016_y_m_n_a.png,O,space,1326,1,1,2056.4000000953674,245266.70000004768,7213,VNB,B,0
1,test,2,0.0,1-Back,1.0,m,Thu Sep 18 2025 11:42:44 GMT-0500 (Central Daylight Time),252522.90000009537,020_y_f_h_a.png,O,m,818,2,1,1839.7999999523163,250683.10000014305,7213,VNB,B,1
2,test,2,1.0,1-Back,1.0,m,Thu Sep 18 2025 11:42:44 GMT-0500 (Central Daylight Time),254354.80000019073,004_o_m_n_a.png,O,m,807,3,1,1823.9000000953674,252530.90000009537,7213,VNB,B,2
3,test,2,0.0,1-Back,1.0,m,Thu Sep 18 2025 11:42:44 GMT-0500 (Central Daylight Time),256204.60000014305,011_m_f_d_a.png,O,m,833,4,1,1839.7000000476837,254364.90000009537,7213,VNB,B,3
4,test,2,0.0,1-Back,1.0,z,Thu Sep 18 2025 11:42:44 GMT-0500 (Central Daylight Time),257919.70000004768,007_m_m_d_a.png,O,z,699,5,1,1707.5999999046326,256212.10000014305,7213,VNB,B,4
5,test,2,0.0,1-Back,1.0,m,Thu Sep 18 2025 11:42:44 GMT-0500 (Central Daylight Time),259536.10000014305,016_y_m_h_a.png,O,m,593,6,1,1613.1000001430511,257923.0,7213,VNB,B,5
6,test,2,1.0,1-Back,1.0,z,Thu Sep 18 2025 11:42:44 GMT-0500 (Central Daylight Time),262151.80000019073,005_o_f_h_a.png,O,z,1595,7,1,2606.4000000953674,259545.40000009537,7213,VNB,B,6
7,test,2,0.0,1-Back,1.0,m,Thu Sep 18 2025 11:42:44 GMT-0500 (Central Daylight Time),264035.30000019073,011_m_f_n_a.png,O,m,868,8,1,1873.9000000953674,262161.40000009537,7213,VNB,B,7
7,test,2,0.0,1-Back,0.0,m,Thu Sep 18 2025 11:42:44 GMT-0500 (Central Daylight Time),265819.10000014305,020_y_f_d_a.png,O,z,768,9,1,1774.4000000953674,264044.7000000477,7213,VNB,B,8
8,test,2,0.0,1-Back,1.0,m,Thu Sep 18 2025 11:42:44 GMT-0500 (Central Daylight Time),267566.0,007_m_m_n_a.png,O,m,719,10,1,1738.2999999523163,265827.7000000477,7213,VNB,B,9
9,test,2,1.0,1-Back,1.0,m,Thu Sep 18 2025 11:42:44 GMT-0500 (Central Daylight Time),269468.0,011_m_f_h_a.png,O,m,885,11,1,1894.7999999523163,267573.2000000477,7213,VNB,B,10
10,test,2,0.0,1-Back,1.0,z,Thu Sep 18 2025 11:42:44 GMT-0500 (Central Daylight Time),271615.90000009537,004_o_m_h_a.png,O,z,1118,12,1,2139.5,269476.40000009537,7213,VNB,B,11
11,test,2,0.0,1-Back,1.0,m,Thu Sep 18 2025 11:42:44 GMT-0500 (Central Daylight Time),273317.0,016_y_m_d_a.png,O,m,675,13,1,1693.0,271624.0,7213,VNB,B,12
12,test,2,0.0,1-Back,1.0,m,Thu Sep 18 2025 11:42:44 GMT-0500 (Central Daylight Time),275298.2000000477,005_o_f_n_a.png,O,m,951,14,1,1973.5999999046326,273324.60000014305,7213,VNB,B,13
13,test,2,0.0,1-Back,1.0,z,Thu Sep 18 2025 11:42:44 GMT-0500 (Central Daylight Time),277681.40000009537,020_y_f_n_a.png,O,z,1357,15,1,2374.5999999046326,275306.80000019073,7213,VNB,B,14
14,test,2,1.0,1-Back,1.0,m,Thu Sep 18 2025 11:42:44 GMT-0500 (Central Daylight Time),279880.7000000477,007_m_m_h_a.png,O,m,1164,16,1,2193.2999999523163,277687.40000009537,7213,VNB,B,15
15,test,2,0.0,1-Back,1.0,m,Thu Sep 18 2025 11:42:44 GMT-0500 (Central Daylight Time),281810.80000019073,005_o_f_d_a.png,O,m,898,17,1,1922.5,279888.30000019073,7213,VNB,B,16
16,test,2,1.0,1-Back,1.0,z,Thu Sep 18 2025 11:42:44 GMT-0500 (Central Daylight Time),284445.10000014305,004_o_m_d_a.png,O,z,1604,18,1,2630.2999999523163,281814.80000019073,7213,VNB,B,17
0,test,3,1.0,1-Back,,,Thu Sep 18 2025 11:42:44 GMT-0500 (Central Daylight Time),284445.10000014305,005_o_f_h_a.png,O,space,1150,1,1,2630.2999999523163,281814.80000019073,7213,VNB,B,0
1,test,3,0.0,1-Back,1.0,m,Thu Sep 18 2025 11:42:44 GMT-0500 (Central Daylight Time),289544.5,011_m_f_d_a.png,O,m,827,2,1,1843.2999999523163,287701.2000000477,7213,VNB,B,1
2,test,3,1.0,1-Back,1.0,m,Thu Sep 18 2025 11:42:44 GMT-0500 (Central Daylight Time),291326.90000009537,007_m_m_n_a.png,O,m,763,3,1,1775.5999999046326,289551.30000019073,7213,VNB,B,2
3,test,3,0.0,1-Back,1.0,z,Thu Sep 18 2025 11:42:44 GMT-0500 (Central Daylight Time),293175.40000009537,005_o_f_n_a.png,O,z,827,4,1,1837.0,291338.40000009537,7213,VNB,B,3
4,test,3,1.0,1-Back,1.0,m,Thu Sep 18 2025 11:42:44 GMT-0500 (Central Daylight Time),295024.80000019073,004_o_m_d_a.png,O,m,827,5,1,1841.2000000476837,293183.60000014305,7213,VNB,B,4
5,test,3,0.0,1-Back,1.0,m,Thu Sep 18 2025 11:42:44 GMT-0500 (Central Daylight Time),297092.30000019073,020_y_f_h_a.png,O,m,1051,6,1,2061.4000000953674,295030.90000009537,7213,VNB,B,5
6,test,3,0.0,1-Back,1.0,z,Thu Sep 18 2025 11:42:44 GMT-0500 (Central Daylight Time),299023.90000009537,016_y_m_h_a.png,O,z,902,7,1,1925.5999999046326,297098.30000019073,7213,VNB,B,6
7,test,3,0.0,1-Back,1.0,m,Thu Sep 18 2025 11:42:44 GMT-0500 (Central Daylight Time),300689.0,011_m_f_n_a.png,O,m,641,8,1,1657.1999998092651,299031.80000019073,7213,VNB,B,7
8,test,3,0.0,1-Back,1.0,m,Thu Sep 18 2025 11:42:44 GMT-0500 (Central Daylight Time),303054.5,020_y_f_d_a.png,O,m,1342,9,1,2358.7999999523163,300695.7000000477,7213,VNB,B,8
9,test,3,1.0,1-Back,1.0,m,Thu Sep 18 2025 11:42:44 GMT-0500 (Central Daylight Time),305054.40000009537,004_o_m_n_a.png,O,m,977,10,1,1992.7000000476837,303061.7000000477,7213,VNB,B,9
9,test,3,0.0,1-Back,0.0,m,Thu Sep 18 2025 11:42:44 GMT-0500 (Central Daylight Time),306772.0,007_m_m_h_a.png,O,z,692,11,1,1708.6999998092651,305063.30000019073,7213,VNB,B,10
10,test,3,0.0,1-Back,1.0,z,Thu Sep 18 2025 11:42:44 GMT-0500 (Central Daylight Time),309438.7000000477,011_m_f_h_a.png,O,z,1650,12,1,2659.0,306779.7000000477,7213,VNB,B,11
11,test,3,1.0,1-Back,1.0,m,Thu Sep 18 2025 11:42:44 GMT-0500 (Central Daylight Time),311203.90000009537,005_o_f_d_a.png,O,m,750,13,1,1755.2999999523163,309448.60000014305,7213,VNB,B,12
11,test,3,0.0,1-Back,0.0,z,Thu Sep 18 2025 11:42:44 GMT-0500 (Central Daylight Time),313736.10000014305,007_m_m_d_a.png,O,m,1501,14,1,2524.2999999523163,311211.80000019073,7213,VNB,B,13
12,test,3,0.0,1-Back,1.0,m,Thu Sep 18 2025 11:42:44 GMT-0500 (Central Daylight Time),316002.7000000477,016_y_m_n_a.png,O,m,1233,15,1,2257.7999999523163,313744.90000009537,7213,VNB,B,14
13,test,3,1.0,1-Back,1.0,m,Thu Sep 18 2025 11:42:44 GMT-0500 (Central Daylight Time),317767.90000009537,004_o_m_h_a.png,O,m,743,16,1,1755.9000000953674,316012.0,7213,VNB,B,15
14,test,3,0.0,1-Back,1.0,m,Thu Sep 18 2025 11:42:44 GMT-0500 (Central Daylight Time),319652.5,016_y_m_d_a.png,O,m,857,17,1,1876.8999998569489,317775.60000014305,7213,VNB,B,16
15,test,3,1.0,1-Back,1.0,m,Thu Sep 18 2025 11:42:44 GMT-0500 (Central Daylight Time),321366.80000019073,020_y_f_n_a.png,O,m,687,18,1,1707.3000001907349,319659.5,7213,VNB,B,17
0,test,4,1.0,1-Back,,,Thu Sep 18 2025 11:42:44 GMT-0500 (Central Daylight Time),321366.80000019073,007_m_m_d_a.png,O,space,1122,1,1,1707.3000001907349,319659.5,7213,VNB,B,0
1,test,4,0.0,1-Back,1.0,z,Thu Sep 18 2025 11:42:44 GMT-0500 (Central Daylight Time),326648.0,004_o_m_d_a.png,O,z,1110,2,1,2122.7999999523163,324525.2000000477,7213,VNB,B,1
2,test,4,0.0,1-Back,1.0,m,Thu Sep 18 2025 11:42:44 GMT-0500 (Central Daylight Time),328430.7000000477,016_y_m_h_a.png,O,m,761,3,1,1773.2000000476837,326657.5,7213,VNB,B,2
3,test,4,0.0,1-Back,1.0,m,Thu Sep 18 2025 11:42:44 GMT-0500 (Central Daylight Time),330246.30000019073,011_m_f_n_a.png,O,m,796,4,1,1805.4000000953674,328440.90000009537,7213,VNB,B,3
4,test,4,1.0,1-Back,1.0,m,Thu Sep 18 2025 11:42:44 GMT-0500 (Central Daylight Time),332266.80000019073,005_o_f_h_a.png,O,m,988,5,1,2013.0,330253.80000019073,7213,VNB,B,4
5,test,4,0.0,1-Back,1.0,m,Thu Sep 18 2025 11:42:44 GMT-0500 (Central Daylight Time),334161.7000000477,007_m_m_n_a.png,O,m,859,6,1,1885.5,332276.2000000477,7213,VNB,B,5
6,test,4,0.0,1-Back,1.0,m,Thu Sep 18 2025 11:42:44 GMT-0500 (Central Daylight Time),335996.7000000477,016_y_m_d_a.png,O,m,800,7,1,1824.2000000476837,334172.5,7213,VNB,B,6
7,test,4,1.0,1-Back,1.0,z,Thu Sep 18 2025 11:42:44 GMT-0500 (Central Daylight Time),338727.30000019073,020_y_f_d_a.png,O,z,1701,8,1,2722.100000143051,336005.2000000477,7213,VNB,B,7
8,test,4,0.0,1-Back,1.0,m,Thu Sep 18 2025 11:42:44 GMT-0500 (Central Daylight Time),340409.7000000477,011_m_f_h_a.png,O,m,658,9,1,1673.7000000476837,338736.0,7213,VNB,B,8
9,test,4,0.0,1-Back,1.0,z,Thu Sep 18 2025 11:42:44 GMT-0500 (Central Daylight Time),342559.0,004_o_m_h_a.png,O,z,1119,10,1,2141.699999809265,340417.30000019073,7213,VNB,B,9
10,test,4,1.0,1-Back,1.0,m,Thu Sep 18 2025 11:42:44 GMT-0500 (Central Daylight Time),344775.90000009537,005_o_f_n_a.png,O,m,1186,11,1,2208.0,342567.90000009537,7213,VNB,B,10
11,test,4,0.0,1-Back,1.0,m,Thu Sep 18 2025 11:42:44 GMT-0500 (Central Daylight Time),346808.10000014305,011_m_f_d_a.png,O,m,1014,12,1,2020.9000000953674,344787.2000000477,7213,VNB,B,11
11,test,4,0.0,1-Back,0.0,m,Thu Sep 18 2025 11:42:44 GMT-0500 (Central Daylight Time),349840.40000009537,020_y_f_n_a.png,O,None,2015,13,1,3024.9000000953674,346815.5,7213,VNB,B,12
12,test,4,0.0,1-Back,1.0,m,Thu Sep 18 2025 11:42:44 GMT-0500 (Central Daylight Time),351872.2000000477,005_o_f_d_a.png,O,m,1008,14,1,2025.5,349846.7000000477,7213,VNB,B,13
13,test,4,0.0,1-Back,1.0,m,Thu Sep 18 2025 11:42:44 GMT-0500 (Central Daylight Time),354272.60000014305,020_y_f_h_a.png,O,m,1369,15,1,2391.5,351881.10000014305,7213,VNB,B,14
14,test,4,1.0,1-Back,1.0,z,Thu Sep 18 2025 11:42:44 GMT-0500 (Central Daylight Time),356271.10000014305,007_m_m_h_a.png,O,z,977,16,1,1991.4000000953674,354279.7000000477,7213,VNB,B,15
15,test,4,0.0,1-Back,1.0,m,Thu Sep 18 2025 11:42:44 GMT-0500 (Central Daylight Time),358087.30000019073,004_o_m_n_a.png,O,m,786,17,1,1808.2000000476837,356279.10000014305,7213,VNB,B,16
16,test,4,1.0,1-Back,1.0,z,Thu Sep 18 2025 11:42:44 GMT-0500 (Central Daylight Time),360504.5,016_y_m_n_a.png,O,z,1385,18,1,2406.5,358098.0,7213,VNB,B,17
0,test,5,1.0,1-Back,,,Thu Sep 18 2025 11:42:44 GMT-0500 (Central Daylight Time),360504.5,004_o_m_n_a.png,O,space,1346,1,1,2406.5,358098.0,7213,VNB,B,0
1,test,5,1.0,1-Back,1.0,m,Thu Sep 18 2025 11:42:44 GMT-0500 (Central Daylight Time),365551.0,005_o_f_h_a.png,O,m,660,2,1,1672.2999999523163,363878.7000000477,7213,VNB,B,1
2,test,5,0.0,1-Back,1.0,m,Thu Sep 18 2025 11:42:44 GMT-0500 (Central Daylight Time),367434.40000009537,016_y_m_d_a.png,O,m,865,3,1,1876.9000000953674,365557.5,7213,VNB,B,2
3,test,5,0.0,1-Back,1.0,z,Thu Sep 18 2025 11:42:44 GMT-0500 (Central Daylight Time),369317.7000000477,004_o_m_d_a.png,O,z,855,4,1,1877.5999999046326,367440.10000014305,7213,VNB,B,3
4,test,5,0.0,1-Back,1.0,m,Thu Sep 18 2025 11:42:44 GMT-0500 (Central Daylight Time),371184.5,011_m_f_h_a.png,O,m,836,5,1,1857.2999999523163,369327.2000000477,7213,VNB,B,4
5,test,5,0.0,1-Back,1.0,m,Thu Sep 18 2025 11:42:44 GMT-0500 (Central Daylight Time),373116.40000009537,020_y_f_n_a.png,O,m,908,6,1,1925.5,371190.90000009537,7213,VNB,B,5
6,test,5,1.0,1-Back,1.0,z,Thu Sep 18 2025 11:42:44 GMT-0500 (Central Daylight Time),375565.60000014305,005_o_f_n_a.png,O,z,1429,7,1,2440.9000000953674,373124.7000000477,7213,VNB,B,6
7,test,5,0.0,1-Back,1.0,m,Thu Sep 18 2025 11:42:44 GMT-0500 (Central Daylight Time),377398.60000014305,011_m_f_d_a.png,O,m,803,8,1,1826.4000000953674,375572.2000000477,7213,VNB,B,7
8,test,5,0.0,1-Back,1.0,m,Thu Sep 18 2025 11:42:44 GMT-0500 (Central Daylight Time),379348.10000014305,016_y_m_h_a.png,O,m,925,9,1,1941.7000000476837,377406.40000009537,7213,VNB,B,8
9,test,5,0.0,1-Back,1.0,m,Thu Sep 18 2025 11:42:44 GMT-0500 (Central Daylight Time),381663.80000019073,020_y_f_d_a.png,O,m,1285,10,1,2306.9000000953674,379356.90000009537,7213,VNB,B,9
10,test,5,0.0,1-Back,1.0,m,Thu Sep 18 2025 11:42:44 GMT-0500 (Central Daylight Time),383396.60000014305,007_m_m_n_a.png,O,m,714,11,1,1723.1000001430511,381673.5,7213,VNB,B,10
10,test,5,1.0,1-Back,0.0,z,Thu Sep 18 2025 11:42:44 GMT-0500 (Central Daylight Time),386429.5,011_m_f_n_a.png,O,None,2017,12,1,3021.0,383408.5,7213,VNB,B,11
11,test,5,0.0,1-Back,1.0,m,Thu Sep 18 2025 11:42:44 GMT-0500 (Central Daylight Time),388279.10000014305,004_o_m_h_a.png,O,m,830,13,1,1840.0,386439.10000014305,7213,VNB,B,12
12,test,5,0.0,1-Back,1.0,z,Thu Sep 18 2025 11:42:44 GMT-0500 (Central Daylight Time),390011.5,007_m_m_h_a.png,O,z,707,14,1,1724.8999998569489,388286.60000014305,7213,VNB,B,13
13,test,5,1.0,1-Back,1.0,m,Thu Sep 18 2025 11:42:44 GMT-0500 (Central Daylight Time),391612.30000019073,005_o_f_d_a.png,O,m,584,15,1,1592.0,390020.30000019073,7213,VNB,B,14
14,test,5,0.0,1-Back,1.0,m,Thu Sep 18 2025 11:42:44 GMT-0500 (Central Daylight Time),393676.7000000477,016_y_m_n_a.png,O,m,1039,16,1,2054.7999999523163,391621.90000009537,7213,VNB,B,15
15,test,5,0.0,1-Back,1.0,m,Thu Sep 18 2025 11:42:44 GMT-0500 (Central Daylight Time),395842.0,020_y_f_h_a.png,O,m,1132,17,1,2157.5999999046326,393684.40000009537,7213,VNB,B,16
16,test,5,0.0,1-Back,1.0,m,Thu Sep 18 2025 11:42:44 GMT-0500 (Central Daylight Time),397378.90000009537,007_m_m_d_a.png,O,m,512,18,1,1529.0999999046326,395849.80000019073,7213,VNB,B,17
0,prac,1,0.0,2-Back,,,Thu Sep 18 2025 11:42:44 GMT-0500 (Central Daylight Time),397378.90000009537,011_m_f_n_a.png,O,space,3994,1,1,1529.0999999046326,395849.80000019073,7213,VNB,B,0
0,prac,1,0.0,2-Back,,,Thu Sep 18 2025 11:42:44 GMT-0500 (Central Daylight Time),397378.90000009537,005_o_f_h_a.png,O,space,3994,2,1,1529.0999999046326,395849.80000019073,7213,VNB,B,0
1,prac,1,0.0,2-Back,1.0,m,Thu Sep 18 2025 11:42:44 GMT-0500 (Central Daylight Time),520738.40000009537,004_o_m_d_a.png,O,m,1256,3,1,2107.7000000476837,518630.7000000477,7213,VNB,B,1
2,prac,1,1.0,2-Back,1.0,z,Thu Sep 18 2025 11:42:44 GMT-0500 (Central Daylight Time),522536.7000000477,007_m_m_h_a.png,O,z,929,4,1,1787.0999999046326,520749.60000014305,7213,VNB,B,2
3,prac,1,0.0,2-Back,1.0,m,Thu Sep 18 2025 11:42:44 GMT-0500 (Central Daylight Time),524853.3000001907,020_y_f_n_a.png,O,m,1483,5,1,2306.0,522547.30000019073,7213,VNB,B,3
3,prac,1,1.0,2-Back,0.0,z,Thu Sep 18 2025 11:42:44 GMT-0500 (Central Daylight Time),527701.4000000954,004_o_m_h_a.png,O,None,2005,6,1,2839.5,524861.9000000954,7213,VNB,B,4
3,prac,1,1.0,2-Back,0.0,z,Thu Sep 18 2025 11:42:44 GMT-0500 (Central Daylight Time),530566.100000143,016_y_m_n_a.png,O,None,2006,7,1,2854.7000000476837,527711.4000000954,7213,VNB,B,5
4,prac,1,0.0,2-Back,1.0,m,Thu Sep 18 2025 11:42:44 GMT-0500 (Central Daylight Time),533133.8000001907,011_m_f_d_a.png,O,m,1710,8,1,2561.7000000476837,530572.100000143,7213,VNB,B,6
4,prac,1,0.0,2-Back,0.0,m,Thu Sep 18 2025 11:42:44 GMT-0500 (Central Daylight Time),535998.7000000477,005_o_f_d_a.png,O,None,2008,9,1,2853.899999856949,533144.8000001907,7213,VNB,B,7
4,prac,1,0.0,2-Back,0.0,m,Thu Sep 18 2025 11:42:44 GMT-0500 (Central Daylight Time),538398.8000001907,007_m_m_h_a.png,O,z,1624,10,1,2389.9000000953674,536008.9000000954,7213,VNB,B,8
4,prac,1,1.0,2-Back,0.0,z,Thu Sep 18 2025 11:42:44 GMT-0500 (Central Daylight Time),540229.8000001907,020_y_f_d_a.png,O,m,972,11,1,1821.3000001907349,538408.5,7213,VNB,B,9
4,prac,1,0.0,2-Back,0.0,m,Thu Sep 18 2025 11:42:44 GMT-0500 (Central Daylight Time),543079.600000143,004_o_m_n_a.png,O,None,2007,12,1,2838.7999999523163,540240.8000001907,7213,VNB,B,10
0,prac,2,0.0,2-Back,,,Thu Sep 18 2025 11:42:44 GMT-0500 (Central Daylight Time),543079.600000143,011_m_f_n_a.png,O,a,14287,1,1,2838.7999999523163,540240.8000001907,7213,VNB,B,0
0,prac,2,0.0,2-Back,,,Thu Sep 18 2025 11:42:44 GMT-0500 (Central Daylight Time),543079.600000143,005_o_f_h_a.png,O,a,14287,2,1,2838.7999999523163,540240.8000001907,7213,VNB,B,0
1,prac,2,0.0,2-Back,1.0,m,Thu Sep 18 2025 11:42:44 GMT-0500 (Central Daylight Time),564806.7000000477,004_o_m_d_a.png,O,m,1398,3,1,2239.0,562567.7000000477,7213,VNB,B,1
2,prac,2,1.0,2-Back,1.0,z,Thu Sep 18 2025 11:42:44 GMT-0500 (Central Daylight Time),566505.3000001907,007_m_m_h_a.png,O,z,912,4,1,1687.7000000476837,564817.600000143,7213,VNB,B,2
2,prac,2,0.0,2-Back,0.0,m,Thu Sep 18 2025 11:42:44 GMT-0500 (Central Daylight Time),569170.100000143,020_y_f_n_a.png,O,z,1811,5,1,2655.7000000476837,566514.4000000954,7213,VNB,B,3
2,prac,2,1.0,2-Back,0.0,z,Thu Sep 18 2025 11:42:44 GMT-0500 (Central Daylight Time),571119.5,004_o_m_h_a.png,O,m,1092,6,1,1938.8999998569489,569180.600000143,7213,VNB,B,4
2,prac,2,1.0,2-Back,0.0,z,Thu Sep 18 2025 11:42:44 GMT-0500 (Central Daylight Time),573718.5,016_y_m_n_a.png,O,m,1723,7,1,2588.2999999523163,571130.2000000477,7213,VNB,B,5
2,prac,2,0.0,2-Back,0.0,m,Thu Sep 18 2025 11:42:44 GMT-0500 (Central Daylight Time),575401.2000000477,011_m_f_d_a.png,O,z,803,8,1,1671.5999999046326,573729.600000143,7213,VNB,B,6
2,prac,2,0.0,2-Back,0.0,m,Thu Sep 18 2025 11:42:44 GMT-0500 (Central Daylight Time),577168.5,005_o_f_d_a.png,O,z,896,9,1,1757.0,575411.5,7213,VNB,B,7
3,prac,2,0.0,2-Back,1.0,m,Thu Sep 18 2025 11:42:44 GMT-0500 (Central Daylight Time),579183.600000143,007_m_m_h_a.png,O,m,1225,10,1,1999.4000000953674,577184.2000000477,7213,VNB,B,8
3,prac,2,1.0,2-Back,0.0,z,Thu Sep 18 2025 11:42:44 GMT-0500 (Central Daylight Time),582015.8000001907,020_y_f_d_a.png,O,m,1970,11,1,2820.9000000953674,579194.9000000954,7213,VNB,B,9
3,prac,2,0.0,2-Back,0.0,m,Thu Sep 18 2025 11:42:44 GMT-0500 (Central Daylight Time),584851.3000001907,004_o_m_n_a.png,O,None,2002,12,1,2821.600000143051,582029.7000000477,7213,VNB,B,10
0,test,1,0.0,2-Back,,,Thu Sep 18 2025 11:42:44 GMT-0500 (Central Daylight Time),584851.3000001907,016_y_m_h_a.png,O,space,2210,1,1,2821.600000143051,582029.7000000477,7213,VNB,B,0
0,test,1,0.0,2-Back,,,Thu Sep 18 2025 11:42:44 GMT-0500 (Central Daylight Time),584851.3000001907,005_o_f_n_a.png,O,space,2210,2,1,2821.600000143051,582029.7000000477,7213,VNB,B,0
1,test,1,0.0,2-Back,1.0,z,Thu Sep 18 2025 11:42:44 GMT-0500 (Central Daylight Time),616504.7000000477,004_o_m_h_a.png,O,z,1049,3,1,2072.7999999523163,614431.9000000954,7213,VNB,B,1
2,test,1,0.0,2-Back,1.0,m,Thu Sep 18 2025 11:42:44 GMT-0500 (Central Daylight Time),618422.5,011_m_f_d_a.png,O,m,888,4,1,1910.0999999046326,616512.4000000954,7213,VNB,B,2
3,test,1,1.0,2-Back,1.0,m,Thu Sep 18 2025 11:42:44 GMT-0500 (Central Daylight Time),620757.0,016_y_m_n_a.png,O,m,1316,5,1,2327.5999999046326,618429.4000000954,7213,VNB,B,3
3,test,1,0.0,2-Back,0.0,z,Thu Sep 18 2025 11:42:44 GMT-0500 (Central Daylight Time),623786.4000000954,020_y_f_d_a.png,O,None,2015,6,1,3020.7999999523163,620765.600000143,7213,VNB,B,4
3,test,1,0.0,2-Back,0.0,m,Thu Sep 18 2025 11:42:44 GMT-0500 (Central Daylight Time),626803.600000143,007_m_m_h_a.png,O,None,2001,7,1,3013.4000000953674,623790.2000000477,7213,VNB,B,5
4,test,1,1.0,2-Back,1.0,m,Thu Sep 18 2025 11:42:44 GMT-0500 (Central Daylight Time),629134.7000000477,020_y_f_n_a.png,O,m,1310,8,1,2324.399999856949,626810.3000001907,7213,VNB,B,6
5,test,1,0.0,2-Back,1.0,z,Thu Sep 18 2025 11:42:44 GMT-0500 (Central Daylight Time),631068.2000000477,005_o_f_h_a.png,O,z,915,9,1,1925.8999998569489,629142.3000001907,7213,VNB,B,7
5,test,1,0.0,2-Back,0.0,m,Thu Sep 18 2025 11:42:44 GMT-0500 (Central Daylight Time),634100.3000001907,004_o_m_d_a.png,O,None,2014,10,1,3024.100000143051,631076.2000000477,7213,VNB,B,8
6,test,1,1.0,2-Back,1.0,m,Thu Sep 18 2025 11:42:44 GMT-0500 (Central Daylight Time),636433.0,007_m_m_d_a.png,O,m,1311,11,1,2326.399999856949,634106.600000143,7213,VNB,B,9
6,test,1,0.0,2-Back,0.0,m,Thu Sep 18 2025 11:42:44 GMT-0500 (Central Daylight Time),639466.3000001907,011_m_f_n_a.png,O,None,2017,12,1,3025.7000000476837,636440.600000143,7213,VNB,B,10
7,test,1,0.0,2-Back,1.0,m,Thu Sep 18 2025 11:42:44 GMT-0500 (Central Daylight Time),641397.3000001907,020_y_f_h_a.png,O,m,904,13,1,1919.1000001430511,639478.2000000477,7213,VNB,B,11
8,test,1,0.0,2-Back,1.0,z,Thu Sep 18 2025 11:42:44 GMT-0500 (Central Daylight Time),643213.0,007_m_m_n_a.png,O,z,787,14,1,1808.3999998569489,641404.600000143,7213,VNB,B,12
9,test,1,0.0,2-Back,1.0,m,Thu Sep 18 2025 11:42:44 GMT-0500 (Central Daylight Time),645348.0,016_y_m_d_a.png,O,m,1103,15,1,2124.7999999523163,643223.2000000477,7213,VNB,B,13
9,test,1,1.0,2-Back,0.0,m,Thu Sep 18 2025 11:42:44 GMT-0500 (Central Daylight Time),648295.4000000954,011_m_f_h_a.png,O,z,1928,16,1,2938.7000000476837,645356.7000000477,7213,VNB,B,14
10,test,1,0.0,2-Back,1.0,z,Thu Sep 18 2025 11:42:44 GMT-0500 (Central Daylight Time),650278.7000000477,005_o_f_d_a.png,O,z,962,17,1,1975.2999999523163,648303.4000000954,7213,VNB,B,15
11,test,1,0.0,2-Back,1.0,m,Thu Sep 18 2025 11:42:44 GMT-0500 (Central Daylight Time),652977.8000001907,004_o_m_n_a.png,O,m,1676,18,1,2689.9000000953674,650287.9000000954,7213,VNB,B,16
0,test,2,0.0,2-Back,,,Thu Sep 18 2025 11:42:44 GMT-0500 (Central Daylight Time),652977.8000001907,007_m_m_h_a.png,O,space,1183,1,1,2689.9000000953674,650287.9000000954,7213,VNB,B,0
0,test,2,0.0,2-Back,,,Thu Sep 18 2025 11:42:44 GMT-0500 (Central Daylight Time),652977.8000001907,020_y_f_n_a.png,O,space,1183,2,1,2689.9000000953674,650287.9000000954,7213,VNB,B,0
1,test,2,1.0,2-Back,1.0,z,Thu Sep 18 2025 11:42:44 GMT-0500 (Central Daylight Time),661641.4000000954,005_o_f_h_a.png,O,z,1234,3,1,2259.4000000953674,659382.0,7213,VNB,B,1
2,test,2,0.0,2-Back,1.0,m,Thu Sep 18 2025 11:42:44 GMT-0500 (Central Daylight Time),663523.7000000477,004_o_m_d_a.png,O,m,855,4,1,1874.7999999523163,661648.9000000954,7213,VNB,B,2
3,test,2,0.0,2-Back,1.0,m,Thu Sep 18 2025 11:42:44 GMT-0500 (Central Daylight Time),665757.2000000477,011_m_f_d_a.png,O,m,1206,5,1,2226.2000000476837,663531.0,7213,VNB,B,3
3,test,2,0.0,2-Back,0.0,m,Thu Sep 18 2025 11:42:44 GMT-0500 (Central Daylight Time),667673.4000000954,016_y_m_h_a.png,O,z,894,6,1,1911.9000000953674,665761.5,7213,VNB,B,4
3,test,2,0.0,2-Back,0.0,m,Thu Sep 18 2025 11:42:44 GMT-0500 (Central Daylight Time),670706.3000001907,005_o_f_n_a.png,O,None,2016,7,1,3025.0,667681.3000001907,7213,VNB,B,5
4,test,2,1.0,2-Back,1.0,z,Thu Sep 18 2025 11:42:44 GMT-0500 (Central Daylight Time),672771.600000143,004_o_m_h_a.png,O,z,1040,8,1,2055.5,670716.100000143,7213,VNB,B,6
5,test,2,0.0,2-Back,1.0,m,Thu Sep 18 2025 11:42:44 GMT-0500 (Central Daylight Time),675071.4000000954,020_y_f_d_a.png,O,m,1271,9,1,2289.0999999046326,672782.3000001907,7213,VNB,B,7
6,test,2,0.0,2-Back,1.0,m,Thu Sep 18 2025 11:42:44 GMT-0500 (Central Daylight Time),677337.0,016_y_m_d_a.png,O,m,1245,10,1,2258.0,675079.0,7213,VNB,B,8
6,test,2,0.0,2-Back,0.0,m,Thu Sep 18 2025 11:42:44 GMT-0500 (Central Daylight Time),679235.9000000954,007_m_m_n_a.png,O,z,872,11,1,1890.2000000476837,677345.7000000477,7213,VNB,B,9
7,test,2,0.0,2-Back,1.0,m,Thu Sep 18 2025 11:42:44 GMT-0500 (Central Daylight Time),682202.7000000477,011_m_f_h_a.png,O,m,1944,12,1,2959.7000000476837,679243.0,7213,VNB,B,10
8,test,2,1.0,2-Back,1.0,z,Thu Sep 18 2025 11:42:44 GMT-0500 (Central Daylight Time),684517.100000143,004_o_m_n_a.png,O,z,1288,13,1,2306.4000000953674,682210.7000000477,7213,VNB,B,11
9,test,2,0.0,2-Back,1.0,m,Thu Sep 18 2025 11:42:44 GMT-0500 (Central Daylight Time),686766.8000001907,005_o_f_d_a.png,O,m,1216,14,1,2243.0,684523.8000001907,7213,VNB,B,12
9,test,2,0.0,2-Back,0.0,m,Thu Sep 18 2025 11:42:44 GMT-0500 (Central Daylight Time),689798.5,020_y_f_h_a.png,O,None,2015,15,1,3023.899999856949,686774.600000143,7213,VNB,B,13
10,test,2,0.0,2-Back,1.0,z,Thu Sep 18 2025 11:42:44 GMT-0500 (Central Daylight Time),692230.600000143,007_m_m_d_a.png,O,z,1400,16,1,2423.2000000476837,689807.4000000954,7213,VNB,B,14
11,test,2,0.0,2-Back,1.0,m,Thu Sep 18 2025 11:42:44 GMT-0500 (Central Daylight Time),694295.5,016_y_m_n_a.png,O,m,1041,17,1,2056.0999999046326,692239.4000000954,7213,VNB,B,15
11,test,2,1.0,2-Back,0.0,m,Thu Sep 18 2025 11:42:44 GMT-0500 (Central Daylight Time),696363.2000000477,011_m_f_n_a.png,O,z,1041,18,1,2062.5,694300.7000000477,7213,VNB,B,16
0,test,3,1.0,2-Back,,,Thu Sep 18 2025 11:42:44 GMT-0500 (Central Daylight Time),696363.2000000477,004_o_m_n_a.png,O,space,1701,1,1,2062.5,694300.7000000477,7213,VNB,B,0
0,test,3,1.0,2-Back,,,Thu Sep 18 2025 11:42:44 GMT-0500 (Central Daylight Time),696363.2000000477,005_o_f_d_a.png,O,space,1701,2,1,2062.5,694300.7000000477,7213,VNB,B,0
1,test,3,0.0,2-Back,1.0,m,Thu Sep 18 2025 11:42:44 GMT-0500 (Central Daylight Time),705027.7000000477,020_y_f_h_a.png,O,m,876,3,1,1891.7000000476837,703136.0,7213,VNB,B,1
1,test,3,0.0,2-Back,0.0,z,Thu Sep 18 2025 11:42:44 GMT-0500 (Central Daylight Time),707225.9000000954,011_m_f_d_a.png,O,m,1174,4,1,2187.9000000953674,705038.0,7213,VNB,B,2
2,test,3,1.0,2-Back,1.0,m,Thu Sep 18 2025 11:42:44 GMT-0500 (Central Daylight Time),709458.9000000954,016_y_m_n_a.png,O,m,1207,5,1,2225.0,707233.9000000954,7213,VNB,B,3
2,test,3,0.0,2-Back,0.0,m,Thu Sep 18 2025 11:42:44 GMT-0500 (Central Daylight Time),711293.5,004_o_m_h_a.png,O,z,818,6,1,1825.7999999523163,709467.7000000477,7213,VNB,B,4
2,test,3,0.0,2-Back,0.0,z,Thu Sep 18 2025 11:42:44 GMT-0500 (Central Daylight Time),714324.5,020_y_f_n_a.png,O,None,2016,7,1,3022.199999809265,711302.3000001907,7213,VNB,B,5
3,test,3,1.0,2-Back,1.0,m,Thu Sep 18 2025 11:42:44 GMT-0500 (Central Daylight Time),716723.5,007_m_m_d_a.png,O,m,1374,8,1,2393.2999999523163,714330.2000000477,7213,VNB,B,6
4,test,3,0.0,2-Back,1.0,m,Thu Sep 18 2025 11:42:44 GMT-0500 (Central Daylight Time),718973.5,016_y_m_d_a.png,O,m,1207,9,1,2230.0999999046326,716743.4000000954,7213,VNB,B,7
5,test,3,0.0,2-Back,1.0,m,Thu Sep 18 2025 11:42:44 GMT-0500 (Central Daylight Time),721055.600000143,005_o_f_h_a.png,O,m,1053,10,1,2074.4000000953674,718981.2000000477,7213,VNB,B,8
5,test,3,1.0,2-Back,0.0,m,Thu Sep 18 2025 11:42:44 GMT-0500 (Central Daylight Time),722938.5,011_m_f_n_a.png,O,z,858,11,1,1876.0,721062.5,7213,VNB,B,9
5,test,3,1.0,2-Back,0.0,z,Thu Sep 18 2025 11:42:44 GMT-0500 (Central Daylight Time),725971.9000000954,007_m_m_h_a.png,O,None,2016,12,1,3024.2999999523163,722947.600000143,7213,VNB,B,10
5,test,3,0.0,2-Back,0.0,m,Thu Sep 18 2025 11:42:44 GMT-0500 (Central Daylight Time),729003.9000000954,020_y_f_d_a.png,O,None,2017,13,1,3020.7000000476837,725983.2000000477,7213,VNB,B,11
6,test,3,0.0,2-Back,1.0,m,Thu Sep 18 2025 11:42:44 GMT-0500 (Central Daylight Time),730387.7000000477,005_o_f_n_a.png,O,m,368,14,1,1373.7999999523163,729013.9000000954,7213,VNB,B,12
6,test,3,0.0,2-Back,0.0,z,Thu Sep 18 2025 11:42:44 GMT-0500 (Central Daylight Time),732802.600000143,004_o_m_d_a.png,O,m,1392,15,1,2405.4000000953674,730397.2000000477,7213,VNB,B,13
7,test,3,1.0,2-Back,1.0,m,Thu Sep 18 2025 11:42:44 GMT-0500 (Central Daylight Time),735652.2000000477,011_m_f_h_a.png,O,m,1832,16,1,2842.0999999046326,732810.100000143,7213,VNB,B,14
7,test,3,0.0,2-Back,0.0,m,Thu Sep 18 2025 11:42:44 GMT-0500 (Central Daylight Time),737283.8000001907,007_m_m_n_a.png,O,z,607,17,1,1624.0,735659.8000001907,7213,VNB,B,15
7,test,3,0.0,2-Back,0.0,z,Thu Sep 18 2025 11:42:44 GMT-0500 (Central Daylight Time),739034.9000000954,016_y_m_h_a.png,O,m,735,18,1,1742.7999999523163,737292.100000143,7213,VNB,B,16
0,test,4,0.0,2-Back,,,Thu Sep 18 2025 11:42:44 GMT-0500 (Central Daylight Time),739034.9000000954,011_m_f_n_a.png,O,space,1263,1,1,1742.7999999523163,737292.100000143,7213,VNB,B,0
0,test,4,0.0,2-Back,,,Thu Sep 18 2025 11:42:44 GMT-0500 (Central Daylight Time),739034.9000000954,004_o_m_n_a.png,O,space,1263,2,1,1742.7999999523163,737292.100000143,7213,VNB,B,0
1,test,4,1.0,2-Back,1.0,m,Thu Sep 18 2025 11:42:44 GMT-0500 (Central Daylight Time),747430.9000000954,016_y_m_h_a.png,O,m,919,3,1,1939.5,745491.4000000954,7213,VNB,B,1
2,test,4,1.0,2-Back,1.0,m,Thu Sep 18 2025 11:42:44 GMT-0500 (Central Daylight Time),749684.100000143,005_o_f_d_a.png,O,m,1237,4,1,2242.100000143051,747442.0,7213,VNB,B,2
3,test,4,0.0,2-Back,1.0,z,Thu Sep 18 2025 11:42:44 GMT-0500 (Central Daylight Time),752178.9000000954,004_o_m_h_a.png,O,z,1474,5,1,2491.7000000476837,749687.2000000477,7213,VNB,B,3
3,test,4,0.0,2-Back,0.0,m,Thu Sep 18 2025 11:42:44 GMT-0500 (Central Daylight Time),755210.5,007_m_m_n_a.png,O,None,2015,6,1,3024.699999809265,752185.8000001907,7213,VNB,B,4
4,test,4,0.0,2-Back,1.0,m,Thu Sep 18 2025 11:42:44 GMT-0500 (Central Daylight Time),757212.3000001907,011_m_f_d_a.png,O,m,983,7,1,1998.7000000476837,755213.600000143,7213,VNB,B,5
5,test,4,0.0,2-Back,1.0,z,Thu Sep 18 2025 11:42:44 GMT-0500 (Central Daylight Time),759110.5,020_y_f_n_a.png,O,z,871,8,1,1890.3999998569489,757220.100000143,7213,VNB,B,6
6,test,4,1.0,2-Back,1.0,m,Thu Sep 18 2025 11:42:44 GMT-0500 (Central Daylight Time),761109.2000000477,005_o_f_h_a.png,O,m,979,9,1,1990.0,759119.2000000477,7213,VNB,B,7
6,test,4,0.0,2-Back,0.0,m,Thu Sep 18 2025 11:42:44 GMT-0500 (Central Daylight Time),763042.600000143,007_m_m_h_a.png,O,z,900,10,1,1925.9000000953674,761116.7000000477,7213,VNB,B,8
7,test,4,0.0,2-Back,1.0,m,Thu Sep 18 2025 11:42:44 GMT-0500 (Central Daylight Time),765524.5,020_y_f_d_a.png,O,m,1464,11,1,2474.5999999046326,763049.9000000954,7213,VNB,B,9
7,test,4,0.0,2-Back,0.0,m,Thu Sep 18 2025 11:42:44 GMT-0500 (Central Daylight Time),768440.5,016_y_m_n_a.png,O,z,1892,12,1,2909.0,765531.5,7213,VNB,B,10
7,test,4,0.0,2-Back,0.0,z,Thu Sep 18 2025 11:42:44 GMT-0500 (Central Daylight Time),770339.4000000954,004_o_m_d_a.png,O,m,871,13,1,1891.4000000953674,768448.0,7213,VNB,B,11
7,test,4,1.0,2-Back,0.0,m,Thu Sep 18 2025 11:42:44 GMT-0500 (Central Daylight Time),772557.5,011_m_f_h_a.png,O,z,1200,14,1,2215.0999999046326,770342.4000000954,7213,VNB,B,12
7,test,4,1.0,2-Back,0.0,m,Thu Sep 18 2025 11:42:44 GMT-0500 (Central Daylight Time),774873.3000001907,020_y_f_h_a.png,O,z,1284,15,1,2309.7000000476837,772563.600000143,7213,VNB,B,13
8,test,4,0.0,2-Back,1.0,m,Thu Sep 18 2025 11:42:44 GMT-0500 (Central Daylight Time),777821.3000001907,005_o_f_n_a.png,O,m,1916,16,1,2940.300000190735,774881.0,7213,VNB,B,14
9,test,4,0.0,2-Back,1.0,m,Thu Sep 18 2025 11:42:44 GMT-0500 (Central Daylight Time),779902.9000000954,016_y_m_d_a.png,O,m,1052,17,1,2073.5,777829.4000000954,7213,VNB,B,15
10,test,4,1.0,2-Back,1.0,m,Thu Sep 18 2025 11:42:44 GMT-0500 (Central Daylight Time),782019.600000143,007_m_m_d_a.png,O,m,1090,18,1,2106.2000000476837,779913.4000000954,7213,VNB,B,16
0,test,5,1.0,2-Back,,,Thu Sep 18 2025 11:42:44 GMT-0500 (Central Daylight Time),782019.600000143,020_y_f_d_a.png,O,space,1477,1,1,2106.2000000476837,779913.4000000954,7213,VNB,B,0
0,test,5,1.0,2-Back,,,Thu Sep 18 2025 11:42:44 GMT-0500 (Central Daylight Time),782019.600000143,005_o_f_h_a.png,O,space,1477,2,1,2106.2000000476837,779913.4000000954,7213,VNB,B,0
0,test,5,1.0,2-Back,0.0,z,Thu Sep 18 2025 11:42:44 GMT-0500 (Central Daylight Time),791149.3000001907,004_o_m_d_a.png,O,m,1429,3,1,2443.4000000953674,788705.9000000954,7213,VNB,B,1
0,test,5,1.0,2-Back,0.0,m,Thu Sep 18 2025 11:42:44 GMT-0500 (Central Daylight Time),792900.100000143,011_m_f_n_a.png,O,z,733,4,1,1744.4000000953674,791155.7000000477,7213,VNB,B,2
1,test,5,0.0,2-Back,1.0,m,Thu Sep 18 2025 11:42:44 GMT-0500 (Central Daylight Time),795014.5,007_m_m_h_a.png,O,m,1094,5,1,2105.5,792909.0,7213,VNB,B,3
2,test,5,0.0,2-Back,1.0,z,Thu Sep 18 2025 11:42:44 GMT-0500 (Central Daylight Time),796849.0,020_y_f_n_a.png,O,z,800,6,1,1825.5,795023.5,7213,VNB,B,4
3,test,5,0.0,2-Back,1.0,m,Thu Sep 18 2025 11:42:44 GMT-0500 (Central Daylight Time),798248.8000001907,005_o_f_d_a.png,O,m,371,7,1,1389.3000001907349,796859.5,7213,VNB,B,5
3,test,5,0.0,2-Back,0.0,m,Thu Sep 18 2025 11:42:44 GMT-0500 (Central Daylight Time),800597.7000000477,004_o_m_h_a.png,O,z,1319,8,1,2340.0999999046326,798257.600000143,7213,VNB,B,6
3,test,5,1.0,2-Back,0.0,z,Thu Sep 18 2025 11:42:44 GMT-0500 (Central Daylight Time),803347.9000000954,011_m_f_d_a.png,O,m,1734,9,1,2742.7999999523163,800605.100000143,7213,VNB,B,7
3,test,5,0.0,2-Back,0.0,m,Thu Sep 18 2025 11:42:44 GMT-0500 (Central Daylight Time),805845.3000001907,016_y_m_n_a.png,O,z,1467,10,1,2489.7000000476837,803355.600000143,7213,VNB,B,8
4,test,5,0.0,2-Back,1.0,m,Thu Sep 18 2025 11:42:44 GMT-0500 (Central Daylight Time),807995.100000143,007_m_m_n_a.png,O,m,1133,11,1,2141.7000000476837,805853.4000000954,7213,VNB,B,9
5,test,5,0.0,2-Back,1.0,m,Thu Sep 18 2025 11:42:44 GMT-0500 (Central Daylight Time),810161.4000000954,020_y_f_h_a.png,O,m,1135,12,1,2159.4000000953674,808002.0,7213,VNB,B,10
6,test,5,0.0,2-Back,1.0,m,Thu Sep 18 2025 11:42:44 GMT-0500 (Central Daylight Time),812144.0,016_y_m_d_a.png,O,m,953,13,1,1974.6999998092651,810169.3000001907,7213,VNB,B,11
7,test,5,1.0,2-Back,1.0,z,Thu Sep 18 2025 11:42:44 GMT-0500 (Central Daylight Time),813678.600000143,011_m_f_h_a.png,O,z,508,14,1,1527.7999999523163,812150.8000001907,7213,VNB,B,12
7,test,5,0.0,2-Back,0.0,m,Thu Sep 18 2025 11:42:44 GMT-0500 (Central Daylight Time),816193.9000000954,004_o_m_n_a.png,O,z,1491,15,1,2506.5,813687.4000000954,7213,VNB,B,13
8,test,5,0.0,2-Back,1.0,m,Thu Sep 18 2025 11:42:44 GMT-0500 (Central Daylight Time),818124.0,007_m_m_d_a.png,O,m,900,16,1,1922.8999998569489,816201.100000143,7213,VNB,B,14
8,test,5,0.0,2-Back,0.0,z,Thu Sep 18 2025 11:42:44 GMT-0500 (Central Daylight Time),821072.600000143,005_o_f_n_a.png,O,m,1924,17,1,2940.5,818132.100000143,7213,VNB,B,15
8,test,5,1.0,2-Back,0.0,m,Thu Sep 18 2025 11:42:44 GMT-0500 (Central Daylight Time),823773.4000000954,016_y_m_h_a.png,O,z,1672,18,1,2694.2000000476837,821079.2000000477,7213,VNB,B,16
