acc_sum,block,block_c,block_cond,con_img,correct,correct_response,datetime,endtime,face,jitter,line,project,response,response_time,row_sel,session_number,start_end,starttime,subject_id,task,task_vers,trial
1,prac,1,A,haborder.png,1,z,Mon Mar 09 2026 11:38:53 GMT-0500 (Central Daylight Time),43056.799999952316,CFD-WF-003-014-A.jpg,1600,solid,I,z,1048,10,,3432.5,39624.299999952316,8063,ATS,A,1
2,prac,1,A,haborder.png,1,z,Mon Mar 09 2026 11:38:53 GMT-0500 (Central Daylight Time),45822.5,CFD-BF-039-039-A.jpg,1200,solid,I,z,782,6,,6198.200000047684,39624.299999952316,8063,ATS,A,2
3,prac,1,A,haborder.png,1,m,Mon Mar 09 2026 11:38:53 GMT-0500 (Central Daylight Time),48855.199999809265,CFD-WM-006-013-HC.jpg,1700,solid,I,m,542,9,,9230.899999856949,39624.299999952316,8063,ATS,A,3
4,prac,1,A,haborder.png,1,z,Mon Mar 09 2026 11:38:53 GMT-0500 (Central Daylight Time),51304.09999990463,CFD-BF-023-013-A.jpg,1000,solid,I,z,665,4,,11679.799999952316,39624.299999952316,8063,ATS,A,4
5,prac,1,A,haborder.png,1,z,Mon Mar 09 2026 11:38:53 GMT-0500 (Central Daylight Time),53720.0,CFD-WF-019-015-A.jpg,1000,solid,I,z,623,12,,14095.700000047684,39624.299999952316,8063,ATS,A,5
6,prac,1,A,haborder.png,1,m,Mon Mar 09 2026 11:38:53 GMT-0500 (Central Daylight Time),56602.09999990463,CFD-WF-017-016-HC.jpg,1500,solid,I,m,596,11,,16977.799999952316,39624.299999952316,8063,ATS,A,6
7,prac,1,A,haborder.png,1,m,Mon Mar 09 2026 11:38:53 GMT-0500 (Central Daylight Time),59668.59999990463,CFD-BM-029-026-HC.jpg,1500,solid,I,m,778,3,,20044.299999952316,39624.299999952316,8063,ATS,A,7
8,prac,1,A,haborder.png,1,m,Mon Mar 09 2026 11:38:53 GMT-0500 (Central Daylight Time),62717.0,CFD-BM-017-052-HC.jpg,1700,solid,I,m,559,1,,23092.700000047684,39624.299999952316,8063,ATS,A,8
9,prac,1,A,haborder.png,1,m,Mon Mar 09 2026 11:38:53 GMT-0500 (Central Daylight Time),66266.19999980927,CFD-BF-028-020-HC.jpg,2000,solid,I,m,764,5,,26641.89999985695,39624.299999952316,8063,ATS,A,9
10,prac,1,A,haborder.png,1,z,Mon Mar 09 2026 11:38:53 GMT-0500 (Central Daylight Time),69748.59999990463,CFD-WM-013-015-A.jpg,1900,solid,I,z,793,8,,30124.299999952316,39624.299999952316,8063,ATS,A,10
11,prac,1,A,haborder.png,1,m,Mon Mar 09 2026 11:38:53 GMT-0500 (Central Daylight Time),72780.69999980927,CFD-WM-004-005-HC.jpg,1400,solid,I,m,836,7,,33156.39999985695,39624.299999952316,8063,ATS,A,11
12,prac,1,A,haborder.png,1,z,Mon Mar 09 2026 11:38:53 GMT-0500 (Central Daylight Time),75813.19999980927,CFD-BM-005-010-A.jpg,1600,solid,I,z,636,2,,36188.89999985695,39624.299999952316,8063,ATS,A,12
1,prac,1,B,mfborder.png,1,m,Mon Mar 09 2026 11:38:53 GMT-0500 (Central Daylight Time),87509.59999990463,CFD-WM-013-015-A.jpg,1700,dash,I,m,568,9,,3066.0,84443.59999990463,8063,ATS,A,1
2,prac,1,B,mfborder.png,1,z,Mon Mar 09 2026 11:38:53 GMT-0500 (Central Daylight Time),89958.69999980927,CFD-BF-023-013-A.jpg,1000,dash,I,z,659,4,,5515.099999904633,84443.59999990463,8063,ATS,A,2
3,prac,1,B,mfborder.png,1,m,Mon Mar 09 2026 11:38:53 GMT-0500 (Central Daylight Time),92774.39999985695,CFD-WM-019-013-A.jpg,1200,dash,I,m,825,6,,8330.799999952316,84443.59999990463,8063,ATS,A,3
4,prac,1,B,mfborder.png,1,m,Mon Mar 09 2026 11:38:53 GMT-0500 (Central Daylight Time),96190.09999990463,CFD-BM-005-010-A.jpg,2000,dash,I,m,617,5,,11746.5,84443.59999990463,8063,ATS,A,4
5,prac,1,B,mfborder.png,1,m,Mon Mar 09 2026 11:38:53 GMT-0500 (Central Daylight Time),99155.89999985695,CFD-BM-010-019-A.jpg,1600,dash,I,m,568,2,,14712.299999952316,84443.59999990463,8063,ATS,A,5
6,prac,1,B,mfborder.png,1,z,Mon Mar 09 2026 11:38:53 GMT-0500 (Central Daylight Time),101988.19999980927,CFD-BF-028-020-HC.jpg,1400,dash,I,z,645,7,,17544.599999904633,84443.59999990463,8063,ATS,A,6
7,prac,1,B,mfborder.png,1,z,Mon Mar 09 2026 11:38:53 GMT-0500 (Central Daylight Time),105020.79999995232,CFD-WF-003-014-A.jpg,1500,dash,I,z,735,11,,20577.200000047684,84443.59999990463,8063,ATS,A,7
8,prac,1,B,mfborder.png,1,z,Mon Mar 09 2026 11:38:53 GMT-0500 (Central Daylight Time),107936.5,CFD-BF-010-005-HC.jpg,1500,dash,I,z,623,3,,23492.900000095367,84443.59999990463,8063,ATS,A,8
9,prac,1,B,mfborder.png,1,z,Mon Mar 09 2026 11:38:53 GMT-0500 (Central Daylight Time),111185.59999990463,CFD-WF-002-008-HC.jpg,1900,dash,I,z,563,8,,26742.0,84443.59999990463,8063,ATS,A,9
10,prac,1,B,mfborder.png,1,z,Mon Mar 09 2026 11:38:53 GMT-0500 (Central Daylight Time),113518.19999980927,CFD-WF-017-016-HC.jpg,1000,dash,I,z,541,12,,29074.599999904633,84443.59999990463,8063,ATS,A,10
11,prac,1,B,mfborder.png,1,m,Mon Mar 09 2026 11:38:53 GMT-0500 (Central Daylight Time),116484.69999980927,CFD-WM-006-013-HC.jpg,1600,dash,I,m,585,10,,32041.099999904633,84443.59999990463,8063,ATS,A,11
12,prac,1,B,mfborder.png,1,m,Mon Mar 09 2026 11:38:53 GMT-0500 (Central Daylight Time),119649.59999990463,CFD-BM-029-026-HC.jpg,1700,dash,I,m,681,1,,35206.0,84443.59999990463,8063,ATS,A,12
1,test,1,A,haborder.png,1,z,Mon Mar 09 2026 11:38:53 GMT-0500 (Central Daylight Time),130262.89999985695,CFD-BM-005-010-A.jpg,1600,solid,I,z,1385,2,,3015.7999999523163,127247.09999990463,8063,ATS,A,1
2,test,1,A,haborder.png,1,m,Mon Mar 09 2026 11:38:53 GMT-0500 (Central Daylight Time),132395.19999980927,CFD-WF-017-016-HC.jpg,1500,solid,I,m,613,11,,5148.099999904633,127247.09999990463,8063,ATS,A,2
3,test,1,A,haborder.png,1,m,Mon Mar 09 2026 11:38:53 GMT-0500 (Central Daylight Time),134661.29999995232,CFD-WM-006-013-HC.jpg,1700,solid,I,m,544,9,,7414.200000047684,127247.09999990463,8063,ATS,A,3
4,test,1,A,haborder.png,1,m,Mon Mar 09 2026 11:38:53 GMT-0500 (Central Daylight Time),136794.09999990463,CFD-BM-029-026-HC.jpg,1500,solid,I,m,606,3,,9547.0,127247.09999990463,8063,ATS,A,4
5,test,1,A,haborder.png,1,z,Mon Mar 09 2026 11:38:53 GMT-0500 (Central Daylight Time),139044.39999985695,CFD-WF-003-014-A.jpg,1600,solid,I,z,622,10,,11797.299999952316,127247.09999990463,8063,ATS,A,5
6,test,1,A,haborder.png,1,m,Mon Mar 09 2026 11:38:53 GMT-0500 (Central Daylight Time),141309.0,CFD-BM-029-026-HC.jpg,1500,solid,I,m,745,3,,14061.900000095367,127247.09999990463,8063,ATS,A,6
7,test,1,A,haborder.png,1,m,Mon Mar 09 2026 11:38:53 GMT-0500 (Central Daylight Time),143625.0,CFD-BM-017-052-HC.jpg,1700,solid,I,m,598,1,,16377.900000095367,127247.09999990463,8063,ATS,A,7
8,test,1,A,haborder.png,1,z,Mon Mar 09 2026 11:38:53 GMT-0500 (Central Daylight Time),146224.19999980927,CFD-WM-013-015-A.jpg,1900,solid,I,z,674,8,,18977.099999904633,127247.09999990463,8063,ATS,A,8
9,test,1,A,haborder.png,1,m,Mon Mar 09 2026 11:38:53 GMT-0500 (Central Daylight Time),148457.29999995232,CFD-WF-017-016-HC.jpg,1500,solid,I,m,708,11,,21210.200000047684,127247.09999990463,8063,ATS,A,9
10,test,1,A,haborder.png,1,z,Mon Mar 09 2026 11:38:53 GMT-0500 (Central Daylight Time),150139.69999980927,CFD-BF-023-013-A.jpg,1000,solid,I,z,663,4,,22892.599999904633,127247.09999990463,8063,ATS,A,10
11,test,1,A,haborder.png,1,z,Mon Mar 09 2026 11:38:53 GMT-0500 (Central Daylight Time),151705.69999980927,CFD-BF-023-013-A.jpg,1000,solid,I,z,539,4,,24458.599999904633,127247.09999990463,8063,ATS,A,11
12,test,1,A,haborder.png,1,z,Mon Mar 09 2026 11:38:53 GMT-0500 (Central Daylight Time),153638.79999995232,CFD-BF-039-039-A.jpg,1200,solid,I,z,701,6,,26391.700000047684,127247.09999990463,8063,ATS,A,12
13,test,1,A,haborder.png,1,z,Mon Mar 09 2026 11:38:53 GMT-0500 (Central Daylight Time),155838.0,CFD-WF-003-014-A.jpg,1600,solid,I,z,569,10,,28590.900000095367,127247.09999990463,8063,ATS,A,13
14,test,1,A,haborder.png,1,m,Mon Mar 09 2026 11:38:53 GMT-0500 (Central Daylight Time),158554.79999995232,CFD-BF-028-020-HC.jpg,2000,solid,I,m,698,5,,31307.700000047684,127247.09999990463,8063,ATS,A,14
15,test,1,A,haborder.png,1,z,Mon Mar 09 2026 11:38:53 GMT-0500 (Central Daylight Time),161137.19999980927,CFD-WM-013-015-A.jpg,1900,solid,I,z,667,8,,33890.09999990463,127247.09999990463,8063,ATS,A,15
16,test,1,A,haborder.png,1,m,Mon Mar 09 2026 11:38:53 GMT-0500 (Central Daylight Time),163769.09999990463,CFD-BF-028-020-HC.jpg,2000,solid,I,m,616,5,,36522.0,127247.09999990463,8063,ATS,A,16
16,test,1,A,haborder.png,0,m,Mon Mar 09 2026 11:38:53 GMT-0500 (Central Daylight Time),166551.59999990463,CFD-BM-017-052-HC.jpg,1700,solid,I,z,1050,1,,39304.5,127247.09999990463,8063,ATS,A,17
17,test,1,A,haborder.png,1,m,Mon Mar 09 2026 11:38:53 GMT-0500 (Central Daylight Time),168567.69999980927,CFD-WM-004-005-HC.jpg,1400,solid,I,m,584,7,,41320.59999990463,127247.09999990463,8063,ATS,A,18
18,test,1,A,haborder.png,1,z,Mon Mar 09 2026 11:38:53 GMT-0500 (Central Daylight Time),170350.39999985695,CFD-WF-019-015-A.jpg,1000,solid,I,z,720,12,,43103.299999952316,127247.09999990463,8063,ATS,A,19
19,test,1,A,haborder.png,1,z,Mon Mar 09 2026 11:38:53 GMT-0500 (Central Daylight Time),172582.69999980927,CFD-BF-039-039-A.jpg,1200,solid,I,z,1010,6,,45335.59999990463,127247.09999990463,8063,ATS,A,20
20,test,1,A,haborder.png,1,m,Mon Mar 09 2026 11:38:53 GMT-0500 (Central Daylight Time),174832.19999980927,CFD-WM-004-005-HC.jpg,1400,solid,I,m,825,7,,47585.09999990463,127247.09999990463,8063,ATS,A,21
21,test,1,A,haborder.png,1,z,Mon Mar 09 2026 11:38:53 GMT-0500 (Central Daylight Time),177514.5,CFD-BM-005-010-A.jpg,1600,solid,I,z,1063,2,,50267.40000009537,127247.09999990463,8063,ATS,A,22
22,test,1,A,haborder.png,1,z,Mon Mar 09 2026 11:38:53 GMT-0500 (Central Daylight Time),179130.89999985695,CFD-WF-019-015-A.jpg,1000,solid,I,z,598,12,,51883.799999952316,127247.09999990463,8063,ATS,A,23
23,test,1,A,haborder.png,1,m,Mon Mar 09 2026 11:38:53 GMT-0500 (Central Daylight Time),181531.19999980927,CFD-WM-006-013-HC.jpg,1700,solid,I,m,682,9,,54284.09999990463,127247.09999990463,8063,ATS,A,24
1,test,1,B,mfborder.png,1,z,Mon Mar 09 2026 11:38:53 GMT-0500 (Central Daylight Time),185662.29999995232,CFD-WF-017-016-HC.jpg,1000,dash,I,z,1152,12,,2182.5,183479.79999995232,8063,ATS,A,1
2,test,1,B,mfborder.png,1,m,Mon Mar 09 2026 11:38:53 GMT-0500 (Central Daylight Time),188194.5,CFD-BM-005-010-A.jpg,2000,dash,I,m,505,5,,4714.700000047684,183479.79999995232,8063,ATS,A,2
3,test,1,B,mfborder.png,1,z,Mon Mar 09 2026 11:38:53 GMT-0500 (Central Daylight Time),190310.69999980927,CFD-WF-003-014-A.jpg,1500,dash,I,z,586,11,,6830.899999856949,183479.79999995232,8063,ATS,A,3
4,test,1,B,mfborder.png,1,m,Mon Mar 09 2026 11:38:53 GMT-0500 (Central Daylight Time),193011.19999980927,CFD-BM-005-010-A.jpg,2000,dash,I,m,673,5,,9531.399999856949,183479.79999995232,8063,ATS,A,4
5,test,1,B,mfborder.png,1,m,Mon Mar 09 2026 11:38:53 GMT-0500 (Central Daylight Time),195243.29999995232,CFD-WM-006-013-HC.jpg,1600,dash,I,m,614,10,,11763.5,183479.79999995232,8063,ATS,A,5
6,test,1,B,mfborder.png,1,z,Mon Mar 09 2026 11:38:53 GMT-0500 (Central Daylight Time),197925.09999990463,CFD-WF-002-008-HC.jpg,1900,dash,I,z,754,8,,14445.299999952316,183479.79999995232,8063,ATS,A,6
7,test,1,B,mfborder.png,1,m,Mon Mar 09 2026 11:38:53 GMT-0500 (Central Daylight Time),199724.19999980927,CFD-WM-019-013-A.jpg,1200,dash,I,m,579,6,,16244.399999856949,183479.79999995232,8063,ATS,A,7
8,test,1,B,mfborder.png,1,z,Mon Mar 09 2026 11:38:53 GMT-0500 (Central Daylight Time),201723.69999980927,CFD-BF-023-013-A.jpg,1000,dash,I,z,971,4,,18243.89999985695,183479.79999995232,8063,ATS,A,8
9,test,1,B,mfborder.png,1,m,Mon Mar 09 2026 11:38:53 GMT-0500 (Central Daylight Time),204389.79999995232,CFD-WM-013-015-A.jpg,1700,dash,I,m,936,9,,20910.0,183479.79999995232,8063,ATS,A,9
10,test,1,B,mfborder.png,1,m,Mon Mar 09 2026 11:38:53 GMT-0500 (Central Daylight Time),206521.89999985695,CFD-BM-010-019-A.jpg,1600,dash,I,m,515,2,,23042.099999904633,183479.79999995232,8063,ATS,A,10
11,test,1,B,mfborder.png,1,z,Mon Mar 09 2026 11:38:53 GMT-0500 (Central Daylight Time),208221.69999980927,CFD-BF-023-013-A.jpg,1000,dash,I,z,678,4,,24741.89999985695,183479.79999995232,8063,ATS,A,11
12,test,1,B,mfborder.png,1,m,Mon Mar 09 2026 11:38:53 GMT-0500 (Central Daylight Time),210554.29999995232,CFD-BM-029-026-HC.jpg,1700,dash,I,m,606,1,,27074.5,183479.79999995232,8063,ATS,A,12
13,test,1,B,mfborder.png,1,z,Mon Mar 09 2026 11:38:53 GMT-0500 (Central Daylight Time),212637.0,CFD-BF-028-020-HC.jpg,1400,dash,I,z,653,7,,29157.200000047684,183479.79999995232,8063,ATS,A,13
14,test,1,B,mfborder.png,1,z,Mon Mar 09 2026 11:38:53 GMT-0500 (Central Daylight Time),215119.5,CFD-WF-002-008-HC.jpg,1900,dash,I,z,551,8,,31639.700000047684,183479.79999995232,8063,ATS,A,14
15,test,1,B,mfborder.png,1,m,Mon Mar 09 2026 11:38:53 GMT-0500 (Central Daylight Time),217018.89999985695,CFD-WM-019-013-A.jpg,1200,dash,I,m,673,6,,33539.09999990463,183479.79999995232,8063,ATS,A,15
16,test,1,B,mfborder.png,1,z,Mon Mar 09 2026 11:38:53 GMT-0500 (Central Daylight Time),218851.79999995232,CFD-WF-017-016-HC.jpg,1000,dash,I,z,806,12,,35372.0,183479.79999995232,8063,ATS,A,16
17,test,1,B,mfborder.png,1,z,Mon Mar 09 2026 11:38:53 GMT-0500 (Central Daylight Time),221051.89999985695,CFD-BF-010-005-HC.jpg,1500,dash,I,z,680,3,,37572.09999990463,183479.79999995232,8063,ATS,A,17
18,test,1,B,mfborder.png,1,m,Mon Mar 09 2026 11:38:53 GMT-0500 (Central Daylight Time),223300.39999985695,CFD-WM-013-015-A.jpg,1700,dash,I,m,530,9,,39820.59999990463,183479.79999995232,8063,ATS,A,18
19,test,1,B,mfborder.png,1,z,Mon Mar 09 2026 11:38:53 GMT-0500 (Central Daylight Time),225417.59999990463,CFD-BF-010-005-HC.jpg,1500,dash,I,z,591,3,,41937.799999952316,183479.79999995232,8063,ATS,A,19
20,test,1,B,mfborder.png,1,z,Mon Mar 09 2026 11:38:53 GMT-0500 (Central Daylight Time),227499.09999990463,CFD-BF-028-020-HC.jpg,1400,dash,I,z,664,7,,44019.299999952316,183479.79999995232,8063,ATS,A,20
21,test,1,B,mfborder.png,1,m,Mon Mar 09 2026 11:38:53 GMT-0500 (Central Daylight Time),229715.89999985695,CFD-WM-006-013-HC.jpg,1600,dash,I,m,590,10,,46236.09999990463,183479.79999995232,8063,ATS,A,21
22,test,1,B,mfborder.png,1,m,Mon Mar 09 2026 11:38:53 GMT-0500 (Central Daylight Time),231931.09999990463,CFD-BM-029-026-HC.jpg,1700,dash,I,m,490,1,,48451.299999952316,183479.79999995232,8063,ATS,A,22
23,test,1,B,mfborder.png,1,m,Mon Mar 09 2026 11:38:53 GMT-0500 (Central Daylight Time),234097.09999990463,CFD-BM-010-019-A.jpg,1600,dash,I,m,550,2,,50617.299999952316,183479.79999995232,8063,ATS,A,23
24,test,1,B,mfborder.png,1,z,Mon Mar 09 2026 11:38:53 GMT-0500 (Central Daylight Time),236213.0,CFD-WF-003-014-A.jpg,1500,dash,I,z,588,11,,52733.200000047684,183479.79999995232,8063,ATS,A,24
1,prac,1,C,mfborder.png,1,z,Mon Mar 09 2026 11:38:53 GMT-0500 (Central Daylight Time),250941.89999985695,CFD-BF-028-020-HC.jpg,1000,dash,I,z,876,3,,2666.0999999046326,248275.79999995232,8063,ATS,A,1
2,prac,1,C,mfborder.png,1,m,Mon Mar 09 2026 11:38:53 GMT-0500 (Central Daylight Time),254807.19999980927,CFD-BM-017-052-HC.jpg,2000,solid,I,m,1066,4,,6531.399999856949,248275.79999995232,8063,ATS,A,2
2,prac,1,C,mfborder.png,0,m,Mon Mar 09 2026 11:38:53 GMT-0500 (Central Daylight Time),258306.0,CFD-BM-005-010-A.jpg,1200,dash,I,None,1515,5,,10030.200000047684,248275.79999995232,8063,ATS,A,3
3,prac,1,C,haborder.png,1,z,Mon Mar 09 2026 11:38:53 GMT-0500 (Central Daylight Time),261621.5,CFD-BF-039-039-A.jpg,1700,solid,I,z,827,8,,13345.700000047684,248275.79999995232,8063,ATS,A,4
4,prac,1,C,haborder.png,1,m,Mon Mar 09 2026 11:38:53 GMT-0500 (Central Daylight Time),264721.89999985695,CFD-WM-004-005-HC.jpg,1400,solid,I,m,794,12,,16446.099999904633,248275.79999995232,8063,ATS,A,5
5,prac,1,C,haborder.png,1,m,Mon Mar 09 2026 11:38:53 GMT-0500 (Central Daylight Time),267319.69999980927,CFD-WM-004-005-HC.jpg,1000,dash,I,m,808,11,,19043.89999985695,248275.79999995232,8063,ATS,A,6
5,prac,1,C,mfborder.png,0,m,Mon Mar 09 2026 11:38:53 GMT-0500 (Central Daylight Time),270985.2999999523,CFD-WM-013-015-A.jpg,1700,solid,I,z,1173,6,,22709.5,248275.79999995232,8063,ATS,A,7
6,prac,1,C,haborder.png,1,z,Mon Mar 09 2026 11:38:53 GMT-0500 (Central Daylight Time),274284.5,CFD-WF-003-014-A.jpg,1600,dash,I,z,911,9,,26008.700000047684,248275.79999995232,8063,ATS,A,8
7,prac,1,C,mfborder.png,1,z,Mon Mar 09 2026 11:38:53 GMT-0500 (Central Daylight Time),277500.0,CFD-WF-019-015-A.jpg,1500,solid,I,z,920,2,,29224.200000047684,248275.79999995232,8063,ATS,A,9
8,prac,1,C,haborder.png,1,m,Mon Mar 09 2026 11:38:53 GMT-0500 (Central Daylight Time),280532.2999999523,CFD-BM-029-026-HC.jpg,1500,solid,I,m,737,10,,32256.5,248275.79999995232,8063,ATS,A,10
9,prac,1,C,haborder.png,1,z,Mon Mar 09 2026 11:38:53 GMT-0500 (Central Daylight Time),283948.09999990463,CFD-BF-023-013-A.jpg,1900,dash,I,z,719,7,,35672.299999952316,248275.79999995232,8063,ATS,A,11
9,prac,1,C,mfborder.png,0,z,Mon Mar 09 2026 11:38:53 GMT-0500 (Central Daylight Time),287846.7999999523,CFD-WF-017-016-HC.jpg,1600,dash,I,None,1516,1,,39571.0,248275.79999995232,8063,ATS,A,12
0,test,1,C,haborder.png,0,z,Mon Mar 09 2026 11:38:53 GMT-0500 (Central Daylight Time),294161.59999990463,CFD-BM-010-019-A.jpg,1700,solid,I,m,741,9,,2465.2000000476837,291696.39999985695,8063,ATS,A,1
1,test,1,C,mfborder.png,1,z,Mon Mar 09 2026 11:38:53 GMT-0500 (Central Daylight Time),297310.5,CFD-BF-010-005-HC.jpg,1700,dash,I,z,1427,1,,5614.100000143051,291696.39999985695,8063,ATS,A,2
1,test,1,C,haborder.png,0,z,Mon Mar 09 2026 11:38:53 GMT-0500 (Central Daylight Time),299444.0,CFD-WM-013-015-A.jpg,1400,solid,I,m,714,7,,7747.600000143051,291696.39999985695,8063,ATS,A,3
2,test,1,C,mfborder.png,1,m,Mon Mar 09 2026 11:38:53 GMT-0500 (Central Daylight Time),301359.09999990463,CFD-BM-029-026-HC.jpg,1200,dash,I,m,684,6,,9662.700000047684,291696.39999985695,8063,ATS,A,4
2,test,1,C,mfborder.png,0,m,Mon Mar 09 2026 11:38:53 GMT-0500 (Central Daylight Time),304891.5,CFD-WM-019-013-A.jpg,2000,dash,I,None,1516,5,,13195.100000143051,291696.39999985695,8063,ATS,A,5
3,test,1,C,mfborder.png,1,z,Mon Mar 09 2026 11:38:53 GMT-0500 (Central Daylight Time),307207.39999985695,CFD-BF-023-013-A.jpg,1600,dash,I,z,684,2,,15511.0,291696.39999985695,8063,ATS,A,6
3,test,1,C,haborder.png,0,z,Mon Mar 09 2026 11:38:53 GMT-0500 (Central Daylight Time),309989.89999985695,CFD-BM-005-010-A.jpg,1900,solid,I,m,861,8,,18293.5,291696.39999985695,8063,ATS,A,7
4,test,1,C,mfborder.png,1,z,Mon Mar 09 2026 11:38:53 GMT-0500 (Central Daylight Time),312455.69999980927,CFD-BF-010-005-HC.jpg,1700,dash,I,z,742,1,,20759.299999952316,291696.39999985695,8063,ATS,A,8
5,test,1,C,haborder.png,1,m,Mon Mar 09 2026 11:38:53 GMT-0500 (Central Daylight Time),314504.89999985695,CFD-WF-017-016-HC.jpg,1000,solid,I,m,1024,12,,22808.5,291696.39999985695,8063,ATS,A,9
5,test,1,C,haborder.png,0,m,Mon Mar 09 2026 11:38:53 GMT-0500 (Central Daylight Time),316887.7999999523,CFD-WF-002-008-HC.jpg,1500,solid,I,z,851,11,,25191.400000095367,291696.39999985695,8063,ATS,A,10
6,test,1,C,haborder.png,1,m,Mon Mar 09 2026 11:38:53 GMT-0500 (Central Daylight Time),319303.39999985695,CFD-BF-028-020-HC.jpg,1600,solid,I,m,790,10,,27607.0,291696.39999985695,8063,ATS,A,11
7,test,1,C,haborder.png,1,m,Mon Mar 09 2026 11:38:53 GMT-0500 (Central Daylight Time),320886.39999985695,CFD-WF-017-016-HC.jpg,1000,solid,I,m,561,12,,29190.0,291696.39999985695,8063,ATS,A,12
8,test,1,C,mfborder.png,1,z,Mon Mar 09 2026 11:38:53 GMT-0500 (Central Daylight Time),323019.09999990463,CFD-WF-003-014-A.jpg,1500,dash,I,z,614,3,,31322.700000047684,291696.39999985695,8063,ATS,A,13
9,test,1,C,mfborder.png,1,z,Mon Mar 09 2026 11:38:53 GMT-0500 (Central Daylight Time),325101.7999999523,CFD-WF-003-014-A.jpg,1500,dash,I,z,561,3,,33405.40000009537,291696.39999985695,8063,ATS,A,14
10,test,1,C,haborder.png,1,m,Mon Mar 09 2026 11:38:53 GMT-0500 (Central Daylight Time),327451.59999990463,CFD-WF-002-008-HC.jpg,1500,solid,I,m,822,11,,35755.200000047684,291696.39999985695,8063,ATS,A,15
11,test,1,C,mfborder.png,1,m,Mon Mar 09 2026 11:38:53 GMT-0500 (Central Daylight Time),329133.7999999523,CFD-WM-006-013-HC.jpg,1000,dash,I,m,661,4,,37437.40000009537,291696.39999985695,8063,ATS,A,16
12,test,1,C,mfborder.png,1,m,Mon Mar 09 2026 11:38:53 GMT-0500 (Central Daylight Time),330816.59999990463,CFD-WM-006-013-HC.jpg,1000,dash,I,m,666,4,,39120.200000047684,291696.39999985695,8063,ATS,A,17
12,test,1,C,haborder.png,0,z,Mon Mar 09 2026 11:38:53 GMT-0500 (Central Daylight Time),333665.5,CFD-BM-010-019-A.jpg,1700,solid,I,m,1124,9,,41969.10000014305,291696.39999985695,8063,ATS,A,18
13,test,1,C,mfborder.png,1,z,Mon Mar 09 2026 11:38:53 GMT-0500 (Central Daylight Time),336248.19999980927,CFD-BF-023-013-A.jpg,1600,dash,I,z,966,2,,44551.799999952316,291696.39999985695,8063,ATS,A,19
14,test,1,C,haborder.png,1,m,Mon Mar 09 2026 11:38:53 GMT-0500 (Central Daylight Time),338947.5,CFD-BF-028-020-HC.jpg,1600,solid,I,m,1081,10,,47251.10000014305,291696.39999985695,8063,ATS,A,20
14,test,1,C,haborder.png,0,z,Mon Mar 09 2026 11:38:53 GMT-0500 (Central Daylight Time),341579.89999985695,CFD-BM-005-010-A.jpg,1900,solid,I,m,705,8,,49883.5,291696.39999985695,8063,ATS,A,21
15,test,1,C,mfborder.png,1,m,Mon Mar 09 2026 11:38:53 GMT-0500 (Central Daylight Time),344829.09999990463,CFD-WM-019-013-A.jpg,2000,dash,I,m,1229,5,,53132.700000047684,291696.39999985695,8063,ATS,A,22
15,test,1,C,haborder.png,0,z,Mon Mar 09 2026 11:38:53 GMT-0500 (Central Daylight Time),346961.39999985695,CFD-WM-013-015-A.jpg,1400,solid,I,m,707,7,,55265.0,291696.39999985695,8063,ATS,A,23
16,test,1,C,mfborder.png,1,m,Mon Mar 09 2026 11:38:53 GMT-0500 (Central Daylight Time),348894.39999985695,CFD-BM-029-026-HC.jpg,1200,dash,I,m,711,6,,57198.0,291696.39999985695,8063,ATS,A,24
1,test,2,C,haborder.png,1,m,Mon Mar 09 2026 11:38:53 GMT-0500 (Central Daylight Time),352210.0,CFD-WM-004-005-HC.jpg,1500,solid,I,m,714,11,,2232.7000000476837,349977.2999999523,8063,ATS,A,1
2,test,2,C,haborder.png,1,m,Mon Mar 09 2026 11:38:53 GMT-0500 (Central Daylight Time),354226.19999980927,CFD-WM-004-005-HC.jpg,1500,solid,I,m,490,11,,4248.899999856949,349977.2999999523,8063,ATS,A,2
2,test,2,C,mfborder.png,0,z,Mon Mar 09 2026 11:38:53 GMT-0500 (Central Daylight Time),356791.39999985695,CFD-WF-017-016-HC.jpg,1700,dash,I,m,842,1,,6814.099999904633,349977.2999999523,8063,ATS,A,3
3,test,2,C,mfborder.png,1,m,Mon Mar 09 2026 11:38:53 GMT-0500 (Central Daylight Time),359641.0,CFD-BM-005-010-A.jpg,2000,dash,I,m,817,5,,9663.700000047684,349977.2999999523,8063,ATS,A,4
4,test,2,C,mfborder.png,1,m,Mon Mar 09 2026 11:38:53 GMT-0500 (Central Daylight Time),361523.69999980927,CFD-BM-017-052-HC.jpg,1000,dash,I,m,863,4,,11546.399999856949,349977.2999999523,8063,ATS,A,5
4,test,2,C,haborder.png,0,z,Mon Mar 09 2026 11:38:53 GMT-0500 (Central Daylight Time),364639.39999985695,CFD-BF-039-039-A.jpg,1900,solid,I,m,1193,8,,14662.099999904633,349977.2999999523,8063,ATS,A,6
5,test,2,C,mfborder.png,1,m,Mon Mar 09 2026 11:38:53 GMT-0500 (Central Daylight Time),366572.09999990463,CFD-BM-017-052-HC.jpg,1000,dash,I,m,913,4,,16594.799999952316,349977.2999999523,8063,ATS,A,7
6,test,2,C,mfborder.png,1,z,Mon Mar 09 2026 11:38:53 GMT-0500 (Central Daylight Time),369021.2999999523,CFD-WF-019-015-A.jpg,1600,dash,I,z,820,2,,19044.0,349977.2999999523,8063,ATS,A,8
7,test,2,C,mfborder.png,1,m,Mon Mar 09 2026 11:38:53 GMT-0500 (Central Daylight Time),371470.7999999523,CFD-WM-013-015-A.jpg,1200,dash,I,m,1226,6,,21493.5,349977.2999999523,8063,ATS,A,9
8,test,2,C,haborder.png,1,z,Mon Mar 09 2026 11:38:53 GMT-0500 (Central Daylight Time),374303.0,CFD-BF-039-039-A.jpg,1900,solid,I,z,909,8,,24325.700000047684,349977.2999999523,8063,ATS,A,10
9,test,2,C,haborder.png,1,z,Mon Mar 09 2026 11:38:53 GMT-0500 (Central Daylight Time),376818.5,CFD-WF-003-014-A.jpg,1700,solid,I,z,796,9,,26841.200000047684,349977.2999999523,8063,ATS,A,11
10,test,2,C,mfborder.png,1,m,Mon Mar 09 2026 11:38:53 GMT-0500 (Central Daylight Time),379401.2999999523,CFD-WM-013-015-A.jpg,1200,dash,I,m,1366,6,,29424.0,349977.2999999523,8063,ATS,A,12
11,test,2,C,mfborder.png,1,z,Mon Mar 09 2026 11:38:53 GMT-0500 (Central Daylight Time),381847.39999985695,CFD-BF-028-020-HC.jpg,1500,dash,I,z,929,3,,31870.099999904633,349977.2999999523,8063,ATS,A,13
12,test,2,C,haborder.png,1,z,Mon Mar 09 2026 11:38:53 GMT-0500 (Central Daylight Time),384433.2999999523,CFD-WF-003-014-A.jpg,1700,solid,I,z,850,9,,34456.0,349977.2999999523,8063,ATS,A,14
13,test,2,C,mfborder.png,1,z,Mon Mar 09 2026 11:38:53 GMT-0500 (Central Daylight Time),387432.59999990463,CFD-WF-017-016-HC.jpg,1700,dash,I,z,1282,1,,37455.299999952316,349977.2999999523,8063,ATS,A,15
14,test,2,C,haborder.png,1,z,Mon Mar 09 2026 11:38:53 GMT-0500 (Central Daylight Time),390031.59999990463,CFD-BF-023-013-A.jpg,1400,solid,I,z,1175,7,,40054.299999952316,349977.2999999523,8063,ATS,A,16
14,test,2,C,mfborder.png,0,z,Mon Mar 09 2026 11:38:53 GMT-0500 (Central Daylight Time),392698.09999990463,CFD-BF-028-020-HC.jpg,1500,dash,I,m,1148,3,,42720.799999952316,349977.2999999523,8063,ATS,A,17
15,test,2,C,mfborder.png,1,m,Mon Mar 09 2026 11:38:53 GMT-0500 (Central Daylight Time),395996.39999985695,CFD-BM-005-010-A.jpg,2000,dash,I,m,1278,5,,46019.09999990463,349977.2999999523,8063,ATS,A,18
16,test,2,C,haborder.png,1,m,Mon Mar 09 2026 11:38:53 GMT-0500 (Central Daylight Time),398428.7999999523,CFD-BM-029-026-HC.jpg,1600,solid,I,m,803,10,,48451.5,349977.2999999523,8063,ATS,A,19
16,test,2,C,haborder.png,0,z,Mon Mar 09 2026 11:38:53 GMT-0500 (Central Daylight Time),400878.0,CFD-BF-023-013-A.jpg,1400,solid,I,m,1019,7,,50900.700000047684,349977.2999999523,8063,ATS,A,20
17,test,2,C,haborder.png,1,m,Mon Mar 09 2026 11:38:53 GMT-0500 (Central Daylight Time),403527.09999990463,CFD-BM-029-026-HC.jpg,1600,solid,I,m,1026,10,,53549.799999952316,349977.2999999523,8063,ATS,A,21
18,test,2,C,haborder.png,1,m,Mon Mar 09 2026 11:38:53 GMT-0500 (Central Daylight Time),405776.59999990463,CFD-WM-004-005-HC.jpg,1000,solid,I,m,1216,12,,55799.299999952316,349977.2999999523,8063,ATS,A,22
19,test,2,C,haborder.png,1,m,Mon Mar 09 2026 11:38:53 GMT-0500 (Central Daylight Time),407359.2999999523,CFD-WM-004-005-HC.jpg,1000,solid,I,m,559,12,,57382.0,349977.2999999523,8063,ATS,A,23
20,test,2,C,mfborder.png,1,z,Mon Mar 09 2026 11:38:53 GMT-0500 (Central Daylight Time),410075.19999980927,CFD-WF-019-015-A.jpg,1600,dash,I,z,1089,2,,60097.89999985695,349977.2999999523,8063,ATS,A,24
1,test,3,C,mfborder.png,1,m,Mon Mar 09 2026 11:38:53 GMT-0500 (Central Daylight Time),413224.39999985695,CFD-WM-006-013-HC.jpg,1000,dash,I,m,1042,4,,2066.0999999046326,411158.2999999523,8063,ATS,A,1
1,test,3,C,haborder.png,0,m,Mon Mar 09 2026 11:38:53 GMT-0500 (Central Daylight Time),416356.59999990463,CFD-BF-028-020-HC.jpg,1600,solid,I,None,1517,10,,5198.299999952316,411158.2999999523,8063,ATS,A,2
2,test,3,C,haborder.png,1,m,Mon Mar 09 2026 11:38:53 GMT-0500 (Central Daylight Time),418122.89999985695,CFD-WF-017-016-HC.jpg,1000,solid,I,m,740,12,,6964.599999904633,411158.2999999523,8063,ATS,A,3
3,test,3,C,haborder.png,1,m,Mon Mar 09 2026 11:38:53 GMT-0500 (Central Daylight Time),420388.59999990463,CFD-WF-002-008-HC.jpg,1500,solid,I,m,745,11,,9230.299999952316,411158.2999999523,8063,ATS,A,4
3,test,3,C,haborder.png,0,z,Mon Mar 09 2026 11:38:53 GMT-0500 (Central Daylight Time),422970.89999985695,CFD-WM-013-015-A.jpg,1400,solid,I,m,1164,7,,11812.599999904633,411158.2999999523,8063,ATS,A,5
4,test,3,C,mfborder.png,1,z,Mon Mar 09 2026 11:38:53 GMT-0500 (Central Daylight Time),425636.89999985695,CFD-BF-023-013-A.jpg,1600,dash,I,z,1037,2,,14478.599999904633,411158.2999999523,8063,ATS,A,6
5,test,3,C,haborder.png,1,z,Mon Mar 09 2026 11:38:53 GMT-0500 (Central Daylight Time),428370.2999999523,CFD-BM-010-019-A.jpg,1700,solid,I,z,1015,9,,17212.0,411158.2999999523,8063,ATS,A,7
5,test,3,C,haborder.png,0,m,Mon Mar 09 2026 11:38:53 GMT-0500 (Central Daylight Time),430901.89999985695,CFD-WF-017-016-HC.jpg,1000,solid,I,None,1516,12,,19743.599999904633,411158.2999999523,8063,ATS,A,8
6,test,3,C,haborder.png,1,m,Mon Mar 09 2026 11:38:53 GMT-0500 (Central Daylight Time),433118.19999980927,CFD-WF-002-008-HC.jpg,1500,solid,I,m,693,11,,21959.89999985695,411158.2999999523,8063,ATS,A,9
7,test,3,C,mfborder.png,1,m,Mon Mar 09 2026 11:38:53 GMT-0500 (Central Daylight Time),435334.09999990463,CFD-BM-029-026-HC.jpg,1200,dash,I,m,994,6,,24175.799999952316,411158.2999999523,8063,ATS,A,10
8,test,3,C,mfborder.png,1,m,Mon Mar 09 2026 11:38:53 GMT-0500 (Central Daylight Time),438633.09999990463,CFD-WM-019-013-A.jpg,2000,dash,I,m,1274,5,,27474.799999952316,411158.2999999523,8063,ATS,A,11
9,test,3,C,mfborder.png,1,m,Mon Mar 09 2026 11:38:53 GMT-0500 (Central Daylight Time),441531.89999985695,CFD-WM-019-013-A.jpg,2000,dash,I,m,872,5,,30373.599999904633,411158.2999999523,8063,ATS,A,12
10,test,3,C,mfborder.png,1,z,Mon Mar 09 2026 11:38:53 GMT-0500 (Central Daylight Time),444097.89999985695,CFD-WF-003-014-A.jpg,1500,dash,I,z,1040,3,,32939.59999990463,411158.2999999523,8063,ATS,A,13
11,test,3,C,mfborder.png,1,z,Mon Mar 09 2026 11:38:53 GMT-0500 (Central Daylight Time),447280.2999999523,CFD-BF-010-005-HC.jpg,1700,dash,I,z,1459,1,,36122.0,411158.2999999523,8063,ATS,A,14
12,test,3,C,mfborder.png,1,m,Mon Mar 09 2026 11:38:53 GMT-0500 (Central Daylight Time),449246.39999985695,CFD-WM-006-013-HC.jpg,1000,dash,I,m,936,4,,38088.09999990463,411158.2999999523,8063,ATS,A,15
13,test,3,C,haborder.png,1,z,Mon Mar 09 2026 11:38:53 GMT-0500 (Central Daylight Time),451745.2999999523,CFD-WM-013-015-A.jpg,1400,solid,I,z,1074,7,,40587.0,411158.2999999523,8063,ATS,A,16
14,test,3,C,mfborder.png,1,m,Mon Mar 09 2026 11:38:53 GMT-0500 (Central Daylight Time),454011.59999990463,CFD-BM-029-026-HC.jpg,1200,dash,I,m,1039,6,,42853.299999952316,411158.2999999523,8063,ATS,A,17
14,test,3,C,haborder.png,0,z,Mon Mar 09 2026 11:38:53 GMT-0500 (Central Daylight Time),457226.59999990463,CFD-BM-005-010-A.jpg,1900,solid,I,m,1296,8,,46068.299999952316,411158.2999999523,8063,ATS,A,18
15,test,3,C,mfborder.png,1,z,Mon Mar 09 2026 11:38:53 GMT-0500 (Central Daylight Time),460292.89999985695,CFD-BF-010-005-HC.jpg,1700,dash,I,z,1345,1,,49134.59999990463,411158.2999999523,8063,ATS,A,19
15,test,3,C,haborder.png,0,z,Mon Mar 09 2026 11:38:53 GMT-0500 (Central Daylight Time),463725.19999980927,CFD-BM-005-010-A.jpg,1900,solid,I,None,1516,8,,52566.89999985695,411158.2999999523,8063,ATS,A,20
16,test,3,C,mfborder.png,1,z,Mon Mar 09 2026 11:38:53 GMT-0500 (Central Daylight Time),466041.09999990463,CFD-WF-003-014-A.jpg,1500,dash,I,z,783,3,,54882.799999952316,411158.2999999523,8063,ATS,A,21
17,test,3,C,mfborder.png,1,z,Mon Mar 09 2026 11:38:53 GMT-0500 (Central Daylight Time),468623.69999980927,CFD-BF-023-013-A.jpg,1600,dash,I,z,950,2,,57465.39999985695,411158.2999999523,8063,ATS,A,22
18,test,3,C,haborder.png,1,z,Mon Mar 09 2026 11:38:53 GMT-0500 (Central Daylight Time),471340.09999990463,CFD-BM-010-019-A.jpg,1700,solid,I,z,989,9,,60181.799999952316,411158.2999999523,8063,ATS,A,23
19,test,3,C,haborder.png,1,m,Mon Mar 09 2026 11:38:53 GMT-0500 (Central Daylight Time),474371.69999980927,CFD-BF-028-020-HC.jpg,1600,solid,I,m,1405,10,,63213.39999985695,411158.2999999523,8063,ATS,A,24
1,test,4,C,mfborder.png,1,z,Mon Mar 09 2026 11:38:53 GMT-0500 (Central Daylight Time),477903.89999985695,CFD-WF-017-016-HC.jpg,1700,dash,I,z,792,1,,2515.899999856949,475388.0,8063,ATS,A,1
2,test,4,C,mfborder.png,1,m,Mon Mar 09 2026 11:38:53 GMT-0500 (Central Daylight Time),480236.5,CFD-WM-013-015-A.jpg,1200,dash,I,m,1104,6,,4848.5,475388.0,8063,ATS,A,2
3,test,4,C,mfborder.png,1,z,Mon Mar 09 2026 11:38:53 GMT-0500 (Central Daylight Time),482502.39999985695,CFD-WF-019-015-A.jpg,1600,dash,I,z,644,2,,7114.399999856949,475388.0,8063,ATS,A,3
4,test,4,C,haborder.png,1,m,Mon Mar 09 2026 11:38:53 GMT-0500 (Central Daylight Time),484935.0,CFD-WM-004-005-HC.jpg,1000,solid,I,m,1410,12,,9547.0,475388.0,8063,ATS,A,4
5,test,4,C,haborder.png,1,z,Mon Mar 09 2026 11:38:53 GMT-0500 (Central Daylight Time),487634.2999999523,CFD-BF-039-039-A.jpg,1900,solid,I,z,781,8,,12246.299999952316,475388.0,8063,ATS,A,5
6,test,4,C,mfborder.png,1,m,Mon Mar 09 2026 11:38:53 GMT-0500 (Central Daylight Time),490566.69999980927,CFD-BM-005-010-A.jpg,2000,dash,I,m,902,5,,15178.699999809265,475388.0,8063,ATS,A,6
7,test,4,C,haborder.png,1,z,Mon Mar 09 2026 11:38:53 GMT-0500 (Central Daylight Time),493682.19999980927,CFD-BF-039-039-A.jpg,1900,solid,I,z,1190,8,,18294.199999809265,475388.0,8063,ATS,A,7
8,test,4,C,haborder.png,1,z,Mon Mar 09 2026 11:38:53 GMT-0500 (Central Daylight Time),495781.59999990463,CFD-BF-023-013-A.jpg,1400,solid,I,z,678,7,,20393.599999904633,475388.0,8063,ATS,A,8
9,test,4,C,haborder.png,1,z,Mon Mar 09 2026 11:38:53 GMT-0500 (Central Daylight Time),497764.5,CFD-BF-023-013-A.jpg,1400,solid,I,z,563,7,,22376.5,475388.0,8063,ATS,A,9
10,test,4,C,haborder.png,1,m,Mon Mar 09 2026 11:38:53 GMT-0500 (Central Daylight Time),500046.89999985695,CFD-WM-004-005-HC.jpg,1500,solid,I,m,751,11,,24658.89999985695,475388.0,8063,ATS,A,10
11,test,4,C,haborder.png,1,m,Mon Mar 09 2026 11:38:53 GMT-0500 (Central Daylight Time),502296.59999990463,CFD-BM-029-026-HC.jpg,1600,solid,I,m,632,10,,26908.599999904633,475388.0,8063,ATS,A,11
12,test,4,C,mfborder.png,1,m,Mon Mar 09 2026 11:38:53 GMT-0500 (Central Daylight Time),504778.7999999523,CFD-BM-017-052-HC.jpg,1000,dash,I,m,1456,4,,29390.799999952316,475388.0,8063,ATS,A,12
13,test,4,C,haborder.png,1,z,Mon Mar 09 2026 11:38:53 GMT-0500 (Central Daylight Time),507261.39999985695,CFD-WF-003-014-A.jpg,1700,solid,I,z,762,9,,31873.39999985695,475388.0,8063,ATS,A,13
13,test,4,C,mfborder.png,0,z,Mon Mar 09 2026 11:38:53 GMT-0500 (Central Daylight Time),509594.0,CFD-BF-028-020-HC.jpg,1500,dash,I,m,814,3,,34206.0,475388.0,8063,ATS,A,14
14,test,4,C,haborder.png,1,m,Mon Mar 09 2026 11:38:53 GMT-0500 (Central Daylight Time),512143.39999985695,CFD-BM-029-026-HC.jpg,1600,solid,I,m,918,10,,36755.39999985695,475388.0,8063,ATS,A,15
15,test,4,C,mfborder.png,1,z,Mon Mar 09 2026 11:38:53 GMT-0500 (Central Daylight Time),514609.0,CFD-WF-019-015-A.jpg,1600,dash,I,z,849,2,,39221.0,475388.0,8063,ATS,A,16
16,test,4,C,mfborder.png,1,m,Mon Mar 09 2026 11:38:53 GMT-0500 (Central Daylight Time),517141.39999985695,CFD-WM-013-015-A.jpg,1200,dash,I,m,1311,6,,41753.39999985695,475388.0,8063,ATS,A,17
17,test,4,C,haborder.png,1,m,Mon Mar 09 2026 11:38:53 GMT-0500 (Central Daylight Time),519857.59999990463,CFD-WM-004-005-HC.jpg,1500,solid,I,m,1191,11,,44469.59999990463,475388.0,8063,ATS,A,18
18,test,4,C,mfborder.png,1,m,Mon Mar 09 2026 11:38:53 GMT-0500 (Central Daylight Time),522090.19999980927,CFD-BM-017-052-HC.jpg,1000,dash,I,m,1206,4,,46702.199999809265,475388.0,8063,ATS,A,19
19,test,4,C,mfborder.png,1,z,Mon Mar 09 2026 11:38:53 GMT-0500 (Central Daylight Time),524905.5999999046,CFD-WF-017-016-HC.jpg,1700,dash,I,z,1099,1,,49517.59999990463,475388.0,8063,ATS,A,20
19,test,4,C,mfborder.png,0,z,Mon Mar 09 2026 11:38:53 GMT-0500 (Central Daylight Time),527922.5999999046,CFD-BF-028-020-HC.jpg,1500,dash,I,None,1501,3,,52534.59999990463,475388.0,8063,ATS,A,21
19,test,4,C,mfborder.png,0,m,Mon Mar 09 2026 11:38:53 GMT-0500 (Central Daylight Time),530987.1999998093,CFD-BM-005-010-A.jpg,2000,dash,I,z,1046,5,,55599.199999809265,475388.0,8063,ATS,A,22
20,test,4,C,haborder.png,1,z,Mon Mar 09 2026 11:38:53 GMT-0500 (Central Daylight Time),533753.0,CFD-WF-003-014-A.jpg,1700,solid,I,z,1048,9,,58365.0,475388.0,8063,ATS,A,23
21,test,4,C,haborder.png,1,m,Mon Mar 09 2026 11:38:53 GMT-0500 (Central Daylight Time),535619.0999999046,CFD-WM-004-005-HC.jpg,1000,solid,I,m,838,12,,60231.09999990463,475388.0,8063,ATS,A,24
