acc_sum,block,block_c,block_cond,con_img,correct,correct_response,datetime,endtime,face,jitter,line,project,response,response_time,row_sel,session_number,start_end,starttime,subject_id,task,task_vers,trial
1,prac,1,A,haborder.png,1,m,Wed Nov 05 2025 15:47:10 GMT-0600 (Central Standard Time),38846.0,CFD-WM-035-036-HC.jpg,1700,solid,I,m,1395,9,2,3883.100000000093,34962.89999999991,8063,ATS,C,1
2,prac,1,A,haborder.png,1,m,Wed Nov 05 2025 15:47:10 GMT-0600 (Central Standard Time),41910.39999999991,CFD-BM-022-004-HC.jpg,1500,solid,I,m,768,3,2,6947.5,34962.89999999991,8063,ATS,C,2
3,prac,1,A,haborder.png,1,m,Wed Nov 05 2025 15:47:10 GMT-0600 (Central Standard Time),44859.299999999814,CFD-WF-013-009-HC.jpg,1500,solid,I,m,650,11,2,9896.399999999907,34962.89999999991,8063,ATS,C,3
4,prac,1,A,haborder.png,1,z,Wed Nov 05 2025 15:47:10 GMT-0600 (Central Standard Time),47458.799999999814,CFD-BF-002-018-A.jpg,1200,solid,I,z,616,6,2,12495.899999999907,34962.89999999991,8063,ATS,C,4
5,prac,1,A,haborder.png,1,z,Wed Nov 05 2025 15:47:10 GMT-0600 (Central Standard Time),50508.0,CFD-BM-043-014-A.jpg,1600,solid,I,z,656,2,2,15545.100000000093,34962.89999999991,8063,ATS,C,5
6,prac,1,A,haborder.png,1,z,Wed Nov 05 2025 15:47:10 GMT-0600 (Central Standard Time),53490.39999999991,CFD-WF-037-016-A.jpg,1600,solid,I,z,590,10,2,18527.5,34962.89999999991,8063,ATS,C,6
7,prac,1,A,haborder.png,1,z,Wed Nov 05 2025 15:47:10 GMT-0600 (Central Standard Time),56822.700000000186,CFD-WM-036-018-A.jpg,1900,solid,I,z,642,8,2,21859.80000000028,34962.89999999991,8063,ATS,C,7
8,prac,1,A,haborder.png,1,m,Wed Nov 05 2025 15:47:10 GMT-0600 (Central Standard Time),60538.200000000186,CFD-BF-019-004-HC.jpg,2000,solid,I,m,924,5,2,25575.30000000028,34962.89999999991,8063,ATS,C,8
9,prac,1,A,haborder.png,1,m,Wed Nov 05 2025 15:47:10 GMT-0600 (Central Standard Time),63387.799999999814,CFD-WM-028-005-HC.jpg,1400,solid,I,m,656,7,2,28424.899999999907,34962.89999999991,8063,ATS,C,9
10,prac,1,A,haborder.png,1,m,Wed Nov 05 2025 15:47:10 GMT-0600 (Central Standard Time),66503.70000000019,CFD-BM-034-035-HC.jpg,1700,solid,I,m,620,1,2,31540.80000000028,34962.89999999991,8063,ATS,C,10
11,prac,1,A,haborder.png,1,z,Wed Nov 05 2025 15:47:10 GMT-0600 (Central Standard Time),68985.29999999981,CFD-WF-023-013-A.jpg,1000,solid,I,z,684,12,2,34022.39999999991,34962.89999999991,8063,ATS,C,11
12,prac,1,A,haborder.png,1,z,Wed Nov 05 2025 15:47:10 GMT-0600 (Central Standard Time),71451.1000000001,CFD-BF-031-020-A.jpg,1000,solid,I,z,682,4,2,36488.200000000186,34962.89999999991,8063,ATS,C,12
1,prac,1,B,mfborder.png,1,m,Wed Nov 05 2025 15:47:10 GMT-0600 (Central Standard Time),84480.20000000019,CFD-BM-043-014-A.jpg,2000,5,I,m,1017,dash,2,3815.100000000093,80665.1000000001,8063,ATS,C,1
2,prac,1,B,mfborder.png,1,m,Wed Nov 05 2025 15:47:10 GMT-0600 (Central Standard Time),87116.1000000001,CFD-WM-034-040-A.jpg,1200,6,I,m,649,dash,2,6451.0,80665.1000000001,8063,ATS,C,2
3,prac,1,B,mfborder.png,1,z,Wed Nov 05 2025 15:47:10 GMT-0600 (Central Standard Time),90445.0,CFD-WF-001-010-HC.jpg,1900,8,I,z,645,dash,2,9779.899999999907,80665.1000000001,8063,ATS,C,3
4,prac,1,B,mfborder.png,1,m,Wed Nov 05 2025 15:47:10 GMT-0600 (Central Standard Time),93411.3999999999,CFD-WM-035-036-HC.jpg,1600,10,I,m,583,dash,2,12746.299999999814,80665.1000000001,8063,ATS,C,4
5,prac,1,B,mfborder.png,1,z,Wed Nov 05 2025 15:47:10 GMT-0600 (Central Standard Time),95876.79999999981,CFD-WF-013-009-HC.jpg,1000,12,I,z,671,dash,2,15211.69999999972,80665.1000000001,8063,ATS,C,5
6,prac,1,B,mfborder.png,1,m,Wed Nov 05 2025 15:47:10 GMT-0600 (Central Standard Time),99126.0,CFD-WM-036-018-A.jpg,1700,9,I,m,762,dash,2,18460.899999999907,80665.1000000001,8063,ATS,C,6
7,prac,1,B,mfborder.png,1,m,Wed Nov 05 2025 15:47:10 GMT-0600 (Central Standard Time),102191.5,CFD-BM-021-026-A.jpg,1600,2,I,m,669,dash,2,21526.399999999907,80665.1000000001,8063,ATS,C,7
8,prac,1,B,mfborder.png,1,z,Wed Nov 05 2025 15:47:10 GMT-0600 (Central Standard Time),105125.1000000001,CFD-WF-037-016-A.jpg,1500,11,I,z,654,dash,2,24460.0,80665.1000000001,8063,ATS,C,8
9,prac,1,B,mfborder.png,1,z,Wed Nov 05 2025 15:47:10 GMT-0600 (Central Standard Time),108157.20000000019,CFD-BF-042-031-HC.jpg,1500,3,I,z,746,dash,2,27492.100000000093,80665.1000000001,8063,ATS,C,9
10,prac,1,B,mfborder.png,1,z,Wed Nov 05 2025 15:47:10 GMT-0600 (Central Standard Time),110892.3999999999,CFD-BF-019-004-HC.jpg,1400,7,I,z,557,dash,2,30227.299999999814,80665.1000000001,8063,ATS,C,10
11,prac,1,B,mfborder.png,1,m,Wed Nov 05 2025 15:47:10 GMT-0600 (Central Standard Time),113987.79999999981,CFD-BM-022-004-HC.jpg,1700,1,I,m,606,dash,2,33322.69999999972,80665.1000000001,8063,ATS,C,11
12,prac,1,B,mfborder.png,1,z,Wed Nov 05 2025 15:47:10 GMT-0600 (Central Standard Time),116485.5,CFD-BF-031-020-A.jpg,1000,4,I,z,710,dash,2,35820.39999999991,80665.1000000001,8063,ATS,C,12
1,test,1,A,haborder.png,1,m,Wed Nov 05 2025 15:47:10 GMT-0600 (Central Standard Time),128966.70000000019,CFD-WF-013-009-HC.jpg,1500,solid,I,m,721,11,2,2249.3000000002794,126717.3999999999,8063,ATS,C,1
2,test,1,A,haborder.png,1,m,Wed Nov 05 2025 15:47:10 GMT-0600 (Central Standard Time),131282.0,CFD-WM-035-036-HC.jpg,1700,solid,I,m,584,9,2,4564.600000000093,126717.3999999999,8063,ATS,C,2
3,test,1,A,haborder.png,1,z,Wed Nov 05 2025 15:47:10 GMT-0600 (Central Standard Time),133798.7999999998,CFD-WM-036-018-A.jpg,1900,solid,I,z,596,8,2,7081.399999999907,126717.3999999999,8063,ATS,C,3
4,test,1,A,haborder.png,1,m,Wed Nov 05 2025 15:47:10 GMT-0600 (Central Standard Time),136348.0,CFD-BM-034-035-HC.jpg,1700,solid,I,m,825,1,2,9630.600000000093,126717.3999999999,8063,ATS,C,4
5,test,1,A,haborder.png,1,z,Wed Nov 05 2025 15:47:10 GMT-0600 (Central Standard Time),138630.0,CFD-WF-037-016-A.jpg,1600,solid,I,z,663,10,2,11912.600000000093,126717.3999999999,8063,ATS,C,5
6,test,1,A,haborder.png,1,z,Wed Nov 05 2025 15:47:10 GMT-0600 (Central Standard Time),140212.5,CFD-BF-031-020-A.jpg,1000,solid,I,z,565,4,2,13495.100000000093,126717.3999999999,8063,ATS,C,6
7,test,1,A,haborder.png,1,z,Wed Nov 05 2025 15:47:10 GMT-0600 (Central Standard Time),142212.0,CFD-WF-023-013-A.jpg,1000,solid,I,z,982,12,2,15494.600000000093,126717.3999999999,8063,ATS,C,7
8,test,1,A,haborder.png,1,m,Wed Nov 05 2025 15:47:10 GMT-0600 (Central Standard Time),144711.2000000002,CFD-BM-034-035-HC.jpg,1700,solid,I,m,770,1,2,17993.80000000028,126717.3999999999,8063,ATS,C,8
9,test,1,A,haborder.png,1,m,Wed Nov 05 2025 15:47:10 GMT-0600 (Central Standard Time),147577.8999999999,CFD-BF-019-004-HC.jpg,2000,solid,I,m,835,5,2,20860.5,126717.3999999999,8063,ATS,C,9
10,test,1,A,haborder.png,1,z,Wed Nov 05 2025 15:47:10 GMT-0600 (Central Standard Time),150542.6000000001,CFD-BM-043-014-A.jpg,1600,solid,I,z,1345,2,2,23825.200000000186,126717.3999999999,8063,ATS,C,10
11,test,1,A,haborder.png,1,m,Wed Nov 05 2025 15:47:10 GMT-0600 (Central Standard Time),152674.6000000001,CFD-WF-013-009-HC.jpg,1500,solid,I,m,616,11,2,25957.200000000186,126717.3999999999,8063,ATS,C,11
12,test,1,A,haborder.png,1,z,Wed Nov 05 2025 15:47:10 GMT-0600 (Central Standard Time),154707.6000000001,CFD-BF-002-018-A.jpg,1200,solid,I,z,814,6,2,27990.200000000186,126717.3999999999,8063,ATS,C,12
13,test,1,A,haborder.png,1,m,Wed Nov 05 2025 15:47:10 GMT-0600 (Central Standard Time),157057.1000000001,CFD-BM-022-004-HC.jpg,1500,solid,I,m,826,3,2,30339.700000000186,126717.3999999999,8063,ATS,C,13
14,test,1,A,haborder.png,1,m,Wed Nov 05 2025 15:47:10 GMT-0600 (Central Standard Time),159573.6000000001,CFD-BM-022-004-HC.jpg,1500,solid,I,m,997,3,2,32856.200000000186,126717.3999999999,8063,ATS,C,14
15,test,1,A,haborder.png,1,z,Wed Nov 05 2025 15:47:10 GMT-0600 (Central Standard Time),161256.1000000001,CFD-BF-031-020-A.jpg,1000,solid,I,z,653,4,2,34538.700000000186,126717.3999999999,8063,ATS,C,15
16,test,1,A,haborder.png,1,m,Wed Nov 05 2025 15:47:10 GMT-0600 (Central Standard Time),163723.0,CFD-WM-035-036-HC.jpg,1700,solid,I,m,742,9,2,37005.60000000009,126717.3999999999,8063,ATS,C,16
17,test,1,A,haborder.png,1,z,Wed Nov 05 2025 15:47:10 GMT-0600 (Central Standard Time),165988.8999999999,CFD-WF-037-016-A.jpg,1600,solid,I,z,633,10,2,39271.5,126717.3999999999,8063,ATS,C,17
18,test,1,A,haborder.png,1,m,Wed Nov 05 2025 15:47:10 GMT-0600 (Central Standard Time),168104.1000000001,CFD-WM-028-005-HC.jpg,1400,solid,I,m,685,7,2,41386.700000000186,126717.3999999999,8063,ATS,C,18
19,test,1,A,haborder.png,1,z,Wed Nov 05 2025 15:47:10 GMT-0600 (Central Standard Time),169786.2999999998,CFD-WF-023-013-A.jpg,1000,solid,I,z,659,12,2,43068.89999999991,126717.3999999999,8063,ATS,C,19
20,test,1,A,haborder.png,1,z,Wed Nov 05 2025 15:47:10 GMT-0600 (Central Standard Time),172585.6000000001,CFD-BM-043-014-A.jpg,1600,solid,I,z,1176,2,2,45868.200000000186,126717.3999999999,8063,ATS,C,20
21,test,1,A,haborder.png,1,z,Wed Nov 05 2025 15:47:10 GMT-0600 (Central Standard Time),175151.7999999998,CFD-WM-036-018-A.jpg,1900,solid,I,z,643,8,2,48434.39999999991,126717.3999999999,8063,ATS,C,21
22,test,1,A,haborder.png,1,m,Wed Nov 05 2025 15:47:10 GMT-0600 (Central Standard Time),177383.5,CFD-WM-028-005-HC.jpg,1400,solid,I,m,810,7,2,50666.10000000009,126717.3999999999,8063,ATS,C,22
23,test,1,A,haborder.png,1,z,Wed Nov 05 2025 15:47:10 GMT-0600 (Central Standard Time),179583.6000000001,CFD-BF-002-018-A.jpg,1200,solid,I,z,970,6,2,52866.200000000186,126717.3999999999,8063,ATS,C,23
24,test,1,A,haborder.png,1,m,Wed Nov 05 2025 15:47:10 GMT-0600 (Central Standard Time),182332.7000000002,CFD-BF-019-004-HC.jpg,2000,solid,I,m,723,5,2,55615.30000000028,126717.3999999999,8063,ATS,C,24
1,test,1,B,mfborder.png,1,z,Wed Nov 05 2025 15:47:10 GMT-0600 (Central Standard Time),186714.8999999999,CFD-BF-042-031-HC.jpg,1500,dash,I,z,700,3,2,2231.7999999998137,184483.1000000001,8063,ATS,C,1
2,test,1,B,mfborder.png,1,z,Wed Nov 05 2025 15:47:10 GMT-0600 (Central Standard Time),188865.2000000002,CFD-WF-037-016-A.jpg,1500,dash,I,z,628,11,2,4382.100000000093,184483.1000000001,8063,ATS,C,2
3,test,1,B,mfborder.png,1,z,Wed Nov 05 2025 15:47:10 GMT-0600 (Central Standard Time),190597.7000000002,CFD-BF-031-020-A.jpg,1000,dash,I,z,706,4,2,6114.600000000093,184483.1000000001,8063,ATS,C,3
4,test,1,B,mfborder.png,1,z,Wed Nov 05 2025 15:47:10 GMT-0600 (Central Standard Time),192146.3999999999,CFD-WF-013-009-HC.jpg,1000,dash,I,z,526,12,2,7663.299999999814,184483.1000000001,8063,ATS,C,4
5,test,1,B,mfborder.png,1,m,Wed Nov 05 2025 15:47:10 GMT-0600 (Central Standard Time),194844.6000000001,CFD-BM-043-014-A.jpg,2000,dash,I,m,682,5,2,10361.5,184483.1000000001,8063,ATS,C,5
6,test,1,B,mfborder.png,1,m,Wed Nov 05 2025 15:47:10 GMT-0600 (Central Standard Time),197245.3999999999,CFD-BM-022-004-HC.jpg,1700,dash,I,m,696,1,2,12762.299999999814,184483.1000000001,8063,ATS,C,6
7,test,1,B,mfborder.png,1,m,Wed Nov 05 2025 15:47:10 GMT-0600 (Central Standard Time),199077.6000000001,CFD-WM-034-040-A.jpg,1200,dash,I,m,606,6,2,14594.5,184483.1000000001,8063,ATS,C,7
8,test,1,B,mfborder.png,1,z,Wed Nov 05 2025 15:47:10 GMT-0600 (Central Standard Time),201210.8999999999,CFD-BF-019-004-HC.jpg,1400,dash,I,z,701,7,2,16727.799999999814,184483.1000000001,8063,ATS,C,8
9,test,1,B,mfborder.png,1,m,Wed Nov 05 2025 15:47:10 GMT-0600 (Central Standard Time),204042.6000000001,CFD-BM-022-004-HC.jpg,1700,dash,I,m,1109,1,2,19559.5,184483.1000000001,8063,ATS,C,9
10,test,1,B,mfborder.png,1,m,Wed Nov 05 2025 15:47:10 GMT-0600 (Central Standard Time),206492.2000000002,CFD-WM-036-018-A.jpg,1700,dash,I,m,717,9,2,22009.100000000093,184483.1000000001,8063,ATS,C,10
11,test,1,B,mfborder.png,1,z,Wed Nov 05 2025 15:47:10 GMT-0600 (Central Standard Time),208158.2999999998,CFD-BF-031-020-A.jpg,1000,dash,I,z,646,4,2,23675.19999999972,184483.1000000001,8063,ATS,C,11
12,test,1,B,mfborder.png,1,m,Wed Nov 05 2025 15:47:10 GMT-0600 (Central Standard Time),210324.2999999998,CFD-WM-034-040-A.jpg,1200,dash,I,m,943,6,2,25841.19999999972,184483.1000000001,8063,ATS,C,12
13,test,1,B,mfborder.png,1,m,Wed Nov 05 2025 15:47:10 GMT-0600 (Central Standard Time),213039.7000000002,CFD-BM-043-014-A.jpg,2000,dash,I,m,687,5,2,28556.600000000093,184483.1000000001,8063,ATS,C,13
14,test,1,B,mfborder.png,1,m,Wed Nov 05 2025 15:47:10 GMT-0600 (Central Standard Time),215522.7000000002,CFD-BM-021-026-A.jpg,1600,dash,I,m,851,2,2,31039.600000000093,184483.1000000001,8063,ATS,C,14
15,test,1,B,mfborder.png,1,z,Wed Nov 05 2025 15:47:10 GMT-0600 (Central Standard Time),217638.3999999999,CFD-BF-019-004-HC.jpg,1400,dash,I,z,696,7,2,33155.299999999814,184483.1000000001,8063,ATS,C,15
16,test,1,B,mfborder.png,1,m,Wed Nov 05 2025 15:47:10 GMT-0600 (Central Standard Time),219920.7000000002,CFD-WM-035-036-HC.jpg,1600,dash,I,m,651,10,2,35437.60000000009,184483.1000000001,8063,ATS,C,16
17,test,1,B,mfborder.png,1,z,Wed Nov 05 2025 15:47:10 GMT-0600 (Central Standard Time),222420.7999999998,CFD-WF-001-010-HC.jpg,1900,dash,I,z,570,8,2,37937.69999999972,184483.1000000001,8063,ATS,C,17
18,test,1,B,mfborder.png,1,m,Wed Nov 05 2025 15:47:10 GMT-0600 (Central Standard Time),224819.1000000001,CFD-WM-035-036-HC.jpg,1600,dash,I,m,782,10,2,40336.0,184483.1000000001,8063,ATS,C,18
19,test,1,B,mfborder.png,1,z,Wed Nov 05 2025 15:47:10 GMT-0600 (Central Standard Time),226535.5,CFD-WF-013-009-HC.jpg,1000,dash,I,z,696,12,2,42052.39999999991,184483.1000000001,8063,ATS,C,19
20,test,1,B,mfborder.png,1,z,Wed Nov 05 2025 15:47:10 GMT-0600 (Central Standard Time),229067.3999999999,CFD-WF-001-010-HC.jpg,1900,dash,I,z,616,8,2,44584.299999999814,184483.1000000001,8063,ATS,C,20
21,test,1,B,mfborder.png,1,z,Wed Nov 05 2025 15:47:10 GMT-0600 (Central Standard Time),231268.2999999998,CFD-WF-037-016-A.jpg,1500,dash,I,z,682,11,2,46785.19999999972,184483.1000000001,8063,ATS,C,21
22,test,1,B,mfborder.png,1,m,Wed Nov 05 2025 15:47:10 GMT-0600 (Central Standard Time),233482.6000000001,CFD-BM-021-026-A.jpg,1600,dash,I,m,591,2,2,48999.5,184483.1000000001,8063,ATS,C,22
23,test,1,B,mfborder.png,1,m,Wed Nov 05 2025 15:47:10 GMT-0600 (Central Standard Time),235832.2000000002,CFD-WM-036-018-A.jpg,1700,dash,I,m,627,9,2,51349.10000000009,184483.1000000001,8063,ATS,C,23
24,test,1,B,mfborder.png,1,z,Wed Nov 05 2025 15:47:10 GMT-0600 (Central Standard Time),238016.0,CFD-BF-042-031-HC.jpg,1500,dash,I,z,653,3,2,53532.89999999991,184483.1000000001,8063,ATS,C,24
0,prac,1,C,haborder.png,0,z,Wed Nov 05 2025 15:47:10 GMT-0600 (Central Standard Time),257377.0,CFD-BF-002-018-A.jpg,1700,solid,I,None,1516,3,2,3999.7000000001863,253377.2999999998,8063,ATS,C,1
1,prac,1,C,mfborder.png,1,m,Wed Nov 05 2025 15:47:10 GMT-0600 (Central Standard Time),261190.8999999999,CFD-BM-034-035-HC.jpg,2000,solid,I,m,1018,3,2,7813.600000000093,253377.2999999998,8063,ATS,C,2
2,prac,1,C,haborder.png,1,m,Wed Nov 05 2025 15:47:10 GMT-0600 (Central Standard Time),264090.0,CFD-WM-028-005-HC.jpg,1000,dash,I,m,1100,3,2,10712.700000000186,253377.2999999998,8063,ATS,C,3
3,prac,1,C,haborder.png,1,z,Wed Nov 05 2025 15:47:10 GMT-0600 (Central Standard Time),267238.5,CFD-WF-037-016-A.jpg,1600,dash,I,z,752,3,2,13861.200000000186,253377.2999999998,8063,ATS,C,4
4,prac,1,C,mfborder.png,1,m,Wed Nov 05 2025 15:47:10 GMT-0600 (Central Standard Time),270572.2000000002,CFD-BM-043-014-A.jpg,1200,dash,I,m,1364,3,2,17194.900000000373,253377.2999999998,8063,ATS,C,5
5,prac,1,C,mfborder.png,1,z,Wed Nov 05 2025 15:47:10 GMT-0600 (Central Standard Time),273703.7000000002,CFD-WF-023-013-A.jpg,1500,solid,I,z,843,3,2,20326.400000000373,253377.2999999998,8063,ATS,C,6
6,prac,1,C,haborder.png,1,z,Wed Nov 05 2025 15:47:10 GMT-0600 (Central Standard Time),277136.0,CFD-BF-031-020-A.jpg,1900,dash,I,z,743,3,2,23758.700000000186,253377.2999999998,8063,ATS,C,7
7,prac,1,C,mfborder.png,1,m,Wed Nov 05 2025 15:47:10 GMT-0600 (Central Standard Time),280367.7999999998,CFD-WM-036-018-A.jpg,1700,solid,I,m,742,3,2,26990.5,253377.2999999998,8063,ATS,C,8
8,prac,1,C,haborder.png,1,m,Wed Nov 05 2025 15:47:10 GMT-0600 (Central Standard Time),283617.2000000002,CFD-BM-022-004-HC.jpg,1500,solid,I,m,950,3,2,30239.900000000373,253377.2999999998,8063,ATS,C,9
9,prac,1,C,haborder.png,1,m,Wed Nov 05 2025 15:47:10 GMT-0600 (Central Standard Time),286549.6000000001,CFD-WM-028-005-HC.jpg,1400,solid,I,m,746,3,2,33172.30000000028,253377.2999999998,8063,ATS,C,10
10,prac,1,C,mfborder.png,1,z,Wed Nov 05 2025 15:47:10 GMT-0600 (Central Standard Time),289598.6000000001,CFD-WF-013-009-HC.jpg,1600,dash,I,z,661,3,2,36221.30000000028,253377.2999999998,8063,ATS,C,11
11,prac,1,C,mfborder.png,1,z,Wed Nov 05 2025 15:47:10 GMT-0600 (Central Standard Time),291997.8999999999,CFD-BF-019-004-HC.jpg,1000,dash,I,z,604,3,2,38620.60000000009,253377.2999999998,8063,ATS,C,12
1,test,1,C,haborder.png,1,m,Wed Nov 05 2025 15:47:10 GMT-0600 (Central Standard Time),297663.1000000001,CFD-BF-019-004-HC.jpg,1600,solid,I,m,1161,10,2,2782.600000000093,294880.5,8063,ATS,C,1
2,test,1,C,mfborder.png,1,z,Wed Nov 05 2025 15:47:10 GMT-0600 (Central Standard Time),300028.0,CFD-BF-042-031-HC.jpg,1700,dash,I,z,640,1,2,5147.5,294880.5,8063,ATS,C,2
3,test,1,C,mfborder.png,1,m,Wed Nov 05 2025 15:47:10 GMT-0600 (Central Standard Time),301861.7000000002,CFD-WM-035-036-HC.jpg,1000,dash,I,m,800,4,2,6981.200000000186,294880.5,8063,ATS,C,3
3,test,1,C,haborder.png,0,z,Wed Nov 05 2025 15:47:10 GMT-0600 (Central Standard Time),304260.6000000001,CFD-WM-036-018-A.jpg,1400,solid,I,m,966,7,2,9380.100000000093,294880.5,8063,ATS,C,4
4,test,1,C,mfborder.png,1,m,Wed Nov 05 2025 15:47:10 GMT-0600 (Central Standard Time),307626.7000000002,CFD-WM-034-040-A.jpg,2000,dash,I,m,1334,5,2,12746.200000000186,294880.5,8063,ATS,C,5
4,test,1,C,mfborder.png,0,z,Wed Nov 05 2025 15:47:10 GMT-0600 (Central Standard Time),310858.7000000002,CFD-BF-042-031-HC.jpg,1700,dash,I,None,1517,1,2,15978.200000000186,294880.5,8063,ATS,C,6
5,test,1,C,mfborder.png,1,m,Wed Nov 05 2025 15:47:10 GMT-0600 (Central Standard Time),312908.3999999999,CFD-BM-022-004-HC.jpg,1200,dash,I,m,824,6,2,18027.899999999907,294880.5,8063,ATS,C,7
6,test,1,C,haborder.png,1,z,Wed Nov 05 2025 15:47:10 GMT-0600 (Central Standard Time),316007.2999999998,CFD-BM-021-026-A.jpg,1700,solid,I,z,1378,9,2,21126.799999999814,294880.5,8063,ATS,C,8
7,test,1,C,mfborder.png,1,z,Wed Nov 05 2025 15:47:10 GMT-0600 (Central Standard Time),318322.7000000002,CFD-WF-037-016-A.jpg,1500,dash,I,z,792,3,2,23442.200000000186,294880.5,8063,ATS,C,9
8,test,1,C,haborder.png,1,m,Wed Nov 05 2025 15:47:10 GMT-0600 (Central Standard Time),321271.7000000002,CFD-BF-019-004-HC.jpg,1600,solid,I,m,1320,10,2,26391.200000000186,294880.5,8063,ATS,C,10
9,test,1,C,mfborder.png,1,m,Wed Nov 05 2025 15:47:10 GMT-0600 (Central Standard Time),323205.0,CFD-BM-022-004-HC.jpg,1200,dash,I,m,707,6,2,28324.5,294880.5,8063,ATS,C,11
10,test,1,C,mfborder.png,1,z,Wed Nov 05 2025 15:47:10 GMT-0600 (Central Standard Time),325437.5,CFD-WF-037-016-A.jpg,1500,dash,I,z,715,3,2,30557.0,294880.5,8063,ATS,C,12
10,test,1,C,mfborder.png,0,m,Wed Nov 05 2025 15:47:10 GMT-0600 (Central Standard Time),327969.7999999998,CFD-WM-035-036-HC.jpg,1000,dash,I,None,1516,4,2,33089.299999999814,294880.5,8063,ATS,C,13
11,test,1,C,haborder.png,1,z,Wed Nov 05 2025 15:47:10 GMT-0600 (Central Standard Time),330785.2999999998,CFD-WM-036-018-A.jpg,1400,solid,I,z,1384,7,2,35904.799999999814,294880.5,8063,ATS,C,14
12,test,1,C,haborder.png,1,z,Wed Nov 05 2025 15:47:10 GMT-0600 (Central Standard Time),333301.8999999999,CFD-BM-021-026-A.jpg,1700,solid,I,z,799,9,2,38421.39999999991,294880.5,8063,ATS,C,15
12,test,1,C,haborder.png,0,m,Wed Nov 05 2025 15:47:10 GMT-0600 (Central Standard Time),335517.2999999998,CFD-WF-013-009-HC.jpg,1000,solid,I,z,1183,12,2,40636.799999999814,294880.5,8063,ATS,C,16
13,test,1,C,mfborder.png,1,z,Wed Nov 05 2025 15:47:10 GMT-0600 (Central Standard Time),337866.2999999998,CFD-BF-031-020-A.jpg,1600,dash,I,z,727,2,2,42985.799999999814,294880.5,8063,ATS,C,17
14,test,1,C,haborder.png,1,m,Wed Nov 05 2025 15:47:10 GMT-0600 (Central Standard Time),339949.6000000001,CFD-WF-013-009-HC.jpg,1000,solid,I,m,1063,12,2,45069.10000000009,294880.5,8063,ATS,C,18
15,test,1,C,mfborder.png,1,m,Wed Nov 05 2025 15:47:10 GMT-0600 (Central Standard Time),343264.7999999998,CFD-WM-034-040-A.jpg,2000,dash,I,m,1294,5,2,48384.299999999814,294880.5,8063,ATS,C,19
15,test,1,C,haborder.png,0,z,Wed Nov 05 2025 15:47:10 GMT-0600 (Central Standard Time),346698.1000000001,CFD-BM-043-014-A.jpg,1900,solid,I,None,1517,8,2,51817.60000000009,294880.5,8063,ATS,C,20
16,test,1,C,haborder.png,1,z,Wed Nov 05 2025 15:47:10 GMT-0600 (Central Standard Time),349580.2999999998,CFD-BM-043-014-A.jpg,1900,solid,I,z,965,8,2,54699.799999999814,294880.5,8063,ATS,C,21
17,test,1,C,mfborder.png,1,z,Wed Nov 05 2025 15:47:10 GMT-0600 (Central Standard Time),352212.0,CFD-BF-031-020-A.jpg,1600,dash,I,z,1007,2,2,57331.5,294880.5,8063,ATS,C,22
18,test,1,C,haborder.png,1,m,Wed Nov 05 2025 15:47:10 GMT-0600 (Central Standard Time),354661.0,CFD-WF-001-010-HC.jpg,1500,solid,I,m,931,11,2,59780.5,294880.5,8063,ATS,C,23
19,test,1,C,haborder.png,1,m,Wed Nov 05 2025 15:47:10 GMT-0600 (Central Standard Time),356943.6000000001,CFD-WF-001-010-HC.jpg,1500,solid,I,m,753,11,2,62063.10000000009,294880.5,8063,ATS,C,24
0,test,2,C,haborder.png,0,z,Wed Nov 05 2025 15:47:10 GMT-0600 (Central Standard Time),361259.2000000002,CFD-BF-031-020-A.jpg,1400,solid,I,m,1099,7,2,2516.100000000093,358743.1000000001,8063,ATS,C,1
1,test,2,C,mfborder.png,1,m,Wed Nov 05 2025 15:47:10 GMT-0600 (Central Standard Time),363159.0,CFD-BM-034-035-HC.jpg,1000,dash,I,m,879,4,2,4415.899999999907,358743.1000000001,8063,ATS,C,2
2,test,2,C,mfborder.png,1,z,Wed Nov 05 2025 15:47:10 GMT-0600 (Central Standard Time),365407.8999999999,CFD-BF-019-004-HC.jpg,1500,dash,I,z,728,3,2,6664.799999999814,358743.1000000001,8063,ATS,C,3
3,test,2,C,haborder.png,1,m,Wed Nov 05 2025 15:47:10 GMT-0600 (Central Standard Time),367474.2999999998,CFD-WM-028-005-HC.jpg,1000,solid,I,m,1042,12,2,8731.19999999972,358743.1000000001,8063,ATS,C,4
4,test,2,C,haborder.png,1,m,Wed Nov 05 2025 15:47:10 GMT-0600 (Central Standard Time),369623.0,CFD-WM-028-005-HC.jpg,1500,solid,I,m,621,11,2,10879.899999999907,358743.1000000001,8063,ATS,C,5
4,test,2,C,mfborder.png,0,m,Wed Nov 05 2025 15:47:10 GMT-0600 (Central Standard Time),371755.3999999999,CFD-WM-036-018-A.jpg,1200,dash,I,z,915,6,2,13012.299999999814,358743.1000000001,8063,ATS,C,6
5,test,2,C,mfborder.png,1,m,Wed Nov 05 2025 15:47:10 GMT-0600 (Central Standard Time),373638.7999999998,CFD-WM-036-018-A.jpg,1200,dash,I,m,664,6,2,14895.69999999972,358743.1000000001,8063,ATS,C,7
6,test,2,C,haborder.png,1,m,Wed Nov 05 2025 15:47:10 GMT-0600 (Central Standard Time),376237.5,CFD-WM-028-005-HC.jpg,1500,solid,I,m,1072,11,2,17494.399999999907,358743.1000000001,8063,ATS,C,8
7,test,2,C,haborder.png,1,z,Wed Nov 05 2025 15:47:10 GMT-0600 (Central Standard Time),378953.5,CFD-BF-002-018-A.jpg,1900,solid,I,z,793,8,2,20210.399999999907,358743.1000000001,8063,ATS,C,9
8,test,2,C,haborder.png,1,m,Wed Nov 05 2025 15:47:10 GMT-0600 (Central Standard Time),381303.3999999999,CFD-BM-022-004-HC.jpg,1600,solid,I,m,729,10,2,22560.299999999814,358743.1000000001,8063,ATS,C,10
9,test,2,C,mfborder.png,1,z,Wed Nov 05 2025 15:47:10 GMT-0600 (Central Standard Time),383736.2000000002,CFD-WF-013-009-HC.jpg,1700,dash,I,z,711,1,2,24993.100000000093,358743.1000000001,8063,ATS,C,11
10,test,2,C,mfborder.png,1,z,Wed Nov 05 2025 15:47:10 GMT-0600 (Central Standard Time),385967.8999999999,CFD-BF-019-004-HC.jpg,1500,dash,I,z,703,3,2,27224.799999999814,358743.1000000001,8063,ATS,C,12
11,test,2,C,haborder.png,1,m,Wed Nov 05 2025 15:47:10 GMT-0600 (Central Standard Time),388400.2000000002,CFD-BM-022-004-HC.jpg,1600,solid,I,m,802,10,2,29657.100000000093,358743.1000000001,8063,ATS,C,13
12,test,2,C,haborder.png,1,z,Wed Nov 05 2025 15:47:10 GMT-0600 (Central Standard Time),390850.2999999998,CFD-WF-037-016-A.jpg,1700,solid,I,z,718,9,2,32107.19999999972,358743.1000000001,8063,ATS,C,14
13,test,2,C,mfborder.png,1,z,Wed Nov 05 2025 15:47:10 GMT-0600 (Central Standard Time),393381.8999999999,CFD-WF-023-013-A.jpg,1600,dash,I,z,905,2,2,34638.799999999814,358743.1000000001,8063,ATS,C,15
14,test,2,C,haborder.png,1,m,Wed Nov 05 2025 15:47:10 GMT-0600 (Central Standard Time),395214.5,CFD-WM-028-005-HC.jpg,1000,solid,I,m,804,12,2,36471.39999999991,358743.1000000001,8063,ATS,C,16
15,test,2,C,haborder.png,1,z,Wed Nov 05 2025 15:47:10 GMT-0600 (Central Standard Time),397930.3999999999,CFD-BF-002-018-A.jpg,1900,solid,I,z,784,8,2,39187.299999999814,358743.1000000001,8063,ATS,C,17
16,test,2,C,mfborder.png,1,m,Wed Nov 05 2025 15:47:10 GMT-0600 (Central Standard Time),399730.0,CFD-BM-034-035-HC.jpg,1000,dash,I,m,775,4,2,40986.89999999991,358743.1000000001,8063,ATS,C,18
17,test,2,C,mfborder.png,1,z,Wed Nov 05 2025 15:47:10 GMT-0600 (Central Standard Time),402479.5,CFD-WF-023-013-A.jpg,1600,dash,I,z,1121,2,2,43736.39999999991,358743.1000000001,8063,ATS,C,19
18,test,2,C,mfborder.png,1,z,Wed Nov 05 2025 15:47:10 GMT-0600 (Central Standard Time),404811.7999999998,CFD-WF-013-009-HC.jpg,1700,dash,I,z,616,1,2,46068.69999999972,358743.1000000001,8063,ATS,C,20
19,test,2,C,mfborder.png,1,m,Wed Nov 05 2025 15:47:10 GMT-0600 (Central Standard Time),407494.1000000001,CFD-BM-043-014-A.jpg,2000,dash,I,m,655,5,2,48751.0,358743.1000000001,8063,ATS,C,21
19,test,2,C,haborder.png,0,z,Wed Nov 05 2025 15:47:10 GMT-0600 (Central Standard Time),409942.7999999998,CFD-BF-031-020-A.jpg,1400,solid,I,m,1028,7,2,51199.69999999972,358743.1000000001,8063,ATS,C,22
20,test,2,C,mfborder.png,1,m,Wed Nov 05 2025 15:47:10 GMT-0600 (Central Standard Time),412693.1000000001,CFD-BM-043-014-A.jpg,2000,dash,I,m,722,5,2,53950.0,358743.1000000001,8063,ATS,C,23
21,test,2,C,haborder.png,1,z,Wed Nov 05 2025 15:47:10 GMT-0600 (Central Standard Time),415075.1000000001,CFD-WF-037-016-A.jpg,1700,solid,I,z,665,9,2,56332.0,358743.1000000001,8063,ATS,C,24
0,test,3,C,haborder.png,0,m,Wed Nov 05 2025 15:47:10 GMT-0600 (Central Standard Time),418557.7000000002,CFD-BF-019-004-HC.jpg,1600,solid,I,z,848,10,2,2465.5,416092.2000000002,8063,ATS,C,1
1,test,3,C,mfborder.png,1,m,Wed Nov 05 2025 15:47:10 GMT-0600 (Central Standard Time),420589.8999999999,CFD-WM-035-036-HC.jpg,1000,dash,I,m,1004,4,2,4497.699999999721,416092.2000000002,8063,ATS,C,2
2,test,3,C,mfborder.png,1,m,Wed Nov 05 2025 15:47:10 GMT-0600 (Central Standard Time),422189.7999999998,CFD-WM-035-036-HC.jpg,1000,dash,I,m,572,4,2,6097.5999999996275,416092.2000000002,8063,ATS,C,3
3,test,3,C,haborder.png,1,z,Wed Nov 05 2025 15:47:10 GMT-0600 (Central Standard Time),425238.7000000002,CFD-BM-043-014-A.jpg,1900,solid,I,z,1129,8,2,9146.5,416092.2000000002,8063,ATS,C,4
4,test,3,C,mfborder.png,1,z,Wed Nov 05 2025 15:47:10 GMT-0600 (Central Standard Time),427787.6000000001,CFD-BF-042-031-HC.jpg,1700,dash,I,z,831,1,2,11695.399999999907,416092.2000000002,8063,ATS,C,5
5,test,3,C,haborder.png,1,m,Wed Nov 05 2025 15:47:10 GMT-0600 (Central Standard Time),430653.5,CFD-WF-001-010-HC.jpg,1500,solid,I,m,1338,11,2,14561.299999999814,416092.2000000002,8063,ATS,C,6
6,test,3,C,haborder.png,1,z,Wed Nov 05 2025 15:47:10 GMT-0600 (Central Standard Time),433519.6000000001,CFD-WM-036-018-A.jpg,1400,solid,I,z,1437,7,2,17427.399999999907,416092.2000000002,8063,ATS,C,7
7,test,3,C,mfborder.png,1,z,Wed Nov 05 2025 15:47:10 GMT-0600 (Central Standard Time),435952.1000000001,CFD-BF-031-020-A.jpg,1600,dash,I,z,811,2,2,19859.899999999907,416092.2000000002,8063,ATS,C,8
8,test,3,C,mfborder.png,1,z,Wed Nov 05 2025 15:47:10 GMT-0600 (Central Standard Time),438134.6000000001,CFD-WF-037-016-A.jpg,1500,dash,I,z,654,3,2,22042.399999999907,416092.2000000002,8063,ATS,C,9
9,test,3,C,mfborder.png,1,z,Wed Nov 05 2025 15:47:10 GMT-0600 (Central Standard Time),440601.6000000001,CFD-BF-042-031-HC.jpg,1700,dash,I,z,736,1,2,24509.399999999907,416092.2000000002,8063,ATS,C,10
10,test,3,C,mfborder.png,1,m,Wed Nov 05 2025 15:47:10 GMT-0600 (Central Standard Time),443067.3999999999,CFD-BM-022-004-HC.jpg,1200,dash,I,m,1242,6,2,26975.19999999972,416092.2000000002,8063,ATS,C,11
10,test,3,C,haborder.png,0,z,Wed Nov 05 2025 15:47:10 GMT-0600 (Central Standard Time),445882.2000000002,CFD-BM-021-026-A.jpg,1700,solid,I,m,1084,9,2,29790.0,416092.2000000002,8063,ATS,C,12
10,test,3,C,haborder.png,0,m,Wed Nov 05 2025 15:47:10 GMT-0600 (Central Standard Time),448331.1000000001,CFD-BF-019-004-HC.jpg,1600,solid,I,z,832,10,2,32238.899999999907,416092.2000000002,8063,ATS,C,13
11,test,3,C,mfborder.png,1,z,Wed Nov 05 2025 15:47:10 GMT-0600 (Central Standard Time),450681.5,CFD-BF-031-020-A.jpg,1600,dash,I,z,727,2,2,34589.299999999814,416092.2000000002,8063,ATS,C,14
12,test,3,C,haborder.png,1,z,Wed Nov 05 2025 15:47:10 GMT-0600 (Central Standard Time),453330.0,CFD-WM-036-018-A.jpg,1400,solid,I,z,1226,7,2,37237.799999999814,416092.2000000002,8063,ATS,C,15
12,test,3,C,haborder.png,0,m,Wed Nov 05 2025 15:47:10 GMT-0600 (Central Standard Time),455163.0,CFD-WF-013-009-HC.jpg,1000,solid,I,z,808,12,2,39070.799999999814,416092.2000000002,8063,ATS,C,16
13,test,3,C,haborder.png,1,m,Wed Nov 05 2025 15:47:10 GMT-0600 (Central Standard Time),457046.3999999999,CFD-WF-013-009-HC.jpg,1000,solid,I,m,855,12,2,40954.19999999972,416092.2000000002,8063,ATS,C,17
14,test,3,C,haborder.png,1,z,Wed Nov 05 2025 15:47:10 GMT-0600 (Central Standard Time),460245.0,CFD-BM-043-014-A.jpg,1900,solid,I,z,1264,8,2,44152.799999999814,416092.2000000002,8063,ATS,C,18
15,test,3,C,haborder.png,1,z,Wed Nov 05 2025 15:47:10 GMT-0600 (Central Standard Time),462976.8999999999,CFD-BM-021-026-A.jpg,1700,solid,I,z,1001,9,2,46884.69999999972,416092.2000000002,8063,ATS,C,19
16,test,3,C,mfborder.png,1,z,Wed Nov 05 2025 15:47:10 GMT-0600 (Central Standard Time),465259.0,CFD-WF-037-016-A.jpg,1500,dash,I,z,748,3,2,49166.799999999814,416092.2000000002,8063,ATS,C,20
17,test,3,C,mfborder.png,1,m,Wed Nov 05 2025 15:47:10 GMT-0600 (Central Standard Time),467359.1000000001,CFD-BM-022-004-HC.jpg,1200,dash,I,m,879,6,2,51266.89999999991,416092.2000000002,8063,ATS,C,21
17,test,3,C,mfborder.png,0,m,Wed Nov 05 2025 15:47:10 GMT-0600 (Central Standard Time),470891.0,CFD-WM-034-040-A.jpg,2000,dash,I,None,1516,5,2,54798.799999999814,416092.2000000002,8063,ATS,C,22
18,test,3,C,haborder.png,1,m,Wed Nov 05 2025 15:47:10 GMT-0600 (Central Standard Time),473173.2000000002,CFD-WF-001-010-HC.jpg,1500,solid,I,m,756,11,2,57081.0,416092.2000000002,8063,ATS,C,23
18,test,3,C,mfborder.png,0,m,Wed Nov 05 2025 15:47:10 GMT-0600 (Central Standard Time),476424.2999999998,CFD-WM-034-040-A.jpg,2000,dash,I,z,1229,5,2,60332.09999999963,416092.2000000002,8063,ATS,C,24
1,test,4,C,haborder.png,1,m,Wed Nov 05 2025 15:47:10 GMT-0600 (Central Standard Time),479355.7000000002,CFD-WM-028-005-HC.jpg,1000,solid,I,m,908,12,2,1933.7000000001863,477422.0,8063,ATS,C,1
2,test,4,C,haborder.png,1,z,Wed Nov 05 2025 15:47:10 GMT-0600 (Central Standard Time),481537.2000000002,CFD-BF-031-020-A.jpg,1400,solid,I,z,751,7,2,4115.200000000186,477422.0,8063,ATS,C,2
3,test,4,C,mfborder.png,1,m,Wed Nov 05 2025 15:47:10 GMT-0600 (Central Standard Time),483505.2999999998,CFD-WM-036-018-A.jpg,1200,dash,I,m,744,6,2,6083.299999999814,477422.0,8063,ATS,C,3
4,test,4,C,haborder.png,1,m,Wed Nov 05 2025 15:47:10 GMT-0600 (Central Standard Time),486152.7000000002,CFD-BM-022-004-HC.jpg,1600,solid,I,m,1027,10,2,8730.700000000186,477422.0,8063,ATS,C,4
5,test,4,C,haborder.png,1,z,Wed Nov 05 2025 15:47:10 GMT-0600 (Central Standard Time),488385.2000000002,CFD-BF-031-020-A.jpg,1400,solid,I,z,802,7,2,10963.200000000186,477422.0,8063,ATS,C,5
5,test,4,C,mfborder.png,0,m,Wed Nov 05 2025 15:47:10 GMT-0600 (Central Standard Time),491921.5,CFD-BM-043-014-A.jpg,2000,dash,I,None,1515,5,2,14499.5,477422.0,8063,ATS,C,6
5,test,4,C,mfborder.png,0,z,Wed Nov 05 2025 15:47:10 GMT-0600 (Central Standard Time),495000.6000000001,CFD-WF-023-013-A.jpg,1600,dash,I,m,1453,2,2,17578.600000000093,477422.0,8063,ATS,C,7
6,test,4,C,haborder.png,1,m,Wed Nov 05 2025 15:47:10 GMT-0600 (Central Standard Time),497482.7000000002,CFD-WM-028-005-HC.jpg,1500,solid,I,m,959,11,2,20060.700000000186,477422.0,8063,ATS,C,8
7,test,4,C,haborder.png,1,z,Wed Nov 05 2025 15:47:10 GMT-0600 (Central Standard Time),499848.0,CFD-WF-037-016-A.jpg,1700,solid,I,z,644,9,2,22426.0,477422.0,8063,ATS,C,9
8,test,4,C,haborder.png,1,m,Wed Nov 05 2025 15:47:10 GMT-0600 (Central Standard Time),502548.0,CFD-BM-022-004-HC.jpg,1600,solid,I,m,1067,10,2,25126.0,477422.0,8063,ATS,C,10
9,test,4,C,haborder.png,1,m,Wed Nov 05 2025 15:47:10 GMT-0600 (Central Standard Time),504347.8999999999,CFD-WM-028-005-HC.jpg,1000,solid,I,m,775,12,2,26925.899999999907,477422.0,8063,ATS,C,11
10,test,4,C,haborder.png,1,z,Wed Nov 05 2025 15:47:10 GMT-0600 (Central Standard Time),506996.1000000001,CFD-BF-002-018-A.jpg,1900,solid,I,z,732,8,2,29574.100000000093,477422.0,8063,ATS,C,12
11,test,4,C,mfborder.png,1,z,Wed Nov 05 2025 15:47:10 GMT-0600 (Central Standard Time),509844.5,CFD-BF-019-004-HC.jpg,1500,dash,I,z,1330,3,2,32422.5,477422.0,8063,ATS,C,13
12,test,4,C,mfborder.png,1,z,Wed Nov 05 2025 15:47:10 GMT-0600 (Central Standard Time),511978.3999999999,CFD-BF-019-004-HC.jpg,1500,dash,I,z,609,3,2,34556.39999999991,477422.0,8063,ATS,C,14
13,test,4,C,mfborder.png,1,m,Wed Nov 05 2025 15:47:10 GMT-0600 (Central Standard Time),513860.7000000002,CFD-BM-034-035-HC.jpg,1000,dash,I,m,858,4,2,36438.700000000186,477422.0,8063,ATS,C,15
14,test,4,C,mfborder.png,1,z,Wed Nov 05 2025 15:47:10 GMT-0600 (Central Standard Time),516193.1000000001,CFD-WF-023-013-A.jpg,1600,dash,I,z,702,2,2,38771.10000000009,477422.0,8063,ATS,C,16
15,test,4,C,haborder.png,1,m,Wed Nov 05 2025 15:47:10 GMT-0600 (Central Standard Time),518509.3999999999,CFD-WM-028-005-HC.jpg,1500,solid,I,m,798,11,2,41087.39999999991,477422.0,8063,ATS,C,17
15,test,4,C,mfborder.png,0,m,Wed Nov 05 2025 15:47:10 GMT-0600 (Central Standard Time),521474.5,CFD-BM-043-014-A.jpg,2000,dash,I,z,941,5,2,44052.5,477422.0,8063,ATS,C,18
16,test,4,C,mfborder.png,1,z,Wed Nov 05 2025 15:47:10 GMT-0600 (Central Standard Time),523925.0,CFD-WF-013-009-HC.jpg,1700,dash,I,z,725,1,2,46503.0,477422.0,8063,ATS,C,19
16,test,4,C,mfborder.png,0,m,Wed Nov 05 2025 15:47:10 GMT-0600 (Central Standard Time),526240.1000000001,CFD-BM-034-035-HC.jpg,1000,dash,I,z,1294,4,2,48818.10000000009,477422.0,8063,ATS,C,20
17,test,4,C,mfborder.png,1,z,Wed Nov 05 2025 15:47:10 GMT-0600 (Central Standard Time),528756.1000000001,CFD-WF-013-009-HC.jpg,1700,dash,I,z,791,1,2,51334.10000000009,477422.0,8063,ATS,C,21
18,test,4,C,haborder.png,1,z,Wed Nov 05 2025 15:47:10 GMT-0600 (Central Standard Time),531188.7000000002,CFD-WF-037-016-A.jpg,1700,solid,I,z,706,9,2,53766.700000000186,477422.0,8063,ATS,C,22
19,test,4,C,haborder.png,1,z,Wed Nov 05 2025 15:47:10 GMT-0600 (Central Standard Time),534270.8999999999,CFD-BF-002-018-A.jpg,1900,solid,I,z,1154,8,2,56848.89999999991,477422.0,8063,ATS,C,23
20,test,4,C,mfborder.png,1,m,Wed Nov 05 2025 15:47:10 GMT-0600 (Central Standard Time),536985.7000000002,CFD-WM-036-018-A.jpg,1200,dash,I,m,1492,6,2,59563.700000000186,477422.0,8063,ATS,C,24
