acc_sum,block_c,block_dur,condition,correct,correct_response,countdown,datetime,endtime,project,response,response_time,response_time_test1_response,response_time_test2_response,row_sel,same,session_number,start_end,starttime,stim1,stim2,subject_id,task,task_vers,time_test1,time_test2,trial
1,1,0.0,prac,1,z,30000.0,Fri Jan 09 2026 11:04:39 GMT-0600 (Central Standard Time),31643.400000095367,O,z,1577,,,4,yes,1,3092.9000000953674,28550.5,RSM,RSM,7727,LC,B,,,1
2,1,0.0,prac,1,m,30000.0,Fri Jan 09 2026 11:04:39 GMT-0600 (Central Standard Time),34327.90000009537,O,m,1178,,,1,no,1,2681.0,31646.900000095367,RNV,FNV,7727,LC,B,,,2
3,1,0.0,prac,1,m,30000.0,Fri Jan 09 2026 11:04:39 GMT-0600 (Central Standard Time),38560.200000047684,O,m,2698,,,3,no,1,4226.400000095367,34333.799999952316,QHZXPC,QHZWPC,7727,LC,B,,,3
4,1,0.0,prac,1,m,30000.0,Fri Jan 09 2026 11:04:39 GMT-0600 (Central Standard Time),43656.90000009537,O,m,3569,,,5,no,1,5090.5,38566.40000009537,LNDPRSKQB,LNDPRSJQB,7727,LC,B,,,4
5,1,0.0,prac,1,z,30000.0,Fri Jan 09 2026 11:04:39 GMT-0600 (Central Standard Time),48241.0,O,z,3069,,,2,yes,1,4581.200000047684,43659.799999952316,NBGFSM,NBGFSM,7727,LC,B,,,5
5,1,0.0,prac,0,z,30000.0,Fri Jan 09 2026 11:04:39 GMT-0600 (Central Standard Time),53154.5,O,m,3388,,,6,yes,1,4909.399999856949,48245.10000014305,CSDBFPHXZ,CSDBFPHXZ,7727,LC,B,,,6
1,1,1.6160001754760742,test,1,m,28383.999824523926,Fri Jan 09 2026 11:04:39 GMT-0600 (Central Standard Time),61468.5,O,m,1610,1610,,1,no,1,1613.5,59855.0,HCF,RCF,7727,LC,B,57612,,1
1,1,4.21399998664856,test,0,m,25786.00001335144,Fri Jan 09 2026 11:04:39 GMT-0600 (Central Standard Time),64066.700000047684,O,z,2586,2586,,2,no,1,2595.7999999523163,61470.90000009537,QTPRJX,QTPNJX,7727,LC,B,59228,,2
2,1,7.39900016784668,test,1,m,22600.99983215332,Fri Jan 09 2026 11:04:39 GMT-0600 (Central Standard Time),67251.10000014305,O,m,3181,3181,,3,no,1,3181.9000000953674,64069.200000047684,MZDYGVGKQ,MZDYGLBKQ,7727,LC,B,61827,,3
3,1,8.930000066757202,test,1,m,21069.999933242798,Fri Jan 09 2026 11:04:39 GMT-0600 (Central Standard Time),68782.40000009537,O,m,1522,1522,,4,no,1,1527.7000000476837,67254.70000004768,FQTNMK,JQTNMK,7727,LC,B,65012,,4
4,1,11.180999994277954,test,1,z,18819.000005722046,Fri Jan 09 2026 11:04:39 GMT-0600 (Central Standard Time),71033.29999995232,O,z,2229,2229,,5,yes,1,2246.0999999046326,68787.20000004768,CLJ,CLJ,7727,LC,B,66545,,5
5,1,13.49399995803833,test,1,m,16506.00004196167,Fri Jan 09 2026 11:04:39 GMT-0600 (Central Standard Time),73346.60000014305,O,m,2309,2309,,6,no,1,2310.9000000953674,71035.70000004768,JGDMNSVPW,JGZMNSVPW,7727,LC,B,68793,,6
6,1,19.843000173568726,test,1,z,10156.999826431274,Fri Jan 09 2026 11:04:39 GMT-0600 (Central Standard Time),79695.60000014305,O,z,6331,6331,,7,yes,1,6345.700000047684,73349.90000009537,FPTVHKCBJ,FPTVHKCBJ,7727,LC,B,71107,,7
7,1,22.39300012588501,test,1,m,7606.99987411499,Fri Jan 09 2026 11:04:39 GMT-0600 (Central Standard Time),82245.5,O,m,2539,2539,,8,no,1,2543.399999856949,79702.10000014305,XRPZBS,ZRPBDH,7727,LC,B,77460,,8
8,1,24.610000133514404,test,1,m,5389.999866485596,Fri Jan 09 2026 11:04:39 GMT-0600 (Central Standard Time),84461.90000009537,O,m,2206,2206,,9,no,1,2211.2000000476837,82250.70000004768,ZSQ,ZSP,7727,LC,B,80008,,9
9,1,27.9060001373291,test,1,z,2093.9998626708984,Fri Jan 09 2026 11:04:39 GMT-0600 (Central Standard Time),87758.29999995232,O,z,3285,3285,,10,yes,1,3290.5999999046326,84467.70000004768,MPZRXL,MPZRXL,7727,LC,B,82225,,10
10,1,29.85800004005432,test,1,m,141.9999599456787,Fri Jan 09 2026 11:04:39 GMT-0600 (Central Standard Time),89710.10000014305,O,m,1936,1936,,11,no,1,1949.6000001430511,87760.5,KJH,KRH,7727,LC,B,85518,,11
10,1,30.009000062942505,test,0,z,-9.000062942504883,Fri Jan 09 2026 11:04:39 GMT-0600 (Central Standard Time),89860.79999995232,O,None,146,146,,12,yes,1,146.89999985694885,89713.90000009537,SMNHVTFCB,SMNHVTFCB,7727,LC,B,87471,,12
1,2,4.135000228881836,test,1,z,25864.999771118164,Fri Jan 09 2026 11:04:39 GMT-0600 (Central Standard Time),96958.10000014305,O,z,4120,,4120.0,1,yes,1,7244.200000047684,89713.90000009537,PRDBZTYFN,PRDBZTYFN,7727,LC,B,,90583.0,1
2,2,7.3490002155303955,test,1,m,22650.999784469604,Fri Jan 09 2026 11:04:39 GMT-0600 (Central Standard Time),100172.40000009537,O,m,3204,,3204.0,2,no,1,10458.5,89713.90000009537,NCWJDZ,NCMJDZ,7727,LC,B,,94722.0,2
3,2,9.684000015258789,test,1,m,20315.99998474121,Fri Jan 09 2026 11:04:39 GMT-0600 (Central Standard Time),102506.79999995232,O,m,2328,,2328.0,3,no,1,12792.899999856949,89713.90000009537,KHW,KBW,7727,LC,B,,97934.0,3
4,2,12.382000207901001,test,1,m,17617.999792099,Fri Jan 09 2026 11:04:39 GMT-0600 (Central Standard Time),105205.5,O,m,2689,,2689.0,4,no,1,15491.599999904633,89713.90000009537,ZRBGMF,ZRBCMF,7727,LC,B,,100269.0,4
5,2,13.814000129699707,test,1,m,16185.999870300293,Fri Jan 09 2026 11:04:39 GMT-0600 (Central Standard Time),106637.60000014305,O,m,1416,,1416.0,5,no,1,16923.700000047684,89713.90000009537,BTH,BYH,7727,LC,B,,102966.0,5
6,2,17.94600009918213,test,1,z,12053.999900817871,Fri Jan 09 2026 11:04:39 GMT-0600 (Central Standard Time),110769.10000014305,O,z,4113,,4113.0,6,yes,1,21055.200000047684,89713.90000009537,XWKQRYCNZ,XWKQRYCNZ,7727,LC,B,,104398.0,6
7,2,22.526000022888184,test,1,z,7473.999977111816,Fri Jan 09 2026 11:04:39 GMT-0600 (Central Standard Time),115349.20000004768,O,z,4572,,4572.0,7,yes,1,25635.299999952316,89713.90000009537,HNPDLK,HNPDLK,7727,LC,B,,108530.0,7
8,2,25.576000213623047,test,1,m,4423.999786376953,Fri Jan 09 2026 11:04:39 GMT-0600 (Central Standard Time),118399.20000004768,O,m,3028,,3028.0,8,no,1,28685.299999952316,89713.90000009537,WMQTRSGLZ,WMQTRZGLZ,7727,LC,B,,113114.0,8
9,2,27.992000102996826,test,1,z,2007.9998970031738,Fri Jan 09 2026 11:04:39 GMT-0600 (Central Standard Time),120815.10000014305,O,z,2406,,2406.0,9,yes,1,31101.200000047684,89713.90000009537,JPN,JPN,7727,LC,B,,116160.0,9
9,2,30.009000062942505,test,0,m,-9.000062942504883,Fri Jan 09 2026 11:04:39 GMT-0600 (Central Standard Time),122832.20000004768,O,None,2014,,2014.0,10,no,1,33118.299999952316,89713.90000009537,QLXSVT,QLNSVT,7727,LC,B,,118575.0,10
