acc_sum,block,block_c,change,condition,correct,correct_response,datetime,endtime,face,project,response,response_time,row_sel,session_number,start_end,starttime,subject_id,task,task_vers,trial
0,prac,1,,1-Back,,,Tue Jun 02 2026 11:34:15 GMT-0400 (Eastern Daylight Time),,097_m_f_n_a.png,I,space,12143,1,1,,,9086,NNB,B,0
1,prac,1,0.0,1-Back,1.0,m,Tue Jun 02 2026 11:34:15 GMT-0400 (Eastern Daylight Time),137018.40000000037,152_y_f_n_a.png,I,m,804,2,1,1704.0,135314.40000000037,9086,NNB,B,1
2,prac,1,1.0,1-Back,1.0,z,Tue Jun 02 2026 11:34:15 GMT-0400 (Eastern Daylight Time),138534.80000000028,152_y_f_n_a.png,I,z,738,3,1,1507.5,137027.30000000028,9086,NNB,B,2
3,prac,1,0.0,1-Back,1.0,m,Tue Jun 02 2026 11:34:15 GMT-0400 (Eastern Daylight Time),140084.80000000028,176_o_m_n_a.png,I,m,644,4,1,1539.3000000002794,138545.5,9086,NNB,B,3
3,prac,1,0.0,1-Back,0.0,m,Tue Jun 02 2026 11:34:15 GMT-0400 (Eastern Daylight Time),141551.30000000028,126_m_m_n_a.png,I,z,677,5,1,1455.3000000002794,140096.0,9086,NNB,B,4
4,prac,1,1.0,1-Back,1.0,z,Tue Jun 02 2026 11:34:15 GMT-0400 (Eastern Daylight Time),143434.90000000037,126_m_m_n_a.png,I,z,1102,6,1,1874.8000000002794,141560.1000000001,9086,NNB,B,5
5,prac,1,0.0,1-Back,1.0,m,Tue Jun 02 2026 11:34:15 GMT-0400 (Eastern Daylight Time),145101.40000000037,086_o_f_n_a.png,I,m,878,7,1,1653.4000000003725,143448.0,9086,NNB,B,6
6,prac,1,0.0,1-Back,1.0,m,Tue Jun 02 2026 11:34:15 GMT-0400 (Eastern Daylight Time),146902.5,178_m_m_n_a.png,I,m,898,8,1,1789.0,145113.5,9086,NNB,B,7
7,prac,1,0.0,1-Back,1.0,m,Tue Jun 02 2026 11:34:15 GMT-0400 (Eastern Daylight Time),148751.6000000001,097_m_f_n_a.png,I,m,1074,9,1,1843.6999999997206,146907.90000000037,9086,NNB,B,8
8,prac,1,1.0,1-Back,1.0,z,Tue Jun 02 2026 11:34:15 GMT-0400 (Eastern Daylight Time),150251.0,097_m_f_n_a.png,I,z,718,10,1,1491.8999999999069,148759.1000000001,9086,NNB,B,9
9,prac,1,0.0,1-Back,1.0,m,Tue Jun 02 2026 11:34:15 GMT-0400 (Eastern Daylight Time),151718.1000000001,176_o_m_n_a.png,I,m,690,11,1,1458.3999999999069,150259.7000000002,9086,NNB,B,10
10,prac,1,0.0,1-Back,1.0,m,Tue Jun 02 2026 11:34:15 GMT-0400 (Eastern Daylight Time),153451.6000000001,173_y_f_n_a.png,I,m,815,12,1,1725.5,151726.1000000001,9086,NNB,B,11
0,test,1,0.0,1-Back,,,Tue Jun 02 2026 11:34:15 GMT-0400 (Eastern Daylight Time),153451.6000000001,152_y_f_n_a.png,I,space,17536,1,1,1725.5,151726.1000000001,9086,NNB,B,0
1,test,1,0.0,1-Back,1.0,m,Tue Jun 02 2026 11:34:15 GMT-0400 (Eastern Daylight Time),180084.80000000028,029_m_f_n_a.png,I,m,468,2,1,1493.5,178591.30000000028,9086,NNB,B,1
2,test,1,0.0,1-Back,1.0,m,Tue Jun 02 2026 11:34:15 GMT-0400 (Eastern Daylight Time),181651.30000000028,173_y_f_n_a.png,I,m,544,3,1,1558.8000000002794,180092.5,9086,NNB,B,2
3,test,1,1.0,1-Back,1.0,z,Tue Jun 02 2026 11:34:15 GMT-0400 (Eastern Daylight Time),183268.0,173_y_f_n_a.png,I,z,585,4,1,1610.1999999997206,181657.80000000028,9086,NNB,B,3
4,test,1,0.0,1-Back,1.0,m,Tue Jun 02 2026 11:34:15 GMT-0400 (Eastern Daylight Time),185051.40000000037,029_m_f_n_a.png,I,m,761,5,1,1776.3000000002794,183275.1000000001,9086,NNB,B,4
5,test,1,0.0,1-Back,1.0,m,Tue Jun 02 2026 11:34:15 GMT-0400 (Eastern Daylight Time),186834.80000000028,176_o_m_n_a.png,I,m,761,6,1,1775.7000000001863,185059.1000000001,9086,NNB,B,5
6,test,1,1.0,1-Back,1.0,z,Tue Jun 02 2026 11:34:15 GMT-0400 (Eastern Daylight Time),188551.2000000002,176_o_m_n_a.png,I,z,690,7,1,1710.0,186841.2000000002,9086,NNB,B,6
7,test,1,0.0,1-Back,1.0,m,Tue Jun 02 2026 11:34:15 GMT-0400 (Eastern Daylight Time),190251.2000000002,126_m_m_n_a.png,I,m,669,8,1,1693.2999999998137,188557.90000000037,9086,NNB,B,7
8,test,1,0.0,1-Back,1.0,m,Tue Jun 02 2026 11:34:15 GMT-0400 (Eastern Daylight Time),192184.7000000002,086_o_f_n_a.png,I,m,913,9,1,1926.5,190258.2000000002,9086,NNB,B,8
9,test,1,0.0,1-Back,1.0,m,Tue Jun 02 2026 11:34:15 GMT-0400 (Eastern Daylight Time),194034.6000000001,126_m_m_n_a.png,I,m,828,10,1,1842.8999999999069,192191.7000000002,9086,NNB,B,9
10,test,1,0.0,1-Back,1.0,m,Tue Jun 02 2026 11:34:15 GMT-0400 (Eastern Daylight Time),195751.40000000037,153_y_m_n_a.png,I,m,690,11,1,1710.3000000002794,194041.1000000001,9086,NNB,B,10
11,test,1,1.0,1-Back,1.0,z,Tue Jun 02 2026 11:34:15 GMT-0400 (Eastern Daylight Time),197434.6000000001,153_y_m_n_a.png,I,z,653,12,1,1675.6000000000931,195759.0,9086,NNB,B,11
12,test,1,0.0,1-Back,1.0,m,Tue Jun 02 2026 11:34:15 GMT-0400 (Eastern Daylight Time),199118.0,110_o_f_n_a.png,I,m,650,13,1,1674.5999999996275,197443.40000000037,9086,NNB,B,12
13,test,1,1.0,1-Back,1.0,z,Tue Jun 02 2026 11:34:15 GMT-0400 (Eastern Daylight Time),200884.7000000002,110_o_f_n_a.png,I,z,743,14,1,1761.2000000001863,199123.5,9086,NNB,B,13
14,test,1,0.0,1-Back,1.0,m,Tue Jun 02 2026 11:34:15 GMT-0400 (Eastern Daylight Time),202601.40000000037,013_y_m_n_a.png,I,m,687,15,1,1709.0,200892.40000000037,9086,NNB,B,14
15,test,1,0.0,1-Back,1.0,m,Tue Jun 02 2026 11:34:15 GMT-0400 (Eastern Daylight Time),204468.0,097_m_f_n_a.png,I,m,835,16,1,1859.3999999999069,202608.6000000001,9086,NNB,B,15
16,test,1,0.0,1-Back,1.0,m,Tue Jun 02 2026 11:34:15 GMT-0400 (Eastern Daylight Time),206151.1000000001,065_o_m_n_a.png,I,m,665,17,1,1676.0,204475.1000000001,9086,NNB,B,16
17,test,1,0.0,1-Back,1.0,m,Tue Jun 02 2026 11:34:15 GMT-0400 (Eastern Daylight Time),207951.80000000028,097_m_f_n_a.png,I,m,781,18,1,1794.8999999999069,206156.90000000037,9086,NNB,B,17
0,test,2,0.0,1-Back,,,Tue Jun 02 2026 11:34:15 GMT-0400 (Eastern Daylight Time),207951.80000000028,126_m_m_n_a.png,I,space,2196,1,1,1794.8999999999069,206156.90000000037,9086,NNB,B,0
1,test,2,0.0,1-Back,1.0,m,Tue Jun 02 2026 11:34:15 GMT-0400 (Eastern Daylight Time),213868.0,029_m_f_n_a.png,I,m,677,2,1,1693.1999999997206,212174.80000000028,9086,NNB,B,1
2,test,2,1.0,1-Back,1.0,z,Tue Jun 02 2026 11:34:15 GMT-0400 (Eastern Daylight Time),215784.7000000002,029_m_f_n_a.png,I,z,897,3,1,1908.7999999998137,213875.90000000037,9086,NNB,B,2
3,test,2,0.0,1-Back,1.0,m,Tue Jun 02 2026 11:34:15 GMT-0400 (Eastern Daylight Time),217418.1000000001,126_m_m_n_a.png,I,m,612,4,1,1626.1000000000931,215792.0,9086,NNB,B,3
4,test,2,0.0,1-Back,1.0,m,Tue Jun 02 2026 11:34:15 GMT-0400 (Eastern Daylight Time),219168.2000000002,153_y_m_n_a.png,I,m,723,5,1,1741.8999999999069,217426.30000000028,9086,NNB,B,4
5,test,2,0.0,1-Back,1.0,m,Tue Jun 02 2026 11:34:15 GMT-0400 (Eastern Daylight Time),220801.2000000002,152_y_f_n_a.png,I,m,604,6,1,1626.2000000001863,219175.0,9086,NNB,B,5
6,test,2,1.0,1-Back,1.0,z,Tue Jun 02 2026 11:34:15 GMT-0400 (Eastern Daylight Time),222434.6000000001,152_y_f_n_a.png,I,z,603,7,1,1626.5,220808.1000000001,9086,NNB,B,6
7,test,2,0.0,1-Back,1.0,m,Tue Jun 02 2026 11:34:15 GMT-0400 (Eastern Daylight Time),223968.90000000037,153_y_m_n_a.png,I,m,514,8,1,1526.1000000000931,222442.80000000028,9086,NNB,B,7
8,test,2,0.0,1-Back,1.0,m,Tue Jun 02 2026 11:34:15 GMT-0400 (Eastern Daylight Time),225551.40000000037,110_o_f_n_a.png,I,m,556,9,1,1575.3000000002794,223976.1000000001,9086,NNB,B,8
9,test,2,0.0,1-Back,1.0,m,Tue Jun 02 2026 11:34:15 GMT-0400 (Eastern Daylight Time),227101.30000000028,178_m_m_n_a.png,I,m,525,10,1,1541.8000000002794,225559.5,9086,NNB,B,9
10,test,2,1.0,1-Back,1.0,z,Tue Jun 02 2026 11:34:15 GMT-0400 (Eastern Daylight Time),228684.7000000002,178_m_m_n_a.png,I,z,559,11,1,1575.2999999998137,227109.40000000037,9086,NNB,B,10
11,test,2,0.0,1-Back,1.0,m,Tue Jun 02 2026 11:34:15 GMT-0400 (Eastern Daylight Time),230268.1000000001,110_o_f_n_a.png,I,m,552,12,1,1576.7999999998137,228691.30000000028,9086,NNB,B,11
12,test,2,0.0,1-Back,1.0,m,Tue Jun 02 2026 11:34:15 GMT-0400 (Eastern Daylight Time),231934.7000000002,086_o_f_n_a.png,I,m,641,13,1,1660.2999999998137,230274.40000000037,9086,NNB,B,12
13,test,2,0.0,1-Back,1.0,m,Tue Jun 02 2026 11:34:15 GMT-0400 (Eastern Daylight Time),233501.30000000028,176_o_m_n_a.png,I,m,534,14,1,1557.7000000001863,231943.6000000001,9086,NNB,B,13
14,test,2,0.0,1-Back,1.0,m,Tue Jun 02 2026 11:34:15 GMT-0400 (Eastern Daylight Time),235051.2000000002,065_o_m_n_a.png,I,m,528,15,1,1544.0,233507.2000000002,9086,NNB,B,14
15,test,2,1.0,1-Back,1.0,z,Tue Jun 02 2026 11:34:15 GMT-0400 (Eastern Daylight Time),236651.2000000002,065_o_m_n_a.png,I,z,577,16,1,1591.8999999999069,235059.30000000028,9086,NNB,B,15
16,test,2,0.0,1-Back,1.0,m,Tue Jun 02 2026 11:34:15 GMT-0400 (Eastern Daylight Time),238134.5,013_y_m_n_a.png,I,m,465,17,1,1477.1999999997206,236657.30000000028,9086,NNB,B,16
17,test,2,1.0,1-Back,1.0,z,Tue Jun 02 2026 11:34:15 GMT-0400 (Eastern Daylight Time),239868.0,013_y_m_n_a.png,I,z,710,18,1,1726.7999999998137,238141.2000000002,9086,NNB,B,17
0,test,3,1.0,1-Back,,,Tue Jun 02 2026 11:34:15 GMT-0400 (Eastern Daylight Time),239868.0,173_y_f_n_a.png,I,space,1488,1,1,1726.7999999998137,238141.2000000002,9086,NNB,B,0
1,test,3,0.0,1-Back,1.0,m,Tue Jun 02 2026 11:34:15 GMT-0400 (Eastern Daylight Time),245117.90000000037,065_o_m_n_a.png,I,m,591,1,1,1608.6000000000931,243509.30000000028,9086,NNB,B,1
2,test,3,1.0,1-Back,1.0,z,Tue Jun 02 2026 11:34:15 GMT-0400 (Eastern Daylight Time),246934.7000000002,065_o_m_n_a.png,I,z,799,1,1,1809.3999999999069,245125.30000000028,9086,NNB,B,2
3,test,3,0.0,1-Back,1.0,m,Tue Jun 02 2026 11:34:15 GMT-0400 (Eastern Daylight Time),248584.80000000028,097_m_f_n_a.png,I,m,622,1,1,1643.0,246941.80000000028,9086,NNB,B,3
4,test,3,1.0,1-Back,1.0,z,Tue Jun 02 2026 11:34:15 GMT-0400 (Eastern Daylight Time),250318.0,097_m_f_n_a.png,I,z,708,1,1,1726.5999999996275,248591.40000000037,9086,NNB,B,4
5,test,3,0.0,1-Back,1.0,m,Tue Jun 02 2026 11:34:15 GMT-0400 (Eastern Daylight Time),252418.0,110_o_f_n_a.png,I,m,1079,1,1,2093.0999999996275,250324.90000000037,9086,NNB,B,5
6,test,3,0.0,1-Back,1.0,m,Tue Jun 02 2026 11:34:15 GMT-0400 (Eastern Daylight Time),254051.1000000001,153_y_m_n_a.png,I,m,603,1,1,1624.6000000000931,252426.5,9086,NNB,B,6
7,test,3,0.0,1-Back,1.0,m,Tue Jun 02 2026 11:34:15 GMT-0400 (Eastern Daylight Time),255651.2000000002,110_o_f_n_a.png,I,m,577,1,1,1596.3999999999069,254054.80000000028,9086,NNB,B,7
8,test,3,0.0,1-Back,1.0,m,Tue Jun 02 2026 11:34:15 GMT-0400 (Eastern Daylight Time),257318.1000000001,013_y_m_n_a.png,I,m,633,1,1,1660.2999999998137,255657.80000000028,9086,NNB,B,8
9,test,3,1.0,1-Back,1.0,z,Tue Jun 02 2026 11:34:15 GMT-0400 (Eastern Daylight Time),258967.90000000037,013_y_m_n_a.png,I,z,631,1,1,1641.4000000003725,257326.5,9086,NNB,B,9
10,test,3,0.0,1-Back,1.0,m,Tue Jun 02 2026 11:34:15 GMT-0400 (Eastern Daylight Time),260601.2000000002,029_m_f_n_a.png,I,m,613,1,1,1626.7000000001863,258974.5,9086,NNB,B,10
11,test,3,0.0,1-Back,1.0,m,Tue Jun 02 2026 11:34:15 GMT-0400 (Eastern Daylight Time),262334.6000000001,152_y_f_n_a.png,I,m,707,1,1,1725.2999999998137,260609.30000000028,9086,NNB,B,11
12,test,3,1.0,1-Back,1.0,z,Tue Jun 02 2026 11:34:15 GMT-0400 (Eastern Daylight Time),264034.6000000001,152_y_f_n_a.png,I,z,678,1,1,1691.2999999998137,262343.3000000003,9086,NNB,B,12
13,test,3,0.0,1-Back,1.0,m,Tue Jun 02 2026 11:34:15 GMT-0400 (Eastern Daylight Time),265618.0,029_m_f_n_a.png,I,m,562,1,1,1575.6999999997206,264042.3000000003,9086,NNB,B,13
14,test,3,0.0,1-Back,1.0,m,Tue Jun 02 2026 11:34:15 GMT-0400 (Eastern Daylight Time),267534.6000000001,126_m_m_n_a.png,I,m,890,1,1,1910.6999999997206,265623.9000000004,9086,NNB,B,14
15,test,3,1.0,1-Back,1.0,z,Tue Jun 02 2026 11:34:15 GMT-0400 (Eastern Daylight Time),269334.7000000002,126_m_m_n_a.png,I,z,774,1,1,1793.7000000001863,267541.0,9086,NNB,B,15
16,test,3,0.0,1-Back,1.0,m,Tue Jun 02 2026 11:34:15 GMT-0400 (Eastern Daylight Time),271001.5,086_o_f_n_a.png,I,m,638,1,1,1660.8999999999069,269340.6000000001,9086,NNB,B,16
17,test,3,1.0,1-Back,1.0,z,Tue Jun 02 2026 11:34:15 GMT-0400 (Eastern Daylight Time),272634.8000000003,086_o_f_n_a.png,I,z,612,1,1,1626.3000000002794,271008.5,9086,NNB,B,17
0,test,4,1.0,1-Back,,,Tue Jun 02 2026 11:34:15 GMT-0400 (Eastern Daylight Time),272634.8000000003,097_m_f_n_a.png,I,space,1570,1,1,1626.3000000002794,271008.5,9086,NNB,B,0
1,test,4,0.0,1-Back,1.0,m,Tue Jun 02 2026 11:34:15 GMT-0400 (Eastern Daylight Time),277968.0,065_o_m_n_a.png,I,m,590,2,1,1609.0999999996275,276358.9000000004,9086,NNB,B,1
2,test,4,0.0,1-Back,1.0,m,Tue Jun 02 2026 11:34:15 GMT-0400 (Eastern Daylight Time),279634.6000000001,097_m_f_n_a.png,I,m,637,3,1,1659.1999999997206,277975.4000000004,9086,NNB,B,2
3,test,4,0.0,1-Back,1.0,m,Tue Jun 02 2026 11:34:15 GMT-0400 (Eastern Daylight Time),281234.6000000001,110_o_f_n_a.png,I,m,570,4,1,1593.0,279641.6000000001,9086,NNB,B,3
4,test,4,1.0,1-Back,1.0,z,Tue Jun 02 2026 11:34:15 GMT-0400 (Eastern Daylight Time),282901.2000000002,110_o_f_n_a.png,I,z,642,5,1,1659.7999999998137,281241.4000000004,9086,NNB,B,4
5,test,4,0.0,1-Back,1.0,m,Tue Jun 02 2026 11:34:15 GMT-0400 (Eastern Daylight Time),284434.8000000003,152_y_f_n_a.png,I,m,511,6,1,1525.7000000001863,282909.1000000001,9086,NNB,B,5
6,test,4,0.0,1-Back,1.0,m,Tue Jun 02 2026 11:34:15 GMT-0400 (Eastern Daylight Time),286001.3000000003,153_y_m_n_a.png,I,m,546,7,1,1559.5,284441.8000000003,9086,NNB,B,6
7,test,4,1.0,1-Back,1.0,z,Tue Jun 02 2026 11:34:15 GMT-0400 (Eastern Daylight Time),287601.2000000002,153_y_m_n_a.png,I,z,579,8,1,1592.7999999998137,286008.4000000004,9086,NNB,B,7
8,test,4,0.0,1-Back,1.0,m,Tue Jun 02 2026 11:34:15 GMT-0400 (Eastern Daylight Time),289151.2000000002,152_y_f_n_a.png,I,m,531,9,1,1543.8999999999069,287607.3000000003,9086,NNB,B,8
9,test,4,0.0,1-Back,1.0,m,Tue Jun 02 2026 11:34:15 GMT-0400 (Eastern Daylight Time),290751.3000000003,178_m_m_n_a.png,I,m,573,10,1,1593.3999999999069,289157.9000000004,9086,NNB,B,9
9,test,4,1.0,1-Back,0.0,z,Tue Jun 02 2026 11:34:15 GMT-0400 (Eastern Daylight Time),292301.4000000004,178_m_m_n_a.png,I,m,533,11,1,1543.7000000001863,290757.7000000002,9086,NNB,B,10
10,test,4,0.0,1-Back,1.0,m,Tue Jun 02 2026 11:34:15 GMT-0400 (Eastern Daylight Time),294002.8000000003,086_o_f_n_a.png,I,m,671,12,1,1697.3000000002794,292305.5,9086,NNB,B,11
11,test,4,0.0,1-Back,1.0,m,Tue Jun 02 2026 11:34:15 GMT-0400 (Eastern Daylight Time),295751.2000000002,176_o_m_n_a.png,I,m,732,13,1,1739.0,294012.2000000002,9086,NNB,B,12
12,test,4,0.0,1-Back,1.0,m,Tue Jun 02 2026 11:34:15 GMT-0400 (Eastern Daylight Time),297651.5,086_o_f_n_a.png,I,m,870,14,1,1891.3999999999069,295760.1000000001,9086,NNB,B,13
13,test,4,0.0,1-Back,1.0,m,Tue Jun 02 2026 11:34:15 GMT-0400 (Eastern Daylight Time),299418.5,173_y_f_n_a.png,I,m,745,15,1,1760.8999999999069,297657.6000000001,9086,NNB,B,14
14,test,4,1.0,1-Back,1.0,z,Tue Jun 02 2026 11:34:15 GMT-0400 (Eastern Daylight Time),301002.1000000001,173_y_f_n_a.png,I,z,554,16,1,1574.1000000000931,299428.0,9086,NNB,B,15
15,test,4,0.0,1-Back,1.0,m,Tue Jun 02 2026 11:34:15 GMT-0400 (Eastern Daylight Time),302618.0,029_m_f_n_a.png,I,m,588,17,1,1606.8999999999069,301011.1000000001,9086,NNB,B,16
16,test,4,1.0,1-Back,1.0,z,Tue Jun 02 2026 11:34:15 GMT-0400 (Eastern Daylight Time),304668.1000000001,029_m_f_n_a.png,I,z,1027,18,1,2042.6000000000931,302625.5,9086,NNB,B,17
0,test,5,1.0,1-Back,,,Tue Jun 02 2026 11:34:15 GMT-0400 (Eastern Daylight Time),304668.1000000001,176_o_m_n_a.png,I,space,1632,1,1,2042.6000000000931,302625.5,9086,NNB,B,0
0,test,5,1.0,1-Back,0.0,z,Tue Jun 02 2026 11:34:15 GMT-0400 (Eastern Daylight Time),309918.1000000001,176_o_m_n_a.png,I,m,558,2,1,1577.2999999998137,308340.8000000003,9086,NNB,B,1
1,test,5,0.0,1-Back,1.0,m,Tue Jun 02 2026 11:34:15 GMT-0400 (Eastern Daylight Time),311468.0,152_y_f_n_a.png,I,m,527,3,1,1543.2999999998137,309924.7000000002,9086,NNB,B,2
2,test,5,0.0,1-Back,1.0,m,Tue Jun 02 2026 11:34:15 GMT-0400 (Eastern Daylight Time),313334.6000000001,153_y_m_n_a.png,I,m,841,4,1,1858.7999999998137,311475.8000000003,9086,NNB,B,3
3,test,5,0.0,1-Back,1.0,m,Tue Jun 02 2026 11:34:15 GMT-0400 (Eastern Daylight Time),315501.2000000002,152_y_f_n_a.png,I,m,1134,5,1,2159.899999999907,313341.3000000003,9086,NNB,B,4
4,test,5,0.0,1-Back,1.0,m,Tue Jun 02 2026 11:34:15 GMT-0400 (Eastern Daylight Time),317351.4000000004,126_m_m_n_a.png,I,m,823,6,1,1843.2000000001863,315508.2000000002,9086,NNB,B,5
5,test,5,1.0,1-Back,1.0,z,Tue Jun 02 2026 11:34:15 GMT-0400 (Eastern Daylight Time),318918.4000000004,126_m_m_n_a.png,I,z,549,7,1,1559.4000000003725,317359.0,9086,NNB,B,6
6,test,5,0.0,1-Back,1.0,m,Tue Jun 02 2026 11:34:15 GMT-0400 (Eastern Daylight Time),320918.1000000001,173_y_f_n_a.png,I,m,975,8,1,1991.8999999999069,318926.2000000002,9086,NNB,B,7
7,test,5,0.0,1-Back,1.0,m,Tue Jun 02 2026 11:34:15 GMT-0400 (Eastern Daylight Time),322634.7000000002,013_y_m_n_a.png,I,m,687,9,1,1710.1000000000931,320924.6000000001,9086,NNB,B,8
7,test,5,0.0,1-Back,0.0,m,Tue Jun 02 2026 11:34:15 GMT-0400 (Eastern Daylight Time),324468.0,173_y_f_n_a.png,I,z,802,10,1,1824.7999999998137,322643.2000000002,9086,NNB,B,9
8,test,5,0.0,1-Back,1.0,m,Tue Jun 02 2026 11:34:15 GMT-0400 (Eastern Daylight Time),326167.8000000003,086_o_f_n_a.png,I,m,681,11,1,1691.8000000002794,324476.0,9086,NNB,B,10
9,test,5,1.0,1-Back,1.0,z,Tue Jun 02 2026 11:34:15 GMT-0400 (Eastern Daylight Time),328634.7000000002,086_o_f_n_a.png,I,z,1445,12,1,2460.600000000093,326174.1000000001,9086,NNB,B,11
10,test,5,0.0,1-Back,1.0,m,Tue Jun 02 2026 11:34:15 GMT-0400 (Eastern Daylight Time),330201.3000000003,065_o_m_n_a.png,I,m,538,13,1,1559.3999999999069,328641.9000000004,9086,NNB,B,12
11,test,5,0.0,1-Back,1.0,m,Tue Jun 02 2026 11:34:15 GMT-0400 (Eastern Daylight Time),331801.3000000003,097_m_f_n_a.png,I,m,571,14,1,1593.7000000001863,330207.6000000001,9086,NNB,B,13
12,test,5,1.0,1-Back,1.0,z,Tue Jun 02 2026 11:34:15 GMT-0400 (Eastern Daylight Time),334134.4000000004,097_m_f_n_a.png,I,z,1315,15,1,2322.2000000001863,331812.2000000002,9086,NNB,B,14
13,test,5,0.0,1-Back,1.0,m,Tue Jun 02 2026 11:34:15 GMT-0400 (Eastern Daylight Time),335868.1000000001,065_o_m_n_a.png,I,m,710,16,1,1728.0,334140.1000000001,9086,NNB,B,15
14,test,5,0.0,1-Back,1.0,m,Tue Jun 02 2026 11:34:15 GMT-0400 (Eastern Daylight Time),337501.3000000003,029_m_f_n_a.png,I,m,601,17,1,1625.1000000000931,335876.2000000002,9086,NNB,B,16
15,test,5,0.0,1-Back,1.0,m,Tue Jun 02 2026 11:34:15 GMT-0400 (Eastern Daylight Time),339151.6000000001,178_m_m_n_a.png,I,m,631,18,1,1643.7999999998137,337507.8000000003,9086,NNB,B,17
0,prac,1,0.0,2-Back,,,Tue Jun 02 2026 11:34:15 GMT-0400 (Eastern Daylight Time),339151.6000000001,013_y_m_n_a.png,I,space,15964,1,1,1643.7999999998137,337507.8000000003,9086,NNB,B,0
0,prac,1,0.0,2-Back,,,Tue Jun 02 2026 11:34:15 GMT-0400 (Eastern Daylight Time),339151.6000000001,029_m_f_n_a.png,I,space,15964,2,1,1643.7999999998137,337507.8000000003,9086,NNB,B,0
1,prac,1,1.0,2-Back,1.0,m,Tue Jun 02 2026 11:34:15 GMT-0400 (Eastern Daylight Time),459284.9000000004,065_o_m_n_a.png,I,m,863,3,1,1841.4000000003725,457443.5,9086,NNB,B,1
2,prac,1,0.0,2-Back,1.0,m,Tue Jun 02 2026 11:34:15 GMT-0400 (Eastern Daylight Time),462034.8000000003,086_o_f_n_a.png,I,m,1595,4,1,2739.2000000001863,459295.6000000001,9086,NNB,B,2
3,prac,1,0.0,2-Back,1.0,z,Tue Jun 02 2026 11:34:15 GMT-0400 (Eastern Daylight Time),464318.0,065_o_m_n_a.png,I,z,1457,5,1,2225.899999999907,462092.1000000001,9086,NNB,B,3
4,prac,1,1.0,2-Back,1.0,z,Tue Jun 02 2026 11:34:15 GMT-0400 (Eastern Daylight Time),466484.8000000003,086_o_f_n_a.png,I,z,1390,6,1,2156.899999999907,464327.9000000004,9086,NNB,B,4
5,prac,1,0.0,2-Back,1.0,m,Tue Jun 02 2026 11:34:15 GMT-0400 (Eastern Daylight Time),468484.9000000004,178_m_m_n_a.png,I,m,961,7,1,1986.4000000003725,466498.5,9086,NNB,B,5
6,prac,1,0.0,2-Back,1.0,m,Tue Jun 02 2026 11:34:15 GMT-0400 (Eastern Daylight Time),470484.8000000003,176_o_m_n_a.png,I,m,976,8,1,1991.2000000001863,468493.6000000001,9086,NNB,B,6
7,prac,1,0.0,2-Back,1.0,m,Tue Jun 02 2026 11:34:15 GMT-0400 (Eastern Daylight Time),472618.1000000001,173_y_f_n_a.png,I,m,1121,9,1,2125.6999999997206,470492.4000000004,9086,NNB,B,7
8,prac,1,1.0,2-Back,1.0,z,Tue Jun 02 2026 11:34:15 GMT-0400 (Eastern Daylight Time),474351.5,176_o_m_n_a.png,I,z,949,10,1,1718.6999999997206,472632.8000000003,9086,NNB,B,8
9,prac,1,0.0,2-Back,1.0,m,Tue Jun 02 2026 11:34:15 GMT-0400 (Eastern Daylight Time),476518.1000000001,152_y_f_n_a.png,I,m,1157,11,1,2159.1999999997206,474358.9000000004,9086,NNB,B,9
10,prac,1,0.0,2-Back,1.0,m,Tue Jun 02 2026 11:34:15 GMT-0400 (Eastern Daylight Time),478834.8000000003,178_m_m_n_a.png,I,m,1526,12,1,2308.399999999907,476526.4000000004,9086,NNB,B,10
0,test,1,0.0,2-Back,,,Tue Jun 02 2026 11:34:15 GMT-0400 (Eastern Daylight Time),478834.8000000003,153_y_m_n_a.png,I,space,19401,1,1,2308.399999999907,476526.4000000004,9086,NNB,B,0
0,test,1,0.0,2-Back,,,Tue Jun 02 2026 11:34:15 GMT-0400 (Eastern Daylight Time),478834.8000000003,153_y_m_n_a.png,I,space,19401,2,1,2308.399999999907,476526.4000000004,9086,NNB,B,0
1,test,1,0.0,2-Back,1.0,m,Tue Jun 02 2026 11:34:15 GMT-0400 (Eastern Daylight Time),509568.2000000002,086_o_f_n_a.png,I,m,597,3,1,1609.7999999998137,507958.4000000004,9086,NNB,B,1
2,test,1,0.0,2-Back,1.0,m,Tue Jun 02 2026 11:34:15 GMT-0400 (Eastern Daylight Time),511601.4000000004,126_m_m_n_a.png,I,m,1013,4,1,2026.9000000003725,509574.5,9086,NNB,B,2
3,test,1,1.0,2-Back,1.0,z,Tue Jun 02 2026 11:34:15 GMT-0400 (Eastern Daylight Time),513434.8000000003,086_o_f_n_a.png,I,z,770,5,1,1785.8999999999069,511648.9000000004,9086,NNB,B,3
4,test,1,0.0,2-Back,1.0,m,Tue Jun 02 2026 11:34:15 GMT-0400 (Eastern Daylight Time),515418.1000000001,152_y_f_n_a.png,I,m,962,6,1,1975.1000000000931,513443.0,9086,NNB,B,4
4,test,1,0.0,2-Back,0.0,m,Tue Jun 02 2026 11:34:15 GMT-0400 (Eastern Daylight Time),517317.9000000004,126_m_m_n_a.png,I,z,875,7,1,1892.9000000003725,515425.0,9086,NNB,B,5
5,test,1,1.0,2-Back,1.0,z,Tue Jun 02 2026 11:34:15 GMT-0400 (Eastern Daylight Time),519351.3000000003,152_y_f_n_a.png,I,z,1015,8,1,2027.3999999999069,517323.9000000004,9086,NNB,B,6
6,test,1,0.0,2-Back,1.0,m,Tue Jun 02 2026 11:34:15 GMT-0400 (Eastern Daylight Time),521401.4000000004,013_y_m_n_a.png,I,m,1021,9,1,2043.9000000003725,519357.5,9086,NNB,B,7
7,test,1,0.0,2-Back,1.0,m,Tue Jun 02 2026 11:34:15 GMT-0400 (Eastern Daylight Time),523267.8000000003,110_o_f_n_a.png,I,m,842,10,1,1858.1000000000931,521409.7000000002,9086,NNB,B,8
8,test,1,1.0,2-Back,1.0,z,Tue Jun 02 2026 11:34:15 GMT-0400 (Eastern Daylight Time),525084.7000000002,013_y_m_n_a.png,I,z,785,11,1,1812.7999999998137,523271.9000000004,9086,NNB,B,9
9,test,1,0.0,2-Back,1.0,m,Tue Jun 02 2026 11:34:15 GMT-0400 (Eastern Daylight Time),527234.8000000003,029_m_f_n_a.png,I,m,1128,12,1,2143.399999999907,525091.4000000004,9086,NNB,B,10
10,test,1,0.0,2-Back,1.0,m,Tue Jun 02 2026 11:34:15 GMT-0400 (Eastern Daylight Time),530134.5,029_m_f_n_a.png,I,m,1881,13,1,2893.0,527241.5,9086,NNB,B,11
11,test,1,0.0,2-Back,1.0,m,Tue Jun 02 2026 11:34:15 GMT-0400 (Eastern Daylight Time),532334.7000000002,065_o_m_n_a.png,I,m,1173,14,1,2193.600000000093,530141.1000000001,9086,NNB,B,12
12,test,1,0.0,2-Back,1.0,m,Tue Jun 02 2026 11:34:15 GMT-0400 (Eastern Daylight Time),534634.7000000002,110_o_f_n_a.png,I,m,1270,15,1,2294.100000000093,532340.6000000001,9086,NNB,B,13
13,test,1,1.0,2-Back,1.0,z,Tue Jun 02 2026 11:34:15 GMT-0400 (Eastern Daylight Time),536351.3000000003,065_o_m_n_a.png,I,z,690,16,1,1709.5,534641.8000000003,9086,NNB,B,14
14,test,1,0.0,2-Back,1.0,m,Tue Jun 02 2026 11:34:15 GMT-0400 (Eastern Daylight Time),538567.9000000004,097_m_f_n_a.png,I,m,1023,17,1,2039.6000000000931,536528.3000000003,9086,NNB,B,15
15,test,1,0.0,2-Back,1.0,m,Tue Jun 02 2026 11:34:15 GMT-0400 (Eastern Daylight Time),540718.0,178_m_m_n_a.png,I,m,1117,18,1,2144.399999999907,538573.6000000001,9086,NNB,B,16
0,test,2,0.0,2-Back,,,Tue Jun 02 2026 11:34:15 GMT-0400 (Eastern Daylight Time),540718.0,178_m_m_n_a.png,I,space,1732,1,1,2144.399999999907,538573.6000000001,9086,NNB,B,0
0,test,2,0.0,2-Back,,,Tue Jun 02 2026 11:34:15 GMT-0400 (Eastern Daylight Time),540718.0,173_y_f_n_a.png,I,space,1732,2,1,2144.399999999907,538573.6000000001,9086,NNB,B,0
1,test,2,1.0,2-Back,1.0,z,Tue Jun 02 2026 11:34:15 GMT-0400 (Eastern Daylight Time),550001.5,178_m_m_n_a.png,I,z,1188,3,1,2210.899999999907,547790.6000000001,9086,NNB,B,1
2,test,2,0.0,2-Back,1.0,m,Tue Jun 02 2026 11:34:15 GMT-0400 (Eastern Daylight Time),552018.0,097_m_f_n_a.png,I,m,987,4,1,2009.6999999997206,550008.3000000003,9086,NNB,B,2
2,test,2,0.0,2-Back,0.0,m,Tue Jun 02 2026 11:34:15 GMT-0400 (Eastern Daylight Time),553884.6000000001,173_y_f_n_a.png,I,z,834,5,1,1860.1000000000931,552024.5,9086,NNB,B,3
3,test,2,0.0,2-Back,1.0,m,Tue Jun 02 2026 11:34:15 GMT-0400 (Eastern Daylight Time),556201.3000000003,065_o_m_n_a.png,I,m,1288,6,1,2309.899999999907,553891.4000000004,9086,NNB,B,4
4,test,2,0.0,2-Back,1.0,m,Tue Jun 02 2026 11:34:15 GMT-0400 (Eastern Daylight Time),558084.7000000002,152_y_f_n_a.png,I,m,850,7,1,1875.2000000001863,556209.5,9086,NNB,B,5
5,test,2,1.0,2-Back,1.0,z,Tue Jun 02 2026 11:34:15 GMT-0400 (Eastern Daylight Time),559951.6000000001,065_o_m_n_a.png,I,z,844,8,1,1860.1999999997206,558091.4000000004,9086,NNB,B,6
6,test,2,0.0,2-Back,1.0,m,Tue Jun 02 2026 11:34:15 GMT-0400 (Eastern Daylight Time),561984.7000000002,013_y_m_n_a.png,I,m,1014,9,1,2025.6000000000931,559959.1000000001,9086,NNB,B,7
7,test,2,0.0,2-Back,1.0,m,Tue Jun 02 2026 11:34:15 GMT-0400 (Eastern Daylight Time),564702.7000000002,013_y_m_n_a.png,I,m,1684,10,1,2711.2999999998137,561991.4000000004,9086,NNB,B,8
8,test,2,0.0,2-Back,1.0,m,Tue Jun 02 2026 11:34:15 GMT-0400 (Eastern Daylight Time),566968.0,029_m_f_n_a.png,I,m,1238,11,1,2258.6999999997206,564709.3000000003,9086,NNB,B,9
9,test,2,0.0,2-Back,1.0,m,Tue Jun 02 2026 11:34:15 GMT-0400 (Eastern Daylight Time),569584.8000000003,173_y_f_n_a.png,I,m,1589,12,1,2609.0,566975.8000000003,9086,NNB,B,10
10,test,2,1.0,2-Back,1.0,z,Tue Jun 02 2026 11:34:15 GMT-0400 (Eastern Daylight Time),571651.3000000003,029_m_f_n_a.png,I,z,1043,13,1,2059.2000000001863,569592.1000000001,9086,NNB,B,11
11,test,2,0.0,2-Back,1.0,m,Tue Jun 02 2026 11:34:15 GMT-0400 (Eastern Daylight Time),573884.7000000002,176_o_m_n_a.png,I,m,1208,14,1,2225.899999999907,571658.8000000003,9086,NNB,B,12
11,test,2,0.0,2-Back,0.0,m,Tue Jun 02 2026 11:34:15 GMT-0400 (Eastern Daylight Time),576929.8000000003,176_o_m_n_a.png,I,None,2017,15,1,3039.100000000093,573890.7000000002,9086,NNB,B,13
12,test,2,0.0,2-Back,1.0,m,Tue Jun 02 2026 11:34:15 GMT-0400 (Eastern Daylight Time),579301.4000000004,110_o_f_n_a.png,I,m,1334,16,1,2361.3000000002794,576940.1000000001,9086,NNB,B,14
13,test,2,0.0,2-Back,1.0,m,Tue Jun 02 2026 11:34:15 GMT-0400 (Eastern Daylight Time),581385.4000000004,126_m_m_n_a.png,I,m,1054,17,1,2077.0,579308.4000000004,9086,NNB,B,15
14,test,2,1.0,2-Back,1.0,z,Tue Jun 02 2026 11:34:15 GMT-0400 (Eastern Daylight Time),583151.3000000003,110_o_f_n_a.png,I,z,707,18,1,1726.1000000000931,581425.2000000002,9086,NNB,B,16
0,test,3,1.0,2-Back,,,Tue Jun 02 2026 11:34:15 GMT-0400 (Eastern Daylight Time),583151.3000000003,153_y_m_n_a.png,I,space,1438,1,1,1726.1000000000931,581425.2000000002,9086,NNB,B,0
0,test,3,1.0,2-Back,,,Tue Jun 02 2026 11:34:15 GMT-0400 (Eastern Daylight Time),583151.3000000003,153_y_m_n_a.png,I,space,1438,2,1,1726.1000000000931,581425.2000000002,9086,NNB,B,0
1,test,3,0.0,2-Back,1.0,m,Tue Jun 02 2026 11:34:15 GMT-0400 (Eastern Daylight Time),591534.4000000004,110_o_f_n_a.png,I,m,665,3,1,1680.6000000000931,589853.8000000003,9086,NNB,B,1
1,test,3,0.0,2-Back,0.0,m,Tue Jun 02 2026 11:34:15 GMT-0400 (Eastern Daylight Time),595401.5,178_m_m_n_a.png,I,None,2013,4,1,3860.1999999997206,591541.3000000003,9086,NNB,B,2
1,test,3,1.0,2-Back,0.0,z,Tue Jun 02 2026 11:34:15 GMT-0400 (Eastern Daylight Time),598684.6000000001,110_o_f_n_a.png,I,None,2016,5,1,3276.600000000093,595408.0,9086,NNB,B,3
2,test,3,0.0,2-Back,1.0,m,Tue Jun 02 2026 11:34:15 GMT-0400 (Eastern Daylight Time),600801.9000000004,013_y_m_n_a.png,I,m,1094,6,1,2109.100000000093,598692.8000000003,9086,NNB,B,4
3,test,3,0.0,2-Back,1.0,m,Tue Jun 02 2026 11:34:15 GMT-0400 (Eastern Daylight Time),602967.8000000003,178_m_m_n_a.png,I,m,1139,7,1,2162.8000000002794,600805.0,9086,NNB,B,5
4,test,3,1.0,2-Back,1.0,z,Tue Jun 02 2026 11:34:15 GMT-0400 (Eastern Daylight Time),604717.9000000004,013_y_m_n_a.png,I,z,724,8,1,1747.0,602970.9000000004,9086,NNB,B,6
5,test,3,0.0,2-Back,1.0,m,Tue Jun 02 2026 11:34:15 GMT-0400 (Eastern Daylight Time),606784.2000000002,173_y_f_n_a.png,I,m,1046,9,1,2059.7000000001863,604724.5,9086,NNB,B,7
6,test,3,0.0,2-Back,1.0,m,Tue Jun 02 2026 11:34:15 GMT-0400 (Eastern Daylight Time),608901.3000000003,126_m_m_n_a.png,I,m,1083,10,1,2113.5,606787.8000000003,9086,NNB,B,8
7,test,3,1.0,2-Back,1.0,z,Tue Jun 02 2026 11:34:15 GMT-0400 (Eastern Daylight Time),610651.3000000003,173_y_f_n_a.png,I,z,726,11,1,1741.3999999999069,608909.9000000004,9086,NNB,B,9
8,test,3,1.0,2-Back,1.0,z,Tue Jun 02 2026 11:34:15 GMT-0400 (Eastern Daylight Time),612551.5,126_m_m_n_a.png,I,z,873,12,1,1893.0999999996275,610658.4000000004,9086,NNB,B,10
9,test,3,0.0,2-Back,1.0,m,Tue Jun 02 2026 11:34:15 GMT-0400 (Eastern Daylight Time),614501.4000000004,110_o_f_n_a.png,I,m,924,13,1,1943.7000000001863,612557.7000000002,9086,NNB,B,11
10,test,3,0.0,2-Back,1.0,m,Tue Jun 02 2026 11:34:15 GMT-0400 (Eastern Daylight Time),616350.9000000004,097_m_f_n_a.png,I,m,830,14,1,1844.1000000000931,614506.8000000003,9086,NNB,B,12
11,test,3,0.0,2-Back,1.0,m,Tue Jun 02 2026 11:34:15 GMT-0400 (Eastern Daylight Time),619301.2000000002,065_o_m_n_a.png,I,m,1340,15,1,2947.399999999907,616353.8000000003,9086,NNB,B,13
12,test,3,1.0,2-Back,1.0,z,Tue Jun 02 2026 11:34:15 GMT-0400 (Eastern Daylight Time),621168.1000000001,097_m_f_n_a.png,I,z,838,16,1,1863.3999999999069,619304.7000000002,9086,NNB,B,14
13,test,3,0.0,2-Back,1.0,m,Tue Jun 02 2026 11:34:15 GMT-0400 (Eastern Daylight Time),623119.4000000004,086_o_f_n_a.png,I,m,932,17,1,1944.0,621175.4000000004,9086,NNB,B,15
14,test,3,0.0,2-Back,1.0,m,Tue Jun 02 2026 11:34:15 GMT-0400 (Eastern Daylight Time),625284.8000000003,086_o_f_n_a.png,I,m,1142,18,1,2160.600000000093,623124.2000000002,9086,NNB,B,16
0,test,4,0.0,2-Back,,,Tue Jun 02 2026 11:34:15 GMT-0400 (Eastern Daylight Time),625284.8000000003,176_o_m_n_a.png,I,space,1572,1,1,2160.600000000093,623124.2000000002,9086,NNB,B,0
0,test,4,0.0,2-Back,,,Tue Jun 02 2026 11:34:15 GMT-0400 (Eastern Daylight Time),625284.8000000003,152_y_f_n_a.png,I,space,1572,2,1,2160.600000000093,623124.2000000002,9086,NNB,B,0
1,test,4,1.0,2-Back,1.0,z,Tue Jun 02 2026 11:34:15 GMT-0400 (Eastern Daylight Time),634418.2000000002,176_o_m_n_a.png,I,z,912,3,1,1925.0,632493.2000000002,9086,NNB,B,1
2,test,4,1.0,2-Back,1.0,z,Tue Jun 02 2026 11:34:15 GMT-0400 (Eastern Daylight Time),636401.4000000004,152_y_f_n_a.png,I,z,955,4,1,1976.2000000001863,634425.2000000002,9086,NNB,B,2
3,test,4,0.0,2-Back,1.0,m,Tue Jun 02 2026 11:34:15 GMT-0400 (Eastern Daylight Time),638234.6000000001,110_o_f_n_a.png,I,m,802,5,1,1827.6999999997206,636406.9000000004,9086,NNB,B,3
4,test,4,0.0,2-Back,1.0,m,Tue Jun 02 2026 11:34:15 GMT-0400 (Eastern Daylight Time),640351.0,110_o_f_n_a.png,I,m,1088,6,1,2109.5999999996275,638241.4000000004,9086,NNB,B,4
5,test,4,0.0,2-Back,1.0,m,Tue Jun 02 2026 11:34:15 GMT-0400 (Eastern Daylight Time),642451.3000000003,029_m_f_n_a.png,I,m,1025,7,1,2097.2000000001863,640354.1000000001,9086,NNB,B,5
6,test,4,0.0,2-Back,1.0,m,Tue Jun 02 2026 11:34:15 GMT-0400 (Eastern Daylight Time),644418.0,013_y_m_n_a.png,I,m,936,8,1,1960.0999999996275,642457.9000000004,9086,NNB,B,6
7,test,4,1.0,2-Back,1.0,z,Tue Jun 02 2026 11:34:15 GMT-0400 (Eastern Daylight Time),646167.9000000004,029_m_f_n_a.png,I,z,731,9,1,1742.3000000002794,644425.6000000001,9086,NNB,B,7
8,test,4,0.0,2-Back,1.0,m,Tue Jun 02 2026 11:34:15 GMT-0400 (Eastern Daylight Time),648168.1000000001,126_m_m_n_a.png,I,m,979,10,1,1993.5,646174.6000000001,9086,NNB,B,8
8,test,4,0.0,2-Back,0.0,m,Tue Jun 02 2026 11:34:15 GMT-0400 (Eastern Daylight Time),649734.8000000003,013_y_m_n_a.png,I,z,539,11,1,1558.3999999999069,648176.4000000004,9086,NNB,B,9
9,test,4,0.0,2-Back,1.0,m,Tue Jun 02 2026 11:34:15 GMT-0400 (Eastern Daylight Time),651634.8000000003,086_o_f_n_a.png,I,m,877,12,1,1893.5,649741.3000000003,9086,NNB,B,10
10,test,4,0.0,2-Back,1.0,m,Tue Jun 02 2026 11:34:15 GMT-0400 (Eastern Daylight Time),653601.5,153_y_m_n_a.png,I,m,937,13,1,1958.5999999996275,651642.9000000004,9086,NNB,B,11
11,test,4,1.0,2-Back,1.0,z,Tue Jun 02 2026 11:34:15 GMT-0400 (Eastern Daylight Time),655284.7000000002,086_o_f_n_a.png,I,z,650,14,1,1678.2999999998137,653606.4000000004,9086,NNB,B,12
12,test,4,1.0,2-Back,1.0,z,Tue Jun 02 2026 11:34:15 GMT-0400 (Eastern Daylight Time),657651.4000000004,153_y_m_n_a.png,I,z,1336,15,1,2362.4000000003725,655289.0,9086,NNB,B,13
13,test,4,0.0,2-Back,1.0,m,Tue Jun 02 2026 11:34:15 GMT-0400 (Eastern Daylight Time),659684.7000000002,178_m_m_n_a.png,I,m,1000,16,1,2027.5,657657.2000000002,9086,NNB,B,14
14,test,4,0.0,2-Back,1.0,m,Tue Jun 02 2026 11:34:15 GMT-0400 (Eastern Daylight Time),661701.3000000003,097_m_f_n_a.png,I,m,984,17,1,2008.6000000000931,659692.7000000002,9086,NNB,B,15
15,test,4,1.0,2-Back,1.0,z,Tue Jun 02 2026 11:34:15 GMT-0400 (Eastern Daylight Time),663234.7000000002,178_m_m_n_a.png,I,z,511,18,1,1526.7000000001863,661708.0,9086,NNB,B,16
0,test,5,1.0,2-Back,,,Tue Jun 02 2026 11:34:15 GMT-0400 (Eastern Daylight Time),663234.7000000002,153_y_m_n_a.png,I,space,1273,1,1,1526.7000000001863,661708.0,9086,NNB,B,0
0,test,5,1.0,2-Back,,,Tue Jun 02 2026 11:34:15 GMT-0400 (Eastern Daylight Time),663234.7000000002,097_m_f_n_a.png,I,space,1273,2,1,1526.7000000001863,661708.0,9086,NNB,B,0
0,test,5,1.0,2-Back,0.0,z,Tue Jun 02 2026 11:34:15 GMT-0400 (Eastern Daylight Time),671234.8000000003,153_y_m_n_a.png,I,m,637,3,1,1660.3999999999069,669574.4000000004,9086,NNB,B,1
1,test,5,1.0,2-Back,1.0,z,Tue Jun 02 2026 11:34:15 GMT-0400 (Eastern Daylight Time),673684.8000000003,097_m_f_n_a.png,I,z,1425,4,1,2443.7000000001863,671241.1000000001,9086,NNB,B,2
2,test,5,0.0,2-Back,1.0,m,Tue Jun 02 2026 11:34:15 GMT-0400 (Eastern Daylight Time),675534.8000000003,086_o_f_n_a.png,I,m,823,5,1,1844.0,673690.8000000003,9086,NNB,B,3
3,test,5,0.0,2-Back,1.0,m,Tue Jun 02 2026 11:34:15 GMT-0400 (Eastern Daylight Time),677701.4000000004,153_y_m_n_a.png,I,m,1141,6,1,2160.3000000002794,675541.1000000001,9086,NNB,B,4
4,test,5,0.0,2-Back,1.0,m,Tue Jun 02 2026 11:34:15 GMT-0400 (Eastern Daylight Time),679734.6000000001,173_y_f_n_a.png,I,m,1015,7,1,2027.2999999998137,677707.3000000003,9086,NNB,B,5
5,test,5,0.0,2-Back,1.0,m,Tue Jun 02 2026 11:34:15 GMT-0400 (Eastern Daylight Time),681718.3000000003,086_o_f_n_a.png,I,m,966,8,1,1976.3000000002794,679742.0,9086,NNB,B,6
6,test,5,1.0,2-Back,1.0,z,Tue Jun 02 2026 11:34:15 GMT-0400 (Eastern Daylight Time),683251.4000000004,173_y_f_n_a.png,I,z,512,9,1,1527.1000000000931,681724.3000000003,9086,NNB,B,7
7,test,5,0.0,2-Back,1.0,m,Tue Jun 02 2026 11:34:15 GMT-0400 (Eastern Daylight Time),685218.0,065_o_m_n_a.png,I,m,936,10,1,1960.1999999997206,683257.8000000003,9086,NNB,B,8
8,test,5,0.0,2-Back,1.0,m,Tue Jun 02 2026 11:34:15 GMT-0400 (Eastern Daylight Time),687368.1000000001,029_m_f_n_a.png,I,m,1130,11,1,2142.0,685226.1000000001,9086,NNB,B,9
9,test,5,0.0,2-Back,1.0,m,Tue Jun 02 2026 11:34:15 GMT-0400 (Eastern Daylight Time),689401.5,126_m_m_n_a.png,I,m,1012,12,1,2024.8999999999069,687376.6000000001,9086,NNB,B,10
9,test,5,0.0,2-Back,0.0,m,Tue Jun 02 2026 11:34:15 GMT-0400 (Eastern Daylight Time),692435.1000000001,065_o_m_n_a.png,I,None,2016,13,1,3026.7999999998137,689408.3000000003,9086,NNB,B,11
10,test,5,1.0,2-Back,1.0,z,Tue Jun 02 2026 11:34:15 GMT-0400 (Eastern Daylight Time),694568.0,126_m_m_n_a.png,I,z,1105,14,1,2127.6999999997206,692440.3000000003,9086,NNB,B,12
11,test,5,0.0,2-Back,1.0,m,Tue Jun 02 2026 11:34:15 GMT-0400 (Eastern Daylight Time),696501.8000000003,152_y_f_n_a.png,I,m,916,15,1,1929.1000000000931,694572.7000000002,9086,NNB,B,13
12,test,5,0.0,2-Back,1.0,m,Tue Jun 02 2026 11:34:15 GMT-0400 (Eastern Daylight Time),698400.8000000003,176_o_m_n_a.png,I,m,878,16,1,1890.5,696510.3000000003,9086,NNB,B,14
13,test,5,0.0,2-Back,1.0,m,Tue Jun 02 2026 11:34:15 GMT-0400 (Eastern Daylight Time),700468.1000000001,029_m_f_n_a.png,I,m,1034,17,1,2064.0,698404.1000000001,9086,NNB,B,15
13,test,5,1.0,2-Back,0.0,z,Tue Jun 02 2026 11:34:15 GMT-0400 (Eastern Daylight Time),702601.4000000004,176_o_m_n_a.png,I,m,1105,18,1,2127.7000000001863,700473.7000000002,9086,NNB,B,16
