acc_sum,block,block_c,condition,correct,correct_response,datetime,endtime,flanker,jitter,project,response,response_test_buffer_response,response_test_target_response,response_time,response_time_test_buffer_response,response_time_test_target_response,row_sel,session_number,start_end,starttime,subject_id,target,task,task_vers,time_test_buffer,time_test_buffer_response,time_test_constants,time_test_flanker,time_test_jitter,time_test_logger,time_test_target,time_test_target_response,time_test_variables,trial
0,prac,1,inc,0,m,Fri May 23 2025 09:53:09 GMT-0500 (Central Daylight Time),154718.59999999404,raisin,1100,I,None,,,1813,,,12,1,5176.300000011921,149542.29999998212,7150,cobalt,NF,C,,,,,,,,,,1
1,prac,1,con,1,m,Fri May 23 2025 09:53:09 GMT-0500 (Central Daylight Time),157348.69999998808,gold,800,I,m,,,532,,,13,1,2624.699999988079,154724.0,7150,gold,NF,C,,,,,,,,,,2
2,prac,1,con,1,z,Fri May 23 2025 09:53:09 GMT-0500 (Central Daylight Time),159731.19999998808,lime,800,I,z,,,275,,,5,1,2376.5999999940395,157354.59999999404,7150,lime,NF,C,,,,,,,,,,3
3,prac,1,con,1,z,Fri May 23 2025 09:53:09 GMT-0500 (Central Daylight Time),162248.19999998808,orange,1000,I,z,,,213,,,3,1,2512.0999999940395,159736.09999999404,7150,orange,NF,C,,,,,,,,,,4
3,prac,1,inc,0,z,Fri May 23 2025 09:53:09 GMT-0500 (Central Daylight Time),167428.59999999404,lead,1100,I,None,,,1813,,,8,1,5175.300000011921,162253.29999998212,7150,plum,NF,C,,,,,,,,,,5
4,prac,1,con,1,m,Fri May 23 2025 09:53:09 GMT-0500 (Central Daylight Time),170146.29999998212,silver,1000,I,m,,,404,,,11,1,2711.7999999821186,167434.5,7150,silver,NF,C,,,,,,,,,,6
5,prac,1,con,1,m,Fri May 23 2025 09:53:09 GMT-0500 (Central Daylight Time),172578.0,zinc,1000,I,m,,,119,,,15,1,2426.5,170151.5,7150,zinc,NF,C,,,,,,,,,,7
6,prac,1,con,1,z,Fri May 23 2025 09:53:09 GMT-0500 (Central Daylight Time),174772.89999997616,banana,800,I,z,,,98,,,1,1,2189.0999999940395,172583.79999998212,7150,banana,NF,C,,,,,,,,,,8
6,prac,1,inc,0,z,Fri May 23 2025 09:53:09 GMT-0500 (Central Daylight Time),177274.39999997616,iron,900,I,m,,,288,,,6,1,2498.2999999821186,174776.09999999404,7150,pear,NF,C,,,,,,,,,,9
7,prac,1,con,1,z,Fri May 23 2025 09:53:09 GMT-0500 (Central Daylight Time),179724.89999997616,kiwi,1000,I,z,,,135,,,7,1,2446.199999988079,177278.69999998808,7150,kiwi,NF,C,,,,,,,,,,10
8,prac,1,con,1,m,Fri May 23 2025 09:53:09 GMT-0500 (Central Daylight Time),181992.29999998212,bronze,800,I,m,,,166,,,9,1,2263.7999999821186,179728.5,7150,bronze,NF,C,,,,,,,,,,11
8,prac,1,inc,0,z,Fri May 23 2025 09:53:09 GMT-0500 (Central Daylight Time),184540.29999998212,cobalt,1100,I,m,,,144,,,4,1,2543.5999999940395,181996.69999998808,7150,raisin,NF,C,,,,,,,,,,12
8,prac,1,inc,0,m,Fri May 23 2025 09:53:09 GMT-0500 (Central Daylight Time),186888.59999999404,cherry,900,I,z,,,146,,,10,1,2342.4000000059605,184546.19999998808,7150,copper,NF,C,,,,,,,,,,13
8,prac,1,inc,0,m,Fri May 23 2025 09:53:09 GMT-0500 (Central Daylight Time),189122.39999997616,pear,900,I,z,,,20,,,14,1,2227.5,186894.89999997616,7150,iron,NF,C,,,,,,,,,,14
8,prac,1,inc,0,z,Fri May 23 2025 09:53:09 GMT-0500 (Central Daylight Time),191720.19999998808,copper,900,I,m,,,397,,,2,1,2592.199999988079,189128.0,7150,cherry,NF,C,,,,,,,,,,15
8,prac,1,inc,0,m,Fri May 23 2025 09:53:09 GMT-0500 (Central Daylight Time),196903.59999999404,plum,1100,I,None,,,1812,,,16,1,5176.0,191727.59999999404,7150,lead,NF,C,,,,,,,,,,16
0,prac,2,inc,0,z,Fri May 23 2025 09:53:09 GMT-0500 (Central Daylight Time),207131.79999998212,iron,900,I,None,,,1814,,,6,1,4991.299999982119,202140.5,7150,pear,NF,C,,,,,,,,,,1
0,prac,2,inc,0,z,Fri May 23 2025 09:53:09 GMT-0500 (Central Daylight Time),209449.19999998808,copper,900,I,m,,,113,,,2,1,2311.0999999940395,207138.09999999404,7150,cherry,NF,C,,,,,,,,,,2
1,prac,2,con,1,m,Fri May 23 2025 09:53:09 GMT-0500 (Central Daylight Time),211914.89999997616,zinc,1000,I,m,,,153,,,15,1,2459.0999999940395,209455.79999998212,7150,zinc,NF,C,,,,,,,,,,3
2,prac,2,con,1,z,Fri May 23 2025 09:53:09 GMT-0500 (Central Daylight Time),214230.69999998808,lime,800,I,z,,,224,,,5,1,2310.5,211920.19999998808,7150,lime,NF,C,,,,,,,,,,4
3,prac,2,con,1,z,Fri May 23 2025 09:53:09 GMT-0500 (Central Daylight Time),216880.29999998212,kiwi,1000,I,z,,,347,,,7,1,2642.199999988079,214238.09999999404,7150,kiwi,NF,C,,,,,,,,,,5
3,prac,2,inc,0,z,Fri May 23 2025 09:53:09 GMT-0500 (Central Daylight Time),219429.59999999404,cobalt,1100,I,m,,,150,,,4,1,2542.2000000178814,216887.39999997616,7150,raisin,NF,C,,,,,,,,,,6
3,prac,2,inc,0,m,Fri May 23 2025 09:53:09 GMT-0500 (Central Daylight Time),221779.29999998212,cherry,900,I,z,,,143,,,10,1,2342.699999988079,219436.59999999404,7150,copper,NF,C,,,,,,,,,,7
3,prac,2,con,0,z,Fri May 23 2025 09:53:09 GMT-0500 (Central Daylight Time),226878.0,orange,1000,I,None,,,1816,,,3,1,5093.4000000059605,221784.59999999404,7150,orange,NF,C,,,,,,,,,,8
4,prac,2,con,1,m,Fri May 23 2025 09:53:09 GMT-0500 (Central Daylight Time),229325.89999997616,silver,1000,I,m,,,150,,,11,1,2437.0,226888.89999997616,7150,silver,NF,C,,,,,,,,,,9
4,prac,2,inc,0,m,Fri May 23 2025 09:53:09 GMT-0500 (Central Daylight Time),231574.89999997616,pear,900,I,z,,,49,,,14,1,2241.0,229333.89999997616,7150,iron,NF,C,,,,,,,,,,10
5,prac,2,con,1,z,Fri May 23 2025 09:53:09 GMT-0500 (Central Daylight Time),233741.69999998808,banana,800,I,z,,,58,,,1,1,2160.4000000059605,231581.29999998212,7150,banana,NF,C,,,,,,,,,,11
6,prac,2,inc,1,z,Fri May 23 2025 09:53:09 GMT-0500 (Central Daylight Time),236255.39999997616,lead,1100,I,z,,,114,,,8,1,2505.5999999940395,233749.79999998212,7150,plum,NF,C,,,,,,,,,,12
7,prac,2,con,1,m,Fri May 23 2025 09:53:09 GMT-0500 (Central Daylight Time),238671.39999997616,gold,800,I,m,,,304,,,13,1,2412.5999999940395,236258.79999998212,7150,gold,NF,C,,,,,,,,,,13
7,prac,2,inc,0,m,Fri May 23 2025 09:53:09 GMT-0500 (Central Daylight Time),241253.5,raisin,1100,I,z,,,181,,,12,1,2579.0,238674.5,7150,cobalt,NF,C,,,,,,,,,,14
8,prac,2,con,1,m,Fri May 23 2025 09:53:09 GMT-0500 (Central Daylight Time),243653.59999999404,bronze,800,I,m,,,290,,,9,1,2397.2000000178814,241256.39999997616,7150,bronze,NF,C,,,,,,,,,,15
8,prac,2,inc,0,m,Fri May 23 2025 09:53:09 GMT-0500 (Central Daylight Time),246288.0,plum,1100,I,z,,,239,,,16,1,2627.7000000178814,243660.29999998212,7150,lead,NF,C,,,,,,,,,,16
0,prac,3,inc,0,z,Fri May 23 2025 09:53:09 GMT-0500 (Central Daylight Time),254867.19999998808,cobalt,1100,I,m,,,216,,,4,1,2609.199999988079,252258.0,7150,raisin,NF,C,,,,,,,,,,1
0,prac,3,inc,0,m,Fri May 23 2025 09:53:09 GMT-0500 (Central Daylight Time),259833.29999998212,cherry,900,I,None,,,1813,,,10,1,4959.299999982119,254874.0,7150,copper,NF,C,,,,,,,,,,2
1,prac,3,con,1,m,Fri May 23 2025 09:53:09 GMT-0500 (Central Daylight Time),262299.0,silver,1000,I,m,,,153,,,11,1,2458.9000000059605,259840.09999999404,7150,silver,NF,C,,,,,,,,,,3
2,prac,3,con,1,m,Fri May 23 2025 09:53:09 GMT-0500 (Central Daylight Time),264531.89999997616,bronze,800,I,m,,,127,,,9,1,2227.0,262304.89999997616,7150,bronze,NF,C,,,,,,,,,,4
2,prac,3,inc,0,m,Fri May 23 2025 09:53:09 GMT-0500 (Central Daylight Time),267310.89999997616,plum,1100,I,z,,,378,,,16,1,2772.5999999940395,264538.2999999821,7150,lead,NF,C,,,,,,,,,,5
3,prac,3,con,1,m,Fri May 23 2025 09:53:09 GMT-0500 (Central Daylight Time),269912.2999999821,zinc,1000,I,m,,,310,,,15,1,2598.5999999940395,267313.6999999881,7150,zinc,NF,C,,,,,,,,,,6
4,prac,3,con,1,z,Fri May 23 2025 09:53:09 GMT-0500 (Central Daylight Time),272579.09999999404,kiwi,1000,I,z,,,376,,,7,1,2660.5999999940395,269918.5,7150,kiwi,NF,C,,,,,,,,,,7
4,prac,3,inc,0,m,Fri May 23 2025 09:53:09 GMT-0500 (Central Daylight Time),275127.59999999404,pear,900,I,z,,,350,,,14,1,2542.300000011921,272585.2999999821,7150,iron,NF,C,,,,,,,,,,8
5,prac,3,con,1,z,Fri May 23 2025 09:53:09 GMT-0500 (Central Daylight Time),277711.09999999404,lime,800,I,z,,,472,,,5,1,2578.5999999940395,275132.5,7150,lime,NF,C,,,,,,,,,,9
5,prac,3,inc,0,z,Fri May 23 2025 09:53:09 GMT-0500 (Central Daylight Time),280209.59999999404,iron,900,I,m,,,295,,,6,1,2491.9000000059605,277717.6999999881,7150,pear,NF,C,,,,,,,,,,10
6,prac,3,con,1,z,Fri May 23 2025 09:53:09 GMT-0500 (Central Daylight Time),282924.7999999821,orange,1000,I,z,,,408,,,3,1,2709.9000000059605,280214.89999997616,7150,orange,NF,C,,,,,,,,,,11
7,prac,3,con,1,z,Fri May 23 2025 09:53:09 GMT-0500 (Central Daylight Time),285474.1999999881,banana,800,I,z,,,437,,,1,1,2544.4000000059605,282929.7999999821,7150,banana,NF,C,,,,,,,,,,12
8,prac,3,inc,1,m,Fri May 23 2025 09:53:09 GMT-0500 (Central Daylight Time),288406.2999999821,raisin,1100,I,m,,,551,,,12,1,2925.9000000059605,285480.39999997616,7150,cobalt,NF,C,,,,,,,,,,13
9,prac,3,inc,1,z,Fri May 23 2025 09:53:09 GMT-0500 (Central Daylight Time),291371.89999997616,lead,1100,I,z,,,566,,,8,1,2959.5,288412.39999997616,7150,plum,NF,C,,,,,,,,,,14
10,prac,3,con,1,m,Fri May 23 2025 09:53:09 GMT-0500 (Central Daylight Time),293872.2999999821,gold,800,I,m,,,404,,,13,1,2493.0999999940395,291379.1999999881,7150,gold,NF,C,,,,,,,,,,15
11,prac,3,inc,1,z,Fri May 23 2025 09:53:09 GMT-0500 (Central Daylight Time),296588.39999997616,copper,900,I,z,,,508,,,2,1,2709.199999988079,293879.1999999881,7150,cherry,NF,C,,,,,,,,,,16
1,test,1,inc,1,z,Fri May 23 2025 09:53:09 GMT-0500 (Central Daylight Time),310150.2999999821,copper,900,I,z,z,None,490,276.0,214.0,6,1,1908.9000000059605,308241.39999997616,7150,banana,NF,C,298931,298931,297305,298214,297306,299214,298716,298716,299214,1
2,test,1,con,1,m,Fri May 23 2025 09:53:09 GMT-0500 (Central Daylight Time),312234.39999997616,silver,1100,I,m,m,None,450,235.0,215.0,84,1,2079.5999999940395,310154.7999999821,7150,silver,NF,C,301063,301063,299219,300332,299219,301298,300848,300848,301298,2
3,test,1,inc,1,z,Fri May 23 2025 09:53:09 GMT-0500 (Central Daylight Time),314149.2999999821,iron,900,I,z,z,None,469,270.0,199.0,38,1,1909.4000000059605,312239.89999997616,7150,lime,NF,C,302929,302929,301304,302213,301304,303213,302730,302730,303213,3
3,test,1,con,0,m,Fri May 23 2025 09:53:09 GMT-0500 (Central Daylight Time),316281.1999999881,bronze,1000,I,z,z,None,590,389.0,201.0,67,1,2127.800000011921,314153.39999997616,7150,bronze,NF,C,304946,304946,303217,304230,303218,305345,304745,304745,305345,4
4,test,1,inc,1,z,Fri May 23 2025 09:53:09 GMT-0500 (Central Daylight Time),318414.2999999821,lead,1100,I,z,z,None,501,302.0,199.0,40,1,2128.5,316285.7999999821,7150,lime,NF,C,307162,307162,305350,306462,305350,307478,306963,306963,307478,5
5,test,1,con,1,m,Fri May 23 2025 09:53:09 GMT-0500 (Central Daylight Time),320362.5,copper,800,I,m,m,None,602,403.0,199.0,73,1,1944.0,318418.5,7150,copper,NF,C,309012,309012,307483,308295,307483,309427,308812,308812,309427,6
6,test,1,con,1,m,Fri May 23 2025 09:53:09 GMT-0500 (Central Daylight Time),322329.2999999821,silver,1000,I,m,m,None,444,231.0,213.0,83,1,1961.0999999940395,320368.1999999881,7150,silver,NF,C,311160,311160,309432,310444,309433,311393,310946,310946,311393,7
7,test,1,con,1,z,Fri May 23 2025 09:53:09 GMT-0500 (Central Daylight Time),324345.1999999881,kiwi,1100,I,z,z,None,371,172.0,199.0,52,1,2010.800000011921,322334.39999997616,7150,kiwi,NF,C,313227,313227,311398,312512,311399,313409,313027,313027,313409,8
8,test,1,con,1,m,Fri May 23 2025 09:53:09 GMT-0500 (Central Daylight Time),326063.39999997616,zinc,800,I,m,m,None,367,164.0,203.0,113,1,1712.699999988079,324350.6999999881,7150,zinc,NF,C,314947,314947,313415,314226,313415,315128,314743,314743,315127,9
8,test,1,inc,0,z,Fri May 23 2025 09:53:09 GMT-0500 (Central Daylight Time),327993.5,copper,900,I,m,m,None,486,287.0,199.0,30,1,1927.0,326066.5,7150,raisin,NF,C,316760,316760,315131,316042,315131,317058,316560,316560,317057,10
9,test,1,inc,1,z,Fri May 23 2025 09:53:09 GMT-0500 (Central Daylight Time),329961.59999999404,iron,900,I,z,z,None,533,333.0,200.0,46,1,1964.300000011921,327997.2999999821,7150,pear,NF,C,318692,318692,317061,317975,317062,319026,318491,318491,319026,11
10,test,1,inc,1,m,Fri May 23 2025 09:53:09 GMT-0500 (Central Daylight Time),332076.6999999881,pear,900,I,m,m,None,669,469.0,200.0,118,1,2110.4000000059605,329966.2999999821,7150,zinc,NF,C,320658,320658,319030,319942,319031,321141,320457,320457,321141,12
11,test,1,con,1,z,Fri May 23 2025 09:53:09 GMT-0500 (Central Daylight Time),334625.2999999821,raisin,1100,I,z,z,None,919,706.0,213.0,28,1,2543.5,332081.7999999821,7150,raisin,NF,C,322973,322973,321146,322258,321146,323689,322759,322759,323689,13
12,test,1,con,1,m,Fri May 23 2025 09:53:09 GMT-0500 (Central Daylight Time),336791.59999999404,lead,1000,I,m,m,None,639,439.0,200.0,123,1,2161.2000000178814,334630.39999997616,7150,lead,NF,C,325407,325407,323694,324706,323695,325856,325207,325207,325856,14
13,test,1,inc,1,m,Fri May 23 2025 09:53:09 GMT-0500 (Central Daylight Time),338757.6999999881,banana,800,I,m,m,None,618,418.0,200.0,77,1,1960.5,336797.1999999881,7150,copper,NF,C,327389,327389,325861,326674,325861,327822,327189,327189,327822,15
14,test,1,inc,1,m,Fri May 23 2025 09:53:09 GMT-0500 (Central Daylight Time),340989.5,raisin,1100,I,m,m,None,582,366.0,216.0,80,1,2227.7000000178814,338761.7999999821,7150,copper,NF,C,329672,329672,327826,328939,327826,330054,329455,329456,330054,16
15,test,1,inc,1,m,Fri May 23 2025 09:53:09 GMT-0500 (Central Daylight Time),343023.2999999821,cherry,900,I,m,m,None,590,391.0,199.0,86,1,2030.9000000059605,340992.39999997616,7150,silver,NF,C,331688,331688,330056,330971,330057,332087,331488,331488,332087,17
15,test,1,con,0,z,Fri May 23 2025 09:53:09 GMT-0500 (Central Daylight Time),345056.0,cherry,1000,I,m,m,None,490,291.0,199.0,11,1,2025.4000000059605,343030.59999999404,7150,cherry,NF,C,333820,333820,332095,333105,332095,334120,333621,333621,334120,18
16,test,1,con,1,m,Fri May 23 2025 09:53:09 GMT-0500 (Central Daylight Time),347039.09999999404,gold,800,I,m,m,None,642,441.0,201.0,97,1,1978.5,345060.59999999404,7150,gold,NF,C,335654,335654,334125,334937,334125,336103,335453,335453,336103,19
17,test,1,inc,1,z,Fri May 23 2025 09:53:09 GMT-0500 (Central Daylight Time),349402.59999999404,lead,1100,I,z,z,None,727,526.0,201.0,64,1,2355.5,347047.09999999404,7150,plum,NF,C,337936,337936,336111,337219,336112,338467,337735,337735,338467,20
18,test,1,con,1,m,Fri May 23 2025 09:53:09 GMT-0500 (Central Daylight Time),351570.6999999881,copper,1100,I,m,m,None,521,321.0,200.0,76,1,2159.199999988079,349411.5,7150,copper,NF,C,340301,340302,338476,339585,338476,340635,340101,340101,340635,21
19,test,1,inc,1,m,Fri May 23 2025 09:53:09 GMT-0500 (Central Daylight Time),353736.7999999821,orange,1000,I,m,m,None,617,402.0,215.0,95,1,2162.0999999940395,351574.6999999881,7150,cobalt,NF,C,342384,342384,340639,341652,340639,342801,342169,342169,342801,22
20,test,1,con,1,m,Fri May 23 2025 09:53:09 GMT-0500 (Central Daylight Time),355768.7999999821,gold,900,I,m,m,None,590,387.0,203.0,98,1,2024.7999999821186,353744.0,7150,gold,NF,C,344436,344436,342808,343716,342808,344833,344233,344233,344833,23
21,test,1,inc,1,m,Fri May 23 2025 09:53:09 GMT-0500 (Central Daylight Time),357719.59999999404,lime,800,I,m,m,None,614,401.0,213.0,125,1,1945.5,355774.09999999404,7150,lead,NF,C,346382,346382,344838,345650,344838,346784,346168,346168,346784,24
22,test,1,con,1,z,Fri May 23 2025 09:53:09 GMT-0500 (Central Daylight Time),359715.59999999404,plum,900,I,z,z,None,560,361.0,199.0,58,1,1990.7000000178814,357724.89999997616,7150,plum,NF,C,348414,348414,346789,347697,346789,348780,348214,348214,348780,25
23,test,1,inc,1,z,Fri May 23 2025 09:53:09 GMT-0500 (Central Daylight Time),361785.09999999404,gold,800,I,z,z,None,735,536.0,199.0,61,1,2066.7000000178814,359718.39999997616,7150,plum,NF,C,350313,350313,348782,349597,348783,350849,350113,350113,350849,26
24,test,1,con,1,z,Fri May 23 2025 09:53:09 GMT-0500 (Central Daylight Time),363949.59999999404,plum,1100,I,z,z,None,517,317.0,200.0,60,1,2159.0,361790.59999999404,7150,plum,NF,C,352680,352681,350855,351966,350855,353014,352480,352480,353014,27
25,test,1,inc,1,z,Fri May 23 2025 09:53:09 GMT-0500 (Central Daylight Time),366098.39999997616,zinc,1000,I,z,z,None,610,411.0,199.0,47,1,2144.5999999940395,363953.7999999821,7150,pear,NF,C,354748,354748,353018,354032,353018,355162,354548,354548,355162,28
26,test,1,inc,1,z,Fri May 23 2025 09:53:09 GMT-0500 (Central Daylight Time),368181.6999999881,cobalt,1100,I,z,z,None,459,243.0,216.0,16,1,2079.0,366102.6999999881,7150,cherry,NF,C,356997,356997,355167,356279,355167,357246,356780,356780,357246,29
27,test,1,inc,1,z,Fri May 23 2025 09:53:09 GMT-0500 (Central Daylight Time),370097.7999999821,iron,900,I,z,z,None,474,274.0,200.0,62,1,1912.2999999821186,368185.5,7150,plum,NF,C,358877,358877,357250,358162,357250,359162,358677,358677,359162,30
28,test,1,con,1,m,Fri May 23 2025 09:53:09 GMT-0500 (Central Daylight Time),372263.59999999404,bronze,1100,I,m,m,None,530,315.0,215.0,68,1,2161.300000011921,370102.2999999821,7150,bronze,NF,C,361012,361012,359166,360278,359167,361328,360796,360796,361328,31
29,test,1,inc,1,m,Fri May 23 2025 09:53:09 GMT-0500 (Central Daylight Time),374480.1999999881,raisin,1100,I,m,m,None,589,390.0,199.0,88,1,2212.0,372268.1999999881,7150,silver,NF,C,363145,363145,361332,362444,361333,363544,362945,362945,363544,32
30,test,1,inc,1,m,Fri May 23 2025 09:53:09 GMT-0500 (Central Daylight Time),376513.09999999404,lime,800,I,m,m,None,698,483.0,215.0,109,1,2028.5999999940395,374484.5,7150,iron,NF,C,365094,365094,363549,364360,363549,365577,364878,364878,365577,33
31,test,1,con,1,z,Fri May 23 2025 09:53:09 GMT-0500 (Central Daylight Time),378860.59999999404,raisin,1000,I,z,z,None,801,600.0,201.0,27,1,2342.9000000059605,376517.6999999881,7150,raisin,NF,C,367310,367310,365582,366594,365582,367925,367109,367109,367925,34
32,test,1,con,1,z,Fri May 23 2025 09:53:09 GMT-0500 (Central Daylight Time),380960.39999997616,lime,1000,I,z,z,None,554,338.0,216.0,35,1,2095.0,378865.39999997616,7150,lime,NF,C,369676,369676,367929,368942,367930,370024,369459,369459,370024,35
33,test,1,inc,1,z,Fri May 23 2025 09:53:09 GMT-0500 (Central Daylight Time),382893.6999999881,gold,800,I,z,z,None,593,394.0,199.0,53,1,1928.699999988079,380965.0,7150,kiwi,NF,C,371558,371558,370029,370842,370029,371958,371359,371359,371958,36
34,test,1,inc,1,z,Fri May 23 2025 09:53:09 GMT-0500 (Central Daylight Time),384727.0,gold,800,I,z,z,None,491,276.0,215.0,37,1,1829.300000011921,382897.6999999881,7150,lime,NF,C,373507,373507,371962,372775,371962,373791,373291,373291,373791,37
35,test,1,con,1,z,Fri May 23 2025 09:53:09 GMT-0500 (Central Daylight Time),386859.7999999821,pear,1100,I,z,z,None,487,288.0,199.0,44,1,2129.2999999821186,384730.5,7150,pear,NF,C,375623,375623,373795,374907,373795,375924,375424,375424,375924,38
36,test,1,inc,1,z,Fri May 23 2025 09:53:09 GMT-0500 (Central Daylight Time),388793.1999999881,iron,900,I,z,z,None,501,301.0,200.0,54,1,1928.199999988079,386865.0,7150,kiwi,NF,C,377556,377556,375929,376840,375929,377857,377356,377356,377857,39
37,test,1,inc,1,m,Fri May 23 2025 09:53:09 GMT-0500 (Central Daylight Time),391055.7999999821,plum,1100,I,m,m,None,638,439.0,199.0,120,1,2257.5999999940395,388798.1999999881,7150,zinc,NF,C,379672,379672,377862,378971,377862,380120,379473,379473,380120,40
38,test,1,con,1,z,Fri May 23 2025 09:53:09 GMT-0500 (Central Daylight Time),393090.2999999821,orange,900,I,z,z,None,600,400.0,200.0,18,1,2029.4000000059605,391060.89999997616,7150,orange,NF,C,381754,381754,380125,381040,380125,382154,381554,381554,382154,41
39,test,1,con,1,z,Fri May 23 2025 09:53:09 GMT-0500 (Central Daylight Time),395456.0,cherry,1100,I,z,z,None,733,531.0,202.0,12,1,2358.2000000178814,393097.7999999821,7150,cherry,NF,C,383989,383989,382162,383272,382162,384520,383786,383786,384520,42
40,test,1,inc,1,m,Fri May 23 2025 09:53:09 GMT-0500 (Central Daylight Time),397420.89999997616,lime,800,I,m,m,None,631,418.0,213.0,117,1,1961.0,395459.89999997616,7150,zinc,NF,C,386053,386053,384524,385337,384524,386485,385839,385839,386485,43
41,test,1,inc,1,z,Fri May 23 2025 09:53:09 GMT-0500 (Central Daylight Time),399287.5,bronze,800,I,z,z,None,522,307.0,215.0,5,1,1862.5,397425.0,7150,banana,NF,C,388037,388037,386489,387303,386489,388352,387821,387821,388352,44
42,test,1,inc,1,z,Fri May 23 2025 09:53:09 GMT-0500 (Central Daylight Time),401088.39999997616,gold,800,I,z,z,None,465,266.0,199.0,45,1,1794.5999999940395,399293.7999999821,7150,pear,NF,C,389886,389886,388358,389169,388358,390152,389686,389686,390152,45
43,test,1,con,1,m,Fri May 23 2025 09:53:09 GMT-0500 (Central Daylight Time),403169.39999997616,cobalt,1000,I,m,m,None,547,331.0,216.0,91,1,2075.5,401093.89999997616,7150,cobalt,NF,C,391901,391901,390158,391168,390158,392233,391685,391685,392233,46
44,test,1,con,1,m,Fri May 23 2025 09:53:09 GMT-0500 (Central Daylight Time),405503.39999997616,gold,1100,I,m,m,None,700,499.0,201.0,100,1,2328.399999976158,403175.0,7150,gold,NF,C,394068,394068,392239,393351,392239,394567,393867,393867,394567,47
45,test,1,inc,1,z,Fri May 23 2025 09:53:09 GMT-0500 (Central Daylight Time),407752.89999997616,zinc,1000,I,z,z,None,716,517.0,199.0,63,1,2244.899999976158,405508.0,7150,plum,NF,C,396300,396300,394572,395584,394572,396817,396101,396101,396817,48
46,test,1,inc,1,m,Fri May 23 2025 09:53:09 GMT-0500 (Central Daylight Time),409917.5,kiwi,1000,I,m,m,None,625,426.0,199.0,103,1,2160.600000023842,407756.89999997616,7150,gold,NF,C,398549,398549,396821,397833,396821,398982,398350,398350,398982,49
47,test,1,con,1,z,Fri May 23 2025 09:53:09 GMT-0500 (Central Daylight Time),411817.1999999881,kiwi,800,I,z,z,None,581,366.0,215.0,49,1,1895.699999988079,409921.5,7150,kiwi,NF,C,400515,400515,398986,399799,398986,400881,400300,400300,400881,50
48,test,1,con,1,m,Fri May 23 2025 09:53:09 GMT-0500 (Central Daylight Time),414032.39999997616,iron,1100,I,m,m,None,572,373.0,199.0,108,1,2207.7999999821186,411824.59999999404,7150,iron,NF,C,402714,402714,400889,401999,400889,403096,402514,402514,403096,51
49,test,1,inc,1,z,Fri May 23 2025 09:53:09 GMT-0500 (Central Daylight Time),416100.1999999881,silver,1000,I,z,z,None,525,326.0,199.0,7,1,2063.5,414036.6999999881,7150,banana,NF,C,404833,404833,403101,404114,403101,405164,404632,404633,405164,52
50,test,1,inc,1,z,Fri May 23 2025 09:53:09 GMT-0500 (Central Daylight Time),418263.7999999821,cobalt,1100,I,z,z,None,531,331.0,200.0,32,1,2159.4000000059605,416104.39999997616,7150,raisin,NF,C,406997,406997,405168,406280,405169,407328,406797,406797,407328,53
51,test,1,con,1,m,Fri May 23 2025 09:53:09 GMT-0500 (Central Daylight Time),420312.2999999821,copper,900,I,m,m,None,612,413.0,199.0,74,1,2045.9000000059605,418266.39999997616,7150,copper,NF,C,408961,408961,407330,408245,407331,409376,408761,408761,409376,54
52,test,1,con,1,m,Fri May 23 2025 09:53:09 GMT-0500 (Central Daylight Time),422647.2999999821,lead,1100,I,m,m,None,708,508.0,200.0,124,1,2332.4000000059605,420314.89999997616,7150,lead,NF,C,411195,411195,409379,410494,409379,411711,410995,410995,411711,55
53,test,1,con,1,z,Fri May 23 2025 09:53:09 GMT-0500 (Central Daylight Time),424663.39999997616,pear,900,I,z,z,None,572,358.0,214.0,42,1,2011.2999999821186,422652.09999999404,7150,pear,NF,C,413362,413362,411716,412630,411717,413727,413147,413147,413727,56
54,test,1,inc,1,m,Fri May 23 2025 09:53:09 GMT-0500 (Central Daylight Time),426679.09999999404,cherry,900,I,m,m,None,573,374.0,199.0,78,1,2010.300000011921,424668.7999999821,7150,copper,NF,C,415360,415361,413733,414645,413733,415743,415161,415161,415743,57
55,test,1,con,1,m,Fri May 23 2025 09:53:09 GMT-0500 (Central Daylight Time),428595.2999999821,iron,800,I,m,m,None,577,377.0,200.0,105,1,1911.2999999821186,426684.0,7150,iron,NF,C,417278,417278,415748,416561,415748,417659,417077,417077,417659,58
56,test,1,con,1,m,Fri May 23 2025 09:53:09 GMT-0500 (Central Daylight Time),430478.1999999881,cobalt,800,I,m,m,None,538,337.0,201.0,89,1,1877.0,428601.1999999881,7150,cobalt,NF,C,419191,419191,417665,418476,417666,419542,418990,418990,419542,59
57,test,1,con,1,m,Fri May 23 2025 09:53:09 GMT-0500 (Central Daylight Time),432527.39999997616,zinc,900,I,m,m,None,604,390.0,214.0,114,1,2044.7999999821186,430482.59999999404,7150,zinc,NF,C,421193,421193,419547,420458,419547,421591,420978,420978,421591,60
58,test,1,con,1,z,Fri May 23 2025 09:53:09 GMT-0500 (Central Daylight Time),434643.0,cherry,900,I,z,z,None,675,462.0,213.0,10,1,2109.5,432533.5,7150,cherry,NF,C,423241,423241,421598,422508,421598,423707,423027,423027,423707,61
59,test,1,con,1,z,Fri May 23 2025 09:53:09 GMT-0500 (Central Daylight Time),436459.5,banana,800,I,z,z,None,483,269.0,214.0,1,1,1811.9000000059605,434647.59999999404,7150,banana,NF,C,425242,425242,423712,424526,423712,425524,425027,425027,425523,62
60,test,1,inc,1,z,Fri May 23 2025 09:53:09 GMT-0500 (Central Daylight Time),438592.2999999821,cobalt,1100,I,z,z,None,504,290.0,214.0,8,1,2127.5999999940395,436464.6999999881,7150,banana,NF,C,427357,427357,425529,426640,425529,427656,427142,427142,427656,63
61,test,1,inc,1,m,Fri May 23 2025 09:53:09 GMT-0500 (Central Daylight Time),440557.5,pear,900,I,m,m,None,524,325.0,199.0,102,1,1959.5,438598.0,7150,gold,NF,C,429290,429290,427662,428573,427662,429622,429090,429090,429622,64
62,test,1,con,1,z,Fri May 23 2025 09:53:09 GMT-0500 (Central Daylight Time),442774.2999999821,banana,1100,I,z,z,None,575,359.0,216.0,4,1,2211.199999988079,440563.09999999404,7150,banana,NF,C,431473,431473,429627,430739,429627,431838,431257,431257,431838,65
63,test,1,con,1,z,Fri May 23 2025 09:53:09 GMT-0500 (Central Daylight Time),444689.59999999404,lime,900,I,z,z,None,481,280.0,201.0,34,1,1909.800000011921,442779.7999999821,7150,lime,NF,C,433472,433472,431844,432758,431844,433754,433271,433271,433754,66
64,test,1,inc,1,m,Fri May 23 2025 09:53:09 GMT-0500 (Central Daylight Time),446872.5,plum,1100,I,m,m,None,538,322.0,216.0,128,1,2177.7000000178814,444694.7999999821,7150,lead,NF,C,435605,435605,433759,434872,433759,435937,435388,435388,435937,67
65,test,1,con,1,m,Fri May 23 2025 09:53:09 GMT-0500 (Central Daylight Time),449004.39999997616,iron,1000,I,m,m,None,608,408.0,200.0,107,1,2126.699999988079,446877.6999999881,7150,iron,NF,C,437655,437655,435942,436953,435942,438068,437455,437455,438068,68
66,test,1,inc,1,m,Fri May 23 2025 09:53:09 GMT-0500 (Central Daylight Time),451005.2999999821,banana,800,I,m,m,None,659,443.0,216.0,93,1,1995.7999999821186,449009.5,7150,cobalt,NF,C,439620,439620,438074,438887,438074,440069,439403,439403,440069,69
67,test,1,inc,1,m,Fri May 23 2025 09:53:09 GMT-0500 (Central Daylight Time),453154.0,kiwi,1000,I,m,m,None,616,415.0,201.0,111,1,2143.300000011921,451010.6999999881,7150,iron,NF,C,441802,441802,440075,441087,440075,442218,441601,441601,442218,70
68,test,1,inc,1,z,Fri May 23 2025 09:53:09 GMT-0500 (Central Daylight Time),455352.89999997616,lead,1100,I,z,z,None,548,349.0,199.0,56,1,2192.899999976158,453160.0,7150,kiwi,NF,C,444052,444052,442224,443336,442224,444417,443852,443852,444417,71
69,test,1,inc,1,m,Fri May 23 2025 09:53:09 GMT-0500 (Central Daylight Time),457453.59999999404,cherry,900,I,m,m,None,651,452.0,199.0,70,1,2092.800000011921,455360.7999999821,7150,bronze,NF,C,446051,446051,444425,445336,444425,446518,445852,445852,446518,72
70,test,1,inc,1,z,Fri May 23 2025 09:53:09 GMT-0500 (Central Daylight Time),459452.59999999404,copper,900,I,z,z,None,552,352.0,200.0,22,1,1992.0999999940395,457460.5,7150,orange,NF,C,448151,448151,446525,447434,446525,448517,447951,447951,448517,73
71,test,1,inc,1,m,Fri May 23 2025 09:53:09 GMT-0500 (Central Daylight Time),461651.5,plum,1100,I,m,m,None,559,360.0,199.0,112,1,2193.5,459458.0,7150,iron,NF,C,450351,450351,448522,449635,448522,450716,450152,450152,450716,74
72,test,1,con,1,z,Fri May 23 2025 09:53:09 GMT-0500 (Central Daylight Time),463634.1999999881,kiwi,1000,I,z,z,None,464,264.0,200.0,51,1,1978.800000011921,461655.39999997616,7150,kiwi,NF,C,452434,452434,450719,451733,450720,452698,452234,452234,452698,75
72,test,1,con,0,z,Fri May 23 2025 09:53:09 GMT-0500 (Central Daylight Time),465499.5,plum,800,I,m,m,None,527,327.0,200.0,57,1,1859.1000000238419,463640.39999997616,7150,plum,NF,C,454232,454232,452704,453517,452705,454564,454032,454032,454564,76
73,test,1,inc,1,m,Fri May 23 2025 09:53:09 GMT-0500 (Central Daylight Time),467600.0,kiwi,1000,I,m,m,None,557,343.0,214.0,127,1,2094.300000011921,465505.6999999881,7150,lead,NF,C,456313,456313,454570,455582,454570,456664,456098,456098,456664,77
74,test,1,con,1,z,Fri May 23 2025 09:53:09 GMT-0500 (Central Daylight Time),469482.7999999821,banana,900,I,z,z,None,432,218.0,214.0,2,1,1877.2999999821186,467605.5,7150,banana,NF,C,458314,458314,456670,457582,456670,458547,458098,458099,458547,78
75,test,1,con,1,m,Fri May 23 2025 09:53:09 GMT-0500 (Central Daylight Time),471481.59999999404,lead,900,I,m,m,None,563,348.0,215.0,122,1,1993.5,469488.09999999404,7150,lead,NF,C,460197,460197,458552,459464,458552,460546,459982,459982,460546,79
76,test,1,inc,1,m,Fri May 23 2025 09:53:09 GMT-0500 (Central Daylight Time),473663.1999999881,kiwi,1000,I,m,m,None,639,425.0,214.0,119,1,2175.699999988079,471487.5,7150,zinc,NF,C,462294,462294,460552,461564,460552,462727,462079,462079,462727,80
77,test,1,inc,1,m,Fri May 23 2025 09:53:09 GMT-0500 (Central Daylight Time),475913.59999999404,orange,1000,I,m,m,None,713,513.0,200.0,79,1,2245.0999999940395,473668.5,7150,copper,NF,C,464462,464462,462733,463748,462733,464978,464262,464262,464978,81
78,test,1,con,1,z,Fri May 23 2025 09:53:09 GMT-0500 (Central Daylight Time),478029.09999999404,orange,1000,I,z,z,None,577,375.0,202.0,19,1,2111.0,475918.09999999404,7150,orange,NF,C,466712,466712,464982,465995,464983,467093,466510,466510,467093,82
79,test,1,inc,1,z,Fri May 23 2025 09:53:09 GMT-0500 (Central Daylight Time),480110.6999999881,cobalt,1100,I,z,z,None,441,241.0,200.0,24,1,2076.9000000059605,478033.7999999821,7150,orange,NF,C,468925,468925,467098,468209,467098,469175,468725,468725,469175,83
80,test,1,inc,1,z,Fri May 23 2025 09:53:09 GMT-0500 (Central Daylight Time),482213.39999997616,zinc,1000,I,z,z,None,556,352.0,204.0,55,1,2099.5,480113.89999997616,7150,kiwi,NF,C,470911,470911,469178,470191,469178,471277,470707,470707,471277,84
81,test,1,inc,1,z,Fri May 23 2025 09:53:09 GMT-0500 (Central Daylight Time),484077.7999999821,bronze,800,I,z,z,None,524,310.0,214.0,13,1,1859.5999999940395,482218.1999999881,7150,cherry,NF,C,472825,472825,471282,472094,471283,473142,472610,472610,473142,85
82,test,1,inc,1,m,Fri May 23 2025 09:53:09 GMT-0500 (Central Daylight Time),486192.6999999881,cherry,900,I,m,m,None,666,466.0,200.0,94,1,2109.5999999940395,484083.09999999404,7150,cobalt,NF,C,474775,474775,473147,474059,473147,475257,474575,474575,475257,86
83,test,1,inc,1,z,Fri May 23 2025 09:53:09 GMT-0500 (Central Daylight Time),488228.0,copper,900,I,z,z,None,599,384.0,215.0,14,1,2028.5,486199.5,7150,cherry,NF,C,476892,476892,475264,476174,475264,477292,476676,476676,477292,87
84,test,1,con,1,m,Fri May 23 2025 09:53:09 GMT-0500 (Central Daylight Time),490456.39999997616,copper,1000,I,m,m,None,685,472.0,213.0,75,1,2223.899999976158,488232.5,7150,copper,NF,C,479038,479038,477297,478307,477297,479520,478825,478825,479520,88
85,test,1,con,1,m,Fri May 23 2025 09:53:09 GMT-0500 (Central Daylight Time),492375.1999999881,silver,800,I,m,m,None,572,373.0,199.0,81,1,1916.300000011921,490458.89999997616,7150,silver,NF,C,481058,481058,479523,480339,479523,481439,480857,480858,481439,89
86,test,1,inc,1,m,Fri May 23 2025 09:53:09 GMT-0500 (Central Daylight Time),494289.5,banana,800,I,m,m,None,593,376.0,217.0,69,1,1909.6000000238419,492379.89999997616,7150,bronze,NF,C,482975,482975,481444,482256,481444,483354,482758,482758,483354,90
87,test,1,con,1,m,Fri May 23 2025 09:53:09 GMT-0500 (Central Daylight Time),496439.7999999821,zinc,1000,I,m,m,None,607,407.0,200.0,115,1,2144.4000000059605,494295.39999997616,7150,zinc,NF,C,485089,485089,483359,484371,483360,485504,484888,484888,485504,91
88,test,1,con,1,z,Fri May 23 2025 09:53:09 GMT-0500 (Central Daylight Time),498441.2999999821,raisin,800,I,z,z,None,667,467.0,200.0,25,1,1995.199999988079,496446.09999999404,7150,raisin,NF,C,487038,487038,485510,486321,485510,487505,486838,486838,487505,92
89,test,1,inc,1,m,Fri May 23 2025 09:53:09 GMT-0500 (Central Daylight Time),500623.2999999821,orange,1000,I,m,m,None,650,451.0,199.0,71,1,2176.4000000059605,498446.89999997616,7150,bronze,NF,C,489236,489236,487511,488521,487511,489687,489037,489037,489687,93
90,test,1,inc,1,m,Fri May 23 2025 09:53:09 GMT-0500 (Central Daylight Time),502870.2999999821,plum,1100,I,m,m,None,605,391.0,214.0,104,1,2241.699999988079,500628.59999999404,7150,gold,NF,C,491536,491536,489693,490805,489693,491934,491321,491321,491934,94
91,test,1,con,1,m,Fri May 23 2025 09:53:09 GMT-0500 (Central Daylight Time),505087.1999999881,cobalt,1100,I,m,m,None,588,373.0,215.0,92,1,2211.5,502875.6999999881,7150,cobalt,NF,C,493770,493770,491940,493052,491940,494151,493554,493554,494151,95
92,test,1,inc,1,m,Fri May 23 2025 09:53:09 GMT-0500 (Central Daylight Time),507253.39999997616,orange,1000,I,m,m,None,623,409.0,214.0,87,1,2161.199999988079,505092.1999999881,7150,silver,NF,C,495902,495902,494156,495169,494156,496317,495686,495687,496317,96
93,test,1,con,1,z,Fri May 23 2025 09:53:09 GMT-0500 (Central Daylight Time),509170.2999999821,pear,800,I,z,z,None,581,381.0,200.0,41,1,1911.5999999940395,507258.6999999881,7150,pear,NF,C,497852,497852,496323,497135,496323,498234,497651,497651,498234,97
94,test,1,con,1,z,Fri May 23 2025 09:53:09 GMT-0500 (Central Daylight Time),511084.1999999881,cherry,800,I,z,z,None,581,367.0,214.0,9,1,1908.9000000059605,509175.2999999821,7150,cherry,NF,C,499767,499767,498239,499051,498240,500148,499552,499552,500148,98
95,test,1,inc,1,m,Fri May 23 2025 09:53:09 GMT-0500 (Central Daylight Time),513335.1999999881,raisin,1100,I,m,m,None,600,400.0,200.0,72,1,2248.199999988079,511087.0,7150,bronze,NF,C,501983,501983,500151,501267,500151,502399,501783,501783,502399,99
96,test,1,con,1,m,Fri May 23 2025 09:53:09 GMT-0500 (Central Daylight Time),515368.2999999821,bronze,900,I,m,m,None,584,383.0,201.0,66,1,2028.699999988079,513339.59999999404,7150,bronze,NF,C,504033,504033,502404,503318,502404,504432,503831,503831,504432,100
97,test,1,con,1,m,Fri May 23 2025 09:53:09 GMT-0500 (Central Daylight Time),517666.2999999821,zinc,1100,I,m,m,None,661,460.0,201.0,116,1,2293.0999999940395,515373.1999999881,7150,zinc,NF,C,506267,506267,504437,505550,504438,506730,506065,506065,506730,101
98,test,1,con,1,m,Fri May 23 2025 09:53:09 GMT-0500 (Central Daylight Time),519865.59999999404,gold,1000,I,m,m,None,671,471.0,200.0,99,1,2195.5,517670.09999999404,7150,gold,NF,C,508448,508448,506734,507747,506734,508930,508248,508248,508930,102
99,test,1,inc,1,m,Fri May 23 2025 09:53:09 GMT-0500 (Central Daylight Time),521899.09999999404,pear,900,I,m,m,None,593,377.0,216.0,110,1,2028.9000000059605,519870.1999999881,7150,iron,NF,C,510582,510582,508934,509847,508935,510963,510365,510365,510963,103
100,test,1,inc,1,z,Fri May 23 2025 09:53:09 GMT-0500 (Central Daylight Time),524114.2999999821,lead,1100,I,z,z,None,578,379.0,199.0,48,1,2211.4000000059605,521902.89999997616,7150,pear,NF,C,512796,512796,510967,512081,510967,513178,512597,512597,513178,104
101,test,1,con,1,z,Fri May 23 2025 09:53:09 GMT-0500 (Central Daylight Time),526162.2999999821,kiwi,900,I,z,z,None,609,409.0,200.0,50,1,2044.2999999821186,524118.0,7150,kiwi,NF,C,514813,514813,513182,514096,513182,515226,514613,514613,515226,105
102,test,1,con,1,m,Fri May 23 2025 09:53:09 GMT-0500 (Central Daylight Time),528264.8999999762,bronze,800,I,m,m,None,767,567.0,200.0,65,1,2099.199999988079,526165.6999999881,7150,bronze,NF,C,516762,516762,515230,516045,515230,517329,516562,516562,517329,106
103,test,1,inc,1,m,Fri May 23 2025 09:53:09 GMT-0500 (Central Daylight Time),530279.0,lime,800,I,m,m,None,672,456.0,216.0,101,1,2009.7000000178814,528269.2999999821,7150,gold,NF,C,518878,518878,517333,518145,517334,519343,518662,518662,519343,107
104,test,1,con,1,z,Fri May 23 2025 09:53:09 GMT-0500 (Central Daylight Time),532560.5,raisin,900,I,z,z,None,845,646.0,199.0,26,1,2277.600000023842,530282.8999999762,7150,raisin,NF,C,520977,520977,519347,520262,519347,521625,520778,520778,521625,108
105,test,1,con,1,z,Fri May 23 2025 09:53:09 GMT-0500 (Central Daylight Time),534712.1999999881,lime,1100,I,z,z,None,516,317.0,199.0,36,1,2146.699999988079,532565.5,7150,lime,NF,C,523459,523459,521630,522744,521630,523776,523260,523260,523776,109
106,test,1,con,1,z,Fri May 23 2025 09:53:09 GMT-0500 (Central Daylight Time),536877.7999999821,orange,1100,I,z,z,None,517,316.0,201.0,20,1,2161.9000000059605,534715.8999999762,7150,orange,NF,C,525610,525610,523780,524892,523780,525942,525408,525408,525942,110
107,test,1,inc,1,z,Fri May 23 2025 09:53:09 GMT-0500 (Central Daylight Time),538726.5,bronze,800,I,z,z,None,508,308.0,200.0,29,1,1844.300000011921,536882.1999999881,7150,raisin,NF,C,527474,527474,525946,526759,525946,527791,527274,527274,527791,111
108,test,1,con,1,z,Fri May 23 2025 09:53:09 GMT-0500 (Central Daylight Time),540576.2999999821,orange,800,I,z,z,None,506,305.0,201.0,17,1,1845.7999999821186,538730.5,7150,orange,NF,C,529326,529326,527795,528608,527795,529640,529124,529124,529640,112
109,test,1,con,1,m,Fri May 23 2025 09:53:09 GMT-0500 (Central Daylight Time),542624.7999999821,cobalt,900,I,m,m,None,621,421.0,200.0,90,1,2044.4000000059605,540580.3999999762,7150,cobalt,NF,C,531258,531258,529644,530557,529645,531689,531058,531058,531689,113
110,test,1,con,1,z,Fri May 23 2025 09:53:09 GMT-0500 (Central Daylight Time),544609.7999999821,lime,800,I,z,z,None,656,457.0,199.0,33,1,1979.5,542630.2999999821,7150,lime,NF,C,533206,533206,531694,532506,531695,533674,533007,533007,533674,114
111,test,1,con,1,z,Fri May 23 2025 09:53:09 GMT-0500 (Central Daylight Time),546674.8999999762,pear,1000,I,z,z,None,531,315.0,216.0,43,1,2058.899999976158,544616.0,7150,pear,NF,C,535422,535422,533680,534689,533680,535739,535206,535206,535739,115
112,test,1,con,1,z,Fri May 23 2025 09:53:09 GMT-0500 (Central Daylight Time),548940.0,plum,1000,I,z,z,None,728,528.0,200.0,59,1,2260.100000023842,546679.8999999762,7150,plum,NF,C,537471,537471,535744,536758,535744,538004,537271,537271,538004,116
113,test,1,inc,1,z,Fri May 23 2025 09:53:09 GMT-0500 (Central Daylight Time),550989.599999994,silver,1000,I,z,z,None,508,294.0,214.0,23,1,2045.5999999940395,548944.0,7150,orange,NF,C,539753,539753,538008,539022,538008,540054,539538,539538,540054,117
114,test,1,inc,1,m,Fri May 23 2025 09:53:09 GMT-0500 (Central Daylight Time),553239.099999994,raisin,1100,I,m,m,None,622,407.0,215.0,96,1,2245.0,550994.099999994,7150,cobalt,NF,C,541888,541888,540058,541171,540058,542303,541672,541672,542303,118
115,test,1,con,1,m,Fri May 23 2025 09:53:09 GMT-0500 (Central Daylight Time),555421.1999999881,lead,800,I,m,m,None,833,634.0,199.0,121,1,2177.300000011921,553243.8999999762,7150,lead,NF,C,543836,543836,542308,543119,542308,544485,543637,543637,544485,119
116,test,1,inc,1,z,Fri May 23 2025 09:53:09 GMT-0500 (Central Daylight Time),557488.0,zinc,1000,I,z,z,None,533,319.0,214.0,39,1,2062.5,555425.5,7150,lime,NF,C,546233,546233,544490,545503,544490,546552,546019,546019,546552,120
117,test,1,con,1,m,Fri May 23 2025 09:53:09 GMT-0500 (Central Daylight Time),559619.2999999821,iron,900,I,m,m,None,694,495.0,199.0,106,1,2126.9000000059605,557492.3999999762,7150,iron,NF,C,548184,548184,546556,547469,546557,548683,547985,547985,548683,121
118,test,1,con,1,z,Fri May 23 2025 09:53:09 GMT-0500 (Central Daylight Time),561702.599999994,banana,1000,I,z,z,None,540,322.0,218.0,3,1,2078.5999999940395,559624.0,7150,banana,NF,C,550436,550437,548688,549701,548688,550767,550218,550218,550767,122
119,test,1,con,1,m,Fri May 23 2025 09:53:09 GMT-0500 (Central Daylight Time),563686.5,silver,900,I,m,m,None,542,342.0,200.0,82,1,1979.4000000059605,561707.099999994,7150,silver,NF,C,552401,552401,550771,551684,550771,552751,552200,552200,552751,123
120,test,1,inc,1,m,Fri May 23 2025 09:53:09 GMT-0500 (Central Daylight Time),565935.099999994,pear,900,I,m,m,None,807,608.0,199.0,126,1,2244.4000000059605,563690.6999999881,7150,lead,NF,C,554383,554383,552755,553666,552755,554999,554183,554183,554999,124
121,test,1,inc,1,m,Fri May 23 2025 09:53:09 GMT-0500 (Central Daylight Time),567935.6999999881,banana,800,I,m,m,None,659,458.0,201.0,85,1,1996.199999988079,565939.5,7150,silver,NF,C,556532,556533,555004,555816,555004,557000,556331,556331,557000,125
122,test,1,inc,1,z,Fri May 23 2025 09:53:09 GMT-0500 (Central Daylight Time),570150.2999999821,silver,1000,I,z,z,None,665,466.0,199.0,31,1,2210.4000000059605,567939.8999999762,7150,raisin,NF,C,558732,558732,557004,558015,557004,559214,558533,558533,559214,126
123,test,1,inc,1,z,Fri May 23 2025 09:53:09 GMT-0500 (Central Daylight Time),572099.2999999821,bronze,800,I,z,z,None,611,396.0,215.0,21,1,1944.0999999940395,570155.1999999881,7150,orange,NF,C,560763,560763,559219,560032,559220,561163,560548,560548,561163,127
124,test,1,inc,1,z,Fri May 23 2025 09:53:09 GMT-0500 (Central Daylight Time),574131.8999999762,silver,1000,I,z,z,None,491,292.0,199.0,15,1,2028.5,572103.3999999762,7150,cherry,NF,C,562898,562898,561167,562182,561168,563196,562698,562698,563196,128
