acc_sum,block_c,block_dur,condition,correct,correct_response,countdown,datetime,endtime,project,response,response_time,response_time_test1_response,response_time_test2_response,row_sel,same,session_number,start_end,starttime,stim1,stim2,subject_id,task,task_vers,time_test1,time_test2,trial
1,1,0.0,prac,1,m,30000.0,Mon Jan 12 2026 15:52:04 GMT-0600 (Central Standard Time),223537.70000004768,O,m,1786,,,1,no,1,3311.899999856949,220225.80000019073,RNV,FNV,7741,LC,B,,,1
2,1,0.0,prac,1,m,30000.0,Mon Jan 12 2026 15:52:04 GMT-0600 (Central Standard Time),228556.80000019073,O,m,3512,,,5,no,1,5015.100000143051,223541.70000004768,LNDPRSKQB,LNDPRSJQB,7741,LC,B,,,2
3,1,0.0,prac,1,z,30000.0,Mon Jan 12 2026 15:52:04 GMT-0600 (Central Standard Time),233935.20000004768,O,z,3857,,,2,yes,1,5372.700000047684,228562.5,NBGFSM,NBGFSM,7741,LC,B,,,3
4,1,0.0,prac,1,m,30000.0,Mon Jan 12 2026 15:52:04 GMT-0600 (Central Standard Time),238233.90000009537,O,m,2761,,,3,no,1,4294.5,233939.40000009537,QHZXPC,QHZWPC,7741,LC,B,,,4
5,1,0.0,prac,1,z,30000.0,Mon Jan 12 2026 15:52:04 GMT-0600 (Central Standard Time),245081.0,O,z,5307,,,6,yes,1,6841.0,238240.0,CSDBFPHXZ,CSDBFPHXZ,7741,LC,B,,,5
6,1,0.0,prac,1,z,30000.0,Mon Jan 12 2026 15:52:04 GMT-0600 (Central Standard Time),247733.20000004768,O,z,1133,,,4,yes,1,2645.7999999523163,245087.40000009537,RSM,RSM,7741,LC,B,,,6
1,1,1.683000087738037,test,1,m,28316.999912261963,Mon Jan 12 2026 15:52:04 GMT-0600 (Central Standard Time),253395.70000004768,O,m,1664,1664,,1,no,1,1679.7000000476837,251716.0,HCF,RCF,7741,LC,B,248951,,1
2,1,4.164999961853027,test,1,m,25835.000038146973,Mon Jan 12 2026 15:52:04 GMT-0600 (Central Standard Time),255878.0,O,m,2474,2474,,2,no,1,2476.7999999523163,253401.20000004768,QTPRJX,QTPNJX,7741,LC,B,250637,,2
3,1,8.944999933242798,test,1,m,21055.000066757202,Mon Jan 12 2026 15:52:04 GMT-0600 (Central Standard Time),260659.5,O,m,4774,4774,,3,no,1,4779.099999904633,255880.40000009537,MZDYGVGKQ,MZDYGLBKQ,7741,LC,B,253116,,3
4,1,10.545000076293945,test,1,m,19454.999923706055,Mon Jan 12 2026 15:52:04 GMT-0600 (Central Standard Time),262259.30000019073,O,m,1590,1590,,4,no,1,1596.8000001907349,260662.5,FQTNMK,JQTNMK,7741,LC,B,257898,,4
5,1,12.26200008392334,test,1,z,17737.99991607666,Mon Jan 12 2026 15:52:04 GMT-0600 (Central Standard Time),263976.0,O,z,1702,1702,,5,yes,1,1714.2999999523163,262261.7000000477,CLJ,CLJ,7741,LC,B,259497,,5
6,1,14.276999950408936,test,1,m,15723.000049591064,Mon Jan 12 2026 15:52:04 GMT-0600 (Central Standard Time),265990.7000000477,O,m,1998,1998,,6,no,1,2010.3999998569489,263980.30000019073,JGDMNSVPW,JGZMNSVPW,7741,LC,B,261217,,6
7,1,19.30900001525879,test,1,z,10690.999984741211,Mon Jan 12 2026 15:52:04 GMT-0600 (Central Standard Time),271023.0,O,z,5026,5026,,7,yes,1,5029.599999904633,265993.40000009537,FPTVHKCBJ,FPTVHKCBJ,7741,LC,B,263229,,7
8,1,21.39199995994568,test,1,m,8608.000040054321,Mon Jan 12 2026 15:52:04 GMT-0600 (Central Standard Time),273106.40000009537,O,m,2076,2076,,8,no,1,2081.0999999046326,271025.30000019073,XRPZBS,ZRPBDH,7741,LC,B,268261,,8
9,1,23.44099998474121,test,1,m,6559.000015258789,Mon Jan 12 2026 15:52:04 GMT-0600 (Central Standard Time),275155.30000019073,O,m,2038,2038,,9,no,1,2045.2000000476837,273110.10000014305,ZSQ,ZSP,7741,LC,B,270345,,9
9,1,25.625,test,0,z,4375.0,Mon Jan 12 2026 15:52:04 GMT-0600 (Central Standard Time),277338.7000000477,O,m,2164,2164,,10,yes,1,2179.7000000476837,275159.0,MPZRXL,MPZRXL,7741,LC,B,272395,,10
10,1,27.42300009727478,test,1,m,2576.9999027252197,Mon Jan 12 2026 15:52:04 GMT-0600 (Central Standard Time),279136.80000019073,O,m,1781,1781,,11,no,1,1794.3000001907349,277342.5,KJH,KRH,7741,LC,B,274578,,11
10,1,30.00600004196167,test,0,z,-6.000041961669922,Mon Jan 12 2026 15:52:04 GMT-0600 (Central Standard Time),281719.60000014305,O,None,2577,2577,,12,yes,1,2578.7000000476837,279140.90000009537,SMNHVTFCB,SMNHVTFCB,7741,LC,B,276377,,12
1,2,4.931999921798706,test,1,z,25068.000078201294,Mon Jan 12 2026 15:52:04 GMT-0600 (Central Standard Time),288467.30000019073,O,z,4921,,4921.0,1,yes,1,9326.400000095367,279140.90000009537,PRDBZTYFN,PRDBZTYFN,7741,LC,B,,280774.0,1
2,2,7.598999977111816,test,1,m,22401.000022888184,Mon Jan 12 2026 15:52:04 GMT-0600 (Central Standard Time),291134.0,O,m,2654,,2654.0,2,no,1,11993.099999904633,279140.90000009537,NCWJDZ,NCMJDZ,7741,LC,B,,285706.0,2
3,2,9.464999914169312,test,1,m,20535.00008583069,Mon Jan 12 2026 15:52:04 GMT-0600 (Central Standard Time),292999.60000014305,O,m,1849,,1849.0,3,no,1,13858.700000047684,279140.90000009537,KHW,KBW,7741,LC,B,,288372.0,3
4,2,12.863999843597412,test,1,m,17136.000156402588,Mon Jan 12 2026 15:52:04 GMT-0600 (Central Standard Time),296399.10000014305,O,m,3394,,3394.0,4,no,1,17258.200000047684,279140.90000009537,ZRBGMF,ZRBCMF,7741,LC,B,,290239.0,4
5,2,14.02999997138977,test,1,m,15970.00002861023,Mon Jan 12 2026 15:52:04 GMT-0600 (Central Standard Time),297565.40000009537,O,m,1163,,1163.0,5,no,1,18424.5,279140.90000009537,BTH,BYH,7741,LC,B,,293637.0,5
6,2,18.3439998626709,test,1,z,11656.000137329102,Mon Jan 12 2026 15:52:04 GMT-0600 (Central Standard Time),301878.60000014305,O,z,4308,,4308.0,6,yes,1,22737.700000047684,279140.90000009537,XWKQRYCNZ,XWKQRYCNZ,7741,LC,B,,294804.0,6
7,2,20.91100001335144,test,1,z,9088.99998664856,Mon Jan 12 2026 15:52:04 GMT-0600 (Central Standard Time),304446.2000000477,O,z,2554,,2554.0,7,yes,1,25305.299999952316,279140.90000009537,HNPDLK,HNPDLK,7741,LC,B,,299117.0,7
8,2,24.76099991798401,test,1,m,5239.000082015991,Mon Jan 12 2026 15:52:04 GMT-0600 (Central Standard Time),308295.90000009537,O,m,3834,,3834.0,8,no,1,29155.0,279140.90000009537,WMQTRSGLZ,WMQTRZGLZ,7741,LC,B,,301685.0,8
9,2,26.626999855041504,test,1,z,3373.000144958496,Mon Jan 12 2026 15:52:04 GMT-0600 (Central Standard Time),310161.80000019073,O,z,1851,,1851.0,9,yes,1,31020.900000095367,279140.90000009537,JPN,JPN,7741,LC,B,,305533.0,9
10,2,28.574999809265137,test,1,m,1425.0001907348633,Mon Jan 12 2026 15:52:04 GMT-0600 (Central Standard Time),312109.90000009537,O,m,1945,,1945.0,10,no,1,32969.0,279140.90000009537,QLXSVT,QLNSVT,7741,LC,B,,307400.0,10
10,2,30.008999824523926,test,0,z,-8.999824523925781,Mon Jan 12 2026 15:52:04 GMT-0600 (Central Standard Time),313543.80000019073,O,None,1431,,1431.0,11,yes,1,34402.90000009537,279140.90000009537,YXHKZVFPB,YXHKZVFPD,7741,LC,B,,309348.0,11
