acc_sum,block,block_c,condition,correct,correct_response,datetime,endtime,flanker,jitter,project,response,response_test_buffer_response,response_test_target_response,response_time,response_time_test_buffer_response,response_time_test_target_response,row_sel,session_number,start_end,starttime,subject_id,target,task,task_vers,time_test_buffer,time_test_buffer_response,time_test_constants,time_test_flanker,time_test_jitter,time_test_logger,time_test_target,time_test_target_response,time_test_variables,trial
1,prac,1,con,1,m,Wed Mar 11 2026 14:34:47 GMT-0500 (Central Daylight Time),115345.89999999106,jacket,800,O,m,,,1046,,,5,1,3139.2999999970198,112206.59999999404,7770,jacket,AF,A,,,,,,,,,,1
2,prac,1,con,1,m,Wed Mar 11 2026 14:34:47 GMT-0500 (Central Daylight Time),117997.89999999106,step,800,O,m,,,535,,,1,1,2642.7999999970198,115355.09999999404,7770,step,AF,A,,,,,,,,,,2
3,prac,1,con,1,z,Wed Mar 11 2026 14:34:47 GMT-0500 (Central Daylight Time),120745.70000000298,love,1000,O,z,,,439,,,11,1,2739.4000000059605,118006.29999999702,7770,love,AF,A,,,,,,,,,,3
4,prac,1,inc,1,z,Wed Mar 11 2026 14:34:47 GMT-0500 (Central Daylight Time),123730.29999999702,napkin,1100,O,z,,,589,,,12,1,2979.7000000029802,120750.59999999404,7770,friend,AF,A,,,,,,,,,,4
5,prac,1,con,1,z,Wed Mar 11 2026 14:34:47 GMT-0500 (Central Daylight Time),126594.5,rage,1000,O,z,,,561,,,15,1,2857.5,123737.0,7770,rage,AF,A,,,,,,,,,,5
6,prac,1,inc,1,m,Wed Mar 11 2026 14:34:47 GMT-0500 (Central Daylight Time),129627.59999999404,brutal,1100,O,m,,,622,,,8,1,3028.0,126599.59999999404,7770,window,AF,A,,,,,,,,,,6
7,prac,1,inc,1,m,Wed Mar 11 2026 14:34:47 GMT-0500 (Central Daylight Time),132409.0,elated,900,O,m,,,581,,,6,1,2775.4000000059605,129633.59999999404,7770,napkin,AF,A,,,,,,,,,,7
8,prac,1,inc,1,z,Wed Mar 11 2026 14:34:47 GMT-0500 (Central Daylight Time),135277.70000000298,film,900,O,z,,,677,,,14,1,2861.5,132416.20000000298,7770,hate,AF,A,,,,,,,,,,8
9,prac,1,con,1,m,Wed Mar 11 2026 14:34:47 GMT-0500 (Central Daylight Time),138056.79999999702,bell,1000,O,m,,,481,,,3,1,2775.0,135281.79999999702,7770,bell,AF,A,,,,,,,,,,9
10,prac,1,inc,1,m,Wed Mar 11 2026 14:34:47 GMT-0500 (Central Daylight Time),141108.79999999702,hate,1100,O,m,,,638,,,4,1,3044.5,138064.29999999702,7770,film,AF,A,,,,,,,,,,10
11,prac,1,con,1,z,Wed Mar 11 2026 14:34:47 GMT-0500 (Central Daylight Time),143689.0,elated,800,O,z,,,467,,,9,1,2575.7000000029802,141113.29999999702,7770,elated,AF,A,,,,,,,,,,11
12,prac,1,inc,1,z,Wed Mar 11 2026 14:34:47 GMT-0500 (Central Daylight Time),146786.39999999106,window,1100,O,z,,,695,,,16,1,3091.699999988079,143694.70000000298,7770,temper,AF,A,,,,,,,,,,12
13,prac,1,con,1,z,Wed Mar 11 2026 14:34:47 GMT-0500 (Central Daylight Time),149453.59999999404,brutal,800,O,z,,,551,,,13,1,2663.0,146790.59999999404,7770,brutal,AF,A,,,,,,,,,,13
14,prac,1,con,1,m,Wed Mar 11 2026 14:34:47 GMT-0500 (Central Daylight Time),152104.29999999702,remote,1000,O,m,,,335,,,7,1,2644.0999999940395,149460.20000000298,7770,remote,AF,A,,,,,,,,,,14
15,prac,1,inc,1,m,Wed Mar 11 2026 14:34:47 GMT-0500 (Central Daylight Time),154868.5,kind,900,O,m,,,551,,,2,1,2760.0,152108.5,7770,rock,AF,A,,,,,,,,,,15
16,prac,1,inc,1,z,Wed Mar 11 2026 14:34:47 GMT-0500 (Central Daylight Time),157670.29999999702,rock,900,O,z,,,586,,,10,1,2795.2999999970198,154875.0,7770,kind,AF,A,,,,,,,,,,16
1,test,1,inc,1,z,Wed Mar 11 2026 14:34:47 GMT-0500 (Central Daylight Time),167714.29999999702,film,1100,O,z,z,None,622,423.0,199.0,48,1,2259.0,165455.29999999702,7770,hate,AF,A,165343,165344,163517,164628,163518,165776,165144,165144,165776,1
2,test,1,inc,1,z,Wed Mar 11 2026 14:34:47 GMT-0500 (Central Daylight Time),169547.29999999702,step,800,O,z,z,None,499,300.0,199.0,21,1,1827.5,167719.79999999702,7770,love,AF,A,167309,167309,165782,166594,165782,167609,167110,167110,167609,2
3,test,1,con,1,m,Wed Mar 11 2026 14:34:47 GMT-0500 (Central Daylight Time),171762.89999999106,rock,1100,O,m,m,None,573,372.0,201.0,76,1,2208.5,169554.39999999106,7770,rock,AF,A,169442,169443,167616,168726,167617,169825,169241,169241,169825,3
4,test,1,con,1,z,Wed Mar 11 2026 14:34:47 GMT-0500 (Central Daylight Time),173714.09999999404,rage,1000,O,z,z,None,416,217.0,199.0,51,1,1946.0,171768.09999999404,7770,rage,AF,A,171559,171559,169830,170842,169830,171776,171359,171359,171776,4
5,test,1,con,1,z,Wed Mar 11 2026 14:34:47 GMT-0500 (Central Daylight Time),175828.39999999106,brutal,1100,O,z,z,None,469,254.0,215.0,36,1,2109.0,173719.39999999106,7770,brutal,AF,A,173625,173625,171781,172891,171782,173891,173409,173409,173890,5
6,test,1,con,1,z,Wed Mar 11 2026 14:34:47 GMT-0500 (Central Daylight Time),177745.70000000298,love,1000,O,z,z,None,367,168.0,199.0,19,1,1911.7000000029802,175834.0,7770,love,AF,A,175624,175624,173896,174908,173896,175808,175425,175425,175808,6
7,test,1,con,1,m,Wed Mar 11 2026 14:34:47 GMT-0500 (Central Daylight Time),179494.70000000298,step,800,O,m,m,None,411,196.0,215.0,65,1,1742.800000011921,177751.89999999106,7770,step,AF,A,177356,177356,175814,176625,175814,177557,177141,177141,177557,7
8,test,1,inc,1,z,Wed Mar 11 2026 14:34:47 GMT-0500 (Central Daylight Time),181409.79999999702,jacket,800,O,z,z,None,580,366.0,214.0,61,1,1911.0999999940395,179498.70000000298,7770,temper,AF,A,179089,179089,177561,178372,177561,179472,178875,178875,179472,8
9,test,1,inc,1,z,Wed Mar 11 2026 14:34:47 GMT-0500 (Central Daylight Time),183458.79999999702,bell,1000,O,z,z,None,512,313.0,199.0,23,1,2040.5999999940395,181418.20000000298,7770,love,AF,A,181206,181206,179480,180492,179480,181521,181006,181006,181521,9
10,test,1,con,1,z,Wed Mar 11 2026 14:34:47 GMT-0500 (Central Daylight Time),185159.70000000298,hate,800,O,z,z,None,362,161.0,201.0,41,1,1694.1000000089407,183465.59999999404,7770,hate,AF,A,183055,183055,181528,182338,181528,183222,182854,182854,183222,10
11,test,1,inc,1,z,Wed Mar 11 2026 14:34:47 GMT-0500 (Central Daylight Time),187108.09999999404,remote,1000,O,z,z,None,400,200.0,200.0,7,1,1943.7999999970198,185164.29999999702,7770,elated,AF,A,184954,184954,183226,184239,183227,185170,184754,184754,185170,11
12,test,1,inc,1,m,Wed Mar 11 2026 14:34:47 GMT-0500 (Central Daylight Time),189308.29999999702,friend,1100,O,m,m,None,566,366.0,200.0,128,1,2194.2000000029802,187114.09999999404,7770,window,AF,A,187004,187004,185176,186287,185176,187370,186804,186804,187370,12
13,test,1,con,1,m,Wed Mar 11 2026 14:34:47 GMT-0500 (Central Daylight Time),191073.89999999106,bell,800,O,m,m,None,423,208.0,215.0,81,1,1760.0999999940395,189313.79999999702,7770,bell,AF,A,188920,188920,187376,188188,187376,189136,188704,188704,189136,13
14,test,1,inc,1,z,Wed Mar 11 2026 14:34:47 GMT-0500 (Central Daylight Time),193022.39999999106,rock,900,O,z,z,None,510,309.0,201.0,54,1,1944.199999988079,191078.20000000298,7770,rage,AF,A,190770,190770,189140,190053,189141,191084,190569,190569,191084,14
15,test,1,con,1,m,Wed Mar 11 2026 14:34:47 GMT-0500 (Central Daylight Time),194872.39999999106,rock,800,O,m,m,None,508,309.0,199.0,73,1,1846.3999999910593,193026.0,7770,rock,AF,A,192618,192618,191088,191904,191088,192935,192419,192419,192934,15
16,test,1,inc,1,m,Wed Mar 11 2026 14:34:47 GMT-0500 (Central Daylight Time),196672.0,elated,800,O,m,m,None,449,235.0,214.0,117,1,1796.4000000059605,194875.59999999404,7770,remote,AF,A,194484,194484,192938,193753,192938,194734,194269,194269,194734,16
17,test,1,inc,1,z,Wed Mar 11 2026 14:34:47 GMT-0500 (Central Daylight Time),198572.70000000298,rock,900,O,z,z,None,466,267.0,199.0,14,1,1896.300000011921,196676.39999999106,7770,kind,AF,A,196367,196367,194738,195653,194739,196635,196168,196168,196635,17
18,test,1,con,1,m,Wed Mar 11 2026 14:34:47 GMT-0500 (Central Daylight Time),200403.0,napkin,800,O,m,m,None,494,295.0,199.0,105,1,1825.5,198577.5,7770,napkin,AF,A,198168,198168,196640,197450,196640,198465,197968,197968,198465,18
19,test,1,con,1,z,Wed Mar 11 2026 14:34:47 GMT-0500 (Central Daylight Time),202403.79999999702,temper,1100,O,z,z,None,364,164.0,200.0,60,1,1997.4000000059605,200406.39999999106,7770,temper,AF,A,200301,200301,198468,199583,198469,200466,200100,200100,200466,19
20,test,1,con,1,z,Wed Mar 11 2026 14:34:47 GMT-0500 (Central Daylight Time),204452.0,love,1100,O,z,z,None,403,187.0,216.0,20,1,2043.9000000059605,202408.09999999404,7770,love,AF,A,202316,202316,200470,201582,200470,202514,202099,202099,202514,20
21,test,1,inc,1,z,Wed Mar 11 2026 14:34:47 GMT-0500 (Central Daylight Time),206535.20000000298,window,1100,O,z,z,None,443,243.0,200.0,8,1,2080.0,204455.20000000298,7770,elated,AF,A,204348,204348,202517,203634,202518,204597,204148,204148,204597,21
22,test,1,con,1,m,Wed Mar 11 2026 14:34:47 GMT-0500 (Central Daylight Time),208318.39999999106,jacket,800,O,m,m,None,435,220.0,215.0,97,1,1778.8999999910593,206539.5,7770,jacket,AF,A,206148,206148,204602,205414,204602,206380,205932,205932,206380,22
23,test,1,con,1,m,Wed Mar 11 2026 14:34:47 GMT-0500 (Central Daylight Time),210233.59999999404,window,900,O,m,m,None,473,273.0,200.0,122,1,1910.7000000029802,208322.89999999106,7770,window,AF,A,208014,208014,206385,207298,206385,208296,207813,207814,208296,23
24,test,1,inc,1,m,Wed Mar 11 2026 14:34:47 GMT-0500 (Central Daylight Time),212099.59999999404,rage,800,O,m,m,None,529,330.0,199.0,77,1,1860.7000000029802,210238.89999999106,7770,rock,AF,A,209829,209829,208301,209113,208301,210162,209630,209630,210162,24
25,test,1,inc,1,z,Wed Mar 11 2026 14:34:47 GMT-0500 (Central Daylight Time),214267.5,window,1100,O,z,z,None,522,323.0,199.0,40,1,2163.9000000059605,212103.59999999404,7770,brutal,AF,A,211995,211996,210166,211280,210166,212330,211796,211796,212330,25
25,test,1,con,0,m,Wed Mar 11 2026 14:34:47 GMT-0500 (Central Daylight Time),216317.09999999404,film,1000,O,z,z,None,505,305.0,200.0,91,1,2046.0999999940395,214271.0,7770,film,AF,A,214062,214062,212333,213346,212333,214379,213862,213862,214379,26
26,test,1,inc,1,z,Wed Mar 11 2026 14:34:47 GMT-0500 (Central Daylight Time),218466.79999999702,film,1100,O,z,z,None,517,318.0,199.0,24,1,2145.0,216321.79999999702,7770,love,AF,A,216211,216211,214384,215495,214384,216529,216011,216011,216529,27
27,test,1,inc,1,m,Wed Mar 11 2026 14:34:47 GMT-0500 (Central Daylight Time),220447.89999999106,kind,900,O,m,m,None,543,342.0,201.0,94,1,1977.5,218470.39999999106,7770,film,AF,A,218161,218161,216532,217447,216533,218510,217959,217959,218510,28
28,test,1,inc,1,z,Wed Mar 11 2026 14:34:47 GMT-0500 (Central Daylight Time),222446.70000000298,rock,900,O,z,z,None,568,368.0,200.0,22,1,1995.6000000089407,220451.09999999404,7770,love,AF,A,220127,220127,218513,219426,218513,220509,219927,219927,220509,29
29,test,1,inc,1,z,Wed Mar 11 2026 14:34:47 GMT-0500 (Central Daylight Time),224645.79999999702,film,1100,O,z,z,None,550,351.0,199.0,16,1,2195.2000000029802,222450.59999999404,7770,kind,AF,A,222343,222343,220513,221626,220513,222708,222143,222143,222708,30
30,test,1,con,1,m,Wed Mar 11 2026 14:34:47 GMT-0500 (Central Daylight Time),226529.20000000298,jacket,900,O,m,m,None,441,241.0,200.0,98,1,1878.5,224650.70000000298,7770,jacket,AF,A,224343,224343,222713,223625,222713,224591,224142,224142,224591,31
31,test,1,con,1,m,Wed Mar 11 2026 14:34:47 GMT-0500 (Central Daylight Time),228363.5,remote,800,O,m,m,None,516,301.0,215.0,113,1,1830.4000000059605,226533.09999999404,7770,remote,AF,A,226124,226124,224595,225407,224595,226426,225908,225908,226425,32
32,test,1,con,1,z,Wed Mar 11 2026 14:34:47 GMT-0500 (Central Daylight Time),230444.89999999106,rage,1100,O,z,z,None,448,248.0,200.0,52,1,2075.8999999910593,228369.0,7770,rage,AF,A,228258,228258,226431,227541,226431,228507,228058,228058,228507,33
33,test,1,con,1,m,Wed Mar 11 2026 14:34:47 GMT-0500 (Central Daylight Time),232394.70000000298,step,900,O,m,m,None,517,318.0,199.0,66,1,1945.2000000029802,230449.5,7770,step,AF,A,230139,230139,228512,229424,228512,230457,229940,229940,230457,34
33,test,1,con,0,m,Wed Mar 11 2026 14:34:47 GMT-0500 (Central Daylight Time),234528.09999999404,rock,900,O,z,z,None,695,494.0,201.0,74,1,2129.0999999940395,232399.0,7770,rock,AF,A,232090,232090,230461,231374,230461,232590,231889,231889,232590,35
34,test,1,con,1,m,Wed Mar 11 2026 14:34:47 GMT-0500 (Central Daylight Time),236459.79999999702,remote,900,O,m,m,None,497,298.0,199.0,114,1,1928.5999999940395,234531.20000000298,7770,remote,AF,A,234223,234223,232593,233506,232594,234522,234023,234023,234522,36
35,test,1,con,1,m,Wed Mar 11 2026 14:34:47 GMT-0500 (Central Daylight Time),238558.79999999702,window,1100,O,m,m,None,461,259.0,202.0,124,1,2095.4000000059605,236463.39999999106,7770,window,AF,A,236356,236356,234525,235638,234526,236621,236153,236154,236621,37
36,test,1,inc,1,z,Wed Mar 11 2026 14:34:47 GMT-0500 (Central Daylight Time),240679.79999999702,napkin,900,O,z,z,None,671,472.0,199.0,62,1,2117.0999999940395,238562.70000000298,7770,temper,AF,A,238255,238255,236625,237538,236625,238742,238055,238055,238742,38
37,test,1,con,1,m,Wed Mar 11 2026 14:34:47 GMT-0500 (Central Daylight Time),243107.0,window,1000,O,m,m,None,889,689.0,200.0,123,1,2424.4000000059605,240682.59999999404,7770,window,AF,A,240470,240470,238745,239754,238745,241169,240270,240270,241169,39
38,test,1,con,1,z,Wed Mar 11 2026 14:34:47 GMT-0500 (Central Daylight Time),244839.29999999702,rage,800,O,z,z,None,383,168.0,215.0,49,1,1728.7000000029802,243110.59999999404,7770,rage,AF,A,242718,242718,241173,241985,241173,242901,242503,242503,242901,40
39,test,1,inc,1,z,Wed Mar 11 2026 14:34:47 GMT-0500 (Central Daylight Time),246906.09999999404,bell,1000,O,z,z,None,537,324.0,213.0,15,1,2064.2000000029802,244841.89999999106,7770,kind,AF,A,244635,244635,242904,243919,242904,244968,244421,244421,244968,41
40,test,1,inc,1,m,Wed Mar 11 2026 14:34:47 GMT-0500 (Central Daylight Time),248788.5,rage,800,O,m,m,None,544,329.0,215.0,93,1,1878.2000000029802,246910.29999999702,7770,film,AF,A,246518,246518,244972,245785,244973,246851,246302,246302,246851,42
41,test,1,con,1,z,Wed Mar 11 2026 14:34:47 GMT-0500 (Central Daylight Time),250687.79999999702,rage,900,O,z,z,None,451,244.0,207.0,50,1,1894.9000000059605,248792.89999999106,7770,rage,AF,A,248491,248491,246855,247768,246855,248750,248284,248284,248750,43
42,test,1,inc,1,m,Wed Mar 11 2026 14:34:47 GMT-0500 (Central Daylight Time),252837.0,friend,1100,O,m,m,None,511,296.0,215.0,112,1,2140.2000000029802,250696.79999999702,7770,napkin,AF,A,250599,250599,248759,249867,248759,250899,250384,250384,250899,44
43,test,1,inc,1,m,Wed Mar 11 2026 14:34:47 GMT-0500 (Central Daylight Time),254686.29999999702,elated,800,O,m,m,None,510,310.0,200.0,125,1,1843.5,252842.79999999702,7770,window,AF,A,252432,252433,250905,251716,250905,252748,252232,252232,252748,45
44,test,1,inc,1,z,Wed Mar 11 2026 14:34:47 GMT-0500 (Central Daylight Time),256754.70000000298,remote,1000,O,z,z,None,535,334.0,201.0,39,1,2060.5,254694.20000000298,7770,brutal,AF,A,254482,254482,252756,253766,252756,254817,254281,254281,254817,46
45,test,1,con,1,z,Wed Mar 11 2026 14:34:47 GMT-0500 (Central Daylight Time),258619.20000000298,kind,800,O,z,z,None,539,340.0,199.0,9,1,1859.1000000089407,256760.09999999404,7770,kind,AF,A,256331,256331,254822,255631,254822,256681,256132,256132,256681,47
46,test,1,con,1,z,Wed Mar 11 2026 14:34:47 GMT-0500 (Central Daylight Time),260503.29999999702,kind,900,O,z,z,None,445,245.0,200.0,10,1,1876.7999999970198,258626.5,7770,kind,AF,A,258314,258314,256689,257598,256689,258565,258113,258113,258565,48
47,test,1,inc,1,m,Wed Mar 11 2026 14:34:47 GMT-0500 (Central Daylight Time),262601.200000003,friend,1100,O,m,m,None,466,252.0,214.0,104,1,2090.0,260511.20000000298,7770,jacket,AF,A,260395,260395,258573,259679,258574,260663,260181,260181,260663,49
48,test,1,con,1,m,Wed Mar 11 2026 14:34:47 GMT-0500 (Central Daylight Time),264665.700000003,napkin,1100,O,m,m,None,445,232.0,213.0,108,1,2055.800000011921,262609.89999999106,7770,napkin,AF,A,262496,262496,260672,261779,260672,262728,262283,262283,262728,50
49,test,1,inc,1,m,Wed Mar 11 2026 14:34:47 GMT-0500 (Central Daylight Time),266715.799999997,temper,1000,O,m,m,None,515,316.0,199.0,127,1,2045.5,264670.299999997,7770,window,AF,A,264445,264445,262732,263745,262733,264778,264246,264246,264778,51
50,test,1,con,1,z,Wed Mar 11 2026 14:34:47 GMT-0500 (Central Daylight Time),268432.39999999106,brutal,800,O,z,z,None,392,193.0,199.0,33,1,1710.0,266722.39999999106,7770,brutal,AF,A,266295,266295,264784,265594,264785,266494,266095,266095,266494,52
51,test,1,inc,1,z,Wed Mar 11 2026 14:34:47 GMT-0500 (Central Daylight Time),270298.799999997,step,800,O,z,z,None,548,345.0,203.0,53,1,1860.2999999970198,268438.5,7770,rage,AF,A,268013,268014,266501,267309,266501,268361,267810,267810,268361,53
52,test,1,con,1,z,Wed Mar 11 2026 14:34:47 GMT-0500 (Central Daylight Time),272147.09999999404,love,900,O,z,z,None,405,205.0,200.0,18,1,1843.3999999910593,270303.700000003,7770,love,AF,A,269993,269993,268366,269278,268366,270209,269793,269793,270209,54
53,test,1,inc,1,m,Wed Mar 11 2026 14:34:47 GMT-0500 (Central Daylight Time),274214.700000003,temper,1000,O,m,m,None,520,319.0,201.0,111,1,2064.2000000029802,272150.5,7770,napkin,AF,A,271945,271945,270213,271226,270213,272277,271743,271743,272277,55
54,test,1,inc,1,m,Wed Mar 11 2026 14:34:47 GMT-0500 (Central Daylight Time),276329.39999999106,hate,1100,O,m,m,None,473,274.0,199.0,96,1,2109.2999999970198,274220.09999999404,7770,film,AF,A,274109,274109,272282,273392,272282,274391,273909,273909,274391,56
55,test,1,con,1,m,Wed Mar 11 2026 14:34:47 GMT-0500 (Central Daylight Time),278296.09999999404,napkin,1000,O,m,m,None,426,210.0,216.0,107,1,1960.7999999970198,276335.299999997,7770,napkin,AF,A,276141,276141,274397,275409,274398,276358,275925,275925,276358,57
56,test,1,con,1,z,Wed Mar 11 2026 14:34:47 GMT-0500 (Central Daylight Time),280061.299999997,friend,800,O,z,z,None,429,229.0,200.0,25,1,1754.7000000029802,278306.59999999404,7770,friend,AF,A,277891,277891,276369,277175,276369,278123,277691,277691,278123,58
57,test,1,inc,1,z,Wed Mar 11 2026 14:34:47 GMT-0500 (Central Daylight Time),282093.799999997,bell,1000,O,z,z,None,508,292.0,216.0,47,1,2026.4000000059605,280067.39999999106,7770,hate,AF,A,279859,279859,278129,279140,278130,280156,279642,279642,280156,59
58,test,1,inc,1,m,Wed Mar 11 2026 14:34:47 GMT-0500 (Central Daylight Time),284178.700000003,hate,1100,O,m,m,None,449,249.0,200.0,72,1,2079.7000000029802,282099.0,7770,step,AF,A,281990,281991,280161,281273,280161,282241,281790,281790,282241,60
59,test,1,inc,1,m,Wed Mar 11 2026 14:34:47 GMT-0500 (Central Daylight Time),285961.0,elated,800,O,m,m,None,466,267.0,199.0,101,1,1776.6000000089407,284184.39999999106,7770,jacket,AF,A,283756,283756,282246,283055,282247,284023,283557,283557,284023,61
60,test,1,con,1,z,Wed Mar 11 2026 14:34:47 GMT-0500 (Central Daylight Time),287847.799999997,kind,1000,O,z,z,None,337,132.0,205.0,11,1,1883.5,285964.299999997,7770,kind,AF,A,285762,285762,284026,285039,284027,285910,285556,285556,285910,62
61,test,1,con,1,m,Wed Mar 11 2026 14:34:47 GMT-0500 (Central Daylight Time),289592.39999999106,window,800,O,m,m,None,399,199.0,200.0,121,1,1742.0,287850.39999999106,7770,window,AF,A,287440,287440,285912,286722,285913,287655,287239,287239,287654,63
62,test,1,con,1,z,Wed Mar 11 2026 14:34:47 GMT-0500 (Central Daylight Time),291391.799999997,hate,900,O,z,z,None,359,143.0,216.0,42,1,1794.4000000059605,289597.39999999106,7770,hate,AF,A,289305,289305,287659,288572,287660,289454,289088,289088,289454,64
63,test,1,inc,1,z,Wed Mar 11 2026 14:34:47 GMT-0500 (Central Daylight Time),293408.59999999404,bell,1000,O,z,z,None,468,269.0,199.0,55,1,2011.5999999940395,291397.0,7770,rage,AF,A,291186,291186,289459,290471,289459,291471,290987,290987,291471,65
64,test,1,con,1,m,Wed Mar 11 2026 14:34:47 GMT-0500 (Central Daylight Time),295357.700000003,rock,1000,O,m,m,None,405,205.0,200.0,75,1,1944.1000000089407,293413.59999999404,7770,rock,AF,A,293203,293203,291476,292489,291476,293420,293003,293003,293420,66
65,test,1,con,1,z,Wed Mar 11 2026 14:34:47 GMT-0500 (Central Daylight Time),297189.0,friend,900,O,z,z,None,410,211.0,199.0,26,1,1827.1000000089407,295361.89999999106,7770,friend,AF,A,295036,295036,293424,294335,293424,295251,294836,294836,295251,67
66,test,1,inc,1,m,Wed Mar 11 2026 14:34:47 GMT-0500 (Central Daylight Time),299221.09999999404,temper,1000,O,m,m,None,502,301.0,201.0,119,1,2028.7000000029802,297192.39999999106,7770,remote,AF,A,296969,296969,295254,296267,295255,297283,296768,296768,297283,68
67,test,1,inc,1,z,Wed Mar 11 2026 14:34:47 GMT-0500 (Central Daylight Time),301056.700000003,step,800,O,z,z,None,492,277.0,215.0,45,1,1832.7000000029802,299224.0,7770,hate,AF,A,298835,298835,297286,298101,297286,299119,298619,298619,299119,69
68,test,1,con,1,z,Wed Mar 11 2026 14:34:47 GMT-0500 (Central Daylight Time),303056.299999997,brutal,900,O,z,z,None,562,362.0,200.0,34,1,1995.5,301060.799999997,7770,brutal,AF,A,300750,300750,299123,300034,299123,301119,300550,300550,301118,70
69,test,1,con,1,m,Wed Mar 11 2026 14:34:47 GMT-0500 (Central Daylight Time),305121.89999999106,film,1100,O,m,m,None,427,228.0,199.0,92,1,2060.2999999970198,303061.59999999404,7770,film,AF,A,302948,302948,301124,302234,301124,303184,302749,302749,303184,71
70,test,1,inc,1,m,Wed Mar 11 2026 14:34:47 GMT-0500 (Central Daylight Time),307204.0,love,1000,O,m,m,None,536,321.0,215.0,79,1,2077.4000000059605,305126.59999999404,7770,rock,AF,A,304934,304934,303189,304199,303189,305266,304718,304718,305266,72
71,test,1,inc,1,m,Wed Mar 11 2026 14:34:47 GMT-0500 (Central Daylight Time),309268.89999999106,kind,900,O,m,m,None,619,420.0,199.0,86,1,2060.699999988079,307208.200000003,7770,bell,AF,A,306898,306898,305270,306183,305270,307331,306699,306699,307331,73
72,test,1,inc,1,m,Wed Mar 11 2026 14:34:47 GMT-0500 (Central Daylight Time),311258.39999999106,brutal,900,O,m,m,None,538,338.0,200.0,110,1,1986.199999988079,309272.200000003,7770,napkin,AF,A,308965,308965,307334,308249,307335,309321,308765,308765,309320,74
73,test,1,inc,1,m,Wed Mar 11 2026 14:34:47 GMT-0500 (Central Daylight Time),313318.0,love,1000,O,m,m,None,520,318.0,202.0,95,1,2052.7000000029802,311265.299999997,7770,film,AF,A,311049,311049,309327,310330,309328,311380,310847,310847,311380,75
74,test,1,con,1,z,Wed Mar 11 2026 14:34:47 GMT-0500 (Central Daylight Time),315552.0,friend,1000,O,z,z,None,702,501.0,201.0,27,1,2230.1000000089407,313321.89999999106,7770,friend,AF,A,313098,313098,311384,312396,311384,313614,312897,312897,313614,76
75,test,1,con,1,z,Wed Mar 11 2026 14:34:47 GMT-0500 (Central Daylight Time),317566.700000003,elated,1000,O,z,z,None,468,269.0,199.0,3,1,2010.6000000089407,315556.09999999404,7770,elated,AF,A,315346,315346,313618,314630,313618,315629,315146,315146,315629,77
76,test,1,inc,1,m,Wed Mar 11 2026 14:34:47 GMT-0500 (Central Daylight Time),319418.299999997,elated,800,O,m,m,None,502,302.0,200.0,109,1,1846.2000000029802,317572.09999999404,7770,napkin,AF,A,317162,317162,315634,316446,315634,317480,316962,316962,317480,78
77,test,1,inc,1,m,Wed Mar 11 2026 14:34:47 GMT-0500 (Central Daylight Time),321332.39999999106,brutal,900,O,m,m,None,478,278.0,200.0,102,1,1908.2999999970198,319424.09999999404,7770,jacket,AF,A,319113,319113,317486,318396,317486,319394,318913,318913,319394,79
78,test,1,con,1,z,Wed Mar 11 2026 14:34:47 GMT-0500 (Central Daylight Time),323281.59999999404,brutal,1000,O,z,z,None,416,215.0,201.0,35,1,1943.7999999970198,321337.799999997,7770,brutal,AF,A,321128,321128,319400,320411,319400,321344,320927,320927,321344,80
79,test,1,con,1,m,Wed Mar 11 2026 14:34:47 GMT-0500 (Central Daylight Time),325298.09999999404,step,1100,O,m,m,None,389,189.0,200.0,68,1,2012.3999999910593,323285.700000003,7770,step,AF,A,323161,323161,321348,322459,321348,323360,322961,322961,323360,81
80,test,1,con,1,z,Wed Mar 11 2026 14:34:47 GMT-0500 (Central Daylight Time),327380.09999999404,kind,1100,O,z,z,None,438,239.0,199.0,12,1,2079.2000000029802,325300.89999999106,7770,kind,AF,A,325193,325193,323363,324478,323363,325442,324994,324994,325442,82
81,test,1,con,1,m,Wed Mar 11 2026 14:34:47 GMT-0500 (Central Daylight Time),329246.700000003,napkin,900,O,m,m,None,419,217.0,202.0,106,1,1863.300000011921,327383.39999999106,7770,napkin,AF,A,327077,327078,325445,326360,325446,327309,326875,326875,327309,83
82,test,1,inc,1,z,Wed Mar 11 2026 14:34:47 GMT-0500 (Central Daylight Time),331346.09999999404,film,1100,O,z,z,None,457,257.0,200.0,56,1,2095.3999999910593,329250.700000003,7770,rage,AF,A,329142,329142,327313,328426,327313,329408,328942,328942,329408,84
83,test,1,con,1,m,Wed Mar 11 2026 14:34:47 GMT-0500 (Central Daylight Time),333345.59999999404,bell,1000,O,m,m,None,449,250.0,199.0,83,1,1996.2999999970198,331349.299999997,7770,bell,AF,A,331141,331141,329411,330425,329412,331408,330942,330942,331408,85
84,test,1,con,1,m,Wed Mar 11 2026 14:34:47 GMT-0500 (Central Daylight Time),335395.59999999404,jacket,1100,O,m,m,None,415,216.0,199.0,100,1,2043.8999999910593,333351.700000003,7770,jacket,AF,A,333241,333241,331414,332523,331414,333458,333041,333041,333458,86
85,test,1,con,1,z,Wed Mar 11 2026 14:34:47 GMT-0500 (Central Daylight Time),337578.200000003,hate,1100,O,z,z,None,543,342.0,201.0,44,1,2177.7000000029802,335400.5,7770,hate,AF,A,335290,335290,333463,334573,333463,335640,335089,335089,335640,87
86,test,1,con,1,z,Wed Mar 11 2026 14:34:47 GMT-0500 (Central Daylight Time),339742.700000003,elated,1100,O,z,z,None,525,326.0,199.0,4,1,2159.4000000059605,337583.299999997,7770,elated,AF,A,337473,337473,335645,336757,335646,337805,337274,337274,337805,88
87,test,1,inc,1,m,Wed Mar 11 2026 14:34:47 GMT-0500 (Central Daylight Time),341626.89999999106,kind,900,O,m,m,None,451,251.0,200.0,78,1,1879.5999999940395,339747.299999997,7770,rock,AF,A,339438,339438,337809,338723,337810,339689,339238,339238,339689,89
88,test,1,con,1,m,Wed Mar 11 2026 14:34:47 GMT-0500 (Central Daylight Time),343458.39999999106,film,800,O,m,m,None,490,290.0,200.0,89,1,1825.199999988079,341633.200000003,7770,film,AF,A,341221,341221,339695,340506,339696,341520,341021,341021,341520,90
89,test,1,inc,1,z,Wed Mar 11 2026 14:34:47 GMT-0500 (Central Daylight Time),345508.39999999106,napkin,900,O,z,z,None,599,399.0,200.0,30,1,2045.5999999940395,343462.799999997,7770,friend,AF,A,343155,343155,341525,342437,341525,343571,342954,342954,343570,91
90,test,1,con,1,z,Wed Mar 11 2026 14:34:47 GMT-0500 (Central Daylight Time),347407.299999997,elated,900,O,z,z,None,451,252.0,199.0,2,1,1894.5,345512.799999997,7770,elated,AF,A,345203,345203,343575,344487,343575,345469,345004,345004,345469,92
91,test,1,inc,1,z,Wed Mar 11 2026 14:34:47 GMT-0500 (Central Daylight Time),349556.200000003,remote,1000,O,z,z,None,600,400.0,200.0,63,1,2144.2000000029802,347412.0,7770,temper,AF,A,347202,347202,345474,346487,345474,347618,347002,347002,347618,93
92,test,1,con,1,m,Wed Mar 11 2026 14:34:47 GMT-0500 (Central Daylight Time),351588.59999999404,remote,1000,O,m,m,None,496,294.0,202.0,115,1,2028.5,349560.09999999404,7770,remote,AF,A,349353,349353,347622,348635,347622,349651,349151,349151,349651,94
93,test,1,con,1,z,Wed Mar 11 2026 14:34:47 GMT-0500 (Central Daylight Time),353555.5,hate,1000,O,z,z,None,422,221.0,201.0,43,1,1964.2000000029802,351591.299999997,7770,hate,AF,A,351386,351386,349653,350669,349653,351618,351184,351184,351618,95
94,test,1,inc,1,z,Wed Mar 11 2026 14:34:47 GMT-0500 (Central Daylight Time),355488.39999999106,napkin,900,O,z,z,None,491,275.0,216.0,38,1,1927.5,353560.89999999106,7770,brutal,AF,A,353268,353268,351623,352535,351623,353550,353051,353051,353550,96
95,test,1,con,1,m,Wed Mar 11 2026 14:34:47 GMT-0500 (Central Daylight Time),357471.799999997,film,900,O,m,m,None,535,334.0,201.0,90,1,1979.0,355492.799999997,7770,film,AF,A,355185,355185,353555,354467,353555,355534,354983,354983,355534,97
96,test,1,inc,1,m,Wed Mar 11 2026 14:34:47 GMT-0500 (Central Daylight Time),359386.89999999106,brutal,900,O,m,m,None,474,273.0,201.0,118,1,1910.8999999910593,357476.0,7770,remote,AF,A,357166,357166,355538,356450,355538,357449,356965,356965,357449,98
97,test,1,inc,1,m,Wed Mar 11 2026 14:34:47 GMT-0500 (Central Daylight Time),361469.09999999404,kind,900,O,m,m,None,637,436.0,201.0,70,1,2079.0999999940395,359390.0,7770,step,AF,A,359083,359083,357452,358366,357452,359531,358882,358882,359531,99
98,test,1,con,1,z,Wed Mar 11 2026 14:34:47 GMT-0500 (Central Daylight Time),363318.0,elated,800,O,z,z,None,500,300.0,200.0,1,1,1844.6000000089407,361473.39999999106,7770,elated,AF,A,361066,361066,359535,360348,359536,361380,360865,360865,361380,100
99,test,1,con,1,m,Wed Mar 11 2026 14:34:47 GMT-0500 (Central Daylight Time),365300.700000003,jacket,1000,O,m,m,None,437,235.0,202.0,99,1,1979.7000000029802,363321.0,7770,jacket,AF,A,363116,363116,361383,362398,361383,363363,362913,362913,363363,101
100,test,1,con,1,z,Wed Mar 11 2026 14:34:47 GMT-0500 (Central Daylight Time),367052.59999999404,love,800,O,z,z,None,415,216.0,199.0,17,1,1748.7000000029802,365303.89999999106,7770,love,AF,A,364898,364898,363366,364181,363366,365115,364698,364698,365115,102
101,test,1,con,1,z,Wed Mar 11 2026 14:34:47 GMT-0500 (Central Daylight Time),369083.59999999404,friend,1100,O,z,z,None,397,182.0,215.0,28,1,2025.7999999970198,367057.799999997,7770,friend,AF,A,366963,366963,365120,366230,365120,367146,366748,366748,367146,103
102,test,1,inc,1,z,Wed Mar 11 2026 14:34:47 GMT-0500 (Central Daylight Time),370966.89999999106,jacket,800,O,z,z,None,536,335.0,201.0,5,1,1880.3999999910593,369086.5,7770,elated,AF,A,368680,368680,367149,367963,367149,369029,368479,368479,369029,104
103,test,1,con,1,m,Wed Mar 11 2026 14:34:47 GMT-0500 (Central Daylight Time),372884.09999999404,bell,900,O,m,m,None,479,266.0,213.0,82,1,1912.2000000029802,370971.89999999106,7770,bell,AF,A,370679,370679,369034,369946,369034,370946,370465,370465,370946,105
104,test,1,inc,1,z,Wed Mar 11 2026 14:34:47 GMT-0500 (Central Daylight Time),374766.200000003,jacket,800,O,z,z,None,546,345.0,201.0,29,1,1876.7000000029802,372889.5,7770,friend,AF,A,372478,372478,370952,371762,370952,372828,372277,372277,372828,106
105,test,1,inc,1,m,Wed Mar 11 2026 14:34:47 GMT-0500 (Central Daylight Time),376615.299999997,rage,800,O,m,m,None,502,303.0,199.0,69,1,1846.7999999970198,374768.5,7770,step,AF,A,374361,374361,372831,373644,372831,374677,374161,374161,374677,107
106,test,1,inc,1,z,Wed Mar 11 2026 14:34:47 GMT-0500 (Central Daylight Time),378731.700000003,window,1100,O,z,z,None,474,275.0,199.0,32,1,2109.300000011921,376622.39999999106,7770,friend,AF,A,376509,376509,374684,375793,374685,376794,376310,376310,376794,108
107,test,1,inc,1,m,Wed Mar 11 2026 14:34:47 GMT-0500 (Central Daylight Time),380762.89999999106,love,1000,O,m,m,None,497,297.0,200.0,87,1,2025.7999999970198,378737.09999999404,7770,bell,AF,A,378526,378526,376799,377810,376799,378825,378325,378325,378825,109
108,test,1,inc,1,z,Wed Mar 11 2026 14:34:47 GMT-0500 (Central Daylight Time),382579.700000003,jacket,800,O,z,z,None,496,282.0,214.0,37,1,1810.2000000029802,380769.5,7770,brutal,AF,A,380358,380358,378832,379642,378832,380642,380144,380144,380642,110
108,test,1,con,0,z,Wed Mar 11 2026 14:34:47 GMT-0500 (Central Daylight Time),384461.59999999404,temper,800,O,m,m,None,543,344.0,199.0,57,1,1879.2000000029802,382582.39999999106,7770,temper,AF,A,382175,382175,380644,381458,380645,382524,381975,381975,382524,111
109,test,1,inc,1,m,Wed Mar 11 2026 14:34:47 GMT-0500 (Central Daylight Time),386477.799999997,temper,1000,O,m,m,None,477,278.0,199.0,103,1,2008.9000000059605,384468.89999999106,7770,jacket,AF,A,384257,384257,382531,383540,382531,384540,384057,384057,384540,112
110,test,1,inc,1,z,Wed Mar 11 2026 14:34:47 GMT-0500 (Central Daylight Time),388361.09999999404,napkin,900,O,z,z,None,441,226.0,215.0,6,1,1878.0999999940395,386483.0,7770,elated,AF,A,386190,386190,384545,385457,384545,386423,385974,385974,386423,113
111,test,1,inc,1,m,Wed Mar 11 2026 14:34:47 GMT-0500 (Central Daylight Time),390428.200000003,friend,1100,O,m,m,None,433,234.0,199.0,120,1,2061.300000011921,388366.89999999106,7770,remote,AF,A,388254,388254,386429,387539,386429,388490,388055,388055,388490,114
112,test,1,con,1,m,Wed Mar 11 2026 14:34:47 GMT-0500 (Central Daylight Time),392542.799999997,remote,1100,O,m,m,None,477,278.0,199.0,116,1,2110.9000000059605,390431.89999999106,7770,remote,AF,A,390322,390322,388494,389605,388494,390605,390122,390122,390605,115
113,test,1,con,1,z,Wed Mar 11 2026 14:34:47 GMT-0500 (Central Daylight Time),394426.799999997,temper,900,O,z,z,None,433,233.0,200.0,58,1,1879.0999999940395,392547.700000003,7770,temper,AF,A,392238,392238,390610,391522,390610,392489,392038,392038,392489,116
114,test,1,con,1,m,Wed Mar 11 2026 14:34:47 GMT-0500 (Central Daylight Time),396708.700000003,step,1000,O,m,m,None,745,544.0,201.0,67,1,2276.2000000029802,394432.5,7770,step,AF,A,394223,394223,392495,393504,392495,394771,394022,394022,394771,117
115,test,1,con,1,z,Wed Mar 11 2026 14:34:47 GMT-0500 (Central Daylight Time),398674.0,temper,1000,O,z,z,None,416,217.0,199.0,59,1,1959.2999999970198,396714.700000003,7770,temper,AF,A,396503,396503,394777,395787,394777,396736,396303,396303,396736,118
116,test,1,inc,1,m,Wed Mar 11 2026 14:34:47 GMT-0500 (Central Daylight Time),400506.799999997,rage,800,O,m,m,None,490,290.0,200.0,85,1,1826.7000000029802,398680.09999999404,7770,bell,AF,A,398269,398269,396742,397553,396742,398569,398069,398069,398569,119
117,test,1,con,1,m,Wed Mar 11 2026 14:34:47 GMT-0500 (Central Daylight Time),402639.200000003,bell,1100,O,m,m,None,486,286.0,200.0,84,1,2129.4000000059605,400509.799999997,7770,bell,AF,A,400402,400402,398572,399686,398572,400701,400202,400202,400701,120
118,test,1,inc,1,m,Wed Mar 11 2026 14:34:47 GMT-0500 (Central Daylight Time),404538.200000003,brutal,900,O,m,m,None,456,257.0,199.0,126,1,1893.9000000059605,402644.299999997,7770,window,AF,A,402334,402334,400706,401621,400707,402600,402135,402135,402600,121
119,test,1,inc,1,z,Wed Mar 11 2026 14:34:47 GMT-0500 (Central Daylight Time),406488.700000003,remote,1000,O,z,z,None,401,201.0,200.0,31,1,1945.9000000059605,404542.799999997,7770,friend,AF,A,404334,404334,402605,403622,402605,404551,404134,404134,404551,122
120,test,1,inc,1,z,Wed Mar 11 2026 14:34:47 GMT-0500 (Central Daylight Time),408404.09999999404,rock,900,O,z,z,None,479,280.0,199.0,46,1,1910.7000000029802,406493.39999999106,7770,hate,AF,A,406183,406183,404555,405468,404556,406466,405984,405984,406466,123
121,test,1,inc,1,m,Wed Mar 11 2026 14:34:47 GMT-0500 (Central Daylight Time),410386.700000003,love,1000,O,m,m,None,439,224.0,215.0,71,1,1979.5,408407.200000003,7770,step,AF,A,408216,408216,406469,407484,406469,408449,408001,408001,408449,124
122,test,1,inc,1,z,Wed Mar 11 2026 14:34:47 GMT-0500 (Central Daylight Time),412153.09999999404,step,800,O,z,z,None,422,222.0,200.0,13,1,1763.2999999970198,410389.799999997,7770,kind,AF,A,409984,409985,408452,409266,408452,410215,409784,409784,410215,125
123,test,1,inc,1,m,Wed Mar 11 2026 14:34:47 GMT-0500 (Central Daylight Time),414151.89999999106,hate,1100,O,m,m,None,372,158.0,214.0,88,1,1995.2999999970198,412156.59999999404,7770,bell,AF,A,412049,412049,410219,411332,410219,412214,411834,411834,412214,126
124,test,1,inc,1,z,Wed Mar 11 2026 14:34:47 GMT-0500 (Central Daylight Time),416268.39999999106,window,1100,O,z,z,None,470,271.0,199.0,64,1,2112.7999999970198,414155.59999999404,7770,temper,AF,A,414047,414048,412218,413332,412218,414331,413848,413848,414330,127
125,test,1,inc,1,m,Wed Mar 11 2026 14:34:47 GMT-0500 (Central Daylight Time),418386.39999999106,hate,1100,O,m,m,None,483,268.0,215.0,80,1,2114.0,416272.39999999106,7770,rock,AF,A,416180,416180,414334,415448,414335,416448,415965,415965,416448,128
