acc_sum,block,block_c,change,condition,correct,correct_response,datetime,endtime,face,project,response,response_time,row_sel,session_number,start_end,starttime,subject_id,task,task_vers,trial
0,prac,1,,1-Back,,,Tue May 05 2026 13:18:25 GMT-0500 (Central Daylight Time),,097_m_f_n_a.png,O,space,3794,1,1,,,7794,NNB,B,0
0,prac,1,0.0,1-Back,0.0,m,Tue May 05 2026 13:18:25 GMT-0500 (Central Daylight Time),167938.39999997616,152_y_f_n_a.png,O,None,2015,2,1,2854.5,165083.89999997616,7794,NNB,B,1
0,prac,1,1.0,1-Back,0.0,z,Tue May 05 2026 13:18:25 GMT-0500 (Central Daylight Time),168788.79999995232,152_y_f_n_a.png,O,m,72,3,1,841.0,167947.79999995232,7794,NNB,B,2
0,prac,1,0.0,1-Back,0.0,m,Tue May 05 2026 13:18:25 GMT-0500 (Central Daylight Time),171653.79999995232,176_o_m_n_a.png,O,None,2009,4,1,2851.5,168802.29999995232,7794,NNB,B,3
0,prac,1,0.0,1-Back,0.0,m,Tue May 05 2026 13:18:25 GMT-0500 (Central Daylight Time),174503.0,126_m_m_n_a.png,O,None,2004,5,1,2842.2000000476837,171660.79999995232,7794,NNB,B,4
0,prac,1,1.0,1-Back,0.0,z,Tue May 05 2026 13:18:25 GMT-0500 (Central Daylight Time),176535.60000002384,126_m_m_n_a.png,O,m,1244,6,1,2025.6000000238419,174510.0,7794,NNB,B,5
0,prac,1,0.0,1-Back,0.0,m,Tue May 05 2026 13:18:25 GMT-0500 (Central Daylight Time),179416.70000004768,086_o_f_n_a.png,O,None,2015,7,1,2871.3000000715256,176545.39999997616,7794,NNB,B,6
1,prac,1,0.0,1-Back,1.0,m,Tue May 05 2026 13:18:25 GMT-0500 (Central Daylight Time),181083.89999997616,178_m_m_n_a.png,O,m,808,8,1,1657.0,179426.89999997616,7794,NNB,B,7
1,prac,1,0.0,1-Back,0.0,m,Tue May 05 2026 13:18:25 GMT-0500 (Central Daylight Time),183283.39999997616,097_m_f_n_a.png,O,z,1419,9,1,2188.1999999284744,181095.20000004768,7794,NNB,B,8
1,prac,1,1.0,1-Back,0.0,z,Tue May 05 2026 13:18:25 GMT-0500 (Central Daylight Time),185084.10000002384,097_m_f_n_a.png,O,m,1031,10,1,1790.3999999761581,183293.70000004768,7794,NNB,B,9
1,prac,1,0.0,1-Back,0.0,m,Tue May 05 2026 13:18:25 GMT-0500 (Central Daylight Time),187582.29999995232,176_o_m_n_a.png,O,z,1709,11,1,2488.0999999046326,185094.20000004768,7794,NNB,B,10
1,prac,1,0.0,1-Back,0.0,m,Tue May 05 2026 13:18:25 GMT-0500 (Central Daylight Time),190430.39999997616,173_y_f_n_a.png,O,None,2001,12,1,2838.5,187591.89999997616,7794,NNB,B,11
0,prac,2,0.0,1-Back,,,Tue May 05 2026 13:18:25 GMT-0500 (Central Daylight Time),190430.39999997616,097_m_f_n_a.png,O,a,5481,1,1,2838.5,187591.89999997616,7794,NNB,B,0
0,prac,2,0.0,1-Back,0.0,m,Tue May 05 2026 13:18:25 GMT-0500 (Central Daylight Time),201810.89999997616,152_y_f_n_a.png,O,None,2003,2,1,2839.100000023842,198971.79999995232,7794,NNB,B,1
0,prac,2,1.0,1-Back,0.0,z,Tue May 05 2026 13:18:25 GMT-0500 (Central Daylight Time),204592.5,152_y_f_n_a.png,O,None,2008,3,1,2773.600000023842,201818.89999997616,7794,NNB,B,2
0,prac,2,0.0,1-Back,0.0,m,Tue May 05 2026 13:18:25 GMT-0500 (Central Daylight Time),207375.70000004768,176_o_m_n_a.png,O,None,2007,4,1,2772.7000000476837,204603.0,7794,NNB,B,3
1,prac,2,0.0,1-Back,1.0,m,Tue May 05 2026 13:18:25 GMT-0500 (Central Daylight Time),209958.89999997616,126_m_m_n_a.png,O,m,1733,5,1,2574.2999999523163,207384.60000002384,7794,NNB,B,4
1,prac,2,1.0,1-Back,0.0,z,Tue May 05 2026 13:18:25 GMT-0500 (Central Daylight Time),212656.89999997616,126_m_m_n_a.png,O,m,1933,6,1,2691.0,209965.89999997616,7794,NNB,B,5
2,prac,2,0.0,1-Back,1.0,m,Tue May 05 2026 13:18:25 GMT-0500 (Central Daylight Time),214807.0,086_o_f_n_a.png,O,m,1276,7,1,2138.5,212668.5,7794,NNB,B,6
3,prac,2,0.0,1-Back,1.0,m,Tue May 05 2026 13:18:25 GMT-0500 (Central Daylight Time),217223.0,178_m_m_n_a.png,O,m,1571,8,1,2407.7000000476837,214815.29999995232,7794,NNB,B,7
4,prac,2,0.0,1-Back,1.0,m,Tue May 05 2026 13:18:25 GMT-0500 (Central Daylight Time),219339.70000004768,097_m_f_n_a.png,O,m,1356,9,1,2106.9000000953674,217232.79999995232,7794,NNB,B,8
5,prac,2,1.0,1-Back,1.0,z,Tue May 05 2026 13:18:25 GMT-0500 (Central Daylight Time),221222.0,097_m_f_n_a.png,O,z,1094,10,1,1872.1000000238419,219349.89999997616,7794,NNB,B,9
6,prac,2,0.0,1-Back,1.0,m,Tue May 05 2026 13:18:25 GMT-0500 (Central Daylight Time),223322.10000002384,176_o_m_n_a.png,O,m,1314,11,1,2088.899999976158,221233.20000004768,7794,NNB,B,10
7,prac,2,0.0,1-Back,1.0,m,Tue May 05 2026 13:18:25 GMT-0500 (Central Daylight Time),225419.39999997616,173_y_f_n_a.png,O,m,1238,12,1,2090.2999999523163,223329.10000002384,7794,NNB,B,11
0,test,1,0.0,1-Back,,,Tue May 05 2026 13:18:25 GMT-0500 (Central Daylight Time),225419.39999997616,152_y_f_n_a.png,O,space,8691,1,1,2090.2999999523163,223329.10000002384,7794,NNB,B,0
0,test,1,0.0,1-Back,0.0,m,Tue May 05 2026 13:18:25 GMT-0500 (Central Daylight Time),248861.89999997616,029_m_f_n_a.png,O,None,2014,2,1,3023.899999976158,245838.0,7794,NNB,B,1
1,test,1,0.0,1-Back,1.0,m,Tue May 05 2026 13:18:25 GMT-0500 (Central Daylight Time),251045.5,173_y_f_n_a.png,O,m,1151,3,1,2176.600000023842,248868.89999997616,7794,NNB,B,2
2,test,1,1.0,1-Back,1.0,z,Tue May 05 2026 13:18:25 GMT-0500 (Central Daylight Time),252813.70000004768,173_y_f_n_a.png,O,z,743,4,1,1765.5,251048.20000004768,7794,NNB,B,3
3,test,1,0.0,1-Back,1.0,m,Tue May 05 2026 13:18:25 GMT-0500 (Central Daylight Time),254843.0,029_m_f_n_a.png,O,m,1009,5,1,2026.5,252816.5,7794,NNB,B,4
4,test,1,0.0,1-Back,1.0,m,Tue May 05 2026 13:18:25 GMT-0500 (Central Daylight Time),256909.10000002384,176_o_m_n_a.png,O,m,1040,6,1,2062.5,254846.60000002384,7794,NNB,B,5
5,test,1,1.0,1-Back,1.0,z,Tue May 05 2026 13:18:25 GMT-0500 (Central Daylight Time),258660.39999997616,176_o_m_n_a.png,O,z,724,7,1,1748.1000000238419,256912.29999995232,7794,NNB,B,6
6,test,1,0.0,1-Back,1.0,m,Tue May 05 2026 13:18:25 GMT-0500 (Central Daylight Time),260674.10000002384,126_m_m_n_a.png,O,m,992,8,1,2010.7000000476837,258663.39999997616,7794,NNB,B,7
7,test,1,0.0,1-Back,1.0,m,Tue May 05 2026 13:18:25 GMT-0500 (Central Daylight Time),262740.89999997616,086_o_f_n_a.png,O,m,1041,9,1,2062.399999976158,260678.5,7794,NNB,B,8
7,test,1,0.0,1-Back,0.0,m,Tue May 05 2026 13:18:25 GMT-0500 (Central Daylight Time),264640.5,126_m_m_n_a.png,O,z,881,10,1,1895.7999999523163,262744.7000000477,7794,NNB,B,9
7,test,1,0.0,1-Back,0.0,m,Tue May 05 2026 13:18:25 GMT-0500 (Central Daylight Time),266688.60000002384,153_y_m_n_a.png,O,z,1018,11,1,2045.2000000476837,264643.39999997616,7794,NNB,B,10
8,test,1,1.0,1-Back,1.0,z,Tue May 05 2026 13:18:25 GMT-0500 (Central Daylight Time),269005.39999997616,153_y_m_n_a.png,O,z,1290,12,1,2314.6999999284744,266690.7000000477,7794,NNB,B,11
9,test,1,0.0,1-Back,1.0,m,Tue May 05 2026 13:18:25 GMT-0500 (Central Daylight Time),271055.0,110_o_f_n_a.png,O,m,1021,13,1,2047.0,269008.0,7794,NNB,B,12
10,test,1,1.0,1-Back,1.0,z,Tue May 05 2026 13:18:25 GMT-0500 (Central Daylight Time),273155.2000000477,110_o_f_n_a.png,O,z,1066,14,1,2098.3000000715256,271056.89999997616,7794,NNB,B,13
11,test,1,0.0,1-Back,1.0,m,Tue May 05 2026 13:18:25 GMT-0500 (Central Daylight Time),275220.89999997616,013_y_m_n_a.png,O,m,1042,15,1,2062.2999999523163,273158.60000002384,7794,NNB,B,14
12,test,1,0.0,1-Back,1.0,m,Tue May 05 2026 13:18:25 GMT-0500 (Central Daylight Time),277170.0,097_m_f_n_a.png,O,m,919,16,1,1946.1000000238419,275223.89999997616,7794,NNB,B,15
13,test,1,0.0,1-Back,1.0,m,Tue May 05 2026 13:18:25 GMT-0500 (Central Daylight Time),279352.5,065_o_m_n_a.png,O,m,1154,17,1,2178.899999976158,277173.60000002384,7794,NNB,B,16
14,test,1,0.0,1-Back,1.0,m,Tue May 05 2026 13:18:25 GMT-0500 (Central Daylight Time),281535.0,097_m_f_n_a.png,O,m,1166,18,1,2178.600000023842,279356.39999997616,7794,NNB,B,17
0,test,2,0.0,1-Back,,,Tue May 05 2026 13:18:25 GMT-0500 (Central Daylight Time),281535.0,126_m_m_n_a.png,O,space,2999,1,1,2178.600000023842,279356.39999997616,7794,NNB,B,0
1,test,2,0.0,1-Back,1.0,m,Tue May 05 2026 13:18:25 GMT-0500 (Central Daylight Time),288666.2000000477,029_m_f_n_a.png,O,m,1092,2,1,2109.2000000476837,286557.0,7794,NNB,B,1
2,test,2,1.0,1-Back,1.0,z,Tue May 05 2026 13:18:25 GMT-0500 (Central Daylight Time),290382.39999997616,029_m_f_n_a.png,O,z,701,3,1,1714.1000000238419,288668.2999999523,7794,NNB,B,2
3,test,2,0.0,1-Back,1.0,m,Tue May 05 2026 13:18:25 GMT-0500 (Central Daylight Time),292230.60000002384,126_m_m_n_a.png,O,m,821,4,1,1844.2000000476837,290386.39999997616,7794,NNB,B,3
4,test,2,0.0,1-Back,1.0,m,Tue May 05 2026 13:18:25 GMT-0500 (Central Daylight Time),294047.39999997616,153_y_m_n_a.png,O,m,795,5,1,1813.7999999523163,292233.60000002384,7794,NNB,B,4
5,test,2,0.0,1-Back,1.0,m,Tue May 05 2026 13:18:25 GMT-0500 (Central Daylight Time),295831.60000002384,152_y_f_n_a.png,O,m,765,6,1,1781.7000000476837,294049.89999997616,7794,NNB,B,5
6,test,2,1.0,1-Back,1.0,z,Tue May 05 2026 13:18:25 GMT-0500 (Central Daylight Time),297446.60000002384,152_y_f_n_a.png,O,z,600,7,1,1612.7000000476837,295833.89999997616,7794,NNB,B,6
7,test,2,0.0,1-Back,1.0,m,Tue May 05 2026 13:18:25 GMT-0500 (Central Daylight Time),299344.2000000477,153_y_m_n_a.png,O,m,875,8,1,1894.7000000476837,297449.5,7794,NNB,B,7
8,test,2,0.0,1-Back,1.0,m,Tue May 05 2026 13:18:25 GMT-0500 (Central Daylight Time),301246.2999999523,110_o_f_n_a.png,O,m,874,9,1,1900.0999999046326,299346.2000000477,7794,NNB,B,8
8,test,2,0.0,1-Back,0.0,m,Tue May 05 2026 13:18:25 GMT-0500 (Central Daylight Time),302895.2999999523,178_m_m_n_a.png,O,z,621,10,1,1645.7999999523163,301249.5,7794,NNB,B,9
9,test,2,1.0,1-Back,1.0,z,Tue May 05 2026 13:18:25 GMT-0500 (Central Daylight Time),304527.39999997616,178_m_m_n_a.png,O,z,612,11,1,1629.0,302898.39999997616,7794,NNB,B,10
10,test,2,0.0,1-Back,1.0,m,Tue May 05 2026 13:18:25 GMT-0500 (Central Daylight Time),306326.89999997616,110_o_f_n_a.png,O,m,772,12,1,1796.0,304530.89999997616,7794,NNB,B,11
11,test,2,0.0,1-Back,1.0,m,Tue May 05 2026 13:18:25 GMT-0500 (Central Daylight Time),308159.0,086_o_f_n_a.png,O,m,812,13,1,1829.3999999761581,306329.60000002384,7794,NNB,B,12
12,test,2,0.0,1-Back,1.0,m,Tue May 05 2026 13:18:25 GMT-0500 (Central Daylight Time),309793.2000000477,176_o_m_n_a.png,O,m,611,14,1,1631.4000000953674,308161.7999999523,7794,NNB,B,13
13,test,2,0.0,1-Back,1.0,m,Tue May 05 2026 13:18:25 GMT-0500 (Central Daylight Time),311660.60000002384,065_o_m_n_a.png,O,m,851,15,1,1865.2000000476837,309795.39999997616,7794,NNB,B,14
14,test,2,1.0,1-Back,1.0,z,Tue May 05 2026 13:18:25 GMT-0500 (Central Daylight Time),313308.5,065_o_m_n_a.png,O,z,625,16,1,1645.5,311663.0,7794,NNB,B,15
15,test,2,0.0,1-Back,1.0,m,Tue May 05 2026 13:18:25 GMT-0500 (Central Daylight Time),314941.2000000477,013_y_m_n_a.png,O,m,617,17,1,1629.7000000476837,313311.5,7794,NNB,B,16
16,test,2,1.0,1-Back,1.0,z,Tue May 05 2026 13:18:25 GMT-0500 (Central Daylight Time),316473.2000000477,013_y_m_n_a.png,O,z,510,18,1,1529.4000000953674,314943.7999999523,7794,NNB,B,17
0,test,3,1.0,1-Back,,,Tue May 05 2026 13:18:25 GMT-0500 (Central Daylight Time),316473.2000000477,173_y_f_n_a.png,O,space,2084,1,1,1529.4000000953674,314943.7999999523,7794,NNB,B,0
1,test,3,0.0,1-Back,1.0,m,Tue May 05 2026 13:18:25 GMT-0500 (Central Daylight Time),322787.89999997616,065_o_m_n_a.png,O,m,1131,1,1,2141.6999999284744,320646.2000000477,7794,NNB,B,1
2,test,3,1.0,1-Back,1.0,z,Tue May 05 2026 13:18:25 GMT-0500 (Central Daylight Time),324322.0,065_o_m_n_a.png,O,z,512,1,1,1532.0,322790.0,7794,NNB,B,2
3,test,3,0.0,1-Back,1.0,m,Tue May 05 2026 13:18:25 GMT-0500 (Central Daylight Time),326172.2000000477,097_m_f_n_a.png,O,m,833,1,1,1847.1000000238419,324325.10000002384,7794,NNB,B,3
4,test,3,1.0,1-Back,1.0,z,Tue May 05 2026 13:18:25 GMT-0500 (Central Daylight Time),327837.2999999523,097_m_f_n_a.png,O,z,643,1,1,1661.5,326175.7999999523,7794,NNB,B,4
5,test,3,0.0,1-Back,1.0,m,Tue May 05 2026 13:18:25 GMT-0500 (Central Daylight Time),329620.60000002384,110_o_f_n_a.png,O,m,749,1,1,1780.0,327840.60000002384,7794,NNB,B,5
6,test,3,0.0,1-Back,1.0,m,Tue May 05 2026 13:18:25 GMT-0500 (Central Daylight Time),331335.2999999523,153_y_m_n_a.png,O,m,695,1,1,1712.0,329623.2999999523,7794,NNB,B,6
7,test,3,0.0,1-Back,1.0,m,Tue May 05 2026 13:18:25 GMT-0500 (Central Daylight Time),332952.7999999523,110_o_f_n_a.png,O,m,587,1,1,1614.5999999046326,331338.2000000477,7794,NNB,B,7
8,test,3,0.0,1-Back,1.0,m,Tue May 05 2026 13:18:25 GMT-0500 (Central Daylight Time),334650.60000002384,013_y_m_n_a.png,O,m,665,1,1,1695.2000000476837,332955.39999997616,7794,NNB,B,8
9,test,3,1.0,1-Back,1.0,z,Tue May 05 2026 13:18:25 GMT-0500 (Central Daylight Time),336069.0,013_y_m_n_a.png,O,z,392,1,1,1414.5,334654.5,7794,NNB,B,9
10,test,3,0.0,1-Back,1.0,m,Tue May 05 2026 13:18:25 GMT-0500 (Central Daylight Time),337983.7999999523,029_m_f_n_a.png,O,m,886,1,1,1912.0,336071.7999999523,7794,NNB,B,10
11,test,3,0.0,1-Back,1.0,m,Tue May 05 2026 13:18:25 GMT-0500 (Central Daylight Time),339633.0,152_y_f_n_a.png,O,m,617,1,1,1646.1000000238419,337986.89999997616,7794,NNB,B,11
12,test,3,1.0,1-Back,1.0,z,Tue May 05 2026 13:18:25 GMT-0500 (Central Daylight Time),341166.10000002384,152_y_f_n_a.png,O,z,514,1,1,1531.0,339635.10000002384,7794,NNB,B,12
13,test,3,0.0,1-Back,1.0,m,Tue May 05 2026 13:18:25 GMT-0500 (Central Daylight Time),342730.5,029_m_f_n_a.png,O,m,540,1,1,1561.5,341169.0,7794,NNB,B,13
14,test,3,0.0,1-Back,1.0,m,Tue May 05 2026 13:18:25 GMT-0500 (Central Daylight Time),344364.5,126_m_m_n_a.png,O,m,606,1,1,1631.2000000476837,342733.2999999523,7794,NNB,B,14
14,test,3,1.0,1-Back,0.0,z,Tue May 05 2026 13:18:25 GMT-0500 (Central Daylight Time),345965.0,126_m_m_n_a.png,O,m,582,1,1,1595.7000000476837,344369.2999999523,7794,NNB,B,15
14,test,3,0.0,1-Back,0.0,m,Tue May 05 2026 13:18:25 GMT-0500 (Central Daylight Time),347697.5,086_o_f_n_a.png,O,z,703,1,1,1728.8999999761581,345968.60000002384,7794,NNB,B,16
15,test,3,1.0,1-Back,1.0,z,Tue May 05 2026 13:18:25 GMT-0500 (Central Daylight Time),349430.60000002384,086_o_f_n_a.png,O,z,714,1,1,1728.3999999761581,347702.2000000477,7794,NNB,B,17
0,test,4,1.0,1-Back,,,Tue May 05 2026 13:18:25 GMT-0500 (Central Daylight Time),349430.60000002384,097_m_f_n_a.png,O,space,1844,1,1,1728.3999999761581,347702.2000000477,7794,NNB,B,0
0,test,4,0.0,1-Back,0.0,m,Tue May 05 2026 13:18:25 GMT-0500 (Central Daylight Time),355312.0,065_o_m_n_a.png,O,z,929,2,1,1945.0,353367.0,7794,NNB,B,1
1,test,4,0.0,1-Back,1.0,m,Tue May 05 2026 13:18:25 GMT-0500 (Central Daylight Time),357177.0,097_m_f_n_a.png,O,m,844,3,1,1861.3999999761581,355315.60000002384,7794,NNB,B,2
2,test,4,0.0,1-Back,1.0,m,Tue May 05 2026 13:18:25 GMT-0500 (Central Daylight Time),359226.60000002384,110_o_f_n_a.png,O,m,1018,4,1,2043.0,357183.60000002384,7794,NNB,B,3
3,test,4,1.0,1-Back,1.0,z,Tue May 05 2026 13:18:25 GMT-0500 (Central Daylight Time),360775.2999999523,110_o_f_n_a.png,O,z,520,5,1,1542.0999999046326,359233.2000000477,7794,NNB,B,4
4,test,4,0.0,1-Back,1.0,m,Tue May 05 2026 13:18:25 GMT-0500 (Central Daylight Time),362509.60000002384,152_y_f_n_a.png,O,m,708,6,1,1729.5,360780.10000002384,7794,NNB,B,5
5,test,4,0.0,1-Back,1.0,m,Tue May 05 2026 13:18:25 GMT-0500 (Central Daylight Time),364124.7999999523,153_y_m_n_a.png,O,m,590,7,1,1610.1999999284744,362514.60000002384,7794,NNB,B,6
6,test,4,1.0,1-Back,1.0,z,Tue May 05 2026 13:18:25 GMT-0500 (Central Daylight Time),365758.2000000477,153_y_m_n_a.png,O,z,614,8,1,1628.6000000238419,364129.60000002384,7794,NNB,B,7
7,test,4,0.0,1-Back,1.0,m,Tue May 05 2026 13:18:25 GMT-0500 (Central Daylight Time),367407.39999997616,152_y_f_n_a.png,O,m,628,9,1,1646.1999999284744,365761.2000000477,7794,NNB,B,8
8,test,4,0.0,1-Back,1.0,m,Tue May 05 2026 13:18:25 GMT-0500 (Central Daylight Time),369005.60000002384,178_m_m_n_a.png,O,m,569,10,1,1592.0,367413.60000002384,7794,NNB,B,9
9,test,4,1.0,1-Back,1.0,z,Tue May 05 2026 13:18:25 GMT-0500 (Central Daylight Time),370689.60000002384,178_m_m_n_a.png,O,z,666,11,1,1681.8000000715256,369007.7999999523,7794,NNB,B,10
10,test,4,0.0,1-Back,1.0,m,Tue May 05 2026 13:18:25 GMT-0500 (Central Daylight Time),372373.89999997616,086_o_f_n_a.png,O,m,665,12,1,1679.8999999761581,370694.0,7794,NNB,B,11
11,test,4,0.0,1-Back,1.0,m,Tue May 05 2026 13:18:25 GMT-0500 (Central Daylight Time),373973.39999997616,176_o_m_n_a.png,O,m,584,13,1,1595.8999999761581,372377.5,7794,NNB,B,12
11,test,4,0.0,1-Back,0.0,m,Tue May 05 2026 13:18:25 GMT-0500 (Central Daylight Time),375621.2999999523,086_o_f_n_a.png,O,z,630,14,1,1644.2999999523163,373977.0,7794,NNB,B,13
12,test,4,0.0,1-Back,1.0,m,Tue May 05 2026 13:18:25 GMT-0500 (Central Daylight Time),377255.7000000477,173_y_f_n_a.png,O,m,606,15,1,1630.2000000476837,375625.5,7794,NNB,B,14
13,test,4,1.0,1-Back,1.0,z,Tue May 05 2026 13:18:25 GMT-0500 (Central Daylight Time),378871.10000002384,173_y_f_n_a.png,O,z,599,16,1,1611.8999999761581,377259.2000000477,7794,NNB,B,15
14,test,4,0.0,1-Back,1.0,m,Tue May 05 2026 13:18:25 GMT-0500 (Central Daylight Time),380504.39999997616,029_m_f_n_a.png,O,m,614,17,1,1630.1999999284744,378874.2000000477,7794,NNB,B,16
15,test,4,1.0,1-Back,1.0,z,Tue May 05 2026 13:18:25 GMT-0500 (Central Daylight Time),382136.7000000477,029_m_f_n_a.png,O,z,611,18,1,1628.2000000476837,380508.5,7794,NNB,B,17
0,test,5,1.0,1-Back,,,Tue May 05 2026 13:18:25 GMT-0500 (Central Daylight Time),382136.7000000477,176_o_m_n_a.png,O,space,1723,1,1,1628.2000000476837,380508.5,7794,NNB,B,0
1,test,5,1.0,1-Back,1.0,z,Tue May 05 2026 13:18:25 GMT-0500 (Central Daylight Time),387684.7000000477,176_o_m_n_a.png,O,z,775,2,1,1791.0,385893.7000000477,7794,NNB,B,1
2,test,5,0.0,1-Back,1.0,m,Tue May 05 2026 13:18:25 GMT-0500 (Central Daylight Time),389686.10000002384,152_y_f_n_a.png,O,m,968,3,1,1998.0,387688.10000002384,7794,NNB,B,2
2,test,5,0.0,1-Back,0.0,m,Tue May 05 2026 13:18:25 GMT-0500 (Central Daylight Time),391351.2999999523,153_y_m_n_a.png,O,z,650,4,1,1660.6999999284744,389690.60000002384,7794,NNB,B,3
3,test,5,0.0,1-Back,1.0,m,Tue May 05 2026 13:18:25 GMT-0500 (Central Daylight Time),393183.2000000477,152_y_f_n_a.png,O,m,807,5,1,1828.6000000238419,391354.60000002384,7794,NNB,B,4
4,test,5,0.0,1-Back,1.0,m,Tue May 05 2026 13:18:25 GMT-0500 (Central Daylight Time),395317.7000000477,126_m_m_n_a.png,O,m,1109,6,1,2131.600000023842,393186.10000002384,7794,NNB,B,5
5,test,5,1.0,1-Back,1.0,z,Tue May 05 2026 13:18:25 GMT-0500 (Central Daylight Time),396799.60000002384,126_m_m_n_a.png,O,z,456,7,1,1478.7000000476837,395320.89999997616,7794,NNB,B,6
5,test,5,0.0,1-Back,0.0,m,Tue May 05 2026 13:18:25 GMT-0500 (Central Daylight Time),398749.2999999523,173_y_f_n_a.png,O,z,934,8,1,1946.6999999284744,396802.60000002384,7794,NNB,B,7
6,test,5,0.0,1-Back,1.0,m,Tue May 05 2026 13:18:25 GMT-0500 (Central Daylight Time),400246.5,013_y_m_n_a.png,O,m,478,9,1,1494.0,398752.5,7794,NNB,B,8
6,test,5,0.0,1-Back,0.0,m,Tue May 05 2026 13:18:25 GMT-0500 (Central Daylight Time),401713.0,173_y_f_n_a.png,O,z,436,10,1,1463.2000000476837,400249.7999999523,7794,NNB,B,9
7,test,5,0.0,1-Back,1.0,m,Tue May 05 2026 13:18:25 GMT-0500 (Central Daylight Time),403580.2999999523,086_o_f_n_a.png,O,m,833,11,1,1861.6999999284744,401718.60000002384,7794,NNB,B,10
7,test,5,1.0,1-Back,0.0,z,Tue May 05 2026 13:18:25 GMT-0500 (Central Daylight Time),405613.7000000477,086_o_f_n_a.png,O,m,1017,12,1,2029.5,403584.2000000477,7794,NNB,B,11
8,test,5,0.0,1-Back,1.0,m,Tue May 05 2026 13:18:25 GMT-0500 (Central Daylight Time),407727.89999997616,065_o_m_n_a.png,O,m,1084,13,1,2111.2999999523163,405616.60000002384,7794,NNB,B,12
8,test,5,0.0,1-Back,0.0,m,Tue May 05 2026 13:18:25 GMT-0500 (Central Daylight Time),409310.2999999523,097_m_f_n_a.png,O,z,552,14,1,1579.1999999284744,407731.10000002384,7794,NNB,B,13
8,test,5,1.0,1-Back,0.0,z,Tue May 05 2026 13:18:25 GMT-0500 (Central Daylight Time),410943.39999997616,097_m_f_n_a.png,O,m,611,15,1,1630.2999999523163,409313.10000002384,7794,NNB,B,14
9,test,5,0.0,1-Back,1.0,m,Tue May 05 2026 13:18:25 GMT-0500 (Central Daylight Time),413010.2000000477,065_o_m_n_a.png,O,m,1043,16,1,2063.5,410946.7000000477,7794,NNB,B,15
10,test,5,0.0,1-Back,1.0,m,Tue May 05 2026 13:18:25 GMT-0500 (Central Daylight Time),414660.2000000477,029_m_f_n_a.png,O,m,617,17,1,1647.4000000953674,413012.7999999523,7794,NNB,B,16
11,test,5,0.0,1-Back,1.0,m,Tue May 05 2026 13:18:25 GMT-0500 (Central Daylight Time),416226.10000002384,178_m_m_n_a.png,O,m,534,18,1,1562.3000000715256,414663.7999999523,7794,NNB,B,17
0,prac,1,0.0,2-Back,,,Tue May 05 2026 13:18:25 GMT-0500 (Central Daylight Time),416226.10000002384,013_y_m_n_a.png,O,space,8165,1,1,1562.3000000715256,414663.7999999523,7794,NNB,B,0
0,prac,1,0.0,2-Back,,,Tue May 05 2026 13:18:25 GMT-0500 (Central Daylight Time),416226.10000002384,029_m_f_n_a.png,O,space,8165,2,1,1562.3000000715256,414663.7999999523,7794,NNB,B,0
1,prac,1,1.0,2-Back,1.0,m,Tue May 05 2026 13:18:25 GMT-0500 (Central Daylight Time),550033.6000000238,065_o_m_n_a.png,O,m,1617,3,1,2473.899999976158,547559.7000000477,7794,NNB,B,1
1,prac,1,0.0,2-Back,0.0,m,Tue May 05 2026 13:18:25 GMT-0500 (Central Daylight Time),552899.1000000238,086_o_f_n_a.png,O,None,2003,4,1,2854.2000000476837,550044.8999999762,7794,NNB,B,2
1,prac,1,0.0,2-Back,0.0,z,Tue May 05 2026 13:18:25 GMT-0500 (Central Daylight Time),553849.0,065_o_m_n_a.png,O,m,152,5,1,937.2999999523163,552911.7000000477,7794,NNB,B,3
1,prac,1,1.0,2-Back,0.0,z,Tue May 05 2026 13:18:25 GMT-0500 (Central Daylight Time),555565.1000000238,086_o_f_n_a.png,O,m,931,6,1,1708.5,553856.6000000238,7794,NNB,B,4
1,prac,1,0.0,2-Back,0.0,m,Tue May 05 2026 13:18:25 GMT-0500 (Central Daylight Time),558414.2000000477,178_m_m_n_a.png,O,None,2002,7,1,2839.600000023842,555574.6000000238,7794,NNB,B,5
1,prac,1,0.0,2-Back,0.0,m,Tue May 05 2026 13:18:25 GMT-0500 (Central Daylight Time),561263.7999999523,176_o_m_n_a.png,O,None,2001,8,1,2840.0999999046326,558423.7000000477,7794,NNB,B,6
1,prac,1,0.0,2-Back,0.0,m,Tue May 05 2026 13:18:25 GMT-0500 (Central Daylight Time),563129.2000000477,173_y_f_n_a.png,O,z,1012,9,1,1856.1000000238419,561273.1000000238,7794,NNB,B,7
1,prac,1,1.0,2-Back,0.0,z,Tue May 05 2026 13:18:25 GMT-0500 (Central Daylight Time),565910.5,176_o_m_n_a.png,O,None,2006,10,1,2772.2999999523163,563138.2000000477,7794,NNB,B,8
2,prac,1,0.0,2-Back,1.0,m,Tue May 05 2026 13:18:25 GMT-0500 (Central Daylight Time),568144.1000000238,152_y_f_n_a.png,O,m,1371,11,1,2223.399999976158,565920.7000000477,7794,NNB,B,9
2,prac,1,0.0,2-Back,0.0,m,Tue May 05 2026 13:18:25 GMT-0500 (Central Daylight Time),570510.0,178_m_m_n_a.png,O,z,1590,12,1,2357.5,568152.5,7794,NNB,B,10
0,prac,2,0.0,2-Back,,,Tue May 05 2026 13:18:25 GMT-0500 (Central Daylight Time),570510.0,013_y_m_n_a.png,O,a,12527,1,1,2357.5,568152.5,7794,NNB,B,0
0,prac,2,0.0,2-Back,,,Tue May 05 2026 13:18:25 GMT-0500 (Central Daylight Time),570510.0,029_m_f_n_a.png,O,a,12527,2,1,2357.5,568152.5,7794,NNB,B,0
0,prac,2,1.0,2-Back,0.0,m,Tue May 05 2026 13:18:25 GMT-0500 (Central Daylight Time),591119.6000000238,065_o_m_n_a.png,O,None,2001,3,1,2841.0,588278.6000000238,7794,NNB,B,1
0,prac,2,0.0,2-Back,0.0,m,Tue May 05 2026 13:18:25 GMT-0500 (Central Daylight Time),594001.6000000238,086_o_f_n_a.png,O,None,2012,4,1,2871.600000023842,591130.0,7794,NNB,B,2
0,prac,2,0.0,2-Back,0.0,z,Tue May 05 2026 13:18:25 GMT-0500 (Central Daylight Time),596784.1000000238,065_o_m_n_a.png,O,None,2010,5,1,2774.8000000715256,594009.2999999523,7794,NNB,B,3
0,prac,2,1.0,2-Back,0.0,z,Tue May 05 2026 13:18:25 GMT-0500 (Central Daylight Time),599568.1000000238,086_o_f_n_a.png,O,None,2007,6,1,2775.600000023842,596792.5,7794,NNB,B,4
1,prac,2,0.0,2-Back,1.0,m,Tue May 05 2026 13:18:25 GMT-0500 (Central Daylight Time),600817.1000000238,178_m_m_n_a.png,O,m,461,7,1,1243.5,599573.6000000238,7794,NNB,B,5
2,prac,2,0.0,2-Back,1.0,m,Tue May 05 2026 13:18:25 GMT-0500 (Central Daylight Time),603031.7999999523,176_o_m_n_a.png,O,m,1361,8,1,2207.5999999046326,600824.2000000477,7794,NNB,B,6
2,prac,2,0.0,2-Back,0.0,m,Tue May 05 2026 13:18:25 GMT-0500 (Central Daylight Time),605883.3999999762,173_y_f_n_a.png,O,None,2007,9,1,2846.5,603036.8999999762,7794,NNB,B,7
2,prac,2,1.0,2-Back,0.0,z,Tue May 05 2026 13:18:25 GMT-0500 (Central Daylight Time),608666.3999999762,176_o_m_n_a.png,O,None,2005,10,1,2775.100000023842,605891.2999999523,7794,NNB,B,8
2,prac,2,0.0,2-Back,0.0,m,Tue May 05 2026 13:18:25 GMT-0500 (Central Daylight Time),611532.1000000238,152_y_f_n_a.png,O,None,2006,11,1,2854.100000023842,608678.0,7794,NNB,B,9
2,prac,2,0.0,2-Back,0.0,m,Tue May 05 2026 13:18:25 GMT-0500 (Central Daylight Time),614313.1000000238,178_m_m_n_a.png,O,None,2008,12,1,2776.2000000476837,611536.8999999762,7794,NNB,B,10
0,test,1,0.0,2-Back,,,Tue May 05 2026 13:18:25 GMT-0500 (Central Daylight Time),614313.1000000238,153_y_m_n_a.png,O,space,14186,1,1,2776.2000000476837,611536.8999999762,7794,NNB,B,0
0,test,1,0.0,2-Back,,,Tue May 05 2026 13:18:25 GMT-0500 (Central Daylight Time),614313.1000000238,153_y_m_n_a.png,O,space,14186,2,1,2776.2000000476837,611536.8999999762,7794,NNB,B,0
1,test,1,0.0,2-Back,1.0,m,Tue May 05 2026 13:18:25 GMT-0500 (Central Daylight Time),653384.2999999523,086_o_f_n_a.png,O,m,1180,3,1,2191.5999999046326,651192.7000000477,7794,NNB,B,1
1,test,1,0.0,2-Back,0.0,m,Tue May 05 2026 13:18:25 GMT-0500 (Central Daylight Time),656216.6000000238,126_m_m_n_a.png,O,z,1804,4,1,2829.2000000476837,653387.3999999762,7794,NNB,B,2
1,test,1,1.0,2-Back,0.0,z,Tue May 05 2026 13:18:25 GMT-0500 (Central Daylight Time),659249.2999999523,086_o_f_n_a.png,O,None,2017,5,1,3030.0,656219.2999999523,7794,NNB,B,3
1,test,1,0.0,2-Back,0.0,m,Tue May 05 2026 13:18:25 GMT-0500 (Central Daylight Time),662266.1000000238,152_y_f_n_a.png,O,None,2001,6,1,3011.899999976158,659254.2000000477,7794,NNB,B,4
1,test,1,0.0,2-Back,0.0,m,Tue May 05 2026 13:18:25 GMT-0500 (Central Daylight Time),665297.1000000238,126_m_m_n_a.png,O,None,2016,7,1,3024.7000000476837,662272.3999999762,7794,NNB,B,5
1,test,1,1.0,2-Back,0.0,z,Tue May 05 2026 13:18:25 GMT-0500 (Central Daylight Time),667328.2000000477,152_y_f_n_a.png,O,m,1002,8,1,2028.0,665300.2000000477,7794,NNB,B,6
1,test,1,0.0,2-Back,0.0,m,Tue May 05 2026 13:18:25 GMT-0500 (Central Daylight Time),670345.7999999523,013_y_m_n_a.png,O,None,2001,9,1,3014.6999999284744,667331.1000000238,7794,NNB,B,7
1,test,1,0.0,2-Back,0.0,m,Tue May 05 2026 13:18:25 GMT-0500 (Central Daylight Time),672310.6000000238,110_o_f_n_a.png,O,z,938,10,1,1958.6000000238419,670352.0,7794,NNB,B,8
2,test,1,1.0,2-Back,1.0,z,Tue May 05 2026 13:18:25 GMT-0500 (Central Daylight Time),674459.6000000238,013_y_m_n_a.png,O,z,1125,11,1,2145.899999976158,672313.7000000477,7794,NNB,B,9
2,test,1,0.0,2-Back,0.0,m,Tue May 05 2026 13:18:25 GMT-0500 (Central Daylight Time),677492.8999999762,029_m_f_n_a.png,O,None,2016,12,1,3029.7999999523163,674463.1000000238,7794,NNB,B,10
2,test,1,0.0,2-Back,0.0,m,Tue May 05 2026 13:18:25 GMT-0500 (Central Daylight Time),679791.0,029_m_f_n_a.png,O,z,1270,13,1,2291.5,677499.5,7794,NNB,B,11
2,test,1,0.0,2-Back,0.0,m,Tue May 05 2026 13:18:25 GMT-0500 (Central Daylight Time),682824.5,065_o_m_n_a.png,O,None,2017,14,1,3031.100000023842,679793.3999999762,7794,NNB,B,12
2,test,1,0.0,2-Back,0.0,m,Tue May 05 2026 13:18:25 GMT-0500 (Central Daylight Time),685840.7000000477,110_o_f_n_a.png,O,None,2001,15,1,3008.3000000715256,682832.3999999762,7794,NNB,B,13
2,test,1,1.0,2-Back,0.0,z,Tue May 05 2026 13:18:25 GMT-0500 (Central Daylight Time),687373.1000000238,065_o_m_n_a.png,O,m,508,16,1,1525.8000000715256,685847.2999999523,7794,NNB,B,14
2,test,1,0.0,2-Back,0.0,m,Tue May 05 2026 13:18:25 GMT-0500 (Central Daylight Time),690405.5,097_m_f_n_a.png,O,None,2016,17,1,3028.899999976158,687376.6000000238,7794,NNB,B,15
2,test,1,0.0,2-Back,0.0,m,Tue May 05 2026 13:18:25 GMT-0500 (Central Daylight Time),693437.2999999523,178_m_m_n_a.png,O,None,2015,18,1,3025.2999999523163,690412.0,7794,NNB,B,16
0,test,2,0.0,2-Back,,,Tue May 05 2026 13:18:25 GMT-0500 (Central Daylight Time),693437.2999999523,178_m_m_n_a.png,O,space,2237,1,1,3025.2999999523163,690412.0,7794,NNB,B,0
0,test,2,0.0,2-Back,,,Tue May 05 2026 13:18:25 GMT-0500 (Central Daylight Time),693437.2999999523,173_y_f_n_a.png,O,space,2237,2,1,3025.2999999523163,690412.0,7794,NNB,B,0
1,test,2,1.0,2-Back,1.0,z,Tue May 05 2026 13:18:25 GMT-0500 (Central Daylight Time),702933.7000000477,178_m_m_n_a.png,O,z,1112,3,1,2124.100000023842,700809.6000000238,7794,NNB,B,1
1,test,2,0.0,2-Back,0.0,m,Tue May 05 2026 13:18:25 GMT-0500 (Central Daylight Time),705966.1000000238,097_m_f_n_a.png,O,None,2015,4,1,3028.7000000476837,702937.3999999762,7794,NNB,B,2
2,test,2,0.0,2-Back,1.0,m,Tue May 05 2026 13:18:25 GMT-0500 (Central Daylight Time),708599.6000000238,173_y_f_n_a.png,O,m,1616,5,1,2625.3000000715256,705974.2999999523,7794,NNB,B,3
2,test,2,0.0,2-Back,0.0,m,Tue May 05 2026 13:18:25 GMT-0500 (Central Daylight Time),711631.3999999762,065_o_m_n_a.png,O,None,2016,6,1,3027.1999999284744,708604.2000000477,7794,NNB,B,4
2,test,2,0.0,2-Back,0.0,m,Tue May 05 2026 13:18:25 GMT-0500 (Central Daylight Time),714663.2000000477,152_y_f_n_a.png,O,None,2015,7,1,3027.3000000715256,711635.8999999762,7794,NNB,B,5
2,test,2,1.0,2-Back,0.0,z,Tue May 05 2026 13:18:25 GMT-0500 (Central Daylight Time),717696.6000000238,065_o_m_n_a.png,O,None,2016,8,1,3026.399999976158,714670.2000000477,7794,NNB,B,6
2,test,2,0.0,2-Back,0.0,m,Tue May 05 2026 13:18:25 GMT-0500 (Central Daylight Time),720728.0,013_y_m_n_a.png,O,None,2016,9,1,3021.600000023842,717706.3999999762,7794,NNB,B,7
2,test,2,0.0,2-Back,0.0,m,Tue May 05 2026 13:18:25 GMT-0500 (Central Daylight Time),723394.5,013_y_m_n_a.png,O,z,1643,10,1,2661.100000023842,720733.3999999762,7794,NNB,B,8
2,test,2,0.0,2-Back,0.0,m,Tue May 05 2026 13:18:25 GMT-0500 (Central Daylight Time),726426.5,029_m_f_n_a.png,O,None,2016,11,1,3029.0,723397.5,7794,NNB,B,9
3,test,2,0.0,2-Back,1.0,m,Tue May 05 2026 13:18:25 GMT-0500 (Central Daylight Time),728792.2000000477,173_y_f_n_a.png,O,m,1343,12,1,2358.3000000715256,726433.8999999762,7794,NNB,B,10
4,test,2,1.0,2-Back,1.0,z,Tue May 05 2026 13:18:25 GMT-0500 (Central Daylight Time),730725.1000000238,029_m_f_n_a.png,O,z,917,13,1,1929.5,728795.6000000238,7794,NNB,B,11
4,test,2,0.0,2-Back,0.0,m,Tue May 05 2026 13:18:25 GMT-0500 (Central Daylight Time),733758.2999999523,176_o_m_n_a.png,O,None,2016,14,1,3028.1999999284744,730730.1000000238,7794,NNB,B,12
4,test,2,0.0,2-Back,0.0,m,Tue May 05 2026 13:18:25 GMT-0500 (Central Daylight Time),735839.8999999762,176_o_m_n_a.png,O,z,1060,15,1,2074.600000023842,733765.2999999523,7794,NNB,B,13
4,test,2,0.0,2-Back,0.0,m,Tue May 05 2026 13:18:25 GMT-0500 (Central Daylight Time),738871.2000000477,110_o_f_n_a.png,O,None,2015,16,1,3029.0,735842.2000000477,7794,NNB,B,14
5,test,2,0.0,2-Back,1.0,m,Tue May 05 2026 13:18:25 GMT-0500 (Central Daylight Time),740356.2999999523,126_m_m_n_a.png,O,m,467,17,1,1481.8999999761581,738874.3999999762,7794,NNB,B,15
6,test,2,1.0,2-Back,1.0,z,Tue May 05 2026 13:18:25 GMT-0500 (Central Daylight Time),742071.6000000238,110_o_f_n_a.png,O,z,690,18,1,1711.8000000715256,740359.7999999523,7794,NNB,B,16
0,test,3,1.0,2-Back,,,Tue May 05 2026 13:18:25 GMT-0500 (Central Daylight Time),742071.6000000238,153_y_m_n_a.png,O,space,1971,1,1,1711.8000000715256,740359.7999999523,7794,NNB,B,0
0,test,3,1.0,2-Back,,,Tue May 05 2026 13:18:25 GMT-0500 (Central Daylight Time),742071.6000000238,153_y_m_n_a.png,O,space,1971,2,1,1711.8000000715256,740359.7999999523,7794,NNB,B,0
1,test,3,0.0,2-Back,1.0,m,Tue May 05 2026 13:18:25 GMT-0500 (Central Daylight Time),751668.6000000238,110_o_f_n_a.png,O,m,1474,3,1,2490.5,749178.1000000238,7794,NNB,B,1
2,test,3,0.0,2-Back,1.0,m,Tue May 05 2026 13:18:25 GMT-0500 (Central Daylight Time),753884.7000000477,178_m_m_n_a.png,O,m,1182,4,1,2213.3000000715256,751671.3999999762,7794,NNB,B,2
3,test,3,1.0,2-Back,1.0,z,Tue May 05 2026 13:18:25 GMT-0500 (Central Daylight Time),755684.3999999762,110_o_f_n_a.png,O,z,783,5,1,1797.5,753886.8999999762,7794,NNB,B,3
3,test,3,0.0,2-Back,0.0,m,Tue May 05 2026 13:18:25 GMT-0500 (Central Daylight Time),757716.8999999762,013_y_m_n_a.png,O,z,1013,6,1,2028.1000000238419,755688.7999999523,7794,NNB,B,4
4,test,3,0.0,2-Back,1.0,m,Tue May 05 2026 13:18:25 GMT-0500 (Central Daylight Time),759932.8999999762,178_m_m_n_a.png,O,m,1190,7,1,2213.1999999284744,757719.7000000477,7794,NNB,B,5
5,test,3,1.0,2-Back,1.0,z,Tue May 05 2026 13:18:25 GMT-0500 (Central Daylight Time),761766.2999999523,013_y_m_n_a.png,O,z,808,8,1,1831.0999999046326,759935.2000000477,7794,NNB,B,6
6,test,3,0.0,2-Back,1.0,m,Tue May 05 2026 13:18:25 GMT-0500 (Central Daylight Time),763980.2999999523,173_y_f_n_a.png,O,m,1190,9,1,2210.899999976158,761769.3999999762,7794,NNB,B,7
6,test,3,0.0,2-Back,0.0,m,Tue May 05 2026 13:18:25 GMT-0500 (Central Daylight Time),766230.2999999523,126_m_m_n_a.png,O,z,1221,10,1,2248.2999999523163,763982.0,7794,NNB,B,8
6,test,3,1.0,2-Back,0.0,z,Tue May 05 2026 13:18:25 GMT-0500 (Central Daylight Time),769129.3999999762,173_y_f_n_a.png,O,m,1876,11,1,2897.0,766232.3999999762,7794,NNB,B,9
7,test,3,1.0,2-Back,1.0,z,Tue May 05 2026 13:18:25 GMT-0500 (Central Daylight Time),771546.6000000238,126_m_m_n_a.png,O,z,1384,12,1,2414.7000000476837,769131.8999999762,7794,NNB,B,10
7,test,3,0.0,2-Back,0.0,m,Tue May 05 2026 13:18:25 GMT-0500 (Central Daylight Time),773762.1000000238,110_o_f_n_a.png,O,z,1184,13,1,2211.7000000476837,771550.3999999762,7794,NNB,B,11
8,test,3,0.0,2-Back,1.0,m,Tue May 05 2026 13:18:25 GMT-0500 (Central Daylight Time),775427.0,097_m_f_n_a.png,O,m,641,14,1,1661.5,773765.5,7794,NNB,B,12
9,test,3,0.0,2-Back,1.0,m,Tue May 05 2026 13:18:25 GMT-0500 (Central Daylight Time),777061.6000000238,065_o_m_n_a.png,O,m,615,15,1,1632.0,775429.6000000238,7794,NNB,B,13
9,test,3,1.0,2-Back,0.0,z,Tue May 05 2026 13:18:25 GMT-0500 (Central Daylight Time),780077.2999999523,097_m_f_n_a.png,O,None,2001,16,1,3012.5,777064.7999999523,7794,NNB,B,14
10,test,3,0.0,2-Back,1.0,m,Tue May 05 2026 13:18:25 GMT-0500 (Central Daylight Time),782209.2999999523,086_o_f_n_a.png,O,m,1114,17,1,2124.2999999523163,780085.0,7794,NNB,B,15
10,test,3,0.0,2-Back,0.0,m,Tue May 05 2026 13:18:25 GMT-0500 (Central Daylight Time),784058.5,086_o_f_n_a.png,O,z,817,18,1,1846.2999999523163,782212.2000000477,7794,NNB,B,16
0,test,4,0.0,2-Back,,,Tue May 05 2026 13:18:25 GMT-0500 (Central Daylight Time),784058.5,176_o_m_n_a.png,O,space,1633,1,1,1846.2999999523163,782212.2000000477,7794,NNB,B,0
0,test,4,0.0,2-Back,,,Tue May 05 2026 13:18:25 GMT-0500 (Central Daylight Time),784058.5,152_y_f_n_a.png,O,space,1633,2,1,1846.2999999523163,782212.2000000477,7794,NNB,B,0
1,test,4,1.0,2-Back,1.0,z,Tue May 05 2026 13:18:25 GMT-0500 (Central Daylight Time),792655.7000000477,176_o_m_n_a.png,O,z,762,3,1,1775.4000000953674,790880.2999999523,7794,NNB,B,1
1,test,4,1.0,2-Back,0.0,z,Tue May 05 2026 13:18:25 GMT-0500 (Central Daylight Time),795686.6000000238,152_y_f_n_a.png,O,None,2014,4,1,3028.3000000715256,792658.2999999523,7794,NNB,B,2
2,test,4,0.0,2-Back,1.0,m,Tue May 05 2026 13:18:25 GMT-0500 (Central Daylight Time),797103.6000000238,110_o_f_n_a.png,O,m,386,5,1,1410.1000000238419,795693.5,7794,NNB,B,3
3,test,4,0.0,2-Back,1.0,m,Tue May 05 2026 13:18:25 GMT-0500 (Central Daylight Time),799471.3999999762,110_o_f_n_a.png,O,m,1347,6,1,2364.600000023842,797106.7999999523,7794,NNB,B,4
3,test,4,0.0,2-Back,0.0,m,Tue May 05 2026 13:18:25 GMT-0500 (Central Daylight Time),802501.7000000477,029_m_f_n_a.png,O,None,2016,7,1,3027.5,799474.2000000477,7794,NNB,B,5
3,test,4,0.0,2-Back,0.0,m,Tue May 05 2026 13:18:25 GMT-0500 (Central Daylight Time),805535.5,013_y_m_n_a.png,O,None,2017,8,1,3028.100000023842,802507.3999999762,7794,NNB,B,6
3,test,4,1.0,2-Back,0.0,z,Tue May 05 2026 13:18:25 GMT-0500 (Central Daylight Time),807501.2999999523,029_m_f_n_a.png,O,m,950,9,1,1955.3999999761581,805545.8999999762,7794,NNB,B,7
3,test,4,0.0,2-Back,0.0,m,Tue May 05 2026 13:18:25 GMT-0500 (Central Daylight Time),810532.8999999762,126_m_m_n_a.png,O,None,2015,10,1,3029.1999999284744,807503.7000000477,7794,NNB,B,8
3,test,4,0.0,2-Back,0.0,m,Tue May 05 2026 13:18:25 GMT-0500 (Central Daylight Time),813564.3999999762,013_y_m_n_a.png,O,None,2014,11,1,3023.899999976158,810540.5,7794,NNB,B,9
3,test,4,0.0,2-Back,0.0,m,Tue May 05 2026 13:18:25 GMT-0500 (Central Daylight Time),816598.2000000477,086_o_f_n_a.png,O,None,2016,12,1,3030.8000000715256,813567.3999999762,7794,NNB,B,10
4,test,4,0.0,2-Back,1.0,m,Tue May 05 2026 13:18:25 GMT-0500 (Central Daylight Time),817782.6000000238,153_y_m_n_a.png,O,m,167,13,1,1177.7000000476837,816604.8999999762,7794,NNB,B,11
5,test,4,1.0,2-Back,1.0,z,Tue May 05 2026 13:18:25 GMT-0500 (Central Daylight Time),819731.8999999762,086_o_f_n_a.png,O,z,934,14,1,1945.6999999284744,817786.2000000477,7794,NNB,B,12
6,test,4,1.0,2-Back,1.0,z,Tue May 05 2026 13:18:25 GMT-0500 (Central Daylight Time),822412.2999999523,153_y_m_n_a.png,O,z,1665,15,1,2677.5,819734.7999999523,7794,NNB,B,13
7,test,4,0.0,2-Back,1.0,m,Tue May 05 2026 13:18:25 GMT-0500 (Central Daylight Time),825361.1000000238,178_m_m_n_a.png,O,m,1927,16,1,2944.2000000476837,822416.8999999762,7794,NNB,B,14
7,test,4,0.0,2-Back,0.0,m,Tue May 05 2026 13:18:25 GMT-0500 (Central Daylight Time),827711.0,097_m_f_n_a.png,O,z,1322,17,1,2346.0,825365.0,7794,NNB,B,15
8,test,4,1.0,2-Back,1.0,z,Tue May 05 2026 13:18:25 GMT-0500 (Central Daylight Time),830110.3999999762,178_m_m_n_a.png,O,z,1383,18,1,2396.6999999284744,827713.7000000477,7794,NNB,B,16
0,test,5,1.0,2-Back,,,Tue May 05 2026 13:18:25 GMT-0500 (Central Daylight Time),830110.3999999762,153_y_m_n_a.png,O,space,3189,1,1,2396.6999999284744,827713.7000000477,7794,NNB,B,0
0,test,5,1.0,2-Back,,,Tue May 05 2026 13:18:25 GMT-0500 (Central Daylight Time),830110.3999999762,097_m_f_n_a.png,O,space,3189,2,1,2396.6999999284744,827713.7000000477,7794,NNB,B,0
0,test,5,1.0,2-Back,0.0,z,Tue May 05 2026 13:18:25 GMT-0500 (Central Daylight Time),841054.7000000477,153_y_m_n_a.png,O,m,1667,3,1,2688.8000000715256,838365.8999999762,7794,NNB,B,1
1,test,5,1.0,2-Back,1.0,z,Tue May 05 2026 13:18:25 GMT-0500 (Central Daylight Time),843240.2999999523,097_m_f_n_a.png,O,z,1178,4,1,2183.0999999046326,841057.2000000477,7794,NNB,B,2
2,test,5,0.0,2-Back,1.0,m,Tue May 05 2026 13:18:25 GMT-0500 (Central Daylight Time),845472.6000000238,086_o_f_n_a.png,O,m,1212,5,1,2229.600000023842,843243.0,7794,NNB,B,3
2,test,5,0.0,2-Back,0.0,m,Tue May 05 2026 13:18:25 GMT-0500 (Central Daylight Time),847721.0,153_y_m_n_a.png,O,z,1218,6,1,2244.600000023842,845476.3999999762,7794,NNB,B,4
2,test,5,0.0,2-Back,0.0,m,Tue May 05 2026 13:18:25 GMT-0500 (Central Daylight Time),849937.2999999523,173_y_f_n_a.png,O,z,1195,7,1,2210.6999999284744,847726.6000000238,7794,NNB,B,5
3,test,5,0.0,2-Back,1.0,m,Tue May 05 2026 13:18:25 GMT-0500 (Central Daylight Time),852386.2999999523,086_o_f_n_a.png,O,m,1418,8,1,2445.7999999523163,849940.5,7794,NNB,B,6
4,test,5,1.0,2-Back,1.0,z,Tue May 05 2026 13:18:25 GMT-0500 (Central Daylight Time),854420.6000000238,173_y_f_n_a.png,O,z,1017,9,1,2031.0,852389.6000000238,7794,NNB,B,7
4,test,5,0.0,2-Back,0.0,m,Tue May 05 2026 13:18:25 GMT-0500 (Central Daylight Time),857451.7000000477,065_o_m_n_a.png,O,None,2016,10,1,3027.5,854424.2000000477,7794,NNB,B,8
5,test,5,0.0,2-Back,1.0,m,Tue May 05 2026 13:18:25 GMT-0500 (Central Daylight Time),858751.6000000238,029_m_f_n_a.png,O,m,280,11,1,1292.0,857459.6000000238,7794,NNB,B,9
6,test,5,0.0,2-Back,1.0,m,Tue May 05 2026 13:18:25 GMT-0500 (Central Daylight Time),861068.1000000238,126_m_m_n_a.png,O,m,1292,12,1,2313.3000000715256,858754.7999999523,7794,NNB,B,10
6,test,5,0.0,2-Back,0.0,m,Tue May 05 2026 13:18:25 GMT-0500 (Central Daylight Time),863450.2000000477,065_o_m_n_a.png,O,z,1352,13,1,2379.3000000715256,861070.8999999762,7794,NNB,B,11
6,test,5,1.0,2-Back,0.0,z,Tue May 05 2026 13:18:25 GMT-0500 (Central Daylight Time),866049.1000000238,126_m_m_n_a.png,O,m,1578,14,1,2595.5,863453.6000000238,7794,NNB,B,12
7,test,5,0.0,2-Back,1.0,m,Tue May 05 2026 13:18:25 GMT-0500 (Central Daylight Time),867665.0,152_y_f_n_a.png,O,m,592,15,1,1613.7999999523163,866051.2000000477,7794,NNB,B,13
7,test,5,0.0,2-Back,0.0,m,Tue May 05 2026 13:18:25 GMT-0500 (Central Daylight Time),869931.2000000477,176_o_m_n_a.png,O,z,1236,16,1,2264.2000000476837,867667.0,7794,NNB,B,14
8,test,5,0.0,2-Back,1.0,m,Tue May 05 2026 13:18:25 GMT-0500 (Central Daylight Time),871548.1000000238,029_m_f_n_a.png,O,m,599,17,1,1613.5,869934.6000000238,7794,NNB,B,15
9,test,5,1.0,2-Back,1.0,z,Tue May 05 2026 13:18:25 GMT-0500 (Central Daylight Time),873496.2999999523,176_o_m_n_a.png,O,z,920,18,1,1945.2999999523163,871551.0,7794,NNB,B,16
