block_c,block_dur,condition,countdown,datetime,endtime,list,multichar_response,project,response,response_time,session_number,start_end,starttime,subject_id,task,task_vers,trial
,,,,Tue May 12 2026 14:39:26 GMT-0500 (Central Daylight Time),,,,I,space,281,2,,,8098,WL,B,
prac,,0,,Tue May 12 2026 14:39:26 GMT-0500 (Central Daylight Time),,NA,b,I,b,1805,2,,,8098,WL,B,1.0
prac,,0,,Tue May 12 2026 14:39:26 GMT-0500 (Central Daylight Time),,NA,bo,I,o,224,2,,,8098,WL,B,1.0
prac,,0,,Tue May 12 2026 14:39:26 GMT-0500 (Central Daylight Time),,NA,boo,I,o,165,2,,,8098,WL,B,1.0
prac,,0,,Tue May 12 2026 14:39:26 GMT-0500 (Central Daylight Time),,NA,boos,I,s,101,2,,,8098,WL,B,1.0
prac,,0,,Tue May 12 2026 14:39:26 GMT-0500 (Central Daylight Time),,NA,boost,I,t,130,2,,,8098,WL,B,1.0
prac,,0,,Tue May 12 2026 14:39:26 GMT-0500 (Central Daylight Time),,NA,boostenter,I,enter,357,2,,,8098,WL,B,1.0
1,4.664999961853027,learn,55335.00003814697,Tue May 12 2026 14:39:26 GMT-0500 (Central Daylight Time),103520.0,A,s,I,s,4651,2,4664.699999928474,98855.30000007153,8098,WL,B,1.0
1,4.813999891281128,learn,55186.00010871887,Tue May 12 2026 14:39:26 GMT-0500 (Central Daylight Time),103668.90000009537,A,st,I,t,138,2,4813.600000023842,98855.30000007153,8098,WL,B,1.0
1,5.031999826431274,learn,54968.000173568726,Tue May 12 2026 14:39:26 GMT-0500 (Central Daylight Time),103886.40000009537,A,str,I,r,198,2,5031.100000023842,98855.30000007153,8098,WL,B,1.0
1,5.264999866485596,learn,54735.000133514404,Tue May 12 2026 14:39:26 GMT-0500 (Central Daylight Time),104119.10000002384,A,stre,I,e,221,2,5263.799999952316,98855.30000007153,8098,WL,B,1.0
1,5.429999828338623,learn,54570.00017166138,Tue May 12 2026 14:39:26 GMT-0500 (Central Daylight Time),104284.60000002384,A,stree,I,e,157,2,5429.299999952316,98855.30000007153,8098,WL,B,1.0
1,5.7809998989105225,learn,54219.00010108948,Tue May 12 2026 14:39:26 GMT-0500 (Central Daylight Time),104635.60000002384,A,street,I,t,330,2,5780.299999952316,98855.30000007153,8098,WL,B,1.0
1,6.181999921798706,learn,53818.000078201294,Tue May 12 2026 14:39:26 GMT-0500 (Central Daylight Time),105036.0,A,streetenter,I,enter,381,2,6180.699999928474,98855.30000007153,8098,WL,B,1.0
1,8.77999997138977,learn,51220.00002861023,Tue May 12 2026 14:39:26 GMT-0500 (Central Daylight Time),107634.70000004768,A,g,I,g,2584,2,2598.2000000476837,105036.5,8098,WL,B,2.0
1,9.013000011444092,learn,50986.99998855591,Tue May 12 2026 14:39:26 GMT-0500 (Central Daylight Time),107867.60000002384,A,gr,I,r,216,2,2831.100000023842,105036.5,8098,WL,B,2.0
1,9.179999828338623,learn,50820.00017166138,Tue May 12 2026 14:39:26 GMT-0500 (Central Daylight Time),108034.80000007153,A,gra,I,a,153,2,2998.3000000715256,105036.5,8098,WL,B,2.0
1,9.496999979019165,learn,50503.000020980835,Tue May 12 2026 14:39:26 GMT-0500 (Central Daylight Time),108351.20000004768,A,gras,I,s,306,2,3314.7000000476837,105036.5,8098,WL,B,2.0
1,9.645999908447266,learn,50354.000091552734,Tue May 12 2026 14:39:26 GMT-0500 (Central Daylight Time),108500.90000009537,A,grass,I,s,141,2,3464.4000000953674,105036.5,8098,WL,B,2.0
1,10.11299991607666,learn,49887.00008392334,Tue May 12 2026 14:39:26 GMT-0500 (Central Daylight Time),108967.30000007153,A,grassenter,I,enter,455,2,3930.8000000715256,105036.5,8098,WL,B,2.0
1,12.429999828338623,learn,47570.00017166138,Tue May 12 2026 14:39:26 GMT-0500 (Central Daylight Time),111284.40000009537,A,d,I,d,2293,2,2316.8000000715256,108967.60000002384,8098,WL,B,3.0
1,12.661999940872192,learn,47338.00005912781,Tue May 12 2026 14:39:26 GMT-0500 (Central Daylight Time),111516.90000009537,A,do,I,o,214,2,2549.3000000715256,108967.60000002384,8098,WL,B,3.0
1,12.84499979019165,learn,47155.00020980835,Tue May 12 2026 14:39:26 GMT-0500 (Central Daylight Time),111700.0,A,doo,I,o,175,2,2732.399999976158,108967.60000002384,8098,WL,B,3.0
1,12.978999853134155,learn,47021.000146865845,Tue May 12 2026 14:39:26 GMT-0500 (Central Daylight Time),111833.60000002384,A,door,I,r,118,2,2866.0,108967.60000002384,8098,WL,B,3.0
1,13.711999893188477,learn,46288.00010681152,Tue May 12 2026 14:39:26 GMT-0500 (Central Daylight Time),112566.20000004768,A,doorenter,I,enter,721,2,3598.600000023842,108967.60000002384,8098,WL,B,3.0
1,14.42799997329712,learn,45572.00002670288,Tue May 12 2026 14:39:26 GMT-0500 (Central Daylight Time),113282.30000007153,A,a,I,a,696,2,715.8000000715256,112566.5,8098,WL,B,4.0
1,14.61299991607666,learn,45387.00008392334,Tue May 12 2026 14:39:26 GMT-0500 (Central Daylight Time),113467.30000007153,A,ar,I,r,163,2,900.8000000715256,112566.5,8098,WL,B,4.0
1,15.244999885559082,learn,44755.00011444092,Tue May 12 2026 14:39:26 GMT-0500 (Central Daylight Time),114099.80000007153,A,arm,I,m,612,2,1533.3000000715256,112566.5,8098,WL,B,4.0
1,15.657999992370605,learn,44342.000007629395,Tue May 12 2026 14:39:26 GMT-0500 (Central Daylight Time),114512.60000002384,A,armenter,I,enter,396,2,1946.1000000238419,112566.5,8098,WL,B,4.0
1,16.125,learn,43875.0,Tue May 12 2026 14:39:26 GMT-0500 (Central Daylight Time),114979.60000002384,A,w,I,w,459,2,466.7999999523163,114512.80000007153,8098,WL,B,5.0
1,16.307999849319458,learn,43692.00015068054,Tue May 12 2026 14:39:26 GMT-0500 (Central Daylight Time),115162.60000002384,A,wi,I,i,165,2,649.7999999523163,114512.80000007153,8098,WL,B,5.0
1,16.524999856948853,learn,43475.00014305115,Tue May 12 2026 14:39:26 GMT-0500 (Central Daylight Time),115379.30000007153,A,win,I,n,209,2,866.5,114512.80000007153,8098,WL,B,5.0
1,17.007999897003174,learn,42992.000102996826,Tue May 12 2026 14:39:26 GMT-0500 (Central Daylight Time),115863.0,A,wind,I,d,466,2,1350.1999999284744,114512.80000007153,8098,WL,B,5.0
1,17.490999937057495,learn,42509.000062942505,Tue May 12 2026 14:39:26 GMT-0500 (Central Daylight Time),116345.70000004768,A,windo,I,o,471,2,1832.8999999761581,114512.80000007153,8098,WL,B,5.0
1,17.640999794006348,learn,42359.00020599365,Tue May 12 2026 14:39:26 GMT-0500 (Central Daylight Time),116496.20000004768,A,window,I,w,127,2,1983.3999999761581,114512.80000007153,8098,WL,B,5.0
1,18.05900001525879,learn,41940.99998474121,Tue May 12 2026 14:39:26 GMT-0500 (Central Daylight Time),116913.40000009537,A,windowenter,I,enter,389,2,2400.600000023842,114512.80000007153,8098,WL,B,5.0
1,19.276000022888184,learn,40723.99997711182,Tue May 12 2026 14:39:26 GMT-0500 (Central Daylight Time),118130.80000007153,A,w,I,w,1202,2,1217.1000000238419,116913.70000004768,8098,WL,B,6.0
1,20.40999984741211,learn,39590.00015258789,Tue May 12 2026 14:39:26 GMT-0500 (Central Daylight Time),119264.60000002384,A,wi,I,i,1112,2,2350.899999976158,116913.70000004768,8098,WL,B,6.0
1,20.658999919891357,learn,39341.00008010864,Tue May 12 2026 14:39:26 GMT-0500 (Central Daylight Time),119513.70000004768,A,wif,I,f,224,2,2600.0,116913.70000004768,8098,WL,B,6.0
1,20.941999912261963,learn,39058.00008773804,Tue May 12 2026 14:39:26 GMT-0500 (Central Daylight Time),119797.10000002384,A,wife,I,e,261,2,2883.399999976158,116913.70000004768,8098,WL,B,6.0
1,21.908999919891357,learn,38091.00008010864,Tue May 12 2026 14:39:26 GMT-0500 (Central Daylight Time),120764.20000004768,A,wifeenter,I,enter,956,2,3850.5,116913.70000004768,8098,WL,B,6.0
1,22.590999841690063,learn,37409.00015830994,Tue May 12 2026 14:39:26 GMT-0500 (Central Daylight Time),121446.20000004768,A,s,I,s,669,2,681.7999999523163,120764.40000009537,8098,WL,B,7.0
1,22.79199981689453,learn,37208.00018310547,Tue May 12 2026 14:39:26 GMT-0500 (Central Daylight Time),121647.0,A,st,I,t,189,2,882.5999999046326,120764.40000009537,8098,WL,B,7.0
1,23.007999897003174,learn,36992.000102996826,Tue May 12 2026 14:39:26 GMT-0500 (Central Daylight Time),121863.0,A,sta,I,a,206,2,1098.5999999046326,120764.40000009537,8098,WL,B,7.0
1,23.108999967575073,learn,36891.00003242493,Tue May 12 2026 14:39:26 GMT-0500 (Central Daylight Time),121963.80000007153,A,star,I,r,80,2,1199.3999999761581,120764.40000009537,8098,WL,B,7.0
1,23.79199981689453,learn,36208.00018310547,Tue May 12 2026 14:39:26 GMT-0500 (Central Daylight Time),122647.10000002384,A,starenter,I,enter,662,2,1882.6999999284744,120764.40000009537,8098,WL,B,7.0
1,25.39199995994568,learn,34608.00004005432,Tue May 12 2026 14:39:26 GMT-0500 (Central Daylight Time),124246.30000007153,A,l,I,l,1579,2,1598.8999999761581,122647.40000009537,8098,WL,B,8.0
1,25.491999864578247,learn,34508.00013542175,Tue May 12 2026 14:39:26 GMT-0500 (Central Daylight Time),124346.5,A,la,I,a,85,2,1699.0999999046326,122647.40000009537,8098,WL,B,8.0
1,26.024999856948853,learn,33975.00014305115,Tue May 12 2026 14:39:26 GMT-0500 (Central Daylight Time),124879.5,A,lak,I,k,510,2,2232.0999999046326,122647.40000009537,8098,WL,B,8.0
1,26.156999826431274,learn,33843.000173568726,Tue May 12 2026 14:39:26 GMT-0500 (Central Daylight Time),125011.70000004768,A,lake,I,e,122,2,2364.2999999523163,122647.40000009537,8098,WL,B,8.0
1,26.625,learn,33375.0,Tue May 12 2026 14:39:26 GMT-0500 (Central Daylight Time),125479.90000009537,A,lakeenter,I,enter,446,2,2832.5,122647.40000009537,8098,WL,B,8.0
1,27.107999801635742,learn,32892.00019836426,Tue May 12 2026 14:39:26 GMT-0500 (Central Daylight Time),125962.70000004768,A,c,I,c,467,2,482.5,125480.20000004768,8098,WL,B,9.0
1,27.324999809265137,learn,32675.000190734863,Tue May 12 2026 14:39:26 GMT-0500 (Central Daylight Time),126179.5,A,ca,I,a,202,2,699.2999999523163,125480.20000004768,8098,WL,B,9.0
1,27.674999952316284,learn,32325.000047683716,Tue May 12 2026 14:39:26 GMT-0500 (Central Daylight Time),126529.70000004768,A,cab,I,b,337,2,1049.5,125480.20000004768,8098,WL,B,9.0
1,27.97499990463257,learn,32025.00009536743,Tue May 12 2026 14:39:26 GMT-0500 (Central Daylight Time),126829.5,A,cabi,I,i,278,2,1349.2999999523163,125480.20000004768,8098,WL,B,9.0
1,28.157999992370605,learn,31842.000007629395,Tue May 12 2026 14:39:26 GMT-0500 (Central Daylight Time),127013.0,A,cabin,I,n,173,2,1532.7999999523163,125480.20000004768,8098,WL,B,9.0
1,29.205999851226807,learn,30794.000148773193,Tue May 12 2026 14:39:26 GMT-0500 (Central Daylight Time),128060.80000007153,A,cabinenter,I,enter,1041,2,2580.600000023842,125480.20000004768,8098,WL,B,9.0
1,32.12299990653992,learn,27877.000093460083,Tue May 12 2026 14:39:26 GMT-0500 (Central Daylight Time),130977.40000009537,A,a,I,a,2904,2,2916.4000000953674,128061.0,8098,WL,B,10.0
1,32.27199983596802,learn,27728.000164031982,Tue May 12 2026 14:39:26 GMT-0500 (Central Daylight Time),131126.60000002384,A,ar,I,r,128,2,3065.600000023842,128061.0,8098,WL,B,10.0
1,32.58999991416931,learn,27410.00008583069,Tue May 12 2026 14:39:26 GMT-0500 (Central Daylight Time),131444.90000009537,A,arm,I,m,300,2,3383.9000000953674,128061.0,8098,WL,B,10.0
1,32.97199988365173,learn,27028.000116348267,Tue May 12 2026 14:39:26 GMT-0500 (Central Daylight Time),131826.80000007153,A,armenter,I,enter,366,2,3765.8000000715256,128061.0,8098,WL,B,10.0
1,37.669999837875366,learn,22330.000162124634,Tue May 12 2026 14:39:26 GMT-0500 (Central Daylight Time),136524.80000007153,A,c,I,c,4690,2,4697.700000047684,131827.10000002384,8098,WL,B,11.0
1,37.82099986076355,learn,22179.00013923645,Tue May 12 2026 14:39:26 GMT-0500 (Central Daylight Time),136675.90000009537,A,ci,I,i,130,2,4848.800000071526,131827.10000002384,8098,WL,B,11.0
1,37.954999923706055,learn,22045.000076293945,Tue May 12 2026 14:39:26 GMT-0500 (Central Daylight Time),136809.70000004768,A,cit,I,t,118,2,4982.600000023842,131827.10000002384,8098,WL,B,11.0
1,38.07099986076355,learn,21929.00013923645,Tue May 12 2026 14:39:26 GMT-0500 (Central Daylight Time),136926.20000004768,A,city,I,y,94,2,5099.100000023842,131827.10000002384,8098,WL,B,11.0
1,38.50499987602234,learn,21495.00012397766,Tue May 12 2026 14:39:26 GMT-0500 (Central Daylight Time),137359.40000009537,A,cityenter,I,enter,421,2,5532.300000071526,131827.10000002384,8098,WL,B,11.0
1,59.145999908447266,learn,854.0000915527344,Tue May 12 2026 14:39:26 GMT-0500 (Central Daylight Time),158000.40000009537,A,enter,I,enter,20620,2,20640.600000023842,137359.80000007153,8098,WL,B,12.0
1,60.01300001144409,learn,-13.000011444091797,Tue May 12 2026 14:39:26 GMT-0500 (Central Daylight Time),158867.40000009537,A,None,I,None,863,2,866.7000000476837,158000.70000004768,8098,WL,B,13.0
2,1.2669999599456787,learn,58733.00004005432,Tue May 12 2026 14:39:26 GMT-0500 (Central Daylight Time),230863.10000002384,A,s,I,s,1257,2,1267.1999999284744,229595.90000009537,8098,WL,B,1.0
2,1.4500000476837158,learn,58549.999952316284,Tue May 12 2026 14:39:26 GMT-0500 (Central Daylight Time),231046.40000009537,A,st,I,t,175,2,1450.5,229595.90000009537,8098,WL,B,1.0
2,1.6649999618530273,learn,58335.00003814697,Tue May 12 2026 14:39:26 GMT-0500 (Central Daylight Time),231261.30000007153,A,str,I,r,203,2,1665.3999999761581,229595.90000009537,8098,WL,B,1.0
2,2.115999937057495,learn,57884.000062942505,Tue May 12 2026 14:39:26 GMT-0500 (Central Daylight Time),231711.60000002384,A,stre,I,e,431,2,2115.6999999284744,229595.90000009537,8098,WL,B,1.0
2,2.2820000648498535,learn,57717.99993515015,Tue May 12 2026 14:39:26 GMT-0500 (Central Daylight Time),231878.40000009537,A,stree,I,e,145,2,2282.5,229595.90000009537,8098,WL,B,1.0
2,2.5980000495910645,learn,57401.999950408936,Tue May 12 2026 14:39:26 GMT-0500 (Central Daylight Time),232194.5,A,street,I,t,296,2,2598.5999999046326,229595.90000009537,8098,WL,B,1.0
2,3.200000047683716,learn,56799.999952316284,Tue May 12 2026 14:39:26 GMT-0500 (Central Daylight Time),232795.90000009537,A,streetenter,I,enter,577,2,3200.0,229595.90000009537,8098,WL,B,1.0
2,3.7319998741149902,learn,56268.00012588501,Tue May 12 2026 14:39:26 GMT-0500 (Central Daylight Time),233327.80000007153,A,g,I,g,511,2,531.6000000238419,232796.20000004768,8098,WL,B,2.0
2,3.8989999294281006,learn,56101.0000705719,Tue May 12 2026 14:39:26 GMT-0500 (Central Daylight Time),233494.60000002384,A,gr,I,r,154,2,698.3999999761581,232796.20000004768,8098,WL,B,2.0
2,4.047999858856201,learn,55952.0001411438,Tue May 12 2026 14:39:26 GMT-0500 (Central Daylight Time),233643.5,A,gra,I,a,132,2,847.2999999523163,232796.20000004768,8098,WL,B,2.0
2,4.332000017166138,learn,55667.99998283386,Tue May 12 2026 14:39:26 GMT-0500 (Central Daylight Time),233928.0,A,gras,I,s,262,2,1131.7999999523163,232796.20000004768,8098,WL,B,2.0
2,4.48199987411499,learn,55518.00012588501,Tue May 12 2026 14:39:26 GMT-0500 (Central Daylight Time),234077.5,A,grass,I,s,138,2,1281.2999999523163,232796.20000004768,8098,WL,B,2.0
2,4.9649999141693115,learn,55035.00008583069,Tue May 12 2026 14:39:26 GMT-0500 (Central Daylight Time),234561.0,A,grassenter,I,enter,470,2,1764.7999999523163,232796.20000004768,8098,WL,B,2.0
2,7.080999851226807,learn,52919.00014877319,Tue May 12 2026 14:39:26 GMT-0500 (Central Daylight Time),236677.70000004768,A,w,I,w,2099,2,2116.399999976158,234561.30000007153,8098,WL,B,3.0
2,7.21399998664856,learn,52786.00001335144,Tue May 12 2026 14:39:26 GMT-0500 (Central Daylight Time),236810.30000007153,A,wi,I,i,117,2,2249.0,234561.30000007153,8098,WL,B,3.0
2,7.46399998664856,learn,52536.00001335144,Tue May 12 2026 14:39:26 GMT-0500 (Central Daylight Time),237060.20000004768,A,win,I,n,229,2,2498.899999976158,234561.30000007153,8098,WL,B,3.0
2,7.596999883651733,learn,52403.00011634827,Tue May 12 2026 14:39:26 GMT-0500 (Central Daylight Time),237193.60000002384,A,wind,I,d,117,2,2632.2999999523163,234561.30000007153,8098,WL,B,3.0
2,8.329999923706055,learn,51670.000076293945,Tue May 12 2026 14:39:26 GMT-0500 (Central Daylight Time),237925.80000007153,A,windo,I,o,712,2,3364.5,234561.30000007153,8098,WL,B,3.0
2,8.563999891281128,learn,51436.00010871887,Tue May 12 2026 14:39:26 GMT-0500 (Central Daylight Time),238159.90000009537,A,window,I,w,220,2,3598.600000023842,234561.30000007153,8098,WL,B,3.0
2,9.013000011444092,learn,50986.99998855591,Tue May 12 2026 14:39:26 GMT-0500 (Central Daylight Time),238609.5,A,windowenter,I,enter,436,2,4048.1999999284744,234561.30000007153,8098,WL,B,3.0
2,9.69599986076355,learn,50304.00013923645,Tue May 12 2026 14:39:26 GMT-0500 (Central Daylight Time),239292.40000009537,A,a,I,a,676,2,682.6000000238419,238609.80000007153,8098,WL,B,4.0
2,9.914000034332275,learn,50085.999965667725,Tue May 12 2026 14:39:26 GMT-0500 (Central Daylight Time),239510.10000002384,A,ar,I,r,194,2,900.2999999523163,238609.80000007153,8098,WL,B,4.0
2,10.27999997138977,learn,49720.00002861023,Tue May 12 2026 14:39:26 GMT-0500 (Central Daylight Time),239875.90000009537,A,arm,I,m,358,2,1266.1000000238419,238609.80000007153,8098,WL,B,4.0
2,10.763000011444092,learn,49236.99998855591,Tue May 12 2026 14:39:26 GMT-0500 (Central Daylight Time),240359.0,A,armenter,I,enter,460,2,1749.1999999284744,238609.80000007153,8098,WL,B,4.0
2,11.213000059127808,learn,48786.99994087219,Tue May 12 2026 14:39:26 GMT-0500 (Central Daylight Time),240808.90000009537,A,s,I,s,439,2,449.60000002384186,240359.30000007153,8098,WL,B,5.0
2,11.430000066757202,learn,48569.9999332428,Tue May 12 2026 14:39:26 GMT-0500 (Central Daylight Time),241025.80000007153,A,st,I,t,196,2,666.5,240359.30000007153,8098,WL,B,5.0
2,11.713000059127808,learn,48286.99994087219,Tue May 12 2026 14:39:26 GMT-0500 (Central Daylight Time),241309.70000004768,A,sta,I,a,272,2,950.3999999761581,240359.30000007153,8098,WL,B,5.0
2,11.828999996185303,learn,48171.0000038147,Tue May 12 2026 14:39:26 GMT-0500 (Central Daylight Time),241425.0,A,star,I,r,102,2,1065.6999999284744,240359.30000007153,8098,WL,B,5.0
2,12.361999988555908,learn,47638.00001144409,Tue May 12 2026 14:39:26 GMT-0500 (Central Daylight Time),241957.80000007153,A,starenter,I,enter,515,2,1598.5,240359.30000007153,8098,WL,B,5.0
2,13.062000036239624,learn,46937.999963760376,Tue May 12 2026 14:39:26 GMT-0500 (Central Daylight Time),242658.60000002384,A,w,I,w,680,2,700.6000000238419,241958.0,8098,WL,B,6.0
2,13.378999948501587,learn,46621.00005149841,Tue May 12 2026 14:39:26 GMT-0500 (Central Daylight Time),242975.0,A,wi,I,i,304,2,1017.0,241958.0,8098,WL,B,6.0
2,13.59500002861023,learn,46404.99997138977,Tue May 12 2026 14:39:26 GMT-0500 (Central Daylight Time),243191.5,A,wif,I,f,205,2,1233.5,241958.0,8098,WL,B,6.0
2,13.843999862670898,learn,46156.0001373291,Tue May 12 2026 14:39:26 GMT-0500 (Central Daylight Time),243440.10000002384,A,wife,I,e,234,2,1482.1000000238419,241958.0,8098,WL,B,6.0
2,14.277999877929688,learn,45722.00012207031,Tue May 12 2026 14:39:26 GMT-0500 (Central Daylight Time),243874.30000007153,A,wifeenter,I,enter,429,2,1916.3000000715256,241958.0,8098,WL,B,6.0
2,14.894000053405762,learn,45105.99994659424,Tue May 12 2026 14:39:26 GMT-0500 (Central Daylight Time),244490.60000002384,A,c,I,c,609,2,616.0,243874.60000002384,8098,WL,B,7.0
2,15.09500002861023,learn,44904.99997138977,Tue May 12 2026 14:39:26 GMT-0500 (Central Daylight Time),244691.40000009537,A,ci,I,i,196,2,816.8000000715256,243874.60000002384,8098,WL,B,7.0
2,15.244999885559082,learn,44755.00011444092,Tue May 12 2026 14:39:26 GMT-0500 (Central Daylight Time),244841.20000004768,A,cit,I,t,136,2,966.6000000238419,243874.60000002384,8098,WL,B,7.0
2,15.44700002670288,learn,44552.99997329712,Tue May 12 2026 14:39:26 GMT-0500 (Central Daylight Time),245043.10000002384,A,city,I,y,180,2,1168.5,243874.60000002384,8098,WL,B,7.0
2,15.944000005722046,learn,44055.999994277954,Tue May 12 2026 14:39:26 GMT-0500 (Central Daylight Time),245540.70000004768,A,cityenter,I,enter,487,2,1666.1000000238419,243874.60000002384,8098,WL,B,7.0
2,16.91000008583069,learn,43089.99991416931,Tue May 12 2026 14:39:26 GMT-0500 (Central Daylight Time),246506.30000007153,A,l,I,l,950,2,965.3999999761581,245540.90000009537,8098,WL,B,8.0
2,16.99399995803833,learn,43006.00004196167,Tue May 12 2026 14:39:26 GMT-0500 (Central Daylight Time),246589.80000007153,A,la,I,a,74,2,1048.8999999761581,245540.90000009537,8098,WL,B,8.0
2,17.64400005340576,learn,42355.99994659424,Tue May 12 2026 14:39:26 GMT-0500 (Central Daylight Time),247240.5,A,lak,I,k,635,2,1699.5999999046326,245540.90000009537,8098,WL,B,8.0
2,17.80999994277954,learn,42190.00005722046,Tue May 12 2026 14:39:26 GMT-0500 (Central Daylight Time),247406.0,A,lake,I,e,144,2,1865.0999999046326,245540.90000009537,8098,WL,B,8.0
2,18.177000045776367,learn,41822.99995422363,Tue May 12 2026 14:39:26 GMT-0500 (Central Daylight Time),247773.30000007153,A,lakeenter,I,enter,357,2,2232.399999976158,245540.90000009537,8098,WL,B,8.0
2,18.5939998626709,learn,41406.0001373291,Tue May 12 2026 14:39:26 GMT-0500 (Central Daylight Time),248190.20000004768,A,c,I,c,407,2,416.60000002384186,247773.60000002384,8098,WL,B,9.0
2,18.80999994277954,learn,41190.00005722046,Tue May 12 2026 14:39:26 GMT-0500 (Central Daylight Time),248406.10000002384,A,ca,I,a,204,2,632.5,247773.60000002384,8098,WL,B,9.0
2,19.359999895095825,learn,40640.000104904175,Tue May 12 2026 14:39:26 GMT-0500 (Central Daylight Time),248956.5,A,cab,I,b,543,2,1182.8999999761581,247773.60000002384,8098,WL,B,9.0
2,19.611000061035156,learn,40388.999938964844,Tue May 12 2026 14:39:26 GMT-0500 (Central Daylight Time),249207.30000007153,A,cabi,I,i,231,2,1433.7000000476837,247773.60000002384,8098,WL,B,9.0
2,19.842999935150146,learn,40157.00006484985,Tue May 12 2026 14:39:26 GMT-0500 (Central Daylight Time),249439.30000007153,A,cabin,I,n,209,2,1665.7000000476837,247773.60000002384,8098,WL,B,9.0
2,20.259000062942505,learn,39740.999937057495,Tue May 12 2026 14:39:26 GMT-0500 (Central Daylight Time),249855.20000004768,A,cabinenter,I,enter,402,2,2081.600000023842,247773.60000002384,8098,WL,B,9.0
2,20.993000030517578,learn,39006.99996948242,Tue May 12 2026 14:39:26 GMT-0500 (Central Daylight Time),250589.0,A,p,I,p,725,2,733.5999999046326,249855.40000009537,8098,WL,B,10.0
2,21.20899987220764,learn,38791.00012779236,Tue May 12 2026 14:39:26 GMT-0500 (Central Daylight Time),250805.40000009537,A,pu,I,u,198,2,950.0,249855.40000009537,8098,WL,B,10.0
2,21.993000030517578,learn,38006.99996948242,Tue May 12 2026 14:39:26 GMT-0500 (Central Daylight Time),251589.80000007153,A,pup,I,p,764,2,1734.3999999761581,249855.40000009537,8098,WL,B,10.0
2,22.342999935150146,learn,37657.00006484985,Tue May 12 2026 14:39:26 GMT-0500 (Central Daylight Time),251939.0,A,pupi,I,i,334,2,2083.5999999046326,249855.40000009537,8098,WL,B,10.0
2,22.592000007629395,learn,37407.999992370605,Tue May 12 2026 14:39:26 GMT-0500 (Central Daylight Time),252188.30000007153,A,pupil,I,l,231,2,2332.899999976158,249855.40000009537,8098,WL,B,10.0
2,23.111000061035156,learn,36888.999938964844,Tue May 12 2026 14:39:26 GMT-0500 (Central Daylight Time),252706.90000009537,A,pupilenter,I,enter,503,2,2851.5,249855.40000009537,8098,WL,B,10.0
2,26.256999969482422,learn,33743.00003051758,Tue May 12 2026 14:39:26 GMT-0500 (Central Daylight Time),255853.30000007153,A,p,I,p,3127,2,3146.2000000476837,252707.10000002384,8098,WL,B,11.0
2,26.575000047683716,learn,33424.999952316284,Tue May 12 2026 14:39:26 GMT-0500 (Central Daylight Time),256171.0,A,pi,I,i,297,2,3463.899999976158,252707.10000002384,8098,WL,B,11.0
2,26.889999866485596,learn,33110.000133514404,Tue May 12 2026 14:39:26 GMT-0500 (Central Daylight Time),256486.20000004768,A,pip,I,p,295,2,3779.100000023842,252707.10000002384,8098,WL,B,11.0
2,27.125999927520752,learn,32874.00007247925,Tue May 12 2026 14:39:26 GMT-0500 (Central Daylight Time),256722.30000007153,A,pipe,I,e,214,2,4015.2000000476837,252707.10000002384,8098,WL,B,11.0
2,27.457000017166138,learn,32542.999982833862,Tue May 12 2026 14:39:26 GMT-0500 (Central Daylight Time),257053.20000004768,A,pipeenter,I,enter,322,2,4346.100000023842,252707.10000002384,8098,WL,B,11.0
2,27.874000072479248,learn,32125.999927520752,Tue May 12 2026 14:39:26 GMT-0500 (Central Daylight Time),257469.90000009537,A,s,I,s,407,2,416.40000009536743,257053.5,8098,WL,B,12.0
2,28.056999921798706,learn,31943.000078201294,Tue May 12 2026 14:39:26 GMT-0500 (Central Daylight Time),257653.70000004768,A,sk,I,k,165,2,600.2000000476837,257053.5,8098,WL,B,12.0
2,28.256999969482422,learn,31743.000030517578,Tue May 12 2026 14:39:26 GMT-0500 (Central Daylight Time),257853.5,A,ski,I,i,192,2,800.0,257053.5,8098,WL,B,12.0
2,28.490999937057495,learn,31509.000062942505,Tue May 12 2026 14:39:26 GMT-0500 (Central Daylight Time),258087.30000007153,A,skin,I,n,223,2,1033.8000000715256,257053.5,8098,WL,B,12.0
2,28.874000072479248,learn,31125.999927520752,Tue May 12 2026 14:39:26 GMT-0500 (Central Daylight Time),258470.0,A,skinenter,I,enter,364,2,1416.5,257053.5,8098,WL,B,12.0
2,29.306999921798706,learn,30693.000078201294,Tue May 12 2026 14:39:26 GMT-0500 (Central Daylight Time),258903.30000007153,A,f,I,f,423,2,433.0,258470.30000007153,8098,WL,B,13.0
2,29.539999961853027,learn,30460.000038146973,Tue May 12 2026 14:39:26 GMT-0500 (Central Daylight Time),259136.10000002384,A,fi,I,i,220,2,665.7999999523163,258470.30000007153,8098,WL,B,13.0
2,29.69099998474121,learn,30309.00001525879,Tue May 12 2026 14:39:26 GMT-0500 (Central Daylight Time),259287.5,A,fir,I,r,141,2,817.1999999284744,258470.30000007153,8098,WL,B,13.0
2,29.79099988937378,learn,30209.00011062622,Tue May 12 2026 14:39:26 GMT-0500 (Central Daylight Time),259386.70000004768,A,fire,I,e,78,2,916.3999999761581,258470.30000007153,8098,WL,B,13.0
2,30.223000049591064,learn,29776.999950408936,Tue May 12 2026 14:39:26 GMT-0500 (Central Daylight Time),259819.30000007153,A,fireenter,I,enter,417,2,1349.0,258470.30000007153,8098,WL,B,13.0
2,35.24000000953674,learn,24759.999990463257,Tue May 12 2026 14:39:26 GMT-0500 (Central Daylight Time),264836.10000002384,A,c,I,c,5002,2,5016.600000023842,259819.5,8098,WL,B,14.0
2,35.42199993133545,learn,24578.00006866455,Tue May 12 2026 14:39:26 GMT-0500 (Central Daylight Time),265018.10000002384,A,ca,I,a,166,2,5198.600000023842,259819.5,8098,WL,B,14.0
2,35.6710000038147,learn,24328.999996185303,Tue May 12 2026 14:39:26 GMT-0500 (Central Daylight Time),265267.7000000477,A,cab,I,b,231,2,5448.200000047684,259819.5,8098,WL,B,14.0
2,35.90499997138977,learn,24095.00002861023,Tue May 12 2026 14:39:26 GMT-0500 (Central Daylight Time),265501.3000000715,A,cabi,I,i,217,2,5681.800000071526,259819.5,8098,WL,B,14.0
2,36.17199993133545,learn,23828.00006866455,Tue May 12 2026 14:39:26 GMT-0500 (Central Daylight Time),265768.40000009537,A,cabin,I,n,254,2,5948.900000095367,259819.5,8098,WL,B,14.0
2,36.60599994659424,learn,23394.00005340576,Tue May 12 2026 14:39:26 GMT-0500 (Central Daylight Time),266201.8000000715,A,cabinenter,I,enter,414,2,6382.300000071526,259819.5,8098,WL,B,14.0
2,47.050999879837036,learn,12949.000120162964,Tue May 12 2026 14:39:26 GMT-0500 (Central Daylight Time),276647.60000002384,A,enter,I,enter,10426,2,10445.5,266202.10000002384,8098,WL,B,15.0
3,1.0339999198913574,learn,58966.00008010864,Tue May 12 2026 14:39:26 GMT-0500 (Central Daylight Time),344192.8000000715,A,s,I,s,1014,2,1033.6000000238419,343159.2000000477,8098,WL,B,1.0
3,1.2170000076293945,learn,58782.999992370605,Tue May 12 2026 14:39:26 GMT-0500 (Central Daylight Time),344375.8000000715,A,st,I,t,162,2,1216.6000000238419,343159.2000000477,8098,WL,B,1.0
3,1.5850000381469727,learn,58414.99996185303,Tue May 12 2026 14:39:26 GMT-0500 (Central Daylight Time),344743.40000009537,A,str,I,r,345,2,1584.2000000476837,343159.2000000477,8098,WL,B,1.0
3,1.8009998798370361,learn,58199.000120162964,Tue May 12 2026 14:39:26 GMT-0500 (Central Daylight Time),344959.5,A,stre,I,e,207,2,1800.2999999523163,343159.2000000477,8098,WL,B,1.0
3,1.9839999675750732,learn,58016.00003242493,Tue May 12 2026 14:39:26 GMT-0500 (Central Daylight Time),345142.5,A,stree,I,e,163,2,1983.2999999523163,343159.2000000477,8098,WL,B,1.0
3,2.2669999599456787,learn,57733.00004005432,Tue May 12 2026 14:39:26 GMT-0500 (Central Daylight Time),345425.60000002384,A,street,I,t,262,2,2266.399999976158,343159.2000000477,8098,WL,B,1.0
3,2.5999999046325684,learn,57400.00009536743,Tue May 12 2026 14:39:26 GMT-0500 (Central Daylight Time),345758.60000002384,A,streetenter,I,enter,321,2,2599.399999976158,343159.2000000477,8098,WL,B,1.0
3,3.0179998874664307,learn,56982.00011253357,Tue May 12 2026 14:39:26 GMT-0500 (Central Daylight Time),346176.5,A,g,I,g,397,2,417.6999999284744,345758.8000000715,8098,WL,B,2.0
3,3.2339999675750732,learn,56766.00003242493,Tue May 12 2026 14:39:26 GMT-0500 (Central Daylight Time),346392.60000002384,A,gr,I,r,205,2,633.7999999523163,345758.8000000715,8098,WL,B,2.0
3,3.3999998569488525,learn,56600.00014305115,Tue May 12 2026 14:39:26 GMT-0500 (Central Daylight Time),346558.7000000477,A,gra,I,a,147,2,799.8999999761581,345758.8000000715,8098,WL,B,2.0
3,3.615999937057495,learn,56384.000062942505,Tue May 12 2026 14:39:26 GMT-0500 (Central Daylight Time),346774.3000000715,A,gras,I,s,205,2,1015.5,345758.8000000715,8098,WL,B,2.0
3,3.7660000324249268,learn,56233.99996757507,Tue May 12 2026 14:39:26 GMT-0500 (Central Daylight Time),346924.90000009537,A,grass,I,s,133,2,1166.1000000238419,345758.8000000715,8098,WL,B,2.0
3,4.131999969482422,learn,55868.00003051758,Tue May 12 2026 14:39:26 GMT-0500 (Central Daylight Time),347290.60000002384,A,grassenter,I,enter,357,2,1531.7999999523163,345758.8000000715,8098,WL,B,2.0
3,4.398999929428101,learn,55601.0000705719,Tue May 12 2026 14:39:26 GMT-0500 (Central Daylight Time),347557.2000000477,A,d,I,d,257,2,266.2000000476837,347291.0,8098,WL,B,3.0
3,4.565999984741211,learn,55434.00001525879,Tue May 12 2026 14:39:26 GMT-0500 (Central Daylight Time),347724.10000002384,A,do,I,o,144,2,433.10000002384186,347291.0,8098,WL,B,3.0
3,4.883999824523926,learn,55116.000175476074,Tue May 12 2026 14:39:26 GMT-0500 (Central Daylight Time),348042.40000009537,A,doo,I,o,297,2,751.4000000953674,347291.0,8098,WL,B,3.0
3,5.049000024795532,learn,54950.99997520447,Tue May 12 2026 14:39:26 GMT-0500 (Central Daylight Time),348207.60000002384,A,door,I,r,152,2,916.6000000238419,347291.0,8098,WL,B,3.0
3,5.516999959945679,learn,54483.00004005432,Tue May 12 2026 14:39:26 GMT-0500 (Central Daylight Time),348675.10000002384,A,doorenter,I,enter,447,2,1384.1000000238419,347291.0,8098,WL,B,3.0
3,5.932999849319458,learn,54067.00015068054,Tue May 12 2026 14:39:26 GMT-0500 (Central Daylight Time),349091.7000000477,A,a,I,a,402,2,416.2999999523163,348675.40000009537,8098,WL,B,4.0
3,6.131999969482422,learn,53868.00003051758,Tue May 12 2026 14:39:26 GMT-0500 (Central Daylight Time),349290.40000009537,A,ar,I,r,179,2,615.0,348675.40000009537,8098,WL,B,4.0
3,6.582000017166138,learn,53417.99998283386,Tue May 12 2026 14:39:26 GMT-0500 (Central Daylight Time),349740.90000009537,A,arm,I,m,434,2,1065.5,348675.40000009537,8098,WL,B,4.0
3,7.065999984741211,learn,52934.00001525879,Tue May 12 2026 14:39:26 GMT-0500 (Central Daylight Time),350224.2000000477,A,armenter,I,enter,471,2,1548.7999999523163,348675.40000009537,8098,WL,B,4.0
3,7.631999969482422,learn,52368.00003051758,Tue May 12 2026 14:39:26 GMT-0500 (Central Daylight Time),350790.40000009537,A,w,I,w,548,2,565.9000000953674,350224.5,8098,WL,B,5.0
3,8.281999826431274,learn,51718.000173568726,Tue May 12 2026 14:39:26 GMT-0500 (Central Daylight Time),351441.0,A,wi,I,i,638,2,1216.5,350224.5,8098,WL,B,5.0
3,8.464999914169312,learn,51535.00008583069,Tue May 12 2026 14:39:26 GMT-0500 (Central Daylight Time),351623.90000009537,A,wif,I,f,171,2,1399.4000000953674,350224.5,8098,WL,B,5.0
3,8.698999881744385,learn,51301.000118255615,Tue May 12 2026 14:39:26 GMT-0500 (Central Daylight Time),351857.60000002384,A,wife,I,e,213,2,1633.1000000238419,350224.5,8098,WL,B,5.0
3,9.063999891281128,learn,50936.00010871887,Tue May 12 2026 14:39:26 GMT-0500 (Central Daylight Time),352222.5,A,wifeenter,I,enter,345,2,1998.0,350224.5,8098,WL,B,5.0
3,9.365000009536743,learn,50634.99999046326,Tue May 12 2026 14:39:26 GMT-0500 (Central Daylight Time),352523.2000000477,A,w,I,w,282,2,300.2999999523163,352222.90000009537,8098,WL,B,6.0
3,9.480999946594238,learn,50519.00005340576,Tue May 12 2026 14:39:26 GMT-0500 (Central Daylight Time),352639.90000009537,A,wi,I,i,103,2,417.0,352222.90000009537,8098,WL,B,6.0
3,9.714999914169312,learn,50285.00008583069,Tue May 12 2026 14:39:26 GMT-0500 (Central Daylight Time),352873.2000000477,A,win,I,n,219,2,650.2999999523163,352222.90000009537,8098,WL,B,6.0
3,9.88100004196167,learn,50118.99995803833,Tue May 12 2026 14:39:26 GMT-0500 (Central Daylight Time),353040.0,A,wind,I,d,149,2,817.0999999046326,352222.90000009537,8098,WL,B,6.0
3,10.447999954223633,learn,49552.00004577637,Tue May 12 2026 14:39:26 GMT-0500 (Central Daylight Time),353606.5,A,windo,I,o,547,2,1383.5999999046326,352222.90000009537,8098,WL,B,6.0
3,10.580999851226807,learn,49419.00014877319,Tue May 12 2026 14:39:26 GMT-0500 (Central Daylight Time),353739.0,A,window,I,w,123,2,1516.0999999046326,352222.90000009537,8098,WL,B,6.0
3,11.080999851226807,learn,48919.00014877319,Tue May 12 2026 14:39:26 GMT-0500 (Central Daylight Time),354239.40000009537,A,windowenter,I,enter,489,2,2016.5,352222.90000009537,8098,WL,B,6.0
3,11.48199987411499,learn,48518.00012588501,Tue May 12 2026 14:39:26 GMT-0500 (Central Daylight Time),354640.5,A,c,I,c,380,2,400.89999997615814,354239.60000002384,8098,WL,B,7.0
3,11.629999876022339,learn,48370.00012397766,Tue May 12 2026 14:39:26 GMT-0500 (Central Daylight Time),354788.8000000715,A,ci,I,i,129,2,549.2000000476837,354239.60000002384,8098,WL,B,7.0
3,11.79699993133545,learn,48203.00006866455,Tue May 12 2026 14:39:26 GMT-0500 (Central Daylight Time),354955.40000009537,A,cit,I,t,160,2,715.8000000715256,354239.60000002384,8098,WL,B,7.0
3,11.96399998664856,learn,48036.00001335144,Tue May 12 2026 14:39:26 GMT-0500 (Central Daylight Time),355123.0,A,city,I,y,150,2,883.3999999761581,354239.60000002384,8098,WL,B,7.0
3,12.480000019073486,learn,47519.999980926514,Tue May 12 2026 14:39:26 GMT-0500 (Central Daylight Time),355639.0,A,cityenter,I,enter,506,2,1399.3999999761581,354239.60000002384,8098,WL,B,7.0
3,17.84500002861023,learn,42154.99997138977,Tue May 12 2026 14:39:26 GMT-0500 (Central Daylight Time),361003.60000002384,A,p,I,p,5349,2,5364.399999976158,355639.2000000477,8098,WL,B,8.0
3,18.194999933242798,learn,41805.0000667572,Tue May 12 2026 14:39:26 GMT-0500 (Central Daylight Time),361353.40000009537,A,pu,I,u,331,2,5714.200000047684,355639.2000000477,8098,WL,B,8.0
3,18.661999940872192,learn,41338.00005912781,Tue May 12 2026 14:39:26 GMT-0500 (Central Daylight Time),361820.2000000477,A,pup,I,p,456,2,6181.0,355639.2000000477,8098,WL,B,8.0
3,18.894999980926514,learn,41105.000019073486,Tue May 12 2026 14:39:26 GMT-0500 (Central Daylight Time),362053.8000000715,A,pupi,I,i,215,2,6414.600000023842,355639.2000000477,8098,WL,B,8.0
3,19.128000020980835,learn,40871.999979019165,Tue May 12 2026 14:39:26 GMT-0500 (Central Daylight Time),362286.8000000715,A,pupil,I,l,220,2,6647.600000023842,355639.2000000477,8098,WL,B,8.0
3,19.509999990463257,learn,40490.00000953674,Tue May 12 2026 14:39:26 GMT-0500 (Central Daylight Time),362669.0,A,pupilenter,I,enter,374,2,7029.799999952316,355639.2000000477,8098,WL,B,8.0
3,19.878000020980835,learn,40121.999979019165,Tue May 12 2026 14:39:26 GMT-0500 (Central Daylight Time),363036.90000009537,A,p,I,p,350,2,367.7000000476837,362669.2000000477,8098,WL,B,9.0
3,20.162999868392944,learn,39837.000131607056,Tue May 12 2026 14:39:26 GMT-0500 (Central Daylight Time),363321.40000009537,A,pi,I,i,262,2,652.2000000476837,362669.2000000477,8098,WL,B,9.0
3,20.544999837875366,learn,39455.000162124634,Tue May 12 2026 14:39:26 GMT-0500 (Central Daylight Time),363703.8000000715,A,pip,I,p,363,2,1034.6000000238419,362669.2000000477,8098,WL,B,9.0
3,20.878000020980835,learn,39121.999979019165,Tue May 12 2026 14:39:26 GMT-0500 (Central Daylight Time),364036.7000000477,A,pipe,I,e,314,2,1367.5,362669.2000000477,8098,WL,B,9.0
3,21.30999994277954,learn,38690.00005722046,Tue May 12 2026 14:39:26 GMT-0500 (Central Daylight Time),364468.5,A,pipeenter,I,enter,415,2,1799.2999999523163,362669.2000000477,8098,WL,B,9.0
3,21.76199984550476,learn,38238.00015449524,Tue May 12 2026 14:39:26 GMT-0500 (Central Daylight Time),364920.3000000715,A,s,I,s,440,2,451.5,364468.8000000715,8098,WL,B,10.0
3,21.977999925613403,learn,38022.0000743866,Tue May 12 2026 14:39:26 GMT-0500 (Central Daylight Time),365136.2000000477,A,sk,I,k,204,2,667.3999999761581,364468.8000000715,8098,WL,B,10.0
3,22.210999965667725,learn,37789.000034332275,Tue May 12 2026 14:39:26 GMT-0500 (Central Daylight Time),365369.7000000477,A,ski,I,i,214,2,900.8999999761581,364468.8000000715,8098,WL,B,10.0
3,22.444999933242798,learn,37555.0000667572,Tue May 12 2026 14:39:26 GMT-0500 (Central Daylight Time),365603.5,A,skin,I,n,214,2,1134.6999999284744,364468.8000000715,8098,WL,B,10.0
3,22.82699990272522,learn,37173.00009727478,Tue May 12 2026 14:39:26 GMT-0500 (Central Daylight Time),365986.0,A,skinenter,I,enter,368,2,1517.1999999284744,364468.8000000715,8098,WL,B,10.0
3,23.092999935150146,learn,36907.00006484985,Tue May 12 2026 14:39:26 GMT-0500 (Central Daylight Time),366251.5,A,f,I,f,258,2,265.1999999284744,365986.3000000715,8098,WL,B,11.0
3,23.259999990463257,learn,36740.00000953674,Tue May 12 2026 14:39:26 GMT-0500 (Central Daylight Time),366418.10000002384,A,fi,I,i,148,2,431.7999999523163,365986.3000000715,8098,WL,B,11.0
3,23.526000022888184,learn,36473.99997711182,Tue May 12 2026 14:39:26 GMT-0500 (Central Daylight Time),366684.7000000477,A,fir,I,r,249,2,698.3999999761581,365986.3000000715,8098,WL,B,11.0
3,23.625999927520752,learn,36374.00007247925,Tue May 12 2026 14:39:26 GMT-0500 (Central Daylight Time),366784.60000002384,A,fire,I,e,87,2,798.2999999523163,365986.3000000715,8098,WL,B,11.0
3,24.043999910354614,learn,35956.000089645386,Tue May 12 2026 14:39:26 GMT-0500 (Central Daylight Time),367202.90000009537,A,fireenter,I,enter,405,2,1216.6000000238419,365986.3000000715,8098,WL,B,11.0
3,24.342999935150146,learn,35657.00006484985,Tue May 12 2026 14:39:26 GMT-0500 (Central Daylight Time),367501.8000000715,A,c,I,c,289,2,298.5,367203.3000000715,8098,WL,B,12.0
3,24.543999910354614,learn,35456.000089645386,Tue May 12 2026 14:39:26 GMT-0500 (Central Daylight Time),367702.10000002384,A,cl,I,l,183,2,498.7999999523163,367203.3000000715,8098,WL,B,12.0
3,24.80999994277954,learn,35190.00005722046,Tue May 12 2026 14:39:26 GMT-0500 (Central Daylight Time),367968.5,A,clo,I,o,254,2,765.1999999284744,367203.3000000715,8098,WL,B,12.0
3,25.075999975204468,learn,34924.00002479553,Tue May 12 2026 14:39:26 GMT-0500 (Central Daylight Time),368234.60000002384,A,cloc,I,c,262,2,1031.2999999523163,367203.3000000715,8098,WL,B,12.0
3,25.259999990463257,learn,34740.00000953674,Tue May 12 2026 14:39:26 GMT-0500 (Central Daylight Time),368418.60000002384,A,clock,I,k,163,2,1215.2999999523163,367203.3000000715,8098,WL,B,12.0
3,26.026999950408936,learn,33973.000049591064,Tue May 12 2026 14:39:26 GMT-0500 (Central Daylight Time),369185.7000000477,A,clockenter,I,enter,747,2,1982.3999999761581,367203.3000000715,8098,WL,B,12.0
3,26.66100001335144,learn,33338.99998664856,Tue May 12 2026 14:39:26 GMT-0500 (Central Daylight Time),369819.5,A,c,I,c,613,2,633.5,369186.0,8098,WL,B,13.0
3,26.82699990272522,learn,33173.00009727478,Tue May 12 2026 14:39:26 GMT-0500 (Central Daylight Time),369985.5,A,ci,I,i,144,2,799.5,369186.0,8098,WL,B,13.0
3,26.991999864578247,learn,33008.00013542175,Tue May 12 2026 14:39:26 GMT-0500 (Central Daylight Time),370150.7000000477,A,cit,I,t,145,2,964.7000000476837,369186.0,8098,WL,B,13.0
3,27.125,learn,32875.0,Tue May 12 2026 14:39:26 GMT-0500 (Central Daylight Time),370283.5,A,city,I,y,123,2,1097.5,369186.0,8098,WL,B,13.0
3,27.657999992370605,learn,32342.000007629395,Tue May 12 2026 14:39:26 GMT-0500 (Central Daylight Time),370817.10000002384,A,cityenter,I,enter,521,2,1631.1000000238419,369186.0,8098,WL,B,13.0
3,39.6710000038147,learn,20328.999996185303,Tue May 12 2026 14:39:26 GMT-0500 (Central Daylight Time),382829.5,A,a,I,a,11995,2,12012.199999928474,370817.3000000715,8098,WL,B,14.0
3,39.95299983024597,learn,20047.00016975403,Tue May 12 2026 14:39:26 GMT-0500 (Central Daylight Time),383111.90000009537,A,ar,I,r,262,2,12294.600000023842,370817.3000000715,8098,WL,B,14.0
3,42.02300000190735,learn,17976.99999809265,Tue May 12 2026 14:39:26 GMT-0500 (Central Daylight Time),385181.40000009537,A,arm,I,m,2050,2,14364.100000023842,370817.3000000715,8098,WL,B,14.0
3,42.95700001716614,learn,17042.999982833862,Tue May 12 2026 14:39:26 GMT-0500 (Central Daylight Time),386115.2000000477,A,ar,I,backspace,912,2,15297.899999976158,370817.3000000715,8098,WL,B,14.0
3,43.168999910354614,learn,16831.000089645386,Tue May 12 2026 14:39:26 GMT-0500 (Central Daylight Time),386327.90000009537,A,a,I,backspace,200,2,15510.600000023842,370817.3000000715,8098,WL,B,14.0
3,43.355000019073486,learn,16644.999980926514,Tue May 12 2026 14:39:26 GMT-0500 (Central Daylight Time),386513.2000000477,A,,I,backspace,174,2,15695.899999976158,370817.3000000715,8098,WL,B,14.0
3,44.15299987792969,learn,15847.000122070312,Tue May 12 2026 14:39:26 GMT-0500 (Central Daylight Time),387311.5,A,l,I,l,779,2,16494.199999928474,370817.3000000715,8098,WL,B,14.0
3,44.25399994850159,learn,15746.000051498413,Tue May 12 2026 14:39:26 GMT-0500 (Central Daylight Time),387412.3000000715,A,la,I,a,85,2,16595.0,370817.3000000715,8098,WL,B,14.0
3,44.5699999332428,learn,15430.000066757202,Tue May 12 2026 14:39:26 GMT-0500 (Central Daylight Time),387728.3000000715,A,lak,I,k,310,2,16911.0,370817.3000000715,8098,WL,B,14.0
3,44.83699989318848,learn,15163.000106811523,Tue May 12 2026 14:39:26 GMT-0500 (Central Daylight Time),387995.8000000715,A,lake,I,e,248,2,17178.5,370817.3000000715,8098,WL,B,14.0
3,45.13699984550476,learn,14863.00015449524,Tue May 12 2026 14:39:26 GMT-0500 (Central Daylight Time),388295.2000000477,A,lakeenter,I,enter,279,2,17477.899999976158,370817.3000000715,8098,WL,B,14.0
3,47.23699998855591,learn,12763.000011444092,Tue May 12 2026 14:39:26 GMT-0500 (Central Daylight Time),390395.40000009537,A,c,I,c,2085,2,2099.9000000953674,388295.5,8098,WL,B,15.0
3,47.418999910354614,learn,12581.000089645386,Tue May 12 2026 14:39:26 GMT-0500 (Central Daylight Time),390577.60000002384,A,ca,I,a,167,2,2282.100000023842,388295.5,8098,WL,B,15.0
3,47.603999853134155,learn,12396.000146865845,Tue May 12 2026 14:39:26 GMT-0500 (Central Daylight Time),390762.40000009537,A,cab,I,b,170,2,2466.9000000953674,388295.5,8098,WL,B,15.0
3,47.82099986076355,learn,12179.00013923645,Tue May 12 2026 14:39:26 GMT-0500 (Central Daylight Time),390979.40000009537,A,cabi,I,i,204,2,2683.9000000953674,388295.5,8098,WL,B,15.0
3,48.01899981498718,learn,11981.000185012817,Tue May 12 2026 14:39:26 GMT-0500 (Central Daylight Time),391177.60000002384,A,cabin,I,n,184,2,2882.100000023842,388295.5,8098,WL,B,15.0
3,48.33500003814697,learn,11664.999961853027,Tue May 12 2026 14:39:26 GMT-0500 (Central Daylight Time),391493.2000000477,A,cabinenter,I,enter,296,2,3197.7000000476837,388295.5,8098,WL,B,15.0
4,0.7669999599456787,learn,59233.00004005432,Tue May 12 2026 14:39:26 GMT-0500 (Central Daylight Time),458406.40000009537,A,s,I,s,751,2,767.3000000715256,457639.10000002384,8098,WL,B,1.0
4,0.9169998168945312,learn,59083.00018310547,Tue May 12 2026 14:39:26 GMT-0500 (Central Daylight Time),458555.8000000715,A,st,I,t,132,2,916.7000000476837,457639.10000002384,8098,WL,B,1.0
4,1.1510000228881836,learn,58848.99997711182,Tue May 12 2026 14:39:26 GMT-0500 (Central Daylight Time),458790.0,A,str,I,r,216,2,1150.8999999761581,457639.10000002384,8098,WL,B,1.0
4,1.5339999198913574,learn,58466.00008010864,Tue May 12 2026 14:39:26 GMT-0500 (Central Daylight Time),459172.7000000477,A,stre,I,e,373,2,1533.6000000238419,457639.10000002384,8098,WL,B,1.0
4,2.049999952316284,learn,57950.000047683716,Tue May 12 2026 14:39:26 GMT-0500 (Central Daylight Time),459688.60000002384,A,stree,I,e,503,2,2049.5,457639.10000002384,8098,WL,B,1.0
4,2.317999839782715,learn,57682.000160217285,Tue May 12 2026 14:39:26 GMT-0500 (Central Daylight Time),459956.5,A,street,I,t,246,2,2317.399999976158,457639.10000002384,8098,WL,B,1.0
4,4.0329999923706055,learn,55967.000007629395,Tue May 12 2026 14:39:26 GMT-0500 (Central Daylight Time),461671.8000000715,A,streetenter,I,enter,1703,2,4032.7000000476837,457639.10000002384,8098,WL,B,1.0
4,5.297999858856201,learn,54702.0001411438,Tue May 12 2026 14:39:26 GMT-0500 (Central Daylight Time),462936.5,A,g,I,g,1246,2,1264.5,461672.0,8098,WL,B,2.0
4,5.515999794006348,learn,54484.00020599365,Tue May 12 2026 14:39:26 GMT-0500 (Central Daylight Time),463154.7000000477,A,gr,I,r,203,2,1482.7000000476837,461672.0,8098,WL,B,2.0
4,5.631999969482422,learn,54368.00003051758,Tue May 12 2026 14:39:26 GMT-0500 (Central Daylight Time),463270.7000000477,A,gra,I,a,104,2,1598.7000000476837,461672.0,8098,WL,B,2.0
4,5.916999816894531,learn,54083.00018310547,Tue May 12 2026 14:39:26 GMT-0500 (Central Daylight Time),463555.5,A,gras,I,s,264,2,1883.5,461672.0,8098,WL,B,2.0
4,6.06499981880188,learn,53935.00018119812,Tue May 12 2026 14:39:26 GMT-0500 (Central Daylight Time),463703.90000009537,A,grass,I,s,123,2,2031.9000000953674,461672.0,8098,WL,B,2.0
4,6.531999826431274,learn,53468.000173568726,Tue May 12 2026 14:39:26 GMT-0500 (Central Daylight Time),464170.40000009537,A,grassenter,I,enter,445,2,2498.4000000953674,461672.0,8098,WL,B,2.0
4,9.013999938964844,learn,50986.000061035156,Tue May 12 2026 14:39:26 GMT-0500 (Central Daylight Time),466653.10000002384,A,d,I,d,2473,2,2482.2999999523163,464170.8000000715,8098,WL,B,3.0
4,9.23199987411499,learn,50768.00012588501,Tue May 12 2026 14:39:26 GMT-0500 (Central Daylight Time),466870.3000000715,A,do,I,o,200,2,2699.5,464170.8000000715,8098,WL,B,3.0
4,9.414999961853027,learn,50585.00003814697,Tue May 12 2026 14:39:26 GMT-0500 (Central Daylight Time),467053.3000000715,A,doo,I,o,165,2,2882.5,464170.8000000715,8098,WL,B,3.0
4,9.531999826431274,learn,50468.000173568726,Tue May 12 2026 14:39:26 GMT-0500 (Central Daylight Time),467170.40000009537,A,door,I,r,100,2,2999.600000023842,464170.8000000715,8098,WL,B,3.0
4,9.964999914169312,learn,50035.00008583069,Tue May 12 2026 14:39:26 GMT-0500 (Central Daylight Time),467604.2000000477,A,doorenter,I,enter,410,2,3433.399999976158,464170.8000000715,8098,WL,B,3.0
4,10.379999876022339,learn,49620.00012397766,Tue May 12 2026 14:39:26 GMT-0500 (Central Daylight Time),468018.5,A,a,I,a,406,2,414.0,467604.5,8098,WL,B,4.0
4,10.563999891281128,learn,49436.00010871887,Tue May 12 2026 14:39:26 GMT-0500 (Central Daylight Time),468203.2000000477,A,ar,I,r,181,2,598.7000000476837,467604.5,8098,WL,B,4.0
4,11.097999811172485,learn,48902.000188827515,Tue May 12 2026 14:39:26 GMT-0500 (Central Daylight Time),468736.40000009537,A,arm,I,m,513,2,1131.9000000953674,467604.5,8098,WL,B,4.0
4,11.513000011444092,learn,48486.99998855591,Tue May 12 2026 14:39:26 GMT-0500 (Central Daylight Time),469152.0,A,armenter,I,enter,396,2,1547.5,467604.5,8098,WL,B,4.0
4,11.879999876022339,learn,48120.00012397766,Tue May 12 2026 14:39:26 GMT-0500 (Central Daylight Time),469519.3000000715,A,s,I,s,347,2,367.0,469152.3000000715,8098,WL,B,5.0
4,12.148000001907349,learn,47851.99999809265,Tue May 12 2026 14:39:26 GMT-0500 (Central Daylight Time),469786.7000000477,A,st,I,t,248,2,634.3999999761581,469152.3000000715,8098,WL,B,5.0
4,12.332000017166138,learn,47667.99998283386,Tue May 12 2026 14:39:26 GMT-0500 (Central Daylight Time),469970.5,A,sta,I,a,170,2,818.1999999284744,469152.3000000715,8098,WL,B,5.0
4,12.495999813079834,learn,47504.000186920166,Tue May 12 2026 14:39:26 GMT-0500 (Central Daylight Time),470135.3000000715,A,star,I,r,153,2,983.0,469152.3000000715,8098,WL,B,5.0
4,12.980000019073486,learn,47019.999980926514,Tue May 12 2026 14:39:26 GMT-0500 (Central Daylight Time),470618.90000009537,A,starenter,I,enter,471,2,1466.6000000238419,469152.3000000715,8098,WL,B,5.0
4,13.36299991607666,learn,46637.00008392334,Tue May 12 2026 14:39:26 GMT-0500 (Central Daylight Time),471002.5,A,w,I,w,363,2,383.39999997615814,470619.10000002384,8098,WL,B,6.0
4,13.563999891281128,learn,46436.00010871887,Tue May 12 2026 14:39:26 GMT-0500 (Central Daylight Time),471203.10000002384,A,wi,I,i,184,2,584.0,470619.10000002384,8098,WL,B,6.0
4,13.763999938964844,learn,46236.000061035156,Tue May 12 2026 14:39:26 GMT-0500 (Central Daylight Time),471402.90000009537,A,wif,I,f,184,2,783.8000000715256,470619.10000002384,8098,WL,B,6.0
4,14.16100001335144,learn,45838.99998664856,Tue May 12 2026 14:39:26 GMT-0500 (Central Daylight Time),471799.90000009537,A,wife,I,e,377,2,1180.8000000715256,470619.10000002384,8098,WL,B,6.0
4,14.628999948501587,learn,45371.00005149841,Tue May 12 2026 14:39:26 GMT-0500 (Central Daylight Time),472267.8000000715,A,wifeenter,I,enter,465,2,1648.7000000476837,470619.10000002384,8098,WL,B,6.0
4,15.046000003814697,learn,44953.9999961853,Tue May 12 2026 14:39:26 GMT-0500 (Central Daylight Time),472685.10000002384,A,w,I,w,400,2,417.0,472268.10000002384,8098,WL,B,7.0
4,15.227999925613403,learn,44772.0000743866,Tue May 12 2026 14:39:26 GMT-0500 (Central Daylight Time),472866.8000000715,A,wi,I,i,167,2,598.7000000476837,472268.10000002384,8098,WL,B,7.0
4,15.44599986076355,learn,44554.00013923645,Tue May 12 2026 14:39:26 GMT-0500 (Central Daylight Time),473084.3000000715,A,win,I,n,208,2,816.2000000476837,472268.10000002384,8098,WL,B,7.0
4,15.69599986076355,learn,44304.00013923645,Tue May 12 2026 14:39:26 GMT-0500 (Central Daylight Time),473334.40000009537,A,wind,I,d,239,2,1066.3000000715256,472268.10000002384,8098,WL,B,7.0
4,16.34599995613098,learn,43654.00004386902,Tue May 12 2026 14:39:26 GMT-0500 (Central Daylight Time),473985.10000002384,A,windo,I,o,638,2,1717.0,472268.10000002384,8098,WL,B,7.0
4,16.561999797821045,learn,43438.000202178955,Tue May 12 2026 14:39:26 GMT-0500 (Central Daylight Time),474201.10000002384,A,window,I,w,196,2,1933.0,472268.10000002384,8098,WL,B,7.0
4,16.96399998664856,learn,43036.00001335144,Tue May 12 2026 14:39:26 GMT-0500 (Central Daylight Time),474602.5,A,windowenter,I,enter,380,2,2334.399999976158,472268.10000002384,8098,WL,B,7.0
4,17.394999980926514,learn,42605.000019073486,Tue May 12 2026 14:39:26 GMT-0500 (Central Daylight Time),475034.3000000715,A,c,I,c,414,2,431.5,474602.8000000715,8098,WL,B,8.0
4,17.544999837875366,learn,42455.000162124634,Tue May 12 2026 14:39:26 GMT-0500 (Central Daylight Time),475183.7000000477,A,ci,I,i,139,2,580.8999999761581,474602.8000000715,8098,WL,B,8.0
4,17.710999965667725,learn,42289.000034332275,Tue May 12 2026 14:39:26 GMT-0500 (Central Daylight Time),475350.40000009537,A,cit,I,t,154,2,747.6000000238419,474602.8000000715,8098,WL,B,8.0
4,17.878000020980835,learn,42121.999979019165,Tue May 12 2026 14:39:26 GMT-0500 (Central Daylight Time),475517.10000002384,A,city,I,y,162,2,914.2999999523163,474602.8000000715,8098,WL,B,8.0
4,18.628000020980835,learn,41371.999979019165,Tue May 12 2026 14:39:26 GMT-0500 (Central Daylight Time),476266.60000002384,A,cityenter,I,enter,742,2,1663.7999999523163,474602.8000000715,8098,WL,B,8.0
4,21.692999839782715,learn,38307.000160217285,Tue May 12 2026 14:39:26 GMT-0500 (Central Daylight Time),479332.5,A,p,I,p,3049,2,3065.6999999284744,476266.8000000715,8098,WL,B,9.0
4,21.89299988746643,learn,38107.00011253357,Tue May 12 2026 14:39:26 GMT-0500 (Central Daylight Time),479532.3000000715,A,pu,I,u,193,2,3265.5,476266.8000000715,8098,WL,B,9.0
4,22.30999994277954,learn,37690.00005722046,Tue May 12 2026 14:39:26 GMT-0500 (Central Daylight Time),479949.2000000477,A,pup,I,p,409,2,3682.399999976158,476266.8000000715,8098,WL,B,9.0
4,22.55900001525879,learn,37440.99998474121,Tue May 12 2026 14:39:26 GMT-0500 (Central Daylight Time),480198.3000000715,A,pupi,I,i,238,2,3931.5,476266.8000000715,8098,WL,B,9.0
4,23.192999839782715,learn,36807.000160217285,Tue May 12 2026 14:39:26 GMT-0500 (Central Daylight Time),480832.10000002384,A,pupil,I,l,615,2,4565.299999952316,476266.8000000715,8098,WL,B,9.0
4,23.625999927520752,learn,36374.00007247925,Tue May 12 2026 14:39:26 GMT-0500 (Central Daylight Time),481265.2000000477,A,pupilenter,I,enter,417,2,4998.399999976158,476266.8000000715,8098,WL,B,9.0
4,24.89299988746643,learn,35107.00011253357,Tue May 12 2026 14:39:26 GMT-0500 (Central Daylight Time),482532.2000000477,A,c,I,c,1262,2,1266.7000000476837,481265.5,8098,WL,B,10.0
4,25.107999801635742,learn,34892.00019836426,Tue May 12 2026 14:39:26 GMT-0500 (Central Daylight Time),482747.5,A,ca,I,a,206,2,1482.0,481265.5,8098,WL,B,10.0
4,25.375999927520752,learn,34624.00007247925,Tue May 12 2026 14:39:26 GMT-0500 (Central Daylight Time),483014.8000000715,A,cab,I,b,256,2,1749.3000000715256,481265.5,8098,WL,B,10.0
4,25.657999992370605,learn,34342.000007629395,Tue May 12 2026 14:39:26 GMT-0500 (Central Daylight Time),483297.5,A,cabi,I,i,267,2,2032.0,481265.5,8098,WL,B,10.0
4,25.89299988746643,learn,34107.00011253357,Tue May 12 2026 14:39:26 GMT-0500 (Central Daylight Time),483531.90000009537,A,cabin,I,n,219,2,2266.4000000953674,481265.5,8098,WL,B,10.0
4,26.292999982833862,learn,33707.00001716614,Tue May 12 2026 14:39:26 GMT-0500 (Central Daylight Time),483932.3000000715,A,cabinenter,I,enter,385,2,2666.8000000715256,481265.5,8098,WL,B,10.0
4,26.89199995994568,learn,33108.00004005432,Tue May 12 2026 14:39:26 GMT-0500 (Central Daylight Time),484530.7000000477,A,l,I,l,584,2,598.1000000238419,483932.60000002384,8098,WL,B,11.0
4,27.009999990463257,learn,32990.00000953674,Tue May 12 2026 14:39:26 GMT-0500 (Central Daylight Time),484649.2000000477,A,la,I,a,97,2,716.6000000238419,483932.60000002384,8098,WL,B,11.0
4,27.307999849319458,learn,32692.000150680542,Tue May 12 2026 14:39:26 GMT-0500 (Central Daylight Time),484947.3000000715,A,lak,I,k,290,2,1014.7000000476837,483932.60000002384,8098,WL,B,11.0
4,27.45899987220764,learn,32541.00012779236,Tue May 12 2026 14:39:26 GMT-0500 (Central Daylight Time),485097.90000009537,A,lake,I,e,130,2,1165.3000000715256,483932.60000002384,8098,WL,B,11.0
4,27.907999992370605,learn,32092.000007629395,Tue May 12 2026 14:39:26 GMT-0500 (Central Daylight Time),485547.2000000477,A,lakeenter,I,enter,433,2,1614.6000000238419,483932.60000002384,8098,WL,B,11.0
4,28.825999975204468,learn,31174.000024795532,Tue May 12 2026 14:39:26 GMT-0500 (Central Daylight Time),486465.3000000715,A,p,I,p,914,2,917.8999999761581,485547.40000009537,8098,WL,B,12.0
4,29.14199995994568,learn,30858.00004005432,Tue May 12 2026 14:39:26 GMT-0500 (Central Daylight Time),486780.90000009537,A,pi,I,i,298,2,1233.5,485547.40000009537,8098,WL,B,12.0
4,30.107999801635742,learn,29892.000198364258,Tue May 12 2026 14:39:26 GMT-0500 (Central Daylight Time),487747.10000002384,A,pip,I,p,961,2,2199.6999999284744,485547.40000009537,8098,WL,B,12.0
4,30.406999826431274,learn,29593.000173568726,Tue May 12 2026 14:39:26 GMT-0500 (Central Daylight Time),488046.10000002384,A,pipe,I,e,288,2,2498.6999999284744,485547.40000009537,8098,WL,B,12.0
4,31.090999841690063,learn,28909.000158309937,Tue May 12 2026 14:39:26 GMT-0500 (Central Daylight Time),488730.10000002384,A,pipeenter,I,enter,664,2,3182.6999999284744,485547.40000009537,8098,WL,B,12.0
4,31.789999961853027,learn,28210.000038146973,Tue May 12 2026 14:39:26 GMT-0500 (Central Daylight Time),489429.0,A,f,I,f,682,2,698.6999999284744,488730.3000000715,8098,WL,B,13.0
4,32.04099988937378,learn,27959.00011062622,Tue May 12 2026 14:39:26 GMT-0500 (Central Daylight Time),489680.2000000477,A,fi,I,i,229,2,949.8999999761581,488730.3000000715,8098,WL,B,13.0
4,32.20700001716614,learn,27792.999982833862,Tue May 12 2026 14:39:26 GMT-0500 (Central Daylight Time),489846.0,A,fir,I,r,147,2,1115.6999999284744,488730.3000000715,8098,WL,B,13.0
4,32.35699987411499,learn,27643.00012588501,Tue May 12 2026 14:39:26 GMT-0500 (Central Daylight Time),489995.8000000715,A,fire,I,e,134,2,1265.5,488730.3000000715,8098,WL,B,13.0
4,32.78999996185303,learn,27210.000038146973,Tue May 12 2026 14:39:26 GMT-0500 (Central Daylight Time),490429.2000000477,A,fireenter,I,enter,415,2,1698.8999999761581,488730.3000000715,8098,WL,B,13.0
4,33.223999977111816,learn,26776.000022888184,Tue May 12 2026 14:39:26 GMT-0500 (Central Daylight Time),490863.2000000477,A,s,I,s,413,2,433.7000000476837,490429.5,8098,WL,B,14.0
4,33.40599989891052,learn,26594.000101089478,Tue May 12 2026 14:39:26 GMT-0500 (Central Daylight Time),491045.5,A,sk,I,k,163,2,616.0,490429.5,8098,WL,B,14.0
4,33.638999938964844,learn,26361.000061035156,Tue May 12 2026 14:39:26 GMT-0500 (Central Daylight Time),491278.0,A,ski,I,i,222,2,848.5,490429.5,8098,WL,B,14.0
4,33.95700001716614,learn,26042.999982833862,Tue May 12 2026 14:39:26 GMT-0500 (Central Daylight Time),491595.60000002384,A,skin,I,n,311,2,1166.1000000238419,490429.5,8098,WL,B,14.0
4,34.44099998474121,learn,25559.00001525879,Tue May 12 2026 14:39:26 GMT-0500 (Central Daylight Time),492079.7000000477,A,skinenter,I,enter,474,2,1650.2000000476837,490429.5,8098,WL,B,14.0
4,34.89099979400635,learn,25109.000205993652,Tue May 12 2026 14:39:26 GMT-0500 (Central Daylight Time),492529.7000000477,A,c,I,c,446,2,449.7999999523163,492079.90000009537,8098,WL,B,15.0
4,35.1729998588562,learn,24827.0001411438,Tue May 12 2026 14:39:26 GMT-0500 (Central Daylight Time),492812.10000002384,A,cl,I,l,278,2,732.1999999284744,492079.90000009537,8098,WL,B,15.0
4,35.44099998474121,learn,24559.00001525879,Tue May 12 2026 14:39:26 GMT-0500 (Central Daylight Time),493079.90000009537,A,clo,I,o,255,2,1000.0,492079.90000009537,8098,WL,B,15.0
4,35.68899989128113,learn,24311.000108718872,Tue May 12 2026 14:39:26 GMT-0500 (Central Daylight Time),493328.40000009537,A,cloc,I,c,237,2,1248.5,492079.90000009537,8098,WL,B,15.0
4,35.82200002670288,learn,24177.99997329712,Tue May 12 2026 14:39:26 GMT-0500 (Central Daylight Time),493460.8000000715,A,clock,I,k,122,2,1380.8999999761581,492079.90000009537,8098,WL,B,15.0
4,36.20599985122681,learn,23794.000148773193,Tue May 12 2026 14:39:26 GMT-0500 (Central Daylight Time),493845.3000000715,A,clockenter,I,enter,374,2,1765.3999999761581,492079.90000009537,8098,WL,B,15.0
5,0.7159998416900635,learn,60000.0,Tue May 12 2026 14:39:26 GMT-0500 (Central Daylight Time),558740.5,A,s,I,s,698,2,716.0999999046326,558024.4000000954,8098,WL,B,1.0
5,0.8829998970031738,learn,60000.0,Tue May 12 2026 14:39:26 GMT-0500 (Central Daylight Time),558907.3000000715,A,st,I,t,155,2,882.8999999761581,558024.4000000954,8098,WL,B,1.0
5,1.1329998970031738,learn,60000.0,Tue May 12 2026 14:39:26 GMT-0500 (Central Daylight Time),559157.5,A,str,I,r,231,2,1133.0999999046326,558024.4000000954,8098,WL,B,1.0
5,1.4499998092651367,learn,60000.0,Tue May 12 2026 14:39:26 GMT-0500 (Central Daylight Time),559474.0,A,stre,I,e,307,2,1449.5999999046326,558024.4000000954,8098,WL,B,1.0
5,1.682999849319458,learn,60000.0,Tue May 12 2026 14:39:26 GMT-0500 (Central Daylight Time),559706.8000000715,A,stree,I,e,213,2,1682.3999999761581,558024.4000000954,8098,WL,B,1.0
5,1.8329999446868896,learn,60000.0,Tue May 12 2026 14:39:26 GMT-0500 (Central Daylight Time),559857.2000000477,A,street,I,t,133,2,1832.7999999523163,558024.4000000954,8098,WL,B,1.0
5,2.5490000247955322,learn,60000.0,Tue May 12 2026 14:39:26 GMT-0500 (Central Daylight Time),560573.1000000238,A,streetenter,I,enter,695,2,2548.6999999284744,558024.4000000954,8098,WL,B,1.0
5,3.1989998817443848,learn,60000.0,Tue May 12 2026 14:39:26 GMT-0500 (Central Daylight Time),561223.1000000238,A,c,I,c,639,2,649.6999999284744,560573.4000000954,8098,WL,B,2.0
5,3.6489999294281006,learn,60000.0,Tue May 12 2026 14:39:26 GMT-0500 (Central Daylight Time),561672.8000000715,A,,I,backspace,434,2,1099.3999999761581,560573.4000000954,8098,WL,B,2.0
5,3.748999834060669,learn,60000.0,Tue May 12 2026 14:39:26 GMT-0500 (Central Daylight Time),561773.0,A,g,I,g,88,2,1199.5999999046326,560573.4000000954,8098,WL,B,2.0
5,4.23199987411499,learn,60000.0,Tue May 12 2026 14:39:26 GMT-0500 (Central Daylight Time),562255.8000000715,A,gl,I,l,470,2,1682.3999999761581,560573.4000000954,8098,WL,B,2.0
5,4.631999969482422,learn,60000.0,Tue May 12 2026 14:39:26 GMT-0500 (Central Daylight Time),562656.9000000954,A,g,I,backspace,388,2,2083.5,560573.4000000954,8098,WL,B,2.0
5,4.747999906539917,learn,60000.0,Tue May 12 2026 14:39:26 GMT-0500 (Central Daylight Time),562772.0,A,gr,I,r,104,2,2198.5999999046326,560573.4000000954,8098,WL,B,2.0
5,4.914999961853027,learn,60000.0,Tue May 12 2026 14:39:26 GMT-0500 (Central Daylight Time),562939.1000000238,A,gra,I,a,144,2,2365.6999999284744,560573.4000000954,8098,WL,B,2.0
5,5.865000009536743,learn,60000.0,Tue May 12 2026 14:39:26 GMT-0500 (Central Daylight Time),563889.1000000238,A,gras,I,s,928,2,3315.6999999284744,560573.4000000954,8098,WL,B,2.0
5,6.0309998989105225,learn,60000.0,Tue May 12 2026 14:39:26 GMT-0500 (Central Daylight Time),564055.6000000238,A,grass,I,s,152,2,3482.1999999284744,560573.4000000954,8098,WL,B,2.0
5,6.596999883651733,learn,60000.0,Tue May 12 2026 14:39:26 GMT-0500 (Central Daylight Time),564620.9000000954,A,grassenter,I,enter,555,2,4047.5,560573.4000000954,8098,WL,B,2.0
5,7.2809998989105225,learn,60000.0,Tue May 12 2026 14:39:26 GMT-0500 (Central Daylight Time),565305.7000000477,A,d,I,d,667,2,684.7000000476837,564621.0,8098,WL,B,3.0
5,7.5309998989105225,learn,60000.0,Tue May 12 2026 14:39:26 GMT-0500 (Central Daylight Time),565555.0,A,do,I,o,232,2,934.0,564621.0,8098,WL,B,3.0
5,7.7149999141693115,learn,60000.0,Tue May 12 2026 14:39:26 GMT-0500 (Central Daylight Time),565739.0,A,doo,I,o,169,2,1118.0,564621.0,8098,WL,B,3.0
5,7.863999843597412,learn,60000.0,Tue May 12 2026 14:39:26 GMT-0500 (Central Daylight Time),565888.0,A,door,I,r,136,2,1267.0,564621.0,8098,WL,B,3.0
5,8.297999858856201,learn,60000.0,Tue May 12 2026 14:39:26 GMT-0500 (Central Daylight Time),566321.8000000715,A,doorenter,I,enter,417,2,1700.8000000715256,564621.0,8098,WL,B,3.0
5,8.680999994277954,learn,60000.0,Tue May 12 2026 14:39:26 GMT-0500 (Central Daylight Time),566705.4000000954,A,a,I,a,370,2,383.3000000715256,566322.1000000238,8098,WL,B,4.0
5,8.813999891281128,learn,60000.0,Tue May 12 2026 14:39:26 GMT-0500 (Central Daylight Time),566837.7000000477,A,ar,I,r,120,2,515.6000000238419,566322.1000000238,8098,WL,B,4.0
5,9.246999979019165,learn,60000.0,Tue May 12 2026 14:39:26 GMT-0500 (Central Daylight Time),567271.0,A,arm,I,m,411,2,948.8999999761581,566322.1000000238,8098,WL,B,4.0
5,9.679999828338623,learn,60000.0,Tue May 12 2026 14:39:26 GMT-0500 (Central Daylight Time),567704.2000000477,A,armenter,I,enter,412,2,1382.1000000238419,566322.1000000238,8098,WL,B,4.0
5,10.13099980354309,learn,60000.0,Tue May 12 2026 14:39:26 GMT-0500 (Central Daylight Time),568155.1000000238,A,s,I,s,431,2,450.6999999284744,567704.4000000954,8098,WL,B,5.0
5,10.264999866485596,learn,60000.0,Tue May 12 2026 14:39:26 GMT-0500 (Central Daylight Time),568288.8000000715,A,st,I,t,110,2,584.3999999761581,567704.4000000954,8098,WL,B,5.0
5,10.480000019073486,learn,60000.0,Tue May 12 2026 14:39:26 GMT-0500 (Central Daylight Time),568504.6000000238,A,sta,I,a,202,2,800.1999999284744,567704.4000000954,8098,WL,B,5.0
5,10.611999988555908,learn,60000.0,Tue May 12 2026 14:39:26 GMT-0500 (Central Daylight Time),568635.9000000954,A,star,I,r,118,2,931.5,567704.4000000954,8098,WL,B,5.0
5,11.179999828338623,learn,60000.0,Tue May 12 2026 14:39:26 GMT-0500 (Central Daylight Time),569203.8000000715,A,starenter,I,enter,552,2,1499.3999999761581,567704.4000000954,8098,WL,B,5.0
5,11.562999963760376,learn,60000.0,Tue May 12 2026 14:39:26 GMT-0500 (Central Daylight Time),569587.4000000954,A,w,I,w,367,2,383.3000000715256,569204.1000000238,8098,WL,B,6.0
5,12.412999868392944,learn,60000.0,Tue May 12 2026 14:39:26 GMT-0500 (Central Daylight Time),570436.8000000715,A,wi,I,i,832,2,1232.7000000476837,569204.1000000238,8098,WL,B,6.0
5,12.595999956130981,learn,60000.0,Tue May 12 2026 14:39:26 GMT-0500 (Central Daylight Time),570619.8000000715,A,wif,I,f,173,2,1415.7000000476837,569204.1000000238,8098,WL,B,6.0
5,12.912999868392944,learn,60000.0,Tue May 12 2026 14:39:26 GMT-0500 (Central Daylight Time),570937.2000000477,A,wife,I,e,294,2,1733.1000000238419,569204.1000000238,8098,WL,B,6.0
5,13.444999933242798,learn,60000.0,Tue May 12 2026 14:39:26 GMT-0500 (Central Daylight Time),571469.5,A,wifeenter,I,enter,513,2,2265.399999976158,569204.1000000238,8098,WL,B,6.0
5,13.962999820709229,learn,60000.0,Tue May 12 2026 14:39:26 GMT-0500 (Central Daylight Time),571986.7000000477,A,c,I,c,501,2,516.8999999761581,571469.8000000715,8098,WL,B,7.0
5,14.128999948501587,learn,60000.0,Tue May 12 2026 14:39:26 GMT-0500 (Central Daylight Time),572152.7000000477,A,ci,I,i,143,2,682.8999999761581,571469.8000000715,8098,WL,B,7.0
5,14.27899980545044,learn,60000.0,Tue May 12 2026 14:39:26 GMT-0500 (Central Daylight Time),572303.1000000238,A,cit,I,t,140,2,833.2999999523163,571469.8000000715,8098,WL,B,7.0
5,14.444999933242798,learn,60000.0,Tue May 12 2026 14:39:26 GMT-0500 (Central Daylight Time),572469.6000000238,A,city,I,y,148,2,999.7999999523163,571469.8000000715,8098,WL,B,7.0
5,14.912999868392944,learn,60000.0,Tue May 12 2026 14:39:26 GMT-0500 (Central Daylight Time),572936.9000000954,A,cityenter,I,enter,452,2,1467.1000000238419,571469.8000000715,8098,WL,B,7.0
5,15.260999917984009,learn,60000.0,Tue May 12 2026 14:39:26 GMT-0500 (Central Daylight Time),573285.1000000238,A,w,I,w,330,2,347.89999997615814,572937.2000000477,8098,WL,B,8.0
5,15.44700002670288,learn,60000.0,Tue May 12 2026 14:39:26 GMT-0500 (Central Daylight Time),573471.2000000477,A,wi,I,i,166,2,534.0,572937.2000000477,8098,WL,B,8.0
5,15.661999940872192,learn,60000.0,Tue May 12 2026 14:39:26 GMT-0500 (Central Daylight Time),573686.6000000238,A,win,I,n,195,2,749.3999999761581,572937.2000000477,8098,WL,B,8.0
5,15.845999956130981,learn,60000.0,Tue May 12 2026 14:39:26 GMT-0500 (Central Daylight Time),573870.0,A,wind,I,d,166,2,932.7999999523163,572937.2000000477,8098,WL,B,8.0
5,16.294999837875366,learn,60000.0,Tue May 12 2026 14:39:26 GMT-0500 (Central Daylight Time),574319.0,A,windo,I,o,429,2,1381.7999999523163,572937.2000000477,8098,WL,B,8.0
5,16.42799997329712,learn,60000.0,Tue May 12 2026 14:39:26 GMT-0500 (Central Daylight Time),574452.4000000954,A,window,I,w,122,2,1515.2000000476837,572937.2000000477,8098,WL,B,8.0
5,16.82699990272522,learn,60000.0,Tue May 12 2026 14:39:26 GMT-0500 (Central Daylight Time),574851.5,A,windowenter,I,enter,382,2,1914.2999999523163,572937.2000000477,8098,WL,B,8.0
5,22.05999994277954,learn,60000.0,Tue May 12 2026 14:39:26 GMT-0500 (Central Daylight Time),580083.7000000477,A,l,I,l,5225,2,5231.899999976158,574851.8000000715,8098,WL,B,9.0
5,22.210000038146973,learn,60000.0,Tue May 12 2026 14:39:26 GMT-0500 (Central Daylight Time),580233.9000000954,A,la,I,a,131,2,5382.100000023842,574851.8000000715,8098,WL,B,9.0
5,22.508999824523926,learn,60000.0,Tue May 12 2026 14:39:26 GMT-0500 (Central Daylight Time),580533.5,A,lak,I,k,281,2,5681.699999928474,574851.8000000715,8098,WL,B,9.0
5,22.64199995994568,learn,60000.0,Tue May 12 2026 14:39:26 GMT-0500 (Central Daylight Time),580666.2000000477,A,lake,I,e,127,2,5814.399999976158,574851.8000000715,8098,WL,B,9.0
5,23.057999849319458,learn,60000.0,Tue May 12 2026 14:39:26 GMT-0500 (Central Daylight Time),581082.7000000477,A,lakeenter,I,enter,402,2,6230.899999976158,574851.8000000715,8098,WL,B,9.0
5,23.425999879837036,learn,60000.0,Tue May 12 2026 14:39:26 GMT-0500 (Central Daylight Time),581449.8000000715,A,c,I,c,346,2,366.89999997615814,581082.9000000954,8098,WL,B,10.0
5,23.628000020980835,learn,60000.0,Tue May 12 2026 14:39:26 GMT-0500 (Central Daylight Time),581652.0,A,ca,I,a,189,2,569.0999999046326,581082.9000000954,8098,WL,B,10.0
5,23.82699990272522,learn,60000.0,Tue May 12 2026 14:39:26 GMT-0500 (Central Daylight Time),581850.8000000715,A,cab,I,b,177,2,767.8999999761581,581082.9000000954,8098,WL,B,10.0
5,24.125999927520752,learn,60000.0,Tue May 12 2026 14:39:26 GMT-0500 (Central Daylight Time),582150.1000000238,A,cabi,I,i,287,2,1067.1999999284744,581082.9000000954,8098,WL,B,10.0
5,24.391000032424927,learn,60000.0,Tue May 12 2026 14:39:26 GMT-0500 (Central Daylight Time),582415.6000000238,A,cabin,I,n,252,2,1332.6999999284744,581082.9000000954,8098,WL,B,10.0
5,24.79099988937378,learn,60000.0,Tue May 12 2026 14:39:26 GMT-0500 (Central Daylight Time),582815.4000000954,A,cabinenter,I,enter,388,2,1732.5,581082.9000000954,8098,WL,B,10.0
5,25.240999937057495,learn,60000.0,Tue May 12 2026 14:39:26 GMT-0500 (Central Daylight Time),583264.8000000715,A,p,I,p,436,2,449.2000000476837,582815.6000000238,8098,WL,B,11.0
5,25.47699999809265,learn,60000.0,Tue May 12 2026 14:39:26 GMT-0500 (Central Daylight Time),583500.9000000954,A,pu,I,u,231,2,685.3000000715256,582815.6000000238,8098,WL,B,11.0
5,25.842000007629395,learn,60000.0,Tue May 12 2026 14:39:26 GMT-0500 (Central Daylight Time),583866.6000000238,A,pup,I,p,344,2,1051.0,582815.6000000238,8098,WL,B,11.0
5,26.05999994277954,learn,60000.0,Tue May 12 2026 14:39:26 GMT-0500 (Central Daylight Time),584083.7000000477,A,pupi,I,i,195,2,1268.1000000238419,582815.6000000238,8098,WL,B,11.0
5,26.274999856948853,learn,60000.0,Tue May 12 2026 14:39:26 GMT-0500 (Central Daylight Time),584298.7000000477,A,pupil,I,l,197,2,1483.1000000238419,582815.6000000238,8098,WL,B,11.0
5,26.70799994468689,learn,60000.0,Tue May 12 2026 14:39:26 GMT-0500 (Central Daylight Time),584732.1000000238,A,pupilenter,I,enter,426,2,1916.5,582815.6000000238,8098,WL,B,11.0
5,27.47499990463257,learn,60000.0,Tue May 12 2026 14:39:26 GMT-0500 (Central Daylight Time),585499.4000000954,A,p,I,p,760,2,767.1000000238419,584732.3000000715,8098,WL,B,12.0
5,27.70799994468689,learn,60000.0,Tue May 12 2026 14:39:26 GMT-0500 (Central Daylight Time),585732.3000000715,A,pi,I,i,225,2,1000.0,584732.3000000715,8098,WL,B,12.0
5,28.307999849319458,learn,60000.0,Tue May 12 2026 14:39:26 GMT-0500 (Central Daylight Time),586331.7000000477,A,pip,I,p,578,2,1599.3999999761581,584732.3000000715,8098,WL,B,12.0
5,28.573999881744385,learn,60000.0,Tue May 12 2026 14:39:26 GMT-0500 (Central Daylight Time),586598.6000000238,A,pipe,I,e,245,2,1866.2999999523163,584732.3000000715,8098,WL,B,12.0
5,28.924000024795532,learn,60000.0,Tue May 12 2026 14:39:26 GMT-0500 (Central Daylight Time),586947.9000000954,A,pipeenter,I,enter,332,2,2215.600000023842,584732.3000000715,8098,WL,B,12.0
5,29.289999961853027,learn,60000.0,Tue May 12 2026 14:39:26 GMT-0500 (Central Daylight Time),587314.6000000238,A,s,I,s,352,2,366.60000002384186,586948.0,8098,WL,B,13.0
5,29.47499990463257,learn,60000.0,Tue May 12 2026 14:39:26 GMT-0500 (Central Daylight Time),587499.2000000477,A,sk,I,k,171,2,551.2000000476837,586948.0,8098,WL,B,13.0
5,29.70799994468689,learn,60000.0,Tue May 12 2026 14:39:26 GMT-0500 (Central Daylight Time),587732.4000000954,A,ski,I,i,212,2,784.4000000953674,586948.0,8098,WL,B,13.0
5,29.93999981880188,learn,60000.0,Tue May 12 2026 14:39:26 GMT-0500 (Central Daylight Time),587964.4000000954,A,skin,I,n,217,2,1016.4000000953674,586948.0,8098,WL,B,13.0
5,30.37399983406067,learn,60000.0,Tue May 12 2026 14:39:26 GMT-0500 (Central Daylight Time),588398.4000000954,A,skinenter,I,enter,412,2,1450.4000000953674,586948.0,8098,WL,B,13.0
5,30.756999969482422,learn,60000.0,Tue May 12 2026 14:39:26 GMT-0500 (Central Daylight Time),588780.8000000715,A,c,I,c,372,2,382.10000002384186,588398.7000000477,8098,WL,B,14.0
5,31.223999977111816,learn,60000.0,Tue May 12 2026 14:39:26 GMT-0500 (Central Daylight Time),589248.0,A,cl,I,l,454,2,849.2999999523163,588398.7000000477,8098,WL,B,14.0
5,31.555999994277954,learn,60000.0,Tue May 12 2026 14:39:26 GMT-0500 (Central Daylight Time),589580.5,A,clo,I,o,315,2,1181.7999999523163,588398.7000000477,8098,WL,B,14.0
5,32.10699987411499,learn,60000.0,Tue May 12 2026 14:39:26 GMT-0500 (Central Daylight Time),590131.4000000954,A,cloc,I,c,529,2,1732.7000000476837,588398.7000000477,8098,WL,B,14.0
5,32.27300000190735,learn,60000.0,Tue May 12 2026 14:39:26 GMT-0500 (Central Daylight Time),590297.1000000238,A,clock,I,k,162,2,1898.3999999761581,588398.7000000477,8098,WL,B,14.0
5,32.87399983406067,learn,60000.0,Tue May 12 2026 14:39:26 GMT-0500 (Central Daylight Time),590897.8000000715,A,clockenter,I,enter,589,2,2499.100000023842,588398.7000000477,8098,WL,B,14.0
5,33.4229998588562,learn,60000.0,Tue May 12 2026 14:39:26 GMT-0500 (Central Daylight Time),591446.7000000477,A,c,I,c,539,2,548.6000000238419,590898.1000000238,8098,WL,B,15.0
5,34.105000019073486,learn,60000.0,Tue May 12 2026 14:39:26 GMT-0500 (Central Daylight Time),592129.3000000715,A,ca,I,a,662,2,1231.2000000476837,590898.1000000238,8098,WL,B,15.0
5,35.50699996948242,learn,60000.0,Tue May 12 2026 14:39:26 GMT-0500 (Central Daylight Time),593530.8000000715,A,c,I,backspace,1379,2,2632.7000000476837,590898.1000000238,8098,WL,B,15.0
5,35.722999811172485,learn,60000.0,Tue May 12 2026 14:39:26 GMT-0500 (Central Daylight Time),593747.5,A,,I,backspace,196,2,2849.399999976158,590898.1000000238,8098,WL,B,15.0
5,37.370999813079834,learn,60000.0,Tue May 12 2026 14:39:26 GMT-0500 (Central Daylight Time),595395.8000000715,A,l,I,l,1631,2,4497.700000047684,590898.1000000238,8098,WL,B,15.0
5,37.47199988365173,learn,60000.0,Tue May 12 2026 14:39:26 GMT-0500 (Central Daylight Time),595496.0,A,la,I,a,88,2,4597.899999976158,590898.1000000238,8098,WL,B,15.0
5,37.92199993133545,learn,60000.0,Tue May 12 2026 14:39:26 GMT-0500 (Central Daylight Time),595946.8000000715,A,lak,I,k,435,2,5048.700000047684,590898.1000000238,8098,WL,B,15.0
5,38.08699989318848,learn,60000.0,Tue May 12 2026 14:39:26 GMT-0500 (Central Daylight Time),596111.8000000715,A,lake,I,e,144,2,5213.700000047684,590898.1000000238,8098,WL,B,15.0
5,38.4539999961853,learn,60000.0,Tue May 12 2026 14:39:26 GMT-0500 (Central Daylight Time),596478.7000000477,A,lakeenter,I,enter,344,2,5580.600000023842,590898.1000000238,8098,WL,B,15.0
6,1.0,distr,59000.0,Tue May 12 2026 14:39:26 GMT-0500 (Central Daylight Time),665739.7000000477,B,b,I,b,982,2,999.5,664740.2000000477,8098,WL,B,1.0
6,1.1349999904632568,distr,58865.00000953674,Tue May 12 2026 14:39:26 GMT-0500 (Central Daylight Time),665874.1000000238,B,ba,I,a,116,2,1133.8999999761581,664740.2000000477,8098,WL,B,1.0
6,1.3700001239776611,distr,58629.99987602234,Tue May 12 2026 14:39:26 GMT-0500 (Central Daylight Time),666109.7000000477,B,bab,I,b,213,2,1369.5,664740.2000000477,8098,WL,B,1.0
6,2.0510001182556152,distr,57948.999881744385,Tue May 12 2026 14:39:26 GMT-0500 (Central Daylight Time),666790.1000000238,B,baby,I,y,670,2,2049.899999976158,664740.2000000477,8098,WL,B,1.0
6,2.5160000324249268,distr,57483.99996757507,Tue May 12 2026 14:39:26 GMT-0500 (Central Daylight Time),667255.8000000715,B,babyenter,I,enter,454,2,2515.600000023842,664740.2000000477,8098,WL,B,1.0
6,2.9010000228881836,distr,57098.99997711182,Tue May 12 2026 14:39:26 GMT-0500 (Central Daylight Time),667640.8000000715,B,o,I,o,374,2,384.8000000715256,667256.0,8098,WL,B,2.0
6,3.75,distr,56250.0,Tue May 12 2026 14:39:26 GMT-0500 (Central Daylight Time),668489.1000000238,B,oe,I,e,834,2,1233.1000000238419,667256.0,8098,WL,B,2.0
6,4.016000032424927,distr,55983.99996757507,Tue May 12 2026 14:39:26 GMT-0500 (Central Daylight Time),668756.0,B,oea,I,a,259,2,1500.0,667256.0,8098,WL,B,2.0
6,4.500999927520752,distr,55499.00007247925,Tue May 12 2026 14:39:26 GMT-0500 (Central Daylight Time),669240.4000000954,B,oe,I,backspace,472,2,1984.4000000953674,667256.0,8098,WL,B,2.0
6,4.681999921798706,distr,55318.000078201294,Tue May 12 2026 14:39:26 GMT-0500 (Central Daylight Time),669421.5,B,o,I,backspace,162,2,2165.5,667256.0,8098,WL,B,2.0
6,4.783999919891357,distr,55216.00008010864,Tue May 12 2026 14:39:26 GMT-0500 (Central Daylight Time),669523.1000000238,B,oc,I,c,87,2,2267.100000023842,667256.0,8098,WL,B,2.0
6,5.049000024795532,distr,54950.99997520447,Tue May 12 2026 14:39:26 GMT-0500 (Central Daylight Time),669788.7000000477,B,oce,I,e,257,2,2532.7000000476837,667256.0,8098,WL,B,2.0
6,5.233000040054321,distr,54766.99995994568,Tue May 12 2026 14:39:26 GMT-0500 (Central Daylight Time),669972.1000000238,B,ocea,I,a,161,2,2716.100000023842,667256.0,8098,WL,B,2.0
6,5.515000104904175,distr,54484.999895095825,Tue May 12 2026 14:39:26 GMT-0500 (Central Daylight Time),670254.8000000715,B,ocean,I,n,271,2,2998.8000000715256,667256.0,8098,WL,B,2.0
6,5.931999921798706,distr,54068.000078201294,Tue May 12 2026 14:39:26 GMT-0500 (Central Daylight Time),670671.5,B,oceanenter,I,enter,396,2,3415.5,667256.0,8098,WL,B,2.0
6,6.414999961853027,distr,53585.00003814697,Tue May 12 2026 14:39:26 GMT-0500 (Central Daylight Time),671154.6000000238,B,p,I,p,464,2,482.89999997615814,670671.7000000477,8098,WL,B,3.0
6,6.898000001907349,distr,53101.99999809265,Tue May 12 2026 14:39:26 GMT-0500 (Central Daylight Time),671637.8000000715,B,pa,I,a,463,2,966.1000000238419,670671.7000000477,8098,WL,B,3.0
6,7.33299994468689,distr,52667.00005531311,Tue May 12 2026 14:39:26 GMT-0500 (Central Daylight Time),672072.6000000238,B,pal,I,l,418,2,1400.8999999761581,670671.7000000477,8098,WL,B,3.0
6,7.565000057220459,distr,52434.99994277954,Tue May 12 2026 14:39:26 GMT-0500 (Central Daylight Time),672304.4000000954,B,pala,I,a,221,2,1632.7000000476837,670671.7000000477,8098,WL,B,3.0
6,7.816999912261963,distr,52183.00008773804,Tue May 12 2026 14:39:26 GMT-0500 (Central Daylight Time),672556.8000000715,B,palac,I,c,228,2,1885.1000000238419,670671.7000000477,8098,WL,B,3.0
6,8.049000024795532,distr,51950.99997520447,Tue May 12 2026 14:39:26 GMT-0500 (Central Daylight Time),672788.2000000477,B,palace,I,e,213,2,2116.5,670671.7000000477,8098,WL,B,3.0
6,8.565000057220459,distr,51434.99994277954,Tue May 12 2026 14:39:26 GMT-0500 (Central Daylight Time),673304.8000000715,B,palaceenter,I,enter,499,2,2633.100000023842,670671.7000000477,8098,WL,B,3.0
6,9.098999977111816,distr,50901.00002288818,Tue May 12 2026 14:39:26 GMT-0500 (Central Daylight Time),673838.3000000715,B,s,I,s,516,2,533.3000000715256,673305.0,8098,WL,B,4.0
6,9.247999906539917,distr,50752.00009346008,Tue May 12 2026 14:39:26 GMT-0500 (Central Daylight Time),673987.3000000715,B,st,I,t,126,2,682.3000000715256,673305.0,8098,WL,B,4.0
6,9.914000034332275,distr,50085.999965667725,Tue May 12 2026 14:39:26 GMT-0500 (Central Daylight Time),674653.6000000238,B,ste,I,e,647,2,1348.6000000238419,673305.0,8098,WL,B,4.0
6,10.098999977111816,distr,49901.00002288818,Tue May 12 2026 14:39:26 GMT-0500 (Central Daylight Time),674838.5,B,stea,I,a,165,2,1533.5,673305.0,8098,WL,B,4.0
6,10.54800009727478,distr,49451.99990272522,Tue May 12 2026 14:39:26 GMT-0500 (Central Daylight Time),675287.7000000477,B,steam,I,m,429,2,1982.7000000476837,673305.0,8098,WL,B,4.0
6,10.914000034332275,distr,49085.999965667725,Tue May 12 2026 14:39:26 GMT-0500 (Central Daylight Time),675654.0,B,steamenter,I,enter,357,2,2349.0,673305.0,8098,WL,B,4.0
6,11.380000114440918,distr,48619.99988555908,Tue May 12 2026 14:39:26 GMT-0500 (Central Daylight Time),676120.0,B,c,I,c,446,2,465.7999999523163,675654.2000000477,8098,WL,B,5.0
6,11.597000122070312,distr,48402.99987792969,Tue May 12 2026 14:39:26 GMT-0500 (Central Daylight Time),676337.0,B,co,I,o,196,2,682.7999999523163,675654.2000000477,8098,WL,B,5.0
6,11.88100004196167,distr,48118.99995803833,Tue May 12 2026 14:39:26 GMT-0500 (Central Daylight Time),676620.2000000477,B,coi,I,i,263,2,966.0,675654.2000000477,8098,WL,B,5.0
6,12.148000001907349,distr,47851.99999809265,Tue May 12 2026 14:39:26 GMT-0500 (Central Daylight Time),676887.1000000238,B,coin,I,n,243,2,1232.8999999761581,675654.2000000477,8098,WL,B,5.0
6,12.647000074386597,distr,47352.9999256134,Tue May 12 2026 14:39:26 GMT-0500 (Central Daylight Time),677386.5,B,coinenter,I,enter,478,2,1732.2999999523163,675654.2000000477,8098,WL,B,5.0
6,14.263000011444092,distr,45736.99998855591,Tue May 12 2026 14:39:26 GMT-0500 (Central Daylight Time),679002.1000000238,B,b,I,b,1600,2,1615.2999999523163,677386.8000000715,8098,WL,B,6.0
6,14.664000034332275,distr,45335.999965667725,Tue May 12 2026 14:39:26 GMT-0500 (Central Daylight Time),679403.4000000954,B,bu,I,u,387,2,2016.6000000238419,677386.8000000715,8098,WL,B,6.0
6,14.88100004196167,distr,45118.99995803833,Tue May 12 2026 14:39:26 GMT-0500 (Central Daylight Time),679620.2000000477,B,bui,I,i,201,2,2233.399999976158,677386.8000000715,8098,WL,B,6.0
6,15.163000106811523,distr,44836.99989318848,Tue May 12 2026 14:39:26 GMT-0500 (Central Daylight Time),679902.9000000954,B,buil,I,l,269,2,2516.100000023842,677386.8000000715,8098,WL,B,6.0
6,15.496000051498413,distr,44503.99994850159,Tue May 12 2026 14:39:26 GMT-0500 (Central Daylight Time),680235.1000000238,B,build,I,d,318,2,2848.2999999523163,677386.8000000715,8098,WL,B,6.0
6,15.628999948501587,distr,44371.00005149841,Tue May 12 2026 14:39:26 GMT-0500 (Central Daylight Time),680368.7000000477,B,buildi,I,i,111,2,2981.899999976158,677386.8000000715,8098,WL,B,6.0
6,15.845999956130981,distr,44154.00004386902,Tue May 12 2026 14:39:26 GMT-0500 (Central Daylight Time),680585.3000000715,B,buildin,I,n,201,2,3198.5,677386.8000000715,8098,WL,B,6.0
6,15.980999946594238,distr,44019.00005340576,Tue May 12 2026 14:39:26 GMT-0500 (Central Daylight Time),680720.2000000477,B,building,I,g,118,2,3333.399999976158,677386.8000000715,8098,WL,B,6.0
6,16.328999996185303,distr,43671.0000038147,Tue May 12 2026 14:39:26 GMT-0500 (Central Daylight Time),681068.2000000477,B,buildingenter,I,enter,339,2,3681.399999976158,677386.8000000715,8098,WL,B,6.0
6,16.878999948501587,distr,43121.00005149841,Tue May 12 2026 14:39:26 GMT-0500 (Central Daylight Time),681618.0,B,v,I,v,546,2,549.5,681068.5,8098,WL,B,7.0
6,17.111999988555908,distr,42888.00001144409,Tue May 12 2026 14:39:26 GMT-0500 (Central Daylight Time),681851.5,B,vi,I,i,217,2,783.0,681068.5,8098,WL,B,7.0
6,17.361999988555908,distr,42638.00001144409,Tue May 12 2026 14:39:26 GMT-0500 (Central Daylight Time),682101.3000000715,B,vil,I,l,240,2,1032.8000000715256,681068.5,8098,WL,B,7.0
6,17.54699993133545,distr,42453.00006866455,Tue May 12 2026 14:39:26 GMT-0500 (Central Daylight Time),682286.3000000715,B,vill,I,l,166,2,1217.8000000715256,681068.5,8098,WL,B,7.0
6,17.611000061035156,distr,42388.999938964844,Tue May 12 2026 14:39:26 GMT-0500 (Central Daylight Time),682350.2000000477,B,villa,I,a,51,2,1281.7000000476837,681068.5,8098,WL,B,7.0
6,17.878999948501587,distr,42121.00005149841,Tue May 12 2026 14:39:26 GMT-0500 (Central Daylight Time),682618.3000000715,B,villag,I,g,253,2,1549.8000000715256,681068.5,8098,WL,B,7.0
6,18.09500002861023,distr,41904.99997138977,Tue May 12 2026 14:39:26 GMT-0500 (Central Daylight Time),682834.6000000238,B,village,I,e,196,2,1766.1000000238419,681068.5,8098,WL,B,7.0
6,18.52900004386902,distr,41470.99995613098,Tue May 12 2026 14:39:26 GMT-0500 (Central Daylight Time),683268.4000000954,B,villageenter,I,enter,415,2,2199.9000000953674,681068.5,8098,WL,B,7.0
6,22.546000003814697,distr,37453.9999961853,Tue May 12 2026 14:39:26 GMT-0500 (Central Daylight Time),687285.3000000715,B,l,I,l,3995,2,4016.7000000476837,683268.6000000238,8098,WL,B,8.0
6,22.76099991798401,distr,37239.00008201599,Tue May 12 2026 14:39:26 GMT-0500 (Central Daylight Time),687500.4000000954,B,li,I,i,199,2,4231.800000071526,683268.6000000238,8098,WL,B,8.0
6,22.97699999809265,distr,37023.00000190735,Tue May 12 2026 14:39:26 GMT-0500 (Central Daylight Time),687716.8000000715,B,lip,I,p,197,2,4448.200000047684,683268.6000000238,8098,WL,B,8.0
6,23.358999967575073,distr,36641.00003242493,Tue May 12 2026 14:39:26 GMT-0500 (Central Daylight Time),688098.9000000954,B,lipenter,I,enter,376,2,4830.300000071526,683268.6000000238,8098,WL,B,8.0
6,44.0699999332428,distr,15930.000066757202,Tue May 12 2026 14:39:26 GMT-0500 (Central Daylight Time),708809.6000000238,B,enter,I,enter,20699,2,20710.5,688099.1000000238,8098,WL,B,9.0
6,44.88599991798401,distr,15114.000082015991,Tue May 12 2026 14:39:26 GMT-0500 (Central Daylight Time),709625.5,B,enter,I,enter,795,2,815.5,708810.0,8098,WL,B,10.0
6,45.36800003051758,distr,14631.999969482422,Tue May 12 2026 14:39:26 GMT-0500 (Central Daylight Time),710107.9000000954,B,enter,I,enter,473,2,482.10000002384186,709625.8000000715,8098,WL,B,11.0
6,45.80299997329712,distr,14197.00002670288,Tue May 12 2026 14:39:26 GMT-0500 (Central Daylight Time),710542.5,B,enter,I,enter,416,2,434.39999997615814,710108.1000000238,8098,WL,B,12.0
6,46.20300006866455,distr,13796.99993133545,Tue May 12 2026 14:39:26 GMT-0500 (Central Daylight Time),710942.2000000477,B,enter,I,enter,390,2,399.2999999523163,710542.9000000954,8098,WL,B,13.0
6,46.61899995803833,distr,13381.00004196167,Tue May 12 2026 14:39:26 GMT-0500 (Central Daylight Time),711358.4000000954,B,enter,I,enter,406,2,416.0,710942.4000000954,8098,WL,B,14.0
6,47.085999965667725,distr,12914.000034332275,Tue May 12 2026 14:39:26 GMT-0500 (Central Daylight Time),711825.9000000954,B,enter,I,enter,455,2,467.2000000476837,711358.7000000477,8098,WL,B,15.0
7,13.431999921798706,immed,46568.000078201294,Tue May 12 2026 14:39:26 GMT-0500 (Central Daylight Time),726339.2000000477,A,s,I,s,13408,2,13431.0,712908.2000000477,8098,WL,B,1.0
7,14.02999997138977,immed,45970.00002861023,Tue May 12 2026 14:39:26 GMT-0500 (Central Daylight Time),726937.3000000715,A,st,I,t,587,2,14029.100000023842,712908.2000000477,8098,WL,B,1.0
7,14.26200008392334,immed,45737.99991607666,Tue May 12 2026 14:39:26 GMT-0500 (Central Daylight Time),727169.8000000715,A,str,I,r,218,2,14261.600000023842,712908.2000000477,8098,WL,B,1.0
7,14.52999997138977,immed,45470.00002861023,Tue May 12 2026 14:39:26 GMT-0500 (Central Daylight Time),727437.7000000477,A,stre,I,e,245,2,14529.5,712908.2000000477,8098,WL,B,1.0
7,14.746000051498413,immed,45253.99994850159,Tue May 12 2026 14:39:26 GMT-0500 (Central Daylight Time),727653.2000000477,A,stree,I,e,204,2,14745.0,712908.2000000477,8098,WL,B,1.0
7,15.128999948501587,immed,44871.00005149841,Tue May 12 2026 14:39:26 GMT-0500 (Central Daylight Time),728036.5,A,street,I,t,367,2,15128.299999952316,712908.2000000477,8098,WL,B,1.0
7,15.911999940872192,immed,44088.00005912781,Tue May 12 2026 14:39:26 GMT-0500 (Central Daylight Time),728819.3000000715,A,streetenter,I,enter,769,2,15911.100000023842,712908.2000000477,8098,WL,B,1.0
7,16.479000091552734,immed,43520.999908447266,Tue May 12 2026 14:39:26 GMT-0500 (Central Daylight Time),729387.1000000238,A,g,I,g,552,2,567.5,728819.6000000238,8098,WL,B,2.0
7,16.680999994277954,immed,43319.000005722046,Tue May 12 2026 14:39:26 GMT-0500 (Central Daylight Time),729589.0,A,gr,I,r,196,2,769.3999999761581,728819.6000000238,8098,WL,B,2.0
7,16.878000020980835,immed,43121.999979019165,Tue May 12 2026 14:39:26 GMT-0500 (Central Daylight Time),729786.2000000477,A,gra,I,a,177,2,966.6000000238419,728819.6000000238,8098,WL,B,2.0
7,17.161999940872192,immed,42838.00005912781,Tue May 12 2026 14:39:26 GMT-0500 (Central Daylight Time),730069.3000000715,A,gras,I,s,265,2,1249.7000000476837,728819.6000000238,8098,WL,B,2.0
7,17.34500002861023,immed,42654.99997138977,Tue May 12 2026 14:39:26 GMT-0500 (Central Daylight Time),730252.7000000477,A,grass,I,s,164,2,1433.1000000238419,728819.6000000238,8098,WL,B,2.0
7,18.078999996185303,immed,41921.0000038147,Tue May 12 2026 14:39:26 GMT-0500 (Central Daylight Time),730986.4000000954,A,grassenter,I,enter,712,2,2166.8000000715256,728819.6000000238,8098,WL,B,2.0
7,21.045000076293945,immed,38954.999923706055,Tue May 12 2026 14:39:26 GMT-0500 (Central Daylight Time),733952.6000000238,A,d,I,d,2946,2,2966.0,730986.6000000238,8098,WL,B,3.0
7,21.276000022888184,immed,38723.99997711182,Tue May 12 2026 14:39:26 GMT-0500 (Central Daylight Time),734183.4000000954,A,do,I,o,209,2,3196.8000000715256,730986.6000000238,8098,WL,B,3.0
7,21.460999965667725,immed,38539.000034332275,Tue May 12 2026 14:39:26 GMT-0500 (Central Daylight Time),734368.5,A,doo,I,o,165,2,3381.899999976158,730986.6000000238,8098,WL,B,3.0
7,21.594000101089478,immed,38405.99989891052,Tue May 12 2026 14:39:26 GMT-0500 (Central Daylight Time),734501.9000000954,A,door,I,r,114,2,3515.3000000715256,730986.6000000238,8098,WL,B,3.0
7,22.05999994277954,immed,37940.00005722046,Tue May 12 2026 14:39:26 GMT-0500 (Central Daylight Time),734967.8000000715,A,doorenter,I,enter,453,2,3981.2000000476837,730986.6000000238,8098,WL,B,3.0
7,22.545000076293945,immed,37454.999923706055,Tue May 12 2026 14:39:26 GMT-0500 (Central Daylight Time),735452.7000000477,A,a,I,a,463,2,484.7000000476837,734968.0,8098,WL,B,4.0
7,22.74399995803833,immed,37256.00004196167,Tue May 12 2026 14:39:26 GMT-0500 (Central Daylight Time),735651.5,A,ar,I,r,193,2,683.5,734968.0,8098,WL,B,4.0
7,23.22699999809265,immed,36773.00000190735,Tue May 12 2026 14:39:26 GMT-0500 (Central Daylight Time),736134.4000000954,A,arm,I,m,471,2,1166.4000000953674,734968.0,8098,WL,B,4.0
7,23.625,immed,36375.0,Tue May 12 2026 14:39:26 GMT-0500 (Central Daylight Time),736533.1000000238,A,armenter,I,enter,380,2,1565.1000000238419,734968.0,8098,WL,B,4.0
7,23.926000118255615,immed,36073.999881744385,Tue May 12 2026 14:39:26 GMT-0500 (Central Daylight Time),736834.1000000238,A,s,I,s,280,2,300.7999999523163,736533.3000000715,8098,WL,B,5.0
7,24.075999975204468,immed,35924.00002479553,Tue May 12 2026 14:39:26 GMT-0500 (Central Daylight Time),736984.1000000238,A,st,I,t,137,2,450.7999999523163,736533.3000000715,8098,WL,B,5.0
7,24.30999994277954,immed,35690.00005722046,Tue May 12 2026 14:39:26 GMT-0500 (Central Daylight Time),737217.5,A,sta,I,a,220,2,684.1999999284744,736533.3000000715,8098,WL,B,5.0
7,24.45900011062622,immed,35540.99988937378,Tue May 12 2026 14:39:26 GMT-0500 (Central Daylight Time),737366.2000000477,A,star,I,r,137,2,832.8999999761581,736533.3000000715,8098,WL,B,5.0
7,25.009999990463257,immed,34990.00000953674,Tue May 12 2026 14:39:26 GMT-0500 (Central Daylight Time),737917.4000000954,A,starenter,I,enter,535,2,1384.1000000238419,736533.3000000715,8098,WL,B,5.0
7,25.441999912261963,immed,34558.00008773804,Tue May 12 2026 14:39:26 GMT-0500 (Central Daylight Time),738349.9000000954,A,w,I,w,423,2,432.2000000476837,737917.7000000477,8098,WL,B,6.0
7,25.658999919891357,immed,34341.00008010864,Tue May 12 2026 14:39:26 GMT-0500 (Central Daylight Time),738566.6000000238,A,wi,I,i,205,2,648.8999999761581,737917.7000000477,8098,WL,B,6.0
7,25.80900001525879,immed,34190.99998474121,Tue May 12 2026 14:39:26 GMT-0500 (Central Daylight Time),738717.0,A,wif,I,f,133,2,799.2999999523163,737917.7000000477,8098,WL,B,6.0
7,26.378000020980835,immed,33621.999979019165,Tue May 12 2026 14:39:26 GMT-0500 (Central Daylight Time),739285.2000000477,A,wife,I,e,546,2,1367.5,737917.7000000477,8098,WL,B,6.0
7,26.743000030517578,immed,33256.99996948242,Tue May 12 2026 14:39:26 GMT-0500 (Central Daylight Time),739650.4000000954,A,wifeenter,I,enter,360,2,1732.7000000476837,737917.7000000477,8098,WL,B,6.0
7,27.30900001525879,immed,32690.99998474121,Tue May 12 2026 14:39:26 GMT-0500 (Central Daylight Time),740216.4000000954,A,w,I,w,553,2,565.8000000715256,739650.6000000238,8098,WL,B,7.0
7,27.542999982833862,immed,32457.000017166138,Tue May 12 2026 14:39:26 GMT-0500 (Central Daylight Time),740451.0,A,wi,I,i,215,2,800.3999999761581,739650.6000000238,8098,WL,B,7.0
7,27.77500009536743,immed,32224.99990463257,Tue May 12 2026 14:39:26 GMT-0500 (Central Daylight Time),740682.8000000715,A,win,I,n,216,2,1032.2000000476837,739650.6000000238,8098,WL,B,7.0
7,27.95900011062622,immed,32040.99988937378,Tue May 12 2026 14:39:26 GMT-0500 (Central Daylight Time),740867.0,A,wind,I,d,163,2,1216.3999999761581,739650.6000000238,8098,WL,B,7.0
7,28.407999992370605,immed,31592.000007629395,Tue May 12 2026 14:39:26 GMT-0500 (Central Daylight Time),741315.5,A,windo,I,o,433,2,1664.8999999761581,739650.6000000238,8098,WL,B,7.0
7,28.542999982833862,immed,31457.000017166138,Tue May 12 2026 14:39:26 GMT-0500 (Central Daylight Time),741450.9000000954,A,window,I,w,130,2,1800.3000000715256,739650.6000000238,8098,WL,B,7.0
7,28.95799994468689,immed,31042.00005531311,Tue May 12 2026 14:39:26 GMT-0500 (Central Daylight Time),741865.7000000477,A,windowenter,I,enter,402,2,2215.100000023842,739650.6000000238,8098,WL,B,7.0
7,29.426000118255615,immed,30573.999881744385,Tue May 12 2026 14:39:26 GMT-0500 (Central Daylight Time),742334.1000000238,A,c,I,c,451,2,468.10000002384186,741866.0,8098,WL,B,8.0
7,29.591000080108643,immed,30408.999919891357,Tue May 12 2026 14:39:26 GMT-0500 (Central Daylight Time),742498.6000000238,A,ci,I,i,145,2,632.6000000238419,741866.0,8098,WL,B,8.0
7,29.758000135421753,immed,30241.999864578247,Tue May 12 2026 14:39:26 GMT-0500 (Central Daylight Time),742665.5,A,cit,I,t,152,2,799.5,741866.0,8098,WL,B,8.0
7,29.89199995994568,immed,30108.00004005432,Tue May 12 2026 14:39:26 GMT-0500 (Central Daylight Time),742799.4000000954,A,city,I,y,115,2,933.4000000953674,741866.0,8098,WL,B,8.0
7,30.457000017166138,immed,29542.999982833862,Tue May 12 2026 14:39:26 GMT-0500 (Central Daylight Time),743364.7000000477,A,cityenter,I,enter,555,2,1498.7000000476837,741866.0,8098,WL,B,8.0
7,31.407000064849854,immed,28592.999935150146,Tue May 12 2026 14:39:26 GMT-0500 (Central Daylight Time),744315.1000000238,A,p,I,p,944,2,950.1000000238419,743365.0,8098,WL,B,9.0
7,31.624000072479248,immed,28375.999927520752,Tue May 12 2026 14:39:26 GMT-0500 (Central Daylight Time),744531.6000000238,A,pu,I,u,195,2,1166.6000000238419,743365.0,8098,WL,B,9.0
7,32.03999996185303,immed,27960.000038146973,Tue May 12 2026 14:39:26 GMT-0500 (Central Daylight Time),744948.0,A,pup,I,p,400,2,1583.0,743365.0,8098,WL,B,9.0
7,32.29100012779236,immed,27708.99987220764,Tue May 12 2026 14:39:26 GMT-0500 (Central Daylight Time),745198.2000000477,A,pupi,I,i,237,2,1833.2000000476837,743365.0,8098,WL,B,9.0
7,32.638999938964844,immed,27361.000061035156,Tue May 12 2026 14:39:26 GMT-0500 (Central Daylight Time),745546.6000000238,A,pupil,I,l,335,2,2181.600000023842,743365.0,8098,WL,B,9.0
7,33.390000104904175,immed,26609.999895095825,Tue May 12 2026 14:39:26 GMT-0500 (Central Daylight Time),746297.4000000954,A,pupilenter,I,enter,739,2,2932.4000000953674,743365.0,8098,WL,B,9.0
7,34.19199991226196,immed,25808.000087738037,Tue May 12 2026 14:39:26 GMT-0500 (Central Daylight Time),747099.8000000715,A,c,I,c,782,2,802.1000000238419,746297.7000000477,8098,WL,B,10.0
7,34.390000104904175,immed,25609.999895095825,Tue May 12 2026 14:39:26 GMT-0500 (Central Daylight Time),747297.7000000477,A,ca,I,a,177,2,1000.0,746297.7000000477,8098,WL,B,10.0
7,34.60700011253357,immed,25392.99988746643,Tue May 12 2026 14:39:26 GMT-0500 (Central Daylight Time),747514.5,A,cab,I,b,196,2,1216.7999999523163,746297.7000000477,8098,WL,B,10.0
7,34.85599994659424,immed,25144.00005340576,Tue May 12 2026 14:39:26 GMT-0500 (Central Daylight Time),747763.9000000954,A,cabi,I,i,242,2,1466.2000000476837,746297.7000000477,8098,WL,B,10.0
7,35.10599994659424,immed,24894.00005340576,Tue May 12 2026 14:39:26 GMT-0500 (Central Daylight Time),748014.1000000238,A,cabin,I,n,231,2,1716.3999999761581,746297.7000000477,8098,WL,B,10.0
7,35.50699996948242,immed,24493.000030517578,Tue May 12 2026 14:39:26 GMT-0500 (Central Daylight Time),748414.2000000477,A,cabinenter,I,enter,390,2,2116.5,746297.7000000477,8098,WL,B,10.0
7,35.95700001716614,immed,24042.999982833862,Tue May 12 2026 14:39:26 GMT-0500 (Central Daylight Time),748864.4000000954,A,l,I,l,430,2,449.90000009536743,748414.5,8098,WL,B,11.0
7,36.15700006484985,immed,23842.999935150146,Tue May 12 2026 14:39:26 GMT-0500 (Central Daylight Time),749064.5,A,la,I,a,178,2,650.0,748414.5,8098,WL,B,11.0
7,36.50699996948242,immed,23493.000030517578,Tue May 12 2026 14:39:26 GMT-0500 (Central Daylight Time),749414.5,A,lak,I,k,339,2,1000.0,748414.5,8098,WL,B,11.0
7,36.67199993133545,immed,23328.00006866455,Tue May 12 2026 14:39:26 GMT-0500 (Central Daylight Time),749579.6000000238,A,lake,I,e,161,2,1165.1000000238419,748414.5,8098,WL,B,11.0
7,37.08800005912781,immed,22911.999940872192,Tue May 12 2026 14:39:26 GMT-0500 (Central Daylight Time),749995.5,A,lakeenter,I,enter,400,2,1581.0,748414.5,8098,WL,B,11.0
7,40.58800005912781,immed,19411.999940872192,Tue May 12 2026 14:39:26 GMT-0500 (Central Daylight Time),753495.7000000477,A,p,I,p,3488,2,3499.899999976158,749995.8000000715,8098,WL,B,12.0
7,40.88599991798401,immed,19114.00008201599,Tue May 12 2026 14:39:26 GMT-0500 (Central Daylight Time),753794.2000000477,A,pi,I,i,277,2,3798.399999976158,749995.8000000715,8098,WL,B,12.0
7,41.354000091552734,immed,18645.999908447266,Tue May 12 2026 14:39:26 GMT-0500 (Central Daylight Time),754261.9000000954,A,pip,I,p,450,2,4266.100000023842,749995.8000000715,8098,WL,B,12.0
7,41.80400013923645,immed,18195.99986076355,Tue May 12 2026 14:39:26 GMT-0500 (Central Daylight Time),754711.7000000477,A,pipe,I,e,430,2,4715.899999976158,749995.8000000715,8098,WL,B,12.0
7,42.7039999961853,immed,17296.000003814697,Tue May 12 2026 14:39:26 GMT-0500 (Central Daylight Time),755611.5,A,pipeenter,I,enter,885,2,5615.699999928474,749995.8000000715,8098,WL,B,12.0
7,43.0550000667572,immed,16944.999933242798,Tue May 12 2026 14:39:26 GMT-0500 (Central Daylight Time),755962.8000000715,A,s,I,s,339,2,351.10000002384186,755611.7000000477,8098,WL,B,13.0
7,43.23699998855591,immed,16763.00001144409,Tue May 12 2026 14:39:26 GMT-0500 (Central Daylight Time),756144.7000000477,A,sk,I,k,162,2,533.0,755611.7000000477,8098,WL,B,13.0
7,43.437000036239624,immed,16562.999963760376,Tue May 12 2026 14:39:26 GMT-0500 (Central Daylight Time),756344.3000000715,A,ski,I,i,185,2,732.6000000238419,755611.7000000477,8098,WL,B,13.0
7,43.687000036239624,immed,16312.999963760376,Tue May 12 2026 14:39:26 GMT-0500 (Central Daylight Time),756594.7000000477,A,skin,I,n,237,2,983.0,755611.7000000477,8098,WL,B,13.0
7,44.13700008392334,immed,15862.99991607666,Tue May 12 2026 14:39:26 GMT-0500 (Central Daylight Time),757044.5,A,skinenter,I,enter,433,2,1432.7999999523163,755611.7000000477,8098,WL,B,13.0
7,44.486000061035156,immed,15513.999938964844,Tue May 12 2026 14:39:26 GMT-0500 (Central Daylight Time),757393.7000000477,A,f,I,f,335,2,348.89999997615814,757044.8000000715,8098,WL,B,14.0
7,44.65300011634827,immed,15346.999883651733,Tue May 12 2026 14:39:26 GMT-0500 (Central Daylight Time),757560.6000000238,A,fi,I,i,148,2,515.7999999523163,757044.8000000715,8098,WL,B,14.0
7,44.835999965667725,immed,15164.000034332275,Tue May 12 2026 14:39:26 GMT-0500 (Central Daylight Time),757743.5,A,fir,I,r,170,2,698.6999999284744,757044.8000000715,8098,WL,B,14.0
7,44.95300006866455,immed,15046.99993133545,Tue May 12 2026 14:39:26 GMT-0500 (Central Daylight Time),757860.2000000477,A,fire,I,e,99,2,815.3999999761581,757044.8000000715,8098,WL,B,14.0
7,45.38599991798401,immed,14614.000082015991,Tue May 12 2026 14:39:26 GMT-0500 (Central Daylight Time),758293.7000000477,A,fireenter,I,enter,415,2,1248.8999999761581,757044.8000000715,8098,WL,B,14.0
7,45.920000076293945,immed,14079.999923706055,Tue May 12 2026 14:39:26 GMT-0500 (Central Daylight Time),758827.7000000477,A,c,I,c,529,2,533.7999999523163,758293.9000000954,8098,WL,B,15.0
7,46.235000133514404,immed,13764.999866485596,Tue May 12 2026 14:39:26 GMT-0500 (Central Daylight Time),759142.8000000715,A,cl,I,l,291,2,848.8999999761581,758293.9000000954,8098,WL,B,15.0
7,46.48699998855591,immed,13513.000011444092,Tue May 12 2026 14:39:26 GMT-0500 (Central Daylight Time),759394.5,A,clo,I,o,231,2,1100.5999999046326,758293.9000000954,8098,WL,B,15.0
7,46.668999910354614,immed,13331.000089645386,Tue May 12 2026 14:39:26 GMT-0500 (Central Daylight Time),759576.9000000954,A,cloc,I,c,162,2,1283.0,758293.9000000954,8098,WL,B,15.0
7,46.78600001335144,immed,13213.99998664856,Tue May 12 2026 14:39:26 GMT-0500 (Central Daylight Time),759693.3000000715,A,clock,I,k,100,2,1399.3999999761581,758293.9000000954,8098,WL,B,15.0
7,47.76800012588501,immed,12231.99987411499,Tue May 12 2026 14:39:26 GMT-0500 (Central Daylight Time),760675.3000000715,A,clockenter,I,enter,973,2,2381.399999976158,758293.9000000954,8098,WL,B,15.0
