block_c,block_dur,condition,countdown,datetime,endtime,list,multichar_response,project,response,response_time,session_number,start_end,starttime,subject_id,task,task_vers,trial
,,,,Tue Mar 31 2026 08:55:58 GMT-0500 (Central Daylight Time),,,,I,space,215,2,,,8087,WL,A,
prac,,0,,Tue Mar 31 2026 08:55:58 GMT-0500 (Central Daylight Time),,NA,b,I,b,1562,2,,,8087,WL,A,1.0
prac,,0,,Tue Mar 31 2026 08:55:58 GMT-0500 (Central Daylight Time),,NA,bo,I,o,151,2,,,8087,WL,A,1.0
prac,,0,,Tue Mar 31 2026 08:55:58 GMT-0500 (Central Daylight Time),,NA,boo,I,o,98,2,,,8087,WL,A,1.0
prac,,0,,Tue Mar 31 2026 08:55:58 GMT-0500 (Central Daylight Time),,NA,boos,I,s,87,2,,,8087,WL,A,1.0
prac,,0,,Tue Mar 31 2026 08:55:58 GMT-0500 (Central Daylight Time),,NA,boost,I,t,121,2,,,8087,WL,A,1.0
prac,,0,,Tue Mar 31 2026 08:55:58 GMT-0500 (Central Daylight Time),,NA,boostenter,I,enter,2381,2,,,8087,WL,A,1.0
1,1.0490000247955322,learn,58950.99997520447,Tue Mar 31 2026 08:55:58 GMT-0500 (Central Daylight Time),106182.0,A,b,I,b,1043,2,1048.8999999985099,105133.10000000149,8087,WL,A,1.0
1,1.1820001602172852,learn,58817.999839782715,Tue Mar 31 2026 08:55:58 GMT-0500 (Central Daylight Time),106314.80000000075,A,bo,I,o,125,2,1181.699999999255,105133.10000000149,8087,WL,A,1.0
1,1.3320000171661377,learn,58667.99998283386,Tue Mar 31 2026 08:55:58 GMT-0500 (Central Daylight Time),106464.90000000224,A,boo,I,o,134,2,1331.800000000745,105133.10000000149,8087,WL,A,1.0
1,1.430999994277954,learn,58569.000005722046,Tue Mar 31 2026 08:55:58 GMT-0500 (Central Daylight Time),106564.0,A,book,I,k,94,2,1430.8999999985099,105133.10000000149,8087,WL,A,1.0
1,1.7650001049041748,learn,58234.999895095825,Tue Mar 31 2026 08:55:58 GMT-0500 (Central Daylight Time),106897.90000000224,A,bookenter,I,enter,320,2,1764.800000000745,105133.10000000149,8087,WL,A,1.0
1,2.315000057220459,learn,57684.99994277954,Tue Mar 31 2026 08:55:58 GMT-0500 (Central Daylight Time),107447.60000000149,A,f,I,f,529,2,549.1999999992549,106898.40000000224,8087,WL,A,2.0
1,2.682000160217285,learn,57317.999839782715,Tue Mar 31 2026 08:55:58 GMT-0500 (Central Daylight Time),107815.20000000298,A,fl,I,l,359,2,916.8000000007451,106898.40000000224,8087,WL,A,2.0
1,2.815000057220459,learn,57184.99994277954,Tue Mar 31 2026 08:55:58 GMT-0500 (Central Daylight Time),107947.80000000075,A,flo,I,o,125,2,1049.3999999985099,106898.40000000224,8087,WL,A,2.0
1,2.930000066757202,learn,57069.9999332428,Tue Mar 31 2026 08:55:58 GMT-0500 (Central Daylight Time),108063.40000000224,A,flow,I,w,96,2,1165.0,106898.40000000224,8087,WL,A,2.0
1,3.015000104904175,learn,56984.999895095825,Tue Mar 31 2026 08:55:58 GMT-0500 (Central Daylight Time),108147.90000000224,A,flowe,I,e,77,2,1249.5,106898.40000000224,8087,WL,A,2.0
1,3.114000082015991,learn,56885.99991798401,Tue Mar 31 2026 08:55:58 GMT-0500 (Central Daylight Time),108247.30000000075,A,flower,I,r,77,2,1348.8999999985099,106898.40000000224,8087,WL,A,2.0
1,3.3310000896453857,learn,56668.999910354614,Tue Mar 31 2026 08:55:58 GMT-0500 (Central Daylight Time),108464.0,A,flowerenter,I,enter,202,2,1565.5999999977648,106898.40000000224,8087,WL,A,2.0
1,3.6640000343322754,learn,56335.999965667725,Tue Mar 31 2026 08:55:58 GMT-0500 (Central Daylight Time),108796.90000000224,A,t,I,t,325,2,332.6000000014901,108464.30000000075,8087,WL,A,3.0
1,3.7810001373291016,learn,56218.9998626709,Tue Mar 31 2026 08:55:58 GMT-0500 (Central Daylight Time),108914.30000000075,A,tr,I,r,103,2,450.0,108464.30000000075,8087,WL,A,3.0
1,3.88100004196167,learn,56118.99995803833,Tue Mar 31 2026 08:55:58 GMT-0500 (Central Daylight Time),109013.70000000298,A,tra,I,a,82,2,549.4000000022352,108464.30000000075,8087,WL,A,3.0
1,4.015000104904175,learn,55984.999895095825,Tue Mar 31 2026 08:55:58 GMT-0500 (Central Daylight Time),109147.5,A,trai,I,i,117,2,683.1999999992549,108464.30000000075,8087,WL,A,3.0
1,4.080000162124634,learn,55919.999837875366,Tue Mar 31 2026 08:55:58 GMT-0500 (Central Daylight Time),109213.0,A,train,I,n,56,2,748.6999999992549,108464.30000000075,8087,WL,A,3.0
1,4.297000169754028,learn,55702.99983024597,Tue Mar 31 2026 08:55:58 GMT-0500 (Central Daylight Time),109429.70000000298,A,trainenter,I,enter,208,2,965.4000000022352,108464.30000000075,8087,WL,A,3.0
1,5.147000074386597,learn,54852.9999256134,Tue Mar 31 2026 08:55:58 GMT-0500 (Central Daylight Time),110280.0,A,m,I,m,830,2,850.0,109430.0,8087,WL,A,4.0
1,5.213000059127808,learn,54786.99994087219,Tue Mar 31 2026 08:55:58 GMT-0500 (Central Daylight Time),110346.0,A,me,I,e,51,2,916.0,109430.0,8087,WL,A,4.0
1,5.3459999561309814,learn,54654.00004386902,Tue Mar 31 2026 08:55:58 GMT-0500 (Central Daylight Time),110479.10000000149,A,mea,I,a,121,2,1049.1000000014901,109430.0,8087,WL,A,4.0
1,5.5299999713897705,learn,54470.00002861023,Tue Mar 31 2026 08:55:58 GMT-0500 (Central Daylight Time),110662.90000000224,A,mead,I,d,174,2,1232.9000000022352,109430.0,8087,WL,A,4.0
1,5.664000034332275,learn,54335.999965667725,Tue Mar 31 2026 08:55:58 GMT-0500 (Central Daylight Time),110796.70000000298,A,meado,I,o,118,2,1366.7000000029802,109430.0,8087,WL,A,4.0
1,6.04800009727478,learn,53951.99990272522,Tue Mar 31 2026 08:55:58 GMT-0500 (Central Daylight Time),111181.10000000149,A,meadow,I,w,377,2,1751.1000000014901,109430.0,8087,WL,A,4.0
1,6.2799999713897705,learn,53720.00002861023,Tue Mar 31 2026 08:55:58 GMT-0500 (Central Daylight Time),111412.80000000075,A,meadowenter,I,enter,223,2,1982.800000000745,109430.0,8087,WL,A,4.0
1,6.664000034332275,learn,53335.999965667725,Tue Mar 31 2026 08:55:58 GMT-0500 (Central Daylight Time),111797.20000000298,A,k,I,k,378,2,384.1000000014901,111413.10000000149,8087,WL,A,5.0
1,6.763000011444092,learn,53236.99998855591,Tue Mar 31 2026 08:55:58 GMT-0500 (Central Daylight Time),111895.90000000224,A,ke,I,e,77,2,482.80000000074506,111413.10000000149,8087,WL,A,5.0
1,6.896000146865845,learn,53103.999853134155,Tue Mar 31 2026 08:55:58 GMT-0500 (Central Daylight Time),112028.70000000298,A,key,I,y,124,2,615.6000000014901,111413.10000000149,8087,WL,A,5.0
1,7.1620001792907715,learn,52837.99982070923,Tue Mar 31 2026 08:55:58 GMT-0500 (Central Daylight Time),112295.20000000298,A,keyenter,I,enter,248,2,882.1000000014901,111413.10000000149,8087,WL,A,5.0
1,8.830000162124634,learn,51169.999837875366,Tue Mar 31 2026 08:55:58 GMT-0500 (Central Daylight Time),113962.5,A,l,I,l,1654,2,1667.0,112295.5,8087,WL,A,6.0
1,8.962000131607056,learn,51037.999868392944,Tue Mar 31 2026 08:55:58 GMT-0500 (Central Daylight Time),114095.30000000075,A,lo,I,o,122,2,1799.800000000745,112295.5,8087,WL,A,6.0
1,9.045000076293945,learn,50954.999923706055,Tue Mar 31 2026 08:55:58 GMT-0500 (Central Daylight Time),114178.20000000298,A,log,I,g,61,2,1882.7000000029802,112295.5,8087,WL,A,6.0
1,9.246999979019165,learn,50753.000020980835,Tue Mar 31 2026 08:55:58 GMT-0500 (Central Daylight Time),114379.5,A,logenter,I,enter,186,2,2084.0,112295.5,8087,WL,A,6.0
1,11.34500002861023,learn,48654.99997138977,Tue Mar 31 2026 08:55:58 GMT-0500 (Central Daylight Time),116477.40000000224,A,f,I,f,2089,2,2097.60000000149,114379.80000000075,8087,WL,A,7.0
1,12.528000116348267,learn,47471.99988365173,Tue Mar 31 2026 08:55:58 GMT-0500 (Central Daylight Time),117660.80000000075,A,fl,I,l,1174,2,3281.0,114379.80000000075,8087,WL,A,7.0
1,12.662000179290771,learn,47337.99982070923,Tue Mar 31 2026 08:55:58 GMT-0500 (Central Daylight Time),117795.30000000075,A,flo,I,o,122,2,3415.5,114379.80000000075,8087,WL,A,7.0
1,12.779000043869019,learn,47220.99995613098,Tue Mar 31 2026 08:55:58 GMT-0500 (Central Daylight Time),117911.70000000298,A,flow,I,w,95,2,3531.900000002235,114379.80000000075,8087,WL,A,7.0
1,12.844000101089478,learn,47155.99989891052,Tue Mar 31 2026 08:55:58 GMT-0500 (Central Daylight Time),117976.90000000224,A,flowe,I,e,51,2,3597.10000000149,114379.80000000075,8087,WL,A,7.0
1,12.92799997329712,learn,47072.00002670288,Tue Mar 31 2026 08:55:58 GMT-0500 (Central Daylight Time),118061.10000000149,A,flower,I,r,68,2,3681.300000000745,114379.80000000075,8087,WL,A,7.0
1,13.26200008392334,learn,46737.99991607666,Tue Mar 31 2026 08:55:58 GMT-0500 (Central Daylight Time),118395.10000000149,A,flowerenter,I,enter,319,2,4015.300000000745,114379.80000000075,8087,WL,A,7.0
1,20.358999967575073,learn,39641.00003242493,Tue Mar 31 2026 08:55:58 GMT-0500 (Central Daylight Time),125492.20000000298,A,h,I,h,7081,2,7096.800000000745,118395.40000000224,8087,WL,A,8.0
1,20.442000150680542,learn,39557.99984931946,Tue Mar 31 2026 08:55:58 GMT-0500 (Central Daylight Time),125575.40000000224,A,ha,I,a,73,2,7180.0,118395.40000000224,8087,WL,A,8.0
1,20.526000022888184,learn,39473.99997711182,Tue Mar 31 2026 08:55:58 GMT-0500 (Central Daylight Time),125658.70000000298,A,har,I,r,68,2,7263.300000000745,118395.40000000224,8087,WL,A,8.0
1,20.676000118255615,learn,39323.999881744385,Tue Mar 31 2026 08:55:58 GMT-0500 (Central Daylight Time),125808.80000000075,A,harp,I,p,138,2,7413.39999999851,118395.40000000224,8087,WL,A,8.0
1,20.89199995994568,learn,39108.00004005432,Tue Mar 31 2026 08:55:58 GMT-0500 (Central Daylight Time),126024.70000000298,A,harpenter,I,enter,203,2,7629.300000000745,118395.40000000224,8087,WL,A,8.0
1,34.104000091552734,learn,25895.999908447266,Tue Mar 31 2026 08:55:58 GMT-0500 (Central Daylight Time),139237.40000000224,A,k,I,k,13208,2,13212.5,126024.90000000224,8087,WL,A,9.0
1,34.23800015449524,learn,25761.99984550476,Tue Mar 31 2026 08:55:58 GMT-0500 (Central Daylight Time),139371.40000000224,A,ke,I,e,118,2,13346.5,126024.90000000224,8087,WL,A,9.0
1,34.38800001144409,learn,25611.99998855591,Tue Mar 31 2026 08:55:58 GMT-0500 (Central Daylight Time),139520.70000000298,A,keu,I,u,129,2,13495.800000000745,126024.90000000224,8087,WL,A,9.0
1,34.58899998664856,learn,25411.00001335144,Tue Mar 31 2026 08:55:58 GMT-0500 (Central Daylight Time),139721.6000000015,A,keuenter,I,enter,186,2,13696.699999999255,126024.90000000224,8087,WL,A,9.0
1,35.289000034332275,learn,24710.999965667725,Tue Mar 31 2026 08:55:58 GMT-0500 (Central Daylight Time),140421.80000000075,A,k,I,k,694,2,700.0,139721.80000000075,8087,WL,A,10.0
1,35.437000036239624,learn,24562.999963760376,Tue Mar 31 2026 08:55:58 GMT-0500 (Central Daylight Time),140570.1000000015,A,ke,I,e,134,2,848.3000000007451,139721.80000000075,8087,WL,A,10.0
1,35.55400013923645,learn,24445.99986076355,Tue Mar 31 2026 08:55:58 GMT-0500 (Central Daylight Time),140686.90000000224,A,key,I,y,108,2,965.1000000014901,139721.80000000075,8087,WL,A,10.0
1,35.920000076293945,learn,24079.999923706055,Tue Mar 31 2026 08:55:58 GMT-0500 (Central Daylight Time),141052.80000000075,A,keyenter,I,enter,348,2,1331.0,139721.80000000075,8087,WL,A,10.0
1,42.736000061035156,learn,17263.999938964844,Tue Mar 31 2026 08:55:58 GMT-0500 (Central Daylight Time),147868.80000000075,A,s,I,s,6812,2,6815.800000000745,141053.0,8087,WL,A,11.0
1,42.83300018310547,learn,17166.99981689453,Tue Mar 31 2026 08:55:58 GMT-0500 (Central Daylight Time),147966.40000000224,A,sa,I,a,87,2,6913.400000002235,141053.0,8087,WL,A,11.0
1,42.968000173568726,learn,17031.999826431274,Tue Mar 31 2026 08:55:58 GMT-0500 (Central Daylight Time),148101.0,A,sal,I,l,129,2,7048.0,141053.0,8087,WL,A,11.0
1,43.218000173568726,learn,16781.999826431274,Tue Mar 31 2026 08:55:58 GMT-0500 (Central Daylight Time),148351.5,A,salt,I,t,239,2,7298.5,141053.0,8087,WL,A,11.0
1,43.367000102996826,learn,16632.999897003174,Tue Mar 31 2026 08:55:58 GMT-0500 (Central Daylight Time),148500.30000000075,A,saltenter,I,enter,142,2,7447.300000000745,141053.0,8087,WL,A,11.0
1,60.01300001144409,learn,-13.000011444091797,Tue Mar 31 2026 08:55:58 GMT-0500 (Central Daylight Time),165146.1000000015,A,None,I,None,16640,2,16645.5,148500.6000000015,8087,WL,A,12.0
2,0.5150001049041748,learn,59484.999895095825,Tue Mar 31 2026 08:55:58 GMT-0500 (Central Daylight Time),233823.5,A,b,I,b,505,2,515.3999999985099,233308.1000000015,8087,WL,A,1.0
2,0.7670001983642578,learn,59232.99980163574,Tue Mar 31 2026 08:55:58 GMT-0500 (Central Daylight Time),234075.5,A,bo,I,o,244,2,767.3999999985099,233308.1000000015,8087,WL,A,1.0
2,0.9170000553131104,learn,59082.99994468689,Tue Mar 31 2026 08:55:58 GMT-0500 (Central Daylight Time),234224.70000000298,A,boo,I,o,127,2,916.6000000014901,233308.1000000015,8087,WL,A,1.0
2,1.0490000247955322,learn,58950.99997520447,Tue Mar 31 2026 08:55:58 GMT-0500 (Central Daylight Time),234357.0,A,book,I,k,115,2,1048.8999999985099,233308.1000000015,8087,WL,A,1.0
2,1.2660000324249268,learn,58733.99996757507,Tue Mar 31 2026 08:55:58 GMT-0500 (Central Daylight Time),234574.40000000224,A,bookenter,I,enter,206,2,1266.300000000745,233308.1000000015,8087,WL,A,1.0
2,1.633000135421753,learn,58366.99986457825,Tue Mar 31 2026 08:55:58 GMT-0500 (Central Daylight Time),234940.6000000015,A,f,I,f,345,2,365.8999999985099,234574.70000000298,8087,WL,A,2.0
2,1.698000192642212,learn,58301.99980735779,Tue Mar 31 2026 08:55:58 GMT-0500 (Central Daylight Time),235005.80000000075,A,fl,I,l,54,2,431.0999999977648,234574.70000000298,8087,WL,A,2.0
2,1.8650000095367432,learn,58134.99999046326,Tue Mar 31 2026 08:55:58 GMT-0500 (Central Daylight Time),235173.5,A,flo,I,o,147,2,598.7999999970198,234574.70000000298,8087,WL,A,2.0
2,1.9310002326965332,learn,58068.99976730347,Tue Mar 31 2026 08:55:58 GMT-0500 (Central Daylight Time),235239.30000000075,A,flow,I,w,53,2,664.5999999977648,234574.70000000298,8087,WL,A,2.0
2,2.0320000648498535,learn,57967.99993515015,Tue Mar 31 2026 08:55:58 GMT-0500 (Central Daylight Time),235340.20000000298,A,flowe,I,e,94,2,765.5,234574.70000000298,8087,WL,A,2.0
2,2.115000009536743,learn,57884.99999046326,Tue Mar 31 2026 08:55:58 GMT-0500 (Central Daylight Time),235423.30000000075,A,flower,I,r,63,2,848.5999999977648,234574.70000000298,8087,WL,A,2.0
2,2.4160001277923584,learn,57583.99987220764,Tue Mar 31 2026 08:55:58 GMT-0500 (Central Daylight Time),235723.90000000224,A,flowerenter,I,enter,285,2,1149.199999999255,234574.70000000298,8087,WL,A,2.0
2,2.698000192642212,learn,57301.99980735779,Tue Mar 31 2026 08:55:58 GMT-0500 (Central Daylight Time),236005.90000000224,A,t,I,t,273,2,281.69999999925494,235724.20000000298,8087,WL,A,3.0
2,2.8470001220703125,learn,57152.99987792969,Tue Mar 31 2026 08:55:58 GMT-0500 (Central Daylight Time),236155.30000000075,A,tr,I,r,133,2,431.0999999977648,235724.20000000298,8087,WL,A,3.0
2,2.949000120162964,learn,57050.999879837036,Tue Mar 31 2026 08:55:58 GMT-0500 (Central Daylight Time),236257.0,A,tra,I,a,83,2,532.7999999970198,235724.20000000298,8087,WL,A,3.0
2,3.0480000972747803,learn,56951.99990272522,Tue Mar 31 2026 08:55:58 GMT-0500 (Central Daylight Time),236356.5,A,trai,I,i,93,2,632.2999999970198,235724.20000000298,8087,WL,A,3.0
2,3.114000082015991,learn,56885.99991798401,Tue Mar 31 2026 08:55:58 GMT-0500 (Central Daylight Time),236422.0,A,train,I,n,56,2,697.7999999970198,235724.20000000298,8087,WL,A,3.0
2,3.264000177383423,learn,56735.99982261658,Tue Mar 31 2026 08:55:58 GMT-0500 (Central Daylight Time),236572.40000000224,A,trainenter,I,enter,133,2,848.1999999992549,235724.20000000298,8087,WL,A,3.0
2,3.497000217437744,learn,56502.999782562256,Tue Mar 31 2026 08:55:58 GMT-0500 (Central Daylight Time),236805.5,A,r,I,r,225,2,232.79999999701977,236572.70000000298,8087,WL,A,4.0
2,3.615000009536743,learn,56384.99999046326,Tue Mar 31 2026 08:55:58 GMT-0500 (Central Daylight Time),236922.80000000075,A,ru,I,u,104,2,350.0999999977648,236572.70000000298,8087,WL,A,4.0
2,3.864000082015991,learn,56135.99991798401,Tue Mar 31 2026 08:55:58 GMT-0500 (Central Daylight Time),237172.6000000015,A,rug,I,g,243,2,599.8999999985099,236572.70000000298,8087,WL,A,4.0
2,4.0320000648498535,learn,55967.99993515015,Tue Mar 31 2026 08:55:58 GMT-0500 (Central Daylight Time),237340.0,A,rugenter,I,enter,158,2,767.2999999970198,236572.70000000298,8087,WL,A,4.0
2,4.799000024795532,learn,55200.99997520447,Tue Mar 31 2026 08:55:58 GMT-0500 (Central Daylight Time),238107.1000000015,A,h,I,h,762,2,766.8999999985099,237340.20000000298,8087,WL,A,5.0
2,4.898000001907349,learn,55101.99999809265,Tue Mar 31 2026 08:55:58 GMT-0500 (Central Daylight Time),238206.20000000298,A,ha,I,a,80,2,866.0,237340.20000000298,8087,WL,A,5.0
2,4.946000099182129,learn,55053.99990081787,Tue Mar 31 2026 08:55:58 GMT-0500 (Central Daylight Time),238254.30000000075,A,har,I,r,36,2,914.0999999977648,237340.20000000298,8087,WL,A,5.0
2,5.115000009536743,learn,54884.99999046326,Tue Mar 31 2026 08:55:58 GMT-0500 (Central Daylight Time),238422.90000000224,A,harp,I,p,151,2,1082.699999999255,237340.20000000298,8087,WL,A,5.0
2,5.317000150680542,learn,54682.99984931946,Tue Mar 31 2026 08:55:58 GMT-0500 (Central Daylight Time),238625.6000000015,A,harpenter,I,enter,182,2,1285.3999999985099,237340.20000000298,8087,WL,A,5.0
2,5.632000207901001,learn,54367.999792099,Tue Mar 31 2026 08:55:58 GMT-0500 (Central Daylight Time),238939.70000000298,A,s,I,s,308,2,313.70000000298023,238626.0,8087,WL,A,6.0
2,5.748000144958496,learn,54251.999855041504,Tue Mar 31 2026 08:55:58 GMT-0500 (Central Daylight Time),239055.80000000075,A,sa,I,a,97,2,429.80000000074506,238626.0,8087,WL,A,6.0
2,5.864000082015991,learn,54135.99991798401,Tue Mar 31 2026 08:55:58 GMT-0500 (Central Daylight Time),239172.40000000224,A,sal,I,l,105,2,546.4000000022352,238626.0,8087,WL,A,6.0
2,6.148000001907349,learn,53851.99999809265,Tue Mar 31 2026 08:55:58 GMT-0500 (Central Daylight Time),239456.6000000015,A,salt,I,t,275,2,830.6000000014901,238626.0,8087,WL,A,6.0
2,6.681000232696533,learn,53318.99976730347,Tue Mar 31 2026 08:55:58 GMT-0500 (Central Daylight Time),239988.70000000298,A,saltenter,I,enter,515,2,1362.7000000029802,238626.0,8087,WL,A,6.0
2,7.014000177383423,learn,52985.99982261658,Tue Mar 31 2026 08:55:58 GMT-0500 (Central Daylight Time),240322.1000000015,A,c,I,c,320,2,333.1000000014901,239989.0,8087,WL,A,7.0
2,7.130000114440918,learn,52869.99988555908,Tue Mar 31 2026 08:55:58 GMT-0500 (Central Daylight Time),240438.20000000298,A,ch,I,h,107,2,449.20000000298023,239989.0,8087,WL,A,7.0
2,7.17900013923645,learn,52820.99986076355,Tue Mar 31 2026 08:55:58 GMT-0500 (Central Daylight Time),240486.90000000224,A,chi,I,i,38,2,497.9000000022352,239989.0,8087,WL,A,7.0
2,7.6650002002716064,learn,52334.99979972839,Tue Mar 31 2026 08:55:58 GMT-0500 (Central Daylight Time),240973.5,A,chim,I,m,465,2,984.5,239989.0,8087,WL,A,7.0
2,7.998000144958496,learn,52001.999855041504,Tue Mar 31 2026 08:55:58 GMT-0500 (Central Daylight Time),241306.0,A,chimn,I,n,311,2,1317.0,239989.0,8087,WL,A,7.0
2,8.114000082015991,learn,51885.99991798401,Tue Mar 31 2026 08:55:58 GMT-0500 (Central Daylight Time),241421.90000000224,A,chimne,I,e,111,2,1432.9000000022352,239989.0,8087,WL,A,7.0
2,8.265000104904175,learn,51734.999895095825,Tue Mar 31 2026 08:55:58 GMT-0500 (Central Daylight Time),241572.80000000075,A,chimney,I,y,144,2,1583.800000000745,239989.0,8087,WL,A,7.0
2,8.814000129699707,learn,51185.99987030029,Tue Mar 31 2026 08:55:58 GMT-0500 (Central Daylight Time),242122.30000000075,A,chimneyenter,I,enter,544,2,2133.300000000745,239989.0,8087,WL,A,7.0
2,9.28000020980835,learn,50719.99979019165,Tue Mar 31 2026 08:55:58 GMT-0500 (Central Daylight Time),242588.6000000015,A,r,I,r,461,2,466.1000000014901,242122.5,8087,WL,A,8.0
2,9.34500002861023,learn,50654.99997138977,Tue Mar 31 2026 08:55:58 GMT-0500 (Central Daylight Time),242653.20000000298,A,ra,I,a,56,2,530.7000000029802,242122.5,8087,WL,A,8.0
2,9.547000169754028,learn,50452.99983024597,Tue Mar 31 2026 08:55:58 GMT-0500 (Central Daylight Time),242854.80000000075,A,rat,I,t,183,2,732.3000000007451,242122.5,8087,WL,A,8.0
2,9.663000106811523,learn,50336.99989318848,Tue Mar 31 2026 08:55:58 GMT-0500 (Central Daylight Time),242970.90000000224,A,ratt,I,t,99,2,848.4000000022352,242122.5,8087,WL,A,8.0
2,9.763000011444092,learn,50236.99998855591,Tue Mar 31 2026 08:55:58 GMT-0500 (Central Daylight Time),243071.0,A,rattl,I,l,89,2,948.5,242122.5,8087,WL,A,8.0
2,9.86300015449524,learn,50136.99984550476,Tue Mar 31 2026 08:55:58 GMT-0500 (Central Daylight Time),243170.80000000075,A,rattle,I,e,85,2,1048.300000000745,242122.5,8087,WL,A,8.0
2,10.330000162124634,learn,49669.999837875366,Tue Mar 31 2026 08:55:58 GMT-0500 (Central Daylight Time),243637.70000000298,A,rattleenter,I,enter,449,2,1515.2000000029802,242122.5,8087,WL,A,8.0
2,12.395000219345093,learn,47604.99978065491,Tue Mar 31 2026 08:55:58 GMT-0500 (Central Daylight Time),245703.30000000075,A,l,I,l,2046,2,2065.39999999851,243637.90000000224,8087,WL,A,9.0
2,12.545000076293945,learn,47454.999923706055,Tue Mar 31 2026 08:55:58 GMT-0500 (Central Daylight Time),245853.1000000015,A,lo,I,o,134,2,2215.199999999255,243637.90000000224,8087,WL,A,9.0
2,12.76200008392334,learn,47237.99991607666,Tue Mar 31 2026 08:55:58 GMT-0500 (Central Daylight Time),246070.30000000075,A,log,I,g,198,2,2432.39999999851,243637.90000000224,8087,WL,A,9.0
2,14.86300015449524,learn,45136.99984550476,Tue Mar 31 2026 08:55:58 GMT-0500 (Central Daylight Time),248171.20000000298,A,logenter,I,enter,2093,2,4533.300000000745,243637.90000000224,8087,WL,A,9.0
2,17.09500002861023,learn,42904.99997138977,Tue Mar 31 2026 08:55:58 GMT-0500 (Central Daylight Time),250403.40000000224,A,g,I,g,2211,2,2232.0,248171.40000000224,8087,WL,A,10.0
2,17.177000045776367,learn,42822.99995422363,Tue Mar 31 2026 08:55:58 GMT-0500 (Central Daylight Time),250485.40000000224,A,go,I,o,64,2,2314.0,248171.40000000224,8087,WL,A,10.0
2,17.32800006866455,learn,42671.99993133545,Tue Mar 31 2026 08:55:58 GMT-0500 (Central Daylight Time),250636.70000000298,A,gol,I,l,142,2,2465.300000000745,248171.40000000224,8087,WL,A,10.0
2,17.39400005340576,learn,42605.99994659424,Tue Mar 31 2026 08:55:58 GMT-0500 (Central Daylight Time),250702.0,A,gold,I,d,46,2,2530.599999997765,248171.40000000224,8087,WL,A,10.0
2,17.66000008583069,learn,42339.99991416931,Tue Mar 31 2026 08:55:58 GMT-0500 (Central Daylight Time),250968.30000000075,A,goldenter,I,enter,253,2,2796.89999999851,248171.40000000224,8087,WL,A,10.0
2,21.89300012588501,learn,38106.99987411499,Tue Mar 31 2026 08:55:58 GMT-0500 (Central Daylight Time),255201.40000000224,A,n,I,n,4211,2,4232.900000002235,250968.5,8087,WL,A,11.0
2,22.294000148773193,learn,37705.99985122681,Tue Mar 31 2026 08:55:58 GMT-0500 (Central Daylight Time),255602.0,A,,I,backspace,395,2,4633.5,250968.5,8087,WL,A,11.0
2,22.54300022125244,learn,37456.99977874756,Tue Mar 31 2026 08:55:58 GMT-0500 (Central Daylight Time),255851.20000000298,A,m,I,m,244,2,4882.70000000298,250968.5,8087,WL,A,11.0
2,22.676000118255615,learn,37323.999881744385,Tue Mar 31 2026 08:55:58 GMT-0500 (Central Daylight Time),255984.40000000224,A,me,I,e,115,2,5015.900000002235,250968.5,8087,WL,A,11.0
2,22.943000078201294,learn,37056.999921798706,Tue Mar 31 2026 08:55:58 GMT-0500 (Central Daylight Time),256251.1000000015,A,mea,I,a,245,2,5282.60000000149,250968.5,8087,WL,A,11.0
2,23.29200005531311,learn,36707.99994468689,Tue Mar 31 2026 08:55:58 GMT-0500 (Central Daylight Time),256600.20000000298,A,mead,I,d,338,2,5631.70000000298,250968.5,8087,WL,A,11.0
2,23.39300012588501,learn,36606.99987411499,Tue Mar 31 2026 08:55:58 GMT-0500 (Central Daylight Time),256700.80000000075,A,meado,I,o,94,2,5732.300000000745,250968.5,8087,WL,A,11.0
2,23.54100012779236,learn,36458.99987220764,Tue Mar 31 2026 08:55:58 GMT-0500 (Central Daylight Time),256849.30000000075,A,meadow,I,w,134,2,5880.800000000745,250968.5,8087,WL,A,11.0
2,23.776000022888184,learn,36223.99997711182,Tue Mar 31 2026 08:55:58 GMT-0500 (Central Daylight Time),257084.6000000015,A,meadowenter,I,enter,220,2,6116.10000000149,250968.5,8087,WL,A,11.0
2,39.07100009918213,learn,20928.99990081787,Tue Mar 31 2026 08:55:58 GMT-0500 (Central Daylight Time),272379.1000000015,A,f,I,f,15273,2,15294.300000000745,257084.80000000075,8087,WL,A,12.0
2,39.10300016403198,learn,20896.999835968018,Tue Mar 31 2026 08:55:58 GMT-0500 (Central Daylight Time),272410.90000000224,A,fl,I,l,16,2,15326.10000000149,257084.80000000075,8087,WL,A,12.0
2,39.30400013923645,learn,20695.99986076355,Tue Mar 31 2026 08:55:58 GMT-0500 (Central Daylight Time),272612.1000000015,A,flo,I,o,197,2,15527.300000000745,257084.80000000075,8087,WL,A,12.0
2,39.53600001335144,learn,20463.99998664856,Tue Mar 31 2026 08:55:58 GMT-0500 (Central Daylight Time),272844.5,A,flow,I,w,225,2,15759.699999999255,257084.80000000075,8087,WL,A,12.0
2,39.670000076293945,learn,20329.999923706055,Tue Mar 31 2026 08:55:58 GMT-0500 (Central Daylight Time),272978.6000000015,A,flowe,I,e,110,2,15893.800000000745,257084.80000000075,8087,WL,A,12.0
2,39.753000020980835,learn,20246.999979019165,Tue Mar 31 2026 08:55:58 GMT-0500 (Central Daylight Time),273061.200000003,A,flower,I,r,72,2,15976.400000002235,257084.80000000075,8087,WL,A,12.0
2,40.104000091552734,learn,19895.999908447266,Tue Mar 31 2026 08:55:58 GMT-0500 (Central Daylight Time),273412.1000000015,A,flowerenter,I,enter,346,2,16327.300000000745,257084.80000000075,8087,WL,A,12.0
2,43.385000228881836,learn,16614.999771118164,Tue Mar 31 2026 08:55:58 GMT-0500 (Central Daylight Time),276693.700000003,A,a,I,a,3276,2,3281.400000002235,273412.30000000075,8087,WL,A,13.0
2,43.53500008583069,learn,16464.99991416931,Tue Mar 31 2026 08:55:58 GMT-0500 (Central Daylight Time),276843.200000003,A,ap,I,p,134,2,3430.900000002235,273412.30000000075,8087,WL,A,13.0
2,43.66800022125244,learn,16331.999778747559,Tue Mar 31 2026 08:55:58 GMT-0500 (Central Daylight Time),276976.40000000224,A,app,I,p,120,2,3564.10000000149,273412.30000000075,8087,WL,A,13.0
2,43.78600001335144,learn,16213.99998664856,Tue Mar 31 2026 08:55:58 GMT-0500 (Central Daylight Time),277093.90000000224,A,appl,I,l,110,2,3681.60000000149,273412.30000000075,8087,WL,A,13.0
2,43.9520001411438,learn,16047.999858856201,Tue Mar 31 2026 08:55:58 GMT-0500 (Central Daylight Time),277260.40000000224,A,apple,I,e,149,2,3848.10000000149,273412.30000000075,8087,WL,A,13.0
2,44.03400015830994,learn,15965.999841690063,Tue Mar 31 2026 08:55:58 GMT-0500 (Central Daylight Time),277342.700000003,A,appleenter,I,enter,71,2,3930.400000002235,273412.30000000075,8087,WL,A,13.0
2,60.01400017738342,learn,-14.000177383422852,Tue Mar 31 2026 08:55:58 GMT-0500 (Central Daylight Time),293321.80000000075,A,None,I,None,15975,2,15978.89999999851,277342.90000000224,8087,WL,A,14.0
3,1.8310000896453857,learn,58168.999910354614,Tue Mar 31 2026 08:55:58 GMT-0500 (Central Daylight Time),362483.0,A,b,I,b,1817,2,1830.5999999977648,360652.40000000224,8087,WL,A,1.0
3,2.114000082015991,learn,57885.99991798401,Tue Mar 31 2026 08:55:58 GMT-0500 (Central Daylight Time),362766.5,A,bo,I,o,265,2,2114.099999997765,360652.40000000224,8087,WL,A,1.0
3,2.247999906539917,learn,57752.00009346008,Tue Mar 31 2026 08:55:58 GMT-0500 (Central Daylight Time),362900.40000000224,A,boo,I,o,118,2,2248.0,360652.40000000224,8087,WL,A,1.0
3,2.3480000495910645,learn,57651.999950408936,Tue Mar 31 2026 08:55:58 GMT-0500 (Central Daylight Time),363000.700000003,A,book,I,k,88,2,2348.300000000745,360652.40000000224,8087,WL,A,1.0
3,2.763000011444092,learn,57236.99998855591,Tue Mar 31 2026 08:55:58 GMT-0500 (Central Daylight Time),363415.700000003,A,bookenter,I,enter,405,2,2763.300000000745,360652.40000000224,8087,WL,A,1.0
3,3.0810000896453857,learn,56918.999910354614,Tue Mar 31 2026 08:55:58 GMT-0500 (Central Daylight Time),363733.40000000224,A,f,I,f,312,2,317.5,363415.90000000224,8087,WL,A,2.0
3,3.180000066757202,learn,56819.9999332428,Tue Mar 31 2026 08:55:58 GMT-0500 (Central Daylight Time),363832.700000003,A,fl,I,l,78,2,416.80000000074506,363415.90000000224,8087,WL,A,2.0
3,3.3299999237060547,learn,56670.000076293945,Tue Mar 31 2026 08:55:58 GMT-0500 (Central Daylight Time),363982.5,A,flo,I,o,138,2,566.5999999977648,363415.90000000224,8087,WL,A,2.0
3,3.3959999084472656,learn,56604.000091552734,Tue Mar 31 2026 08:55:58 GMT-0500 (Central Daylight Time),364048.80000000075,A,flow,I,w,45,2,632.8999999985099,363415.90000000224,8087,WL,A,2.0
3,3.4639999866485596,learn,56536.00001335144,Tue Mar 31 2026 08:55:58 GMT-0500 (Central Daylight Time),364116.6000000015,A,flowe,I,e,64,2,700.6999999992549,363415.90000000224,8087,WL,A,2.0
3,3.5810000896453857,learn,56418.999910354614,Tue Mar 31 2026 08:55:58 GMT-0500 (Central Daylight Time),364232.90000000224,A,flower,I,r,96,2,817.0,363415.90000000224,8087,WL,A,2.0
3,3.8310000896453857,learn,56168.999910354614,Tue Mar 31 2026 08:55:58 GMT-0500 (Central Daylight Time),364483.700000003,A,flowerenter,I,enter,226,2,1067.800000000745,363415.90000000224,8087,WL,A,2.0
3,4.496000051498413,learn,55503.99994850159,Tue Mar 31 2026 08:55:58 GMT-0500 (Central Daylight Time),365148.5,A,t,I,t,656,2,664.5,364484.0,8087,WL,A,3.0
3,4.664000034332275,learn,55335.999965667725,Tue Mar 31 2026 08:55:58 GMT-0500 (Central Daylight Time),365316.200000003,A,tr,I,r,163,2,832.2000000029802,364484.0,8087,WL,A,3.0
3,4.746000051498413,learn,55253.99994850159,Tue Mar 31 2026 08:55:58 GMT-0500 (Central Daylight Time),365398.30000000075,A,tra,I,a,63,2,914.3000000007451,364484.0,8087,WL,A,3.0
3,4.864000082015991,learn,55135.99991798401,Tue Mar 31 2026 08:55:58 GMT-0500 (Central Daylight Time),365516.0,A,trai,I,i,103,2,1032.0,364484.0,8087,WL,A,3.0
3,4.91100001335144,learn,55088.99998664856,Tue Mar 31 2026 08:55:58 GMT-0500 (Central Daylight Time),365563.80000000075,A,train,I,n,40,2,1079.800000000745,364484.0,8087,WL,A,3.0
3,5.130000114440918,learn,54869.99988555908,Tue Mar 31 2026 08:55:58 GMT-0500 (Central Daylight Time),365782.0,A,trainenter,I,enter,211,2,1298.0,364484.0,8087,WL,A,3.0
3,5.3459999561309814,learn,54654.00004386902,Tue Mar 31 2026 08:55:58 GMT-0500 (Central Daylight Time),365998.200000003,A,r,I,r,198,2,215.90000000223517,365782.30000000075,8087,WL,A,4.0
3,5.447000026702881,learn,54552.99997329712,Tue Mar 31 2026 08:55:58 GMT-0500 (Central Daylight Time),366099.0,A,ru,I,u,94,2,316.69999999925494,365782.30000000075,8087,WL,A,4.0
3,5.611999988555908,learn,54388.00001144409,Tue Mar 31 2026 08:55:58 GMT-0500 (Central Daylight Time),366264.40000000224,A,rug,I,g,142,2,482.1000000014901,365782.30000000075,8087,WL,A,4.0
3,5.944999933242798,learn,54055.0000667572,Tue Mar 31 2026 08:55:58 GMT-0500 (Central Daylight Time),366597.30000000075,A,rugenter,I,enter,313,2,815.0,365782.30000000075,8087,WL,A,4.0
3,6.61299991607666,learn,53387.00008392334,Tue Mar 31 2026 08:55:58 GMT-0500 (Central Daylight Time),367265.200000003,A,m,I,m,656,2,667.6000000014901,366597.6000000015,8087,WL,A,5.0
3,6.677999973297119,learn,53322.00002670288,Tue Mar 31 2026 08:55:58 GMT-0500 (Central Daylight Time),367330.80000000075,A,me,I,e,49,2,733.1999999992549,366597.6000000015,8087,WL,A,5.0
3,6.897000074386597,learn,53102.9999256134,Tue Mar 31 2026 08:55:58 GMT-0500 (Central Daylight Time),367549.200000003,A,mea,I,a,212,2,951.6000000014901,366597.6000000015,8087,WL,A,5.0
3,7.11299991607666,learn,52887.00008392334,Tue Mar 31 2026 08:55:58 GMT-0500 (Central Daylight Time),367765.1000000015,A,mead,I,d,211,2,1167.5,366597.6000000015,8087,WL,A,5.0
3,7.2799999713897705,learn,52720.00002861023,Tue Mar 31 2026 08:55:58 GMT-0500 (Central Daylight Time),367932.6000000015,A,meado,I,o,151,2,1335.0,366597.6000000015,8087,WL,A,5.0
3,7.361000061035156,learn,52638.999938964844,Tue Mar 31 2026 08:55:58 GMT-0500 (Central Daylight Time),368013.5,A,meadow,I,w,64,2,1415.8999999985099,366597.6000000015,8087,WL,A,5.0
3,7.51200008392334,learn,52487.99991607666,Tue Mar 31 2026 08:55:58 GMT-0500 (Central Daylight Time),368164.1000000015,A,meadowenter,I,enter,144,2,1566.5,366597.6000000015,8087,WL,A,5.0
3,7.712000131607056,learn,52287.999868392944,Tue Mar 31 2026 08:55:58 GMT-0500 (Central Daylight Time),368364.5,A,s,I,s,194,2,200.0,368164.5,8087,WL,A,6.0
3,7.828000068664551,learn,52171.99993133545,Tue Mar 31 2026 08:55:58 GMT-0500 (Central Daylight Time),368480.80000000075,A,sa,I,a,95,2,316.30000000074506,368164.5,8087,WL,A,6.0
3,7.977999925613403,learn,52022.0000743866,Tue Mar 31 2026 08:55:58 GMT-0500 (Central Daylight Time),368630.5,A,sal,I,l,130,2,466.0,368164.5,8087,WL,A,6.0
3,8.079999923706055,learn,51920.000076293945,Tue Mar 31 2026 08:55:58 GMT-0500 (Central Daylight Time),368732.40000000224,A,salk,I,k,97,2,567.9000000022352,368164.5,8087,WL,A,6.0
3,8.614000082015991,learn,51385.99991798401,Tue Mar 31 2026 08:55:58 GMT-0500 (Central Daylight Time),369266.200000003,A,sal,I,backspace,528,2,1101.7000000029802,368164.5,8087,WL,A,6.0
3,8.75,learn,51250.0,Tue Mar 31 2026 08:55:58 GMT-0500 (Central Daylight Time),369402.80000000075,A,salt,I,t,121,2,1238.300000000745,368164.5,8087,WL,A,6.0
3,8.92799997329712,learn,51072.00002670288,Tue Mar 31 2026 08:55:58 GMT-0500 (Central Daylight Time),369580.0,A,saltenter,I,enter,172,2,1415.5,368164.5,8087,WL,A,6.0
3,9.210999965667725,learn,50789.000034332275,Tue Mar 31 2026 08:55:58 GMT-0500 (Central Daylight Time),369863.700000003,A,h,I,h,264,2,283.4000000022352,369580.30000000075,8087,WL,A,7.0
3,9.296000003814697,learn,50703.9999961853,Tue Mar 31 2026 08:55:58 GMT-0500 (Central Daylight Time),369948.200000003,A,ha,I,a,68,2,367.9000000022352,369580.30000000075,8087,WL,A,7.0
3,9.477999925613403,learn,50522.0000743866,Tue Mar 31 2026 08:55:58 GMT-0500 (Central Daylight Time),370130.700000003,A,har,I,r,175,2,550.4000000022352,369580.30000000075,8087,WL,A,7.0
3,9.713000059127808,learn,50286.99994087219,Tue Mar 31 2026 08:55:58 GMT-0500 (Central Daylight Time),370365.30000000075,A,harp,I,p,229,2,785.0,369580.30000000075,8087,WL,A,7.0
3,10.010999917984009,learn,49989.00008201599,Tue Mar 31 2026 08:55:58 GMT-0500 (Central Daylight Time),370663.200000003,A,harpenter,I,enter,280,2,1082.9000000022352,369580.30000000075,8087,WL,A,7.0
3,10.976999998092651,learn,49023.00000190735,Tue Mar 31 2026 08:55:58 GMT-0500 (Central Daylight Time),371629.200000003,A,r,I,r,949,2,965.7000000029802,370663.5,8087,WL,A,8.0
3,11.092999935150146,learn,48907.00006484985,Tue Mar 31 2026 08:55:58 GMT-0500 (Central Daylight Time),371745.6000000015,A,ra,I,a,104,2,1082.1000000014901,370663.5,8087,WL,A,8.0
3,11.279000043869019,learn,48720.99995613098,Tue Mar 31 2026 08:55:58 GMT-0500 (Central Daylight Time),371931.700000003,A,rat,I,t,181,2,1268.2000000029802,370663.5,8087,WL,A,8.0
3,11.410000085830688,learn,48589.99991416931,Tue Mar 31 2026 08:55:58 GMT-0500 (Central Daylight Time),372062.80000000075,A,ratt,I,t,112,2,1399.300000000745,370663.5,8087,WL,A,8.0
3,11.526999950408936,learn,48473.000049591064,Tue Mar 31 2026 08:55:58 GMT-0500 (Central Daylight Time),372179.90000000224,A,rattl,I,l,100,2,1516.4000000022352,370663.5,8087,WL,A,8.0
3,11.628999948501587,learn,48371.00005149841,Tue Mar 31 2026 08:55:58 GMT-0500 (Central Daylight Time),372281.0,A,rattle,I,e,82,2,1617.5,370663.5,8087,WL,A,8.0
3,11.760999917984009,learn,48239.00008201599,Tue Mar 31 2026 08:55:58 GMT-0500 (Central Daylight Time),372413.40000000224,A,rattleenter,I,enter,123,2,1749.9000000022352,370663.5,8087,WL,A,8.0
3,11.9760000705719,learn,48023.9999294281,Tue Mar 31 2026 08:55:58 GMT-0500 (Central Daylight Time),372628.30000000075,A,g,I,g,199,2,214.69999999925494,372413.6000000015,8087,WL,A,9.0
3,12.042999982833862,learn,47957.00001716614,Tue Mar 31 2026 08:55:58 GMT-0500 (Central Daylight Time),372695.700000003,A,go,I,o,57,2,282.1000000014901,372413.6000000015,8087,WL,A,9.0
3,12.194000005722046,learn,47805.999994277954,Tue Mar 31 2026 08:55:58 GMT-0500 (Central Daylight Time),372846.5,A,gol,I,l,131,2,432.8999999985099,372413.6000000015,8087,WL,A,9.0
3,12.279000043869019,learn,47720.99995613098,Tue Mar 31 2026 08:55:58 GMT-0500 (Central Daylight Time),372931.5,A,gold,I,d,79,2,517.8999999985099,372413.6000000015,8087,WL,A,9.0
3,12.57699990272522,learn,47423.00009727478,Tue Mar 31 2026 08:55:58 GMT-0500 (Central Daylight Time),373229.40000000224,A,goldenter,I,enter,288,2,815.8000000007451,372413.6000000015,8087,WL,A,9.0
3,14.026999950408936,learn,45973.000049591064,Tue Mar 31 2026 08:55:58 GMT-0500 (Central Daylight Time),374679.6000000015,A,a,I,a,1431,2,1450.0,373229.6000000015,8087,WL,A,10.0
3,14.127000093460083,learn,45872.99990653992,Tue Mar 31 2026 08:55:58 GMT-0500 (Central Daylight Time),374779.200000003,A,ap,I,p,83,2,1549.6000000014901,373229.6000000015,8087,WL,A,10.0
3,14.259999990463257,learn,45740.00000953674,Tue Mar 31 2026 08:55:58 GMT-0500 (Central Daylight Time),374912.30000000075,A,app,I,p,121,2,1682.699999999255,373229.6000000015,8087,WL,A,10.0
3,14.39300012588501,learn,45606.99987411499,Tue Mar 31 2026 08:55:58 GMT-0500 (Central Daylight Time),375045.0,A,appl,I,l,125,2,1815.3999999985099,373229.6000000015,8087,WL,A,10.0
3,14.493000030517578,learn,45506.99996948242,Tue Mar 31 2026 08:55:58 GMT-0500 (Central Daylight Time),375145.200000003,A,apple,I,e,96,2,1915.6000000014901,373229.6000000015,8087,WL,A,10.0
3,14.710000038146973,learn,45289.99996185303,Tue Mar 31 2026 08:55:58 GMT-0500 (Central Daylight Time),375362.5,A,appleenter,I,enter,213,2,2132.89999999851,373229.6000000015,8087,WL,A,10.0
3,15.176000118255615,learn,44823.999881744385,Tue Mar 31 2026 08:55:58 GMT-0500 (Central Daylight Time),375828.40000000224,A,l,I,l,451,2,465.69999999925494,375362.700000003,8087,WL,A,11.0
3,15.309999942779541,learn,44690.00005722046,Tue Mar 31 2026 08:55:58 GMT-0500 (Central Daylight Time),375962.30000000075,A,lo,I,o,121,2,599.5999999977648,375362.700000003,8087,WL,A,11.0
3,15.42799997329712,learn,44572.00002670288,Tue Mar 31 2026 08:55:58 GMT-0500 (Central Daylight Time),376080.6000000015,A,log,I,g,98,2,717.8999999985099,375362.700000003,8087,WL,A,11.0
3,15.575999975204468,learn,44424.00002479553,Tue Mar 31 2026 08:55:58 GMT-0500 (Central Daylight Time),376228.5,A,logenter,I,enter,130,2,865.7999999970198,375362.700000003,8087,WL,A,11.0
3,25.141000032424927,learn,34858.99996757507,Tue Mar 31 2026 08:55:58 GMT-0500 (Central Daylight Time),385793.1000000015,A,g,I,g,9545,2,9564.300000000745,376228.80000000075,8087,WL,A,12.0
3,25.240000009536743,learn,34759.99999046326,Tue Mar 31 2026 08:55:58 GMT-0500 (Central Daylight Time),385892.40000000224,A,go,I,o,84,2,9663.60000000149,376228.80000000075,8087,WL,A,12.0
3,25.407999992370605,learn,34592.000007629395,Tue Mar 31 2026 08:55:58 GMT-0500 (Central Daylight Time),386060.40000000224,A,gol,I,l,152,2,9831.60000000149,376228.80000000075,8087,WL,A,12.0
3,25.707000017166138,learn,34292.99998283386,Tue Mar 31 2026 08:55:58 GMT-0500 (Central Daylight Time),386358.90000000224,A,gold,I,d,279,2,10130.10000000149,376228.80000000075,8087,WL,A,12.0
3,26.288000106811523,learn,33711.99989318848,Tue Mar 31 2026 08:55:58 GMT-0500 (Central Daylight Time),386940.80000000075,A,goldenter,I,enter,567,2,10712.0,376228.80000000075,8087,WL,A,12.0
3,28.15499997138977,learn,31845.00002861023,Tue Mar 31 2026 08:55:58 GMT-0500 (Central Daylight Time),388807.0,A,f,I,f,1847,2,1866.0,386941.0,8087,WL,A,13.0
3,28.23900008201599,learn,31760.99991798401,Tue Mar 31 2026 08:55:58 GMT-0500 (Central Daylight Time),388891.6000000015,A,fi,I,i,77,2,1950.6000000014901,386941.0,8087,WL,A,13.0
3,28.32100009918213,learn,31678.99990081787,Tue Mar 31 2026 08:55:58 GMT-0500 (Central Daylight Time),388973.700000003,A,fin,I,n,64,2,2032.7000000029802,386941.0,8087,WL,A,13.0
3,28.44000005722046,learn,31559.99994277954,Tue Mar 31 2026 08:55:58 GMT-0500 (Central Daylight Time),389092.40000000224,A,fing,I,g,113,2,2151.400000002235,386941.0,8087,WL,A,13.0
3,28.591000080108643,learn,31408.999919891357,Tue Mar 31 2026 08:55:58 GMT-0500 (Central Daylight Time),389243.40000000224,A,finge,I,e,144,2,2302.400000002235,386941.0,8087,WL,A,13.0
3,28.638000011444092,learn,31361.99998855591,Tue Mar 31 2026 08:55:58 GMT-0500 (Central Daylight Time),389290.200000003,A,finger,I,r,40,2,2349.2000000029802,386941.0,8087,WL,A,13.0
3,28.789999961853027,learn,31210.000038146973,Tue Mar 31 2026 08:55:58 GMT-0500 (Central Daylight Time),389442.5,A,fingerenter,I,enter,148,2,2501.5,386941.0,8087,WL,A,13.0
3,37.90300011634827,learn,22096.999883651733,Tue Mar 31 2026 08:55:58 GMT-0500 (Central Daylight Time),398555.0,A,m,I,m,9091,2,9112.29999999702,389442.700000003,8087,WL,A,14.0
3,38.03600001335144,learn,21963.99998664856,Tue Mar 31 2026 08:55:58 GMT-0500 (Central Daylight Time),398688.200000003,A,me,I,e,122,2,9245.5,389442.700000003,8087,WL,A,14.0
3,38.36899995803833,learn,21631.00004196167,Tue Mar 31 2026 08:55:58 GMT-0500 (Central Daylight Time),399021.5,A,mea,I,a,325,2,9578.79999999702,389442.700000003,8087,WL,A,14.0
3,38.55299997329712,learn,21447.00002670288,Tue Mar 31 2026 08:55:58 GMT-0500 (Central Daylight Time),399205.40000000224,A,mead,I,d,169,2,9762.699999999255,389442.700000003,8087,WL,A,14.0
3,38.668999910354614,learn,21331.000089645386,Tue Mar 31 2026 08:55:58 GMT-0500 (Central Daylight Time),399321.80000000075,A,meado,I,o,97,2,9879.099999997765,389442.700000003,8087,WL,A,14.0
3,38.76900005340576,learn,21230.99994659424,Tue Mar 31 2026 08:55:58 GMT-0500 (Central Daylight Time),399421.30000000075,A,meadow,I,w,81,2,9978.599999997765,389442.700000003,8087,WL,A,14.0
3,38.90400004386902,learn,21095.99995613098,Tue Mar 31 2026 08:55:58 GMT-0500 (Central Daylight Time),399556.30000000075,A,meadowenter,I,enter,119,2,10113.599999997765,389442.700000003,8087,WL,A,14.0
3,47.25099992752075,learn,12749.000072479248,Tue Mar 31 2026 08:55:58 GMT-0500 (Central Daylight Time),407903.0,A,c,I,c,8325,2,8346.39999999851,399556.6000000015,8087,WL,A,15.0
3,47.33200001716614,learn,12667.999982833862,Tue Mar 31 2026 08:55:58 GMT-0500 (Central Daylight Time),407984.200000003,A,ch,I,h,69,2,8427.60000000149,399556.6000000015,8087,WL,A,15.0
3,47.41600012779236,learn,12583.999872207642,Tue Mar 31 2026 08:55:58 GMT-0500 (Central Daylight Time),408068.200000003,A,chi,I,i,67,2,8511.60000000149,399556.6000000015,8087,WL,A,15.0
3,47.568000078201294,learn,12431.999921798706,Tue Mar 31 2026 08:55:58 GMT-0500 (Central Daylight Time),408220.1000000015,A,chim,I,m,147,2,8663.5,399556.6000000015,8087,WL,A,15.0
3,47.91600012779236,learn,12083.999872207642,Tue Mar 31 2026 08:55:58 GMT-0500 (Central Daylight Time),408568.5,A,chimn,I,n,328,2,9011.89999999851,399556.6000000015,8087,WL,A,15.0
3,47.99900007247925,learn,12000.999927520752,Tue Mar 31 2026 08:55:58 GMT-0500 (Central Daylight Time),408651.40000000224,A,chimne,I,e,66,2,9094.800000000745,399556.6000000015,8087,WL,A,15.0
3,48.16700005531311,learn,11832.99994468689,Tue Mar 31 2026 08:55:58 GMT-0500 (Central Daylight Time),408819.1000000015,A,chimney,I,y,154,2,9262.5,399556.6000000015,8087,WL,A,15.0
3,48.365999937057495,learn,11634.000062942505,Tue Mar 31 2026 08:55:58 GMT-0500 (Central Daylight Time),409018.40000000224,A,chimneyenter,I,enter,186,2,9461.800000000745,399556.6000000015,8087,WL,A,15.0
4,0.4649999141693115,learn,59535.00008583069,Tue Mar 31 2026 08:55:58 GMT-0500 (Central Daylight Time),475446.200000003,A,b,I,b,455,2,464.20000000298023,474982.0,8087,WL,A,1.0
4,0.6670000553131104,learn,59332.99994468689,Tue Mar 31 2026 08:55:58 GMT-0500 (Central Daylight Time),475648.40000000224,A,bo,I,o,191,2,666.4000000022352,474982.0,8087,WL,A,1.0
4,0.7990000247955322,learn,59200.99997520447,Tue Mar 31 2026 08:55:58 GMT-0500 (Central Daylight Time),475780.700000003,A,boo,I,o,125,2,798.7000000029802,474982.0,8087,WL,A,1.0
4,0.9660000801086426,learn,59033.99991989136,Tue Mar 31 2026 08:55:58 GMT-0500 (Central Daylight Time),475947.1000000015,A,book,I,k,152,2,965.1000000014901,474982.0,8087,WL,A,1.0
4,1.496999979019165,learn,58503.000020980835,Tue Mar 31 2026 08:55:58 GMT-0500 (Central Daylight Time),476478.700000003,A,bookenter,I,enter,515,2,1496.7000000029802,474982.0,8087,WL,A,1.0
4,1.931999921798706,learn,58068.000078201294,Tue Mar 31 2026 08:55:58 GMT-0500 (Central Daylight Time),476913.80000000075,A,f,I,f,424,2,434.8999999985099,476478.90000000224,8087,WL,A,2.0
4,2.0160000324249268,learn,57983.99996757507,Tue Mar 31 2026 08:55:58 GMT-0500 (Central Daylight Time),476997.200000003,A,fl,I,l,79,2,518.3000000007451,476478.90000000224,8087,WL,A,2.0
4,2.1649999618530273,learn,57835.00003814697,Tue Mar 31 2026 08:55:58 GMT-0500 (Central Daylight Time),477146.6000000015,A,flo,I,o,127,2,667.6999999992549,476478.90000000224,8087,WL,A,2.0
4,2.2320001125335693,learn,57767.99988746643,Tue Mar 31 2026 08:55:58 GMT-0500 (Central Daylight Time),477213.5,A,flow,I,w,49,2,734.5999999977648,476478.90000000224,8087,WL,A,2.0
4,2.3320000171661377,learn,57667.99998283386,Tue Mar 31 2026 08:55:58 GMT-0500 (Central Daylight Time),477313.1000000015,A,flowe,I,e,86,2,834.1999999992549,476478.90000000224,8087,WL,A,2.0
4,2.447999954223633,learn,57552.00004577637,Tue Mar 31 2026 08:55:58 GMT-0500 (Central Daylight Time),477429.40000000224,A,flower,I,r,98,2,950.5,476478.90000000224,8087,WL,A,2.0
4,2.615000009536743,learn,57384.99999046326,Tue Mar 31 2026 08:55:58 GMT-0500 (Central Daylight Time),477596.5,A,flowerenter,I,enter,160,2,1117.5999999977648,476478.90000000224,8087,WL,A,2.0
4,2.9149999618530273,learn,57085.00003814697,Tue Mar 31 2026 08:55:58 GMT-0500 (Central Daylight Time),477896.40000000224,A,r,I,r,290,2,299.80000000074506,477596.6000000015,8087,WL,A,3.0
4,3.3489999771118164,learn,56651.00002288818,Tue Mar 31 2026 08:55:58 GMT-0500 (Central Daylight Time),478330.5,A,ru,I,u,413,2,733.8999999985099,477596.6000000015,8087,WL,A,3.0
4,3.5310001373291016,learn,56468.9998626709,Tue Mar 31 2026 08:55:58 GMT-0500 (Central Daylight Time),478512.80000000075,A,rug,I,g,170,2,916.1999999992549,477596.6000000015,8087,WL,A,3.0
4,3.7990000247955322,learn,56200.99997520447,Tue Mar 31 2026 08:55:58 GMT-0500 (Central Daylight Time),478781.0,A,rugenter,I,enter,254,2,1184.3999999985099,477596.6000000015,8087,WL,A,3.0
4,3.999000072479248,learn,56000.99992752075,Tue Mar 31 2026 08:55:58 GMT-0500 (Central Daylight Time),478980.1000000015,A,h,I,h,192,2,198.89999999850988,478781.200000003,8087,WL,A,4.0
4,4.098999977111816,learn,55901.00002288818,Tue Mar 31 2026 08:55:58 GMT-0500 (Central Daylight Time),479080.80000000075,A,ha,I,a,78,2,299.5999999977648,478781.200000003,8087,WL,A,4.0
4,4.181999921798706,learn,55818.000078201294,Tue Mar 31 2026 08:55:58 GMT-0500 (Central Daylight Time),479163.200000003,A,har,I,r,59,2,382.0,478781.200000003,8087,WL,A,4.0
4,4.364000082015991,learn,55635.99991798401,Tue Mar 31 2026 08:55:58 GMT-0500 (Central Daylight Time),479345.1000000015,A,harp,I,p,170,2,563.8999999985099,478781.200000003,8087,WL,A,4.0
4,4.663000106811523,learn,55336.99989318848,Tue Mar 31 2026 08:55:58 GMT-0500 (Central Daylight Time),479644.90000000224,A,harpenter,I,enter,282,2,863.6999999992549,478781.200000003,8087,WL,A,4.0
4,5.180999994277954,learn,54819.000005722046,Tue Mar 31 2026 08:55:58 GMT-0500 (Central Daylight Time),480162.5,A,r,I,r,504,2,517.2999999970198,479645.200000003,8087,WL,A,5.0
4,5.281000137329102,learn,54718.9998626709,Tue Mar 31 2026 08:55:58 GMT-0500 (Central Daylight Time),480262.40000000224,A,ra,I,a,83,2,617.1999999992549,479645.200000003,8087,WL,A,5.0
4,5.463000059127808,learn,54536.99994087219,Tue Mar 31 2026 08:55:58 GMT-0500 (Central Daylight Time),480444.40000000224,A,rat,I,t,173,2,799.1999999992549,479645.200000003,8087,WL,A,5.0
4,5.598999977111816,learn,54401.00002288818,Tue Mar 31 2026 08:55:58 GMT-0500 (Central Daylight Time),480580.6000000015,A,ratt,I,t,122,2,935.3999999985099,479645.200000003,8087,WL,A,5.0
4,5.697000026702881,learn,54302.99997329712,Tue Mar 31 2026 08:55:58 GMT-0500 (Central Daylight Time),480678.40000000224,A,rattl,I,l,80,2,1033.199999999255,479645.200000003,8087,WL,A,5.0
4,5.796999931335449,learn,54203.00006866455,Tue Mar 31 2026 08:55:58 GMT-0500 (Central Daylight Time),480778.90000000224,A,rattle,I,e,85,2,1133.699999999255,479645.200000003,8087,WL,A,5.0
4,5.947999954223633,learn,54052.00004577637,Tue Mar 31 2026 08:55:58 GMT-0500 (Central Daylight Time),480929.40000000224,A,rattleenter,I,enter,143,2,1284.199999999255,479645.200000003,8087,WL,A,5.0
4,6.197000026702881,learn,53802.99997329712,Tue Mar 31 2026 08:55:58 GMT-0500 (Central Daylight Time),481179.0,A,c,I,c,237,2,249.5,480929.5,8087,WL,A,6.0
4,6.296999931335449,learn,53703.00006866455,Tue Mar 31 2026 08:55:58 GMT-0500 (Central Daylight Time),481278.90000000224,A,ch,I,h,89,2,349.4000000022352,480929.5,8087,WL,A,6.0
4,6.3459999561309814,learn,53654.00004386902,Tue Mar 31 2026 08:55:58 GMT-0500 (Central Daylight Time),481328.1000000015,A,chi,I,i,29,2,398.6000000014901,480929.5,8087,WL,A,6.0
4,6.480000019073486,learn,53519.999980926514,Tue Mar 31 2026 08:55:58 GMT-0500 (Central Daylight Time),481461.30000000075,A,chim,I,m,118,2,531.8000000007451,480929.5,8087,WL,A,6.0
4,6.79800009727478,learn,53201.99990272522,Tue Mar 31 2026 08:55:58 GMT-0500 (Central Daylight Time),481779.700000003,A,chimn,I,n,315,2,850.2000000029802,480929.5,8087,WL,A,6.0
4,6.895999908447266,learn,53104.000091552734,Tue Mar 31 2026 08:55:58 GMT-0500 (Central Daylight Time),481877.6000000015,A,chimne,I,e,79,2,948.1000000014901,480929.5,8087,WL,A,6.0
4,7.046000003814697,learn,52953.9999961853,Tue Mar 31 2026 08:55:58 GMT-0500 (Central Daylight Time),482028.0,A,chimney,I,y,146,2,1098.5,480929.5,8087,WL,A,6.0
4,7.312000036239624,learn,52687.999963760376,Tue Mar 31 2026 08:55:58 GMT-0500 (Central Daylight Time),482293.6000000015,A,chimneyenter,I,enter,258,2,1364.1000000014901,480929.5,8087,WL,A,6.0
4,7.565000057220459,learn,52434.99994277954,Tue Mar 31 2026 08:55:58 GMT-0500 (Central Daylight Time),482547.1000000015,A,g,I,g,241,2,253.19999999925494,482293.90000000224,8087,WL,A,7.0
4,7.61299991607666,learn,52387.00008392334,Tue Mar 31 2026 08:55:58 GMT-0500 (Central Daylight Time),482594.700000003,A,go,I,o,34,2,300.80000000074506,482293.90000000224,8087,WL,A,7.0
4,7.763000011444092,learn,52236.99998855591,Tue Mar 31 2026 08:55:58 GMT-0500 (Central Daylight Time),482745.1000000015,A,gol,I,l,140,2,451.19999999925494,482293.90000000224,8087,WL,A,7.0
4,7.895999908447266,learn,52104.000091552734,Tue Mar 31 2026 08:55:58 GMT-0500 (Central Daylight Time),482877.700000003,A,gold,I,d,126,2,583.8000000007451,482293.90000000224,8087,WL,A,7.0
4,8.19700002670288,learn,51802.99997329712,Tue Mar 31 2026 08:55:58 GMT-0500 (Central Daylight Time),483178.90000000224,A,goldenter,I,enter,297,2,885.0,482293.90000000224,8087,WL,A,7.0
4,8.763000011444092,learn,51236.99998855591,Tue Mar 31 2026 08:55:58 GMT-0500 (Central Daylight Time),483744.90000000224,A,f,I,f,546,2,565.8000000007451,483179.1000000015,8087,WL,A,8.0
4,8.847000122070312,learn,51152.99987792969,Tue Mar 31 2026 08:55:58 GMT-0500 (Central Daylight Time),483829.1000000015,A,fi,I,i,74,2,650.0,483179.1000000015,8087,WL,A,8.0
4,8.911999940872192,learn,51088.00005912781,Tue Mar 31 2026 08:55:58 GMT-0500 (Central Daylight Time),483893.90000000224,A,fin,I,n,49,2,714.8000000007451,483179.1000000015,8087,WL,A,8.0
4,9.078999996185303,learn,50921.0000038147,Tue Mar 31 2026 08:55:58 GMT-0500 (Central Daylight Time),484060.6000000015,A,fing,I,g,160,2,881.5,483179.1000000015,8087,WL,A,8.0
4,9.196000099182129,learn,50803.99990081787,Tue Mar 31 2026 08:55:58 GMT-0500 (Central Daylight Time),484177.6000000015,A,finge,I,e,104,2,998.5,483179.1000000015,8087,WL,A,8.0
4,9.245000123977661,learn,50754.99987602234,Tue Mar 31 2026 08:55:58 GMT-0500 (Central Daylight Time),484226.700000003,A,finger,I,r,42,2,1047.6000000014901,483179.1000000015,8087,WL,A,8.0
4,9.663000106811523,learn,50336.99989318848,Tue Mar 31 2026 08:55:58 GMT-0500 (Central Daylight Time),484644.30000000075,A,fingerenter,I,enter,412,2,1465.199999999255,483179.1000000015,8087,WL,A,8.0
4,10.663000106811523,learn,49336.99989318848,Tue Mar 31 2026 08:55:58 GMT-0500 (Central Daylight Time),485644.90000000224,A,l,I,l,996,2,1000.4000000022352,484644.5,8087,WL,A,9.0
4,10.812999963760376,learn,49187.000036239624,Tue Mar 31 2026 08:55:58 GMT-0500 (Central Daylight Time),485794.80000000075,A,lo,I,o,127,2,1150.300000000745,484644.5,8087,WL,A,9.0
4,10.92900013923645,learn,49070.99986076355,Tue Mar 31 2026 08:55:58 GMT-0500 (Central Daylight Time),485910.700000003,A,log,I,g,96,2,1266.2000000029802,484644.5,8087,WL,A,9.0
4,11.34500002861023,learn,48654.99997138977,Tue Mar 31 2026 08:55:58 GMT-0500 (Central Daylight Time),486326.30000000075,A,logenter,I,enter,398,2,1681.800000000745,484644.5,8087,WL,A,9.0
4,14.24399995803833,learn,45756.00004196167,Tue Mar 31 2026 08:55:58 GMT-0500 (Central Daylight Time),489225.700000003,A,s,I,s,2887,2,2899.10000000149,486326.6000000015,8087,WL,A,10.0
4,14.32699990272522,learn,45673.00009727478,Tue Mar 31 2026 08:55:58 GMT-0500 (Central Daylight Time),489309.1000000015,A,sa,I,a,67,2,2982.5,486326.6000000015,8087,WL,A,10.0
4,14.476999998092651,learn,45523.00000190735,Tue Mar 31 2026 08:55:58 GMT-0500 (Central Daylight Time),489458.700000003,A,sal,I,l,134,2,3132.10000000149,486326.6000000015,8087,WL,A,10.0
4,14.694999933242798,learn,45305.0000667572,Tue Mar 31 2026 08:55:58 GMT-0500 (Central Daylight Time),489677.0,A,salt,I,t,196,2,3350.39999999851,486326.6000000015,8087,WL,A,10.0
4,15.046000003814697,learn,44953.9999961853,Tue Mar 31 2026 08:55:58 GMT-0500 (Central Daylight Time),490027.5,A,saltenter,I,enter,343,2,3700.89999999851,486326.6000000015,8087,WL,A,10.0
4,19.97499990463257,learn,40025.00009536743,Tue Mar 31 2026 08:55:58 GMT-0500 (Central Daylight Time),494956.80000000075,A,a,I,a,4914,2,4929.099999997765,490027.700000003,8087,WL,A,11.0
4,20.110000133514404,learn,39889.999866485596,Tue Mar 31 2026 08:55:58 GMT-0500 (Central Daylight Time),495091.200000003,A,ap,I,p,123,2,5063.5,490027.700000003,8087,WL,A,11.0
4,20.242000102996826,learn,39757.999897003174,Tue Mar 31 2026 08:55:58 GMT-0500 (Central Daylight Time),495224.0,A,app,I,p,121,2,5196.29999999702,490027.700000003,8087,WL,A,11.0
4,20.375999927520752,learn,39624.00007247925,Tue Mar 31 2026 08:55:58 GMT-0500 (Central Daylight Time),495357.30000000075,A,appl,I,l,126,2,5329.599999997765,490027.700000003,8087,WL,A,11.0
4,20.509999990463257,learn,39490.00000953674,Tue Mar 31 2026 08:55:58 GMT-0500 (Central Daylight Time),495491.80000000075,A,apple,I,e,118,2,5464.099999997765,490027.700000003,8087,WL,A,11.0
4,20.625,learn,39375.0,Tue Mar 31 2026 08:55:58 GMT-0500 (Central Daylight Time),495606.700000003,A,appleenter,I,enter,97,2,5579.0,490027.700000003,8087,WL,A,11.0
4,22.506999969482422,learn,37493.00003051758,Tue Mar 31 2026 08:55:58 GMT-0500 (Central Daylight Time),497489.0,A,h,I,h,1870,2,1882.0,495607.0,8087,WL,A,12.0
4,22.641000032424927,learn,37358.99996757507,Tue Mar 31 2026 08:55:58 GMT-0500 (Central Daylight Time),497622.80000000075,A,ha,I,a,126,2,2015.800000000745,495607.0,8087,WL,A,12.0
4,22.70900011062622,learn,37290.99988937378,Tue Mar 31 2026 08:55:58 GMT-0500 (Central Daylight Time),497690.1000000015,A,har,I,r,53,2,2083.10000000149,495607.0,8087,WL,A,12.0
4,22.841000080108643,learn,37158.99991989136,Tue Mar 31 2026 08:55:58 GMT-0500 (Central Daylight Time),497822.6000000015,A,harp,I,p,122,2,2215.60000000149,495607.0,8087,WL,A,12.0
4,23.02500009536743,learn,36974.99990463257,Tue Mar 31 2026 08:55:58 GMT-0500 (Central Daylight Time),498006.40000000224,A,harpenter,I,enter,165,2,2399.400000002235,495607.0,8087,WL,A,12.0
4,27.490000009536743,learn,32509.999990463257,Tue Mar 31 2026 08:55:58 GMT-0500 (Central Daylight Time),502471.6000000015,A,m,I,m,4456,2,4465.0,498006.6000000015,8087,WL,A,13.0
4,27.622999906539917,learn,32377.000093460083,Tue Mar 31 2026 08:55:58 GMT-0500 (Central Daylight Time),502604.80000000075,A,me,I,e,117,2,4598.199999999255,498006.6000000015,8087,WL,A,13.0
4,27.689000129699707,learn,32310.999870300293,Tue Mar 31 2026 08:55:58 GMT-0500 (Central Daylight Time),502671.1000000015,A,mea,I,a,55,2,4664.5,498006.6000000015,8087,WL,A,13.0
4,27.907000064849854,learn,32092.999935150146,Tue Mar 31 2026 08:55:58 GMT-0500 (Central Daylight Time),502888.700000003,A,mead,I,d,198,2,4882.10000000149,498006.6000000015,8087,WL,A,13.0
4,28.056999921798706,learn,31943.000078201294,Tue Mar 31 2026 08:55:58 GMT-0500 (Central Daylight Time),503038.5,A,meado,I,o,132,2,5031.89999999851,498006.6000000015,8087,WL,A,13.0
4,28.140000104904175,learn,31859.999895095825,Tue Mar 31 2026 08:55:58 GMT-0500 (Central Daylight Time),503121.5,A,meadow,I,w,69,2,5114.89999999851,498006.6000000015,8087,WL,A,13.0
4,28.306999921798706,learn,31693.000078201294,Tue Mar 31 2026 08:55:58 GMT-0500 (Central Daylight Time),503288.1000000015,A,meadowenter,I,enter,154,2,5281.5,498006.6000000015,8087,WL,A,13.0
4,30.33999991416931,learn,29660.00008583069,Tue Mar 31 2026 08:55:58 GMT-0500 (Central Daylight Time),505321.40000000224,A,r,I,r,2022,2,2033.1000000014901,503288.30000000075,8087,WL,A,14.0
4,30.439000129699707,learn,29560.999870300293,Tue Mar 31 2026 08:55:58 GMT-0500 (Central Daylight Time),505420.700000003,A,ru,I,u,92,2,2132.400000002235,503288.30000000075,8087,WL,A,14.0
4,30.65499997138977,learn,29345.00002861023,Tue Mar 31 2026 08:55:58 GMT-0500 (Central Daylight Time),505636.40000000224,A,rug,I,g,206,2,2348.10000000149,503288.30000000075,8087,WL,A,14.0
4,30.907000064849854,learn,29092.999935150146,Tue Mar 31 2026 08:55:58 GMT-0500 (Central Daylight Time),505888.80000000075,A,rugenter,I,enter,235,2,2600.5,503288.30000000075,8087,WL,A,14.0
4,34.020999908447266,learn,25979.000091552734,Tue Mar 31 2026 08:55:58 GMT-0500 (Central Daylight Time),509002.6000000015,A,a,I,a,3099,2,3113.60000000149,505889.0,8087,WL,A,15.0
4,34.55400013923645,learn,25445.99986076355,Tue Mar 31 2026 08:55:58 GMT-0500 (Central Daylight Time),509535.5,A,,I,backspace,524,2,3646.5,505889.0,8087,WL,A,15.0
4,35.97099995613098,learn,24029.00004386902,Tue Mar 31 2026 08:55:58 GMT-0500 (Central Daylight Time),510952.90000000224,A,g,I,g,1405,2,5063.900000002235,505889.0,8087,WL,A,15.0
4,36.03699994087219,learn,23963.000059127808,Tue Mar 31 2026 08:55:58 GMT-0500 (Central Daylight Time),511018.200000003,A,go,I,o,52,2,5129.20000000298,505889.0,8087,WL,A,15.0
4,36.17199993133545,learn,23828.00006866455,Tue Mar 31 2026 08:55:58 GMT-0500 (Central Daylight Time),511153.6000000015,A,gol,I,l,122,2,5264.60000000149,505889.0,8087,WL,A,15.0
4,36.30400013923645,learn,23695.99986076355,Tue Mar 31 2026 08:55:58 GMT-0500 (Central Daylight Time),511285.6000000015,A,gold,I,d,113,2,5396.60000000149,505889.0,8087,WL,A,15.0
4,36.454999923706055,learn,23545.000076293945,Tue Mar 31 2026 08:55:58 GMT-0500 (Central Daylight Time),511436.5,A,goldenter,I,enter,134,2,5547.5,505889.0,8087,WL,A,15.0
5,0.35000014305114746,learn,60000.0,Tue Mar 31 2026 08:55:58 GMT-0500 (Central Daylight Time),576348.5,A,b,I,b,333,2,349.0999999977648,575999.4000000022,8087,WL,A,1.0
5,0.4830000400543213,learn,60000.0,Tue Mar 31 2026 08:55:58 GMT-0500 (Central Daylight Time),576481.6000000015,A,bu,I,u,119,2,482.19999999925494,575999.4000000022,8087,WL,A,1.0
5,0.6160001754760742,learn,60000.0,Tue Mar 31 2026 08:55:58 GMT-0500 (Central Daylight Time),576614.200000003,A,but,I,t,123,2,614.8000000007451,575999.4000000022,8087,WL,A,1.0
5,0.7330000400543213,learn,60000.0,Tue Mar 31 2026 08:55:58 GMT-0500 (Central Daylight Time),576731.8000000007,A,butt,I,t,101,2,732.3999999985099,575999.4000000022,8087,WL,A,1.0
5,0.9170000553131104,learn,60000.0,Tue Mar 31 2026 08:55:58 GMT-0500 (Central Daylight Time),576915.8000000007,A,butto,I,o,177,2,916.3999999985099,575999.4000000022,8087,WL,A,1.0
5,0.9980001449584961,learn,60000.0,Tue Mar 31 2026 08:55:58 GMT-0500 (Central Daylight Time),576997.1000000015,A,button,I,n,72,2,997.6999999992549,575999.4000000022,8087,WL,A,1.0
5,1.183000087738037,learn,60000.0,Tue Mar 31 2026 08:55:58 GMT-0500 (Central Daylight Time),577181.6000000015,A,buttonenter,I,enter,173,2,1182.199999999255,575999.4000000022,8087,WL,A,1.0
5,1.4830000400543213,learn,60000.0,Tue Mar 31 2026 08:55:58 GMT-0500 (Central Daylight Time),577481.8000000007,A,l,I,l,280,2,300.0,577181.8000000007,8087,WL,A,2.0
5,1.5989999771118164,learn,60000.0,Tue Mar 31 2026 08:55:58 GMT-0500 (Central Daylight Time),577597.700000003,A,lo,I,o,98,2,415.9000000022352,577181.8000000007,8087,WL,A,2.0
5,1.7160000801086426,learn,60000.0,Tue Mar 31 2026 08:55:58 GMT-0500 (Central Daylight Time),577715.1000000015,A,log,I,g,102,2,533.3000000007451,577181.8000000007,8087,WL,A,2.0
5,1.8650000095367432,learn,60000.0,Tue Mar 31 2026 08:55:58 GMT-0500 (Central Daylight Time),577864.0,A,logenter,I,enter,137,2,682.1999999992549,577181.8000000007,8087,WL,A,2.0
5,2.114000082015991,learn,60000.0,Tue Mar 31 2026 08:55:58 GMT-0500 (Central Daylight Time),578112.8000000007,A,k,I,k,237,2,248.5,577864.3000000007,8087,WL,A,3.0
5,2.2300000190734863,learn,60000.0,Tue Mar 31 2026 08:55:58 GMT-0500 (Central Daylight Time),578229.1000000015,A,ke,I,e,101,2,364.80000000074506,577864.3000000007,8087,WL,A,3.0
5,2.365000009536743,learn,60000.0,Tue Mar 31 2026 08:55:58 GMT-0500 (Central Daylight Time),578363.5,A,key,I,y,114,2,499.19999999925494,577864.3000000007,8087,WL,A,3.0
5,2.514000177383423,learn,60000.0,Tue Mar 31 2026 08:55:58 GMT-0500 (Central Daylight Time),578512.5,A,keyenter,I,enter,130,2,648.1999999992549,577864.3000000007,8087,WL,A,3.0
5,2.7320001125335693,learn,60000.0,Tue Mar 31 2026 08:55:58 GMT-0500 (Central Daylight Time),578730.9000000022,A,r,I,r,206,2,218.10000000149012,578512.8000000007,8087,WL,A,4.0
5,2.815000057220459,learn,60000.0,Tue Mar 31 2026 08:55:58 GMT-0500 (Central Daylight Time),578814.0,A,ra,I,a,64,2,301.19999999925494,578512.8000000007,8087,WL,A,4.0
5,2.950000047683716,learn,60000.0,Tue Mar 31 2026 08:55:58 GMT-0500 (Central Daylight Time),578948.5,A,rat,I,t,124,2,435.69999999925494,578512.8000000007,8087,WL,A,4.0
5,3.0820000171661377,learn,60000.0,Tue Mar 31 2026 08:55:58 GMT-0500 (Central Daylight Time),579080.8000000007,A,ratt,I,t,110,2,568.0,578512.8000000007,8087,WL,A,4.0
5,3.199000120162964,learn,60000.0,Tue Mar 31 2026 08:55:58 GMT-0500 (Central Daylight Time),579197.6000000015,A,rattl,I,l,99,2,684.8000000007451,578512.8000000007,8087,WL,A,4.0
5,3.381999969482422,learn,60000.0,Tue Mar 31 2026 08:55:58 GMT-0500 (Central Daylight Time),579380.3000000007,A,rattle,I,e,175,2,867.5,578512.8000000007,8087,WL,A,4.0
5,3.515000104904175,learn,60000.0,Tue Mar 31 2026 08:55:58 GMT-0500 (Central Daylight Time),579513.9000000022,A,rattleenter,I,enter,120,2,1001.1000000014901,578512.8000000007,8087,WL,A,4.0
5,3.9809999465942383,learn,60000.0,Tue Mar 31 2026 08:55:58 GMT-0500 (Central Daylight Time),579979.6000000015,A,g,I,g,451,2,465.5,579514.1000000015,8087,WL,A,5.0
5,4.064000129699707,learn,60000.0,Tue Mar 31 2026 08:55:58 GMT-0500 (Central Daylight Time),580063.0,A,go,I,o,66,2,548.8999999985099,579514.1000000015,8087,WL,A,5.0
5,4.182000160217285,learn,60000.0,Tue Mar 31 2026 08:55:58 GMT-0500 (Central Daylight Time),580180.3000000007,A,gol,I,l,112,2,666.1999999992549,579514.1000000015,8087,WL,A,5.0
5,4.2820000648498535,learn,60000.0,Tue Mar 31 2026 08:55:58 GMT-0500 (Central Daylight Time),580280.5,A,gold,I,d,82,2,766.3999999985099,579514.1000000015,8087,WL,A,5.0
5,4.648000001907349,learn,60000.0,Tue Mar 31 2026 08:55:58 GMT-0500 (Central Daylight Time),580646.8000000007,A,goldenter,I,enter,348,2,1132.699999999255,579514.1000000015,8087,WL,A,5.0
5,5.865000009536743,learn,60000.0,Tue Mar 31 2026 08:55:58 GMT-0500 (Central Daylight Time),581863.3000000007,A,b,I,b,1207,2,1216.300000000745,580647.0,8087,WL,A,6.0
5,5.998000144958496,learn,60000.0,Tue Mar 31 2026 08:55:58 GMT-0500 (Central Daylight Time),581996.5,A,bo,I,o,128,2,1349.5,580647.0,8087,WL,A,6.0
5,6.183000087738037,learn,60000.0,Tue Mar 31 2026 08:55:58 GMT-0500 (Central Daylight Time),582181.3000000007,A,bok,I,k,174,2,1534.300000000745,580647.0,8087,WL,A,6.0
5,6.748000144958496,learn,60000.0,Tue Mar 31 2026 08:55:58 GMT-0500 (Central Daylight Time),582746.700000003,A,bo,I,backspace,560,2,2099.7000000029802,580647.0,8087,WL,A,6.0
5,6.96399998664856,learn,60000.0,Tue Mar 31 2026 08:55:58 GMT-0500 (Central Daylight Time),582962.9000000022,A,boo,I,o,202,2,2315.900000002235,580647.0,8087,WL,A,6.0
5,7.147000074386597,learn,60000.0,Tue Mar 31 2026 08:55:58 GMT-0500 (Central Daylight Time),583146.200000003,A,book,I,k,169,2,2499.2000000029802,580647.0,8087,WL,A,6.0
5,7.365000009536743,learn,60000.0,Tue Mar 31 2026 08:55:58 GMT-0500 (Central Daylight Time),583363.6000000015,A,bookenter,I,enter,203,2,2716.60000000149,580647.0,8087,WL,A,6.0
5,8.514000177383423,learn,60000.0,Tue Mar 31 2026 08:55:58 GMT-0500 (Central Daylight Time),584512.9000000022,A,m,I,m,1131,2,1149.1000000014901,583363.8000000007,8087,WL,A,7.0
5,8.680000066757202,learn,60000.0,Tue Mar 31 2026 08:55:58 GMT-0500 (Central Daylight Time),584679.200000003,A,me,I,e,148,2,1315.4000000022352,583363.8000000007,8087,WL,A,7.0
5,8.781000137329102,learn,60000.0,Tue Mar 31 2026 08:55:58 GMT-0500 (Central Daylight Time),584779.4000000022,A,mea,I,a,86,2,1415.6000000014901,583363.8000000007,8087,WL,A,7.0
5,8.932000160217285,learn,60000.0,Tue Mar 31 2026 08:55:58 GMT-0500 (Central Daylight Time),584930.3000000007,A,mead,I,d,145,2,1566.5,583363.8000000007,8087,WL,A,7.0
5,9.062999963760376,learn,60000.0,Tue Mar 31 2026 08:55:58 GMT-0500 (Central Daylight Time),585061.8000000007,A,meado,I,o,116,2,1698.0,583363.8000000007,8087,WL,A,7.0
5,9.128999948501587,learn,60000.0,Tue Mar 31 2026 08:55:58 GMT-0500 (Central Daylight Time),585127.4000000022,A,meadow,I,w,53,2,1763.6000000014901,583363.8000000007,8087,WL,A,7.0
5,9.297000169754028,learn,60000.0,Tue Mar 31 2026 08:55:58 GMT-0500 (Central Daylight Time),585295.700000003,A,meadowenter,I,enter,155,2,1931.9000000022352,583363.8000000007,8087,WL,A,7.0
5,9.480000019073486,learn,60000.0,Tue Mar 31 2026 08:55:58 GMT-0500 (Central Daylight Time),585478.9000000022,A,t,I,t,166,2,182.90000000223517,585296.0,8087,WL,A,8.0
5,9.615000009536743,learn,60000.0,Tue Mar 31 2026 08:55:58 GMT-0500 (Central Daylight Time),585613.3000000007,A,tr,I,r,128,2,317.30000000074506,585296.0,8087,WL,A,8.0
5,9.695000171661377,learn,60000.0,Tue Mar 31 2026 08:55:58 GMT-0500 (Central Daylight Time),585693.700000003,A,tra,I,a,63,2,397.70000000298023,585296.0,8087,WL,A,8.0
5,9.781000137329102,learn,60000.0,Tue Mar 31 2026 08:55:58 GMT-0500 (Central Daylight Time),585779.5,A,trai,I,i,82,2,483.5,585296.0,8087,WL,A,8.0
5,9.845999956130981,learn,60000.0,Tue Mar 31 2026 08:55:58 GMT-0500 (Central Daylight Time),585844.5,A,train,I,n,57,2,548.5,585296.0,8087,WL,A,8.0
5,10.078999996185303,learn,60000.0,Tue Mar 31 2026 08:55:58 GMT-0500 (Central Daylight Time),586078.0,A,trainenter,I,enter,216,2,782.0,585296.0,8087,WL,A,8.0
5,10.312999963760376,learn,60000.0,Tue Mar 31 2026 08:55:58 GMT-0500 (Central Daylight Time),586311.700000003,A,h,I,h,223,2,233.5,586078.200000003,8087,WL,A,9.0
5,10.413000106811523,learn,60000.0,Tue Mar 31 2026 08:55:58 GMT-0500 (Central Daylight Time),586411.9000000022,A,ha,I,a,86,2,333.69999999925494,586078.200000003,8087,WL,A,9.0
5,10.479000091552734,learn,60000.0,Tue Mar 31 2026 08:55:58 GMT-0500 (Central Daylight Time),586477.700000003,A,har,I,r,56,2,399.5,586078.200000003,8087,WL,A,9.0
5,10.646000146865845,learn,60000.0,Tue Mar 31 2026 08:55:58 GMT-0500 (Central Daylight Time),586645.0,A,harp,I,p,161,2,566.7999999970198,586078.200000003,8087,WL,A,9.0
5,10.897000074386597,learn,60000.0,Tue Mar 31 2026 08:55:58 GMT-0500 (Central Daylight Time),586895.4000000022,A,harpenter,I,enter,228,2,817.1999999992549,586078.200000003,8087,WL,A,9.0
5,11.246000051498413,learn,60000.0,Tue Mar 31 2026 08:55:58 GMT-0500 (Central Daylight Time),587244.5,A,s,I,s,335,2,348.79999999701977,586895.700000003,8087,WL,A,10.0
5,11.345999956130981,learn,60000.0,Tue Mar 31 2026 08:55:58 GMT-0500 (Central Daylight Time),587344.3000000007,A,sa,I,a,80,2,448.5999999977648,586895.700000003,8087,WL,A,10.0
5,11.46399998664856,learn,60000.0,Tue Mar 31 2026 08:55:58 GMT-0500 (Central Daylight Time),587462.200000003,A,sal,I,l,110,2,566.5,586895.700000003,8087,WL,A,10.0
5,11.712000131607056,learn,60000.0,Tue Mar 31 2026 08:55:58 GMT-0500 (Central Daylight Time),587711.1000000015,A,salt,I,t,239,2,815.3999999985099,586895.700000003,8087,WL,A,10.0
5,11.86300015449524,learn,60000.0,Tue Mar 31 2026 08:55:58 GMT-0500 (Central Daylight Time),587861.9000000022,A,saltenter,I,enter,144,2,966.1999999992549,586895.700000003,8087,WL,A,10.0
5,13.09500002861023,learn,60000.0,Tue Mar 31 2026 08:55:58 GMT-0500 (Central Daylight Time),589094.1000000015,A,f,I,f,1222,2,1231.8999999985099,587862.200000003,8087,WL,A,11.0
5,13.213000059127808,learn,60000.0,Tue Mar 31 2026 08:55:58 GMT-0500 (Central Daylight Time),589211.4000000022,A,fi,I,i,98,2,1349.199999999255,587862.200000003,8087,WL,A,11.0
5,13.261000156402588,learn,60000.0,Tue Mar 31 2026 08:55:58 GMT-0500 (Central Daylight Time),589259.5,A,fin,I,n,32,2,1397.2999999970198,587862.200000003,8087,WL,A,11.0
5,13.394999980926514,learn,60000.0,Tue Mar 31 2026 08:55:58 GMT-0500 (Central Daylight Time),589394.1000000015,A,fing,I,g,121,2,1531.8999999985099,587862.200000003,8087,WL,A,11.0
5,13.479000091552734,learn,60000.0,Tue Mar 31 2026 08:55:58 GMT-0500 (Central Daylight Time),589477.9000000022,A,finge,I,e,77,2,1615.699999999255,587862.200000003,8087,WL,A,11.0
5,13.562000036239624,learn,60000.0,Tue Mar 31 2026 08:55:58 GMT-0500 (Central Daylight Time),589560.9000000022,A,finger,I,r,70,2,1698.699999999255,587862.200000003,8087,WL,A,11.0
5,13.726999998092651,learn,60000.0,Tue Mar 31 2026 08:55:58 GMT-0500 (Central Daylight Time),589726.200000003,A,fingerenter,I,enter,156,2,1864.0,587862.200000003,8087,WL,A,11.0
5,15.878999948501587,learn,60000.0,Tue Mar 31 2026 08:55:58 GMT-0500 (Central Daylight Time),591877.5,A,b,I,b,2135,2,2151.099999997765,589726.4000000022,8087,WL,A,12.0
5,16.210999965667725,learn,60000.0,Tue Mar 31 2026 08:55:58 GMT-0500 (Central Daylight Time),592209.4000000022,A,bu,I,u,321,2,2483.0,589726.4000000022,8087,WL,A,12.0
5,16.378000020980835,learn,60000.0,Tue Mar 31 2026 08:55:58 GMT-0500 (Central Daylight Time),592376.5,A,but,I,t,146,2,2650.099999997765,589726.4000000022,8087,WL,A,12.0
5,16.47699999809265,learn,60000.0,Tue Mar 31 2026 08:55:58 GMT-0500 (Central Daylight Time),592476.1000000015,A,butt,I,t,92,2,2749.699999999255,589726.4000000022,8087,WL,A,12.0
5,16.561000108718872,learn,60000.0,Tue Mar 31 2026 08:55:58 GMT-0500 (Central Daylight Time),592559.6000000015,A,butto,I,o,71,2,2833.199999999255,589726.4000000022,8087,WL,A,12.0
5,16.627000093460083,learn,60000.0,Tue Mar 31 2026 08:55:58 GMT-0500 (Central Daylight Time),592625.8000000007,A,button,I,n,45,2,2899.39999999851,589726.4000000022,8087,WL,A,12.0
5,16.894999980926514,learn,60000.0,Tue Mar 31 2026 08:55:58 GMT-0500 (Central Daylight Time),592893.6000000015,A,buttonenter,I,enter,257,2,3167.199999999255,589726.4000000022,8087,WL,A,12.0
5,19.594000101089478,learn,60000.0,Tue Mar 31 2026 08:55:58 GMT-0500 (Central Daylight Time),595592.8000000007,A,l,I,l,2680,2,2699.0,592893.8000000007,8087,WL,A,13.0
5,19.710999965667725,learn,60000.0,Tue Mar 31 2026 08:55:58 GMT-0500 (Central Daylight Time),595709.200000003,A,lo,I,o,111,2,2815.400000002235,592893.8000000007,8087,WL,A,13.0
5,19.792999982833862,learn,60000.0,Tue Mar 31 2026 08:55:58 GMT-0500 (Central Daylight Time),595792.1000000015,A,log,I,g,63,2,2898.300000000745,592893.8000000007,8087,WL,A,13.0
5,19.927000045776367,learn,60000.0,Tue Mar 31 2026 08:55:58 GMT-0500 (Central Daylight Time),595925.700000003,A,logenter,I,enter,124,2,3031.900000002235,592893.8000000007,8087,WL,A,13.0
5,20.37600016593933,learn,60000.0,Tue Mar 31 2026 08:55:58 GMT-0500 (Central Daylight Time),596374.8000000007,A,r,I,r,439,2,448.8999999985099,595925.9000000022,8087,WL,A,14.0
5,20.4760000705719,learn,60000.0,Tue Mar 31 2026 08:55:58 GMT-0500 (Central Daylight Time),596474.9000000022,A,ru,I,u,86,2,549.0,595925.9000000022,8087,WL,A,14.0
5,20.593000173568726,learn,60000.0,Tue Mar 31 2026 08:55:58 GMT-0500 (Central Daylight Time),596591.5,A,rug,I,g,105,2,665.5999999977648,595925.9000000022,8087,WL,A,14.0
5,20.759000062942505,learn,60000.0,Tue Mar 31 2026 08:55:58 GMT-0500 (Central Daylight Time),596757.6000000015,A,rugenter,I,enter,157,2,831.6999999992549,595925.9000000022,8087,WL,A,14.0
5,21.72699999809265,learn,60000.0,Tue Mar 31 2026 08:55:58 GMT-0500 (Central Daylight Time),597725.6000000015,A,t,I,t,952,2,967.8000000007451,596757.8000000007,8087,WL,A,15.0
5,21.861000061035156,learn,60000.0,Tue Mar 31 2026 08:55:58 GMT-0500 (Central Daylight Time),597859.4000000022,A,tr,I,r,130,2,1101.6000000014901,596757.8000000007,8087,WL,A,15.0
5,21.943000078201294,learn,60000.0,Tue Mar 31 2026 08:55:58 GMT-0500 (Central Daylight Time),597941.5,A,tra,I,a,58,2,1183.699999999255,596757.8000000007,8087,WL,A,15.0
5,22.008000135421753,learn,60000.0,Tue Mar 31 2026 08:55:58 GMT-0500 (Central Daylight Time),598007.1000000015,A,trai,I,i,54,2,1249.300000000745,596757.8000000007,8087,WL,A,15.0
5,22.058000087738037,learn,60000.0,Tue Mar 31 2026 08:55:58 GMT-0500 (Central Daylight Time),598057.0,A,train,I,n,36,2,1299.199999999255,596757.8000000007,8087,WL,A,15.0
5,22.259000062942505,learn,60000.0,Tue Mar 31 2026 08:55:58 GMT-0500 (Central Daylight Time),598257.9000000022,A,trainenter,I,enter,189,2,1500.1000000014901,596757.8000000007,8087,WL,A,15.0
6,0.4830000400543213,distr,59516.99995994568,Tue Mar 31 2026 08:55:58 GMT-0500 (Central Daylight Time),664270.5,B,b,I,b,475,2,482.79999999701977,663787.700000003,8087,WL,A,1.0
6,0.5980000495910645,distr,59401.999950408936,Tue Mar 31 2026 08:55:58 GMT-0500 (Central Daylight Time),664386.0,B,bo,I,o,101,2,598.2999999970198,663787.700000003,8087,WL,A,1.0
6,0.6990001201629639,distr,59300.999879837036,Tue Mar 31 2026 08:55:58 GMT-0500 (Central Daylight Time),664486.700000003,B,bow,I,w,79,2,699.0,663787.700000003,8087,WL,A,1.0
6,0.7990000247955322,distr,59200.99997520447,Tue Mar 31 2026 08:55:58 GMT-0500 (Central Daylight Time),664586.700000003,B,bowl,I,l,85,2,799.0,663787.700000003,8087,WL,A,1.0
6,0.999000072479248,distr,59000.99992752075,Tue Mar 31 2026 08:55:58 GMT-0500 (Central Daylight Time),664787.200000003,B,bowlenter,I,enter,178,2,999.5,663787.700000003,8087,WL,A,1.0
6,1.184000015258789,distr,58815.99998474121,Tue Mar 31 2026 08:55:58 GMT-0500 (Central Daylight Time),664971.8000000007,B,d,I,d,170,2,184.39999999850988,664787.4000000022,8087,WL,A,2.0
6,1.566999912261963,distr,58433.00008773804,Tue Mar 31 2026 08:55:58 GMT-0500 (Central Daylight Time),665354.4000000022,B,da,I,a,368,2,567.0,664787.4000000022,8087,WL,A,2.0
6,1.750999927520752,distr,58249.00007247925,Tue Mar 31 2026 08:55:58 GMT-0500 (Central Daylight Time),665539.0,B,daw,I,w,161,2,751.5999999977648,664787.4000000022,8087,WL,A,2.0
6,1.9160001277923584,distr,58083.99987220764,Tue Mar 31 2026 08:55:58 GMT-0500 (Central Daylight Time),665704.0,B,dawn,I,n,142,2,916.5999999977648,664787.4000000022,8087,WL,A,2.0
6,2.065000057220459,distr,57934.99994277954,Tue Mar 31 2026 08:55:58 GMT-0500 (Central Daylight Time),665853.200000003,B,dawnenter,I,enter,141,2,1065.800000000745,664787.4000000022,8087,WL,A,2.0
6,2.315999984741211,distr,57684.00001525879,Tue Mar 31 2026 08:55:58 GMT-0500 (Central Daylight Time),666103.5,B,j,I,j,242,2,249.89999999850988,665853.6000000015,8087,WL,A,3.0
6,2.449000120162964,distr,57550.999879837036,Tue Mar 31 2026 08:55:58 GMT-0500 (Central Daylight Time),666236.700000003,B,ju,I,u,117,2,383.1000000014901,665853.6000000015,8087,WL,A,3.0
6,2.565000057220459,distr,57434.99994277954,Tue Mar 31 2026 08:55:58 GMT-0500 (Central Daylight Time),666352.9000000022,B,jud,I,d,105,2,499.30000000074506,665853.6000000015,8087,WL,A,3.0
6,2.8310000896453857,distr,57168.999910354614,Tue Mar 31 2026 08:55:58 GMT-0500 (Central Daylight Time),666619.1000000015,B,judg,I,g,244,2,765.5,665853.6000000015,8087,WL,A,3.0
6,2.9809999465942383,distr,57019.00005340576,Tue Mar 31 2026 08:55:58 GMT-0500 (Central Daylight Time),666768.5,B,judge,I,e,125,2,914.8999999985099,665853.6000000015,8087,WL,A,3.0
6,3.114000082015991,distr,56885.99991798401,Tue Mar 31 2026 08:55:58 GMT-0500 (Central Daylight Time),666902.200000003,B,judgeenter,I,enter,115,2,1048.6000000014901,665853.6000000015,8087,WL,A,3.0
6,3.3310000896453857,distr,56668.999910354614,Tue Mar 31 2026 08:55:58 GMT-0500 (Central Daylight Time),667118.8000000007,B,i,I,i,207,2,216.39999999850988,666902.4000000022,8087,WL,A,4.0
6,3.3970000743865967,distr,56602.9999256134,Tue Mar 31 2026 08:55:58 GMT-0500 (Central Daylight Time),667185.4000000022,B,in,I,n,44,2,283.0,666902.4000000022,8087,WL,A,4.0
6,3.496999979019165,distr,56503.000020980835,Tue Mar 31 2026 08:55:58 GMT-0500 (Central Daylight Time),667285.1000000015,B,ins,I,s,81,2,382.69999999925494,666902.4000000022,8087,WL,A,4.0
6,3.6660001277923584,distr,56333.99987220764,Tue Mar 31 2026 08:55:58 GMT-0500 (Central Daylight Time),667454.1000000015,B,inse,I,e,152,2,551.6999999992549,666902.4000000022,8087,WL,A,4.0
6,3.8310000896453857,distr,56168.999910354614,Tue Mar 31 2026 08:55:58 GMT-0500 (Central Daylight Time),667619.1000000015,B,insec,I,c,149,2,716.6999999992549,666902.4000000022,8087,WL,A,4.0
6,3.998000144958496,distr,56001.999855041504,Tue Mar 31 2026 08:55:58 GMT-0500 (Central Daylight Time),667786.3000000007,B,insect,I,t,153,2,883.8999999985099,666902.4000000022,8087,WL,A,4.0
6,4.180000066757202,distr,55819.9999332428,Tue Mar 31 2026 08:55:58 GMT-0500 (Central Daylight Time),667968.3000000007,B,insectenter,I,enter,171,2,1065.8999999985099,666902.4000000022,8087,WL,A,4.0
6,4.582000017166138,distr,55417.99998283386,Tue Mar 31 2026 08:55:58 GMT-0500 (Central Daylight Time),668369.700000003,B,p,I,p,381,2,401.20000000298023,667968.5,8087,WL,A,5.0
6,4.730000019073486,distr,55269.999980926514,Tue Mar 31 2026 08:55:58 GMT-0500 (Central Daylight Time),668518.4000000022,B,pl,I,l,129,2,549.9000000022352,667968.5,8087,WL,A,5.0
6,4.814000129699707,distr,55185.99987030029,Tue Mar 31 2026 08:55:58 GMT-0500 (Central Daylight Time),668601.6000000015,B,pla,I,a,58,2,633.1000000014901,667968.5,8087,WL,A,5.0
6,5.115000009536743,distr,54884.99999046326,Tue Mar 31 2026 08:55:58 GMT-0500 (Central Daylight Time),668903.3000000007,B,plan,I,n,292,2,934.8000000007451,667968.5,8087,WL,A,5.0
6,5.2799999713897705,distr,54720.00002861023,Tue Mar 31 2026 08:55:58 GMT-0500 (Central Daylight Time),669067.9000000022,B,plane,I,e,159,2,1099.4000000022352,667968.5,8087,WL,A,5.0
6,5.398999929428101,distr,54601.0000705719,Tue Mar 31 2026 08:55:58 GMT-0500 (Central Daylight Time),669186.8000000007,B,planeenter,I,enter,105,2,1218.300000000745,667968.5,8087,WL,A,5.0
6,5.631999969482422,distr,54368.00003051758,Tue Mar 31 2026 08:55:58 GMT-0500 (Central Daylight Time),669419.8000000007,B,p,I,p,218,2,232.69999999925494,669187.1000000015,8087,WL,A,6.0
6,5.730000019073486,distr,54269.999980926514,Tue Mar 31 2026 08:55:58 GMT-0500 (Central Daylight Time),669517.9000000022,B,pe,I,e,81,2,330.80000000074506,669187.1000000015,8087,WL,A,6.0
6,5.829999923706055,distr,54170.000076293945,Tue Mar 31 2026 08:55:58 GMT-0500 (Central Daylight Time),669618.200000003,B,pea,I,a,79,2,431.1000000014901,669187.1000000015,8087,WL,A,6.0
6,6.013999938964844,distr,53986.000061035156,Tue Mar 31 2026 08:55:58 GMT-0500 (Central Daylight Time),669801.700000003,B,peac,I,c,159,2,614.6000000014901,669187.1000000015,8087,WL,A,6.0
6,6.145999908447266,distr,53854.000091552734,Tue Mar 31 2026 08:55:58 GMT-0500 (Central Daylight Time),669934.0,B,peach,I,h,121,2,746.8999999985099,669187.1000000015,8087,WL,A,6.0
6,6.263999938964844,distr,53736.000061035156,Tue Mar 31 2026 08:55:58 GMT-0500 (Central Daylight Time),670052.3000000007,B,peachenter,I,enter,111,2,865.1999999992549,669187.1000000015,8087,WL,A,6.0
6,6.46399998664856,distr,53536.00001335144,Tue Mar 31 2026 08:55:58 GMT-0500 (Central Daylight Time),670251.9000000022,B,b,I,b,186,2,199.40000000223517,670052.5,8087,WL,A,7.0
6,6.9649999141693115,distr,53035.00008583069,Tue Mar 31 2026 08:55:58 GMT-0500 (Central Daylight Time),670752.700000003,B,,I,backspace,479,2,700.2000000029802,670052.5,8087,WL,A,7.0
6,8.082000017166138,distr,51917.99998283386,Tue Mar 31 2026 08:55:58 GMT-0500 (Central Daylight Time),671869.4000000022,B,p,I,p,1101,2,1816.9000000022352,670052.5,8087,WL,A,7.0
6,8.246000051498413,distr,51753.99994850159,Tue Mar 31 2026 08:55:58 GMT-0500 (Central Daylight Time),672034.1000000015,B,po,I,o,150,2,1981.6000000014901,670052.5,8087,WL,A,7.0
6,8.364000082015991,distr,51635.99991798401,Tue Mar 31 2026 08:55:58 GMT-0500 (Central Daylight Time),672152.0,B,poo,I,o,98,2,2099.5,670052.5,8087,WL,A,7.0
6,8.578999996185303,distr,51421.0000038147,Tue Mar 31 2026 08:55:58 GMT-0500 (Central Daylight Time),672366.8000000007,B,pool,I,l,196,2,2314.300000000745,670052.5,8087,WL,A,7.0
6,8.781000137329102,distr,51218.9998626709,Tue Mar 31 2026 08:55:58 GMT-0500 (Central Daylight Time),672568.4000000022,B,poolenter,I,enter,186,2,2515.900000002235,670052.5,8087,WL,A,7.0
6,11.42799997329712,distr,48572.00002670288,Tue Mar 31 2026 08:55:58 GMT-0500 (Central Daylight Time),675216.200000003,B,b,I,b,2629,2,2647.5,672568.700000003,8087,WL,A,8.0
6,11.513000011444092,distr,48486.99998855591,Tue Mar 31 2026 08:55:58 GMT-0500 (Central Daylight Time),675300.6000000015,B,bo,I,o,66,2,2731.89999999851,672568.700000003,8087,WL,A,8.0
6,11.645999908447266,distr,48354.000091552734,Tue Mar 31 2026 08:55:58 GMT-0500 (Central Daylight Time),675434.0,B,bot,I,t,111,2,2865.2999999970198,672568.700000003,8087,WL,A,8.0
6,11.763999938964844,distr,48236.000061035156,Tue Mar 31 2026 08:55:58 GMT-0500 (Central Daylight Time),675551.8000000007,B,bott,I,t,96,2,2983.099999997765,672568.700000003,8087,WL,A,8.0
6,11.84500002861023,distr,48154.99997138977,Tue Mar 31 2026 08:55:58 GMT-0500 (Central Daylight Time),675632.9000000022,B,bottl,I,l,62,2,3064.199999999255,672568.700000003,8087,WL,A,8.0
6,11.98200011253357,distr,48017.99988746643,Tue Mar 31 2026 08:55:58 GMT-0500 (Central Daylight Time),675770.0,B,bottle,I,e,120,2,3201.2999999970198,672568.700000003,8087,WL,A,8.0
6,12.127000093460083,distr,47872.99990653992,Tue Mar 31 2026 08:55:58 GMT-0500 (Central Daylight Time),675915.3000000007,B,bottleenter,I,enter,131,2,3346.599999997765,672568.700000003,8087,WL,A,8.0
6,60.01300001144409,distr,-13.000011444091797,Tue Mar 31 2026 08:55:58 GMT-0500 (Central Daylight Time),723801.8000000007,B,None,I,None,47882,2,47886.300000000745,675915.5,8087,WL,A,9.0
7,17.777999877929688,immed,42222.00012207031,Tue Mar 31 2026 08:55:58 GMT-0500 (Central Daylight Time),742894.5,A,t,I,t,17758,2,17777.0,725117.5,8087,WL,A,1.0
7,17.894999980926514,immed,42105.000019073486,Tue Mar 31 2026 08:55:58 GMT-0500 (Central Daylight Time),743012.0,A,tr,I,r,100,2,17894.5,725117.5,8087,WL,A,1.0
7,17.977999925613403,immed,42022.0000743866,Tue Mar 31 2026 08:55:58 GMT-0500 (Central Daylight Time),743095.0,A,tra,I,a,66,2,17977.5,725117.5,8087,WL,A,1.0
7,18.128000020980835,immed,41871.999979019165,Tue Mar 31 2026 08:55:58 GMT-0500 (Central Daylight Time),743244.9000000022,A,trai,I,i,133,2,18127.400000002235,725117.5,8087,WL,A,1.0
7,18.177000045776367,immed,41822.99995422363,Tue Mar 31 2026 08:55:58 GMT-0500 (Central Daylight Time),743294.0,A,train,I,n,31,2,18176.5,725117.5,8087,WL,A,1.0
7,18.460999965667725,immed,41539.000034332275,Tue Mar 31 2026 08:55:58 GMT-0500 (Central Daylight Time),743577.8000000007,A,trainenter,I,enter,271,2,18460.300000000745,725117.5,8087,WL,A,1.0
7,18.793999910354614,immed,41206.000089645386,Tue Mar 31 2026 08:55:58 GMT-0500 (Central Daylight Time),743911.3000000007,A,b,I,b,324,2,333.30000000074506,743578.0,8087,WL,A,2.0
7,18.90999984741211,immed,41090.00015258789,Tue Mar 31 2026 08:55:58 GMT-0500 (Central Daylight Time),744027.1000000015,A,bo,I,o,102,2,449.1000000014901,743578.0,8087,WL,A,2.0
7,19.045000076293945,immed,40954.999923706055,Tue Mar 31 2026 08:55:58 GMT-0500 (Central Daylight Time),744162.0,A,bot,I,t,130,2,584.0,743578.0,8087,WL,A,2.0
7,19.16100001335144,immed,40838.99998664856,Tue Mar 31 2026 08:55:58 GMT-0500 (Central Daylight Time),744278.5,A,bott,I,t,98,2,700.5,743578.0,8087,WL,A,2.0
7,19.26099991798401,immed,40739.00008201599,Tue Mar 31 2026 08:55:58 GMT-0500 (Central Daylight Time),744377.9000000022,A,bottl,I,l,85,2,799.9000000022352,743578.0,8087,WL,A,2.0
7,19.477999925613403,immed,40522.0000743866,Tue Mar 31 2026 08:55:58 GMT-0500 (Central Daylight Time),744595.4000000022,A,bottlenter,I,enter,202,2,1017.4000000022352,743578.0,8087,WL,A,2.0
7,20.526999950408936,immed,39473.000049591064,Tue Mar 31 2026 08:55:58 GMT-0500 (Central Daylight Time),745644.1000000015,A,b,I,b,1045,2,1048.5,744595.6000000015,8087,WL,A,3.0
7,20.592999935150146,immed,39407.00006484985,Tue Mar 31 2026 08:55:58 GMT-0500 (Central Daylight Time),745709.9000000022,A,bo,I,o,57,2,1114.300000000745,744595.6000000015,8087,WL,A,3.0
7,20.72699999809265,immed,39273.00000190735,Tue Mar 31 2026 08:55:58 GMT-0500 (Central Daylight Time),745844.3000000007,A,bot,I,t,129,2,1248.699999999255,744595.6000000015,8087,WL,A,3.0
7,20.842999935150146,immed,39157.00006484985,Tue Mar 31 2026 08:55:58 GMT-0500 (Central Daylight Time),745959.8000000007,A,bott,I,t,103,2,1364.199999999255,744595.6000000015,8087,WL,A,3.0
7,20.960000038146973,immed,39039.99996185303,Tue Mar 31 2026 08:55:58 GMT-0500 (Central Daylight Time),746077.200000003,A,bottl,I,l,110,2,1481.6000000014901,744595.6000000015,8087,WL,A,3.0
7,21.092999935150146,immed,38907.00006484985,Tue Mar 31 2026 08:55:58 GMT-0500 (Central Daylight Time),746210.200000003,A,bottle,I,e,119,2,1614.6000000014901,744595.6000000015,8087,WL,A,3.0
7,21.234999895095825,immed,38765.000104904175,Tue Mar 31 2026 08:55:58 GMT-0500 (Central Daylight Time),746352.0,A,bottleenter,I,enter,134,2,1756.3999999985099,744595.6000000015,8087,WL,A,3.0
7,23.82800006866455,immed,36171.99993133545,Tue Mar 31 2026 08:55:58 GMT-0500 (Central Daylight Time),748944.8000000007,A,a,I,a,2584,2,2592.699999999255,746352.1000000015,8087,WL,A,4.0
7,23.99399995803833,immed,36006.00004196167,Tue Mar 31 2026 08:55:58 GMT-0500 (Central Daylight Time),749110.700000003,A,ap,I,p,148,2,2758.60000000149,746352.1000000015,8087,WL,A,4.0
7,24.109999895095825,immed,35890.000104904175,Tue Mar 31 2026 08:55:58 GMT-0500 (Central Daylight Time),749226.8000000007,A,app,I,p,96,2,2874.699999999255,746352.1000000015,8087,WL,A,4.0
7,24.776000022888184,immed,35223.99997711182,Tue Mar 31 2026 08:55:58 GMT-0500 (Central Daylight Time),749893.4000000022,A,appl,I,l,650,2,3541.300000000745,746352.1000000015,8087,WL,A,4.0
7,24.858999967575073,immed,35141.00003242493,Tue Mar 31 2026 08:55:58 GMT-0500 (Central Daylight Time),749975.6000000015,A,apple,I,e,71,2,3623.5,746352.1000000015,8087,WL,A,4.0
7,25.007999897003174,immed,34992.000102996826,Tue Mar 31 2026 08:55:58 GMT-0500 (Central Daylight Time),750125.200000003,A,appleenter,I,enter,133,2,3773.10000000149,746352.1000000015,8087,WL,A,4.0
7,27.125999927520752,immed,32874.00007247925,Tue Mar 31 2026 08:55:58 GMT-0500 (Central Daylight Time),752243.200000003,A,l,I,l,2113,2,2117.800000000745,750125.4000000022,8087,WL,A,5.0
7,27.259000062942505,immed,32740.999937057495,Tue Mar 31 2026 08:55:58 GMT-0500 (Central Daylight Time),752375.6000000015,A,lo,I,o,122,2,2250.199999999255,750125.4000000022,8087,WL,A,5.0
7,27.322999954223633,immed,32677.000045776367,Tue Mar 31 2026 08:55:58 GMT-0500 (Central Daylight Time),752440.3000000007,A,log,I,g,44,2,2314.89999999851,750125.4000000022,8087,WL,A,5.0
7,27.493000030517578,immed,32506.999969482422,Tue Mar 31 2026 08:55:58 GMT-0500 (Central Daylight Time),752610.1000000015,A,logenter,I,enter,158,2,2484.699999999255,750125.4000000022,8087,WL,A,5.0
7,28.509999990463257,immed,31490.000009536743,Tue Mar 31 2026 08:55:58 GMT-0500 (Central Daylight Time),753626.4000000022,A,r,I,r,1003,2,1016.1000000014901,752610.3000000007,8087,WL,A,6.0
7,28.590999841690063,immed,31409.000158309937,Tue Mar 31 2026 08:55:58 GMT-0500 (Central Daylight Time),753707.5,A,ru,I,u,66,2,1097.199999999255,752610.3000000007,8087,WL,A,6.0
7,28.69099998474121,immed,31309.00001525879,Tue Mar 31 2026 08:55:58 GMT-0500 (Central Daylight Time),753808.200000003,A,rug,I,g,89,2,1197.9000000022352,752610.3000000007,8087,WL,A,6.0
7,29.04099988937378,immed,30959.00011062622,Tue Mar 31 2026 08:55:58 GMT-0500 (Central Daylight Time),754157.5,A,rugenter,I,enter,340,2,1547.199999999255,752610.3000000007,8087,WL,A,6.0
7,34.871999979019165,immed,25128.000020980835,Tue Mar 31 2026 08:55:58 GMT-0500 (Central Daylight Time),759988.9000000022,A,b,I,b,5815,2,5831.199999999255,754157.700000003,8087,WL,A,7.0
7,35.07200002670288,immed,24927.99997329712,Tue Mar 31 2026 08:55:58 GMT-0500 (Central Daylight Time),760189.5,A,bo,I,o,183,2,6031.79999999702,754157.700000003,8087,WL,A,7.0
7,35.20700001716614,immed,24792.999982833862,Tue Mar 31 2026 08:55:58 GMT-0500 (Central Daylight Time),760323.6000000015,A,boo,I,o,128,2,6165.89999999851,754157.700000003,8087,WL,A,7.0
7,35.2720000743866,immed,24727.999925613403,Tue Mar 31 2026 08:55:58 GMT-0500 (Central Daylight Time),760388.6000000015,A,book,I,k,48,2,6230.89999999851,754157.700000003,8087,WL,A,7.0
7,35.65599989891052,immed,24344.000101089478,Tue Mar 31 2026 08:55:58 GMT-0500 (Central Daylight Time),760773.0,A,bookenter,I,enter,367,2,6615.29999999702,754157.700000003,8087,WL,A,7.0
7,48.66799998283386,immed,11332.000017166138,Tue Mar 31 2026 08:55:58 GMT-0500 (Central Daylight Time),773785.3000000007,A,c,I,c,12993,2,13012.0,760773.3000000007,8087,WL,A,8.0
7,48.76799988746643,immed,11232.00011253357,Tue Mar 31 2026 08:55:58 GMT-0500 (Central Daylight Time),773885.0,A,ch,I,h,89,2,13111.699999999255,760773.3000000007,8087,WL,A,8.0
7,49.28499984741211,immed,10715.00015258789,Tue Mar 31 2026 08:55:58 GMT-0500 (Central Daylight Time),774402.3000000007,A,chi,I,i,496,2,13629.0,760773.3000000007,8087,WL,A,8.0
7,49.384000062942505,immed,10615.999937057495,Tue Mar 31 2026 08:55:58 GMT-0500 (Central Daylight Time),774501.200000003,A,chim,I,m,80,2,13727.900000002235,760773.3000000007,8087,WL,A,8.0
7,49.63499999046326,immed,10365.000009536743,Tue Mar 31 2026 08:55:58 GMT-0500 (Central Daylight Time),774752.6000000015,A,chimn,I,n,226,2,13979.300000000745,760773.3000000007,8087,WL,A,8.0
7,49.68499994277954,immed,10315.000057220459,Tue Mar 31 2026 08:55:58 GMT-0500 (Central Daylight Time),774801.700000003,A,chimne,I,e,22,2,14028.400000002235,760773.3000000007,8087,WL,A,8.0
7,49.81699991226196,immed,10183.000087738037,Tue Mar 31 2026 08:55:58 GMT-0500 (Central Daylight Time),774934.3000000007,A,chimney,I,y,124,2,14161.0,760773.3000000007,8087,WL,A,8.0
7,50.06699991226196,immed,9933.000087738037,Tue Mar 31 2026 08:55:58 GMT-0500 (Central Daylight Time),775184.4000000022,A,chimneyenter,I,enter,228,2,14411.10000000149,760773.3000000007,8087,WL,A,8.0
7,60.01199984550476,immed,-11.999845504760742,Tue Mar 31 2026 08:55:58 GMT-0500 (Central Daylight Time),785131.3000000007,A,None,I,None,9942,2,9946.699999999255,775184.6000000015,8087,WL,A,9.0
