acc_sum,block,block_c,condition,correct,correct_response,datetime,endtime,flanker,jitter,project,response,response_test_buffer_response,response_test_target_response,response_time,response_time_test_buffer_response,response_time_test_target_response,row_sel,session_number,start_end,starttime,subject_id,target,task,task_vers,time_test_buffer,time_test_buffer_response,time_test_constants,time_test_flanker,time_test_jitter,time_test_logger,time_test_target,time_test_target_response,time_test_variables,trial
1,prac,1,inc,1,m,Wed Feb 25 2026 14:56:56 GMT-0600 (Central Standard Time),267934.200000003,cherry,900,I,m,,,606,,,10,1,2793.7000000029802,265140.5,7763,copper,NF,C,,,,,,,,,,1
2,prac,1,con,1,m,Wed Feb 25 2026 14:56:56 GMT-0600 (Central Standard Time),270534.90000000596,bronze,800,I,m,,,490,,,9,1,2597.300000011921,267937.59999999404,7763,bronze,NF,C,,,,,,,,,,2
3,prac,1,con,1,m,Wed Feb 25 2026 14:56:56 GMT-0600 (Central Standard Time),273267.799999997,silver,1000,I,m,,,427,,,11,1,2727.5999999940395,270540.200000003,7763,silver,NF,C,,,,,,,,,,3
4,prac,1,con,1,m,Wed Feb 25 2026 14:56:56 GMT-0600 (Central Standard Time),275949.09999999404,zinc,1000,I,m,,,399,,,15,1,2677.0,273272.09999999404,7763,zinc,NF,C,,,,,,,,,,4
5,prac,1,inc,1,m,Wed Feb 25 2026 14:56:56 GMT-0600 (Central Standard Time),278797.40000000596,plum,1100,I,m,,,450,,,16,1,2842.300000011921,275955.09999999404,7763,lead,NF,C,,,,,,,,,,5
6,prac,1,con,1,z,Wed Feb 25 2026 14:56:56 GMT-0600 (Central Standard Time),281530.09999999404,orange,1000,I,z,,,436,,,3,1,2728.199999988079,278801.90000000596,7763,orange,NF,C,,,,,,,,,,6
6,prac,1,inc,0,z,Wed Feb 25 2026 14:56:56 GMT-0600 (Central Standard Time),284245.799999997,copper,900,I,m,,,500,,,2,1,2709.3999999910593,281536.40000000596,7763,cherry,NF,C,,,,,,,,,,7
7,prac,1,con,1,z,Wed Feb 25 2026 14:56:56 GMT-0600 (Central Standard Time),286926.59999999404,kiwi,1000,I,z,,,378,,,7,1,2677.2999999970198,284249.299999997,7763,kiwi,NF,C,,,,,,,,,,8
8,prac,1,inc,1,m,Wed Feb 25 2026 14:56:56 GMT-0600 (Central Standard Time),289544.799999997,pear,900,I,m,,,415,,,14,1,2615.2000000029802,286929.59999999404,7763,iron,NF,C,,,,,,,,,,9
9,prac,1,inc,1,m,Wed Feb 25 2026 14:56:56 GMT-0600 (Central Standard Time),292444.299999997,raisin,1100,I,m,,,493,,,12,1,2892.7999999970198,289551.5,7763,cobalt,NF,C,,,,,,,,,,10
10,prac,1,inc,1,z,Wed Feb 25 2026 14:56:56 GMT-0600 (Central Standard Time),295308.59999999404,lead,1100,I,z,,,450,,,8,1,2860.0,292448.59999999404,7763,plum,NF,C,,,,,,,,,,11
11,prac,1,con,1,z,Wed Feb 25 2026 14:56:56 GMT-0600 (Central Standard Time),297907.59999999404,banana,800,I,z,,,486,,,1,1,2595.699999988079,295311.90000000596,7763,banana,NF,C,,,,,,,,,,12
12,prac,1,con,1,z,Wed Feb 25 2026 14:56:56 GMT-0600 (Central Standard Time),300457.40000000596,lime,800,I,z,,,445,,,5,1,2542.9000000059605,297914.5,7763,lime,NF,C,,,,,,,,,,13
13,prac,1,inc,1,z,Wed Feb 25 2026 14:56:56 GMT-0600 (Central Standard Time),303310.09999999404,cobalt,1100,I,z,,,461,,,4,1,2847.5999999940395,300462.5,7763,raisin,NF,C,,,,,,,,,,14
13,prac,1,con,0,m,Wed Feb 25 2026 14:56:56 GMT-0600 (Central Standard Time),305856.09999999404,gold,800,I,z,,,438,,,13,1,2541.699999988079,303314.40000000596,7763,gold,NF,C,,,,,,,,,,15
14,prac,1,inc,1,z,Wed Feb 25 2026 14:56:56 GMT-0600 (Central Standard Time),308772.40000000596,iron,900,I,z,,,703,,,6,1,2911.4000000059605,305861.0,7763,pear,NF,C,,,,,,,,,,16
1,test,1,con,1,m,Wed Feb 25 2026 14:56:56 GMT-0600 (Central Standard Time),353474.799999997,cobalt,1100,I,m,m,None,507,307.0,200.0,92,1,2126.2999999970198,351348.5,7763,cobalt,NF,C,346701,346701,344892,346000,344892,347018,346501,346501,347018,1
2,test,1,inc,1,z,Wed Feb 25 2026 14:56:56 GMT-0600 (Central Standard Time),355255.700000003,bronze,800,I,z,z,None,461,247.0,214.0,5,1,1774.7999999970198,353480.90000000596,7763,banana,NF,C,348552,348552,347024,347832,347024,348799,348337,348337,348799,2
3,test,1,con,1,m,Wed Feb 25 2026 14:56:56 GMT-0600 (Central Standard Time),357156.5,bronze,900,I,m,m,None,454,254.0,200.0,66,1,1897.4000000059605,355259.09999999404,7763,bronze,NF,C,350433,350433,348802,349717,348802,350700,350233,350233,350700,3
4,test,1,inc,1,z,Wed Feb 25 2026 14:56:56 GMT-0600 (Central Standard Time),359189.200000003,zinc,1000,I,z,z,None,503,304.0,199.0,39,1,2027.7999999970198,357161.40000000596,7763,lime,NF,C,352415,352415,350704,351715,350705,352732,352216,352216,352732,4
4,test,1,inc,0,z,Wed Feb 25 2026 14:56:56 GMT-0600 (Central Standard Time),361121.5,silver,1000,I,m,m,None,389,190.0,199.0,7,1,1926.9000000059605,359194.59999999404,7763,banana,NF,C,354465,354465,352738,353749,352738,354665,354266,354266,354665,5
5,test,1,inc,1,z,Wed Feb 25 2026 14:56:56 GMT-0600 (Central Standard Time),363071.09999999404,iron,900,I,z,z,None,500,299.0,201.0,54,1,1946.5,361124.59999999404,7763,kiwi,NF,C,356299,356299,354668,355582,354668,356614,356097,356097,356614,6
6,test,1,con,1,z,Wed Feb 25 2026 14:56:56 GMT-0600 (Central Standard Time),364936.799999997,plum,900,I,z,z,None,430,215.0,215.0,58,1,1861.2999999970198,363075.5,7763,plum,NF,C,358248,358248,356619,357531,356619,358480,358032,358032,358480,7
7,test,1,inc,1,m,Wed Feb 25 2026 14:56:56 GMT-0600 (Central Standard Time),367003.59999999404,raisin,1100,I,m,m,None,421,221.0,200.0,80,1,2060.5999999940395,364943.0,7763,copper,NF,C,360314,360314,358486,359598,358486,360547,360113,360113,360547,8
8,test,1,con,1,z,Wed Feb 25 2026 14:56:56 GMT-0600 (Central Standard Time),369035.5,orange,1000,I,z,z,None,515,316.0,199.0,19,1,2028.0,367007.5,7763,orange,NF,C,362262,362262,360551,361561,360551,362579,362062,362062,362579,9
9,test,1,inc,1,m,Wed Feb 25 2026 14:56:56 GMT-0600 (Central Standard Time),370934.700000003,cherry,900,I,m,m,None,459,258.0,201.0,78,1,1894.7999999970198,369039.90000000596,7763,copper,NF,C,364212,364212,362583,363496,362583,364478,364011,364011,364478,10
10,test,1,inc,1,z,Wed Feb 25 2026 14:56:56 GMT-0600 (Central Standard Time),372717.59999999404,bronze,800,I,z,z,None,448,235.0,213.0,21,1,1776.8999999910593,370940.700000003,7763,orange,NF,C,366011,366011,364484,365295,364484,366261,365797,365797,366261,11
11,test,1,con,1,z,Wed Feb 25 2026 14:56:56 GMT-0600 (Central Standard Time),374668.40000000596,kiwi,900,I,z,z,None,504,304.0,200.0,50,1,1947.5,372720.90000000596,7763,kiwi,NF,C,367894,367894,366264,367178,366264,368212,367694,367694,368211,12
11,test,1,con,0,m,Wed Feb 25 2026 14:56:56 GMT-0600 (Central Standard Time),376616.0,zinc,1000,I,z,z,None,399,199.0,200.0,115,1,1943.7000000029802,374672.299999997,7763,zinc,NF,C,369943,369943,368215,369227,368216,370159,369743,369743,370159,13
12,test,1,inc,1,m,Wed Feb 25 2026 14:56:56 GMT-0600 (Central Standard Time),378500.09999999404,lime,800,I,m,m,None,545,333.0,212.0,117,1,1880.0999999940395,376620.0,7763,zinc,NF,C,371708,371708,370163,370977,370163,372043,371496,371496,372043,14
13,test,1,inc,1,m,Wed Feb 25 2026 14:56:56 GMT-0600 (Central Standard Time),380300.0,lime,800,I,m,m,None,453,237.0,216.0,101,1,1796.0999999940395,378503.90000000596,7763,gold,NF,C,373593,373593,372047,372859,372047,373843,373377,373377,373843,15
14,test,1,inc,1,m,Wed Feb 25 2026 14:56:56 GMT-0600 (Central Standard Time),382248.200000003,banana,800,I,m,m,None,615,416.0,199.0,93,1,1944.7999999970198,380303.40000000596,7763,cobalt,NF,C,375375,375375,373846,374660,373847,375791,375175,375175,375791,16
15,test,1,con,1,z,Wed Feb 25 2026 14:56:56 GMT-0600 (Central Standard Time),384449.200000003,banana,1000,I,z,z,None,648,449.0,199.0,3,1,2195.6000000089407,382253.59999999404,7763,banana,NF,C,377525,377525,375797,376808,375797,377992,377325,377325,377992,17
16,test,1,con,1,z,Wed Feb 25 2026 14:56:56 GMT-0600 (Central Standard Time),386580.09999999404,lime,1000,I,z,z,None,595,395.0,200.0,35,1,2125.699999988079,384454.40000000596,7763,lime,NF,C,379724,379724,377997,379008,377998,380123,379524,379524,380123,18
17,test,1,con,1,z,Wed Feb 25 2026 14:56:56 GMT-0600 (Central Standard Time),388694.90000000596,pear,900,I,z,z,None,665,465.0,200.0,42,1,2111.300000011921,386583.59999999404,7763,pear,NF,C,381757,381757,380127,381040,380127,382238,381556,381556,382238,19
18,test,1,inc,1,m,Wed Feb 25 2026 14:56:56 GMT-0600 (Central Standard Time),390661.90000000596,kiwi,1000,I,m,m,None,426,226.0,200.0,103,1,1963.2000000029802,388698.700000003,7763,gold,NF,C,383972,383972,382242,383257,382242,384205,383772,383772,384205,20
19,test,1,con,1,m,Wed Feb 25 2026 14:56:56 GMT-0600 (Central Standard Time),392629.40000000596,lead,1000,I,m,m,None,422,220.0,202.0,123,1,1963.7000000029802,390665.700000003,7763,lead,NF,C,385939,385939,384209,385223,384209,386172,385737,385737,386172,21
20,test,1,inc,1,z,Wed Feb 25 2026 14:56:56 GMT-0600 (Central Standard Time),394660.90000000596,silver,1000,I,z,z,None,511,312.0,199.0,31,1,2026.4000000059605,392634.5,7763,raisin,NF,C,387887,387887,386178,387187,386178,388204,387688,387688,388204,22
21,test,1,con,1,m,Wed Feb 25 2026 14:56:56 GMT-0600 (Central Standard Time),396576.799999997,cobalt,800,I,m,m,None,574,373.0,201.0,89,1,1912.2999999970198,394664.5,7763,cobalt,NF,C,389737,389737,388208,389020,388208,390120,389536,389536,390120,23
21,test,1,inc,0,m,Wed Feb 25 2026 14:56:56 GMT-0600 (Central Standard Time),398509.5,lime,800,I,z,z,None,585,385.0,200.0,109,1,1929.0999999940395,396580.40000000596,7763,iron,NF,C,391653,391653,390123,390936,390124,392053,391453,391453,392053,24
22,test,1,con,1,m,Wed Feb 25 2026 14:56:56 GMT-0600 (Central Standard Time),400659.59999999404,lead,1100,I,m,m,None,511,311.0,200.0,124,1,2146.5,398513.09999999404,7763,lead,NF,C,393887,393887,392056,393170,392056,394203,393685,393686,394203,25
23,test,1,con,1,m,Wed Feb 25 2026 14:56:56 GMT-0600 (Central Standard Time),402592.40000000596,lead,900,I,m,m,None,492,293.0,199.0,122,1,1929.4000000059605,400663.0,7763,lead,NF,C,395834,395834,394206,395120,394206,396135,395635,395635,396135,26
24,test,1,inc,1,z,Wed Feb 25 2026 14:56:56 GMT-0600 (Central Standard Time),404656.90000000596,cobalt,1100,I,z,z,None,438,223.0,215.0,8,1,2060.5,402596.40000000596,7763,banana,NF,C,397967,397967,396139,397251,396140,398200,397752,397752,398200,27
25,test,1,inc,1,z,Wed Feb 25 2026 14:56:56 GMT-0600 (Central Standard Time),406640.299999997,gold,800,I,z,z,None,649,450.0,199.0,61,1,1979.3999999910593,404660.90000000596,7763,plum,NF,C,399733,399733,398204,399018,398204,400183,399534,399534,400183,28
26,test,1,con,1,m,Wed Feb 25 2026 14:56:56 GMT-0600 (Central Standard Time),408722.799999997,zinc,900,I,m,m,None,651,437.0,214.0,114,1,2078.5,406644.299999997,7763,zinc,NF,C,401818,401818,400187,401099,400188,402266,401603,401603,402266,29
27,test,1,inc,1,z,Wed Feb 25 2026 14:56:56 GMT-0600 (Central Standard Time),410705.40000000596,zinc,1000,I,z,z,None,439,240.0,199.0,63,1,1977.6000000089407,408727.799999997,7763,plum,NF,C,403999,403999,402271,403284,402271,404248,403799,403799,404248,30
28,test,1,inc,1,m,Wed Feb 25 2026 14:56:56 GMT-0600 (Central Standard Time),412987.40000000596,plum,1100,I,m,m,None,637,436.0,201.0,128,1,2277.1000000089407,410710.299999997,7763,lead,NF,C,406083,406083,404253,405366,404254,406530,405882,405882,406530,31
29,test,1,con,1,m,Wed Feb 25 2026 14:56:56 GMT-0600 (Central Standard Time),415137.0,bronze,1000,I,m,m,None,606,406.0,200.0,67,1,2144.7999999970198,412992.200000003,7763,bronze,NF,C,408265,408265,406535,407548,406536,408680,408065,408065,408680,32
30,test,1,con,1,m,Wed Feb 25 2026 14:56:56 GMT-0600 (Central Standard Time),417186.59999999404,iron,900,I,m,m,None,603,403.0,200.0,106,1,2044.0999999940395,415142.5,7763,iron,NF,C,410315,410315,408686,409598,408686,410730,410114,410114,410730,33
31,test,1,inc,1,m,Wed Feb 25 2026 14:56:56 GMT-0600 (Central Standard Time),419152.40000000596,cherry,900,I,m,m,None,522,322.0,200.0,86,1,1961.7000000029802,417190.700000003,7763,silver,NF,C,412364,412364,410734,411647,410734,412695,412163,412163,412695,34
32,test,1,con,1,z,Wed Feb 25 2026 14:56:56 GMT-0600 (Central Standard Time),421202.09999999404,cherry,1000,I,z,z,None,515,316.0,199.0,11,1,2046.199999988079,419155.90000000596,7763,cherry,NF,C,414412,414412,412699,413712,412699,414745,414213,414213,414745,35
33,test,1,inc,1,m,Wed Feb 25 2026 14:56:56 GMT-0600 (Central Standard Time),423402.0,orange,1000,I,m,m,None,648,433.0,215.0,71,1,2194.7000000029802,421207.299999997,7763,bronze,NF,C,416495,416495,414750,415763,414751,416945,416279,416279,416945,36
34,test,1,inc,1,m,Wed Feb 25 2026 14:56:56 GMT-0600 (Central Standard Time),425534.700000003,raisin,1100,I,m,m,None,492,293.0,199.0,96,1,2126.7000000029802,423408.0,7763,cobalt,NF,C,418778,418778,416951,418061,416951,419078,418578,418578,419078,37
35,test,1,con,1,m,Wed Feb 25 2026 14:56:56 GMT-0600 (Central Standard Time),427701.09999999404,iron,1000,I,m,m,None,626,427.0,199.0,107,1,2162.199999988079,425538.90000000596,7763,iron,NF,C,420812,420812,419082,420094,419082,421244,420611,420612,421244,38
36,test,1,inc,1,z,Wed Feb 25 2026 14:56:56 GMT-0600 (Central Standard Time),429782.5,lead,1100,I,z,z,None,433,234.0,199.0,48,1,2077.2999999970198,427705.200000003,7763,pear,NF,C,423076,423076,421248,422360,421248,423326,422877,422877,423325,39
37,test,1,inc,1,m,Wed Feb 25 2026 14:56:56 GMT-0600 (Central Standard Time),431898.700000003,plum,1100,I,m,m,None,470,270.0,200.0,104,1,2112.7999999970198,429785.90000000596,7763,gold,NF,C,425160,425160,423329,424443,423329,425442,424959,424959,425442,40
38,test,1,inc,1,m,Wed Feb 25 2026 14:56:56 GMT-0600 (Central Standard Time),433881.40000000596,orange,1000,I,m,m,None,439,239.0,200.0,95,1,1979.6000000089407,431901.799999997,7763,cobalt,NF,C,427175,427175,425445,426459,425445,427424,426975,426975,427424,41
38,test,1,con,0,z,Wed Feb 25 2026 14:56:56 GMT-0600 (Central Standard Time),435780.90000000596,raisin,900,I,m,m,None,452,251.0,201.0,26,1,1895.2000000029802,433885.700000003,7763,raisin,NF,C,429059,429059,427429,428342,427429,429324,428857,428857,429324,42
39,test,1,con,1,z,Wed Feb 25 2026 14:56:56 GMT-0600 (Central Standard Time),437713.5,raisin,800,I,z,z,None,606,407.0,199.0,25,1,1928.2000000029802,435785.299999997,7763,raisin,NF,C,430840,430840,429328,430140,429329,431257,430641,430641,431257,43
40,test,1,inc,1,z,Wed Feb 25 2026 14:56:56 GMT-0600 (Central Standard Time),439880.09999999404,silver,1000,I,z,z,None,624,424.0,200.0,15,1,2162.0999999940395,437718.0,7763,cherry,NF,C,432991,432991,431261,432274,431261,433423,432790,432790,433423,44
41,test,1,con,1,z,Wed Feb 25 2026 14:56:56 GMT-0600 (Central Standard Time),441995.700000003,pear,1100,I,z,z,None,485,271.0,214.0,44,1,2110.9000000059605,439884.799999997,7763,pear,NF,C,435256,435256,433428,434541,433428,435539,435042,435042,435539,45
42,test,1,inc,1,z,Wed Feb 25 2026 14:56:56 GMT-0600 (Central Standard Time),444329.299999997,zinc,1000,I,z,z,None,780,567.0,213.0,55,1,2329.0999999940395,442000.200000003,7763,kiwi,NF,C,437288,437288,435543,436556,435544,437872,437075,437075,437872,46
43,test,1,con,1,z,Wed Feb 25 2026 14:56:56 GMT-0600 (Central Standard Time),446211.799999997,banana,900,I,z,z,None,439,239.0,200.0,2,1,1876.7000000029802,444335.09999999404,7763,banana,NF,C,439504,439504,437878,438788,437878,439755,439304,439304,439755,47
44,test,1,inc,1,z,Wed Feb 25 2026 14:56:56 GMT-0600 (Central Standard Time),448228.200000003,silver,1000,I,z,z,None,479,279.0,200.0,23,1,2009.2000000029802,446219.0,7763,orange,NF,C,441487,441487,439762,440771,439763,441771,441286,441286,441771,48
45,test,1,con,1,m,Wed Feb 25 2026 14:56:56 GMT-0600 (Central Standard Time),450259.700000003,copper,1100,I,m,m,None,387,188.0,199.0,76,1,2025.5,448234.200000003,7763,copper,NF,C,443603,443603,441777,442889,441777,443803,443403,443403,443803,49
46,test,1,inc,1,z,Wed Feb 25 2026 14:56:56 GMT-0600 (Central Standard Time),452475.700000003,lead,1100,I,z,z,None,576,363.0,213.0,64,1,2211.1000000089407,450264.59999999404,7763,plum,NF,C,445652,445652,443808,444920,443808,446019,445439,445439,446019,50
47,test,1,inc,1,z,Wed Feb 25 2026 14:56:56 GMT-0600 (Central Standard Time),454361.5,iron,900,I,z,z,None,451,250.0,201.0,46,1,1881.2999999970198,452480.200000003,7763,pear,NF,C,447654,447654,446023,446937,446023,447905,447452,447452,447905,51
48,test,1,con,1,z,Wed Feb 25 2026 14:56:56 GMT-0600 (Central Standard Time),456425.200000003,cherry,1100,I,z,z,None,433,233.0,200.0,12,1,2060.5,454364.700000003,7763,cherry,NF,C,449735,449735,447908,449018,447908,449968,449534,449534,449968,52
49,test,1,con,1,z,Wed Feb 25 2026 14:56:56 GMT-0600 (Central Standard Time),458373.40000000596,orange,900,I,z,z,None,501,302.0,199.0,18,1,1944.2000000029802,456429.200000003,7763,orange,NF,C,451600,451600,449972,450884,449973,451916,451400,451400,451916,53
50,test,1,con,1,z,Wed Feb 25 2026 14:56:56 GMT-0600 (Central Standard Time),460273.59999999404,lime,900,I,z,z,None,479,267.0,212.0,34,1,1896.2999999970198,458377.299999997,7763,lime,NF,C,453549,453549,451920,452833,451921,453817,453336,453336,453817,54
51,test,1,inc,1,z,Wed Feb 25 2026 14:56:56 GMT-0600 (Central Standard Time),462255.799999997,copper,900,I,z,z,None,548,333.0,215.0,30,1,1978.5,460277.299999997,7763,raisin,NF,C,455450,455450,453820,454732,453821,455799,455235,455235,455799,55
52,test,1,inc,1,z,Wed Feb 25 2026 14:56:56 GMT-0600 (Central Standard Time),464255.799999997,zinc,1000,I,z,z,None,456,256.0,200.0,47,1,1996.7000000029802,462259.09999999404,7763,pear,NF,C,457534,457535,455802,456816,455802,457799,457332,457332,457799,56
53,test,1,con,1,z,Wed Feb 25 2026 14:56:56 GMT-0600 (Central Standard Time),466220.5,pear,1000,I,z,z,None,420,220.0,200.0,43,1,1959.7999999970198,464260.700000003,7763,pear,NF,C,459531,459531,457804,458816,457804,459764,459331,459331,459764,57
54,test,1,inc,1,z,Wed Feb 25 2026 14:56:56 GMT-0600 (Central Standard Time),468103.0,iron,900,I,z,z,None,441,242.0,199.0,62,1,1879.5999999940395,466223.40000000596,7763,plum,NF,C,461396,461396,459766,460681,459767,461646,461197,461197,461646,58
55,test,1,inc,1,m,Wed Feb 25 2026 14:56:56 GMT-0600 (Central Standard Time),469952.799999997,cherry,900,I,m,m,None,406,206.0,200.0,94,1,1847.2000000029802,468105.59999999404,7763,cobalt,NF,C,463281,463281,461649,462564,461649,463496,463080,463080,463496,59
56,test,1,inc,1,m,Wed Feb 25 2026 14:56:56 GMT-0600 (Central Standard Time),471702.59999999404,banana,800,I,m,m,None,408,192.0,216.0,77,1,1743.7999999970198,469958.799999997,7763,copper,NF,C,465046,465046,463502,464314,463502,465246,464830,464830,465246,60
57,test,1,inc,1,m,Wed Feb 25 2026 14:56:56 GMT-0600 (Central Standard Time),473552.09999999404,cherry,900,I,m,m,None,423,224.0,199.0,70,1,1845.8999999910593,471706.200000003,7763,bronze,NF,C,466862,466862,465249,466162,465249,467095,466663,466663,467095,61
58,test,1,con,1,z,Wed Feb 25 2026 14:56:56 GMT-0600 (Central Standard Time),475467.5,cherry,800,I,z,z,None,579,379.0,200.0,9,1,1910.2999999970198,473557.200000003,7763,cherry,NF,C,468628,468628,467100,467914,467101,469011,468428,468428,469011,62
59,test,1,inc,1,m,Wed Feb 25 2026 14:56:56 GMT-0600 (Central Standard Time),477550.5,orange,1000,I,m,m,None,534,334.0,200.0,79,1,2078.4000000059605,475472.09999999404,7763,copper,NF,C,470745,470745,469015,470028,469015,471094,470545,470545,471093,63
60,test,1,con,1,z,Wed Feb 25 2026 14:56:56 GMT-0600 (Central Standard Time),479433.799999997,banana,800,I,z,z,None,548,349.0,199.0,1,1,1879.7999999970198,477554.0,7763,banana,NF,C,472628,472628,471097,471911,471097,472977,472428,472428,472977,64
61,test,1,con,1,m,Wed Feb 25 2026 14:56:56 GMT-0600 (Central Standard Time),481383.299999997,gold,1000,I,m,m,None,415,200.0,215.0,99,1,1945.0,479438.299999997,7763,gold,NF,C,474711,474711,472981,473993,472982,474926,474495,474495,474926,65
62,test,1,con,1,m,Wed Feb 25 2026 14:56:56 GMT-0600 (Central Standard Time),483583.200000003,copper,1000,I,m,m,None,658,457.0,201.0,75,1,2193.5,481389.700000003,7763,copper,NF,C,476660,476661,474933,475943,474933,477126,476459,476459,477126,66
63,test,1,inc,1,m,Wed Feb 25 2026 14:56:56 GMT-0600 (Central Standard Time),485664.5,kiwi,1000,I,m,m,None,564,365.0,199.0,127,1,2076.7000000029802,483587.799999997,7763,lead,NF,C,478842,478842,477131,478142,477131,479208,478643,478643,479208,67
64,test,1,inc,1,z,Wed Feb 25 2026 14:56:56 GMT-0600 (Central Standard Time),487548.200000003,gold,800,I,z,z,None,537,337.0,200.0,45,1,1880.9000000059605,485667.299999997,7763,pear,NF,C,480741,480742,479210,480025,479211,481091,480541,480541,481091,68
65,test,1,con,1,m,Wed Feb 25 2026 14:56:56 GMT-0600 (Central Standard Time),489745.799999997,bronze,1100,I,m,m,None,570,370.0,200.0,68,1,2193.0999999940395,487552.700000003,7763,bronze,NF,C,482908,482908,481096,482207,481096,483289,482708,482708,483289,69
66,test,1,con,1,z,Wed Feb 25 2026 14:56:56 GMT-0600 (Central Standard Time),491896.200000003,plum,1000,I,z,z,None,606,389.0,217.0,59,1,2146.0,489750.200000003,7763,plum,NF,C,485041,485041,483293,484306,483294,485439,484823,484823,485439,70
67,test,1,con,1,z,Wed Feb 25 2026 14:56:56 GMT-0600 (Central Standard Time),494314.0,orange,1100,I,z,z,None,786,583.0,203.0,20,1,2414.9000000059605,491899.09999999404,7763,orange,NF,C,487274,487274,485442,486556,485442,487857,487071,487071,487857,71
68,test,1,inc,1,m,Wed Feb 25 2026 14:56:56 GMT-0600 (Central Standard Time),496212.700000003,banana,800,I,m,m,None,553,353.0,200.0,85,1,1894.2999999970198,494318.40000000596,7763,silver,NF,C,489389,489389,487861,488673,487862,489756,489188,489189,489756,72
69,test,1,inc,1,m,Wed Feb 25 2026 14:56:56 GMT-0600 (Central Standard Time),498328.299999997,kiwi,1000,I,m,m,None,595,382.0,213.0,119,1,2111.5999999940395,496216.700000003,7763,zinc,NF,C,491489,491489,489760,490771,489760,491871,491276,491276,491871,73
70,test,1,con,1,z,Wed Feb 25 2026 14:56:56 GMT-0600 (Central Standard Time),500410.0,kiwi,1000,I,z,z,None,535,320.0,215.0,51,1,2077.7000000029802,498332.299999997,7763,kiwi,NF,C,493622,493622,491875,492887,491876,493953,493407,493407,493953,74
71,test,1,inc,1,m,Wed Feb 25 2026 14:56:56 GMT-0600 (Central Standard Time),502442.09999999404,pear,900,I,m,m,None,613,413.0,200.0,118,1,2027.2999999970198,500414.799999997,7763,zinc,NF,C,495570,495570,493958,494869,493958,495985,495370,495370,495985,75
72,test,1,con,1,z,Wed Feb 25 2026 14:56:56 GMT-0600 (Central Standard Time),504411.09999999404,plum,800,I,z,z,None,636,435.0,201.0,57,1,1966.0,502445.09999999404,7763,plum,NF,C,497519,497519,495988,496805,495988,497954,497318,497318,497954,76
73,test,1,con,1,z,Wed Feb 25 2026 14:56:56 GMT-0600 (Central Standard Time),506507.799999997,lime,1100,I,z,z,None,462,263.0,199.0,36,1,2093.2000000029802,504414.59999999404,7763,lime,NF,C,499784,499784,497958,499068,497958,500051,499585,499585,500051,77
74,test,1,inc,1,z,Wed Feb 25 2026 14:56:56 GMT-0600 (Central Standard Time),508840.59999999404,lead,1100,I,z,z,None,690,490.0,200.0,56,1,2329.8999999910593,506510.700000003,7763,kiwi,NF,C,501884,501884,500054,501168,500054,502384,501684,501684,502384,78
75,test,1,con,1,z,Wed Feb 25 2026 14:56:56 GMT-0600 (Central Standard Time),511074.0,raisin,1100,I,z,z,None,598,384.0,214.0,28,1,2229.7999999970198,508844.200000003,7763,raisin,NF,C,504233,504233,502387,503503,502387,504617,504019,504019,504617,79
76,test,1,con,1,z,Wed Feb 25 2026 14:56:56 GMT-0600 (Central Standard Time),512973.200000003,cherry,900,I,z,z,None,475,260.0,215.0,10,1,1896.7000000029802,511076.5,7763,cherry,NF,C,506250,506250,504620,505532,504620,506516,506035,506035,506516,80
77,test,1,con,1,z,Wed Feb 25 2026 14:56:56 GMT-0600 (Central Standard Time),515088.90000000596,banana,1100,I,z,z,None,481,282.0,199.0,4,1,2113.0,512975.90000000596,7763,banana,NF,C,508334,508334,506519,507632,506519,508632,508134,508134,508632,81
78,test,1,con,1,z,Wed Feb 25 2026 14:56:56 GMT-0600 (Central Standard Time),517289.40000000596,kiwi,1100,I,z,z,None,558,359.0,199.0,52,1,2197.5,515091.90000000596,7763,kiwi,NF,C,510464,510464,508635,509749,508635,510832,510265,510265,510832,82
79,test,1,inc,1,z,Wed Feb 25 2026 14:56:56 GMT-0600 (Central Standard Time),519469.90000000596,iron,900,I,z,z,None,733,534.0,199.0,38,1,2177.0,517292.90000000596,7763,lime,NF,C,512464,512464,510836,511748,510836,513013,512265,512265,513013,83
80,test,1,inc,1,z,Wed Feb 25 2026 14:56:56 GMT-0600 (Central Standard Time),521456.90000000596,copper,900,I,z,z,None,549,336.0,213.0,14,1,1983.5,519473.40000000596,7763,cherry,NF,C,514664,514664,513016,513931,513017,515000,514450,514450,515000,84
81,test,1,inc,1,m,Wed Feb 25 2026 14:56:56 GMT-0600 (Central Standard Time),523519.40000000596,plum,1100,I,m,m,None,422,207.0,215.0,112,1,2057.800000011921,521461.59999999404,7763,iron,NF,C,516847,516847,515005,516113,515005,517062,516631,516631,517062,85
82,test,1,con,1,m,Wed Feb 25 2026 14:56:56 GMT-0600 (Central Standard Time),525418.599999994,bronze,800,I,m,m,None,577,378.0,199.0,65,1,1896.5,523522.09999999404,7763,bronze,NF,C,518580,518580,517065,517879,517065,518962,518381,518381,518962,86
83,test,1,inc,1,z,Wed Feb 25 2026 14:56:56 GMT-0600 (Central Standard Time),527202.599999994,bronze,800,I,z,z,None,465,266.0,199.0,29,1,1779.5999999940395,525423.0,7763,raisin,NF,C,520479,520479,518966,519779,518966,520746,520280,520280,520746,87
84,test,1,inc,1,m,Wed Feb 25 2026 14:56:56 GMT-0600 (Central Standard Time),529317.0,orange,1000,I,m,m,None,594,393.0,201.0,87,1,2109.7999999970198,527207.200000003,7763,silver,NF,C,522462,522462,520750,521760,520750,522860,522261,522261,522860,88
85,test,1,inc,1,m,Wed Feb 25 2026 14:56:56 GMT-0600 (Central Standard Time),531584.900000006,raisin,1100,I,m,m,None,632,417.0,215.0,88,1,2264.2000000029802,529320.700000003,7763,silver,NF,C,524711,524711,522864,523977,522864,525128,524496,524496,525128,89
86,test,1,con,1,m,Wed Feb 25 2026 14:56:56 GMT-0600 (Central Standard Time),533700.599999994,gold,900,I,m,m,None,679,478.0,201.0,98,1,2109.8999999910593,531590.700000003,7763,gold,NF,C,526761,526761,525134,526044,525134,527244,526560,526560,527244,90
87,test,1,con,1,m,Wed Feb 25 2026 14:56:56 GMT-0600 (Central Standard Time),535916.700000003,iron,1100,I,m,m,None,586,387.0,199.0,108,1,2213.0,533703.700000003,7763,iron,NF,C,529059,529059,527247,528359,527247,529460,528860,528860,529460,91
88,test,1,con,1,m,Wed Feb 25 2026 14:56:56 GMT-0600 (Central Standard Time),537814.700000003,cobalt,900,I,m,m,None,449,250.0,199.0,90,1,1895.1000000089407,535919.599999994,7763,cobalt,NF,C,531092,531092,529463,530377,529463,531358,530893,530893,531358,92
89,test,1,con,1,m,Wed Feb 25 2026 14:56:56 GMT-0600 (Central Standard Time),539931.299999997,gold,1100,I,m,m,None,472,272.0,200.0,100,1,2113.2999999970198,537818.0,7763,gold,NF,C,533191,533191,531361,532475,531361,533474,532991,532991,533474,93
90,test,1,inc,1,m,Wed Feb 25 2026 14:56:56 GMT-0600 (Central Standard Time),541946.099999994,pear,900,I,m,m,None,578,364.0,214.0,126,1,2010.8999999910593,539935.200000003,7763,lead,NF,C,535123,535123,533478,534391,533478,535489,534909,534909,535489,94
91,test,1,inc,1,m,Wed Feb 25 2026 14:56:56 GMT-0600 (Central Standard Time),544146.700000003,kiwi,1000,I,m,m,None,669,455.0,214.0,111,1,2196.7000000029802,541950.0,7763,iron,NF,C,537223,537223,535493,536506,535493,537690,537009,537009,537690,95
92,test,1,inc,1,z,Wed Feb 25 2026 14:56:56 GMT-0600 (Central Standard Time),546078.799999997,bronze,800,I,z,z,None,582,383.0,199.0,13,1,1927.0,544151.799999997,7763,cherry,NF,C,539223,539223,537695,538507,537695,539622,539024,539024,539622,96
93,test,1,inc,1,m,Wed Feb 25 2026 14:56:56 GMT-0600 (Central Standard Time),547979.0,banana,800,I,m,m,None,555,353.0,202.0,69,1,1897.5999999940395,546081.400000006,7763,bronze,NF,C,541157,541157,539624,540439,539625,541522,540955,540955,541522,97
94,test,1,con,1,z,Wed Feb 25 2026 14:56:56 GMT-0600 (Central Standard Time),550027.400000006,kiwi,800,I,z,z,None,713,512.0,201.0,49,1,2045.800000011921,547981.599999994,7763,kiwi,NF,C,543056,543056,541525,542338,541525,543571,542855,542855,543570,98
95,test,1,inc,1,z,Wed Feb 25 2026 14:56:56 GMT-0600 (Central Standard Time),551877.0,gold,800,I,z,z,None,526,326.0,200.0,37,1,1846.4000000059605,550030.599999994,7763,lime,NF,C,545089,545089,543574,544387,543574,545420,544889,544889,545420,99
96,test,1,inc,1,z,Wed Feb 25 2026 14:56:56 GMT-0600 (Central Standard Time),554077.299999997,cobalt,1100,I,z,z,None,553,352.0,201.0,32,1,2197.2999999970198,551880.0,7763,raisin,NF,C,547254,547254,545423,546537,545423,547620,547053,547053,547620,100
97,test,1,con,1,m,Wed Feb 25 2026 14:56:56 GMT-0600 (Central Standard Time),556076.400000006,iron,800,I,m,m,None,674,460.0,214.0,105,1,1995.5,554080.900000006,7763,iron,NF,C,549154,549154,547624,548436,547624,549620,548939,548939,549619,101
98,test,1,con,1,m,Wed Feb 25 2026 14:56:56 GMT-0600 (Central Standard Time),558208.799999997,copper,900,I,m,m,None,698,497.0,201.0,74,1,2128.8999999910593,556079.900000006,7763,copper,NF,C,551254,551254,549623,550536,549623,551752,551052,551052,551752,102
99,test,1,con,1,z,Wed Feb 25 2026 14:56:56 GMT-0600 (Central Standard Time),560156.799999997,orange,800,I,z,z,None,624,411.0,213.0,17,1,1942.7000000029802,558214.099999994,7763,orange,NF,C,553284,553284,551757,552568,551757,553700,553071,553071,553700,103
100,test,1,con,1,m,Wed Feb 25 2026 14:56:56 GMT-0600 (Central Standard Time),561956.700000003,silver,800,I,m,m,None,452,253.0,199.0,81,1,1797.2999999970198,560159.400000006,7763,silver,NF,C,555234,555234,553702,554521,553703,555500,555034,555034,555500,104
101,test,1,con,1,m,Wed Feb 25 2026 14:56:56 GMT-0600 (Central Standard Time),564056.400000006,silver,1100,I,m,m,None,463,264.0,199.0,84,1,2089.0,561967.400000006,7763,silver,NF,C,557334,557334,555510,556617,555511,557600,557134,557134,557599,105
102,test,1,inc,1,z,Wed Feb 25 2026 14:56:56 GMT-0600 (Central Standard Time),566206.299999997,cobalt,1100,I,z,z,None,501,301.0,200.0,16,1,2144.0999999940395,564062.200000003,7763,cherry,NF,C,559433,559433,557605,558716,557606,559749,559233,559233,559749,106
103,test,1,inc,1,m,Wed Feb 25 2026 14:56:56 GMT-0600 (Central Standard Time),568121.5,lime,800,I,m,m,None,572,357.0,215.0,125,1,1910.7000000029802,566210.799999997,7763,lead,NF,C,561298,561298,559754,560565,559754,561665,561083,561083,561664,107
104,test,1,con,1,m,Wed Feb 25 2026 14:56:56 GMT-0600 (Central Standard Time),570071.299999997,gold,800,I,m,m,None,614,401.0,213.0,97,1,1942.0999999940395,568129.200000003,7763,gold,NF,C,563198,563198,561672,562481,561673,563614,562985,562985,563614,108
105,test,1,inc,1,m,Wed Feb 25 2026 14:56:56 GMT-0600 (Central Standard Time),572070.099999994,pear,900,I,m,m,None,559,359.0,200.0,110,1,1993.7999999970198,570076.299999997,7763,iron,NF,C,565248,565248,563619,564531,563620,565613,565047,565047,565613,109
106,test,1,con,1,z,Wed Feb 25 2026 14:56:56 GMT-0600 (Central Standard Time),574187.200000003,raisin,1000,I,z,z,None,580,381.0,199.0,27,1,2110.6000000089407,572076.599999994,7763,raisin,NF,C,567346,567346,565620,566631,565620,567730,567147,567147,567730,110
107,test,1,con,1,z,Wed Feb 25 2026 14:56:56 GMT-0600 (Central Standard Time),576503.799999997,plum,1100,I,z,z,None,692,492.0,200.0,60,1,2309.5999999940395,574194.200000003,7763,plum,NF,C,569547,569547,567737,568846,567737,570047,569347,569347,570047,111
108,test,1,inc,1,z,Wed Feb 25 2026 14:56:56 GMT-0600 (Central Standard Time),578751.599999994,gold,800,I,z,z,None,901,700.0,201.0,53,1,2242.2999999970198,576509.299999997,7763,kiwi,NF,C,571579,571579,570052,570862,570053,572295,571378,571378,572295,112
109,test,1,inc,1,m,Wed Feb 25 2026 14:56:56 GMT-0600 (Central Standard Time),580851.299999997,pear,900,I,m,m,None,655,455.0,200.0,102,1,2091.0999999940395,578760.200000003,7763,gold,NF,C,573929,573929,572303,573212,572303,574394,573728,573728,574394,113
110,test,1,con,1,m,Wed Feb 25 2026 14:56:56 GMT-0600 (Central Standard Time),582817.299999997,lead,800,I,m,m,None,631,431.0,200.0,121,1,1959.3999999910593,580857.900000006,7763,lead,NF,C,575928,575928,574401,575212,574401,576360,575728,575728,576360,114
111,test,1,inc,1,m,Wed Feb 25 2026 14:56:56 GMT-0600 (Central Standard Time),584934.0,plum,1100,I,m,m,None,478,278.0,200.0,120,1,2110.2000000029802,582823.799999997,7763,zinc,NF,C,578193,578193,576367,577476,576367,578477,577992,577993,578477,115
112,test,1,inc,1,z,Wed Feb 25 2026 14:56:56 GMT-0600 (Central Standard Time),587232.599999994,lead,1100,I,z,z,None,657,457.0,200.0,40,1,2295.5,584937.099999994,7763,lime,NF,C,580310,580310,578480,579593,578480,580776,580110,580110,580776,116
113,test,1,inc,1,z,Wed Feb 25 2026 14:56:56 GMT-0600 (Central Standard Time),589314.900000006,copper,900,I,z,z,None,639,439.0,200.0,6,1,2078.7000000029802,587236.200000003,7763,banana,NF,C,582407,582407,580779,581693,580779,582858,582207,582207,582858,117
114,test,1,con,1,m,Wed Feb 25 2026 14:56:56 GMT-0600 (Central Standard Time),591264.700000003,zinc,800,I,m,m,None,630,431.0,199.0,113,1,1944.6000000089407,589320.099999994,7763,zinc,NF,C,584376,584376,582863,583674,582863,584808,584176,584176,584808,118
115,test,1,inc,1,z,Wed Feb 25 2026 14:56:56 GMT-0600 (Central Standard Time),593464.900000006,cobalt,1100,I,z,z,None,548,334.0,214.0,24,1,2195.0,591269.900000006,7763,orange,NF,C,586658,586658,584813,585925,584813,587008,586444,586444,587008,119
116,test,1,con,1,m,Wed Feb 25 2026 14:56:56 GMT-0600 (Central Standard Time),595398.599999994,cobalt,1000,I,m,m,None,386,187.0,199.0,91,1,1929.3999999910593,593469.200000003,7763,cobalt,NF,C,588740,588740,587012,588023,587012,588942,588541,588541,588942,120
117,test,1,con,1,m,Wed Feb 25 2026 14:56:56 GMT-0600 (Central Standard Time),597312.0,silver,900,I,m,m,None,472,273.0,199.0,82,1,1908.7999999970198,595403.200000003,7763,silver,NF,C,590574,590574,588946,589857,588947,590855,590374,590374,590855,121
118,test,1,con,1,m,Wed Feb 25 2026 14:56:56 GMT-0600 (Central Standard Time),599195.400000006,copper,800,I,m,m,None,544,345.0,199.0,73,1,1879.6000000089407,597315.799999997,7763,copper,NF,C,592389,592389,590859,591673,590859,592738,592190,592190,592738,122
119,test,1,con,1,m,Wed Feb 25 2026 14:56:56 GMT-0600 (Central Standard Time),601178.599999994,silver,1000,I,m,m,None,455,256.0,199.0,83,1,1980.699999988079,599197.900000006,7763,silver,NF,C,594455,594455,592741,593755,592741,594722,594256,594256,594722,123
120,test,1,inc,1,m,Wed Feb 25 2026 14:56:56 GMT-0600 (Central Standard Time),603395.299999997,raisin,1100,I,m,m,None,583,384.0,199.0,72,1,2211.7000000029802,601183.599999994,7763,bronze,NF,C,596554,596554,594727,595838,594727,596938,596355,596355,596938,124
121,test,1,con,1,z,Wed Feb 25 2026 14:56:56 GMT-0600 (Central Standard Time),605277.700000003,pear,800,I,z,z,None,559,360.0,199.0,41,1,1876.5,603401.200000003,7763,pear,NF,C,598454,598454,596944,597754,596944,598821,598255,598255,598821,125
122,test,1,inc,1,z,Wed Feb 25 2026 14:56:56 GMT-0600 (Central Standard Time),607227.0,copper,900,I,z,z,None,505,306.0,199.0,22,1,1945.5999999940395,605281.400000006,7763,orange,NF,C,600453,600453,598824,599738,598825,600770,600254,600254,600770,126
123,test,1,con,1,z,Wed Feb 25 2026 14:56:56 GMT-0600 (Central Standard Time),609091.700000003,lime,800,I,z,z,None,518,319.0,199.0,33,1,1860.2999999970198,607231.400000006,7763,lime,NF,C,602303,602303,600774,601586,600775,602635,602103,602103,602635,127
124,test,1,con,1,m,Wed Feb 25 2026 14:56:56 GMT-0600 (Central Standard Time),611324.799999997,zinc,1100,I,m,m,None,595,396.0,199.0,116,1,2230.2999999970198,609094.5,7763,zinc,NF,C,604468,604468,602638,603752,602638,604868,604269,604269,604868,128
