acc_sum,block,block_c,change,condition,correct,correct_response,datetime,endtime,face,project,response,response_time,row_sel,session_number,start_end,starttime,subject_id,task,task_vers,trial
0,prac,1,,1-Back,,,Wed Jul 30 2025 13:54:55 GMT-0500 (Central Daylight Time),,005_o_f_d_a.png,O,space,9473,1,1,,,7177,VNB,B,0
1,prac,1,0.0,1-Back,1,m,Wed Jul 30 2025 13:54:55 GMT-0500 (Central Daylight Time),122739.79999995232,020_y_f_n_a.png,O,m,852,2,1,1759.1000000238419,120980.69999992847,7177,VNB,B,1
2,prac,1,0.0,1-Back,1,m,Wed Jul 30 2025 13:54:55 GMT-0500 (Central Daylight Time),125038.89999997616,007_m_m_h_a.png,O,m,1325,3,1,2260.100000023842,122778.79999995232,7177,VNB,B,2
2,prac,1,0.0,1-Back,0,m,Wed Jul 30 2025 13:54:55 GMT-0500 (Central Daylight Time),126855.0,016_y_m_d_a.png,O,z,859,4,1,1788.2000000476837,125066.79999995232,7177,VNB,B,3
2,prac,1,0.0,1-Back,0,m,Wed Jul 30 2025 13:54:55 GMT-0500 (Central Daylight Time),129820.60000002384,005_o_f_n_a.png,O,None,2011,5,1,2929.4000000953674,126891.19999992847,7177,VNB,B,4
2,prac,1,1.0,1-Back,0,z,Wed Jul 30 2025 13:54:55 GMT-0500 (Central Daylight Time),132102.89999997616,016_y_m_n_a.png,O,m,1309,6,1,2244.2999999523163,129858.60000002384,7177,VNB,B,5
2,prac,1,0.0,1-Back,0,m,Wed Jul 30 2025 13:54:55 GMT-0500 (Central Daylight Time),134835.39999997616,004_o_m_h_a.png,O,z,1808,7,1,2716.0,132119.39999997616,7177,VNB,B,6
2,prac,1,0.0,1-Back,0,m,Wed Jul 30 2025 13:54:55 GMT-0500 (Central Daylight Time),137801.0,011_m_f_d_a.png,O,None,2010,8,1,2922.0,134879.0,7177,VNB,B,7
2,prac,1,1.0,1-Back,0,z,Wed Jul 30 2025 13:54:55 GMT-0500 (Central Daylight Time),140283.69999992847,020_y_f_d_a.png,O,m,1543,9,1,2444.6999999284744,137839.0,7177,VNB,B,8
2,prac,1,0.0,1-Back,0,m,Wed Jul 30 2025 13:54:55 GMT-0500 (Central Daylight Time),142932.89999997616,007_m_m_n_a.png,O,z,1683,10,1,2608.0,140324.89999997616,7177,VNB,B,9
3,prac,1,0.0,1-Back,1,m,Wed Jul 30 2025 13:54:55 GMT-0500 (Central Daylight Time),145165.60000002384,005_o_f_h_a.png,O,m,1272,11,1,2197.3000000715256,142968.29999995232,7177,VNB,B,10
4,prac,1,0.0,1-Back,1,m,Wed Jul 30 2025 13:54:55 GMT-0500 (Central Daylight Time),147414.79999995232,016_y_m_d_a.png,O,m,1280,12,1,2214.0,145200.79999995232,7177,VNB,B,11
0,prac,2,0.0,1-Back,,,Wed Jul 30 2025 13:54:55 GMT-0500 (Central Daylight Time),147414.79999995232,005_o_f_d_a.png,O,a,6058,1,1,2214.0,145200.79999995232,7177,VNB,B,0
1,prac,2,0.0,1-Back,1,m,Wed Jul 30 2025 13:54:55 GMT-0500 (Central Daylight Time),158727.89999997616,020_y_f_n_a.png,O,m,1236,2,1,2141.600000023842,156586.29999995232,7177,VNB,B,1
2,prac,2,0.0,1-Back,1,m,Wed Jul 30 2025 13:54:55 GMT-0500 (Central Daylight Time),160693.89999997616,007_m_m_h_a.png,O,m,1014,3,1,1938.0,158755.89999997616,7177,VNB,B,2
2,prac,2,0.0,1-Back,0,m,Wed Jul 30 2025 13:54:55 GMT-0500 (Central Daylight Time),162293.10000002384,016_y_m_d_a.png,O,z,784,4,1,1561.5,160731.60000002384,7177,VNB,B,3
3,prac,2,0.0,1-Back,1,m,Wed Jul 30 2025 13:54:55 GMT-0500 (Central Daylight Time),164874.79999995232,005_o_f_n_a.png,O,m,1625,5,1,2551.0,162323.79999995232,7177,VNB,B,4
3,prac,2,1.0,1-Back,0,z,Wed Jul 30 2025 13:54:55 GMT-0500 (Central Daylight Time),167191.5,016_y_m_n_a.png,O,m,1381,6,1,2307.100000023842,164884.39999997616,7177,VNB,B,5
4,prac,2,0.0,1-Back,1,m,Wed Jul 30 2025 13:54:55 GMT-0500 (Central Daylight Time),169191.19999992847,004_o_m_h_a.png,O,m,1058,7,1,1956.7999999523163,167234.39999997616,7177,VNB,B,6
5,prac,2,0.0,1-Back,1,m,Wed Jul 30 2025 13:54:55 GMT-0500 (Central Daylight Time),171207.0,011_m_f_d_a.png,O,m,1057,8,1,1982.3000000715256,169224.69999992847,7177,VNB,B,7
6,prac,2,1.0,1-Back,1,z,Wed Jul 30 2025 13:54:55 GMT-0500 (Central Daylight Time),173539.60000002384,020_y_f_d_a.png,O,z,1397,9,1,2307.2000000476837,171232.39999997616,7177,VNB,B,8
7,prac,2,0.0,1-Back,1,m,Wed Jul 30 2025 13:54:55 GMT-0500 (Central Daylight Time),175655.60000002384,007_m_m_n_a.png,O,m,1147,10,1,2082.100000023842,173573.5,7177,VNB,B,9
8,prac,2,0.0,1-Back,1,m,Wed Jul 30 2025 13:54:55 GMT-0500 (Central Daylight Time),177754.79999995232,005_o_f_h_a.png,O,m,1143,11,1,2060.7999999523163,175694.0,7177,VNB,B,10
8,prac,2,0.0,1-Back,0,m,Wed Jul 30 2025 13:54:55 GMT-0500 (Central Daylight Time),179554.29999995232,016_y_m_d_a.png,O,z,823,12,1,1758.5,177795.79999995232,7177,VNB,B,11
0,test,1,0.0,1-Back,,,Wed Jul 30 2025 13:54:55 GMT-0500 (Central Daylight Time),179554.29999995232,020_y_f_d_a.png,O,space,9632,1,1,1758.5,177795.79999995232,7177,VNB,B,0
1,test,1,0.0,1-Back,1,m,Wed Jul 30 2025 13:54:55 GMT-0500 (Central Daylight Time),199331.10000002384,011_m_f_n_a.png,O,m,809,2,1,1826.3000000715256,197504.79999995232,7177,VNB,B,1
1,test,1,0.0,1-Back,0,m,Wed Jul 30 2025 13:54:55 GMT-0500 (Central Daylight Time),201213.5,004_o_m_h_a.png,O,z,847,3,1,1856.3000000715256,199357.19999992847,7177,VNB,B,2
2,test,1,1.0,1-Back,1,z,Wed Jul 30 2025 13:54:55 GMT-0500 (Central Daylight Time),203312.0,007_m_m_h_a.png,O,z,1014,4,1,2070.8000000715256,201241.19999992847,7177,VNB,B,3
3,test,1,0.0,1-Back,1,m,Wed Jul 30 2025 13:54:55 GMT-0500 (Central Daylight Time),205528.89999997616,005_o_f_n_a.png,O,m,1195,5,1,2211.7000000476837,203317.19999992847,7177,VNB,B,4
3,test,1,0.0,1-Back,0,m,Wed Jul 30 2025 13:54:55 GMT-0500 (Central Daylight Time),207528.29999995232,016_y_m_d_a.png,O,z,954,6,1,1974.3999999761581,205553.89999997616,7177,VNB,B,5
4,test,1,1.0,1-Back,1,z,Wed Jul 30 2025 13:54:55 GMT-0500 (Central Daylight Time),209660.89999997616,011_m_f_d_a.png,O,z,1074,7,1,2101.2000000476837,207559.69999992847,7177,VNB,B,6
5,test,1,0.0,1-Back,1,m,Wed Jul 30 2025 13:54:55 GMT-0500 (Central Daylight Time),211627.0,020_y_f_h_a.png,O,m,910,8,1,1934.6000000238419,209692.39999997616,7177,VNB,B,7
5,test,1,0.0,1-Back,0,m,Wed Jul 30 2025 13:54:55 GMT-0500 (Central Daylight Time),213443.0,004_o_m_n_a.png,O,z,775,9,1,1796.8000000715256,211646.19999992847,7177,VNB,B,8
5,test,1,0.0,1-Back,0,m,Wed Jul 30 2025 13:54:55 GMT-0500 (Central Daylight Time),215642.10000002384,016_y_m_h_a.png,O,z,1144,10,1,2167.3000000715256,213474.79999995232,7177,VNB,B,9
6,test,1,0.0,1-Back,1,m,Wed Jul 30 2025 13:54:55 GMT-0500 (Central Daylight Time),217974.89999997616,004_o_m_d_a.png,O,m,1289,11,1,2304.0,215670.89999997616,7177,VNB,B,10
7,test,1,1.0,1-Back,1,z,Wed Jul 30 2025 13:54:55 GMT-0500 (Central Daylight Time),220190.79999995232,005_o_f_d_a.png,O,z,1179,12,1,2192.0,217998.79999995232,7177,VNB,B,11
8,test,1,0.0,1-Back,1,m,Wed Jul 30 2025 13:54:55 GMT-0500 (Central Daylight Time),222356.79999995232,007_m_m_n_a.png,O,m,1120,13,1,2138.7999999523163,220218.0,7177,VNB,B,12
9,test,1,1.0,1-Back,1,z,Wed Jul 30 2025 13:54:55 GMT-0500 (Central Daylight Time),224954.89999997616,020_y_f_n_a.png,O,z,1557,14,1,2571.2000000476837,222383.69999992847,7177,VNB,B,13
10,test,1,0.0,1-Back,1,m,Wed Jul 30 2025 13:54:55 GMT-0500 (Central Daylight Time),227105.19999992847,011_m_f_h_a.png,O,m,1086,15,1,2144.5999999046326,224960.60000002384,7177,VNB,B,14
11,test,1,0.0,1-Back,1,m,Wed Jul 30 2025 13:54:55 GMT-0500 (Central Daylight Time),229354.5,007_m_m_d_a.png,O,m,1192,16,1,2217.3000000715256,227137.19999992847,7177,VNB,B,15
11,test,1,0.0,1-Back,0,m,Wed Jul 30 2025 13:54:55 GMT-0500 (Central Daylight Time),231920.29999995232,016_y_m_n_a.png,O,z,1503,17,1,2534.5,229385.79999995232,7177,VNB,B,16
12,test,1,0.0,1-Back,1,m,Wed Jul 30 2025 13:54:55 GMT-0500 (Central Daylight Time),234402.79999995232,005_o_f_h_a.png,O,m,1438,18,1,2453.899999976158,231948.89999997616,7177,VNB,B,17
0,test,2,0.0,1-Back,,,Wed Jul 30 2025 13:54:55 GMT-0500 (Central Daylight Time),234402.79999995232,016_y_m_n_a.png,O,space,1575,1,1,2453.899999976158,231948.89999997616,7177,VNB,B,0
1,test,2,0.0,1-Back,1,m,Wed Jul 30 2025 13:54:55 GMT-0500 (Central Daylight Time),240434.0,020_y_f_h_a.png,O,m,1377,2,1,2397.100000023842,238036.89999997616,7177,VNB,B,1
2,test,2,1.0,1-Back,1,m,Wed Jul 30 2025 13:54:55 GMT-0500 (Central Daylight Time),242766.89999997616,004_o_m_n_a.png,O,m,1288,3,1,2306.399999976158,240460.5,7177,VNB,B,2
2,test,2,0.0,1-Back,0,m,Wed Jul 30 2025 13:54:55 GMT-0500 (Central Daylight Time),245266.0,011_m_f_d_a.png,O,z,1460,4,1,2470.899999976158,242795.10000002384,7177,VNB,B,3
3,test,2,0.0,1-Back,1,z,Wed Jul 30 2025 13:54:55 GMT-0500 (Central Daylight Time),247615.29999995232,007_m_m_d_a.png,O,z,1304,5,1,2326.100000023842,245289.19999992847,7177,VNB,B,4
4,test,2,0.0,1-Back,1,m,Wed Jul 30 2025 13:54:55 GMT-0500 (Central Daylight Time),250030.89999997616,016_y_m_h_a.png,O,m,1355,6,1,2383.0,247647.89999997616,7177,VNB,B,5
4,test,2,1.0,1-Back,0,z,Wed Jul 30 2025 13:54:55 GMT-0500 (Central Daylight Time),252147.0,005_o_f_h_a.png,O,m,1068,7,1,2089.600000023842,250057.39999997616,7177,VNB,B,6
5,test,2,0.0,1-Back,1,m,Wed Jul 30 2025 13:54:55 GMT-0500 (Central Daylight Time),254796.10000002384,011_m_f_n_a.png,O,m,1591,8,1,2615.4000000953674,252180.69999992847,7177,VNB,B,7
5,test,2,0.0,1-Back,0,m,Wed Jul 30 2025 13:54:55 GMT-0500 (Central Daylight Time),257495.29999995232,020_y_f_d_a.png,O,z,1647,9,1,2668.5,254826.79999995232,7177,VNB,B,8
6,test,2,0.0,1-Back,1,m,Wed Jul 30 2025 13:54:55 GMT-0500 (Central Daylight Time),260294.39999997616,007_m_m_n_a.png,O,m,1739,10,1,2769.7999999523163,257524.60000002384,7177,VNB,B,9
6,test,2,1.0,1-Back,0,m,Wed Jul 30 2025 13:54:55 GMT-0500 (Central Daylight Time),263343.6999999285,011_m_f_h_a.png,O,None,2015,11,1,3032.0999999046326,260311.60000002384,7177,VNB,B,10
7,test,2,0.0,1-Back,1,z,Wed Jul 30 2025 13:54:55 GMT-0500 (Central Daylight Time),265825.7999999523,004_o_m_h_a.png,O,z,1419,12,1,2448.0,263377.7999999523,7177,VNB,B,11
8,test,2,0.0,1-Back,1,m,Wed Jul 30 2025 13:54:55 GMT-0500 (Central Daylight Time),267941.1999999285,016_y_m_d_a.png,O,m,1056,13,1,2082.399999976158,265858.7999999523,7177,VNB,B,12
9,test,2,0.0,1-Back,1,m,Wed Jul 30 2025 13:54:55 GMT-0500 (Central Daylight Time),270440.89999997616,005_o_f_n_a.png,O,m,1470,14,1,2489.2000000476837,267951.6999999285,7177,VNB,B,13
10,test,2,0.0,1-Back,1,z,Wed Jul 30 2025 13:54:55 GMT-0500 (Central Daylight Time),272757.0,020_y_f_n_a.png,O,z,1266,15,1,2296.399999976158,270460.60000002384,7177,VNB,B,14
11,test,2,1.0,1-Back,1,m,Wed Jul 30 2025 13:54:55 GMT-0500 (Central Daylight Time),274873.0,007_m_m_h_a.png,O,m,1079,16,1,2090.8000000715256,272782.1999999285,7177,VNB,B,15
12,test,2,0.0,1-Back,1,m,Wed Jul 30 2025 13:54:55 GMT-0500 (Central Daylight Time),277388.39999997616,005_o_f_d_a.png,O,m,1474,17,1,2485.7000000476837,274902.6999999285,7177,VNB,B,16
13,test,2,1.0,1-Back,1,z,Wed Jul 30 2025 13:54:55 GMT-0500 (Central Daylight Time),279754.60000002384,004_o_m_d_a.png,O,z,1302,18,1,2333.100000023842,277421.5,7177,VNB,B,17
0,test,3,1.0,1-Back,,,Wed Jul 30 2025 13:54:55 GMT-0500 (Central Daylight Time),279754.60000002384,005_o_f_h_a.png,O,space,1464,1,1,2333.100000023842,277421.5,7177,VNB,B,0
1,test,3,0.0,1-Back,1,m,Wed Jul 30 2025 13:54:55 GMT-0500 (Central Daylight Time),286035.7999999523,011_m_f_d_a.png,O,m,1567,2,1,2598.5,283437.2999999523,7177,VNB,B,1
2,test,3,1.0,1-Back,1,m,Wed Jul 30 2025 13:54:55 GMT-0500 (Central Daylight Time),288584.89999997616,007_m_m_n_a.png,O,m,1496,3,1,2516.5,286068.39999997616,7177,VNB,B,2
3,test,3,0.0,1-Back,1,z,Wed Jul 30 2025 13:54:55 GMT-0500 (Central Daylight Time),290667.7999999523,005_o_f_n_a.png,O,z,1042,4,1,2059.1999999284744,288608.60000002384,7177,VNB,B,3
4,test,3,1.0,1-Back,1,m,Wed Jul 30 2025 13:54:55 GMT-0500 (Central Daylight Time),292683.7999999523,004_o_m_d_a.png,O,m,966,5,1,1987.6000000238419,290696.1999999285,7177,VNB,B,4
5,test,3,0.0,1-Back,1,m,Wed Jul 30 2025 13:54:55 GMT-0500 (Central Daylight Time),295216.2999999523,020_y_f_h_a.png,O,m,1496,6,1,2507.0,292709.2999999523,7177,VNB,B,5
6,test,3,0.0,1-Back,1,z,Wed Jul 30 2025 13:54:55 GMT-0500 (Central Daylight Time),297448.60000002384,016_y_m_h_a.png,O,z,1187,7,1,2208.3000000715256,295240.2999999523,7177,VNB,B,6
7,test,3,0.0,1-Back,1,m,Wed Jul 30 2025 13:54:55 GMT-0500 (Central Daylight Time),299431.60000002384,011_m_f_n_a.png,O,m,929,8,1,1952.3000000715256,297479.2999999523,7177,VNB,B,7
8,test,3,0.0,1-Back,1,m,Wed Jul 30 2025 13:54:55 GMT-0500 (Central Daylight Time),301780.7999999523,020_y_f_d_a.png,O,m,1300,9,1,2319.0,299461.7999999523,7177,VNB,B,8
9,test,3,1.0,1-Back,1,m,Wed Jul 30 2025 13:54:55 GMT-0500 (Central Daylight Time),304196.6999999285,004_o_m_n_a.png,O,m,1374,10,1,2390.5,301806.1999999285,7177,VNB,B,9
10,test,3,0.0,1-Back,1,m,Wed Jul 30 2025 13:54:55 GMT-0500 (Central Daylight Time),306529.10000002384,007_m_m_h_a.png,O,m,1295,11,1,2302.0,304227.10000002384,7177,VNB,B,10
11,test,3,0.0,1-Back,1,z,Wed Jul 30 2025 13:54:55 GMT-0500 (Central Daylight Time),308661.7999999523,011_m_f_h_a.png,O,z,1074,12,1,2092.2999999523163,306569.5,7177,VNB,B,11
12,test,3,1.0,1-Back,1,m,Wed Jul 30 2025 13:54:55 GMT-0500 (Central Daylight Time),310877.7999999523,005_o_f_d_a.png,O,m,1157,13,1,2185.399999976158,308692.39999997616,7177,VNB,B,12
13,test,3,0.0,1-Back,1,z,Wed Jul 30 2025 13:54:55 GMT-0500 (Central Daylight Time),313376.89999997616,007_m_m_d_a.png,O,z,1453,14,1,2473.7999999523163,310903.10000002384,7177,VNB,B,13
14,test,3,0.0,1-Back,1,m,Wed Jul 30 2025 13:54:55 GMT-0500 (Central Daylight Time),315592.89999997616,016_y_m_n_a.png,O,m,1137,15,1,2155.899999976158,313437.0,7177,VNB,B,14
15,test,3,1.0,1-Back,1,m,Wed Jul 30 2025 13:54:55 GMT-0500 (Central Daylight Time),317941.7999999523,004_o_m_h_a.png,O,m,1314,16,1,2322.600000023842,315619.1999999285,7177,VNB,B,15
16,test,3,0.0,1-Back,1,m,Wed Jul 30 2025 13:54:55 GMT-0500 (Central Daylight Time),320224.6999999285,016_y_m_d_a.png,O,m,1237,17,1,2253.399999976158,317971.2999999523,7177,VNB,B,16
17,test,3,1.0,1-Back,1,m,Wed Jul 30 2025 13:54:55 GMT-0500 (Central Daylight Time),322740.2999999523,020_y_f_n_a.png,O,m,1474,18,1,2486.399999976158,320253.89999997616,7177,VNB,B,17
0,test,4,1.0,1-Back,,,Wed Jul 30 2025 13:54:55 GMT-0500 (Central Daylight Time),322740.2999999523,007_m_m_d_a.png,O,space,1199,1,1,2486.399999976158,320253.89999997616,7177,VNB,B,0
1,test,4,0.0,1-Back,1,z,Wed Jul 30 2025 13:54:55 GMT-0500 (Central Daylight Time),328571.0,004_o_m_d_a.png,O,z,1417,2,1,2441.899999976158,326129.10000002384,7177,VNB,B,1
2,test,4,0.0,1-Back,1,m,Wed Jul 30 2025 13:54:55 GMT-0500 (Central Daylight Time),330271.39999997616,016_y_m_h_a.png,O,m,677,3,1,1692.7000000476837,328578.6999999285,7177,VNB,B,2
2,test,4,0.0,1-Back,0,m,Wed Jul 30 2025 13:54:55 GMT-0500 (Central Daylight Time),332337.5,011_m_f_n_a.png,O,z,1005,4,1,2034.3000000715256,330303.1999999285,7177,VNB,B,3
2,test,4,1.0,1-Back,0,m,Wed Jul 30 2025 13:54:55 GMT-0500 (Central Daylight Time),334868.89999997616,005_o_f_h_a.png,O,z,1473,5,1,2494.7999999523163,332374.10000002384,7177,VNB,B,4
3,test,4,0.0,1-Back,1,m,Wed Jul 30 2025 13:54:55 GMT-0500 (Central Daylight Time),336868.2999999523,007_m_m_n_a.png,O,m,976,6,1,1994.1000000238419,334874.1999999285,7177,VNB,B,5
4,test,4,0.0,1-Back,1,m,Wed Jul 30 2025 13:54:55 GMT-0500 (Central Daylight Time),339167.60000002384,016_y_m_d_a.png,O,m,1271,7,1,2292.100000023842,336875.5,7177,VNB,B,6
4,test,4,1.0,1-Back,0,z,Wed Jul 30 2025 13:54:55 GMT-0500 (Central Daylight Time),341217.39999997616,020_y_f_d_a.png,O,m,1031,8,1,2040.7999999523163,339176.60000002384,7177,VNB,B,7
5,test,4,0.0,1-Back,1,m,Wed Jul 30 2025 13:54:55 GMT-0500 (Central Daylight Time),343700.39999997616,011_m_f_h_a.png,O,m,1441,9,1,2456.100000023842,341244.2999999523,7177,VNB,B,8
5,test,4,0.0,1-Back,0,z,Wed Jul 30 2025 13:54:55 GMT-0500 (Central Daylight Time),345916.1999999285,004_o_m_h_a.png,O,m,1168,10,1,2188.899999976158,343727.2999999523,7177,VNB,B,9
6,test,4,1.0,1-Back,1,m,Wed Jul 30 2025 13:54:55 GMT-0500 (Central Daylight Time),348182.1999999285,005_o_f_n_a.png,O,m,1224,11,1,2236.5999999046326,345945.60000002384,7177,VNB,B,10
6,test,4,0.0,1-Back,0,m,Wed Jul 30 2025 13:54:55 GMT-0500 (Central Daylight Time),350814.39999997616,011_m_f_d_a.png,O,z,1597,12,1,2610.2999999523163,348204.10000002384,7177,VNB,B,11
7,test,4,0.0,1-Back,1,m,Wed Jul 30 2025 13:54:55 GMT-0500 (Central Daylight Time),353238.5,020_y_f_n_a.png,O,m,1386,13,1,2400.399999976158,350838.10000002384,7177,VNB,B,12
8,test,4,0.0,1-Back,1,m,Wed Jul 30 2025 13:54:55 GMT-0500 (Central Daylight Time),355996.39999997616,005_o_f_d_a.png,O,m,1709,14,1,2733.399999976158,353263.0,7177,VNB,B,13
8,test,4,0.0,1-Back,0,m,Wed Jul 30 2025 13:54:55 GMT-0500 (Central Daylight Time),358578.6999999285,020_y_f_h_a.png,O,z,1534,15,1,2555.0,356023.6999999285,7177,VNB,B,14
9,test,4,1.0,1-Back,1,z,Wed Jul 30 2025 13:54:55 GMT-0500 (Central Daylight Time),361094.60000002384,007_m_m_h_a.png,O,z,1456,16,1,2483.7000000476837,358610.89999997616,7177,VNB,B,15
10,test,4,0.0,1-Back,1,m,Wed Jul 30 2025 13:54:55 GMT-0500 (Central Daylight Time),363710.2999999523,004_o_m_n_a.png,O,m,1573,17,1,2586.100000023842,361124.1999999285,7177,VNB,B,16
11,test,4,1.0,1-Back,1,z,Wed Jul 30 2025 13:54:55 GMT-0500 (Central Daylight Time),366659.60000002384,016_y_m_n_a.png,O,z,1893,18,1,2912.4000000953674,363747.1999999285,7177,VNB,B,17
0,test,5,1.0,1-Back,,,Wed Jul 30 2025 13:54:55 GMT-0500 (Central Daylight Time),366659.60000002384,004_o_m_n_a.png,O,space,956,1,1,2912.4000000953674,363747.1999999285,7177,VNB,B,0
0,test,5,1.0,1-Back,0,m,Wed Jul 30 2025 13:54:55 GMT-0500 (Central Daylight Time),372807.6999999285,005_o_f_h_a.png,O,None,2015,2,1,3021.0,369786.6999999285,7177,VNB,B,1
1,test,5,0.0,1-Back,1,m,Wed Jul 30 2025 13:54:55 GMT-0500 (Central Daylight Time),375023.5,016_y_m_d_a.png,O,m,1156,3,1,2181.2000000476837,372842.2999999523,7177,VNB,B,2
2,test,5,0.0,1-Back,1,z,Wed Jul 30 2025 13:54:55 GMT-0500 (Central Daylight Time),377189.5,004_o_m_d_a.png,O,z,1116,4,1,2134.899999976158,375054.60000002384,7177,VNB,B,3
3,test,5,0.0,1-Back,1,m,Wed Jul 30 2025 13:54:55 GMT-0500 (Central Daylight Time),379855.0,011_m_f_h_a.png,O,m,1605,5,1,2635.5,377219.5,7177,VNB,B,4
3,test,5,0.0,1-Back,0,m,Wed Jul 30 2025 13:54:55 GMT-0500 (Central Daylight Time),381970.1999999285,020_y_f_n_a.png,O,z,1066,6,1,2085.5,379884.6999999285,7177,VNB,B,5
4,test,5,1.0,1-Back,1,z,Wed Jul 30 2025 13:54:55 GMT-0500 (Central Daylight Time),384287.10000002384,005_o_f_n_a.png,O,z,1290,7,1,2312.100000023842,381975.0,7177,VNB,B,6
5,test,5,0.0,1-Back,1,m,Wed Jul 30 2025 13:54:55 GMT-0500 (Central Daylight Time),386869.2999999523,011_m_f_d_a.png,O,m,1524,8,1,2551.7999999523163,384317.5,7177,VNB,B,7
6,test,5,0.0,1-Back,1,m,Wed Jul 30 2025 13:54:55 GMT-0500 (Central Daylight Time),389068.7999999523,016_y_m_h_a.png,O,m,1158,9,1,2174.0,386894.7999999523,7177,VNB,B,8
7,test,5,0.0,1-Back,1,m,Wed Jul 30 2025 13:54:55 GMT-0500 (Central Daylight Time),391218.10000002384,020_y_f_d_a.png,O,m,1086,10,1,2114.9000000953674,389103.1999999285,7177,VNB,B,9
8,test,5,0.0,1-Back,1,m,Wed Jul 30 2025 13:54:55 GMT-0500 (Central Daylight Time),393400.6999999285,007_m_m_n_a.png,O,m,1120,11,1,2147.5999999046326,391253.10000002384,7177,VNB,B,10
9,test,5,1.0,1-Back,1,z,Wed Jul 30 2025 13:54:55 GMT-0500 (Central Daylight Time),395583.1999999285,011_m_f_n_a.png,O,z,1134,12,1,2156.399999976158,393426.7999999523,7177,VNB,B,11
10,test,5,0.0,1-Back,1,m,Wed Jul 30 2025 13:54:55 GMT-0500 (Central Daylight Time),398182.5,004_o_m_h_a.png,O,m,1556,13,1,2569.2000000476837,395613.2999999523,7177,VNB,B,12
10,test,5,0.0,1-Back,0,z,Wed Jul 30 2025 13:54:55 GMT-0500 (Central Daylight Time),401248.0,007_m_m_h_a.png,O,None,2015,14,1,3031.399999976158,398216.60000002384,7177,VNB,B,13
11,test,5,1.0,1-Back,1,m,Wed Jul 30 2025 13:54:55 GMT-0500 (Central Daylight Time),403297.60000002384,005_o_f_d_a.png,O,m,1019,15,1,2036.5,401261.10000002384,7177,VNB,B,14
12,test,5,0.0,1-Back,1,m,Wed Jul 30 2025 13:54:55 GMT-0500 (Central Daylight Time),406079.89999997616,016_y_m_n_a.png,O,m,1722,16,1,2747.2999999523163,403332.60000002384,7177,VNB,B,15
13,test,5,0.0,1-Back,1,m,Wed Jul 30 2025 13:54:55 GMT-0500 (Central Daylight Time),408845.60000002384,020_y_f_h_a.png,O,m,1716,17,1,2737.3000000715256,406108.2999999523,7177,VNB,B,16
14,test,5,0.0,1-Back,1,m,Wed Jul 30 2025 13:54:55 GMT-0500 (Central Daylight Time),411644.7999999523,007_m_m_d_a.png,O,m,1742,18,1,2769.1999999284744,408875.60000002384,7177,VNB,B,17
0,prac,1,0.0,2-Back,,,Wed Jul 30 2025 13:54:55 GMT-0500 (Central Daylight Time),411644.7999999523,011_m_f_n_a.png,O,space,9882,1,1,2769.1999999284744,408875.60000002384,7177,VNB,B,0
0,prac,1,0.0,2-Back,,,Wed Jul 30 2025 13:54:55 GMT-0500 (Central Daylight Time),411644.7999999523,005_o_f_h_a.png,O,space,9882,2,1,2769.1999999284744,408875.60000002384,7177,VNB,B,0
1,prac,1,0.0,2-Back,1,m,Wed Jul 30 2025 13:54:55 GMT-0500 (Central Daylight Time),518843.39999997616,004_o_m_d_a.png,O,m,997,3,1,1905.3999999761581,516938.0,7177,VNB,B,1
2,prac,1,1.0,2-Back,1,z,Wed Jul 30 2025 13:54:55 GMT-0500 (Central Daylight Time),521096.60000002384,007_m_m_h_a.png,O,z,1241,4,1,2215.8000000715256,518880.7999999523,7177,VNB,B,2
3,prac,1,0.0,2-Back,1,m,Wed Jul 30 2025 13:54:55 GMT-0500 (Central Daylight Time),523924.1999999285,020_y_f_n_a.png,O,m,1874,5,1,2792.7999999523163,521131.39999997616,7177,VNB,B,3
4,prac,1,1.0,2-Back,1,z,Wed Jul 30 2025 13:54:55 GMT-0500 (Central Daylight Time),526374.0,004_o_m_h_a.png,O,z,1504,6,1,2406.5,523967.5,7177,VNB,B,4
4,prac,1,1.0,2-Back,0,z,Wed Jul 30 2025 13:54:55 GMT-0500 (Central Daylight Time),528406.6000000238,016_y_m_n_a.png,O,m,1028,7,1,1971.3000000715256,526435.2999999523,7177,VNB,B,5
4,prac,1,0.0,2-Back,0,m,Wed Jul 30 2025 13:54:55 GMT-0500 (Central Daylight Time),531388.1999999285,011_m_f_d_a.png,O,None,2014,8,1,2938.0,528450.1999999285,7177,VNB,B,6
4,prac,1,0.0,2-Back,0,m,Wed Jul 30 2025 13:54:55 GMT-0500 (Central Daylight Time),533921.5,005_o_f_d_a.png,O,z,1575,9,1,2511.600000023842,531409.8999999762,7177,VNB,B,7
5,prac,1,0.0,2-Back,1,m,Wed Jul 30 2025 13:54:55 GMT-0500 (Central Daylight Time),536820.6999999285,007_m_m_h_a.png,O,m,1931,10,1,2855.2999999523163,533965.3999999762,7177,VNB,B,8
6,prac,1,1.0,2-Back,1,z,Wed Jul 30 2025 13:54:55 GMT-0500 (Central Daylight Time),539736.1999999285,020_y_f_d_a.png,O,z,1958,11,1,2881.5999999046326,536854.6000000238,7177,VNB,B,9
6,prac,1,0.0,2-Back,0,m,Wed Jul 30 2025 13:54:55 GMT-0500 (Central Daylight Time),542552.1000000238,004_o_m_n_a.png,O,z,1863,12,1,2777.600000023842,539774.5,7177,VNB,B,10
0,prac,2,0.0,2-Back,,,Wed Jul 30 2025 13:54:55 GMT-0500 (Central Daylight Time),542552.1000000238,011_m_f_n_a.png,O,a,13420,1,1,2777.600000023842,539774.5,7177,VNB,B,0
0,prac,2,0.0,2-Back,,,Wed Jul 30 2025 13:54:55 GMT-0500 (Central Daylight Time),542552.1000000238,005_o_f_h_a.png,O,a,13420,2,1,2777.600000023842,539774.5,7177,VNB,B,0
1,prac,2,0.0,2-Back,1,m,Wed Jul 30 2025 13:54:55 GMT-0500 (Central Daylight Time),563778.2999999523,004_o_m_d_a.png,O,m,1439,3,1,2346.2999999523163,561432.0,7177,VNB,B,1
2,prac,2,1.0,2-Back,1,z,Wed Jul 30 2025 13:54:55 GMT-0500 (Central Daylight Time),566161.0,007_m_m_h_a.png,O,z,1419,4,1,2352.8000000715256,563808.1999999285,7177,VNB,B,2
2,prac,2,0.0,2-Back,0,m,Wed Jul 30 2025 13:54:55 GMT-0500 (Central Daylight Time),568843.1999999285,020_y_f_n_a.png,O,z,1736,5,1,2645.1999999284744,566198.0,7177,VNB,B,3
3,prac,2,1.0,2-Back,1,z,Wed Jul 30 2025 13:54:55 GMT-0500 (Central Daylight Time),571225.8999999762,004_o_m_h_a.png,O,z,1450,6,1,2350.7000000476837,568875.1999999285,7177,VNB,B,4
4,prac,2,1.0,2-Back,1,z,Wed Jul 30 2025 13:54:55 GMT-0500 (Central Daylight Time),573491.7999999523,016_y_m_n_a.png,O,z,1290,7,1,2224.2999999523163,571267.5,7177,VNB,B,5
5,prac,2,0.0,2-Back,1,m,Wed Jul 30 2025 13:54:55 GMT-0500 (Central Daylight Time),575824.5,011_m_f_d_a.png,O,m,1369,8,1,2301.8000000715256,573522.6999999285,7177,VNB,B,6
5,prac,2,0.0,2-Back,0,m,Wed Jul 30 2025 13:54:55 GMT-0500 (Central Daylight Time),578789.1000000238,005_o_f_d_a.png,O,None,2011,9,1,2927.5,575861.6000000238,7177,VNB,B,7
6,prac,2,0.0,2-Back,1,m,Wed Jul 30 2025 13:54:55 GMT-0500 (Central Daylight Time),581088.2999999523,007_m_m_h_a.png,O,m,1345,10,1,2282.899999976158,578805.3999999762,7177,VNB,B,8
6,prac,2,1.0,2-Back,0,z,Wed Jul 30 2025 13:54:55 GMT-0500 (Central Daylight Time),583472.0,020_y_f_d_a.png,O,m,1461,11,1,2371.7000000476837,581100.2999999523,7177,VNB,B,9
6,prac,2,0.0,2-Back,0,m,Wed Jul 30 2025 13:54:55 GMT-0500 (Central Daylight Time),585787.8999999762,004_o_m_n_a.png,O,z,1397,12,1,2279.100000023842,583508.7999999523,7177,VNB,B,10
0,test,1,0.0,2-Back,,,Wed Jul 30 2025 13:54:55 GMT-0500 (Central Daylight Time),585787.8999999762,016_y_m_h_a.png,O,space,10375,1,1,2279.100000023842,583508.7999999523,7177,VNB,B,0
0,test,1,0.0,2-Back,,,Wed Jul 30 2025 13:54:55 GMT-0500 (Central Daylight Time),585787.8999999762,005_o_f_n_a.png,O,space,10375,2,1,2279.100000023842,583508.7999999523,7177,VNB,B,0
1,test,1,0.0,2-Back,1,z,Wed Jul 30 2025 13:54:55 GMT-0500 (Central Daylight Time),610380.1000000238,004_o_m_h_a.png,O,z,1625,3,1,2644.600000023842,607735.5,7177,VNB,B,1
2,test,1,0.0,2-Back,1,m,Wed Jul 30 2025 13:54:55 GMT-0500 (Central Daylight Time),613112.1999999285,011_m_f_d_a.png,O,m,1663,4,1,2714.7999999523163,610397.3999999762,7177,VNB,B,2
3,test,1,1.0,2-Back,1,m,Wed Jul 30 2025 13:54:55 GMT-0500 (Central Daylight Time),615628.1999999285,016_y_m_n_a.png,O,m,1469,5,1,2489.399999976158,613138.7999999523,7177,VNB,B,3
3,test,1,0.0,2-Back,0,z,Wed Jul 30 2025 13:54:55 GMT-0500 (Central Daylight Time),618077.0,020_y_f_d_a.png,O,m,1384,6,1,2418.600000023842,615658.3999999762,7177,VNB,B,4
3,test,1,0.0,2-Back,0,m,Wed Jul 30 2025 13:54:55 GMT-0500 (Central Daylight Time),621009.6000000238,007_m_m_h_a.png,O,z,1878,7,1,2899.3000000715256,618110.2999999523,7177,VNB,B,5
3,test,1,1.0,2-Back,0,m,Wed Jul 30 2025 13:54:55 GMT-0500 (Central Daylight Time),623758.3999999762,020_y_f_n_a.png,O,z,1696,8,1,2716.899999976158,621041.5,7177,VNB,B,6
4,test,1,0.0,2-Back,1,z,Wed Jul 30 2025 13:54:55 GMT-0500 (Central Daylight Time),626074.1999999285,005_o_f_h_a.png,O,z,1270,9,1,2288.0999999046326,623786.1000000238,7177,VNB,B,7
5,test,1,0.0,2-Back,1,m,Wed Jul 30 2025 13:54:55 GMT-0500 (Central Daylight Time),628389.7999999523,004_o_m_d_a.png,O,m,1281,10,1,2286.5,626103.2999999523,7177,VNB,B,8
6,test,1,1.0,2-Back,1,m,Wed Jul 30 2025 13:54:55 GMT-0500 (Central Daylight Time),630722.8999999762,007_m_m_d_a.png,O,m,1286,11,1,2303.0,628419.8999999762,7177,VNB,B,9
7,test,1,0.0,2-Back,1,m,Wed Jul 30 2025 13:54:55 GMT-0500 (Central Daylight Time),632905.3999999762,011_m_f_n_a.png,O,m,1144,12,1,2153.2999999523163,630752.1000000238,7177,VNB,B,10
8,test,1,0.0,2-Back,1,m,Wed Jul 30 2025 13:54:55 GMT-0500 (Central Daylight Time),635921.3999999762,020_y_f_h_a.png,O,m,1970,13,1,2986.399999976158,632935.0,7177,VNB,B,11
8,test,1,0.0,2-Back,0,z,Wed Jul 30 2025 13:54:55 GMT-0500 (Central Daylight Time),638154.0,007_m_m_n_a.png,O,m,1169,14,1,2203.2000000476837,635950.7999999523,7177,VNB,B,12
8,test,1,0.0,2-Back,0,m,Wed Jul 30 2025 13:54:55 GMT-0500 (Central Daylight Time),640386.2999999523,016_y_m_d_a.png,O,z,1178,15,1,2196.2999999523163,638190.0,7177,VNB,B,13
8,test,1,1.0,2-Back,0,m,Wed Jul 30 2025 13:54:55 GMT-0500 (Central Daylight Time),642870.1999999285,011_m_f_h_a.png,O,z,1441,16,1,2460.5,640409.6999999285,7177,VNB,B,14
9,test,1,0.0,2-Back,1,z,Wed Jul 30 2025 13:54:55 GMT-0500 (Central Daylight Time),645250.6999999285,005_o_f_d_a.png,O,z,1321,17,1,2356.1999999284744,642894.5,7177,VNB,B,15
10,test,1,0.0,2-Back,1,m,Wed Jul 30 2025 13:54:55 GMT-0500 (Central Daylight Time),647317.6000000238,004_o_m_n_a.png,O,m,1041,18,1,2061.2000000476837,645256.3999999762,7177,VNB,B,16
0,test,2,0.0,2-Back,,,Wed Jul 30 2025 13:54:55 GMT-0500 (Central Daylight Time),647317.6000000238,007_m_m_h_a.png,O,space,1230,1,1,2061.2000000476837,645256.3999999762,7177,VNB,B,0
0,test,2,0.0,2-Back,,,Wed Jul 30 2025 13:54:55 GMT-0500 (Central Daylight Time),647317.6000000238,020_y_f_n_a.png,O,space,1230,2,1,2061.2000000476837,645256.3999999762,7177,VNB,B,0
1,test,2,1.0,2-Back,1,z,Wed Jul 30 2025 13:54:55 GMT-0500 (Central Daylight Time),655748.1000000238,005_o_f_h_a.png,O,z,725,3,1,1734.3000000715256,654013.7999999523,7177,VNB,B,1
2,test,2,0.0,2-Back,1,m,Wed Jul 30 2025 13:54:55 GMT-0500 (Central Daylight Time),657647.5,004_o_m_d_a.png,O,m,839,4,1,1865.1000000238419,655782.3999999762,7177,VNB,B,2
3,test,2,0.0,2-Back,1,m,Wed Jul 30 2025 13:54:55 GMT-0500 (Central Daylight Time),659662.5,011_m_f_d_a.png,O,m,979,5,1,1991.0,657671.5,7177,VNB,B,3
4,test,2,0.0,2-Back,1,m,Wed Jul 30 2025 13:54:55 GMT-0500 (Central Daylight Time),661712.7999999523,016_y_m_h_a.png,O,m,1020,6,1,2045.1999999284744,659667.6000000238,7177,VNB,B,4
5,test,2,0.0,2-Back,1,m,Wed Jul 30 2025 13:54:55 GMT-0500 (Central Daylight Time),663862.1999999285,005_o_f_n_a.png,O,m,1107,7,1,2127.0,661735.1999999285,7177,VNB,B,5
6,test,2,1.0,2-Back,1,z,Wed Jul 30 2025 13:54:55 GMT-0500 (Central Daylight Time),666476.8999999762,004_o_m_h_a.png,O,z,1572,8,1,2585.7000000476837,663891.1999999285,7177,VNB,B,6
7,test,2,0.0,2-Back,1,m,Wed Jul 30 2025 13:54:55 GMT-0500 (Central Daylight Time),668593.6999999285,020_y_f_d_a.png,O,m,1084,9,1,2110.7999999523163,666482.8999999762,7177,VNB,B,7
8,test,2,0.0,2-Back,1,m,Wed Jul 30 2025 13:54:55 GMT-0500 (Central Daylight Time),670643.2999999523,016_y_m_d_a.png,O,m,994,10,1,2019.0,668624.2999999523,7177,VNB,B,8
9,test,2,0.0,2-Back,1,m,Wed Jul 30 2025 13:54:55 GMT-0500 (Central Daylight Time),672642.2999999523,007_m_m_n_a.png,O,m,945,11,1,1967.8999999761581,670674.3999999762,7177,VNB,B,9
10,test,2,0.0,2-Back,1,m,Wed Jul 30 2025 13:54:55 GMT-0500 (Central Daylight Time),674775.0,011_m_f_h_a.png,O,m,1080,12,1,2096.899999976158,672678.1000000238,7177,VNB,B,10
11,test,2,1.0,2-Back,1,z,Wed Jul 30 2025 13:54:55 GMT-0500 (Central Daylight Time),676941.1999999285,004_o_m_n_a.png,O,z,1124,13,1,2145.6999999284744,674795.5,7177,VNB,B,11
12,test,2,0.0,2-Back,1,m,Wed Jul 30 2025 13:54:55 GMT-0500 (Central Daylight Time),679390.2999999523,005_o_f_d_a.png,O,m,1415,14,1,2419.0,676971.2999999523,7177,VNB,B,12
12,test,2,0.0,2-Back,0,m,Wed Jul 30 2025 13:54:55 GMT-0500 (Central Daylight Time),681805.6999999285,020_y_f_h_a.png,O,z,1365,15,1,2378.0999999046326,679427.6000000238,7177,VNB,B,13
13,test,2,0.0,2-Back,1,z,Wed Jul 30 2025 13:54:55 GMT-0500 (Central Daylight Time),684105.2999999523,007_m_m_d_a.png,O,z,1262,16,1,2270.5,681834.7999999523,7177,VNB,B,14
14,test,2,0.0,2-Back,1,m,Wed Jul 30 2025 13:54:55 GMT-0500 (Central Daylight Time),686354.7999999523,016_y_m_n_a.png,O,m,1201,17,1,2221.6999999284744,684133.1000000238,7177,VNB,B,15
15,test,2,1.0,2-Back,1,m,Wed Jul 30 2025 13:54:55 GMT-0500 (Central Daylight Time),688637.7999999523,011_m_f_n_a.png,O,m,1249,18,1,2256.5,686381.2999999523,7177,VNB,B,16
0,test,3,1.0,2-Back,,,Wed Jul 30 2025 13:54:55 GMT-0500 (Central Daylight Time),688637.7999999523,004_o_m_n_a.png,O,space,941,1,1,2256.5,686381.2999999523,7177,VNB,B,0
0,test,3,1.0,2-Back,,,Wed Jul 30 2025 13:54:55 GMT-0500 (Central Daylight Time),688637.7999999523,005_o_f_d_a.png,O,space,941,2,1,2256.5,686381.2999999523,7177,VNB,B,0
1,test,3,0.0,2-Back,1,m,Wed Jul 30 2025 13:54:55 GMT-0500 (Central Daylight Time),697267.6999999285,020_y_f_h_a.png,O,m,1268,3,1,2287.0999999046326,694980.6000000238,7177,VNB,B,1
2,test,3,0.0,2-Back,1,z,Wed Jul 30 2025 13:54:55 GMT-0500 (Central Daylight Time),699850.2999999523,011_m_f_d_a.png,O,z,1537,4,1,2557.2999999523163,697293.0,7177,VNB,B,2
3,test,3,1.0,2-Back,1,m,Wed Jul 30 2025 13:54:55 GMT-0500 (Central Daylight Time),702316.0,016_y_m_n_a.png,O,m,1418,5,1,2437.2000000476837,699878.7999999523,7177,VNB,B,3
3,test,3,0.0,2-Back,0,m,Wed Jul 30 2025 13:54:55 GMT-0500 (Central Daylight Time),704615.3999999762,004_o_m_h_a.png,O,z,1263,6,1,2274.899999976158,702340.5,7177,VNB,B,4
4,test,3,0.0,2-Back,1,z,Wed Jul 30 2025 13:54:55 GMT-0500 (Central Daylight Time),706864.6999999285,020_y_f_n_a.png,O,z,1196,7,1,2214.5999999046326,704650.1000000238,7177,VNB,B,5
5,test,3,1.0,2-Back,1,m,Wed Jul 30 2025 13:54:55 GMT-0500 (Central Daylight Time),709146.6999999285,007_m_m_d_a.png,O,m,1225,8,1,2249.2999999523163,706897.3999999762,7177,VNB,B,6
6,test,3,0.0,2-Back,1,m,Wed Jul 30 2025 13:54:55 GMT-0500 (Central Daylight Time),711728.8999999762,016_y_m_d_a.png,O,m,1520,9,1,2552.100000023842,709176.7999999523,7177,VNB,B,7
7,test,3,0.0,2-Back,1,m,Wed Jul 30 2025 13:54:55 GMT-0500 (Central Daylight Time),714062.3999999762,005_o_f_h_a.png,O,m,1306,10,1,2323.2000000476837,711739.1999999285,7177,VNB,B,8
7,test,3,1.0,2-Back,0,m,Wed Jul 30 2025 13:54:55 GMT-0500 (Central Daylight Time),716428.1000000238,011_m_f_n_a.png,O,z,1317,11,1,2335.9000000953674,714092.1999999285,7177,VNB,B,9
8,test,3,1.0,2-Back,1,z,Wed Jul 30 2025 13:54:55 GMT-0500 (Central Daylight Time),719060.6999999285,007_m_m_h_a.png,O,z,1567,12,1,2600.899999976158,716459.7999999523,7177,VNB,B,10
9,test,3,0.0,2-Back,1,m,Wed Jul 30 2025 13:54:55 GMT-0500 (Central Daylight Time),721226.6999999285,020_y_f_d_a.png,O,m,1119,13,1,2143.0,719083.6999999285,7177,VNB,B,11
10,test,3,0.0,2-Back,1,m,Wed Jul 30 2025 13:54:55 GMT-0500 (Central Daylight Time),723258.7999999523,005_o_f_n_a.png,O,m,992,14,1,2008.3999999761581,721250.3999999762,7177,VNB,B,12
10,test,3,0.0,2-Back,0,z,Wed Jul 30 2025 13:54:55 GMT-0500 (Central Daylight Time),725991.1999999285,004_o_m_d_a.png,O,m,1687,15,1,2714.7999999523163,723276.3999999762,7177,VNB,B,13
11,test,3,1.0,2-Back,1,m,Wed Jul 30 2025 13:54:55 GMT-0500 (Central Daylight Time),728790.8999999762,011_m_f_h_a.png,O,m,1756,16,1,2780.5,726010.3999999762,7177,VNB,B,14
11,test,3,0.0,2-Back,0,m,Wed Jul 30 2025 13:54:55 GMT-0500 (Central Daylight Time),731173.8999999762,007_m_m_n_a.png,O,z,1333,17,1,2347.2999999523163,728826.6000000238,7177,VNB,B,15
12,test,3,0.0,2-Back,1,z,Wed Jul 30 2025 13:54:55 GMT-0500 (Central Daylight Time),733356.1000000238,016_y_m_h_a.png,O,z,1135,18,1,2156.100000023842,731200.0,7177,VNB,B,16
0,test,4,0.0,2-Back,,,Wed Jul 30 2025 13:54:55 GMT-0500 (Central Daylight Time),733356.1000000238,011_m_f_n_a.png,O,space,991,1,1,2156.100000023842,731200.0,7177,VNB,B,0
0,test,4,0.0,2-Back,,,Wed Jul 30 2025 13:54:55 GMT-0500 (Central Daylight Time),733356.1000000238,004_o_m_n_a.png,O,space,991,2,1,2156.100000023842,731200.0,7177,VNB,B,0
1,test,4,1.0,2-Back,1,m,Wed Jul 30 2025 13:54:55 GMT-0500 (Central Daylight Time),741903.1000000238,016_y_m_h_a.png,O,m,1138,3,1,2151.7000000476837,739751.3999999762,7177,VNB,B,1
2,test,4,1.0,2-Back,1,m,Wed Jul 30 2025 13:54:55 GMT-0500 (Central Daylight Time),744069.1999999285,005_o_f_d_a.png,O,m,1108,4,1,2136.5,741932.6999999285,7177,VNB,B,2
2,test,4,0.0,2-Back,0,z,Wed Jul 30 2025 13:54:55 GMT-0500 (Central Daylight Time),746734.6999999285,004_o_m_h_a.png,O,m,1614,5,1,2635.0,744099.6999999285,7177,VNB,B,3
2,test,4,0.0,2-Back,0,m,Wed Jul 30 2025 13:54:55 GMT-0500 (Central Daylight Time),749700.6999999285,007_m_m_n_a.png,O,z,1892,6,1,2931.6999999284744,746769.0,7177,VNB,B,4
2,test,4,0.0,2-Back,0,m,Wed Jul 30 2025 13:54:55 GMT-0500 (Central Daylight Time),752216.6000000238,011_m_f_d_a.png,O,z,1456,7,1,2481.100000023842,749735.5,7177,VNB,B,5
2,test,4,0.0,2-Back,0,z,Wed Jul 30 2025 13:54:55 GMT-0500 (Central Daylight Time),754598.0,020_y_f_n_a.png,O,m,1322,8,1,2337.3000000715256,752260.6999999285,7177,VNB,B,6
3,test,4,1.0,2-Back,1,m,Wed Jul 30 2025 13:54:55 GMT-0500 (Central Daylight Time),756914.1000000238,005_o_f_h_a.png,O,m,1293,9,1,2308.4000000953674,754605.6999999285,7177,VNB,B,7
4,test,4,0.0,2-Back,1,m,Wed Jul 30 2025 13:54:55 GMT-0500 (Central Daylight Time),759497.5,007_m_m_h_a.png,O,m,1554,10,1,2575.3000000715256,756922.1999999285,7177,VNB,B,8
5,test,4,0.0,2-Back,1,m,Wed Jul 30 2025 13:54:55 GMT-0500 (Central Daylight Time),762013.2999999523,020_y_f_d_a.png,O,m,1466,11,1,2491.0,759522.2999999523,7177,VNB,B,9
6,test,4,0.0,2-Back,1,m,Wed Jul 30 2025 13:54:55 GMT-0500 (Central Daylight Time),764828.1000000238,016_y_m_n_a.png,O,m,1782,12,1,2790.100000023842,762038.0,7177,VNB,B,10
6,test,4,0.0,2-Back,0,z,Wed Jul 30 2025 13:54:55 GMT-0500 (Central Daylight Time),767711.5,004_o_m_d_a.png,O,m,1855,13,1,2874.7000000476837,764836.7999999523,7177,VNB,B,11
7,test,4,1.0,2-Back,1,m,Wed Jul 30 2025 13:54:55 GMT-0500 (Central Daylight Time),770377.2999999523,011_m_f_h_a.png,O,m,1628,14,1,2636.899999976158,767740.3999999762,7177,VNB,B,12
8,test,4,1.0,2-Back,1,m,Wed Jul 30 2025 13:54:55 GMT-0500 (Central Daylight Time),772726.2999999523,020_y_f_h_a.png,O,m,1315,15,1,2324.399999976158,770401.8999999762,7177,VNB,B,13
8,test,4,0.0,2-Back,0,m,Wed Jul 30 2025 13:54:55 GMT-0500 (Central Daylight Time),775008.8999999762,005_o_f_n_a.png,O,z,1221,16,1,2249.600000023842,772759.2999999523,7177,VNB,B,14
9,test,4,0.0,2-Back,1,m,Wed Jul 30 2025 13:54:55 GMT-0500 (Central Daylight Time),777641.2999999523,016_y_m_d_a.png,O,m,1586,17,1,2606.7999999523163,775034.5,7177,VNB,B,15
10,test,4,1.0,2-Back,1,m,Wed Jul 30 2025 13:54:55 GMT-0500 (Central Daylight Time),779973.8999999762,007_m_m_d_a.png,O,m,1291,18,1,2303.0,777670.8999999762,7177,VNB,B,16
0,test,5,1.0,2-Back,,,Wed Jul 30 2025 13:54:55 GMT-0500 (Central Daylight Time),779973.8999999762,020_y_f_d_a.png,O,space,1052,1,1,2303.0,777670.8999999762,7177,VNB,B,0
0,test,5,1.0,2-Back,,,Wed Jul 30 2025 13:54:55 GMT-0500 (Central Daylight Time),779973.8999999762,005_o_f_h_a.png,O,space,1052,2,1,2303.0,777670.8999999762,7177,VNB,B,0
1,test,5,1.0,2-Back,1,z,Wed Jul 30 2025 13:54:55 GMT-0500 (Central Daylight Time),789087.6999999285,004_o_m_d_a.png,O,z,1622,3,1,2643.2999999523163,786444.3999999762,7177,VNB,B,1
2,test,5,1.0,2-Back,1,m,Wed Jul 30 2025 13:54:55 GMT-0500 (Central Daylight Time),791353.7999999523,011_m_f_n_a.png,O,m,1221,4,1,2237.6999999284744,789116.1000000238,7177,VNB,B,2
2,test,5,0.0,2-Back,0,m,Wed Jul 30 2025 13:54:55 GMT-0500 (Central Daylight Time),793702.3999999762,007_m_m_h_a.png,O,z,1298,5,1,2312.899999976158,791389.5,7177,VNB,B,3
2,test,5,0.0,2-Back,0,z,Wed Jul 30 2025 13:54:55 GMT-0500 (Central Daylight Time),796202.1000000238,020_y_f_n_a.png,O,m,1453,6,1,2482.600000023842,793719.5,7177,VNB,B,4
3,test,5,0.0,2-Back,1,m,Wed Jul 30 2025 13:54:55 GMT-0500 (Central Daylight Time),798234.7999999523,005_o_f_d_a.png,O,m,993,7,1,2009.3999999761581,796225.3999999762,7177,VNB,B,5
4,test,5,0.0,2-Back,1,m,Wed Jul 30 2025 13:54:55 GMT-0500 (Central Daylight Time),800150.5,004_o_m_h_a.png,O,m,883,8,1,1886.5,798264.0,7177,VNB,B,6
4,test,5,1.0,2-Back,0,z,Wed Jul 30 2025 13:54:55 GMT-0500 (Central Daylight Time),802366.3999999762,011_m_f_d_a.png,O,m,1164,9,1,2182.5,800183.8999999762,7177,VNB,B,7
5,test,5,0.0,2-Back,1,m,Wed Jul 30 2025 13:54:55 GMT-0500 (Central Daylight Time),804466.1000000238,016_y_m_n_a.png,O,m,1050,10,1,2073.7000000476837,802392.3999999762,7177,VNB,B,8
5,test,5,0.0,2-Back,0,m,Wed Jul 30 2025 13:54:55 GMT-0500 (Central Daylight Time),806981.6999999285,007_m_m_n_a.png,O,z,1457,11,1,2475.7999999523163,804505.8999999762,7177,VNB,B,9
6,test,5,0.0,2-Back,1,m,Wed Jul 30 2025 13:54:55 GMT-0500 (Central Daylight Time),809264.5,020_y_f_h_a.png,O,m,1238,12,1,2252.3000000715256,807012.1999999285,7177,VNB,B,10
7,test,5,0.0,2-Back,1,m,Wed Jul 30 2025 13:54:55 GMT-0500 (Central Daylight Time),811463.6999999285,016_y_m_d_a.png,O,m,1148,13,1,2164.2999999523163,809299.3999999762,7177,VNB,B,11
7,test,5,1.0,2-Back,0,z,Wed Jul 30 2025 13:54:55 GMT-0500 (Central Daylight Time),813679.3999999762,011_m_f_h_a.png,O,m,1180,14,1,2186.2999999523163,811493.1000000238,7177,VNB,B,12
8,test,5,0.0,2-Back,1,m,Wed Jul 30 2025 13:54:55 GMT-0500 (Central Daylight Time),815912.1000000238,004_o_m_n_a.png,O,m,1188,15,1,2202.8000000715256,813709.2999999523,7177,VNB,B,13
9,test,5,0.0,2-Back,1,m,Wed Jul 30 2025 13:54:55 GMT-0500 (Central Daylight Time),818294.1999999285,007_m_m_d_a.png,O,m,1348,16,1,2357.5,815936.6999999285,7177,VNB,B,14
9,test,5,0.0,2-Back,0,z,Wed Jul 30 2025 13:54:55 GMT-0500 (Central Daylight Time),821343.7999999523,005_o_f_n_a.png,O,None,2015,17,1,3032.6999999284744,818311.1000000238,7177,VNB,B,15
10,test,5,1.0,2-Back,1,m,Wed Jul 30 2025 13:54:55 GMT-0500 (Central Daylight Time),823809.6999999285,016_y_m_h_a.png,O,m,1405,18,1,2436.6999999284744,821373.0,7177,VNB,B,16
