acc_sum,block,block_c,block_cond,con_img,correct,correct_response,datetime,endtime,face,jitter,line,project,response,response_time,row_sel,session_number,start_end,starttime,subject_id,task,task_vers,trial
1,prac,1,A,haborder.png,1,m,Thu Oct 23 2025 18:20:33 GMT-0500 (Central Daylight Time),42598.09999990463,CFD-WF-017-016-HC.jpg,1500,solid,I,m,1135,11,3,3432.199999809265,39165.90000009537,8018,ATS,A,1
2,prac,1,A,haborder.png,1,m,Thu Oct 23 2025 18:20:33 GMT-0500 (Central Daylight Time),46246.90000009537,CFD-BM-017-052-HC.jpg,1700,solid,I,m,1150,1,3,7081.0,39165.90000009537,8018,ATS,A,2
3,prac,1,A,haborder.png,1,z,Thu Oct 23 2025 18:20:33 GMT-0500 (Central Daylight Time),50162.300000190735,CFD-WM-013-015-A.jpg,1900,solid,I,z,1222,8,3,10996.400000095367,39165.90000009537,8018,ATS,A,3
4,prac,1,A,haborder.png,1,z,Thu Oct 23 2025 18:20:33 GMT-0500 (Central Daylight Time),52728.2000002861,CFD-BF-023-013-A.jpg,1000,solid,I,z,774,4,3,13562.300000190735,39165.90000009537,8018,ATS,A,4
5,prac,1,A,haborder.png,1,z,Thu Oct 23 2025 18:20:33 GMT-0500 (Central Daylight Time),55644.0,CFD-BF-039-039-A.jpg,1200,solid,I,z,919,6,3,16478.099999904633,39165.90000009537,8018,ATS,A,5
6,prac,1,A,haborder.png,1,z,Thu Oct 23 2025 18:20:33 GMT-0500 (Central Daylight Time),58826.300000190735,CFD-WF-003-014-A.jpg,1600,solid,I,z,788,10,3,19660.400000095367,39165.90000009537,8018,ATS,A,6
7,prac,1,A,haborder.png,1,m,Thu Oct 23 2025 18:20:33 GMT-0500 (Central Daylight Time),62192.09999990463,CFD-BM-029-026-HC.jpg,1500,solid,I,m,1081,3,3,23026.199999809265,39165.90000009537,8018,ATS,A,7
8,prac,1,A,haborder.png,1,z,Thu Oct 23 2025 18:20:33 GMT-0500 (Central Daylight Time),65457.40000009537,CFD-BM-005-010-A.jpg,1600,solid,I,z,877,2,3,26291.5,39165.90000009537,8018,ATS,A,8
9,prac,1,A,haborder.png,1,m,Thu Oct 23 2025 18:20:33 GMT-0500 (Central Daylight Time),68890.09999990463,CFD-WM-006-013-HC.jpg,1700,solid,I,m,938,9,3,29724.199999809265,39165.90000009537,8018,ATS,A,9
10,prac,1,A,haborder.png,1,z,Thu Oct 23 2025 18:20:33 GMT-0500 (Central Daylight Time),71472.09999990463,CFD-WF-019-015-A.jpg,1000,solid,I,z,790,12,3,32306.199999809265,39165.90000009537,8018,ATS,A,10
11,prac,1,A,haborder.png,1,m,Thu Oct 23 2025 18:20:33 GMT-0500 (Central Daylight Time),74338.0,CFD-WM-004-005-HC.jpg,1400,solid,I,m,679,7,3,35172.09999990463,39165.90000009537,8018,ATS,A,11
12,prac,1,A,haborder.png,1,m,Thu Oct 23 2025 18:20:33 GMT-0500 (Central Daylight Time),77853.59999990463,CFD-BF-028-020-HC.jpg,2000,solid,I,m,718,5,3,38687.699999809265,39165.90000009537,8018,ATS,A,12
1,prac,1,B,mfborder.png,1,m,Thu Oct 23 2025 18:20:33 GMT-0500 (Central Daylight Time),104028.7000002861,CFD-WM-006-013-HC.jpg,1600,dash,I,m,1336,10,3,3732.0,100296.7000002861,8018,ATS,A,1
2,prac,1,B,mfborder.png,1,m,Thu Oct 23 2025 18:20:33 GMT-0500 (Central Daylight Time),107910.80000019073,CFD-BM-029-026-HC.jpg,1700,dash,I,m,1384,1,3,7614.099999904633,100296.7000002861,8018,ATS,A,2
3,prac,1,B,mfborder.png,1,m,Thu Oct 23 2025 18:20:33 GMT-0500 (Central Daylight Time),111143.09999990463,CFD-BM-010-019-A.jpg,1600,dash,I,m,833,2,3,10846.39999961853,100296.7000002861,8018,ATS,A,3
4,prac,1,B,mfborder.png,1,z,Thu Oct 23 2025 18:20:33 GMT-0500 (Central Daylight Time),114092.0,CFD-BF-028-020-HC.jpg,1400,dash,I,z,753,7,3,13795.299999713898,100296.7000002861,8018,ATS,A,4
4,prac,1,B,mfborder.png,0,m,Thu Oct 23 2025 18:20:33 GMT-0500 (Central Daylight Time),118390.80000019073,CFD-BM-005-010-A.jpg,2000,dash,I,None,1515,5,3,18094.099999904633,100296.7000002861,8018,ATS,A,5
5,prac,1,B,mfborder.png,1,z,Thu Oct 23 2025 18:20:33 GMT-0500 (Central Daylight Time),122422.90000009537,CFD-WF-002-008-HC.jpg,1900,dash,I,z,1342,8,3,22126.199999809265,100296.7000002861,8018,ATS,A,6
6,prac,1,B,mfborder.png,1,m,Thu Oct 23 2025 18:20:33 GMT-0500 (Central Daylight Time),125755.2000002861,CFD-WM-019-013-A.jpg,1200,dash,I,m,1346,6,3,25458.5,100296.7000002861,8018,ATS,A,7
7,prac,1,B,mfborder.png,1,z,Thu Oct 23 2025 18:20:33 GMT-0500 (Central Daylight Time),128654.5,CFD-WF-017-016-HC.jpg,1000,dash,I,z,1109,12,3,28357.799999713898,100296.7000002861,8018,ATS,A,8
8,prac,1,B,mfborder.png,1,z,Thu Oct 23 2025 18:20:33 GMT-0500 (Central Daylight Time),131436.90000009537,CFD-BF-023-013-A.jpg,1000,dash,I,z,994,4,3,31140.199999809265,100296.7000002861,8018,ATS,A,9
9,prac,1,B,mfborder.png,1,z,Thu Oct 23 2025 18:20:33 GMT-0500 (Central Daylight Time),134519.2000002861,CFD-BF-010-005-HC.jpg,1500,dash,I,z,799,3,3,34222.5,100296.7000002861,8018,ATS,A,10
10,prac,1,B,mfborder.png,1,z,Thu Oct 23 2025 18:20:33 GMT-0500 (Central Daylight Time),137834.7000002861,CFD-WF-003-014-A.jpg,1500,dash,I,z,1028,11,3,37538.0,100296.7000002861,8018,ATS,A,11
11,prac,1,B,mfborder.png,1,m,Thu Oct 23 2025 18:20:33 GMT-0500 (Central Daylight Time),141366.90000009537,CFD-WM-013-015-A.jpg,1700,dash,I,m,1034,9,3,41070.199999809265,100296.7000002861,8018,ATS,A,12
1,test,1,A,haborder.png,1,m,Thu Oct 23 2025 18:20:33 GMT-0500 (Central Daylight Time),160411.0,CFD-BM-017-052-HC.jpg,1700,solid,I,m,764,1,3,2482.2999997138977,157928.7000002861,8018,ATS,A,1
2,test,1,A,haborder.png,1,m,Thu Oct 23 2025 18:20:33 GMT-0500 (Central Daylight Time),163193.59999990463,CFD-BF-028-020-HC.jpg,2000,solid,I,m,756,5,3,5264.89999961853,157928.7000002861,8018,ATS,A,2
3,test,1,A,haborder.png,1,m,Thu Oct 23 2025 18:20:33 GMT-0500 (Central Daylight Time),165592.7000002861,CFD-WM-006-013-HC.jpg,1700,solid,I,m,667,9,3,7664.0,157928.7000002861,8018,ATS,A,3
4,test,1,A,haborder.png,1,z,Thu Oct 23 2025 18:20:33 GMT-0500 (Central Daylight Time),167908.80000019073,CFD-WF-003-014-A.jpg,1600,solid,I,z,695,10,3,9980.099999904633,157928.7000002861,8018,ATS,A,4
5,test,1,A,haborder.png,1,z,Thu Oct 23 2025 18:20:33 GMT-0500 (Central Daylight Time),170224.7000002861,CFD-BM-005-010-A.jpg,1600,solid,I,z,699,2,3,12296.0,157928.7000002861,8018,ATS,A,5
6,test,1,A,haborder.png,1,z,Thu Oct 23 2025 18:20:33 GMT-0500 (Central Daylight Time),173073.5,CFD-WM-013-015-A.jpg,1900,solid,I,z,924,8,3,15144.799999713898,157928.7000002861,8018,ATS,A,6
7,test,1,A,haborder.png,1,z,Thu Oct 23 2025 18:20:33 GMT-0500 (Central Daylight Time),174889.90000009537,CFD-WF-019-015-A.jpg,1000,solid,I,z,791,12,3,16961.199999809265,157928.7000002861,8018,ATS,A,7
8,test,1,A,haborder.png,1,m,Thu Oct 23 2025 18:20:33 GMT-0500 (Central Daylight Time),177189.30000019073,CFD-WF-017-016-HC.jpg,1500,solid,I,m,779,11,3,19260.599999904633,157928.7000002861,8018,ATS,A,8
9,test,1,A,haborder.png,1,m,Thu Oct 23 2025 18:20:33 GMT-0500 (Central Daylight Time),179471.59999990463,CFD-BM-029-026-HC.jpg,1500,solid,I,m,758,3,3,21542.89999961853,157928.7000002861,8018,ATS,A,9
10,test,1,A,haborder.png,1,m,Thu Oct 23 2025 18:20:33 GMT-0500 (Central Daylight Time),181937.7000002861,CFD-BM-017-052-HC.jpg,1700,solid,I,m,741,1,3,24009.0,157928.7000002861,8018,ATS,A,10
11,test,1,A,haborder.png,1,z,Thu Oct 23 2025 18:20:33 GMT-0500 (Central Daylight Time),184236.80000019073,CFD-BM-005-010-A.jpg,1600,solid,I,z,678,2,3,26308.099999904633,157928.7000002861,8018,ATS,A,11
12,test,1,A,haborder.png,1,m,Thu Oct 23 2025 18:20:33 GMT-0500 (Central Daylight Time),186502.90000009537,CFD-BM-029-026-HC.jpg,1500,solid,I,m,735,3,3,28574.199999809265,157928.7000002861,8018,ATS,A,12
13,test,1,A,haborder.png,1,z,Thu Oct 23 2025 18:20:33 GMT-0500 (Central Daylight Time),189368.7000002861,CFD-WM-013-015-A.jpg,1900,solid,I,z,934,8,3,31440.0,157928.7000002861,8018,ATS,A,13
14,test,1,A,haborder.png,1,m,Thu Oct 23 2025 18:20:33 GMT-0500 (Central Daylight Time),191767.80000019073,CFD-WM-006-013-HC.jpg,1700,solid,I,m,676,9,3,33839.09999990463,157928.7000002861,8018,ATS,A,14
15,test,1,A,haborder.png,1,z,Thu Oct 23 2025 18:20:33 GMT-0500 (Central Daylight Time),193750.30000019073,CFD-BF-039-039-A.jpg,1200,solid,I,z,760,6,3,35821.59999990463,157928.7000002861,8018,ATS,A,15
16,test,1,A,haborder.png,1,m,Thu Oct 23 2025 18:20:33 GMT-0500 (Central Daylight Time),196483.09999990463,CFD-BF-028-020-HC.jpg,2000,solid,I,m,701,5,3,38554.39999961853,157928.7000002861,8018,ATS,A,16
17,test,1,A,haborder.png,1,z,Thu Oct 23 2025 18:20:33 GMT-0500 (Central Daylight Time),198399.2000002861,CFD-BF-039-039-A.jpg,1200,solid,I,z,692,6,3,40470.5,157928.7000002861,8018,ATS,A,17
18,test,1,A,haborder.png,1,m,Thu Oct 23 2025 18:20:33 GMT-0500 (Central Daylight Time),200781.5,CFD-WF-017-016-HC.jpg,1500,solid,I,m,860,11,3,42852.7999997139,157928.7000002861,8018,ATS,A,18
19,test,1,A,haborder.png,1,m,Thu Oct 23 2025 18:20:33 GMT-0500 (Central Daylight Time),202997.7000002861,CFD-WM-004-005-HC.jpg,1400,solid,I,m,787,7,3,45069.0,157928.7000002861,8018,ATS,A,19
20,test,1,A,haborder.png,1,z,Thu Oct 23 2025 18:20:33 GMT-0500 (Central Daylight Time),204780.40000009537,CFD-WF-019-015-A.jpg,1000,solid,I,z,755,12,3,46851.699999809265,157928.7000002861,8018,ATS,A,20
21,test,1,A,haborder.png,1,z,Thu Oct 23 2025 18:20:33 GMT-0500 (Central Daylight Time),206579.80000019073,CFD-BF-023-013-A.jpg,1000,solid,I,z,772,4,3,48651.09999990463,157928.7000002861,8018,ATS,A,21
22,test,1,A,haborder.png,1,m,Thu Oct 23 2025 18:20:33 GMT-0500 (Central Daylight Time),208730.30000019073,CFD-WM-004-005-HC.jpg,1400,solid,I,m,731,7,3,50801.59999990463,157928.7000002861,8018,ATS,A,22
23,test,1,A,haborder.png,1,z,Thu Oct 23 2025 18:20:33 GMT-0500 (Central Daylight Time),210428.90000009537,CFD-BF-023-013-A.jpg,1000,solid,I,z,671,4,3,52500.199999809265,157928.7000002861,8018,ATS,A,23
24,test,1,A,haborder.png,1,z,Thu Oct 23 2025 18:20:33 GMT-0500 (Central Daylight Time),213011.09999990463,CFD-WF-003-014-A.jpg,1600,solid,I,z,955,10,3,55082.39999961853,157928.7000002861,8018,ATS,A,24
1,test,1,B,mfborder.png,1,m,Thu Oct 23 2025 18:20:33 GMT-0500 (Central Daylight Time),224041.09999990463,CFD-BM-005-010-A.jpg,2000,dash,I,m,1316,5,3,3332.0999999046326,220709.0,8018,ATS,A,1
2,test,1,B,mfborder.png,1,z,Thu Oct 23 2025 18:20:33 GMT-0500 (Central Daylight Time),226590.2000002861,CFD-BF-010-005-HC.jpg,1500,dash,I,z,1019,3,3,5881.200000286102,220709.0,8018,ATS,A,2
3,test,1,B,mfborder.png,1,m,Thu Oct 23 2025 18:20:33 GMT-0500 (Central Daylight Time),228639.7000002861,CFD-WM-019-013-A.jpg,1200,dash,I,m,817,6,3,7930.700000286102,220709.0,8018,ATS,A,3
4,test,1,B,mfborder.png,1,m,Thu Oct 23 2025 18:20:33 GMT-0500 (Central Daylight Time),231172.40000009537,CFD-BM-010-019-A.jpg,1600,dash,I,m,904,2,3,10463.400000095367,220709.0,8018,ATS,A,4
5,test,1,B,mfborder.png,1,z,Thu Oct 23 2025 18:20:33 GMT-0500 (Central Daylight Time),233354.90000009537,CFD-BF-010-005-HC.jpg,1500,dash,I,z,656,3,3,12645.900000095367,220709.0,8018,ATS,A,5
6,test,1,B,mfborder.png,1,z,Thu Oct 23 2025 18:20:33 GMT-0500 (Central Daylight Time),235937.09999990463,CFD-WF-002-008-HC.jpg,1900,dash,I,z,665,8,3,15228.099999904633,220709.0,8018,ATS,A,6
7,test,1,B,mfborder.png,1,m,Thu Oct 23 2025 18:20:33 GMT-0500 (Central Daylight Time),238553.30000019073,CFD-WM-013-015-A.jpg,1700,dash,I,m,883,9,3,17844.300000190735,220709.0,8018,ATS,A,7
8,test,1,B,mfborder.png,1,m,Thu Oct 23 2025 18:20:33 GMT-0500 (Central Daylight Time),241369.0,CFD-WM-013-015-A.jpg,1700,dash,I,m,1090,9,3,20660.0,220709.0,8018,ATS,A,8
9,test,1,B,mfborder.png,1,z,Thu Oct 23 2025 18:20:33 GMT-0500 (Central Daylight Time),243784.90000009537,CFD-WF-003-014-A.jpg,1500,dash,I,z,883,11,3,23075.900000095367,220709.0,8018,ATS,A,9
10,test,1,B,mfborder.png,1,z,Thu Oct 23 2025 18:20:33 GMT-0500 (Central Daylight Time),245434.2000002861,CFD-WF-017-016-HC.jpg,1000,dash,I,z,630,12,3,24725.200000286102,220709.0,8018,ATS,A,10
11,test,1,B,mfborder.png,1,m,Thu Oct 23 2025 18:20:33 GMT-0500 (Central Daylight Time),247833.5,CFD-WM-006-013-HC.jpg,1600,dash,I,m,781,10,3,27124.5,220709.0,8018,ATS,A,11
12,test,1,B,mfborder.png,1,m,Thu Oct 23 2025 18:20:33 GMT-0500 (Central Daylight Time),250099.5,CFD-BM-010-019-A.jpg,1600,dash,I,m,639,2,3,29390.5,220709.0,8018,ATS,A,12
13,test,1,B,mfborder.png,1,z,Thu Oct 23 2025 18:20:33 GMT-0500 (Central Daylight Time),252315.5,CFD-WF-003-014-A.jpg,1500,dash,I,z,697,11,3,31606.5,220709.0,8018,ATS,A,13
14,test,1,B,mfborder.png,1,z,Thu Oct 23 2025 18:20:33 GMT-0500 (Central Daylight Time),254564.80000019073,CFD-BF-028-020-HC.jpg,1400,dash,I,z,828,7,3,33855.800000190735,220709.0,8018,ATS,A,14
15,test,1,B,mfborder.png,1,z,Thu Oct 23 2025 18:20:33 GMT-0500 (Central Daylight Time),256197.7000002861,CFD-WF-017-016-HC.jpg,1000,dash,I,z,610,12,3,35488.7000002861,220709.0,8018,ATS,A,15
16,test,1,B,mfborder.png,1,z,Thu Oct 23 2025 18:20:33 GMT-0500 (Central Daylight Time),258714.5,CFD-WF-002-008-HC.jpg,1900,dash,I,z,598,8,3,38005.5,220709.0,8018,ATS,A,16
17,test,1,B,mfborder.png,1,z,Thu Oct 23 2025 18:20:33 GMT-0500 (Central Daylight Time),260379.80000019073,CFD-BF-023-013-A.jpg,1000,dash,I,z,639,4,3,39670.800000190735,220709.0,8018,ATS,A,17
18,test,1,B,mfborder.png,1,m,Thu Oct 23 2025 18:20:33 GMT-0500 (Central Daylight Time),262762.09999990463,CFD-BM-029-026-HC.jpg,1700,dash,I,m,657,1,3,42053.09999990463,220709.0,8018,ATS,A,18
19,test,1,B,mfborder.png,1,m,Thu Oct 23 2025 18:20:33 GMT-0500 (Central Daylight Time),265411.7000002861,CFD-BM-005-010-A.jpg,2000,dash,I,m,623,5,3,44702.7000002861,220709.0,8018,ATS,A,19
20,test,1,B,mfborder.png,1,z,Thu Oct 23 2025 18:20:33 GMT-0500 (Central Daylight Time),267110.90000009537,CFD-BF-023-013-A.jpg,1000,dash,I,z,677,4,3,46401.90000009537,220709.0,8018,ATS,A,20
21,test,1,B,mfborder.png,1,m,Thu Oct 23 2025 18:20:33 GMT-0500 (Central Daylight Time),269577.0,CFD-WM-006-013-HC.jpg,1600,dash,I,m,850,10,3,48868.0,220709.0,8018,ATS,A,21
22,test,1,B,mfborder.png,1,m,Thu Oct 23 2025 18:20:33 GMT-0500 (Central Daylight Time),271626.2000002861,CFD-WM-019-013-A.jpg,1200,dash,I,m,831,6,3,50917.2000002861,220709.0,8018,ATS,A,22
23,test,1,B,mfborder.png,1,z,Thu Oct 23 2025 18:20:33 GMT-0500 (Central Daylight Time),273775.5,CFD-BF-028-020-HC.jpg,1400,dash,I,z,725,7,3,53066.5,220709.0,8018,ATS,A,23
24,test,1,B,mfborder.png,1,m,Thu Oct 23 2025 18:20:33 GMT-0500 (Central Daylight Time),276258.0,CFD-BM-029-026-HC.jpg,1700,dash,I,m,757,1,3,55549.0,220709.0,8018,ATS,A,24
0,prac,1,C,mfborder.png,0,m,Thu Oct 23 2025 18:20:33 GMT-0500 (Central Daylight Time),315396.5,CFD-BM-005-010-A.jpg,1200,dash,I,None,1516,5,3,3499.5999999046326,311896.90000009537,8018,ATS,A,1
0,prac,1,C,haborder.png,0,z,Thu Oct 23 2025 18:20:33 GMT-0500 (Central Daylight Time),318911.30000019073,CFD-BF-039-039-A.jpg,1700,solid,I,m,1024,8,3,7014.400000095367,311896.90000009537,8018,ATS,A,2
1,prac,1,C,haborder.png,1,z,Thu Oct 23 2025 18:20:33 GMT-0500 (Central Daylight Time),322693.40000009537,CFD-BF-023-013-A.jpg,1900,dash,I,z,1084,7,3,10796.5,311896.90000009537,8018,ATS,A,3
1,prac,1,C,haborder.png,0,m,Thu Oct 23 2025 18:20:33 GMT-0500 (Central Daylight Time),326475.5,CFD-WM-004-005-HC.jpg,1400,solid,I,None,1505,12,3,14578.599999904633,311896.90000009537,8018,ATS,A,4
1,prac,1,C,haborder.png,0,m,Thu Oct 23 2025 18:20:33 GMT-0500 (Central Daylight Time),330274.40000009537,CFD-BM-029-026-HC.jpg,1500,solid,I,None,1516,10,3,18377.5,311896.90000009537,8018,ATS,A,5
2,prac,1,C,mfborder.png,1,z,Thu Oct 23 2025 18:20:33 GMT-0500 (Central Daylight Time),333524.09999990463,CFD-WF-019-015-A.jpg,1500,solid,I,z,953,2,3,21627.199999809265,311896.90000009537,8018,ATS,A,6
2,prac,1,C,mfborder.png,0,m,Thu Oct 23 2025 18:20:33 GMT-0500 (Central Daylight Time),337822.30000019073,CFD-BM-017-052-HC.jpg,2000,solid,I,None,1516,4,3,25925.400000095367,311896.90000009537,8018,ATS,A,7
2,prac,1,C,haborder.png,0,z,Thu Oct 23 2025 18:20:33 GMT-0500 (Central Daylight Time),341720.59999990463,CFD-WF-003-014-A.jpg,1600,dash,I,None,1515,9,3,29823.699999809265,311896.90000009537,8018,ATS,A,8
3,prac,1,C,mfborder.png,1,m,Thu Oct 23 2025 18:20:33 GMT-0500 (Central Daylight Time),345569.59999990463,CFD-WM-013-015-A.jpg,1700,solid,I,m,1355,6,3,33672.699999809265,311896.90000009537,8018,ATS,A,9
4,prac,1,C,haborder.png,1,m,Thu Oct 23 2025 18:20:33 GMT-0500 (Central Daylight Time),348785.2000002861,CFD-WM-004-005-HC.jpg,1000,dash,I,m,1430,11,3,36888.300000190735,311896.90000009537,8018,ATS,A,10
5,prac,1,C,mfborder.png,1,z,Thu Oct 23 2025 18:20:33 GMT-0500 (Central Daylight Time),351751.09999990463,CFD-BF-028-020-HC.jpg,1000,dash,I,z,1175,3,3,39854.199999809265,311896.90000009537,8018,ATS,A,11
6,prac,1,C,mfborder.png,1,z,Thu Oct 23 2025 18:20:33 GMT-0500 (Central Daylight Time),355249.80000019073,CFD-WF-017-016-HC.jpg,1600,dash,I,z,1105,1,3,43352.90000009537,311896.90000009537,8018,ATS,A,12
0,test,1,C,haborder.png,0,m,Thu Oct 23 2025 18:20:33 GMT-0500 (Central Daylight Time),386490.30000019073,CFD-WF-017-016-HC.jpg,1000,solid,I,None,1516,12,3,2532.7000002861023,383957.59999990463,8018,ATS,A,1
0,test,1,C,haborder.png,0,z,Thu Oct 23 2025 18:20:33 GMT-0500 (Central Daylight Time),389922.40000009537,CFD-BM-005-010-A.jpg,1900,solid,I,None,1516,8,3,5964.800000190735,383957.59999990463,8018,ATS,A,2
0,test,1,C,haborder.png,0,m,Thu Oct 23 2025 18:20:33 GMT-0500 (Central Daylight Time),392954.59999990463,CFD-WF-002-008-HC.jpg,1500,solid,I,None,1516,11,3,8997.0,383957.59999990463,8018,ATS,A,3
0,test,1,C,haborder.png,0,m,Thu Oct 23 2025 18:20:33 GMT-0500 (Central Daylight Time),396087.2000002861,CFD-BF-028-020-HC.jpg,1600,solid,I,None,1516,10,3,12129.60000038147,383957.59999990463,8018,ATS,A,4
1,test,1,C,mfborder.png,1,z,Thu Oct 23 2025 18:20:33 GMT-0500 (Central Daylight Time),398502.90000009537,CFD-WF-003-014-A.jpg,1500,dash,I,z,892,3,3,14545.300000190735,383957.59999990463,8018,ATS,A,5
1,test,1,C,mfborder.png,0,m,Thu Oct 23 2025 18:20:33 GMT-0500 (Central Daylight Time),401385.5,CFD-WM-019-013-A.jpg,2000,dash,I,z,858,5,3,17427.900000095367,383957.59999990463,8018,ATS,A,6
2,test,1,C,mfborder.png,1,z,Thu Oct 23 2025 18:20:33 GMT-0500 (Central Daylight Time),404034.5,CFD-BF-010-005-HC.jpg,1700,dash,I,z,923,1,3,20076.900000095367,383957.59999990463,8018,ATS,A,7
2,test,1,C,haborder.png,0,z,Thu Oct 23 2025 18:20:33 GMT-0500 (Central Daylight Time),407183.59999990463,CFD-BM-010-019-A.jpg,1700,solid,I,m,1425,9,3,23226.0,383957.59999990463,8018,ATS,A,8
2,test,1,C,haborder.png,0,m,Thu Oct 23 2025 18:20:33 GMT-0500 (Central Daylight Time),410315.90000009537,CFD-BF-028-020-HC.jpg,1600,solid,I,None,1516,10,3,26358.300000190735,383957.59999990463,8018,ATS,A,9
3,test,1,C,mfborder.png,1,z,Thu Oct 23 2025 18:20:33 GMT-0500 (Central Daylight Time),413081.7000002861,CFD-BF-010-005-HC.jpg,1700,dash,I,z,1048,1,3,29124.10000038147,383957.59999990463,8018,ATS,A,10
4,test,1,C,mfborder.png,1,m,Thu Oct 23 2025 18:20:33 GMT-0500 (Central Daylight Time),415564.30000019073,CFD-BM-029-026-HC.jpg,1200,dash,I,m,1254,6,3,31606.700000286102,383957.59999990463,8018,ATS,A,11
4,test,1,C,haborder.png,0,m,Thu Oct 23 2025 18:20:33 GMT-0500 (Central Daylight Time),418096.90000009537,CFD-WF-017-016-HC.jpg,1000,solid,I,None,1516,12,3,34139.300000190735,383957.59999990463,8018,ATS,A,12
5,test,1,C,haborder.png,1,z,Thu Oct 23 2025 18:20:33 GMT-0500 (Central Daylight Time),420562.80000019073,CFD-WM-013-015-A.jpg,1400,solid,I,z,1039,7,3,36605.2000002861,383957.59999990463,8018,ATS,A,13
6,test,1,C,haborder.png,1,z,Thu Oct 23 2025 18:20:33 GMT-0500 (Central Daylight Time),423212.0,CFD-WM-013-015-A.jpg,1400,solid,I,z,1230,7,3,39254.40000009537,383957.59999990463,8018,ATS,A,14
7,test,1,C,mfborder.png,1,z,Thu Oct 23 2025 18:20:33 GMT-0500 (Central Daylight Time),425861.2000002861,CFD-WF-003-014-A.jpg,1500,dash,I,z,1120,3,3,41903.60000038147,383957.59999990463,8018,ATS,A,15
8,test,1,C,haborder.png,1,z,Thu Oct 23 2025 18:20:33 GMT-0500 (Central Daylight Time),428793.2000002861,CFD-BM-005-010-A.jpg,1900,solid,I,z,1015,8,3,44835.60000038147,383957.59999990463,8018,ATS,A,16
9,test,1,C,haborder.png,1,z,Thu Oct 23 2025 18:20:33 GMT-0500 (Central Daylight Time),431392.80000019073,CFD-BM-010-019-A.jpg,1700,solid,I,z,867,9,3,47435.2000002861,383957.59999990463,8018,ATS,A,17
10,test,1,C,mfborder.png,1,z,Thu Oct 23 2025 18:20:33 GMT-0500 (Central Daylight Time),434458.09999990463,CFD-BF-023-013-A.jpg,1600,dash,I,z,1448,2,3,50500.5,383957.59999990463,8018,ATS,A,18
11,test,1,C,mfborder.png,1,z,Thu Oct 23 2025 18:20:33 GMT-0500 (Central Daylight Time),436857.80000019073,CFD-BF-023-013-A.jpg,1600,dash,I,z,774,2,3,52900.2000002861,383957.59999990463,8018,ATS,A,19
12,test,1,C,mfborder.png,1,m,Thu Oct 23 2025 18:20:33 GMT-0500 (Central Daylight Time),439306.90000009537,CFD-WM-006-013-HC.jpg,1000,dash,I,m,1431,4,3,55349.300000190735,383957.59999990463,8018,ATS,A,20
12,test,1,C,haborder.png,0,m,Thu Oct 23 2025 18:20:33 GMT-0500 (Central Daylight Time),442339.30000019073,CFD-WF-002-008-HC.jpg,1500,solid,I,None,1516,11,3,58381.7000002861,383957.59999990463,8018,ATS,A,21
12,test,1,C,mfborder.png,0,m,Thu Oct 23 2025 18:20:33 GMT-0500 (Central Daylight Time),445871.40000009537,CFD-WM-019-013-A.jpg,2000,dash,I,None,1515,5,3,61913.800000190735,383957.59999990463,8018,ATS,A,22
13,test,1,C,mfborder.png,1,m,Thu Oct 23 2025 18:20:33 GMT-0500 (Central Daylight Time),447820.80000019073,CFD-WM-006-013-HC.jpg,1000,dash,I,m,921,4,3,63863.2000002861,383957.59999990463,8018,ATS,A,23
14,test,1,C,mfborder.png,1,m,Thu Oct 23 2025 18:20:33 GMT-0500 (Central Daylight Time),450120.30000019073,CFD-BM-029-026-HC.jpg,1200,dash,I,m,1067,6,3,66162.7000002861,383957.59999990463,8018,ATS,A,24
1,test,2,C,mfborder.png,1,z,Thu Oct 23 2025 18:20:33 GMT-0500 (Central Daylight Time),459783.80000019073,CFD-BF-028-020-HC.jpg,1500,dash,I,z,1117,3,3,2649.0999999046326,457134.7000002861,8018,ATS,A,1
2,test,2,C,haborder.png,1,m,Thu Oct 23 2025 18:20:33 GMT-0500 (Central Daylight Time),462649.59999990463,CFD-WM-004-005-HC.jpg,1500,solid,I,m,1340,11,3,5514.89999961853,457134.7000002861,8018,ATS,A,2
3,test,2,C,haborder.png,1,m,Thu Oct 23 2025 18:20:33 GMT-0500 (Central Daylight Time),464382.30000019073,CFD-WM-004-005-HC.jpg,1000,solid,I,m,702,12,3,7247.599999904633,457134.7000002861,8018,ATS,A,3
4,test,2,C,mfborder.png,1,z,Thu Oct 23 2025 18:20:33 GMT-0500 (Central Daylight Time),467414.7000002861,CFD-WF-017-016-HC.jpg,1700,dash,I,z,1310,1,3,10280.0,457134.7000002861,8018,ATS,A,4
4,test,2,C,haborder.png,0,z,Thu Oct 23 2025 18:20:33 GMT-0500 (Central Daylight Time),470647.0,CFD-WF-003-014-A.jpg,1700,solid,I,None,1516,9,3,13512.299999713898,457134.7000002861,8018,ATS,A,5
4,test,2,C,haborder.png,0,m,Thu Oct 23 2025 18:20:33 GMT-0500 (Central Daylight Time),473779.7000002861,CFD-BM-029-026-HC.jpg,1600,solid,I,None,1517,10,3,16645.0,457134.7000002861,8018,ATS,A,6
5,test,2,C,mfborder.png,1,z,Thu Oct 23 2025 18:20:33 GMT-0500 (Central Daylight Time),476128.7000002861,CFD-BF-028-020-HC.jpg,1500,dash,I,z,817,3,3,18994.0,457134.7000002861,8018,ATS,A,7
6,test,2,C,haborder.png,1,m,Thu Oct 23 2025 18:20:33 GMT-0500 (Central Daylight Time),478610.90000009537,CFD-WM-004-005-HC.jpg,1500,solid,I,m,955,11,3,21476.199999809265,457134.7000002861,8018,ATS,A,8
6,test,2,C,mfborder.png,0,m,Thu Oct 23 2025 18:20:33 GMT-0500 (Central Daylight Time),481910.30000019073,CFD-BM-005-010-A.jpg,2000,dash,I,z,1270,5,3,24775.599999904633,457134.7000002861,8018,ATS,A,9
7,test,2,C,haborder.png,1,m,Thu Oct 23 2025 18:20:33 GMT-0500 (Central Daylight Time),484675.80000019073,CFD-BM-029-026-HC.jpg,1600,solid,I,m,1146,10,3,27541.099999904633,457134.7000002861,8018,ATS,A,10
7,test,2,C,mfborder.png,0,m,Thu Oct 23 2025 18:20:33 GMT-0500 (Central Daylight Time),487208.5,CFD-BM-017-052-HC.jpg,1000,dash,I,None,1516,4,3,30073.799999713898,457134.7000002861,8018,ATS,A,11
8,test,2,C,mfborder.png,1,m,Thu Oct 23 2025 18:20:33 GMT-0500 (Central Daylight Time),489791.0,CFD-WM-013-015-A.jpg,1200,dash,I,m,1359,6,3,32656.299999713898,457134.7000002861,8018,ATS,A,12
9,test,2,C,mfborder.png,1,z,Thu Oct 23 2025 18:20:33 GMT-0500 (Central Daylight Time),492406.7000002861,CFD-WF-017-016-HC.jpg,1700,dash,I,z,894,1,3,35272.0,457134.7000002861,8018,ATS,A,13
10,test,2,C,haborder.png,1,m,Thu Oct 23 2025 18:20:33 GMT-0500 (Central Daylight Time),494606.0,CFD-WM-004-005-HC.jpg,1000,solid,I,m,1170,12,3,37471.2999997139,457134.7000002861,8018,ATS,A,14
10,test,2,C,haborder.png,0,z,Thu Oct 23 2025 18:20:33 GMT-0500 (Central Daylight Time),497538.80000019073,CFD-BF-023-013-A.jpg,1400,solid,I,None,1512,7,3,40404.09999990463,457134.7000002861,8018,ATS,A,15
10,test,2,C,mfborder.png,0,m,Thu Oct 23 2025 18:20:33 GMT-0500 (Central Daylight Time),501070.90000009537,CFD-BM-005-010-A.jpg,2000,dash,I,None,1516,5,3,43936.199999809265,457134.7000002861,8018,ATS,A,16
10,test,2,C,mfborder.png,0,z,Thu Oct 23 2025 18:20:33 GMT-0500 (Central Daylight Time),504203.2000002861,CFD-WF-019-015-A.jpg,1600,dash,I,None,1516,2,3,47068.5,457134.7000002861,8018,ATS,A,17
11,test,2,C,mfborder.png,1,m,Thu Oct 23 2025 18:20:33 GMT-0500 (Central Daylight Time),506035.90000009537,CFD-BM-017-052-HC.jpg,1000,dash,I,m,813,4,3,48901.199999809265,457134.7000002861,8018,ATS,A,18
12,test,2,C,haborder.png,1,z,Thu Oct 23 2025 18:20:33 GMT-0500 (Central Daylight Time),509201.40000009537,CFD-WF-003-014-A.jpg,1700,solid,I,z,1441,9,3,52066.699999809265,457134.7000002861,8018,ATS,A,19
13,test,2,C,haborder.png,1,z,Thu Oct 23 2025 18:20:33 GMT-0500 (Central Daylight Time),511584.0,CFD-BF-023-013-A.jpg,1400,solid,I,z,954,7,3,54449.2999997139,457134.7000002861,8018,ATS,A,20
14,test,2,C,haborder.png,1,z,Thu Oct 23 2025 18:20:33 GMT-0500 (Central Daylight Time),514250.2000002861,CFD-BF-039-039-A.jpg,1900,solid,I,z,740,8,3,57115.5,457134.7000002861,8018,ATS,A,21
14,test,2,C,mfborder.png,0,m,Thu Oct 23 2025 18:20:33 GMT-0500 (Central Daylight Time),516665.7000002861,CFD-WM-013-015-A.jpg,1200,dash,I,z,1198,6,3,59531.0,457134.7000002861,8018,ATS,A,22
15,test,2,C,mfborder.png,1,z,Thu Oct 23 2025 18:20:33 GMT-0500 (Central Daylight Time),519315.40000009537,CFD-WF-019-015-A.jpg,1600,dash,I,z,1023,2,3,62180.699999809265,457134.7000002861,8018,ATS,A,23
15,test,2,C,haborder.png,0,z,Thu Oct 23 2025 18:20:33 GMT-0500 (Central Daylight Time),522747.5,CFD-BF-039-039-A.jpg,1900,solid,I,None,1516,8,3,65612.7999997139,457134.7000002861,8018,ATS,A,24
0,test,3,C,mfborder.png,0,m,Thu Oct 23 2025 18:20:33 GMT-0500 (Central Daylight Time),528312.3000001907,CFD-WM-006-013-HC.jpg,1000,dash,I,None,1516,4,3,2532.5999999046326,525779.7000002861,8018,ATS,A,1
1,test,3,C,haborder.png,1,m,Thu Oct 23 2025 18:20:33 GMT-0500 (Central Daylight Time),530445.0,CFD-WF-017-016-HC.jpg,1000,solid,I,m,1104,12,3,4665.299999713898,525779.7000002861,8018,ATS,A,2
2,test,3,C,mfborder.png,1,z,Thu Oct 23 2025 18:20:33 GMT-0500 (Central Daylight Time),533027.4000000954,CFD-BF-010-005-HC.jpg,1700,dash,I,z,856,1,3,7247.699999809265,525779.7000002861,8018,ATS,A,3
3,test,3,C,haborder.png,1,m,Thu Oct 23 2025 18:20:33 GMT-0500 (Central Daylight Time),535709.9000000954,CFD-WF-002-008-HC.jpg,1500,solid,I,m,1161,11,3,9930.199999809265,525779.7000002861,8018,ATS,A,4
4,test,3,C,haborder.png,1,z,Thu Oct 23 2025 18:20:33 GMT-0500 (Central Daylight Time),538609.0,CFD-BM-010-019-A.jpg,1700,solid,I,z,1175,9,3,12829.299999713898,525779.7000002861,8018,ATS,A,5
5,test,3,C,mfborder.png,1,z,Thu Oct 23 2025 18:20:33 GMT-0500 (Central Daylight Time),541024.8000001907,CFD-BF-023-013-A.jpg,1600,dash,I,z,799,2,3,15245.099999904633,525779.7000002861,8018,ATS,A,6
6,test,3,C,haborder.png,1,z,Thu Oct 23 2025 18:20:33 GMT-0500 (Central Daylight Time),544224.0999999046,CFD-BM-005-010-A.jpg,1900,solid,I,z,1267,8,3,18444.39999961853,525779.7000002861,8018,ATS,A,7
7,test,3,C,mfborder.png,1,m,Thu Oct 23 2025 18:20:33 GMT-0500 (Central Daylight Time),546623.3000001907,CFD-BM-029-026-HC.jpg,1200,dash,I,m,1167,6,3,20843.599999904633,525779.7000002861,8018,ATS,A,8
8,test,3,C,mfborder.png,1,z,Thu Oct 23 2025 18:20:33 GMT-0500 (Central Daylight Time),549305.5999999046,CFD-WF-003-014-A.jpg,1500,dash,I,z,1156,3,3,23525.89999961853,525779.7000002861,8018,ATS,A,9
8,test,3,C,mfborder.png,0,z,Thu Oct 23 2025 18:20:33 GMT-0500 (Central Daylight Time),552538.2000002861,CFD-BF-010-005-HC.jpg,1700,dash,I,None,1516,1,3,26758.5,525779.7000002861,8018,ATS,A,10
9,test,3,C,mfborder.png,1,z,Thu Oct 23 2025 18:20:33 GMT-0500 (Central Daylight Time),555287.2000002861,CFD-WF-003-014-A.jpg,1500,dash,I,z,1217,3,3,29507.5,525779.7000002861,8018,ATS,A,11
9,test,3,C,haborder.png,0,z,Thu Oct 23 2025 18:20:33 GMT-0500 (Central Daylight Time),558719.7000002861,CFD-BM-005-010-A.jpg,1900,solid,I,None,1516,8,3,32940.0,525779.7000002861,8018,ATS,A,12
10,test,3,C,haborder.png,1,z,Thu Oct 23 2025 18:20:33 GMT-0500 (Central Daylight Time),561151.9000000954,CFD-WM-013-015-A.jpg,1400,solid,I,z,1000,7,3,35372.199999809265,525779.7000002861,8018,ATS,A,13
11,test,3,C,mfborder.png,1,m,Thu Oct 23 2025 18:20:33 GMT-0500 (Central Daylight Time),563234.8000001907,CFD-BM-029-026-HC.jpg,1200,dash,I,m,856,6,3,37455.09999990463,525779.7000002861,8018,ATS,A,14
12,test,3,C,mfborder.png,1,m,Thu Oct 23 2025 18:20:33 GMT-0500 (Central Daylight Time),566716.7000002861,CFD-WM-019-013-A.jpg,2000,dash,I,m,1462,5,3,40937.0,525779.7000002861,8018,ATS,A,15
13,test,3,C,haborder.png,1,z,Thu Oct 23 2025 18:20:33 GMT-0500 (Central Daylight Time),569549.4000000954,CFD-WM-013-015-A.jpg,1400,solid,I,z,1412,7,3,43769.699999809265,525779.7000002861,8018,ATS,A,16
14,test,3,C,mfborder.png,1,m,Thu Oct 23 2025 18:20:33 GMT-0500 (Central Daylight Time),572998.4000000954,CFD-WM-019-013-A.jpg,2000,dash,I,m,1419,5,3,47218.699999809265,525779.7000002861,8018,ATS,A,17
15,test,3,C,haborder.png,1,m,Thu Oct 23 2025 18:20:33 GMT-0500 (Central Daylight Time),575464.2000002861,CFD-WF-017-016-HC.jpg,1000,solid,I,m,1433,12,3,49684.5,525779.7000002861,8018,ATS,A,18
16,test,3,C,mfborder.png,1,z,Thu Oct 23 2025 18:20:33 GMT-0500 (Central Daylight Time),577980.0,CFD-BF-023-013-A.jpg,1600,dash,I,z,896,2,3,52200.2999997139,525779.7000002861,8018,ATS,A,19
17,test,3,C,haborder.png,1,m,Thu Oct 23 2025 18:20:33 GMT-0500 (Central Daylight Time),580745.9000000954,CFD-BF-028-020-HC.jpg,1600,solid,I,m,1141,10,3,54966.199999809265,525779.7000002861,8018,ATS,A,20
18,test,3,C,haborder.png,1,m,Thu Oct 23 2025 18:20:33 GMT-0500 (Central Daylight Time),583061.7000002861,CFD-BF-028-020-HC.jpg,1600,solid,I,m,694,10,3,57282.0,525779.7000002861,8018,ATS,A,21
19,test,3,C,haborder.png,1,m,Thu Oct 23 2025 18:20:33 GMT-0500 (Central Daylight Time),585694.2000002861,CFD-WF-002-008-HC.jpg,1500,solid,I,m,1103,11,3,59914.5,525779.7000002861,8018,ATS,A,22
19,test,3,C,mfborder.png,0,m,Thu Oct 23 2025 18:20:33 GMT-0500 (Central Daylight Time),588227.0999999046,CFD-WM-006-013-HC.jpg,1000,dash,I,None,1516,4,3,62447.39999961853,525779.7000002861,8018,ATS,A,23
19,test,3,C,haborder.png,0,z,Thu Oct 23 2025 18:20:33 GMT-0500 (Central Daylight Time),591459.0999999046,CFD-BM-010-019-A.jpg,1700,solid,I,None,1516,9,3,65679.39999961853,525779.7000002861,8018,ATS,A,24
0,test,4,C,mfborder.png,0,z,Thu Oct 23 2025 18:20:33 GMT-0500 (Central Daylight Time),596875.5,CFD-BF-028-020-HC.jpg,1500,dash,I,None,1517,3,3,3033.5999999046326,593841.9000000954,8018,ATS,A,1
1,test,4,C,mfborder.png,1,m,Thu Oct 23 2025 18:20:33 GMT-0500 (Central Daylight Time),600256.8000001907,CFD-BM-005-010-A.jpg,2000,dash,I,m,1350,5,3,6414.900000095367,593841.9000000954,8018,ATS,A,2
2,test,4,C,haborder.png,1,m,Thu Oct 23 2025 18:20:33 GMT-0500 (Central Daylight Time),602856.9000000954,CFD-WM-004-005-HC.jpg,1500,solid,I,m,1075,11,3,9015.0,593841.9000000954,8018,ATS,A,3
3,test,4,C,haborder.png,1,z,Thu Oct 23 2025 18:20:33 GMT-0500 (Central Daylight Time),605688.0,CFD-BF-039-039-A.jpg,1900,solid,I,z,909,8,3,11846.099999904633,593841.9000000954,8018,ATS,A,4
4,test,4,C,haborder.png,1,z,Thu Oct 23 2025 18:20:33 GMT-0500 (Central Daylight Time),608587.0999999046,CFD-BF-039-039-A.jpg,1900,solid,I,z,981,8,3,14745.199999809265,593841.9000000954,8018,ATS,A,5
4,test,4,C,mfborder.png,0,m,Thu Oct 23 2025 18:20:33 GMT-0500 (Central Daylight Time),612119.4000000954,CFD-BM-005-010-A.jpg,2000,dash,I,None,1515,5,3,18277.5,593841.9000000954,8018,ATS,A,6
5,test,4,C,haborder.png,1,m,Thu Oct 23 2025 18:20:33 GMT-0500 (Central Daylight Time),614051.8000001907,CFD-WM-004-005-HC.jpg,1000,solid,I,m,904,12,3,20209.900000095367,593841.9000000954,8018,ATS,A,7
6,test,4,C,mfborder.png,1,z,Thu Oct 23 2025 18:20:33 GMT-0500 (Central Daylight Time),616917.9000000954,CFD-BF-028-020-HC.jpg,1500,dash,I,z,1344,3,3,23076.0,593841.9000000954,8018,ATS,A,8
7,test,4,C,haborder.png,1,z,Thu Oct 23 2025 18:20:33 GMT-0500 (Central Daylight Time),620016.7000002861,CFD-WF-003-014-A.jpg,1700,solid,I,z,1382,9,3,26174.800000190735,593841.9000000954,8018,ATS,A,9
8,test,4,C,haborder.png,1,m,Thu Oct 23 2025 18:20:33 GMT-0500 (Central Daylight Time),622665.9000000954,CFD-WM-004-005-HC.jpg,1500,solid,I,m,1132,11,3,28824.0,593841.9000000954,8018,ATS,A,10
8,test,4,C,mfborder.png,0,m,Thu Oct 23 2025 18:20:33 GMT-0500 (Central Daylight Time),625398.5999999046,CFD-WM-013-015-A.jpg,1200,dash,I,None,1516,6,3,31556.699999809265,593841.9000000954,8018,ATS,A,11
9,test,4,C,mfborder.png,1,z,Thu Oct 23 2025 18:20:33 GMT-0500 (Central Daylight Time),628197.5,CFD-WF-019-015-A.jpg,1600,dash,I,z,1170,2,3,34355.59999990463,593841.9000000954,8018,ATS,A,12
10,test,4,C,haborder.png,1,z,Thu Oct 23 2025 18:20:33 GMT-0500 (Central Daylight Time),630792.0999999046,CFD-BF-023-013-A.jpg,1400,solid,I,z,1163,7,3,36950.199999809265,593841.9000000954,8018,ATS,A,13
11,test,4,C,haborder.png,1,m,Thu Oct 23 2025 18:20:33 GMT-0500 (Central Daylight Time),633262.5999999046,CFD-BM-029-026-HC.jpg,1600,solid,I,m,835,10,3,39420.699999809265,593841.9000000954,8018,ATS,A,14
11,test,4,C,mfborder.png,0,m,Thu Oct 23 2025 18:20:33 GMT-0500 (Central Daylight Time),635512.0,CFD-WM-013-015-A.jpg,1200,dash,I,z,1026,6,3,41670.09999990463,593841.9000000954,8018,ATS,A,15
12,test,4,C,mfborder.png,1,z,Thu Oct 23 2025 18:20:33 GMT-0500 (Central Daylight Time),638527.5999999046,CFD-WF-017-016-HC.jpg,1700,dash,I,z,1292,1,3,44685.699999809265,593841.9000000954,8018,ATS,A,16
13,test,4,C,mfborder.png,1,m,Thu Oct 23 2025 18:20:33 GMT-0500 (Central Daylight Time),640393.5,CFD-BM-017-052-HC.jpg,1000,dash,I,m,849,4,3,46551.59999990463,593841.9000000954,8018,ATS,A,17
14,test,4,C,mfborder.png,1,z,Thu Oct 23 2025 18:20:33 GMT-0500 (Central Daylight Time),643476.0999999046,CFD-WF-017-016-HC.jpg,1700,dash,I,z,1362,1,3,49634.199999809265,593841.9000000954,8018,ATS,A,18
15,test,4,C,haborder.png,1,m,Thu Oct 23 2025 18:20:33 GMT-0500 (Central Daylight Time),645559.0,CFD-WM-004-005-HC.jpg,1000,solid,I,m,1052,12,3,51717.09999990463,593841.9000000954,8018,ATS,A,19
16,test,4,C,mfborder.png,1,z,Thu Oct 23 2025 18:20:33 GMT-0500 (Central Daylight Time),648274.7000002861,CFD-WF-019-015-A.jpg,1600,dash,I,z,1097,2,3,54432.800000190735,593841.9000000954,8018,ATS,A,20
17,test,4,C,haborder.png,1,m,Thu Oct 23 2025 18:20:33 GMT-0500 (Central Daylight Time),650940.3000001907,CFD-BM-029-026-HC.jpg,1600,solid,I,m,1045,10,3,57098.40000009537,593841.9000000954,8018,ATS,A,21
18,test,4,C,haborder.png,1,z,Thu Oct 23 2025 18:20:33 GMT-0500 (Central Daylight Time),653822.9000000954,CFD-WF-003-014-A.jpg,1700,solid,I,z,1159,9,3,59981.0,593841.9000000954,8018,ATS,A,22
19,test,4,C,haborder.png,1,z,Thu Oct 23 2025 18:20:33 GMT-0500 (Central Daylight Time),656172.0999999046,CFD-BF-023-013-A.jpg,1400,solid,I,z,922,7,3,62330.199999809265,593841.9000000954,8018,ATS,A,23
20,test,4,C,mfborder.png,1,m,Thu Oct 23 2025 18:20:33 GMT-0500 (Central Daylight Time),658521.4000000954,CFD-BM-017-052-HC.jpg,1000,dash,I,m,1323,4,3,64679.5,593841.9000000954,8018,ATS,A,24
