acc_sum,block,block_c,change,condition,correct,correct_response,datetime,endtime,face,project,response,response_time,row_sel,session_number,start_end,starttime,subject_id,task,task_vers,trial
0,prac,1,,1-Back,,,Tue Dec 09 2025 09:50:43 GMT-0600 (Central Standard Time),,050_m_f_n_a.png,O,space,6734,1,,,,7721,NNB,A,0
1,prac,1,0.0,1-Back,1.0,m,Tue Dec 09 2025 09:50:43 GMT-0600 (Central Standard Time),113518.69999998808,063_y_f_n_a.png,O,m,613,2,,1418.199999988079,112100.5,7721,NNB,A,1
2,prac,1,1.0,1-Back,1.0,z,Tue Dec 09 2025 09:50:43 GMT-0600 (Central Standard Time),115102.80000001192,063_y_f_n_a.png,O,z,797,3,,1575.8999999761581,113526.90000003576,7721,NNB,A,2
3,prac,1,0.0,1-Back,1.0,m,Tue Dec 09 2025 09:50:43 GMT-0600 (Central Standard Time),116536.5,053_o_m_n_a.png,O,m,630,4,,1423.199999988079,115113.30000001192,7721,NNB,A,3
4,prac,1,0.0,1-Back,1.0,m,Tue Dec 09 2025 09:50:43 GMT-0600 (Central Standard Time),118017.10000002384,058_m_m_n_a.png,O,m,667,5,,1470.800000011921,116546.30000001192,7721,NNB,A,4
5,prac,1,1.0,1-Back,1.0,z,Tue Dec 09 2025 09:50:43 GMT-0600 (Central Standard Time),119333.10000002384,058_m_m_n_a.png,O,z,535,6,,1304.199999988079,118028.90000003576,7721,NNB,A,5
6,prac,1,0.0,1-Back,1.0,m,Tue Dec 09 2025 09:50:43 GMT-0600 (Central Standard Time),120683.60000002384,047_o_f_n_a.png,O,m,570,7,,1338.199999988079,119345.40000003576,7721,NNB,A,6
7,prac,1,0.0,1-Back,1.0,m,Tue Dec 09 2025 09:50:43 GMT-0600 (Central Standard Time),122200.30000001192,045_m_m_n_a.png,O,m,724,8,,1505.0,120695.30000001192,7721,NNB,A,7
8,prac,1,0.0,1-Back,1.0,m,Tue Dec 09 2025 09:50:43 GMT-0600 (Central Standard Time),123616.90000003576,050_m_f_n_a.png,O,m,622,9,,1404.4000000357628,122212.5,7721,NNB,A,8
9,prac,1,1.0,1-Back,1.0,z,Tue Dec 09 2025 09:50:43 GMT-0600 (Central Standard Time),124951.5,050_m_f_n_a.png,O,z,550,10,,1323.0999999642372,123628.40000003576,7721,NNB,A,9
10,prac,1,0.0,1-Back,1.0,m,Tue Dec 09 2025 09:50:43 GMT-0600 (Central Standard Time),126266.10000002384,053_o_m_n_a.png,O,m,535,11,,1302.300000011921,124963.80000001192,7721,NNB,A,10
11,prac,1,0.0,1-Back,1.0,m,Tue Dec 09 2025 09:50:43 GMT-0600 (Central Standard Time),127834.0,010_y_f_n_a.png,O,m,728,12,,1555.8999999761581,126278.10000002384,7721,NNB,A,11
0,test,1,0.0,1-Back,,,Tue Dec 09 2025 09:50:43 GMT-0600 (Central Standard Time),127834.0,063_y_f_n_a.png,O,space,7586,1,,1555.8999999761581,126278.10000002384,7721,NNB,A,0
1,test,1,0.0,1-Back,1.0,m,Tue Dec 09 2025 09:50:43 GMT-0600 (Central Standard Time),144793.60000002384,043_m_f_n_a.png,O,m,668,2,,1690.4000000357628,143103.19999998808,7721,NNB,A,1
2,test,1,0.0,1-Back,1.0,m,Tue Dec 09 2025 09:50:43 GMT-0600 (Central Standard Time),146477.0,010_y_f_n_a.png,O,m,665,3,,1674.699999988079,144802.30000001192,7721,NNB,A,2
3,test,1,1.0,1-Back,1.0,z,Tue Dec 09 2025 09:50:43 GMT-0600 (Central Standard Time),148042.30000001192,010_y_f_n_a.png,O,z,535,4,,1557.3999999761581,146484.90000003576,7721,NNB,A,3
4,test,1,0.0,1-Back,1.0,m,Tue Dec 09 2025 09:50:43 GMT-0600 (Central Standard Time),149608.19999998808,043_m_f_n_a.png,O,m,536,5,,1553.199999988079,148055.0,7721,NNB,A,4
5,test,1,0.0,1-Back,1.0,m,Tue Dec 09 2025 09:50:43 GMT-0600 (Central Standard Time),151125.10000002384,053_o_m_n_a.png,O,m,500,6,,1506.6000000238419,149618.5,7721,NNB,A,5
5,test,1,1.0,1-Back,0.0,z,Tue Dec 09 2025 09:50:43 GMT-0600 (Central Standard Time),152607.19999998808,053_o_m_n_a.png,O,m,460,7,,1470.199999988079,151137.0,7721,NNB,A,6
6,test,1,0.0,1-Back,1.0,m,Tue Dec 09 2025 09:50:43 GMT-0600 (Central Standard Time),154240.69999998808,058_m_m_n_a.png,O,m,610,8,,1622.0,152618.69999998808,7721,NNB,A,7
6,test,1,0.0,1-Back,0.0,m,Tue Dec 09 2025 09:50:43 GMT-0600 (Central Standard Time),155873.80000001192,047_o_f_n_a.png,O,z,609,9,,1622.300000011921,154251.5,7721,NNB,A,8
7,test,1,0.0,1-Back,1.0,m,Tue Dec 09 2025 09:50:43 GMT-0600 (Central Standard Time),157555.10000002384,058_m_m_n_a.png,O,m,656,10,,1669.5,155885.60000002384,7721,NNB,A,9
7,test,1,0.0,1-Back,0.0,m,Tue Dec 09 2025 09:50:43 GMT-0600 (Central Standard Time),160590.10000002384,041_y_m_n_a.png,O,None,2016,11,,3026.199999988079,157563.90000003576,7721,NNB,A,10
8,test,1,1.0,1-Back,1.0,z,Tue Dec 09 2025 09:50:43 GMT-0600 (Central Standard Time),162255.0,041_y_m_n_a.png,O,z,648,12,,1653.5999999642372,160601.40000003576,7721,NNB,A,11
9,test,1,0.0,1-Back,1.0,m,Tue Dec 09 2025 09:50:43 GMT-0600 (Central Standard Time),164022.0,044_o_f_n_a.png,O,m,750,13,,1756.5999999642372,162265.40000003576,7721,NNB,A,12
10,test,1,1.0,1-Back,1.0,z,Tue Dec 09 2025 09:50:43 GMT-0600 (Central Standard Time),165721.30000001192,044_o_f_n_a.png,O,z,669,14,,1689.6000000238419,164031.69999998808,7721,NNB,A,13
11,test,1,0.0,1-Back,1.0,m,Tue Dec 09 2025 09:50:43 GMT-0600 (Central Standard Time),167403.0,008_y_m_n_a.png,O,m,651,15,,1670.5999999642372,165732.40000003576,7721,NNB,A,14
12,test,1,0.0,1-Back,1.0,m,Tue Dec 09 2025 09:50:43 GMT-0600 (Central Standard Time),169170.10000002384,050_m_f_n_a.png,O,m,735,16,,1757.9000000357628,167412.19999998808,7721,NNB,A,15
13,test,1,0.0,1-Back,1.0,m,Tue Dec 09 2025 09:50:43 GMT-0600 (Central Standard Time),170818.80000001192,046_o_m_n_a.png,O,m,625,17,,1638.5,169180.30000001192,7721,NNB,A,16
14,test,1,0.0,1-Back,1.0,m,Tue Dec 09 2025 09:50:43 GMT-0600 (Central Standard Time),172403.30000001192,050_m_f_n_a.png,O,m,560,18,,1574.5,170828.80000001192,7721,NNB,A,17
0,test,2,0.0,1-Back,,,Tue Dec 09 2025 09:50:43 GMT-0600 (Central Standard Time),172403.30000001192,058_m_m_n_a.png,O,space,2599,1,,1574.5,170828.80000001192,7721,NNB,A,0
1,test,2,0.0,1-Back,1.0,m,Tue Dec 09 2025 09:50:43 GMT-0600 (Central Standard Time),178999.60000002384,043_m_f_n_a.png,O,m,937,2,,1958.6000000238419,177041.0,7721,NNB,A,1
2,test,2,1.0,1-Back,1.0,z,Tue Dec 09 2025 09:50:43 GMT-0600 (Central Standard Time),180815.19999998808,043_m_f_n_a.png,O,z,795,3,,1805.5999999642372,179009.60000002384,7721,NNB,A,2
3,test,2,0.0,1-Back,1.0,m,Tue Dec 09 2025 09:50:43 GMT-0600 (Central Standard Time),182451.0,058_m_m_n_a.png,O,m,601,4,,1625.800000011921,180825.19999998808,7721,NNB,A,3
4,test,2,0.0,1-Back,1.0,m,Tue Dec 09 2025 09:50:43 GMT-0600 (Central Standard Time),184149.19999998808,041_y_m_n_a.png,O,m,683,5,,1689.0999999642372,182460.10000002384,7721,NNB,A,4
5,test,2,0.0,1-Back,1.0,m,Tue Dec 09 2025 09:50:43 GMT-0600 (Central Standard Time),185964.60000002384,063_y_f_n_a.png,O,m,790,6,,1809.5,184155.10000002384,7721,NNB,A,5
5,test,2,1.0,1-Back,0.0,z,Tue Dec 09 2025 09:50:43 GMT-0600 (Central Standard Time),187580.40000003576,063_y_f_n_a.png,O,m,598,7,,1605.800000011921,185974.60000002384,7721,NNB,A,6
6,test,2,0.0,1-Back,1.0,m,Tue Dec 09 2025 09:50:43 GMT-0600 (Central Standard Time),189262.19999998808,041_y_m_n_a.png,O,m,662,8,,1673.0999999642372,187589.10000002384,7721,NNB,A,7
7,test,2,0.0,1-Back,1.0,m,Tue Dec 09 2025 09:50:43 GMT-0600 (Central Standard Time),190928.80000001192,044_o_f_n_a.png,O,m,637,9,,1658.8999999761581,189269.90000003576,7721,NNB,A,8
8,test,2,0.0,1-Back,1.0,m,Tue Dec 09 2025 09:50:43 GMT-0600 (Central Standard Time),192611.69999998808,045_m_m_n_a.png,O,m,656,10,,1672.2999999523163,190939.40000003576,7721,NNB,A,9
9,test,2,1.0,1-Back,1.0,z,Tue Dec 09 2025 09:50:43 GMT-0600 (Central Standard Time),194244.30000001192,045_m_m_n_a.png,O,z,606,11,,1624.3999999761581,192619.90000003576,7721,NNB,A,10
10,test,2,0.0,1-Back,1.0,m,Tue Dec 09 2025 09:50:43 GMT-0600 (Central Standard Time),195945.10000002384,044_o_f_n_a.png,O,m,679,12,,1692.300000011921,194252.80000001192,7721,NNB,A,11
11,test,2,0.0,1-Back,1.0,m,Tue Dec 09 2025 09:50:43 GMT-0600 (Central Standard Time),197626.80000001192,047_o_f_n_a.png,O,m,666,13,,1673.1000000238419,195953.69999998808,7721,NNB,A,12
12,test,2,0.0,1-Back,1.0,m,Tue Dec 09 2025 09:50:43 GMT-0600 (Central Standard Time),199342.0,053_o_m_n_a.png,O,m,688,14,,1705.8999999761581,197636.10000002384,7721,NNB,A,13
13,test,2,0.0,1-Back,1.0,m,Tue Dec 09 2025 09:50:43 GMT-0600 (Central Standard Time),201026.10000002384,046_o_m_n_a.png,O,m,652,15,,1675.9000000357628,199350.19999998808,7721,NNB,A,14
14,test,2,1.0,1-Back,1.0,z,Tue Dec 09 2025 09:50:43 GMT-0600 (Central Standard Time),202958.90000003576,046_o_m_n_a.png,O,z,905,16,,1922.9000000357628,201036.0,7721,NNB,A,15
15,test,2,0.0,1-Back,1.0,m,Tue Dec 09 2025 09:50:43 GMT-0600 (Central Standard Time),204673.60000002384,008_y_m_n_a.png,O,m,684,17,,1703.699999988079,202969.90000003576,7721,NNB,A,16
16,test,2,1.0,1-Back,1.0,z,Tue Dec 09 2025 09:50:43 GMT-0600 (Central Standard Time),206390.40000003576,008_y_m_n_a.png,O,z,696,18,,1707.0,204683.40000003576,7721,NNB,A,17
0,test,3,1.0,1-Back,,,Tue Dec 09 2025 09:50:43 GMT-0600 (Central Standard Time),206390.40000003576,010_y_f_n_a.png,O,space,2227,1,,1707.0,204683.40000003576,7721,NNB,A,0
1,test,3,0.0,1-Back,1.0,m,Tue Dec 09 2025 09:50:43 GMT-0600 (Central Standard Time),212221.69999998808,046_o_m_n_a.png,O,m,513,2,,1520.699999988079,210701.0,7721,NNB,A,1
2,test,3,1.0,1-Back,1.0,z,Tue Dec 09 2025 09:50:43 GMT-0600 (Central Standard Time),213789.90000003576,046_o_m_n_a.png,O,z,541,3,,1557.6000000238419,212232.30000001192,7721,NNB,A,2
3,test,3,0.0,1-Back,1.0,m,Tue Dec 09 2025 09:50:43 GMT-0600 (Central Standard Time),215288.19999998808,050_m_f_n_a.png,O,m,471,4,,1488.0999999642372,213800.10000002384,7721,NNB,A,3
4,test,3,1.0,1-Back,1.0,z,Tue Dec 09 2025 09:50:43 GMT-0600 (Central Standard Time),216987.5,050_m_f_n_a.png,O,z,675,5,,1688.300000011921,215299.19999998808,7721,NNB,A,4
5,test,3,0.0,1-Back,1.0,m,Tue Dec 09 2025 09:50:43 GMT-0600 (Central Standard Time),218538.19999998808,044_o_f_n_a.png,O,m,519,6,,1541.699999988079,216996.5,7721,NNB,A,5
6,test,3,0.0,1-Back,1.0,m,Tue Dec 09 2025 09:50:43 GMT-0600 (Central Standard Time),220068.69999998808,041_y_m_n_a.png,O,m,515,7,,1519.8999999761581,218548.80000001192,7721,NNB,A,6
7,test,3,0.0,1-Back,1.0,m,Tue Dec 09 2025 09:50:43 GMT-0600 (Central Standard Time),221734.80000001192,044_o_f_n_a.png,O,m,637,8,,1657.6000000238419,220077.19999998808,7721,NNB,A,7
8,test,3,0.0,1-Back,1.0,m,Tue Dec 09 2025 09:50:43 GMT-0600 (Central Standard Time),223267.30000001192,008_y_m_n_a.png,O,m,506,9,,1526.699999988079,221740.60000002384,7721,NNB,A,8
9,test,3,1.0,1-Back,1.0,z,Tue Dec 09 2025 09:50:43 GMT-0600 (Central Standard Time),224750.40000003576,008_y_m_n_a.png,O,z,461,10,,1477.300000011921,223273.10000002384,7721,NNB,A,9
10,test,3,0.0,1-Back,1.0,m,Tue Dec 09 2025 09:50:43 GMT-0600 (Central Standard Time),226300.90000003576,043_m_f_n_a.png,O,m,533,11,,1541.1000000238419,224759.80000001192,7721,NNB,A,10
11,test,3,0.0,1-Back,1.0,m,Tue Dec 09 2025 09:50:43 GMT-0600 (Central Standard Time),227817.30000001192,063_y_f_n_a.png,O,m,493,12,,1505.800000011921,226311.5,7721,NNB,A,11
12,test,3,1.0,1-Back,1.0,z,Tue Dec 09 2025 09:50:43 GMT-0600 (Central Standard Time),229266.69999998808,063_y_f_n_a.png,O,z,425,13,,1437.2999999523163,227829.40000003576,7721,NNB,A,12
13,test,3,0.0,1-Back,1.0,m,Tue Dec 09 2025 09:50:43 GMT-0600 (Central Standard Time),230748.69999998808,043_m_f_n_a.png,O,m,465,14,,1472.5999999642372,229276.10000002384,7721,NNB,A,13
14,test,3,0.0,1-Back,1.0,m,Tue Dec 09 2025 09:50:43 GMT-0600 (Central Standard Time),232368.0,058_m_m_n_a.png,O,m,599,15,,1609.300000011921,230758.69999998808,7721,NNB,A,14
15,test,3,1.0,1-Back,1.0,z,Tue Dec 09 2025 09:50:43 GMT-0600 (Central Standard Time),234066.0,058_m_m_n_a.png,O,z,677,16,,1687.199999988079,232378.80000001192,7721,NNB,A,15
16,test,3,0.0,1-Back,1.0,m,Tue Dec 09 2025 09:50:43 GMT-0600 (Central Standard Time),235614.30000001192,047_o_f_n_a.png,O,m,520,17,,1537.800000011921,234076.5,7721,NNB,A,16
17,test,3,1.0,1-Back,1.0,z,Tue Dec 09 2025 09:50:43 GMT-0600 (Central Standard Time),237230.60000002384,047_o_f_n_a.png,O,z,594,18,,1606.699999988079,235623.90000003576,7721,NNB,A,17
0,test,4,1.0,1-Back,,,Tue Dec 09 2025 09:50:43 GMT-0600 (Central Standard Time),237230.60000002384,050_m_f_n_a.png,O,space,2095,1,,1606.699999988079,235623.90000003576,7721,NNB,A,0
1,test,4,0.0,1-Back,1.0,m,Tue Dec 09 2025 09:50:43 GMT-0600 (Central Standard Time),242945.30000001192,046_o_m_n_a.png,O,m,568,2,,1589.3999999761581,241355.90000003576,7721,NNB,A,1
2,test,4,0.0,1-Back,1.0,m,Tue Dec 09 2025 09:50:43 GMT-0600 (Central Standard Time),244528.60000002384,050_m_f_n_a.png,O,m,561,3,,1576.699999988079,242951.90000003576,7721,NNB,A,2
3,test,4,0.0,1-Back,1.0,m,Tue Dec 09 2025 09:50:43 GMT-0600 (Central Standard Time),246077.60000002384,044_o_f_n_a.png,O,m,515,4,,1539.4000000357628,244538.19999998808,7721,NNB,A,3
4,test,4,1.0,1-Back,1.0,z,Tue Dec 09 2025 09:50:43 GMT-0600 (Central Standard Time),247627.40000003576,044_o_f_n_a.png,O,z,524,5,,1540.1000000238419,246087.30000001192,7721,NNB,A,4
5,test,4,0.0,1-Back,1.0,m,Tue Dec 09 2025 09:50:43 GMT-0600 (Central Standard Time),249212.0,063_y_f_n_a.png,O,m,559,6,,1574.8999999761581,247637.10000002384,7721,NNB,A,5
6,test,4,0.0,1-Back,1.0,m,Tue Dec 09 2025 09:50:43 GMT-0600 (Central Standard Time),250859.90000003576,041_y_m_n_a.png,O,m,633,7,,1638.4000000357628,249221.5,7721,NNB,A,6
6,test,4,1.0,1-Back,0.0,z,Tue Dec 09 2025 09:50:43 GMT-0600 (Central Standard Time),252375.90000003576,041_y_m_n_a.png,O,m,486,8,,1504.6000000238419,250871.30000001192,7721,NNB,A,7
7,test,4,0.0,1-Back,1.0,m,Tue Dec 09 2025 09:50:43 GMT-0600 (Central Standard Time),253924.69999998808,063_y_f_n_a.png,O,m,530,9,,1539.5,252385.19999998808,7721,NNB,A,8
7,test,4,0.0,1-Back,0.0,m,Tue Dec 09 2025 09:50:43 GMT-0600 (Central Standard Time),255474.40000003576,045_m_m_n_a.png,O,z,524,10,,1540.4000000357628,253934.0,7721,NNB,A,9
7,test,4,1.0,1-Back,0.0,z,Tue Dec 09 2025 09:50:43 GMT-0600 (Central Standard Time),256958.0,045_m_m_n_a.png,O,m,456,11,,1471.3999999761581,255486.60000002384,7721,NNB,A,10
8,test,4,0.0,1-Back,1.0,m,Tue Dec 09 2025 09:50:43 GMT-0600 (Central Standard Time),258542.5,047_o_f_n_a.png,O,m,558,12,,1574.199999988079,256968.30000001192,7721,NNB,A,11
9,test,4,0.0,1-Back,1.0,m,Tue Dec 09 2025 09:50:43 GMT-0600 (Central Standard Time),260190.10000002384,053_o_m_n_a.png,O,m,633,13,,1637.4000000357628,258552.69999998808,7721,NNB,A,12
10,test,4,0.0,1-Back,1.0,m,Tue Dec 09 2025 09:50:43 GMT-0600 (Central Standard Time),261856.19999998808,047_o_f_n_a.png,O,m,634,14,,1655.5999999642372,260200.60000002384,7721,NNB,A,13
11,test,4,0.0,1-Back,1.0,m,Tue Dec 09 2025 09:50:43 GMT-0600 (Central Standard Time),263390.0,010_y_f_n_a.png,O,m,507,15,,1524.0999999642372,261865.90000003576,7721,NNB,A,14
12,test,4,1.0,1-Back,1.0,z,Tue Dec 09 2025 09:50:43 GMT-0600 (Central Standard Time),264971.90000003576,010_y_f_n_a.png,O,z,556,16,,1570.7000000476837,263401.1999999881,7721,NNB,A,15
13,test,4,0.0,1-Back,1.0,m,Tue Dec 09 2025 09:50:43 GMT-0600 (Central Standard Time),266539.40000003576,043_m_f_n_a.png,O,m,541,17,,1558.0,264981.40000003576,7721,NNB,A,16
14,test,4,1.0,1-Back,1.0,z,Tue Dec 09 2025 09:50:43 GMT-0600 (Central Standard Time),268137.6999999881,043_m_f_n_a.png,O,z,576,18,,1588.0,266549.6999999881,7721,NNB,A,17
0,test,5,1.0,1-Back,,,Tue Dec 09 2025 09:50:43 GMT-0600 (Central Standard Time),268137.6999999881,053_o_m_n_a.png,O,space,1922,1,,1588.0,266549.6999999881,7721,NNB,A,0
1,test,5,1.0,1-Back,1.0,z,Tue Dec 09 2025 09:50:43 GMT-0600 (Central Standard Time),274819.8000000119,053_o_m_n_a.png,O,z,1709,2,,2720.300000011921,272099.5,7721,NNB,A,1
2,test,5,0.0,1-Back,1.0,m,Tue Dec 09 2025 09:50:43 GMT-0600 (Central Standard Time),276401.90000003576,063_y_f_n_a.png,O,m,560,3,,1572.6000000238419,274829.3000000119,7721,NNB,A,2
3,test,5,0.0,1-Back,1.0,m,Tue Dec 09 2025 09:50:43 GMT-0600 (Central Standard Time),278103.5,041_y_m_n_a.png,O,m,684,4,,1691.300000011921,276412.1999999881,7721,NNB,A,3
4,test,5,0.0,1-Back,1.0,m,Tue Dec 09 2025 09:50:43 GMT-0600 (Central Standard Time),279801.3000000119,063_y_f_n_a.png,O,m,669,5,,1687.8999999761581,278113.40000003576,7721,NNB,A,4
5,test,5,0.0,1-Back,1.0,m,Tue Dec 09 2025 09:50:43 GMT-0600 (Central Standard Time),281483.0,058_m_m_n_a.png,O,m,656,6,,1672.5,279810.5,7721,NNB,A,5
6,test,5,1.0,1-Back,1.0,z,Tue Dec 09 2025 09:50:43 GMT-0600 (Central Standard Time),283033.1999999881,058_m_m_n_a.png,O,z,516,7,,1544.699999988079,281488.5,7721,NNB,A,6
7,test,5,0.0,1-Back,1.0,m,Tue Dec 09 2025 09:50:43 GMT-0600 (Central Standard Time),284534.0,010_y_f_n_a.png,O,m,481,8,,1490.800000011921,283043.1999999881,7721,NNB,A,7
8,test,5,0.0,1-Back,1.0,m,Tue Dec 09 2025 09:50:43 GMT-0600 (Central Standard Time),286081.6999999881,008_y_m_n_a.png,O,m,518,9,,1540.199999988079,284541.5,7721,NNB,A,8
9,test,5,0.0,1-Back,1.0,m,Tue Dec 09 2025 09:50:43 GMT-0600 (Central Standard Time),287749.5,010_y_f_n_a.png,O,m,649,10,,1658.300000011921,286091.1999999881,7721,NNB,A,9
10,test,5,0.0,1-Back,1.0,m,Tue Dec 09 2025 09:50:43 GMT-0600 (Central Standard Time),289314.5,047_o_f_n_a.png,O,m,543,11,,1556.3999999761581,287758.10000002384,7721,NNB,A,10
11,test,5,1.0,1-Back,1.0,z,Tue Dec 09 2025 09:50:43 GMT-0600 (Central Standard Time),290915.40000003576,047_o_f_n_a.png,O,z,576,12,,1591.1000000238419,289324.3000000119,7721,NNB,A,11
12,test,5,0.0,1-Back,1.0,m,Tue Dec 09 2025 09:50:43 GMT-0600 (Central Standard Time),292529.60000002384,046_o_m_n_a.png,O,m,585,13,,1606.0,290923.60000002384,7721,NNB,A,12
13,test,5,0.0,1-Back,1.0,m,Tue Dec 09 2025 09:50:43 GMT-0600 (Central Standard Time),294095.6999999881,050_m_f_n_a.png,O,m,545,14,,1556.0999999642372,292539.60000002384,7721,NNB,A,13
14,test,5,1.0,1-Back,1.0,z,Tue Dec 09 2025 09:50:43 GMT-0600 (Central Standard Time),295695.1999999881,050_m_f_n_a.png,O,z,579,15,,1590.5999999642372,294104.60000002384,7721,NNB,A,14
15,test,5,0.0,1-Back,1.0,m,Tue Dec 09 2025 09:50:43 GMT-0600 (Central Standard Time),297194.40000003576,046_o_m_n_a.png,O,m,468,16,,1490.1000000238419,295704.3000000119,7721,NNB,A,15
16,test,5,0.0,1-Back,1.0,m,Tue Dec 09 2025 09:50:43 GMT-0600 (Central Standard Time),298745.0,043_m_f_n_a.png,O,m,527,17,,1541.0999999642372,297203.90000003576,7721,NNB,A,16
17,test,5,0.0,1-Back,1.0,m,Tue Dec 09 2025 09:50:43 GMT-0600 (Central Standard Time),300243.90000003576,045_m_m_n_a.png,O,m,481,18,,1488.0,298755.90000003576,7721,NNB,A,17
0,prac,1,0.0,2-Back,,,Tue Dec 09 2025 09:50:43 GMT-0600 (Central Standard Time),300243.90000003576,008_y_m_n_a.png,O,space,7385,1,,1488.0,298755.90000003576,7721,NNB,A,0
0,prac,1,0.0,2-Back,,,Tue Dec 09 2025 09:50:43 GMT-0600 (Central Standard Time),300243.90000003576,043_m_f_n_a.png,O,space,7385,2,,1488.0,298755.90000003576,7721,NNB,A,0
1,prac,1,1.0,2-Back,1.0,m,Tue Dec 09 2025 09:50:43 GMT-0600 (Central Standard Time),407827.60000002384,046_o_m_n_a.png,O,m,511,3,,1305.300000011921,406522.3000000119,7721,NNB,A,1
2,prac,1,0.0,2-Back,1.0,m,Tue Dec 09 2025 09:50:43 GMT-0600 (Central Standard Time),409426.8000000119,047_o_f_n_a.png,O,m,773,4,,1587.5,407839.3000000119,7721,NNB,A,2
3,prac,1,0.0,2-Back,1.0,z,Tue Dec 09 2025 09:50:43 GMT-0600 (Central Standard Time),410926.0,046_o_m_n_a.png,O,z,718,5,,1488.5999999642372,409437.40000003576,7721,NNB,A,3
4,prac,1,1.0,2-Back,1.0,z,Tue Dec 09 2025 09:50:43 GMT-0600 (Central Standard Time),412774.8000000119,047_o_f_n_a.png,O,z,1067,6,,1838.699999988079,410936.10000002384,7721,NNB,A,4
5,prac,1,0.0,2-Back,1.0,m,Tue Dec 09 2025 09:50:43 GMT-0600 (Central Standard Time),414342.40000003576,045_m_m_n_a.png,O,m,775,7,,1556.5,412785.90000003576,7721,NNB,A,5
6,prac,1,0.0,2-Back,1.0,m,Tue Dec 09 2025 09:50:43 GMT-0600 (Central Standard Time),416275.40000003576,053_o_m_n_a.png,O,m,1125,8,,1922.0,414353.40000003576,7721,NNB,A,6
7,prac,1,0.0,2-Back,1.0,m,Tue Dec 09 2025 09:50:43 GMT-0600 (Central Standard Time),418106.40000003576,010_y_f_n_a.png,O,m,1044,9,,1818.9000000357628,416287.5,7721,NNB,A,7
8,prac,1,1.0,2-Back,1.0,z,Tue Dec 09 2025 09:50:43 GMT-0600 (Central Standard Time),419723.3000000119,053_o_m_n_a.png,O,z,830,10,,1605.800000011921,418117.5,7721,NNB,A,8
9,prac,1,0.0,2-Back,1.0,m,Tue Dec 09 2025 09:50:43 GMT-0600 (Central Standard Time),421656.3000000119,063_y_f_n_a.png,O,m,1118,11,,1921.6000000238419,419734.6999999881,7721,NNB,A,9
10,prac,1,0.0,2-Back,1.0,m,Tue Dec 09 2025 09:50:43 GMT-0600 (Central Standard Time),423388.6999999881,045_m_m_n_a.png,O,m,943,12,,1720.5,421668.1999999881,7721,NNB,A,10
0,test,1,0.0,2-Back,,,Tue Dec 09 2025 09:50:43 GMT-0600 (Central Standard Time),423388.6999999881,041_y_m_n_a.png,O,space,7564,1,,1720.5,421668.1999999881,7721,NNB,A,0
0,test,1,0.0,2-Back,,,Tue Dec 09 2025 09:50:43 GMT-0600 (Central Standard Time),423388.6999999881,041_y_m_n_a.png,O,space,7564,2,,1720.5,421668.1999999881,7721,NNB,A,0
1,test,1,0.0,2-Back,1.0,m,Tue Dec 09 2025 09:50:43 GMT-0600 (Central Standard Time),446197.1999999881,047_o_f_n_a.png,O,m,566,3,,1572.3999999761581,444624.8000000119,7721,NNB,A,1
2,test,1,0.0,2-Back,1.0,m,Tue Dec 09 2025 09:50:43 GMT-0600 (Central Standard Time),447880.0,058_m_m_n_a.png,O,m,660,4,,1673.5,446206.5,7721,NNB,A,2
3,test,1,1.0,2-Back,1.0,z,Tue Dec 09 2025 09:50:43 GMT-0600 (Central Standard Time),449363.3000000119,047_o_f_n_a.png,O,z,459,5,,1474.6000000238419,447888.6999999881,7721,NNB,A,3
4,test,1,0.0,2-Back,1.0,m,Tue Dec 09 2025 09:50:43 GMT-0600 (Central Standard Time),451063.60000002384,063_y_f_n_a.png,O,m,671,6,,1690.5,449373.10000002384,7721,NNB,A,4
4,test,1,0.0,2-Back,0.0,m,Tue Dec 09 2025 09:50:43 GMT-0600 (Central Standard Time),453062.6999999881,058_m_m_n_a.png,O,z,981,7,,1988.699999988079,451074.0,7721,NNB,A,5
4,test,1,1.0,2-Back,0.0,z,Tue Dec 09 2025 09:50:43 GMT-0600 (Central Standard Time),454761.0,063_y_f_n_a.png,O,m,669,8,,1688.5,453072.5,7721,NNB,A,6
5,test,1,0.0,2-Back,1.0,m,Tue Dec 09 2025 09:50:43 GMT-0600 (Central Standard Time),456612.5,008_y_m_n_a.png,O,m,833,9,,1842.300000011921,454770.1999999881,7721,NNB,A,7
6,test,1,0.0,2-Back,1.0,m,Tue Dec 09 2025 09:50:43 GMT-0600 (Central Standard Time),458927.6999999881,044_o_f_n_a.png,O,m,1295,10,,2307.199999988079,456620.5,7721,NNB,A,8
7,test,1,1.0,2-Back,1.0,z,Tue Dec 09 2025 09:50:43 GMT-0600 (Central Standard Time),461060.60000002384,008_y_m_n_a.png,O,z,1117,11,,2121.900000035763,458938.6999999881,7721,NNB,A,9
8,test,1,0.0,2-Back,1.0,m,Tue Dec 09 2025 09:50:43 GMT-0600 (Central Standard Time),463008.40000003576,043_m_f_n_a.png,O,m,927,12,,1938.0,461070.40000003576,7721,NNB,A,10
8,test,1,0.0,2-Back,0.0,m,Tue Dec 09 2025 09:50:43 GMT-0600 (Central Standard Time),466007.1999999881,043_m_f_n_a.png,O,z,1978,13,,2988.399999976158,463018.8000000119,7721,NNB,A,11
9,test,1,0.0,2-Back,1.0,m,Tue Dec 09 2025 09:50:43 GMT-0600 (Central Standard Time),467942.40000003576,046_o_m_n_a.png,O,m,908,14,,1925.7000000476837,466016.6999999881,7721,NNB,A,12
10,test,1,0.0,2-Back,1.0,m,Tue Dec 09 2025 09:50:43 GMT-0600 (Central Standard Time),470207.1999999881,044_o_f_n_a.png,O,m,1237,15,,2256.599999964237,467950.60000002384,7721,NNB,A,13
11,test,1,1.0,2-Back,1.0,z,Tue Dec 09 2025 09:50:43 GMT-0600 (Central Standard Time),472105.6999999881,046_o_m_n_a.png,O,z,868,16,,1888.2999999523163,470217.40000003576,7721,NNB,A,14
12,test,1,0.0,2-Back,1.0,m,Tue Dec 09 2025 09:50:43 GMT-0600 (Central Standard Time),474105.10000002384,050_m_f_n_a.png,O,m,968,17,,1989.4000000357628,472115.6999999881,7721,NNB,A,15
13,test,1,0.0,2-Back,1.0,m,Tue Dec 09 2025 09:50:43 GMT-0600 (Central Standard Time),475971.90000003576,045_m_m_n_a.png,O,m,842,18,,1857.2000000476837,474114.6999999881,7721,NNB,A,16
0,test,2,0.0,2-Back,,,Tue Dec 09 2025 09:50:43 GMT-0600 (Central Standard Time),475971.90000003576,045_m_m_n_a.png,O,space,1881,1,,1857.2000000476837,474114.6999999881,7721,NNB,A,0
0,test,2,0.0,2-Back,,,Tue Dec 09 2025 09:50:43 GMT-0600 (Central Standard Time),475971.90000003576,010_y_f_n_a.png,O,space,1881,2,,1857.2000000476837,474114.6999999881,7721,NNB,A,0
0,test,2,1.0,2-Back,0.0,z,Tue Dec 09 2025 09:50:43 GMT-0600 (Central Standard Time),484885.8000000119,045_m_m_n_a.png,O,m,905,3,,1923.0,482962.8000000119,7721,NNB,A,1
1,test,2,0.0,2-Back,1.0,m,Tue Dec 09 2025 09:50:43 GMT-0600 (Central Standard Time),487734.3000000119,050_m_f_n_a.png,O,m,1828,4,,2838.0,484896.3000000119,7721,NNB,A,2
1,test,2,0.0,2-Back,0.0,m,Tue Dec 09 2025 09:50:43 GMT-0600 (Central Standard Time),489683.5,010_y_f_n_a.png,O,z,923,5,,1938.3999999761581,487745.10000002384,7721,NNB,A,3
2,test,2,0.0,2-Back,1.0,m,Tue Dec 09 2025 09:50:43 GMT-0600 (Central Standard Time),491634.60000002384,046_o_m_n_a.png,O,m,919,6,,1939.4000000357628,489695.1999999881,7721,NNB,A,4
2,test,2,0.0,2-Back,0.0,m,Tue Dec 09 2025 09:50:43 GMT-0600 (Central Standard Time),493865.3000000119,063_y_f_n_a.png,O,z,1201,7,,2221.399999976158,491643.90000003576,7721,NNB,A,5
3,test,2,1.0,2-Back,1.0,z,Tue Dec 09 2025 09:50:43 GMT-0600 (Central Standard Time),496132.40000003576,046_o_m_n_a.png,O,z,1248,8,,2256.900000035763,493875.5,7721,NNB,A,6
4,test,2,0.0,2-Back,1.0,m,Tue Dec 09 2025 09:50:43 GMT-0600 (Central Standard Time),498116.90000003576,008_y_m_n_a.png,O,m,953,9,,1975.9000000357628,496141.0,7721,NNB,A,7
4,test,2,0.0,2-Back,0.0,m,Tue Dec 09 2025 09:50:43 GMT-0600 (Central Standard Time),500429.40000003576,008_y_m_n_a.png,O,z,1296,10,,2302.5,498126.90000003576,7721,NNB,A,8
5,test,2,0.0,2-Back,1.0,m,Tue Dec 09 2025 09:50:43 GMT-0600 (Central Standard Time),502447.1999999881,043_m_f_n_a.png,O,m,996,11,,2006.3999999761581,500440.8000000119,7721,NNB,A,9
6,test,2,0.0,2-Back,1.0,m,Tue Dec 09 2025 09:50:43 GMT-0600 (Central Standard Time),504429.40000003576,010_y_f_n_a.png,O,m,966,12,,1972.300000011921,502457.10000002384,7721,NNB,A,10
7,test,2,1.0,2-Back,1.0,z,Tue Dec 09 2025 09:50:43 GMT-0600 (Central Standard Time),506145.40000003576,043_m_f_n_a.png,O,z,686,13,,1703.800000011921,504441.60000002384,7721,NNB,A,11
8,test,2,0.0,2-Back,1.0,m,Tue Dec 09 2025 09:50:43 GMT-0600 (Central Standard Time),508010.3000000119,053_o_m_n_a.png,O,m,833,14,,1852.8999999761581,506157.40000003576,7721,NNB,A,12
8,test,2,0.0,2-Back,0.0,m,Tue Dec 09 2025 09:50:43 GMT-0600 (Central Standard Time),509993.3000000119,053_o_m_n_a.png,O,z,949,15,,1974.0,508019.3000000119,7721,NNB,A,13
9,test,2,0.0,2-Back,1.0,m,Tue Dec 09 2025 09:50:43 GMT-0600 (Central Standard Time),511910.1999999881,044_o_f_n_a.png,O,m,883,16,,1904.5,510005.6999999881,7721,NNB,A,14
10,test,2,0.0,2-Back,1.0,m,Tue Dec 09 2025 09:50:43 GMT-0600 (Central Standard Time),513892.10000002384,058_m_m_n_a.png,O,m,956,17,,1971.6000000238419,511920.5,7721,NNB,A,15
11,test,2,1.0,2-Back,1.0,z,Tue Dec 09 2025 09:50:43 GMT-0600 (Central Standard Time),516092.40000003576,044_o_f_n_a.png,O,z,1181,18,,2187.800000011921,513904.60000002384,7721,NNB,A,16
0,test,3,1.0,2-Back,,,Tue Dec 09 2025 09:50:43 GMT-0600 (Central Standard Time),516092.40000003576,041_y_m_n_a.png,O,space,1542,1,,2187.800000011921,513904.60000002384,7721,NNB,A,0
0,test,3,1.0,2-Back,,,Tue Dec 09 2025 09:50:43 GMT-0600 (Central Standard Time),516092.40000003576,041_y_m_n_a.png,O,space,1542,2,,2187.800000011921,513904.60000002384,7721,NNB,A,0
1,test,3,0.0,2-Back,1.0,m,Tue Dec 09 2025 09:50:43 GMT-0600 (Central Standard Time),524439.9000000358,044_o_f_n_a.png,O,m,695,3,,1708.4000000357628,522731.5,7721,NNB,A,1
2,test,3,0.0,2-Back,1.0,m,Tue Dec 09 2025 09:50:43 GMT-0600 (Central Standard Time),526222.1000000238,045_m_m_n_a.png,O,m,752,4,,1772.199999988079,524449.9000000358,7721,NNB,A,2
3,test,3,1.0,2-Back,1.0,z,Tue Dec 09 2025 09:50:43 GMT-0600 (Central Standard Time),528038.4000000358,044_o_f_n_a.png,O,z,788,5,,1806.5,526231.9000000358,7721,NNB,A,3
4,test,3,0.0,2-Back,1.0,m,Tue Dec 09 2025 09:50:43 GMT-0600 (Central Standard Time),529887.5,008_y_m_n_a.png,O,m,827,6,,1839.0,528048.5,7721,NNB,A,4
5,test,3,0.0,2-Back,1.0,m,Tue Dec 09 2025 09:50:43 GMT-0600 (Central Standard Time),532670.0,045_m_m_n_a.png,O,m,1766,7,,2772.699999988079,529897.3000000119,7721,NNB,A,5
5,test,3,1.0,2-Back,0.0,z,Tue Dec 09 2025 09:50:43 GMT-0600 (Central Standard Time),534919.5,008_y_m_n_a.png,O,m,1221,8,,2239.199999988079,532680.3000000119,7721,NNB,A,6
6,test,3,0.0,2-Back,1.0,m,Tue Dec 09 2025 09:50:43 GMT-0600 (Central Standard Time),536951.9000000358,010_y_f_n_a.png,O,m,1011,9,,2021.2000000476837,534930.6999999881,7721,NNB,A,7
7,test,3,0.0,2-Back,1.0,m,Tue Dec 09 2025 09:50:43 GMT-0600 (Central Standard Time),538851.6999999881,058_m_m_n_a.png,O,m,871,10,,1889.8999999761581,536961.8000000119,7721,NNB,A,8
7,test,3,1.0,2-Back,0.0,z,Tue Dec 09 2025 09:50:43 GMT-0600 (Central Standard Time),541166.9000000358,010_y_f_n_a.png,O,m,1287,11,,2304.100000023842,538862.8000000119,7721,NNB,A,9
7,test,3,1.0,2-Back,0.0,z,Tue Dec 09 2025 09:50:43 GMT-0600 (Central Standard Time),543085.9000000358,058_m_m_n_a.png,O,m,900,12,,1908.7000000476837,541177.1999999881,7721,NNB,A,10
8,test,3,0.0,2-Back,1.0,m,Tue Dec 09 2025 09:50:43 GMT-0600 (Central Standard Time),544999.4000000358,044_o_f_n_a.png,O,m,887,13,,1906.0,543093.4000000358,7721,NNB,A,11
9,test,3,0.0,2-Back,1.0,m,Tue Dec 09 2025 09:50:43 GMT-0600 (Central Standard Time),546998.9000000358,050_m_f_n_a.png,O,m,979,14,,1990.4000000357628,545008.5,7721,NNB,A,12
10,test,3,0.0,2-Back,1.0,m,Tue Dec 09 2025 09:50:43 GMT-0600 (Central Standard Time),549215.8000000119,046_o_m_n_a.png,O,m,1191,15,,2210.300000011921,547005.5,7721,NNB,A,13
11,test,3,1.0,2-Back,1.0,z,Tue Dec 09 2025 09:50:43 GMT-0600 (Central Standard Time),550830.8000000119,050_m_f_n_a.png,O,z,587,16,,1608.1000000238419,549222.6999999881,7721,NNB,A,14
12,test,3,0.0,2-Back,1.0,m,Tue Dec 09 2025 09:50:43 GMT-0600 (Central Standard Time),552562.4000000358,047_o_f_n_a.png,O,m,707,17,,1720.300000011921,550842.1000000238,7721,NNB,A,15
12,test,3,0.0,2-Back,0.0,m,Tue Dec 09 2025 09:50:43 GMT-0600 (Central Standard Time),554879.4000000358,047_o_f_n_a.png,O,z,1285,18,,2310.400000035763,552569.0,7721,NNB,A,16
0,test,4,0.0,2-Back,,,Tue Dec 09 2025 09:50:43 GMT-0600 (Central Standard Time),554879.4000000358,053_o_m_n_a.png,O,space,2227,1,,2310.400000035763,552569.0,7721,NNB,A,0
0,test,4,0.0,2-Back,,,Tue Dec 09 2025 09:50:43 GMT-0600 (Central Standard Time),554879.4000000358,063_y_f_n_a.png,O,space,2227,2,,2310.400000035763,552569.0,7721,NNB,A,0
0,test,4,1.0,2-Back,0.0,z,Tue Dec 09 2025 09:50:43 GMT-0600 (Central Standard Time),563927.0,053_o_m_n_a.png,O,m,694,3,,1705.3999999761581,562221.6000000238,7721,NNB,A,1
1,test,4,1.0,2-Back,1.0,z,Tue Dec 09 2025 09:50:43 GMT-0600 (Central Standard Time),565726.3000000119,063_y_f_n_a.png,O,z,772,4,,1788.699999988079,563937.6000000238,7721,NNB,A,2
2,test,4,0.0,2-Back,1.0,m,Tue Dec 09 2025 09:50:43 GMT-0600 (Central Standard Time),568043.1000000238,044_o_f_n_a.png,O,m,1293,5,,2306.600000023842,565736.5,7721,NNB,A,3
3,test,4,0.0,2-Back,1.0,m,Tue Dec 09 2025 09:50:43 GMT-0600 (Central Standard Time),570575.9000000358,044_o_f_n_a.png,O,m,1512,6,,2521.0,568054.9000000358,7721,NNB,A,4
4,test,4,0.0,2-Back,1.0,m,Tue Dec 09 2025 09:50:43 GMT-0600 (Central Standard Time),572657.8000000119,043_m_f_n_a.png,O,m,1052,7,,2074.399999976158,570583.4000000358,7721,NNB,A,5
5,test,4,0.0,2-Back,1.0,m,Tue Dec 09 2025 09:50:43 GMT-0600 (Central Standard Time),574524.3000000119,008_y_m_n_a.png,O,m,833,8,,1854.699999988079,572669.6000000238,7721,NNB,A,6
6,test,4,1.0,2-Back,1.0,z,Tue Dec 09 2025 09:50:43 GMT-0600 (Central Standard Time),576072.6000000238,043_m_f_n_a.png,O,z,527,9,,1536.800000011921,574535.8000000119,7721,NNB,A,7
7,test,4,0.0,2-Back,1.0,m,Tue Dec 09 2025 09:50:43 GMT-0600 (Central Standard Time),577989.1000000238,058_m_m_n_a.png,O,m,888,10,,1904.6000000238419,576084.5,7721,NNB,A,8
7,test,4,0.0,2-Back,0.0,m,Tue Dec 09 2025 09:50:43 GMT-0600 (Central Standard Time),580537.8000000119,008_y_m_n_a.png,O,z,1517,11,,2538.199999988079,577999.6000000238,7721,NNB,A,9
8,test,4,0.0,2-Back,1.0,m,Tue Dec 09 2025 09:50:43 GMT-0600 (Central Standard Time),582470.5,047_o_f_n_a.png,O,m,914,12,,1923.300000011921,580547.1999999881,7721,NNB,A,10
9,test,4,0.0,2-Back,1.0,m,Tue Dec 09 2025 09:50:43 GMT-0600 (Central Standard Time),584353.3000000119,041_y_m_n_a.png,O,m,849,13,,1871.800000011921,582481.5,7721,NNB,A,11
10,test,4,1.0,2-Back,1.0,z,Tue Dec 09 2025 09:50:43 GMT-0600 (Central Standard Time),586053.0,047_o_f_n_a.png,O,z,681,14,,1689.199999988079,584363.8000000119,7721,NNB,A,12
10,test,4,1.0,2-Back,0.0,z,Tue Dec 09 2025 09:50:43 GMT-0600 (Central Standard Time),588055.3000000119,041_y_m_n_a.png,O,m,984,15,,1989.6000000238419,586065.6999999881,7721,NNB,A,13
11,test,4,0.0,2-Back,1.0,m,Tue Dec 09 2025 09:50:43 GMT-0600 (Central Standard Time),590068.4000000358,045_m_m_n_a.png,O,m,991,16,,2002.2000000476837,588066.1999999881,7721,NNB,A,14
12,test,4,0.0,2-Back,1.0,m,Tue Dec 09 2025 09:50:43 GMT-0600 (Central Standard Time),592751.3000000119,050_m_f_n_a.png,O,m,1655,17,,2671.800000011921,590079.5,7721,NNB,A,15
12,test,4,1.0,2-Back,0.0,z,Tue Dec 09 2025 09:50:43 GMT-0600 (Central Standard Time),594733.6000000238,045_m_m_n_a.png,O,m,962,18,,1970.800000011921,592762.8000000119,7721,NNB,A,16
0,test,5,1.0,2-Back,,,Tue Dec 09 2025 09:50:43 GMT-0600 (Central Standard Time),594733.6000000238,041_y_m_n_a.png,O,space,1404,1,,1970.800000011921,592762.8000000119,7721,NNB,A,0
0,test,5,1.0,2-Back,,,Tue Dec 09 2025 09:50:43 GMT-0600 (Central Standard Time),594733.6000000238,050_m_f_n_a.png,O,space,1404,2,,1970.800000011921,592762.8000000119,7721,NNB,A,0
1,test,5,1.0,2-Back,1.0,z,Tue Dec 09 2025 09:50:43 GMT-0600 (Central Standard Time),603282.3000000119,041_y_m_n_a.png,O,z,1053,3,,2073.800000011921,601208.5,7721,NNB,A,1
2,test,5,1.0,2-Back,1.0,z,Tue Dec 09 2025 09:50:43 GMT-0600 (Central Standard Time),605630.5,050_m_f_n_a.png,O,z,1320,4,,2335.399999976158,603295.1000000238,7721,NNB,A,2
3,test,5,0.0,2-Back,1.0,m,Tue Dec 09 2025 09:50:43 GMT-0600 (Central Standard Time),607430.1999999881,047_o_f_n_a.png,O,m,773,5,,1789.199999988079,605641.0,7721,NNB,A,3
3,test,5,0.0,2-Back,0.0,m,Tue Dec 09 2025 09:50:43 GMT-0600 (Central Standard Time),610046.1999999881,041_y_m_n_a.png,O,z,1590,6,,2605.699999988079,607440.5,7721,NNB,A,4
4,test,5,0.0,2-Back,1.0,m,Tue Dec 09 2025 09:50:43 GMT-0600 (Central Standard Time),611994.5,010_y_f_n_a.png,O,m,922,7,,1936.8999999761581,610057.6000000238,7721,NNB,A,5
5,test,5,0.0,2-Back,1.0,m,Tue Dec 09 2025 09:50:43 GMT-0600 (Central Standard Time),614110.6999999881,047_o_f_n_a.png,O,m,1098,8,,2106.899999976158,612003.8000000119,7721,NNB,A,6
6,test,5,1.0,2-Back,1.0,z,Tue Dec 09 2025 09:50:43 GMT-0600 (Central Standard Time),615843.0,010_y_f_n_a.png,O,z,709,9,,1720.699999988079,614122.3000000119,7721,NNB,A,7
7,test,5,0.0,2-Back,1.0,m,Tue Dec 09 2025 09:50:43 GMT-0600 (Central Standard Time),617825.6999999881,046_o_m_n_a.png,O,m,950,10,,1972.5,615853.1999999881,7721,NNB,A,8
8,test,5,0.0,2-Back,1.0,m,Tue Dec 09 2025 09:50:43 GMT-0600 (Central Standard Time),619808.5,043_m_f_n_a.png,O,m,959,11,,1970.800000011921,617837.6999999881,7721,NNB,A,9
9,test,5,0.0,2-Back,1.0,m,Tue Dec 09 2025 09:50:43 GMT-0600 (Central Standard Time),621909.4000000358,058_m_m_n_a.png,O,m,1083,12,,2090.7000000476837,619818.6999999881,7721,NNB,A,10
9,test,5,0.0,2-Back,0.0,m,Tue Dec 09 2025 09:50:43 GMT-0600 (Central Standard Time),624207.1999999881,046_o_m_n_a.png,O,z,1279,13,,2286.699999988079,621920.5,7721,NNB,A,11
9,test,5,1.0,2-Back,0.0,z,Tue Dec 09 2025 09:50:43 GMT-0600 (Central Standard Time),626373.6000000238,058_m_m_n_a.png,O,m,1149,14,,2154.699999988079,624218.9000000358,7721,NNB,A,12
10,test,5,0.0,2-Back,1.0,m,Tue Dec 09 2025 09:50:43 GMT-0600 (Central Standard Time),628956.1999999881,063_y_f_n_a.png,O,m,1556,15,,2572.699999988079,626383.5,7721,NNB,A,13
11,test,5,0.0,2-Back,1.0,m,Tue Dec 09 2025 09:50:43 GMT-0600 (Central Standard Time),631088.8000000119,053_o_m_n_a.png,O,m,1102,16,,2121.199999988079,628967.6000000238,7721,NNB,A,14
12,test,5,0.0,2-Back,1.0,m,Tue Dec 09 2025 09:50:43 GMT-0600 (Central Standard Time),633453.8000000119,043_m_f_n_a.png,O,m,1341,17,,2354.300000011921,631099.5,7721,NNB,A,15
13,test,5,1.0,2-Back,1.0,z,Tue Dec 09 2025 09:50:43 GMT-0600 (Central Standard Time),634988.1999999881,053_o_m_n_a.png,O,z,517,18,,1522.699999988079,633465.5,7721,NNB,A,16
