acc_sum,block,block_c,condition,correct,correct_response,datetime,endtime,flanker,jitter,project,response,response_test_buffer_response,response_test_target_response,response_time,response_time_test_buffer_response,response_time_test_target_response,row_sel,session_number,start_end,starttime,subject_id,target,task,task_vers,time_test_buffer,time_test_buffer_response,time_test_constants,time_test_flanker,time_test_jitter,time_test_logger,time_test_target,time_test_target_response,time_test_variables,trial
1,prac,1,inc,1,z,Tue Mar 24 2026 10:29:33 GMT-0500 (Central Daylight Time),90934.19999980927,rock,900,O,z,,,625,,,10,1,2828.0,88106.19999980927,7777,kind,AF,B,,,,,,,,,,1
2,prac,1,con,1,z,Tue Mar 24 2026 10:29:33 GMT-0500 (Central Daylight Time),93716.89999985695,rage,1000,O,z,,,470,,,15,1,2777.2000000476837,90939.69999980927,7777,rage,AF,B,,,,,,,,,,2
3,prac,1,con,1,z,Tue Mar 24 2026 10:29:33 GMT-0500 (Central Daylight Time),96299.0,elated,800,O,z,,,479,,,9,1,2577.600000143051,93721.39999985695,7777,elated,AF,B,,,,,,,,,,3
4,prac,1,inc,1,m,Tue Mar 24 2026 10:29:33 GMT-0500 (Central Daylight Time),99232.59999990463,kind,900,O,m,,,717,,,2,1,2929.5,96303.09999990463,7777,rock,AF,B,,,,,,,,,,4
5,prac,1,inc,1,z,Tue Mar 24 2026 10:29:33 GMT-0500 (Central Daylight Time),102347.09999990463,window,1100,O,z,,,712,,,16,1,3109.7000000476837,99237.39999985695,7777,temper,AF,B,,,,,,,,,,5
6,prac,1,con,1,z,Tue Mar 24 2026 10:29:33 GMT-0500 (Central Daylight Time),105429.69999980927,love,1000,O,z,,,778,,,11,1,3077.5999999046326,102352.09999990463,7777,love,AF,B,,,,,,,,,,6
7,prac,1,con,1,m,Tue Mar 24 2026 10:29:33 GMT-0500 (Central Daylight Time),108112.0,jacket,800,O,m,,,566,,,5,1,2677.7000000476837,105434.29999995232,7777,jacket,AF,B,,,,,,,,,,7
8,prac,1,con,1,m,Tue Mar 24 2026 10:29:33 GMT-0500 (Central Daylight Time),111460.89999985695,remote,1000,O,m,,,1037,,,7,1,3344.399999856949,108116.5,7777,remote,AF,B,,,,,,,,,,8
9,prac,1,inc,1,m,Tue Mar 24 2026 10:29:33 GMT-0500 (Central Daylight Time),114326.59999990463,elated,900,O,m,,,651,,,6,1,2861.2999999523163,111465.29999995232,7777,napkin,AF,B,,,,,,,,,,9
10,prac,1,con,1,m,Tue Mar 24 2026 10:29:33 GMT-0500 (Central Daylight Time),117342.19999980927,step,800,O,m,,,876,,,1,1,3010.7999999523163,114331.39999985695,7777,step,AF,B,,,,,,,,,,10
11,prac,1,inc,1,m,Tue Mar 24 2026 10:29:33 GMT-0500 (Central Daylight Time),120441.69999980927,hate,1100,O,m,,,691,,,4,1,3094.199999809265,117347.5,7777,film,AF,B,,,,,,,,,,11
12,prac,1,inc,1,m,Tue Mar 24 2026 10:29:33 GMT-0500 (Central Daylight Time),123524.0,brutal,1100,O,m,,,670,,,8,1,3077.7000000476837,120446.29999995232,7777,window,AF,B,,,,,,,,,,12
13,prac,1,con,1,m,Tue Mar 24 2026 10:29:33 GMT-0500 (Central Daylight Time),126423.0,bell,1000,O,m,,,592,,,3,1,2894.9000000953674,123528.09999990463,7777,bell,AF,B,,,,,,,,,,13
14,prac,1,con,1,z,Tue Mar 24 2026 10:29:33 GMT-0500 (Central Daylight Time),129105.59999990463,brutal,800,O,z,,,573,,,13,1,2678.5999999046326,126427.0,7777,brutal,AF,B,,,,,,,,,,14
15,prac,1,inc,1,z,Tue Mar 24 2026 10:29:33 GMT-0500 (Central Daylight Time),132404.39999985695,napkin,1100,O,z,,,893,,,12,1,3294.7999999523163,129109.59999990463,7777,friend,AF,B,,,,,,,,,,15
16,prac,1,inc,1,z,Tue Mar 24 2026 10:29:33 GMT-0500 (Central Daylight Time),135320.19999980927,film,900,O,z,,,706,,,14,1,2911.7999999523163,132408.39999985695,7777,hate,AF,B,,,,,,,,,,16
1,test,1,con,1,z,Tue Mar 24 2026 10:29:33 GMT-0500 (Central Daylight Time),147916.29999995232,friend,800,O,z,z,None,681,481.0,200.0,25,1,2012.7000000476837,145903.59999990463,7777,friend,AF,B,141838,141838,140309,141122,140309,142321,141638,141638,142321,1
2,test,1,con,1,m,Tue Mar 24 2026 10:29:33 GMT-0500 (Central Daylight Time),149999.09999990463,jacket,900,O,m,m,None,644,444.0,200.0,98,1,2078.5999999046326,147920.5,7777,jacket,AF,B,143954,143954,142326,143238,142326,144404,143754,143754,144404,2
3,test,1,inc,1,z,Tue Mar 24 2026 10:29:33 GMT-0500 (Central Daylight Time),152181.69999980927,rock,900,O,z,z,None,746,545.0,201.0,54,1,2178.2999999523163,150003.39999985695,7777,rage,AF,B,146038,146038,144408,145322,144409,146587,145837,145837,146587,3
4,test,1,con,1,z,Tue Mar 24 2026 10:29:33 GMT-0500 (Central Daylight Time),154297.39999985695,kind,1000,O,z,z,None,566,351.0,215.0,11,1,2110.899999856949,152186.5,7777,kind,AF,B,148336,148336,146592,147603,146592,148703,148121,148121,148702,4
5,test,1,inc,1,z,Tue Mar 24 2026 10:29:33 GMT-0500 (Central Daylight Time),156463.39999985695,napkin,900,O,z,z,None,726,527.0,199.0,30,1,2162.0999999046326,154301.29999995232,7777,friend,AF,B,150336,150336,148706,149619,148707,150868,150136,150136,150868,5
6,test,1,con,1,z,Tue Mar 24 2026 10:29:33 GMT-0500 (Central Daylight Time),158947.09999990463,elated,1100,O,z,z,None,847,648.0,199.0,4,1,2479.5999999046326,156467.5,7777,elated,AF,B,152702,152702,150873,151985,150873,153352,152501,152502,153352,6
7,test,1,con,1,m,Tue Mar 24 2026 10:29:33 GMT-0500 (Central Daylight Time),161145.39999985695,window,1000,O,m,m,None,657,458.0,199.0,123,1,2193.899999856949,158951.5,7777,window,AF,B,155084,155084,153357,154368,153357,155550,154885,154885,155550,7
8,test,1,inc,1,z,Tue Mar 24 2026 10:29:33 GMT-0500 (Central Daylight Time),163178.29999995232,step,800,O,z,z,None,665,458.0,207.0,45,1,2028.9000000953674,161149.39999985695,7777,hate,AF,B,157117,157117,155554,156367,155555,157583,156910,156910,157583,8
9,test,1,inc,1,m,Tue Mar 24 2026 10:29:33 GMT-0500 (Central Daylight Time),165393.79999995232,love,1000,O,m,m,None,682,482.0,200.0,87,1,2211.4000000953674,163182.39999985695,7777,bell,AF,B,159316,159316,157587,158600,157588,159799,159116,159116,159799,9
10,test,1,con,1,m,Tue Mar 24 2026 10:29:33 GMT-0500 (Central Daylight Time),167743.29999995232,remote,900,O,m,m,None,911,711.0,200.0,114,1,2345.4000000953674,165397.89999985695,7777,remote,AF,B,161432,161432,159803,160716,159803,162148,161232,161232,162148,10
11,test,1,inc,1,z,Tue Mar 24 2026 10:29:33 GMT-0500 (Central Daylight Time),170092.5,window,1100,O,z,z,None,704,505.0,199.0,8,1,2344.9000000953674,167747.59999990463,7777,elated,AF,B,163981,163982,162153,163265,162153,164498,163782,163782,164498,11
12,test,1,con,1,z,Tue Mar 24 2026 10:29:33 GMT-0500 (Central Daylight Time),172491.89999985695,friend,1100,O,z,z,None,763,564.0,199.0,28,1,2395.0,170096.89999985695,7777,friend,AF,B,166330,166330,164502,165614,164502,166897,166131,166131,166897,12
13,test,1,inc,1,m,Tue Mar 24 2026 10:29:33 GMT-0500 (Central Daylight Time),174674.39999985695,love,1000,O,m,m,None,639,440.0,199.0,71,1,2178.7000000476837,172495.69999980927,7777,step,AF,B,168630,168630,166901,167914,166901,169080,168430,168430,169079,13
14,test,1,con,1,z,Tue Mar 24 2026 10:29:33 GMT-0500 (Central Daylight Time),176723.79999995232,temper,800,O,z,z,None,713,514.0,199.0,57,1,2045.2999999523163,174678.5,7777,temper,AF,B,170613,170613,169084,169896,169084,171129,170413,170413,171129,14
15,test,1,inc,1,m,Tue Mar 24 2026 10:29:33 GMT-0500 (Central Daylight Time),178673.5,elated,800,O,m,m,None,600,400.0,200.0,101,1,1945.7000000476837,176727.79999995232,7777,jacket,AF,B,172662,172662,171133,171946,171133,173079,172462,172462,173079,15
16,test,1,con,1,m,Tue Mar 24 2026 10:29:33 GMT-0500 (Central Daylight Time),180989.39999985695,rock,1000,O,m,m,None,772,572.0,200.0,75,1,2311.5,178677.89999985695,7777,rock,AF,B,174811,174811,173083,174095,173083,175395,174611,174611,175394,16
17,test,1,inc,1,z,Tue Mar 24 2026 10:29:33 GMT-0500 (Central Daylight Time),183338.39999985695,film,1100,O,z,z,None,708,508.0,200.0,16,1,2344.2999999523163,180994.09999990463,7777,kind,AF,B,177227,177227,175399,176511,175399,177743,177027,177027,177743,17
18,test,1,inc,1,m,Tue Mar 24 2026 10:29:33 GMT-0500 (Central Daylight Time),185754.5,rage,800,O,m,m,None,1073,874.0,199.0,69,1,2411.4000000953674,183343.09999990463,7777,step,AF,B,179277,179277,177748,178561,177748,180160,179077,179077,180160,18
18,test,1,con,0,m,Tue Mar 24 2026 10:29:33 GMT-0500 (Central Daylight Time),187954.0,rock,1100,O,z,z,None,559,359.0,200.0,76,1,2195.4000000953674,185758.59999990463,7777,rock,AF,B,181992,181992,180164,181276,180164,182359,181792,181792,182359,19
19,test,1,con,1,m,Tue Mar 24 2026 10:29:33 GMT-0500 (Central Daylight Time),190603.79999995232,film,1100,O,m,m,None,1014,815.0,199.0,92,1,2645.9000000953674,187957.89999985695,7777,film,AF,B,184191,184192,182363,183475,182363,185009,183992,183992,185009,20
20,test,1,inc,1,m,Tue Mar 24 2026 10:29:33 GMT-0500 (Central Daylight Time),192668.79999995232,brutal,900,O,m,m,None,621,421.0,200.0,102,1,2061.2000000476837,190607.59999990463,7777,jacket,AF,B,186641,186641,185013,185925,185013,187074,186441,186441,187074,21
21,test,1,con,1,m,Tue Mar 24 2026 10:29:33 GMT-0500 (Central Daylight Time),194918.0,bell,1000,O,m,m,None,703,503.0,200.0,83,1,2242.300000190735,192675.69999980927,7777,bell,AF,B,188807,188807,187081,188091,187081,189323,188607,188607,189323,22
22,test,1,con,1,z,Tue Mar 24 2026 10:29:33 GMT-0500 (Central Daylight Time),197034.29999995232,hate,800,O,z,z,None,774,575.0,199.0,41,1,2112.0,194922.29999995232,7777,hate,AF,B,190856,190856,189327,190140,189328,191439,190656,190657,191439,23
23,test,1,inc,1,m,Tue Mar 24 2026 10:29:33 GMT-0500 (Central Daylight Time),199066.59999990463,brutal,900,O,m,m,None,598,398.0,200.0,126,1,2027.7000000476837,197038.89999985695,7777,window,AF,B,193072,193072,191444,192356,191444,193472,192872,192872,193472,24
24,test,1,con,1,z,Tue Mar 24 2026 10:29:33 GMT-0500 (Central Daylight Time),201483.0,rage,1100,O,z,z,None,772,572.0,200.0,52,1,2412.600000143051,199070.39999985695,7777,rage,AF,B,195306,195306,193475,194588,193476,195888,195105,195105,195888,25
25,test,1,inc,1,z,Tue Mar 24 2026 10:29:33 GMT-0500 (Central Daylight Time),203632.09999990463,jacket,800,O,z,z,None,810,610.0,200.0,61,1,2145.0999999046326,201487.0,7777,temper,AF,B,197421,197421,195892,196704,195892,198037,197221,197221,198037,26
26,test,1,con,1,m,Tue Mar 24 2026 10:29:33 GMT-0500 (Central Daylight Time),205765.59999990463,napkin,800,O,m,m,None,795,595.0,200.0,105,1,2129.2999999523163,203636.29999995232,7777,napkin,AF,B,199570,199571,198041,198854,198042,200171,199370,199370,200171,27
27,test,1,inc,1,m,Tue Mar 24 2026 10:29:33 GMT-0500 (Central Daylight Time),208014.0,kind,900,O,m,m,None,811,611.0,200.0,70,1,2244.5,205769.5,7777,step,AF,B,201803,201803,200175,201086,200175,202419,201603,201603,202419,28
28,test,1,inc,1,z,Tue Mar 24 2026 10:29:33 GMT-0500 (Central Daylight Time),210163.19999980927,step,800,O,z,z,None,675,473.0,202.0,21,1,2145.2999999523163,208017.89999985695,7777,love,AF,B,204085,204085,202423,203236,202423,204568,203883,203883,204568,29
29,test,1,inc,1,m,Tue Mar 24 2026 10:29:33 GMT-0500 (Central Daylight Time),212412.69999980927,love,1000,O,m,m,None,704,505.0,199.0,95,1,2245.5,210167.19999980927,7777,film,AF,B,206302,206302,204572,205585,204572,206818,206102,206102,206818,30
30,test,1,inc,1,z,Tue Mar 24 2026 10:29:33 GMT-0500 (Central Daylight Time),214878.59999990463,remote,1000,O,z,z,None,927,712.0,215.0,7,1,2461.7000000476837,212416.89999985695,7777,elated,AF,B,208567,208567,206822,207835,206822,209284,208352,208352,209284,31
31,test,1,inc,1,z,Tue Mar 24 2026 10:29:33 GMT-0500 (Central Daylight Time),217211.0,remote,1000,O,z,z,None,798,599.0,199.0,31,1,2328.600000143051,214882.39999985695,7777,friend,AF,B,211016,211016,209287,210300,209288,211616,210817,210817,211616,32
32,test,1,inc,1,m,Tue Mar 24 2026 10:29:33 GMT-0500 (Central Daylight Time),219177.19999980927,elated,800,O,m,m,None,624,425.0,199.0,125,1,1962.6999998092651,217214.5,7777,window,AF,B,213149,213149,211620,212433,211620,213582,212950,212950,213582,33
33,test,1,con,1,z,Tue Mar 24 2026 10:29:33 GMT-0500 (Central Daylight Time),221427.69999980927,kind,900,O,z,z,None,814,614.0,200.0,10,1,2246.7999999523163,219180.89999985695,7777,kind,AF,B,215215,215216,213586,214499,213586,215833,215015,215015,215833,34
34,test,1,con,1,z,Tue Mar 24 2026 10:29:33 GMT-0500 (Central Daylight Time),223609.19999980927,friend,1000,O,z,z,None,641,441.0,200.0,27,1,2178.0999999046326,221431.09999990463,7777,friend,AF,B,217566,217566,215836,216848,215836,218014,217365,217365,218014,35
35,test,1,con,1,m,Tue Mar 24 2026 10:29:33 GMT-0500 (Central Daylight Time),225609.29999995232,window,800,O,m,m,None,667,467.0,200.0,121,1,1996.2000000476837,223613.09999990463,7777,window,AF,B,219547,219547,218018,218831,218019,220014,219347,219347,220014,36
36,test,1,inc,1,z,Tue Mar 24 2026 10:29:33 GMT-0500 (Central Daylight Time),227641.5,jacket,800,O,z,z,None,698,499.0,199.0,29,1,2028.5,225613.0,7777,friend,AF,B,221547,221547,220018,220830,220018,222047,221347,221347,222047,37
36,test,1,con,0,z,Tue Mar 24 2026 10:29:33 GMT-0500 (Central Daylight Time),229873.89999985695,brutal,1100,O,m,m,None,592,392.0,200.0,36,1,2228.7999999523163,227645.09999990463,7777,brutal,AF,B,223879,223879,222050,223163,222050,224279,223679,223679,224279,38
37,test,1,con,1,z,Tue Mar 24 2026 10:29:33 GMT-0500 (Central Daylight Time),232490.0,love,800,O,z,z,None,1267,1067.0,200.0,17,1,2612.2000000476837,229877.79999995232,7777,love,AF,B,225812,225812,224283,225095,224283,226895,225612,225612,226895,39
38,test,1,con,1,m,Tue Mar 24 2026 10:29:33 GMT-0500 (Central Daylight Time),234555.79999995232,remote,800,O,m,m,None,722,522.0,200.0,113,1,2061.7999999523163,232494.0,7777,remote,AF,B,228428,228428,226899,227713,226899,228961,228228,228228,228961,40
39,test,1,inc,1,m,Tue Mar 24 2026 10:29:33 GMT-0500 (Central Daylight Time),236771.69999980927,kind,900,O,m,m,None,772,573.0,199.0,86,1,2211.699999809265,234560.0,7777,bell,AF,B,230594,230594,228965,229878,228965,231177,230394,230394,231177,41
40,test,1,inc,1,m,Tue Mar 24 2026 10:29:33 GMT-0500 (Central Daylight Time),239221.0,hate,1100,O,m,m,None,812,612.0,200.0,72,1,2445.2000000476837,236775.79999995232,7777,step,AF,B,233010,233010,231181,232294,231181,233626,232810,232810,233626,42
41,test,1,inc,1,z,Tue Mar 24 2026 10:29:33 GMT-0500 (Central Daylight Time),241403.69999980927,jacket,800,O,z,z,None,839,639.0,200.0,5,1,2178.899999856949,239224.79999995232,7777,elated,AF,B,235159,235159,233630,234443,233630,235809,234959,234959,235809,43
42,test,1,con,1,m,Tue Mar 24 2026 10:29:33 GMT-0500 (Central Daylight Time),243253.09999990463,jacket,800,O,m,m,None,503,304.0,199.0,97,1,1845.7000000476837,241407.39999985695,7777,jacket,AF,B,237342,237342,235812,236626,235813,237658,237142,237142,237658,44
43,test,1,inc,1,z,Tue Mar 24 2026 10:29:33 GMT-0500 (Central Daylight Time),245569.09999990463,bell,1000,O,z,z,None,775,575.0,200.0,23,1,2312.2000000476837,243256.89999985695,7777,love,AF,B,239391,239391,237662,238675,237662,239974,239191,239191,239974,45
44,test,1,con,1,m,Tue Mar 24 2026 10:29:33 GMT-0500 (Central Daylight Time),247685.09999990463,film,800,O,m,m,None,772,572.0,200.0,89,1,2112.2000000476837,245572.89999985695,7777,film,AF,B,241507,241507,239978,240791,239978,242090,241307,241307,242090,46
45,test,1,inc,1,z,Tue Mar 24 2026 10:29:33 GMT-0500 (Central Daylight Time),250067.79999995232,window,1100,O,z,z,None,747,547.0,200.0,32,1,2378.7000000476837,247689.09999990463,7777,friend,AF,B,243923,243923,242094,243207,242094,244473,243723,243723,244473,47
46,test,1,inc,1,z,Tue Mar 24 2026 10:29:33 GMT-0500 (Central Daylight Time),252233.39999985695,napkin,900,O,z,z,None,724,524.0,200.0,62,1,2162.0,250071.39999985695,7777,temper,AF,B,246106,246106,244476,245389,244477,246639,245905,245905,246638,48
47,test,1,inc,1,z,Tue Mar 24 2026 10:29:33 GMT-0500 (Central Daylight Time),254416.19999980927,rock,900,O,z,z,None,733,534.0,199.0,22,1,2178.7999999523163,252237.39999985695,7777,love,AF,B,248271,248272,246642,247556,246643,248821,248072,248072,248821,49
48,test,1,con,1,m,Tue Mar 24 2026 10:29:33 GMT-0500 (Central Daylight Time),256789.09999990463,bell,1100,O,m,m,None,740,540.0,200.0,84,1,2369.0999999046326,254420.0,7777,bell,AF,B,250654,250654,248825,249938,248825,251194,250454,250454,251194,50
49,test,1,con,1,m,Tue Mar 24 2026 10:29:33 GMT-0500 (Central Daylight Time),258964.89999985695,jacket,1000,O,m,m,None,638,437.0,201.0,99,1,2170.5,256794.39999985695,7777,jacket,AF,B,252921,252921,251199,252203,251200,253370,252720,252720,253370,51
50,test,1,inc,1,m,Tue Mar 24 2026 10:29:33 GMT-0500 (Central Daylight Time),261164.39999985695,kind,900,O,m,m,None,756,556.0,200.0,94,1,2195.7000000476837,258968.69999980927,7777,film,AF,B,255003,255003,253374,254287,253374,255569,254803,254803,255569,52
51,test,1,con,1,z,Tue Mar 24 2026 10:29:33 GMT-0500 (Central Daylight Time),263580.09999990463,hate,1100,O,z,z,None,773,573.0,200.0,44,1,2412.2000000476837,261167.89999985695,7777,hate,AF,B,257402,257402,255573,256686,255573,257985,257202,257202,257985,53
52,test,1,con,1,m,Tue Mar 24 2026 10:29:33 GMT-0500 (Central Daylight Time),265929.19999980927,step,1000,O,m,m,None,816,616.0,200.0,67,1,2345.399999856949,263583.7999999523,7777,step,AF,B,259718,259718,257989,259001,257989,260334,259518,259518,260334,54
53,test,1,inc,1,m,Tue Mar 24 2026 10:29:33 GMT-0500 (Central Daylight Time),268178.5,temper,1000,O,m,m,None,715,515.0,200.0,119,1,2245.4000000953674,265933.09999990463,7777,remote,AF,B,262067,262067,260338,261351,260338,262584,261867,261867,262583,55
54,test,1,inc,1,m,Tue Mar 24 2026 10:29:33 GMT-0500 (Central Daylight Time),270428.09999990463,temper,1000,O,m,m,None,705,505.0,200.0,103,1,2246.0999999046326,268182.0,7777,jacket,AF,B,264317,264317,262587,263600,262587,264833,264117,264117,264833,56
55,test,1,inc,1,z,Tue Mar 24 2026 10:29:33 GMT-0500 (Central Daylight Time),272626.89999985695,bell,1000,O,z,z,None,665,465.0,200.0,15,1,2195.0,270431.89999985695,7777,kind,AF,B,266566,266566,264837,265849,264837,267032,266366,266366,267032,57
56,test,1,con,1,m,Tue Mar 24 2026 10:29:33 GMT-0500 (Central Daylight Time),274943.09999990463,window,1100,O,m,m,None,670,469.0,201.0,124,1,2312.0999999046326,272631.0,7777,window,AF,B,268866,268866,267036,268149,267036,269348,268665,268665,269348,58
57,test,1,con,1,z,Tue Mar 24 2026 10:29:33 GMT-0500 (Central Daylight Time),277209.09999990463,rage,1000,O,z,z,None,717,517.0,200.0,51,1,2261.7000000476837,274947.39999985695,7777,rage,AF,B,271081,271081,269352,270364,269353,271614,270881,270881,271614,59
58,test,1,inc,1,z,Tue Mar 24 2026 10:29:33 GMT-0500 (Central Daylight Time),279824.7999999523,window,1100,O,z,z,None,975,776.0,199.0,64,1,2611.9000000953674,277212.89999985695,7777,temper,AF,B,273447,273447,271618,272730,271618,274230,273248,273248,274230,60
59,test,1,con,1,z,Tue Mar 24 2026 10:29:33 GMT-0500 (Central Daylight Time),282007.7999999523,rage,900,O,z,z,None,744,544.0,200.0,50,1,2179.0,279828.7999999523,7777,rage,AF,B,275863,275863,274234,275146,274234,276413,275663,275663,276413,61
60,test,1,con,1,m,Tue Mar 24 2026 10:29:33 GMT-0500 (Central Daylight Time),283973.69999980927,step,800,O,m,m,None,619,420.0,199.0,65,1,1961.5999999046326,282012.09999990463,7777,step,AF,B,277946,277946,276417,277229,276417,278379,277746,277746,278379,62
61,test,1,con,1,m,Tue Mar 24 2026 10:29:33 GMT-0500 (Central Daylight Time),286289.69999980927,film,900,O,m,m,None,875,675.0,200.0,90,1,2312.0999999046326,283977.59999990463,7777,film,AF,B,280012,280012,278383,279295,278383,280695,279812,279812,280695,63
62,test,1,con,1,z,Tue Mar 24 2026 10:29:33 GMT-0500 (Central Daylight Time),288389.0,kind,1100,O,z,z,None,453,254.0,199.0,12,1,2095.7000000476837,286293.2999999523,7777,kind,AF,B,282528,282528,280698,281811,280699,282794,282328,282328,282794,64
63,test,1,inc,1,m,Tue Mar 24 2026 10:29:33 GMT-0500 (Central Daylight Time),290671.89999985695,friend,1100,O,m,m,None,636,436.0,200.0,104,1,2279.0999999046326,288392.7999999523,7777,jacket,AF,B,284627,284627,282798,283911,282798,285077,284427,284427,285077,65
64,test,1,con,1,m,Tue Mar 24 2026 10:29:33 GMT-0500 (Central Daylight Time),292854.19999980927,step,900,O,m,m,None,736,537.0,199.0,66,1,2178.5999999046326,290675.59999990463,7777,step,AF,B,286710,286710,285081,285994,285081,287259,286510,286510,287259,66
65,test,1,inc,1,z,Tue Mar 24 2026 10:29:33 GMT-0500 (Central Daylight Time),295253.5,window,1100,O,z,z,None,754,554.0,200.0,40,1,2395.5,292858.0,7777,brutal,AF,B,289092,289092,287263,288376,287263,289659,288892,288892,289658,67
66,test,1,con,1,m,Tue Mar 24 2026 10:29:33 GMT-0500 (Central Daylight Time),297369.39999985695,window,900,O,m,m,None,666,467.0,199.0,122,1,2112.399999856949,295257.0,7777,window,AF,B,291292,291292,289662,290575,289662,291775,291092,291092,291774,68
67,test,1,inc,1,z,Tue Mar 24 2026 10:29:33 GMT-0500 (Central Daylight Time),299685.59999990463,bell,1000,O,z,z,None,771,572.0,199.0,55,1,2312.5,297373.09999990463,7777,rage,AF,B,293507,293507,291778,292791,291779,294091,293308,293308,294091,69
68,test,1,inc,1,m,Tue Mar 24 2026 10:29:33 GMT-0500 (Central Daylight Time),302018.09999990463,friend,1100,O,m,m,None,692,492.0,200.0,112,1,2328.9000000953674,299689.19999980927,7777,napkin,AF,B,295923,295923,294094,295208,294094,296423,295723,295723,296423,70
69,test,1,inc,1,z,Tue Mar 24 2026 10:29:33 GMT-0500 (Central Daylight Time),304267.5,rock,900,O,z,z,None,807,607.0,200.0,46,1,2245.600000143051,302021.89999985695,7777,hate,AF,B,298056,298056,296427,297340,296427,298673,297856,297856,298672,71
70,test,1,con,1,z,Tue Mar 24 2026 10:29:33 GMT-0500 (Central Daylight Time),306600.0,hate,1000,O,z,z,None,793,593.0,200.0,43,1,2328.5,304271.5,7777,hate,AF,B,300406,300406,298677,299689,298677,301005,300205,300205,301005,72
71,test,1,inc,1,m,Tue Mar 24 2026 10:29:33 GMT-0500 (Central Daylight Time),308949.09999990463,friend,1100,O,m,m,None,705,505.0,200.0,120,1,2345.5999999046326,306603.5,7777,remote,AF,B,302838,302838,301009,302122,301009,303354,302638,302638,303354,73
72,test,1,inc,1,m,Tue Mar 24 2026 10:29:33 GMT-0500 (Central Daylight Time),311198.5,temper,1000,O,m,m,None,712,511.0,201.0,111,1,2245.600000143051,308952.89999985695,7777,napkin,AF,B,305088,305088,303358,304371,303358,305604,304887,304887,305603,74
73,test,1,con,1,m,Tue Mar 24 2026 10:29:33 GMT-0500 (Central Daylight Time),313314.5,napkin,1100,O,m,m,None,472,273.0,199.0,108,1,2112.5,311202.0,7777,napkin,AF,B,307437,307437,305607,306720,305607,307720,307237,307237,307720,75
74,test,1,con,1,z,Tue Mar 24 2026 10:29:33 GMT-0500 (Central Daylight Time),315297.2999999523,love,1000,O,z,z,None,440,241.0,199.0,19,1,1979.0,313318.2999999523,7777,love,AF,B,309453,309453,307723,308736,307724,309702,309253,309253,309702,76
75,test,1,inc,1,m,Tue Mar 24 2026 10:29:33 GMT-0500 (Central Daylight Time),317529.7999999523,hate,1100,O,m,m,None,583,383.0,200.0,96,1,2228.7999999523163,315301.0,7777,film,AF,B,311535,311535,309706,310819,309706,311935,311335,311335,311935,77
76,test,1,con,1,z,Tue Mar 24 2026 10:29:33 GMT-0500 (Central Daylight Time),319579.09999990463,brutal,900,O,z,z,None,614,413.0,201.0,34,1,2045.5,317533.59999990463,7777,brutal,AF,B,313569,313569,311939,312852,311939,313984,313368,313368,313984,78
76,test,1,inc,0,z,Tue Mar 24 2026 10:29:33 GMT-0500 (Central Daylight Time),321662.0,napkin,900,O,m,m,None,637,437.0,200.0,6,1,2079.300000190735,319582.69999980927,7777,elated,AF,B,315617,315617,313988,314901,313988,316067,315417,315417,316067,79
77,test,1,inc,1,m,Tue Mar 24 2026 10:29:33 GMT-0500 (Central Daylight Time),323745.19999980927,kind,900,O,m,m,None,650,450.0,200.0,78,1,2079.5999999046326,321665.59999990463,7777,rock,AF,B,317700,317700,316071,316983,316071,318150,317500,317500,318150,80
78,test,1,inc,1,m,Tue Mar 24 2026 10:29:33 GMT-0500 (Central Daylight Time),326093.89999985695,hate,1100,O,m,m,None,711,496.0,215.0,88,1,2345.2000000476837,323748.69999980927,7777,bell,AF,B,319999,319999,318154,319266,318154,320499,319784,319784,320499,81
79,test,1,con,1,z,Tue Mar 24 2026 10:29:33 GMT-0500 (Central Daylight Time),328609.69999980927,brutal,1000,O,z,z,None,982,782.0,200.0,35,1,2511.899999856949,326097.7999999523,7777,brutal,AF,B,322232,322232,320503,321515,320503,323015,322032,322032,323015,82
80,test,1,inc,1,m,Tue Mar 24 2026 10:29:33 GMT-0500 (Central Daylight Time),330725.69999980927,brutal,900,O,m,m,None,678,478.0,200.0,118,1,2112.199999809265,328613.5,7777,remote,AF,B,324649,324649,323019,323931,323019,325131,324448,324448,325131,83
81,test,1,con,1,z,Tue Mar 24 2026 10:29:33 GMT-0500 (Central Daylight Time),332824.89999985695,rage,800,O,z,z,None,759,559.0,200.0,49,1,2095.399999856949,330729.5,7777,rage,AF,B,326664,326664,325135,325947,325135,327230,326464,326464,327230,84
82,test,1,con,1,m,Tue Mar 24 2026 10:29:33 GMT-0500 (Central Daylight Time),335224.39999985695,jacket,1100,O,m,m,None,759,559.0,200.0,100,1,2395.2000000476837,332829.19999980927,7777,jacket,AF,B,329063,329063,327234,328347,327235,329630,328863,328863,329629,85
83,test,1,inc,1,z,Tue Mar 24 2026 10:29:33 GMT-0500 (Central Daylight Time),337573.59999990463,film,1100,O,z,z,None,712,513.0,199.0,56,1,2345.5,335228.09999990463,7777,rage,AF,B,331462,331462,329633,330746,329633,331979,331263,331263,331979,86
84,test,1,inc,1,m,Tue Mar 24 2026 10:29:33 GMT-0500 (Central Daylight Time),339889.39999985695,friend,1100,O,m,m,None,666,467.0,199.0,128,1,2312.0,337577.39999985695,7777,window,AF,B,333811,333811,331982,333095,331983,334295,333612,333612,334294,87
85,test,1,inc,1,m,Tue Mar 24 2026 10:29:33 GMT-0500 (Central Daylight Time),342488.69999980927,love,1000,O,m,m,None,1058,843.0,215.0,79,1,2595.5999999046326,339893.09999990463,7777,rock,AF,B,336044,336044,334298,335311,334298,336894,335829,335829,336894,88
86,test,1,inc,1,m,Tue Mar 24 2026 10:29:33 GMT-0500 (Central Daylight Time),344588.19999980927,brutal,900,O,m,m,None,663,463.0,200.0,110,1,2095.7999999523163,342492.39999985695,7777,napkin,AF,B,338527,338527,336897,337810,336898,338993,338327,338327,338993,89
87,test,1,inc,1,m,Tue Mar 24 2026 10:29:33 GMT-0500 (Central Daylight Time),346804.09999990463,rage,800,O,m,m,None,881,681.0,200.0,93,1,2212.2999999523163,344591.7999999523,7777,film,AF,B,340526,340526,338997,339810,338997,341209,340326,340326,341209,90
88,test,1,con,1,z,Tue Mar 24 2026 10:29:33 GMT-0500 (Central Daylight Time),349153.39999985695,kind,800,O,z,z,None,1008,808.0,200.0,9,1,2345.7000000476837,346807.69999980927,7777,kind,AF,B,342742,342742,341213,342026,341213,343559,342542,342542,343558,91
89,test,1,inc,1,m,Tue Mar 24 2026 10:29:33 GMT-0500 (Central Daylight Time),351152.5,rage,800,O,m,m,None,659,459.0,200.0,85,1,1995.2000000476837,349157.2999999523,7777,bell,AF,B,345091,345091,343562,344375,343563,345558,344891,344891,345557,92
90,test,1,con,1,z,Tue Mar 24 2026 10:29:33 GMT-0500 (Central Daylight Time),353268.59999990463,love,900,O,z,z,None,680,480.0,200.0,18,1,2112.5,351156.09999990463,7777,love,AF,B,347191,347191,345561,346474,345561,347674,346991,346991,347674,93
91,test,1,con,1,m,Tue Mar 24 2026 10:29:33 GMT-0500 (Central Daylight Time),355251.59999990463,bell,800,O,m,m,None,639,440.0,199.0,81,1,1979.2000000476837,353272.39999985695,7777,bell,AF,B,349207,349207,347677,348490,347678,349657,349007,349007,349657,94
92,test,1,inc,1,z,Tue Mar 24 2026 10:29:33 GMT-0500 (Central Daylight Time),357267.39999985695,step,800,O,z,z,None,672,473.0,199.0,53,1,2012.0,355255.39999985695,7777,rage,AF,B,351190,351190,349660,350473,349661,351672,350989,350990,351672,95
93,test,1,inc,1,z,Tue Mar 24 2026 10:29:33 GMT-0500 (Central Daylight Time),359483.5,remote,1000,O,z,z,None,681,481.0,200.0,39,1,2212.2000000476837,357271.2999999523,7777,brutal,AF,B,353405,353405,351676,352690,351676,353889,353205,353205,353889,96
94,test,1,con,1,m,Tue Mar 24 2026 10:29:33 GMT-0500 (Central Daylight Time),361999.2999999523,film,1000,O,m,m,None,976,777.0,199.0,91,1,2511.100000143051,359488.19999980927,7777,film,AF,B,355622,355622,353893,354905,353893,356404,355422,355422,356404,97
95,test,1,con,1,z,Tue Mar 24 2026 10:29:33 GMT-0500 (Central Daylight Time),364065.39999985695,hate,900,O,z,z,None,617,417.0,200.0,42,1,2062.2999999523163,362003.09999990463,7777,hate,AF,B,358037,358037,356408,357321,356408,358471,357837,357837,358470,98
96,test,1,inc,1,z,Tue Mar 24 2026 10:29:33 GMT-0500 (Central Daylight Time),366597.7999999523,remote,1000,O,z,z,None,986,787.0,199.0,63,1,2528.7000000476837,364069.09999990463,7777,temper,AF,B,360204,360204,358474,359487,358474,361003,360004,360004,361003,99
97,test,1,inc,1,z,Tue Mar 24 2026 10:29:33 GMT-0500 (Central Daylight Time),368547.0,jacket,800,O,z,z,None,614,415.0,199.0,37,1,1945.5,366601.5,7777,brutal,AF,B,362536,362536,361006,361820,361007,362952,362336,362336,362952,100
98,test,1,inc,1,z,Tue Mar 24 2026 10:29:33 GMT-0500 (Central Daylight Time),370913.09999990463,rock,900,O,z,z,None,916,715.0,201.0,14,1,2362.7000000476837,368550.39999985695,7777,kind,AF,B,364587,364587,362955,363869,362956,365318,364385,364385,365318,101
99,test,1,con,1,m,Tue Mar 24 2026 10:29:33 GMT-0500 (Central Daylight Time),373212.09999990463,step,1100,O,m,m,None,677,462.0,215.0,68,1,2295.0,370917.09999990463,7777,step,AF,B,367152,367152,365322,366435,365322,367617,366936,366936,367617,102
100,test,1,con,1,m,Tue Mar 24 2026 10:29:33 GMT-0500 (Central Daylight Time),375395.0,napkin,900,O,m,m,None,696,491.0,205.0,106,1,2179.5,373215.5,7777,napkin,AF,B,369300,369300,367621,368534,367621,369800,369095,369095,369800,103
101,test,1,con,1,z,Tue Mar 24 2026 10:29:33 GMT-0500 (Central Daylight Time),377794.09999990463,temper,1100,O,z,z,None,765,566.0,199.0,60,1,2395.4000000953674,375398.69999980927,7777,temper,AF,B,371633,371633,369804,370917,369804,372199,371434,371434,372199,104
102,test,1,inc,1,z,Tue Mar 24 2026 10:29:33 GMT-0500 (Central Daylight Time),380060.09999990463,step,800,O,z,z,None,945,746.0,199.0,13,1,2262.4000000953674,377797.69999980927,7777,kind,AF,B,373716,373717,372203,373016,372203,374465,373517,373517,374465,105
103,test,1,con,1,z,Tue Mar 24 2026 10:29:33 GMT-0500 (Central Daylight Time),382093.19999980927,elated,1000,O,z,z,None,496,297.0,199.0,3,1,2029.5999999046326,380063.59999990463,7777,elated,AF,B,376198,376198,374469,375482,374469,376498,375999,375999,376498,106
104,test,1,con,1,z,Tue Mar 24 2026 10:29:33 GMT-0500 (Central Daylight Time),384142.5,friend,900,O,z,z,None,603,403.0,200.0,26,1,2045.4000000953674,382097.09999990463,7777,friend,AF,B,378131,378131,376502,377415,376502,378548,377931,377931,378547,107
105,test,1,con,1,z,Tue Mar 24 2026 10:29:33 GMT-0500 (Central Daylight Time),386192.0,temper,1000,O,z,z,None,510,310.0,200.0,59,1,2045.8000001907349,384146.19999980927,7777,temper,AF,B,380281,380281,378551,379564,378551,380597,380080,380080,380597,108
105,test,1,con,0,m,Tue Mar 24 2026 10:29:33 GMT-0500 (Central Daylight Time),388607.5,remote,1100,O,z,z,None,767,568.0,199.0,116,1,2411.7000000476837,386195.7999999523,7777,remote,AF,B,382430,382430,380601,381713,380601,383013,382230,382230,383012,109
106,test,1,inc,1,m,Tue Mar 24 2026 10:29:33 GMT-0500 (Central Daylight Time),390723.69999980927,rage,800,O,m,m,None,779,564.0,215.0,77,1,2112.2999999523163,388611.39999985695,7777,rock,AF,B,384563,384563,383016,383830,383017,385129,384347,384347,385129,110
107,test,1,con,1,m,Tue Mar 24 2026 10:29:33 GMT-0500 (Central Daylight Time),393089.2999999523,remote,1000,O,m,m,None,848,649.0,199.0,115,1,2361.7000000476837,390727.59999990463,7777,remote,AF,B,386845,386845,385133,386145,385133,387494,386646,386646,387494,111
108,test,1,inc,1,m,Tue Mar 24 2026 10:29:33 GMT-0500 (Central Daylight Time),395122.09999990463,elated,800,O,m,m,None,689,490.0,199.0,117,1,2028.9000000953674,393093.19999980927,7777,remote,AF,B,389028,389028,387498,388311,387499,389527,388828,388828,389527,112
109,test,1,con,1,z,Tue Mar 24 2026 10:29:33 GMT-0500 (Central Daylight Time),397122.09999990463,elated,800,O,z,z,None,658,458.0,200.0,1,1,1996.2999999523163,395125.7999999523,7777,elated,AF,B,391061,391061,389531,390344,389531,391527,390860,390860,391527,113
110,test,1,inc,1,z,Tue Mar 24 2026 10:29:33 GMT-0500 (Central Daylight Time),399354.0,film,1100,O,z,z,None,608,408.0,200.0,24,1,2228.300000190735,397125.69999980927,7777,love,AF,B,393343,393343,391531,392636,391531,393759,393143,393143,393759,114
111,test,1,inc,1,z,Tue Mar 24 2026 10:29:33 GMT-0500 (Central Daylight Time),401686.89999985695,film,1100,O,z,z,None,687,487.0,200.0,48,1,2327.0999999046326,399359.7999999523,7777,hate,AF,B,395592,395592,393765,394876,393765,396092,395392,395392,396092,115
112,test,1,con,1,z,Tue Mar 24 2026 10:29:33 GMT-0500 (Central Daylight Time),403952.89999985695,elated,900,O,z,z,None,817,617.0,200.0,2,1,2262.2000000476837,401690.69999980927,7777,elated,AF,B,397725,397725,396096,397010,396096,398358,397525,397525,398358,116
113,test,1,con,1,m,Tue Mar 24 2026 10:29:33 GMT-0500 (Central Daylight Time),406168.69999980927,bell,900,O,m,m,None,767,566.0,201.0,82,1,2211.5,403957.19999980927,7777,bell,AF,B,399992,399992,398362,399274,398362,400574,399791,399791,400574,117
114,test,1,con,1,m,Tue Mar 24 2026 10:29:33 GMT-0500 (Central Daylight Time),408468.09999990463,napkin,1000,O,m,m,None,755,554.0,201.0,107,1,2295.7999999523163,406172.2999999523,7777,napkin,AF,B,402308,402308,400577,401591,400578,402873,402107,402107,402873,118
115,test,1,con,1,z,Tue Mar 24 2026 10:29:33 GMT-0500 (Central Daylight Time),410600.59999990463,love,1100,O,z,z,None,484,284.0,200.0,20,1,2129.0,408471.59999990463,7777,love,AF,B,404706,404706,402877,403990,402877,405006,404506,404506,405006,119
116,test,1,con,1,m,Tue Mar 24 2026 10:29:33 GMT-0500 (Central Daylight Time),412566.69999980927,rock,800,O,m,m,None,620,420.0,200.0,73,1,1962.5,410604.19999980927,7777,rock,AF,B,406539,406539,405009,405822,405009,406972,406339,406339,406972,120
117,test,1,con,1,z,Tue Mar 24 2026 10:29:33 GMT-0500 (Central Daylight Time),414749.69999980927,temper,900,O,z,z,None,745,545.0,200.0,58,1,2179.0999999046326,412570.59999990463,7777,temper,AF,B,408605,408605,406976,407888,406976,409155,408405,408405,409155,121
118,test,1,inc,1,z,Tue Mar 24 2026 10:29:33 GMT-0500 (Central Daylight Time),416915.59999990463,napkin,900,O,z,z,None,730,530.0,200.0,38,1,2162.0,414753.59999990463,7777,brutal,AF,B,410788,410788,409159,410071,409159,411321,410587,410587,411321,122
119,test,1,inc,1,m,Tue Mar 24 2026 10:29:33 GMT-0500 (Central Daylight Time),419081.59999990463,temper,1000,O,m,m,None,631,416.0,215.0,127,1,2162.4000000953674,416919.19999980927,7777,window,AF,B,413070,413070,411324,412337,411324,413487,412855,412855,413487,123
120,test,1,con,1,m,Tue Mar 24 2026 10:29:33 GMT-0500 (Central Daylight Time),421247.39999985695,rock,900,O,m,m,None,726,527.0,199.0,74,1,2162.2999999523163,419085.09999990463,7777,rock,AF,B,415120,415120,413490,414403,413490,415652,414920,414920,415652,124
121,test,1,inc,1,m,Tue Mar 24 2026 10:29:33 GMT-0500 (Central Daylight Time),423446.5,hate,1100,O,m,m,None,560,361.0,199.0,80,1,2195.5,421251.0,7777,rock,AF,B,417486,417486,415656,416769,415656,417852,417286,417286,417852,125
122,test,1,inc,1,z,Tue Mar 24 2026 10:29:33 GMT-0500 (Central Daylight Time),425712.5,bell,1000,O,z,z,None,717,517.0,200.0,47,1,2262.2000000476837,423450.2999999523,7777,hate,AF,B,419585,419585,417855,418869,417856,420118,419385,419385,420118,126
123,test,1,con,1,z,Tue Mar 24 2026 10:29:33 GMT-0500 (Central Daylight Time),427812.09999990463,brutal,800,O,z,z,None,755,555.0,200.0,33,1,2095.7999999523163,425716.2999999523,7777,brutal,AF,B,421651,421651,420121,420934,420121,422217,421451,421451,422217,127
124,test,1,inc,1,m,Tue Mar 24 2026 10:29:33 GMT-0500 (Central Daylight Time),429744.89999985695,elated,800,O,m,m,None,584,384.0,200.0,109,1,1929.0999999046326,427815.7999999523,7777,napkin,AF,B,423750,423750,422221,423034,422221,424150,423550,423550,424150,128
