acc_sum,block,block_c,block_cond,con_img,correct,correct_response,datetime,endtime,face,jitter,line,project,response,response_time,row_sel,session_number,start_end,starttime,subject_id,task,task_vers,trial
0,prac,1,A,haborder.png,0,z,Thu Jul 24 2025 17:28:10 GMT-0500 (Central Daylight Time),39594.700000000186,CFD-WM-009-009-A.jpg,1900,solid,I,None,1516,8,2,4198.5999999996275,35396.10000000056,8053,ATS,B,1
1,prac,1,A,haborder.png,1,m,Thu Jul 24 2025 17:28:10 GMT-0500 (Central Daylight Time),42777.200000000186,CFD-WF-011-006-HC.jpg,1500,solid,I,m,890,11,2,7381.0999999996275,35396.10000000056,8053,ATS,B,2
2,prac,1,A,haborder.png,1,z,Thu Jul 24 2025 17:28:10 GMT-0500 (Central Daylight Time),46020.40000000037,CFD-WF-026-008-A.jpg,1600,solid,I,z,743,10,2,10624.299999999814,35396.10000000056,8053,ATS,B,3
3,prac,1,A,haborder.png,1,m,Thu Jul 24 2025 17:28:10 GMT-0500 (Central Daylight Time),49175.10000000056,CFD-BM-020-024-HC.jpg,1500,solid,I,m,851,3,2,13779.0,35396.10000000056,8053,ATS,B,4
4,prac,1,A,haborder.png,1,m,Thu Jul 24 2025 17:28:10 GMT-0500 (Central Daylight Time),52673.90000000037,CFD-BF-035-007-HC.jpg,2000,solid,I,m,705,5,2,17277.799999999814,35396.10000000056,8053,ATS,B,5
5,prac,1,A,haborder.png,1,z,Thu Jul 24 2025 17:28:10 GMT-0500 (Central Daylight Time),55106.700000000186,CFD-BF-051-043-A.jpg,1000,solid,I,z,638,4,2,19710.599999999627,35396.10000000056,8053,ATS,B,6
6,prac,1,A,haborder.png,1,m,Thu Jul 24 2025 17:28:10 GMT-0500 (Central Daylight Time),58239.10000000056,CFD-WM-011-006-HC.jpg,1400,solid,I,m,934,7,2,22843.0,35396.10000000056,8053,ATS,B,7
7,prac,1,A,haborder.png,1,z,Thu Jul 24 2025 17:28:10 GMT-0500 (Central Daylight Time),61288.0,CFD-BM-037-041-A.jpg,1600,solid,I,z,665,2,2,25891.89999999944,35396.10000000056,8053,ATS,B,8
8,prac,1,A,haborder.png,1,z,Thu Jul 24 2025 17:28:10 GMT-0500 (Central Daylight Time),64020.5,CFD-BF-050-012-A.jpg,1200,solid,I,z,736,6,2,28624.39999999944,35396.10000000056,8053,ATS,B,9
9,prac,1,A,haborder.png,1,z,Thu Jul 24 2025 17:28:10 GMT-0500 (Central Daylight Time),66736.10000000056,CFD-WF-013-015-A.jpg,1000,solid,I,z,932,12,2,31340.0,35396.10000000056,8053,ATS,B,10
10,prac,1,A,haborder.png,1,m,Thu Jul 24 2025 17:28:10 GMT-0500 (Central Daylight Time),70185.20000000019,CFD-WM-012-007-HC.jpg,1700,solid,I,m,970,9,2,34789.09999999963,35396.10000000056,8053,ATS,B,11
11,prac,1,A,haborder.png,1,m,Thu Jul 24 2025 17:28:10 GMT-0500 (Central Daylight Time),73717.70000000019,CFD-BM-015-017-HC.jpg,1700,solid,I,m,1035,1,2,38321.59999999963,35396.10000000056,8053,ATS,B,12
0,prac,1,B,mfborder.png,0,m,Thu Jul 24 2025 17:28:10 GMT-0500 (Central Daylight Time),93344.5,CFD-WM-037-060-A.jpg,1200,dash,I,None,1516,6,2,3499.0,89845.5,8053,ATS,B,1
1,prac,1,B,mfborder.png,1,z,Thu Jul 24 2025 17:28:10 GMT-0500 (Central Daylight Time),96377.10000000056,CFD-BF-027-013-HC.jpg,1500,dash,I,z,740,3,2,6531.600000000559,89845.5,8053,ATS,B,2
2,prac,1,B,mfborder.png,1,m,Thu Jul 24 2025 17:28:10 GMT-0500 (Central Daylight Time),99592.60000000056,CFD-BM-020-024-HC.jpg,1700,dash,I,m,724,1,2,9747.100000000559,89845.5,8053,ATS,B,3
3,prac,1,B,mfborder.png,1,z,Thu Jul 24 2025 17:28:10 GMT-0500 (Central Daylight Time),102508.40000000037,CFD-WF-026-008-A.jpg,1500,dash,I,z,620,11,2,12662.900000000373,89845.5,8053,ATS,B,4
3,prac,1,B,mfborder.png,0,z,Thu Jul 24 2025 17:28:10 GMT-0500 (Central Daylight Time),106090.70000000019,CFD-WF-027-007-HC.jpg,1900,dash,I,m,896,8,2,16245.200000000186,89845.5,8053,ATS,B,5
4,prac,1,B,mfborder.png,1,m,Thu Jul 24 2025 17:28:10 GMT-0500 (Central Daylight Time),109339.5,CFD-WM-009-009-A.jpg,1700,dash,I,m,754,9,2,19494.0,89845.5,8053,ATS,B,6
5,prac,1,B,mfborder.png,1,m,Thu Jul 24 2025 17:28:10 GMT-0500 (Central Daylight Time),112788.40000000037,CFD-WM-012-007-HC.jpg,1600,dash,I,m,1053,10,2,22942.900000000373,89845.5,8053,ATS,B,7
6,prac,1,B,mfborder.png,1,m,Thu Jul 24 2025 17:28:10 GMT-0500 (Central Daylight Time),115971.10000000056,CFD-BM-041-048-A.jpg,1600,dash,I,m,796,2,2,26125.60000000056,89845.5,8053,ATS,B,8
7,prac,1,B,mfborder.png,1,z,Thu Jul 24 2025 17:28:10 GMT-0500 (Central Daylight Time),118953.40000000037,CFD-BF-035-007-HC.jpg,1400,dash,I,z,798,7,2,29107.900000000373,89845.5,8053,ATS,B,9
8,prac,1,B,mfborder.png,1,z,Thu Jul 24 2025 17:28:10 GMT-0500 (Central Daylight Time),121335.80000000075,CFD-WF-011-006-HC.jpg,1000,dash,I,z,591,12,2,31490.300000000745,89845.5,8053,ATS,B,10
8,prac,1,B,mfborder.png,0,z,Thu Jul 24 2025 17:28:10 GMT-0500 (Central Daylight Time),124634.5,CFD-BF-051-043-A.jpg,1000,dash,I,None,1515,4,2,34789.0,89845.5,8053,ATS,B,11
9,prac,1,B,mfborder.png,1,m,Thu Jul 24 2025 17:28:10 GMT-0500 (Central Daylight Time),128500.10000000056,CFD-BM-037-041-A.jpg,2000,dash,I,m,1078,5,2,38654.60000000056,89845.5,8053,ATS,B,12
1,test,1,A,haborder.png,1,z,Thu Jul 24 2025 17:28:10 GMT-0500 (Central Daylight Time),144195.30000000075,CFD-BF-050-012-A.jpg,1200,solid,I,z,1056,6,2,2282.600000000559,141912.7000000002,8053,ATS,B,1
2,test,1,A,haborder.png,1,m,Thu Jul 24 2025 17:28:10 GMT-0500 (Central Daylight Time),146677.90000000037,CFD-WM-012-007-HC.jpg,1700,solid,I,m,753,9,2,4765.200000000186,141912.7000000002,8053,ATS,B,2
3,test,1,A,haborder.png,1,z,Thu Jul 24 2025 17:28:10 GMT-0500 (Central Daylight Time),148593.7000000002,CFD-BF-050-012-A.jpg,1200,solid,I,z,699,6,2,6681.0,141912.7000000002,8053,ATS,B,3
4,test,1,A,haborder.png,1,z,Thu Jul 24 2025 17:28:10 GMT-0500 (Central Daylight Time),150826.40000000037,CFD-WF-026-008-A.jpg,1600,solid,I,z,606,10,2,8913.700000000186,141912.7000000002,8053,ATS,B,4
5,test,1,A,haborder.png,1,m,Thu Jul 24 2025 17:28:10 GMT-0500 (Central Daylight Time),153309.0,CFD-WM-012-007-HC.jpg,1700,solid,I,m,762,9,2,11396.299999999814,141912.7000000002,8053,ATS,B,5
6,test,1,A,haborder.png,1,z,Thu Jul 24 2025 17:28:10 GMT-0500 (Central Daylight Time),154991.90000000037,CFD-WF-013-015-A.jpg,1000,solid,I,z,651,12,2,13079.200000000186,141912.7000000002,8053,ATS,B,6
7,test,1,A,haborder.png,1,z,Thu Jul 24 2025 17:28:10 GMT-0500 (Central Daylight Time),156824.5,CFD-BF-051-043-A.jpg,1000,solid,I,z,801,4,2,14911.799999999814,141912.7000000002,8053,ATS,B,7
8,test,1,A,haborder.png,1,z,Thu Jul 24 2025 17:28:10 GMT-0500 (Central Daylight Time),159040.5,CFD-WF-026-008-A.jpg,1600,solid,I,z,592,10,2,17127.799999999814,141912.7000000002,8053,ATS,B,8
9,test,1,A,haborder.png,1,m,Thu Jul 24 2025 17:28:10 GMT-0500 (Central Daylight Time),161789.80000000075,CFD-BF-035-007-HC.jpg,2000,solid,I,m,728,5,2,19877.10000000056,141912.7000000002,8053,ATS,B,9
10,test,1,A,haborder.png,1,m,Thu Jul 24 2025 17:28:10 GMT-0500 (Central Daylight Time),164439.30000000075,CFD-BM-015-017-HC.jpg,1700,solid,I,m,872,1,2,22526.60000000056,141912.7000000002,8053,ATS,B,10
11,test,1,A,haborder.png,1,z,Thu Jul 24 2025 17:28:10 GMT-0500 (Central Daylight Time),166156.10000000056,CFD-BF-051-043-A.jpg,1000,solid,I,z,689,4,2,24243.400000000373,141912.7000000002,8053,ATS,B,11
12,test,1,A,haborder.png,1,z,Thu Jul 24 2025 17:28:10 GMT-0500 (Central Daylight Time),169187.30000000075,CFD-WM-009-009-A.jpg,1900,solid,I,z,1106,8,2,27274.60000000056,141912.7000000002,8053,ATS,B,12
13,test,1,A,haborder.png,1,z,Thu Jul 24 2025 17:28:10 GMT-0500 (Central Daylight Time),171436.60000000056,CFD-BM-037-041-A.jpg,1600,solid,I,z,620,2,2,29523.900000000373,141912.7000000002,8053,ATS,B,13
14,test,1,A,haborder.png,1,m,Thu Jul 24 2025 17:28:10 GMT-0500 (Central Daylight Time),173402.7000000002,CFD-WM-011-006-HC.jpg,1400,solid,I,m,540,7,2,31490.0,141912.7000000002,8053,ATS,B,14
15,test,1,A,haborder.png,1,m,Thu Jul 24 2025 17:28:10 GMT-0500 (Central Daylight Time),175552.10000000056,CFD-WM-011-006-HC.jpg,1400,solid,I,m,717,7,2,33639.40000000037,141912.7000000002,8053,ATS,B,15
16,test,1,A,haborder.png,1,m,Thu Jul 24 2025 17:28:10 GMT-0500 (Central Daylight Time),177951.40000000037,CFD-BM-015-017-HC.jpg,1700,solid,I,m,676,1,2,36038.700000000186,141912.7000000002,8053,ATS,B,16
16,test,1,A,haborder.png,0,m,Thu Jul 24 2025 17:28:10 GMT-0500 (Central Daylight Time),180250.60000000056,CFD-WF-011-006-HC.jpg,1500,solid,I,z,773,11,2,38337.90000000037,141912.7000000002,8053,ATS,B,17
17,test,1,A,haborder.png,1,z,Thu Jul 24 2025 17:28:10 GMT-0500 (Central Daylight Time),183049.60000000056,CFD-WM-009-009-A.jpg,1900,solid,I,z,882,8,2,41136.90000000037,141912.7000000002,8053,ATS,B,18
18,test,1,A,haborder.png,1,m,Thu Jul 24 2025 17:28:10 GMT-0500 (Central Daylight Time),185749.0,CFD-BF-035-007-HC.jpg,2000,solid,I,m,678,5,2,43836.299999999814,141912.7000000002,8053,ATS,B,19
19,test,1,A,haborder.png,1,m,Thu Jul 24 2025 17:28:10 GMT-0500 (Central Daylight Time),188014.80000000075,CFD-BM-020-024-HC.jpg,1500,solid,I,m,748,3,2,46102.10000000056,141912.7000000002,8053,ATS,B,20
20,test,1,A,haborder.png,1,z,Thu Jul 24 2025 17:28:10 GMT-0500 (Central Daylight Time),190430.80000000075,CFD-BM-037-041-A.jpg,1600,solid,I,z,786,2,2,48518.10000000056,141912.7000000002,8053,ATS,B,21
21,test,1,A,haborder.png,1,z,Thu Jul 24 2025 17:28:10 GMT-0500 (Central Daylight Time),192480.10000000056,CFD-WF-013-015-A.jpg,1000,solid,I,z,1018,12,2,50567.40000000037,141912.7000000002,8053,ATS,B,22
22,test,1,A,haborder.png,1,m,Thu Jul 24 2025 17:28:10 GMT-0500 (Central Daylight Time),194762.60000000056,CFD-WF-011-006-HC.jpg,1500,solid,I,m,756,11,2,52849.90000000037,141912.7000000002,8053,ATS,B,23
23,test,1,A,haborder.png,1,m,Thu Jul 24 2025 17:28:10 GMT-0500 (Central Daylight Time),197045.2000000002,CFD-BM-020-024-HC.jpg,1500,solid,I,m,754,3,2,55132.5,141912.7000000002,8053,ATS,B,24
1,test,1,B,mfborder.png,1,z,Thu Jul 24 2025 17:28:10 GMT-0500 (Central Daylight Time),206625.40000000037,CFD-WF-026-008-A.jpg,1500,dash,I,z,1065,11,2,2582.2999999998137,204043.10000000056,8053,ATS,B,1
2,test,1,B,mfborder.png,1,m,Thu Jul 24 2025 17:28:10 GMT-0500 (Central Daylight Time),209025.0,CFD-BM-041-048-A.jpg,1600,dash,I,m,767,2,2,4981.899999999441,204043.10000000056,8053,ATS,B,2
3,test,1,B,mfborder.png,1,m,Thu Jul 24 2025 17:28:10 GMT-0500 (Central Daylight Time),211574.10000000056,CFD-WM-009-009-A.jpg,1700,dash,I,m,769,9,2,7531.0,204043.10000000056,8053,ATS,B,3
4,test,1,B,mfborder.png,1,m,Thu Jul 24 2025 17:28:10 GMT-0500 (Central Daylight Time),213406.90000000037,CFD-WM-037-060-A.jpg,1200,dash,I,m,610,6,2,9363.799999999814,204043.10000000056,8053,ATS,B,4
5,test,1,B,mfborder.png,1,m,Thu Jul 24 2025 17:28:10 GMT-0500 (Central Daylight Time),216006.2000000002,CFD-BM-037-041-A.jpg,2000,dash,I,m,570,5,2,11963.099999999627,204043.10000000056,8053,ATS,B,5
6,test,1,B,mfborder.png,1,z,Thu Jul 24 2025 17:28:10 GMT-0500 (Central Daylight Time),218655.2000000002,CFD-WF-027-007-HC.jpg,1900,dash,I,z,718,8,2,14612.099999999627,204043.10000000056,8053,ATS,B,6
7,test,1,B,mfborder.png,1,m,Thu Jul 24 2025 17:28:10 GMT-0500 (Central Daylight Time),221137.7000000002,CFD-BM-020-024-HC.jpg,1700,dash,I,m,749,1,2,17094.599999999627,204043.10000000056,8053,ATS,B,7
8,test,1,B,mfborder.png,1,z,Thu Jul 24 2025 17:28:10 GMT-0500 (Central Daylight Time),223586.90000000037,CFD-BF-027-013-HC.jpg,1500,dash,I,z,922,3,2,19543.799999999814,204043.10000000056,8053,ATS,B,8
9,test,1,B,mfborder.png,1,m,Thu Jul 24 2025 17:28:10 GMT-0500 (Central Daylight Time),225919.60000000056,CFD-BM-020-024-HC.jpg,1700,dash,I,m,602,1,2,21876.5,204043.10000000056,8053,ATS,B,9
10,test,1,B,mfborder.png,1,m,Thu Jul 24 2025 17:28:10 GMT-0500 (Central Daylight Time),228585.30000000075,CFD-WM-009-009-A.jpg,1700,dash,I,m,934,9,2,24542.200000000186,204043.10000000056,8053,ATS,B,10
11,test,1,B,mfborder.png,1,z,Thu Jul 24 2025 17:28:10 GMT-0500 (Central Daylight Time),230351.5,CFD-WF-011-006-HC.jpg,1000,dash,I,z,735,12,2,26308.39999999944,204043.10000000056,8053,ATS,B,11
12,test,1,B,mfborder.png,1,m,Thu Jul 24 2025 17:28:10 GMT-0500 (Central Daylight Time),232617.30000000075,CFD-BM-041-048-A.jpg,1600,dash,I,m,633,2,2,28574.200000000186,204043.10000000056,8053,ATS,B,12
13,test,1,B,mfborder.png,1,m,Thu Jul 24 2025 17:28:10 GMT-0500 (Central Daylight Time),235333.2000000002,CFD-BM-037-041-A.jpg,2000,dash,I,m,694,5,2,31290.099999999627,204043.10000000056,8053,ATS,B,13
14,test,1,B,mfborder.png,1,m,Thu Jul 24 2025 17:28:10 GMT-0500 (Central Daylight Time),237649.2000000002,CFD-WM-012-007-HC.jpg,1600,dash,I,m,691,10,2,33606.09999999963,204043.10000000056,8053,ATS,B,14
15,test,1,B,mfborder.png,1,z,Thu Jul 24 2025 17:28:10 GMT-0500 (Central Daylight Time),240165.0,CFD-WF-026-008-A.jpg,1500,dash,I,z,987,11,2,36121.89999999944,204043.10000000056,8053,ATS,B,15
16,test,1,B,mfborder.png,1,m,Thu Jul 24 2025 17:28:10 GMT-0500 (Central Daylight Time),242364.40000000037,CFD-WM-037-060-A.jpg,1200,dash,I,m,971,6,2,38321.299999999814,204043.10000000056,8053,ATS,B,16
17,test,1,B,mfborder.png,1,z,Thu Jul 24 2025 17:28:10 GMT-0500 (Central Daylight Time),244731.40000000037,CFD-BF-027-013-HC.jpg,1500,dash,I,z,848,3,2,40688.299999999814,204043.10000000056,8053,ATS,B,17
18,test,1,B,mfborder.png,1,z,Thu Jul 24 2025 17:28:10 GMT-0500 (Central Daylight Time),246479.5,CFD-WF-011-006-HC.jpg,1000,dash,I,z,726,12,2,42436.39999999944,204043.10000000056,8053,ATS,B,18
19,test,1,B,mfborder.png,1,m,Thu Jul 24 2025 17:28:10 GMT-0500 (Central Daylight Time),248879.30000000075,CFD-WM-012-007-HC.jpg,1600,dash,I,m,777,10,2,44836.200000000186,204043.10000000056,8053,ATS,B,19
20,test,1,B,mfborder.png,1,z,Thu Jul 24 2025 17:28:10 GMT-0500 (Central Daylight Time),250811.60000000056,CFD-BF-051-043-A.jpg,1000,dash,I,z,905,4,2,46768.5,204043.10000000056,8053,ATS,B,20
21,test,1,B,mfborder.png,1,z,Thu Jul 24 2025 17:28:10 GMT-0500 (Central Daylight Time),252911.10000000056,CFD-BF-035-007-HC.jpg,1400,dash,I,z,669,7,2,48868.0,204043.10000000056,8053,ATS,B,21
22,test,1,B,mfborder.png,1,z,Thu Jul 24 2025 17:28:10 GMT-0500 (Central Daylight Time),254510.60000000056,CFD-BF-051-043-A.jpg,1000,dash,I,z,577,4,2,50467.5,204043.10000000056,8053,ATS,B,22
23,test,1,B,mfborder.png,1,z,Thu Jul 24 2025 17:28:10 GMT-0500 (Central Daylight Time),257343.30000000075,CFD-BF-035-007-HC.jpg,1400,dash,I,z,1410,7,2,53300.200000000186,204043.10000000056,8053,ATS,B,23
24,test,1,B,mfborder.png,1,z,Thu Jul 24 2025 17:28:10 GMT-0500 (Central Daylight Time),259959.10000000056,CFD-WF-027-007-HC.jpg,1900,dash,I,z,685,8,2,55916.0,204043.10000000056,8053,ATS,B,24
1,12,1,C,haborder.png,1,m,Thu Jul 24 2025 17:28:10 GMT-0500 (Central Daylight Time),284051.4000000004,CFD-WM-011-006-HC.jpg,1400,solid,I,m,1254,prac,2,3449.0999999996275,280602.30000000075,8053,ATS,B,1
2,9,1,C,haborder.png,1,z,Thu Jul 24 2025 17:28:10 GMT-0500 (Central Daylight Time),287750.30000000075,CFD-WF-026-008-A.jpg,1600,dash,I,z,1301,prac,2,7148.0,280602.30000000075,8053,ATS,B,2
3,11,1,C,haborder.png,1,m,Thu Jul 24 2025 17:28:10 GMT-0500 (Central Daylight Time),290466.0,CFD-WM-011-006-HC.jpg,1000,dash,I,m,922,prac,2,9863.699999999255,280602.30000000075,8053,ATS,B,3
4,1,1,C,mfborder.png,1,z,Thu Jul 24 2025 17:28:10 GMT-0500 (Central Daylight Time),293898.30000000075,CFD-WF-011-006-HC.jpg,1600,dash,I,z,1048,prac,2,13296.0,280602.30000000075,8053,ATS,B,4
5,4,1,C,mfborder.png,1,m,Thu Jul 24 2025 17:28:10 GMT-0500 (Central Daylight Time),297713.9000000004,CFD-BM-015-017-HC.jpg,2000,solid,I,m,1030,prac,2,17111.599999999627,280602.30000000075,8053,ATS,B,5
5,8,1,C,haborder.png,0,z,Thu Jul 24 2025 17:28:10 GMT-0500 (Central Daylight Time),301446.0,CFD-BF-050-012-A.jpg,1700,solid,I,m,1235,prac,2,20843.699999999255,280602.30000000075,8053,ATS,B,6
6,6,1,C,mfborder.png,1,m,Thu Jul 24 2025 17:28:10 GMT-0500 (Central Daylight Time),305344.9000000004,CFD-WM-009-009-A.jpg,1700,solid,I,m,1407,prac,2,24742.599999999627,280602.30000000075,8053,ATS,B,7
7,5,1,C,mfborder.png,1,m,Thu Jul 24 2025 17:28:10 GMT-0500 (Central Daylight Time),308677.10000000056,CFD-BM-037-041-A.jpg,1200,dash,I,m,1336,prac,2,28074.799999999814,280602.30000000075,8053,ATS,B,8
7,7,1,C,haborder.png,0,z,Thu Jul 24 2025 17:28:10 GMT-0500 (Central Daylight Time),312775.80000000075,CFD-BF-051-043-A.jpg,1900,dash,I,m,1400,prac,2,32173.5,280602.30000000075,8053,ATS,B,9
7,3,1,C,mfborder.png,0,z,Thu Jul 24 2025 17:28:10 GMT-0500 (Central Daylight Time),316074.7000000002,CFD-BF-035-007-HC.jpg,1000,dash,I,None,1516,prac,2,35472.39999999944,280602.30000000075,8053,ATS,B,10
7,10,1,C,haborder.png,0,m,Thu Jul 24 2025 17:28:10 GMT-0500 (Central Daylight Time),319856.9000000004,CFD-BM-020-024-HC.jpg,1500,solid,I,None,1501,prac,2,39254.59999999963,280602.30000000075,8053,ATS,B,11
8,2,1,C,mfborder.png,1,z,Thu Jul 24 2025 17:28:10 GMT-0500 (Central Daylight Time),323256.80000000075,CFD-WF-013-015-A.jpg,1500,solid,I,z,1108,prac,2,42654.5,280602.30000000075,8053,ATS,B,12
0,9,2,C,haborder.png,0,z,Thu Jul 24 2025 17:28:10 GMT-0500 (Central Daylight Time),330619.80000000075,CFD-WF-026-008-A.jpg,1600,dash,I,None,1504,prac,2,50017.5,280602.30000000075,8053,ATS,B,1
1,3,2,C,mfborder.png,1,z,Thu Jul 24 2025 17:28:10 GMT-0500 (Central Daylight Time),333669.4000000004,CFD-BF-035-007-HC.jpg,1000,dash,I,z,1252,prac,2,53067.09999999963,280602.30000000075,8053,ATS,B,2
2,1,2,C,mfborder.png,1,z,Thu Jul 24 2025 17:28:10 GMT-0500 (Central Daylight Time),336935.10000000056,CFD-WF-011-006-HC.jpg,1600,dash,I,z,875,prac,2,56332.799999999814,280602.30000000075,8053,ATS,B,3
2,5,2,C,mfborder.png,0,m,Thu Jul 24 2025 17:28:10 GMT-0500 (Central Daylight Time),339750.5,CFD-BM-037-041-A.jpg,1200,dash,I,z,818,prac,2,59148.199999999255,280602.30000000075,8053,ATS,B,4
3,8,2,C,haborder.png,1,z,Thu Jul 24 2025 17:28:10 GMT-0500 (Central Daylight Time),343499.30000000075,CFD-BF-050-012-A.jpg,1700,solid,I,z,1254,prac,2,62897.0,280602.30000000075,8053,ATS,B,5
4,11,2,C,haborder.png,1,m,Thu Jul 24 2025 17:28:10 GMT-0500 (Central Daylight Time),346298.60000000056,CFD-WM-011-006-HC.jpg,1000,dash,I,m,1005,prac,2,65696.29999999981,280602.30000000075,8053,ATS,B,6
5,12,2,C,haborder.png,1,m,Thu Jul 24 2025 17:28:10 GMT-0500 (Central Daylight Time),349231.0,CFD-WM-011-006-HC.jpg,1400,solid,I,m,742,prac,2,68628.69999999925,280602.30000000075,8053,ATS,B,7
6,10,2,C,haborder.png,1,m,Thu Jul 24 2025 17:28:10 GMT-0500 (Central Daylight Time),352446.60000000056,CFD-BM-020-024-HC.jpg,1500,solid,I,m,926,prac,2,71844.29999999981,280602.30000000075,8053,ATS,B,8
7,7,2,C,haborder.png,1,z,Thu Jul 24 2025 17:28:10 GMT-0500 (Central Daylight Time),356078.9000000004,CFD-BF-051-043-A.jpg,1900,dash,I,z,942,prac,2,75476.59999999963,280602.30000000075,8053,ATS,B,9
8,6,2,C,mfborder.png,1,m,Thu Jul 24 2025 17:28:10 GMT-0500 (Central Daylight Time),359677.5,CFD-WM-009-009-A.jpg,1700,solid,I,m,1102,prac,2,79075.19999999925,280602.30000000075,8053,ATS,B,10
9,2,2,C,mfborder.png,1,z,Thu Jul 24 2025 17:28:10 GMT-0500 (Central Daylight Time),362776.7000000002,CFD-WF-013-015-A.jpg,1500,solid,I,z,807,prac,2,82174.39999999944,280602.30000000075,8053,ATS,B,11
10,4,2,C,mfborder.png,1,m,Thu Jul 24 2025 17:28:10 GMT-0500 (Central Daylight Time),366475.2000000002,CFD-BM-015-017-HC.jpg,2000,solid,I,m,912,prac,2,85872.89999999944,280602.30000000075,8053,ATS,B,12
1,test,1,C,mfborder.png,1,m,Thu Jul 24 2025 17:28:10 GMT-0500 (Central Daylight Time),377955.30000000075,CFD-BM-020-024-HC.jpg,1200,dash,I,m,1206,6,2,2429.4000000003725,375525.9000000004,8053,ATS,B,1
2,test,1,C,haborder.png,1,m,Thu Jul 24 2025 17:28:10 GMT-0500 (Central Daylight Time),380021.4000000004,CFD-WF-011-006-HC.jpg,1000,solid,I,m,1037,12,2,4495.5,375525.9000000004,8053,ATS,B,2
3,test,1,C,mfborder.png,1,z,Thu Jul 24 2025 17:28:10 GMT-0500 (Central Daylight Time),382620.4000000004,CFD-WF-026-008-A.jpg,1500,dash,I,z,1079,3,2,7094.5,375525.9000000004,8053,ATS,B,3
4,test,1,C,mfborder.png,1,m,Thu Jul 24 2025 17:28:10 GMT-0500 (Central Daylight Time),385502.9000000004,CFD-WM-037-060-A.jpg,2000,dash,I,m,860,5,2,9977.0,375525.9000000004,8053,ATS,B,4
5,test,1,C,mfborder.png,1,m,Thu Jul 24 2025 17:28:10 GMT-0500 (Central Daylight Time),387435.7000000002,CFD-WM-012-007-HC.jpg,1000,dash,I,m,913,4,2,11909.799999999814,375525.9000000004,8053,ATS,B,5
6,test,1,C,haborder.png,1,m,Thu Jul 24 2025 17:28:10 GMT-0500 (Central Daylight Time),390318.0,CFD-BF-035-007-HC.jpg,1600,solid,I,m,1261,10,2,14792.099999999627,375525.9000000004,8053,ATS,B,6
7,test,1,C,mfborder.png,1,z,Thu Jul 24 2025 17:28:10 GMT-0500 (Central Daylight Time),392950.60000000056,CFD-BF-051-043-A.jpg,1600,dash,I,z,1011,2,2,17424.700000000186,375525.9000000004,8053,ATS,B,7
8,test,1,C,mfborder.png,1,m,Thu Jul 24 2025 17:28:10 GMT-0500 (Central Daylight Time),394966.4000000004,CFD-BM-020-024-HC.jpg,1200,dash,I,m,786,6,2,19440.5,375525.9000000004,8053,ATS,B,8
9,test,1,C,haborder.png,1,z,Thu Jul 24 2025 17:28:10 GMT-0500 (Central Daylight Time),397815.60000000056,CFD-BM-041-048-A.jpg,1700,solid,I,z,1126,9,2,22289.700000000186,375525.9000000004,8053,ATS,B,9
9,test,1,C,mfborder.png,0,z,Thu Jul 24 2025 17:28:10 GMT-0500 (Central Daylight Time),400581.30000000075,CFD-BF-027-013-HC.jpg,1700,dash,I,m,1045,1,2,25055.400000000373,375525.9000000004,8053,ATS,B,10
10,test,1,C,haborder.png,1,m,Thu Jul 24 2025 17:28:10 GMT-0500 (Central Daylight Time),403530.60000000056,CFD-BF-035-007-HC.jpg,1600,solid,I,m,1323,10,2,28004.700000000186,375525.9000000004,8053,ATS,B,11
11,test,1,C,mfborder.png,1,z,Thu Jul 24 2025 17:28:10 GMT-0500 (Central Daylight Time),406013.10000000056,CFD-BF-027-013-HC.jpg,1700,dash,I,z,754,1,2,30487.200000000186,375525.9000000004,8053,ATS,B,12
12,test,1,C,haborder.png,1,m,Thu Jul 24 2025 17:28:10 GMT-0500 (Central Daylight Time),408512.2000000002,CFD-WF-027-007-HC.jpg,1500,solid,I,m,976,11,2,32986.299999999814,375525.9000000004,8053,ATS,B,13
12,test,1,C,haborder.png,0,z,Thu Jul 24 2025 17:28:10 GMT-0500 (Central Daylight Time),411628.0,CFD-BM-041-048-A.jpg,1700,solid,I,m,1388,9,2,36102.09999999963,375525.9000000004,8053,ATS,B,14
13,test,1,C,mfborder.png,1,m,Thu Jul 24 2025 17:28:10 GMT-0500 (Central Daylight Time),414693.5,CFD-WM-037-060-A.jpg,2000,dash,I,m,1037,5,2,39167.59999999963,375525.9000000004,8053,ATS,B,15
14,test,1,C,mfborder.png,1,z,Thu Jul 24 2025 17:28:10 GMT-0500 (Central Daylight Time),417542.80000000075,CFD-BF-051-043-A.jpg,1600,dash,I,z,1227,2,2,42016.90000000037,375525.9000000004,8053,ATS,B,16
15,test,1,C,mfborder.png,1,z,Thu Jul 24 2025 17:28:10 GMT-0500 (Central Daylight Time),420308.2000000002,CFD-WF-026-008-A.jpg,1500,dash,I,z,1238,3,2,44782.299999999814,375525.9000000004,8053,ATS,B,17
16,test,1,C,haborder.png,1,m,Thu Jul 24 2025 17:28:10 GMT-0500 (Central Daylight Time),422991.10000000056,CFD-WF-027-007-HC.jpg,1500,solid,I,m,1161,11,2,47465.200000000186,375525.9000000004,8053,ATS,B,18
17,test,1,C,haborder.png,1,m,Thu Jul 24 2025 17:28:10 GMT-0500 (Central Daylight Time),424740.4000000004,CFD-WF-011-006-HC.jpg,1000,solid,I,m,718,12,2,49214.5,375525.9000000004,8053,ATS,B,19
18,test,1,C,haborder.png,1,z,Thu Jul 24 2025 17:28:10 GMT-0500 (Central Daylight Time),427539.7000000002,CFD-BM-037-041-A.jpg,1900,solid,I,z,880,8,2,52013.799999999814,375525.9000000004,8053,ATS,B,20
19,test,1,C,haborder.png,1,z,Thu Jul 24 2025 17:28:10 GMT-0500 (Central Daylight Time),430105.5,CFD-BM-037-041-A.jpg,1900,solid,I,z,641,8,2,54579.59999999963,375525.9000000004,8053,ATS,B,21
20,test,1,C,mfborder.png,1,m,Thu Jul 24 2025 17:28:10 GMT-0500 (Central Daylight Time),432071.60000000056,CFD-WM-012-007-HC.jpg,1000,dash,I,m,935,4,2,56545.700000000186,375525.9000000004,8053,ATS,B,22
21,test,1,C,haborder.png,1,z,Thu Jul 24 2025 17:28:10 GMT-0500 (Central Daylight Time),434987.4000000004,CFD-WM-009-009-A.jpg,1400,solid,I,z,1489,7,2,59461.5,375525.9000000004,8053,ATS,B,23
22,test,1,C,haborder.png,1,z,Thu Jul 24 2025 17:28:10 GMT-0500 (Central Daylight Time),437136.5,CFD-WM-009-009-A.jpg,1400,solid,I,z,717,7,2,61610.59999999963,375525.9000000004,8053,ATS,B,24
1,test,2,C,mfborder.png,1,z,Thu Jul 24 2025 17:28:10 GMT-0500 (Central Daylight Time),441335.4000000004,CFD-WF-011-006-HC.jpg,1700,dash,I,z,1135,1,2,2865.9000000003725,438469.5,8053,ATS,B,1
2,test,2,C,haborder.png,1,m,Thu Jul 24 2025 17:28:10 GMT-0500 (Central Daylight Time),444068.0,CFD-BM-020-024-HC.jpg,1600,solid,I,m,1105,10,2,5598.5,438469.5,8053,ATS,B,2
3,test,2,C,haborder.png,1,m,Thu Jul 24 2025 17:28:10 GMT-0500 (Central Daylight Time),445817.2000000002,CFD-WM-011-006-HC.jpg,1000,solid,I,m,733,12,2,7347.700000000186,438469.5,8053,ATS,B,3
4,test,2,C,mfborder.png,1,m,Thu Jul 24 2025 17:28:10 GMT-0500 (Central Daylight Time),448983.10000000056,CFD-BM-037-041-A.jpg,2000,dash,I,m,1136,5,2,10513.600000000559,438469.5,8053,ATS,B,4
5,test,2,C,mfborder.png,1,m,Thu Jul 24 2025 17:28:10 GMT-0500 (Central Daylight Time),450715.5,CFD-BM-015-017-HC.jpg,1000,dash,I,m,713,4,2,12246.0,438469.5,8053,ATS,B,5
6,test,2,C,mfborder.png,1,m,Thu Jul 24 2025 17:28:10 GMT-0500 (Central Daylight Time),453581.30000000075,CFD-BM-037-041-A.jpg,2000,dash,I,m,837,5,2,15111.800000000745,438469.5,8053,ATS,B,6
7,test,2,C,haborder.png,1,z,Thu Jul 24 2025 17:28:10 GMT-0500 (Central Daylight Time),456047.30000000075,CFD-BF-051-043-A.jpg,1400,solid,I,z,1043,7,2,17577.800000000745,438469.5,8053,ATS,B,7
8,test,2,C,haborder.png,1,z,Thu Jul 24 2025 17:28:10 GMT-0500 (Central Daylight Time),458679.80000000075,CFD-BF-050-012-A.jpg,1900,solid,I,z,709,8,2,20210.300000000745,438469.5,8053,ATS,B,8
9,test,2,C,mfborder.png,1,z,Thu Jul 24 2025 17:28:10 GMT-0500 (Central Daylight Time),461345.7000000002,CFD-BF-035-007-HC.jpg,1500,dash,I,z,1150,3,2,22876.200000000186,438469.5,8053,ATS,B,9
10,test,2,C,mfborder.png,1,z,Thu Jul 24 2025 17:28:10 GMT-0500 (Central Daylight Time),463778.30000000075,CFD-WF-011-006-HC.jpg,1700,dash,I,z,707,1,2,25308.800000000745,438469.5,8053,ATS,B,10
11,test,2,C,mfborder.png,1,m,Thu Jul 24 2025 17:28:10 GMT-0500 (Central Daylight Time),465794.60000000056,CFD-WM-009-009-A.jpg,1200,dash,I,m,790,6,2,27325.10000000056,438469.5,8053,ATS,B,11
12,test,2,C,haborder.png,1,m,Thu Jul 24 2025 17:28:10 GMT-0500 (Central Daylight Time),468211.30000000075,CFD-WM-011-006-HC.jpg,1500,solid,I,m,898,11,2,29741.800000000745,438469.5,8053,ATS,B,12
13,test,2,C,haborder.png,1,z,Thu Jul 24 2025 17:28:10 GMT-0500 (Central Daylight Time),470592.9000000004,CFD-BF-051-043-A.jpg,1400,solid,I,z,958,7,2,32123.400000000373,438469.5,8053,ATS,B,13
14,test,2,C,haborder.png,1,m,Thu Jul 24 2025 17:28:10 GMT-0500 (Central Daylight Time),472825.9000000004,CFD-WM-011-006-HC.jpg,1500,solid,I,m,716,11,2,34356.40000000037,438469.5,8053,ATS,B,14
15,test,2,C,haborder.png,1,z,Thu Jul 24 2025 17:28:10 GMT-0500 (Central Daylight Time),475507.9000000004,CFD-BF-050-012-A.jpg,1900,solid,I,z,755,8,2,37038.40000000037,438469.5,8053,ATS,B,15
16,test,2,C,mfborder.png,1,z,Thu Jul 24 2025 17:28:10 GMT-0500 (Central Daylight Time),478073.80000000075,CFD-BF-035-007-HC.jpg,1500,dash,I,z,1040,3,2,39604.300000000745,438469.5,8053,ATS,B,16
17,test,2,C,haborder.png,1,m,Thu Jul 24 2025 17:28:10 GMT-0500 (Central Daylight Time),480640.7000000002,CFD-BM-020-024-HC.jpg,1600,solid,I,m,935,10,2,42171.200000000186,438469.5,8053,ATS,B,17
18,test,2,C,mfborder.png,1,m,Thu Jul 24 2025 17:28:10 GMT-0500 (Central Daylight Time),483005.5,CFD-WM-009-009-A.jpg,1200,dash,I,m,1137,6,2,44536.0,438469.5,8053,ATS,B,18
19,test,2,C,haborder.png,1,z,Thu Jul 24 2025 17:28:10 GMT-0500 (Central Daylight Time),485737.9000000004,CFD-WF-026-008-A.jpg,1700,solid,I,z,1015,9,2,47268.40000000037,438469.5,8053,ATS,B,19
20,test,2,C,haborder.png,1,z,Thu Jul 24 2025 17:28:10 GMT-0500 (Central Daylight Time),488403.9000000004,CFD-WF-026-008-A.jpg,1700,solid,I,z,939,9,2,49934.40000000037,438469.5,8053,ATS,B,20
21,test,2,C,mfborder.png,1,z,Thu Jul 24 2025 17:28:10 GMT-0500 (Central Daylight Time),491169.60000000056,CFD-WF-013-015-A.jpg,1600,dash,I,z,1141,2,2,52700.10000000056,438469.5,8053,ATS,B,21
22,test,2,C,haborder.png,1,m,Thu Jul 24 2025 17:28:10 GMT-0500 (Central Daylight Time),493069.0,CFD-WM-011-006-HC.jpg,1000,solid,I,m,871,12,2,54599.5,438469.5,8053,ATS,B,22
23,test,2,C,mfborder.png,1,m,Thu Jul 24 2025 17:28:10 GMT-0500 (Central Daylight Time),495201.80000000075,CFD-BM-015-017-HC.jpg,1000,dash,I,m,1115,4,2,56732.300000000745,438469.5,8053,ATS,B,23
24,test,2,C,mfborder.png,1,z,Thu Jul 24 2025 17:28:10 GMT-0500 (Central Daylight Time),497867.60000000056,CFD-WF-013-015-A.jpg,1600,dash,I,z,1039,2,2,59398.10000000056,438469.5,8053,ATS,B,24
1,test,3,C,haborder.png,1,m,Thu Jul 24 2025 17:28:10 GMT-0500 (Central Daylight Time),501099.9000000004,CFD-WF-011-006-HC.jpg,1000,solid,I,m,902,12,2,1932.7000000001863,499167.2000000002,8053,ATS,B,1
2,test,3,C,haborder.png,1,m,Thu Jul 24 2025 17:28:10 GMT-0500 (Central Daylight Time),503266.10000000056,CFD-WF-027-007-HC.jpg,1500,solid,I,m,634,11,2,4098.9000000003725,499167.2000000002,8053,ATS,B,2
3,test,3,C,haborder.png,1,m,Thu Jul 24 2025 17:28:10 GMT-0500 (Central Daylight Time),505615.10000000056,CFD-BF-035-007-HC.jpg,1600,solid,I,m,719,10,2,6447.9000000003725,499167.2000000002,8053,ATS,B,3
4,test,3,C,haborder.png,1,z,Thu Jul 24 2025 17:28:10 GMT-0500 (Central Daylight Time),508364.0,CFD-BM-037-041-A.jpg,1900,solid,I,z,829,8,2,9196.799999999814,499167.2000000002,8053,ATS,B,4
5,test,3,C,haborder.png,1,z,Thu Jul 24 2025 17:28:10 GMT-0500 (Central Daylight Time),510530.2000000002,CFD-WM-009-009-A.jpg,1400,solid,I,z,740,7,2,11363.0,499167.2000000002,8053,ATS,B,5
6,test,3,C,mfborder.png,1,z,Thu Jul 24 2025 17:28:10 GMT-0500 (Central Daylight Time),513095.9000000004,CFD-WF-026-008-A.jpg,1500,dash,I,z,1042,3,2,13928.700000000186,499167.2000000002,8053,ATS,B,6
7,test,3,C,haborder.png,1,z,Thu Jul 24 2025 17:28:10 GMT-0500 (Central Daylight Time),515812.0,CFD-BM-041-048-A.jpg,1700,solid,I,z,989,9,2,16644.799999999814,499167.2000000002,8053,ATS,B,7
7,test,3,C,mfborder.png,0,m,Thu Jul 24 2025 17:28:10 GMT-0500 (Central Daylight Time),517961.5,CFD-BM-020-024-HC.jpg,1200,dash,I,z,918,6,2,18794.299999999814,499167.2000000002,8053,ATS,B,8
8,test,3,C,mfborder.png,1,z,Thu Jul 24 2025 17:28:10 GMT-0500 (Central Daylight Time),520477.2000000002,CFD-BF-051-043-A.jpg,1600,dash,I,z,887,2,2,21310.0,499167.2000000002,8053,ATS,B,9
9,test,3,C,mfborder.png,1,m,Thu Jul 24 2025 17:28:10 GMT-0500 (Central Daylight Time),522376.60000000056,CFD-BM-020-024-HC.jpg,1200,dash,I,m,667,6,2,23209.400000000373,499167.2000000002,8053,ATS,B,10
10,test,3,C,haborder.png,1,m,Thu Jul 24 2025 17:28:10 GMT-0500 (Central Daylight Time),524809.0,CFD-WF-027-007-HC.jpg,1500,solid,I,m,900,11,2,25641.799999999814,499167.2000000002,8053,ATS,B,11
11,test,3,C,haborder.png,1,m,Thu Jul 24 2025 17:28:10 GMT-0500 (Central Daylight Time),527375.0,CFD-BF-035-007-HC.jpg,1600,solid,I,m,943,10,2,28207.799999999814,499167.2000000002,8053,ATS,B,12
11,test,3,C,haborder.png,0,z,Thu Jul 24 2025 17:28:10 GMT-0500 (Central Daylight Time),530524.2000000002,CFD-BM-037-041-A.jpg,1900,solid,I,m,1222,8,2,31357.0,499167.2000000002,8053,ATS,B,13
12,test,3,C,haborder.png,1,z,Thu Jul 24 2025 17:28:10 GMT-0500 (Central Daylight Time),532989.9000000004,CFD-BM-041-048-A.jpg,1700,solid,I,z,745,9,2,33822.700000000186,499167.2000000002,8053,ATS,B,14
13,test,3,C,mfborder.png,1,z,Thu Jul 24 2025 17:28:10 GMT-0500 (Central Daylight Time),535705.8000000007,CFD-BF-051-043-A.jpg,1600,dash,I,z,1091,2,2,36538.60000000056,499167.2000000002,8053,ATS,B,15
14,test,3,C,haborder.png,1,z,Thu Jul 24 2025 17:28:10 GMT-0500 (Central Daylight Time),538188.3000000007,CFD-WM-009-009-A.jpg,1400,solid,I,z,1063,7,2,39021.10000000056,499167.2000000002,8053,ATS,B,16
15,test,3,C,mfborder.png,1,m,Thu Jul 24 2025 17:28:10 GMT-0500 (Central Daylight Time),541587.2000000002,CFD-WM-037-060-A.jpg,2000,dash,I,m,1300,5,2,42420.0,499167.2000000002,8053,ATS,B,17
16,test,3,C,mfborder.png,1,z,Thu Jul 24 2025 17:28:10 GMT-0500 (Central Daylight Time),544119.6000000006,CFD-BF-027-013-HC.jpg,1700,dash,I,z,801,1,2,44952.40000000037,499167.2000000002,8053,ATS,B,18
17,test,3,C,mfborder.png,1,z,Thu Jul 24 2025 17:28:10 GMT-0500 (Central Daylight Time),546468.6000000006,CFD-WF-026-008-A.jpg,1500,dash,I,z,829,3,2,47301.40000000037,499167.2000000002,8053,ATS,B,19
18,test,3,C,haborder.png,1,m,Thu Jul 24 2025 17:28:10 GMT-0500 (Central Daylight Time),548418.3000000007,CFD-WF-011-006-HC.jpg,1000,solid,I,m,922,12,2,49251.10000000056,499167.2000000002,8053,ATS,B,20
19,test,3,C,mfborder.png,1,z,Thu Jul 24 2025 17:28:10 GMT-0500 (Central Daylight Time),551134.1000000006,CFD-BF-027-013-HC.jpg,1700,dash,I,z,985,1,2,51966.90000000037,499167.2000000002,8053,ATS,B,21
20,test,3,C,mfborder.png,1,m,Thu Jul 24 2025 17:28:10 GMT-0500 (Central Daylight Time),553017.1000000006,CFD-WM-012-007-HC.jpg,1000,dash,I,m,850,4,2,53849.90000000037,499167.2000000002,8053,ATS,B,22
21,test,3,C,mfborder.png,1,m,Thu Jul 24 2025 17:28:10 GMT-0500 (Central Daylight Time),555966.0,CFD-WM-037-060-A.jpg,2000,dash,I,m,920,5,2,56798.799999999814,499167.2000000002,8053,ATS,B,23
22,test,3,C,mfborder.png,1,m,Thu Jul 24 2025 17:28:10 GMT-0500 (Central Daylight Time),558115.0,CFD-WM-012-007-HC.jpg,1000,dash,I,m,1130,4,2,58947.799999999814,499167.2000000002,8053,ATS,B,24
1,test,4,C,mfborder.png,1,z,Thu Jul 24 2025 17:28:10 GMT-0500 (Central Daylight Time),562014.3000000007,CFD-WF-011-006-HC.jpg,1700,dash,I,z,1027,1,2,2749.2000000001863,559265.1000000006,8053,ATS,B,1
2,test,4,C,mfborder.png,1,z,Thu Jul 24 2025 17:28:10 GMT-0500 (Central Daylight Time),564363.5,CFD-WF-013-015-A.jpg,1600,dash,I,z,729,2,2,5098.399999999441,559265.1000000006,8053,ATS,B,2
3,test,4,C,mfborder.png,1,m,Thu Jul 24 2025 17:28:10 GMT-0500 (Central Daylight Time),566129.5,CFD-BM-015-017-HC.jpg,1000,dash,I,m,749,4,2,6864.399999999441,559265.1000000006,8053,ATS,B,3
4,test,4,C,haborder.png,1,m,Thu Jul 24 2025 17:28:10 GMT-0500 (Central Daylight Time),568328.9000000004,CFD-WM-011-006-HC.jpg,1500,solid,I,m,667,11,2,9063.799999999814,559265.1000000006,8053,ATS,B,4
5,test,4,C,haborder.png,1,z,Thu Jul 24 2025 17:28:10 GMT-0500 (Central Daylight Time),571077.8000000007,CFD-BF-050-012-A.jpg,1900,solid,I,z,828,8,2,11812.700000000186,559265.1000000006,8053,ATS,B,5
6,test,4,C,mfborder.png,1,m,Thu Jul 24 2025 17:28:10 GMT-0500 (Central Daylight Time),572995.1000000006,CFD-WM-009-009-A.jpg,1200,dash,I,m,698,6,2,13730.0,559265.1000000006,8053,ATS,B,6
6,test,4,C,mfborder.png,0,z,Thu Jul 24 2025 17:28:10 GMT-0500 (Central Daylight Time),575459.7000000002,CFD-BF-035-007-HC.jpg,1500,dash,I,m,939,3,2,16194.599999999627,559265.1000000006,8053,ATS,B,7
7,test,4,C,haborder.png,1,z,Thu Jul 24 2025 17:28:10 GMT-0500 (Central Daylight Time),577959.4000000004,CFD-WF-026-008-A.jpg,1700,solid,I,z,769,9,2,18694.299999999814,559265.1000000006,8053,ATS,B,8
8,test,4,C,haborder.png,1,m,Thu Jul 24 2025 17:28:10 GMT-0500 (Central Daylight Time),579891.8000000007,CFD-WM-011-006-HC.jpg,1000,solid,I,m,905,12,2,20626.700000000186,559265.1000000006,8053,ATS,B,9
9,test,4,C,haborder.png,1,z,Thu Jul 24 2025 17:28:10 GMT-0500 (Central Daylight Time),582341.2000000002,CFD-WF-026-008-A.jpg,1700,solid,I,z,728,9,2,23076.099999999627,559265.1000000006,8053,ATS,B,10
10,test,4,C,haborder.png,1,m,Thu Jul 24 2025 17:28:10 GMT-0500 (Central Daylight Time),584657.1000000006,CFD-BM-020-024-HC.jpg,1600,solid,I,m,684,10,2,25392.0,559265.1000000006,8053,ATS,B,11
11,test,4,C,mfborder.png,1,m,Thu Jul 24 2025 17:28:10 GMT-0500 (Central Daylight Time),586889.5,CFD-BM-015-017-HC.jpg,1000,dash,I,m,1215,4,2,27624.39999999944,559265.1000000006,8053,ATS,B,12
12,test,4,C,mfborder.png,1,m,Thu Jul 24 2025 17:28:10 GMT-0500 (Central Daylight Time),589605.5,CFD-BM-037-041-A.jpg,2000,dash,I,m,695,5,2,30340.39999999944,559265.1000000006,8053,ATS,B,13
13,test,4,C,haborder.png,1,m,Thu Jul 24 2025 17:28:10 GMT-0500 (Central Daylight Time),591804.9000000004,CFD-WM-011-006-HC.jpg,1000,solid,I,m,1167,12,2,32539.799999999814,559265.1000000006,8053,ATS,B,14
14,test,4,C,mfborder.png,1,m,Thu Jul 24 2025 17:28:10 GMT-0500 (Central Daylight Time),594770.7000000002,CFD-BM-037-041-A.jpg,2000,dash,I,m,939,5,2,35505.59999999963,559265.1000000006,8053,ATS,B,15
15,test,4,C,mfborder.png,1,m,Thu Jul 24 2025 17:28:10 GMT-0500 (Central Daylight Time),596686.7000000002,CFD-WM-009-009-A.jpg,1200,dash,I,m,694,6,2,37421.59999999963,559265.1000000006,8053,ATS,B,16
16,test,4,C,haborder.png,1,m,Thu Jul 24 2025 17:28:10 GMT-0500 (Central Daylight Time),599152.4000000004,CFD-BM-020-024-HC.jpg,1600,solid,I,m,842,10,2,39887.299999999814,559265.1000000006,8053,ATS,B,17
17,test,4,C,haborder.png,1,z,Thu Jul 24 2025 17:28:10 GMT-0500 (Central Daylight Time),601668.4000000004,CFD-BF-051-043-A.jpg,1400,solid,I,z,1096,7,2,42403.299999999814,559265.1000000006,8053,ATS,B,18
18,test,4,C,haborder.png,1,z,Thu Jul 24 2025 17:28:10 GMT-0500 (Central Daylight Time),603617.4000000004,CFD-BF-051-043-A.jpg,1400,solid,I,z,532,7,2,44352.299999999814,559265.1000000006,8053,ATS,B,19
19,test,4,C,haborder.png,1,m,Thu Jul 24 2025 17:28:10 GMT-0500 (Central Daylight Time),605800.3000000007,CFD-WM-011-006-HC.jpg,1500,solid,I,m,659,11,2,46535.200000000186,559265.1000000006,8053,ATS,B,20
20,test,4,C,mfborder.png,1,z,Thu Jul 24 2025 17:28:10 GMT-0500 (Central Daylight Time),608282.9000000004,CFD-BF-035-007-HC.jpg,1500,dash,I,z,964,3,2,49017.799999999814,559265.1000000006,8053,ATS,B,21
21,test,4,C,haborder.png,1,z,Thu Jul 24 2025 17:28:10 GMT-0500 (Central Daylight Time),611081.1000000006,CFD-BF-050-012-A.jpg,1900,solid,I,z,878,8,2,51816.0,559265.1000000006,8053,ATS,B,22
22,test,4,C,mfborder.png,1,z,Thu Jul 24 2025 17:28:10 GMT-0500 (Central Daylight Time),613581.1000000006,CFD-WF-013-015-A.jpg,1600,dash,I,z,871,2,2,54316.0,559265.1000000006,8053,ATS,B,23
23,test,4,C,mfborder.png,1,z,Thu Jul 24 2025 17:28:10 GMT-0500 (Central Daylight Time),616297.0,CFD-WF-011-006-HC.jpg,1700,dash,I,z,991,1,2,57031.89999999944,559265.1000000006,8053,ATS,B,24
