acc_sum,block,block_c,change,condition,correct,correct_response,datetime,endtime,face,project,response,response_time,row_sel,session_number,start_end,starttime,subject_id,task,task_vers,trial
0,prac,1,,1-Back,,,Mon Dec 15 2025 17:47:15 GMT-0600 (Central Standard Time),,050_m_f_n_a.png,O,space,3173,1,1,,,7241,NNB,A,0
1,prac,1,0.0,1-Back,1.0,m,Mon Dec 15 2025 17:47:15 GMT-0600 (Central Standard Time),110464.89999997616,063_y_f_n_a.png,O,m,676,2,1,1485.8999999761581,108979.0,7241,NNB,A,1
1,prac,1,1.0,1-Back,0.0,z,Mon Dec 15 2025 17:47:15 GMT-0600 (Central Standard Time),111880.89999997616,063_y_f_n_a.png,O,m,625,3,1,1406.1999999284744,110474.70000004768,7241,NNB,A,2
2,prac,1,0.0,1-Back,1.0,m,Mon Dec 15 2025 17:47:15 GMT-0600 (Central Standard Time),113682.20000004768,053_o_m_n_a.png,O,m,986,4,1,1790.7000000476837,111891.5,7241,NNB,A,3
3,prac,1,0.0,1-Back,1.0,m,Mon Dec 15 2025 17:47:15 GMT-0600 (Central Standard Time),115214.20000004768,058_m_m_n_a.png,O,m,717,5,1,1520.8000000715256,113693.39999997616,7241,NNB,A,4
4,prac,1,1.0,1-Back,1.0,z,Mon Dec 15 2025 17:47:15 GMT-0600 (Central Standard Time),116681.20000004768,058_m_m_n_a.png,O,z,681,6,1,1454.4000000953674,115226.79999995232,7241,NNB,A,5
5,prac,1,0.0,1-Back,1.0,m,Mon Dec 15 2025 17:47:15 GMT-0600 (Central Standard Time),118209.89999997616,047_o_f_n_a.png,O,m,743,7,1,1516.3999999761581,116693.5,7241,NNB,A,6
6,prac,1,0.0,1-Back,1.0,m,Mon Dec 15 2025 17:47:15 GMT-0600 (Central Standard Time),119960.89999997616,045_m_m_n_a.png,O,m,969,8,1,1741.8999999761581,118219.0,7241,NNB,A,7
7,prac,1,0.0,1-Back,1.0,m,Mon Dec 15 2025 17:47:15 GMT-0600 (Central Standard Time),121578.10000002384,050_m_f_n_a.png,O,m,831,9,1,1604.0,119974.10000002384,7241,NNB,A,8
8,prac,1,1.0,1-Back,1.0,z,Mon Dec 15 2025 17:47:15 GMT-0600 (Central Standard Time),123012.79999995232,050_m_f_n_a.png,O,z,645,10,1,1422.2999999523163,121590.5,7241,NNB,A,9
9,prac,1,0.0,1-Back,1.0,m,Mon Dec 15 2025 17:47:15 GMT-0600 (Central Standard Time),124494.60000002384,053_o_m_n_a.png,O,m,715,11,1,1470.3000000715256,123024.29999995232,7241,NNB,A,10
10,prac,1,0.0,1-Back,1.0,m,Mon Dec 15 2025 17:47:15 GMT-0600 (Central Standard Time),126127.29999995232,010_y_f_n_a.png,O,m,822,12,1,1622.5999999046326,124504.70000004768,7241,NNB,A,11
0,test,1,0.0,1-Back,,,Mon Dec 15 2025 17:47:15 GMT-0600 (Central Standard Time),126127.29999995232,063_y_f_n_a.png,O,space,5426,1,1,1622.5999999046326,124504.70000004768,7241,NNB,A,0
0,test,1,0.0,1-Back,0.0,m,Mon Dec 15 2025 17:47:15 GMT-0600 (Central Standard Time),141289.10000002384,043_m_f_n_a.png,O,z,588,2,1,1604.8000000715256,139684.29999995232,7241,NNB,A,1
1,test,1,0.0,1-Back,1.0,m,Mon Dec 15 2025 17:47:15 GMT-0600 (Central Standard Time),143387.10000002384,010_y_f_n_a.png,O,m,1074,3,1,2089.899999976158,141297.20000004768,7241,NNB,A,2
2,test,1,1.0,1-Back,1.0,z,Mon Dec 15 2025 17:47:15 GMT-0600 (Central Standard Time),145121.20000004768,010_y_f_n_a.png,O,z,711,4,1,1724.2000000476837,143397.0,7241,NNB,A,3
3,test,1,0.0,1-Back,1.0,m,Mon Dec 15 2025 17:47:15 GMT-0600 (Central Standard Time),146702.60000002384,043_m_f_n_a.png,O,m,565,5,1,1571.8999999761581,145130.70000004768,7241,NNB,A,4
4,test,1,0.0,1-Back,1.0,m,Mon Dec 15 2025 17:47:15 GMT-0600 (Central Standard Time),148452.39999997616,053_o_m_n_a.png,O,m,726,6,1,1740.3999999761581,146712.0,7241,NNB,A,5
5,test,1,1.0,1-Back,1.0,z,Mon Dec 15 2025 17:47:15 GMT-0600 (Central Standard Time),150201.70000004768,053_o_m_n_a.png,O,z,719,7,1,1740.3000000715256,148461.39999997616,7241,NNB,A,6
6,test,1,0.0,1-Back,1.0,m,Mon Dec 15 2025 17:47:15 GMT-0600 (Central Standard Time),151919.5,058_m_m_n_a.png,O,m,688,8,1,1708.7000000476837,150210.79999995232,7241,NNB,A,7
7,test,1,0.0,1-Back,1.0,m,Mon Dec 15 2025 17:47:15 GMT-0600 (Central Standard Time),153584.79999995232,047_o_f_n_a.png,O,m,638,9,1,1659.5,151925.29999995232,7241,NNB,A,8
8,test,1,0.0,1-Back,1.0,m,Mon Dec 15 2025 17:47:15 GMT-0600 (Central Standard Time),155367.20000004768,058_m_m_n_a.png,O,m,763,10,1,1772.7000000476837,153594.5,7241,NNB,A,9
9,test,1,0.0,1-Back,1.0,m,Mon Dec 15 2025 17:47:15 GMT-0600 (Central Standard Time),157117.60000002384,041_y_m_n_a.png,O,m,733,11,1,1739.8000000715256,155377.79999995232,7241,NNB,A,10
10,test,1,1.0,1-Back,1.0,z,Mon Dec 15 2025 17:47:15 GMT-0600 (Central Standard Time),158782.79999995232,041_y_m_n_a.png,O,z,638,12,1,1657.7999999523163,157125.0,7241,NNB,A,11
11,test,1,0.0,1-Back,1.0,m,Mon Dec 15 2025 17:47:15 GMT-0600 (Central Standard Time),160633.10000002384,044_o_f_n_a.png,O,m,822,13,1,1841.6000000238419,158791.5,7241,NNB,A,12
12,test,1,1.0,1-Back,1.0,z,Mon Dec 15 2025 17:47:15 GMT-0600 (Central Standard Time),162165.60000002384,044_o_f_n_a.png,O,z,516,14,1,1524.6000000238419,160641.0,7241,NNB,A,13
13,test,1,0.0,1-Back,1.0,m,Mon Dec 15 2025 17:47:15 GMT-0600 (Central Standard Time),163798.29999995232,008_y_m_n_a.png,O,m,607,15,1,1623.6999999284744,162174.60000002384,7241,NNB,A,14
14,test,1,0.0,1-Back,1.0,m,Mon Dec 15 2025 17:47:15 GMT-0600 (Central Standard Time),165598.20000004768,050_m_f_n_a.png,O,m,775,16,1,1790.6000000238419,163807.60000002384,7241,NNB,A,15
15,test,1,0.0,1-Back,1.0,m,Mon Dec 15 2025 17:47:15 GMT-0600 (Central Standard Time),167297.10000002384,046_o_m_n_a.png,O,m,670,17,1,1689.0,165608.10000002384,7241,NNB,A,16
16,test,1,0.0,1-Back,1.0,m,Mon Dec 15 2025 17:47:15 GMT-0600 (Central Standard Time),168897.29999995232,050_m_f_n_a.png,O,m,569,18,1,1590.1999999284744,167307.10000002384,7241,NNB,A,17
0,test,2,0.0,1-Back,,,Mon Dec 15 2025 17:47:15 GMT-0600 (Central Standard Time),168897.29999995232,058_m_m_n_a.png,O,space,2315,1,1,1590.1999999284744,167307.10000002384,7241,NNB,A,0
1,test,2,0.0,1-Back,1.0,m,Mon Dec 15 2025 17:47:15 GMT-0600 (Central Standard Time),174960.79999995232,043_m_f_n_a.png,O,m,685,2,1,1704.0,173256.79999995232,7241,NNB,A,1
2,test,2,1.0,1-Back,1.0,z,Mon Dec 15 2025 17:47:15 GMT-0600 (Central Standard Time),177026.60000002384,043_m_f_n_a.png,O,z,1034,3,1,2057.100000023842,174969.5,7241,NNB,A,2
3,test,2,0.0,1-Back,1.0,m,Mon Dec 15 2025 17:47:15 GMT-0600 (Central Standard Time),178812.60000002384,058_m_m_n_a.png,O,m,767,4,1,1776.5,177036.10000002384,7241,NNB,A,3
4,test,2,0.0,1-Back,1.0,m,Mon Dec 15 2025 17:47:15 GMT-0600 (Central Standard Time),180460.10000002384,041_y_m_n_a.png,O,m,624,5,1,1637.1000000238419,178823.0,7241,NNB,A,4
5,test,2,0.0,1-Back,1.0,m,Mon Dec 15 2025 17:47:15 GMT-0600 (Central Standard Time),182058.79999995232,063_y_f_n_a.png,O,m,574,6,1,1588.7999999523163,180470.0,7241,NNB,A,5
6,test,2,1.0,1-Back,1.0,z,Mon Dec 15 2025 17:47:15 GMT-0600 (Central Standard Time),183791.70000004768,063_y_f_n_a.png,O,z,713,7,1,1723.6000000238419,182068.10000002384,7241,NNB,A,6
7,test,2,0.0,1-Back,1.0,m,Mon Dec 15 2025 17:47:15 GMT-0600 (Central Standard Time),185559.29999995232,041_y_m_n_a.png,O,m,751,8,1,1756.0,183803.29999995232,7241,NNB,A,7
8,test,2,0.0,1-Back,1.0,m,Mon Dec 15 2025 17:47:15 GMT-0600 (Central Standard Time),187190.39999997616,044_o_f_n_a.png,O,m,605,9,1,1621.1999999284744,185569.20000004768,7241,NNB,A,8
9,test,2,0.0,1-Back,1.0,m,Mon Dec 15 2025 17:47:15 GMT-0600 (Central Standard Time),188873.70000004768,045_m_m_n_a.png,O,m,652,10,1,1672.8000000715256,187200.89999997616,7241,NNB,A,9
9,test,2,1.0,1-Back,0.0,z,Mon Dec 15 2025 17:47:15 GMT-0600 (Central Standard Time),191157.0,045_m_m_n_a.png,O,m,1258,11,1,2274.600000023842,188882.39999997616,7241,NNB,A,10
10,test,2,0.0,1-Back,1.0,m,Mon Dec 15 2025 17:47:15 GMT-0600 (Central Standard Time),193104.89999997616,044_o_f_n_a.png,O,m,928,12,1,1938.0,191166.89999997616,7241,NNB,A,11
11,test,2,0.0,1-Back,1.0,m,Mon Dec 15 2025 17:47:15 GMT-0600 (Central Standard Time),194789.29999995232,047_o_f_n_a.png,O,m,658,13,1,1676.3999999761581,193112.89999997616,7241,NNB,A,12
12,test,2,0.0,1-Back,1.0,m,Mon Dec 15 2025 17:47:15 GMT-0600 (Central Standard Time),196438.5,053_o_m_n_a.png,O,m,624,14,1,1636.8999999761581,194801.60000002384,7241,NNB,A,13
13,test,2,0.0,1-Back,1.0,m,Mon Dec 15 2025 17:47:15 GMT-0600 (Central Standard Time),198104.20000004768,046_o_m_n_a.png,O,m,647,15,1,1655.8000000715256,196448.39999997616,7241,NNB,A,14
14,test,2,1.0,1-Back,1.0,z,Mon Dec 15 2025 17:47:15 GMT-0600 (Central Standard Time),199686.79999995232,046_o_m_n_a.png,O,z,552,16,1,1572.2999999523163,198114.5,7241,NNB,A,15
15,test,2,0.0,1-Back,1.0,m,Mon Dec 15 2025 17:47:15 GMT-0600 (Central Standard Time),201369.79999995232,008_y_m_n_a.png,O,m,663,17,1,1672.6999999284744,199697.10000002384,7241,NNB,A,16
16,test,2,1.0,1-Back,1.0,z,Mon Dec 15 2025 17:47:15 GMT-0600 (Central Standard Time),203118.89999997616,008_y_m_n_a.png,O,z,730,18,1,1737.7999999523163,201381.10000002384,7241,NNB,A,17
0,test,3,1.0,1-Back,,,Mon Dec 15 2025 17:47:15 GMT-0600 (Central Standard Time),203118.89999997616,010_y_f_n_a.png,O,space,1909,1,1,1737.7999999523163,201381.10000002384,7241,NNB,A,0
1,test,3,0.0,1-Back,1.0,m,Mon Dec 15 2025 17:47:15 GMT-0600 (Central Standard Time),208634.29999995232,046_o_m_n_a.png,O,m,511,2,1,1522.2999999523163,207112.0,7241,NNB,A,1
2,test,3,1.0,1-Back,1.0,z,Mon Dec 15 2025 17:47:15 GMT-0600 (Central Standard Time),210250.60000002384,046_o_m_n_a.png,O,z,585,3,1,1606.7000000476837,208643.89999997616,7241,NNB,A,2
3,test,3,0.0,1-Back,1.0,m,Mon Dec 15 2025 17:47:15 GMT-0600 (Central Standard Time),212065.79999995232,050_m_f_n_a.png,O,m,786,4,1,1803.8999999761581,210261.89999997616,7241,NNB,A,3
3,test,3,1.0,1-Back,0.0,z,Mon Dec 15 2025 17:47:15 GMT-0600 (Central Standard Time),213766.60000002384,050_m_f_n_a.png,O,m,681,5,1,1689.8999999761581,212076.70000004768,7241,NNB,A,4
4,test,3,0.0,1-Back,1.0,m,Mon Dec 15 2025 17:47:15 GMT-0600 (Central Standard Time),215631.0,044_o_f_n_a.png,O,m,836,6,1,1854.2999999523163,213776.70000004768,7241,NNB,A,5
5,test,3,0.0,1-Back,1.0,m,Mon Dec 15 2025 17:47:15 GMT-0600 (Central Standard Time),217263.70000004768,041_y_m_n_a.png,O,m,604,7,1,1621.6000000238419,215642.10000002384,7241,NNB,A,6
6,test,3,0.0,1-Back,1.0,m,Mon Dec 15 2025 17:47:15 GMT-0600 (Central Standard Time),219063.70000004768,044_o_f_n_a.png,O,m,770,8,1,1790.1000000238419,217273.60000002384,7241,NNB,A,7
7,test,3,0.0,1-Back,1.0,m,Mon Dec 15 2025 17:47:15 GMT-0600 (Central Standard Time),220679.89999997616,008_y_m_n_a.png,O,m,597,9,1,1604.6999999284744,219075.20000004768,7241,NNB,A,8
8,test,3,1.0,1-Back,1.0,z,Mon Dec 15 2025 17:47:15 GMT-0600 (Central Standard Time),222212.89999997616,008_y_m_n_a.png,O,z,499,10,1,1520.6000000238419,220692.29999995232,7241,NNB,A,9
9,test,3,0.0,1-Back,1.0,m,Mon Dec 15 2025 17:47:15 GMT-0600 (Central Standard Time),223944.79999995232,043_m_f_n_a.png,O,m,713,11,1,1720.7999999523163,222224.0,7241,NNB,A,10
10,test,3,0.0,1-Back,1.0,m,Mon Dec 15 2025 17:47:15 GMT-0600 (Central Standard Time),225744.70000004768,063_y_f_n_a.png,O,m,778,12,1,1788.0,223956.70000004768,7241,NNB,A,11
11,test,3,1.0,1-Back,1.0,z,Mon Dec 15 2025 17:47:15 GMT-0600 (Central Standard Time),227311.89999997616,063_y_f_n_a.png,O,z,550,13,1,1554.3999999761581,225757.5,7241,NNB,A,12
12,test,3,0.0,1-Back,1.0,m,Mon Dec 15 2025 17:47:15 GMT-0600 (Central Standard Time),229044.0,043_m_f_n_a.png,O,m,709,14,1,1721.1000000238419,227322.89999997616,7241,NNB,A,13
13,test,3,0.0,1-Back,1.0,m,Mon Dec 15 2025 17:47:15 GMT-0600 (Central Standard Time),230892.60000002384,058_m_m_n_a.png,O,m,815,15,1,1838.6000000238419,229054.0,7241,NNB,A,14
14,test,3,1.0,1-Back,1.0,z,Mon Dec 15 2025 17:47:15 GMT-0600 (Central Standard Time),232510.79999995232,058_m_m_n_a.png,O,z,591,16,1,1612.8999999761581,230897.89999997616,7241,NNB,A,15
15,test,3,0.0,1-Back,1.0,m,Mon Dec 15 2025 17:47:15 GMT-0600 (Central Standard Time),234225.60000002384,047_o_f_n_a.png,O,m,695,17,1,1705.5,232520.10000002384,7241,NNB,A,16
16,test,3,1.0,1-Back,1.0,z,Mon Dec 15 2025 17:47:15 GMT-0600 (Central Standard Time),235876.0,047_o_f_n_a.png,O,z,614,18,1,1639.2000000476837,234236.79999995232,7241,NNB,A,17
0,test,4,1.0,1-Back,,,Mon Dec 15 2025 17:47:15 GMT-0600 (Central Standard Time),235876.0,050_m_f_n_a.png,O,space,1799,1,1,1639.2000000476837,234236.79999995232,7241,NNB,A,0
1,test,4,0.0,1-Back,1.0,m,Mon Dec 15 2025 17:47:15 GMT-0600 (Central Standard Time),241439.89999997616,046_o_m_n_a.png,O,m,715,2,1,1720.3999999761581,239719.5,7241,NNB,A,1
2,test,4,0.0,1-Back,1.0,m,Mon Dec 15 2025 17:47:15 GMT-0600 (Central Standard Time),243572.60000002384,050_m_f_n_a.png,O,m,1107,3,1,2121.3000000715256,241451.29999995232,7241,NNB,A,2
3,test,4,0.0,1-Back,1.0,m,Mon Dec 15 2025 17:47:15 GMT-0600 (Central Standard Time),245190.29999995232,044_o_f_n_a.png,O,m,585,4,1,1607.0999999046326,243583.20000004768,7241,NNB,A,3
4,test,4,1.0,1-Back,1.0,z,Mon Dec 15 2025 17:47:15 GMT-0600 (Central Standard Time),246722.5,044_o_f_n_a.png,O,z,513,5,1,1522.0,245200.5,7241,NNB,A,4
5,test,4,0.0,1-Back,1.0,m,Mon Dec 15 2025 17:47:15 GMT-0600 (Central Standard Time),248487.20000004768,063_y_f_n_a.png,O,m,748,6,1,1754.2000000476837,246733.0,7241,NNB,A,5
6,test,4,0.0,1-Back,1.0,m,Mon Dec 15 2025 17:47:15 GMT-0600 (Central Standard Time),250103.60000002384,041_y_m_n_a.png,O,m,595,7,1,1606.3999999761581,248497.20000004768,7241,NNB,A,6
7,test,4,1.0,1-Back,1.0,z,Mon Dec 15 2025 17:47:15 GMT-0600 (Central Standard Time),251620.89999997616,041_y_m_n_a.png,O,z,498,8,1,1509.1999999284744,250111.70000004768,7241,NNB,A,7
8,test,4,0.0,1-Back,1.0,m,Mon Dec 15 2025 17:47:15 GMT-0600 (Central Standard Time),253220.70000004768,063_y_f_n_a.png,O,m,568,9,1,1594.1000000238419,251626.60000002384,7241,NNB,A,8
9,test,4,0.0,1-Back,1.0,m,Mon Dec 15 2025 17:47:15 GMT-0600 (Central Standard Time),254852.60000002384,045_m_m_n_a.png,O,m,607,10,1,1622.3000000715256,253230.29999995232,7241,NNB,A,9
10,test,4,1.0,1-Back,1.0,z,Mon Dec 15 2025 17:47:15 GMT-0600 (Central Standard Time),256385.39999997616,045_m_m_n_a.png,O,z,501,11,1,1525.2999999523163,254860.10000002384,7241,NNB,A,10
11,test,4,0.0,1-Back,1.0,m,Mon Dec 15 2025 17:47:15 GMT-0600 (Central Standard Time),258001.70000004768,047_o_f_n_a.png,O,m,595,12,1,1607.3000000715256,256394.39999997616,7241,NNB,A,11
12,test,4,0.0,1-Back,1.0,m,Mon Dec 15 2025 17:47:15 GMT-0600 (Central Standard Time),259650.79999995232,053_o_m_n_a.png,O,m,625,13,1,1637.6999999284744,258013.10000002384,7241,NNB,A,12
13,test,4,0.0,1-Back,1.0,m,Mon Dec 15 2025 17:47:15 GMT-0600 (Central Standard Time),261301.20000004768,047_o_f_n_a.png,O,m,634,14,1,1644.4000000953674,259656.79999995232,7241,NNB,A,13
14,test,4,0.0,1-Back,1.0,m,Mon Dec 15 2025 17:47:15 GMT-0600 (Central Standard Time),262916.7000000477,010_y_f_n_a.png,O,m,583,15,1,1606.2000000476837,261310.5,7241,NNB,A,14
15,test,4,1.0,1-Back,1.0,z,Mon Dec 15 2025 17:47:15 GMT-0600 (Central Standard Time),264551.7000000477,010_y_f_n_a.png,O,z,615,16,1,1624.9000000953674,262926.7999999523,7241,NNB,A,15
16,test,4,0.0,1-Back,1.0,m,Mon Dec 15 2025 17:47:15 GMT-0600 (Central Standard Time),266198.7999999523,043_m_f_n_a.png,O,m,621,17,1,1637.2999999523163,264561.5,7241,NNB,A,16
17,test,4,1.0,1-Back,1.0,z,Mon Dec 15 2025 17:47:15 GMT-0600 (Central Standard Time),268399.0,043_m_f_n_a.png,O,z,1183,18,1,2190.2999999523163,266208.7000000477,7241,NNB,A,17
0,test,5,1.0,1-Back,,,Mon Dec 15 2025 17:47:15 GMT-0600 (Central Standard Time),268399.0,053_o_m_n_a.png,O,space,2204,1,1,2190.2999999523163,266208.7000000477,7241,NNB,A,0
1,test,5,1.0,1-Back,1.0,z,Mon Dec 15 2025 17:47:15 GMT-0600 (Central Standard Time),274413.0,053_o_m_n_a.png,O,z,756,2,1,1771.3999999761581,272641.60000002384,7241,NNB,A,1
2,test,5,0.0,1-Back,1.0,m,Mon Dec 15 2025 17:47:15 GMT-0600 (Central Standard Time),276045.7999999523,063_y_f_n_a.png,O,m,606,3,1,1624.0999999046326,274421.7000000477,7241,NNB,A,2
3,test,5,0.0,1-Back,1.0,m,Mon Dec 15 2025 17:47:15 GMT-0600 (Central Standard Time),277645.7999999523,041_y_m_n_a.png,O,m,568,4,1,1589.6999999284744,276056.10000002384,7241,NNB,A,3
4,test,5,0.0,1-Back,1.0,m,Mon Dec 15 2025 17:47:15 GMT-0600 (Central Standard Time),279512.2000000477,063_y_f_n_a.png,O,m,838,5,1,1855.9000000953674,277656.2999999523,7241,NNB,A,4
5,test,5,0.0,1-Back,1.0,m,Mon Dec 15 2025 17:47:15 GMT-0600 (Central Standard Time),281095.60000002384,058_m_m_n_a.png,O,m,565,6,1,1572.1000000238419,279523.5,7241,NNB,A,5
6,test,5,1.0,1-Back,1.0,z,Mon Dec 15 2025 17:47:15 GMT-0600 (Central Standard Time),282691.89999997616,058_m_m_n_a.png,O,z,571,7,1,1589.6000000238419,281102.2999999523,7241,NNB,A,6
7,test,5,0.0,1-Back,1.0,m,Mon Dec 15 2025 17:47:15 GMT-0600 (Central Standard Time),284343.10000002384,010_y_f_n_a.png,O,m,631,8,1,1644.6000000238419,282698.5,7241,NNB,A,7
8,test,5,0.0,1-Back,1.0,m,Mon Dec 15 2025 17:47:15 GMT-0600 (Central Standard Time),285909.5,008_y_m_n_a.png,O,m,541,9,1,1555.0,284354.5,7241,NNB,A,8
9,test,5,0.0,1-Back,1.0,m,Mon Dec 15 2025 17:47:15 GMT-0600 (Central Standard Time),287508.7999999523,010_y_f_n_a.png,O,m,565,10,1,1589.6999999284744,285919.10000002384,7241,NNB,A,9
10,test,5,0.0,1-Back,1.0,m,Mon Dec 15 2025 17:47:15 GMT-0600 (Central Standard Time),289058.5,047_o_f_n_a.png,O,m,518,11,1,1538.7000000476837,287519.7999999523,7241,NNB,A,10
11,test,5,1.0,1-Back,1.0,z,Mon Dec 15 2025 17:47:15 GMT-0600 (Central Standard Time),290540.2999999523,047_o_f_n_a.png,O,z,466,12,1,1472.0,289068.2999999523,7241,NNB,A,11
12,test,5,0.0,1-Back,1.0,m,Mon Dec 15 2025 17:47:15 GMT-0600 (Central Standard Time),292077.10000002384,046_o_m_n_a.png,O,m,519,13,1,1530.8000000715256,290546.2999999523,7241,NNB,A,12
13,test,5,0.0,1-Back,1.0,m,Mon Dec 15 2025 17:47:15 GMT-0600 (Central Standard Time),293591.7999999523,050_m_f_n_a.png,O,m,489,14,1,1506.1999999284744,292085.60000002384,7241,NNB,A,13
14,test,5,1.0,1-Back,1.0,z,Mon Dec 15 2025 17:47:15 GMT-0600 (Central Standard Time),295223.5,050_m_f_n_a.png,O,z,614,15,1,1625.2000000476837,293598.2999999523,7241,NNB,A,14
15,test,5,0.0,1-Back,1.0,m,Mon Dec 15 2025 17:47:15 GMT-0600 (Central Standard Time),296856.39999997616,046_o_m_n_a.png,O,m,599,16,1,1622.0,295234.39999997616,7241,NNB,A,15
16,test,5,0.0,1-Back,1.0,m,Mon Dec 15 2025 17:47:15 GMT-0600 (Central Standard Time),298422.60000002384,043_m_f_n_a.png,O,m,540,17,1,1554.7000000476837,296867.89999997616,7241,NNB,A,16
17,test,5,0.0,1-Back,1.0,m,Mon Dec 15 2025 17:47:15 GMT-0600 (Central Standard Time),299973.10000002384,045_m_m_n_a.png,O,m,524,18,1,1540.1000000238419,298433.0,7241,NNB,A,17
0,prac,1,0.0,2-Back,,,Mon Dec 15 2025 17:47:15 GMT-0600 (Central Standard Time),299973.10000002384,008_y_m_n_a.png,O,space,5262,1,1,1540.1000000238419,298433.0,7241,NNB,A,0
0,prac,1,0.0,2-Back,,,Mon Dec 15 2025 17:47:15 GMT-0600 (Central Standard Time),299973.10000002384,043_m_f_n_a.png,O,space,5262,2,1,1540.1000000238419,298433.0,7241,NNB,A,0
1,prac,1,1.0,2-Back,1.0,m,Mon Dec 15 2025 17:47:15 GMT-0600 (Central Standard Time),411585.89999997616,046_o_m_n_a.png,O,m,847,3,1,1639.5,409946.39999997616,7241,NNB,A,1
1,prac,1,0.0,2-Back,0.0,m,Mon Dec 15 2025 17:47:15 GMT-0600 (Central Standard Time),414418.2999999523,047_o_f_n_a.png,O,None,2007,4,1,2821.1999999284744,411597.10000002384,7241,NNB,A,2
1,prac,1,0.0,2-Back,0.0,z,Mon Dec 15 2025 17:47:15 GMT-0600 (Central Standard Time),417002.39999997616,046_o_m_n_a.png,O,m,1791,5,1,2573.100000023842,414429.2999999523,7241,NNB,A,3
2,prac,1,1.0,2-Back,1.0,z,Mon Dec 15 2025 17:47:15 GMT-0600 (Central Standard Time),418667.7999999523,047_o_f_n_a.png,O,z,879,6,1,1654.6999999284744,417013.10000002384,7241,NNB,A,4
3,prac,1,0.0,2-Back,1.0,m,Mon Dec 15 2025 17:47:15 GMT-0600 (Central Standard Time),420284.0,045_m_m_n_a.png,O,m,810,7,1,1604.6000000238419,418679.39999997616,7241,NNB,A,5
4,prac,1,0.0,2-Back,1.0,m,Mon Dec 15 2025 17:47:15 GMT-0600 (Central Standard Time),421816.5,053_o_m_n_a.png,O,m,734,8,1,1520.7999999523163,420295.7000000477,7241,NNB,A,6
5,prac,1,0.0,2-Back,1.0,m,Mon Dec 15 2025 17:47:15 GMT-0600 (Central Standard Time),423251.2999999523,010_y_f_n_a.png,O,m,656,9,1,1423.2999999523163,421828.0,7241,NNB,A,7
6,prac,1,1.0,2-Back,1.0,z,Mon Dec 15 2025 17:47:15 GMT-0600 (Central Standard Time),424765.5,053_o_m_n_a.png,O,z,723,10,1,1500.1000000238419,423265.39999997616,7241,NNB,A,8
7,prac,1,0.0,2-Back,1.0,m,Mon Dec 15 2025 17:47:15 GMT-0600 (Central Standard Time),426431.0,063_y_f_n_a.png,O,m,849,11,1,1654.6000000238419,424776.39999997616,7241,NNB,A,9
8,prac,1,0.0,2-Back,1.0,m,Mon Dec 15 2025 17:47:15 GMT-0600 (Central Standard Time),428081.7999999523,045_m_m_n_a.png,O,m,868,12,1,1640.5999999046326,426441.2000000477,7241,NNB,A,10
0,test,1,0.0,2-Back,,,Mon Dec 15 2025 17:47:15 GMT-0600 (Central Standard Time),428081.7999999523,041_y_m_n_a.png,O,space,5224,1,1,1640.5999999046326,426441.2000000477,7241,NNB,A,0
0,test,1,0.0,2-Back,,,Mon Dec 15 2025 17:47:15 GMT-0600 (Central Standard Time),428081.7999999523,041_y_m_n_a.png,O,space,5224,2,1,1640.5999999046326,426441.2000000477,7241,NNB,A,0
1,test,1,0.0,2-Back,1.0,m,Mon Dec 15 2025 17:47:15 GMT-0600 (Central Standard Time),448423.2999999523,047_o_f_n_a.png,O,m,504,3,1,1521.0,446902.2999999523,7241,NNB,A,1
2,test,1,0.0,2-Back,1.0,m,Mon Dec 15 2025 17:47:15 GMT-0600 (Central Standard Time),450275.10000002384,058_m_m_n_a.png,O,m,820,4,1,1844.0,448431.10000002384,7241,NNB,A,2
3,test,1,1.0,2-Back,1.0,z,Mon Dec 15 2025 17:47:15 GMT-0600 (Central Standard Time),451873.2000000477,047_o_f_n_a.png,O,z,566,5,1,1589.1000000238419,450284.10000002384,7241,NNB,A,3
4,test,1,0.0,2-Back,1.0,m,Mon Dec 15 2025 17:47:15 GMT-0600 (Central Standard Time),453674.60000002384,063_y_f_n_a.png,O,m,779,6,1,1791.7000000476837,451882.89999997616,7241,NNB,A,4
4,test,1,0.0,2-Back,0.0,m,Mon Dec 15 2025 17:47:15 GMT-0600 (Central Standard Time),455372.2000000477,058_m_m_n_a.png,O,z,671,7,1,1690.9000000953674,453681.2999999523,7241,NNB,A,5
5,test,1,1.0,2-Back,1.0,z,Mon Dec 15 2025 17:47:15 GMT-0600 (Central Standard Time),457737.7000000477,063_y_f_n_a.png,O,z,1343,8,1,2356.0,455381.7000000477,7241,NNB,A,6
5,test,1,0.0,2-Back,0.0,m,Mon Dec 15 2025 17:47:15 GMT-0600 (Central Standard Time),460770.10000002384,008_y_m_n_a.png,O,None,2015,9,1,3023.3000000715256,457746.7999999523,7241,NNB,A,7
6,test,1,0.0,2-Back,1.0,m,Mon Dec 15 2025 17:47:15 GMT-0600 (Central Standard Time),462853.2000000477,044_o_f_n_a.png,O,m,1049,10,1,2073.2000000476837,460780.0,7241,NNB,A,8
7,test,1,1.0,2-Back,1.0,z,Mon Dec 15 2025 17:47:15 GMT-0600 (Central Standard Time),464436.0,008_y_m_n_a.png,O,z,557,11,1,1571.0,462865.0,7241,NNB,A,9
8,test,1,0.0,2-Back,1.0,m,Mon Dec 15 2025 17:47:15 GMT-0600 (Central Standard Time),467019.2000000477,043_m_f_n_a.png,O,m,1552,12,1,2573.5,464445.7000000477,7241,NNB,A,10
8,test,1,0.0,2-Back,0.0,m,Mon Dec 15 2025 17:47:15 GMT-0600 (Central Standard Time),470035.7000000477,043_m_f_n_a.png,O,None,2001,13,1,3006.0,467029.7000000477,7241,NNB,A,11
9,test,1,0.0,2-Back,1.0,m,Mon Dec 15 2025 17:47:15 GMT-0600 (Central Standard Time),472134.2999999523,046_o_m_n_a.png,O,m,1084,14,1,2088.7999999523163,470045.5,7241,NNB,A,12
10,test,1,0.0,2-Back,1.0,m,Mon Dec 15 2025 17:47:15 GMT-0600 (Central Standard Time),474166.39999997616,044_o_f_n_a.png,O,m,1006,15,1,2020.7999999523163,472145.60000002384,7241,NNB,A,13
11,test,1,1.0,2-Back,1.0,z,Mon Dec 15 2025 17:47:15 GMT-0600 (Central Standard Time),475715.39999997616,046_o_m_n_a.png,O,z,526,16,1,1538.0,474177.39999997616,7241,NNB,A,14
12,test,1,0.0,2-Back,1.0,m,Mon Dec 15 2025 17:47:15 GMT-0600 (Central Standard Time),477782.2999999523,050_m_f_n_a.png,O,m,1049,17,1,2056.5,475725.7999999523,7241,NNB,A,15
13,test,1,0.0,2-Back,1.0,m,Mon Dec 15 2025 17:47:15 GMT-0600 (Central Standard Time),479764.2000000477,045_m_m_n_a.png,O,m,958,18,1,1973.6000000238419,477790.60000002384,7241,NNB,A,16
0,test,2,0.0,2-Back,,,Mon Dec 15 2025 17:47:15 GMT-0600 (Central Standard Time),479764.2000000477,045_m_m_n_a.png,O,space,2159,1,1,1973.6000000238419,477790.60000002384,7241,NNB,A,0
0,test,2,0.0,2-Back,,,Mon Dec 15 2025 17:47:15 GMT-0600 (Central Standard Time),479764.2000000477,010_y_f_n_a.png,O,space,2159,2,1,1973.6000000238419,477790.60000002384,7241,NNB,A,0
1,test,2,1.0,2-Back,1.0,z,Mon Dec 15 2025 17:47:15 GMT-0600 (Central Standard Time),488561.7000000477,045_m_m_n_a.png,O,z,502,3,1,1522.0,487039.7000000477,7241,NNB,A,1
2,test,2,0.0,2-Back,1.0,m,Mon Dec 15 2025 17:47:15 GMT-0600 (Central Standard Time),490445.89999997616,050_m_f_n_a.png,O,m,850,4,1,1873.6999999284744,488572.2000000477,7241,NNB,A,2
2,test,2,0.0,2-Back,0.0,m,Mon Dec 15 2025 17:47:15 GMT-0600 (Central Standard Time),493477.0,010_y_f_n_a.png,O,None,2014,5,1,3019.7999999523163,490457.2000000477,7241,NNB,A,3
3,test,2,0.0,2-Back,1.0,m,Mon Dec 15 2025 17:47:15 GMT-0600 (Central Standard Time),495476.7000000477,046_o_m_n_a.png,O,m,968,6,1,1989.4000000953674,493487.2999999523,7241,NNB,A,4
4,test,2,0.0,2-Back,1.0,m,Mon Dec 15 2025 17:47:15 GMT-0600 (Central Standard Time),497407.7999999523,063_y_f_n_a.png,O,m,904,7,1,1921.6999999284744,495486.10000002384,7241,NNB,A,5
5,test,2,1.0,2-Back,1.0,z,Mon Dec 15 2025 17:47:15 GMT-0600 (Central Standard Time),498957.7000000477,046_o_m_n_a.png,O,z,523,8,1,1539.8000000715256,497417.89999997616,7241,NNB,A,6
6,test,2,0.0,2-Back,1.0,m,Mon Dec 15 2025 17:47:15 GMT-0600 (Central Standard Time),500776.2999999523,008_y_m_n_a.png,O,m,800,9,1,1808.5999999046326,498967.7000000477,7241,NNB,A,7
7,test,2,0.0,2-Back,1.0,m,Mon Dec 15 2025 17:47:15 GMT-0600 (Central Standard Time),502990.10000002384,008_y_m_n_a.png,O,m,1199,10,1,2203.600000023842,500786.5,7241,NNB,A,8
8,test,2,0.0,2-Back,1.0,m,Mon Dec 15 2025 17:47:15 GMT-0600 (Central Standard Time),505023.10000002384,043_m_f_n_a.png,O,m,1012,11,1,2023.6000000238419,502999.5,7241,NNB,A,9
9,test,2,0.0,2-Back,1.0,m,Mon Dec 15 2025 17:47:15 GMT-0600 (Central Standard Time),507157.39999997616,010_y_f_n_a.png,O,m,1118,12,1,2124.899999976158,505032.5,7241,NNB,A,10
10,test,2,1.0,2-Back,1.0,z,Mon Dec 15 2025 17:47:15 GMT-0600 (Central Standard Time),508621.2999999523,043_m_f_n_a.png,O,z,440,13,1,1453.8999999761581,507167.39999997616,7241,NNB,A,11
11,test,2,0.0,2-Back,1.0,m,Mon Dec 15 2025 17:47:15 GMT-0600 (Central Standard Time),510420.2999999523,053_o_m_n_a.png,O,m,773,14,1,1791.6999999284744,508628.60000002384,7241,NNB,A,12
12,test,2,0.0,2-Back,1.0,m,Mon Dec 15 2025 17:47:15 GMT-0600 (Central Standard Time),512821.89999997616,053_o_m_n_a.png,O,m,1373,15,1,2391.600000023842,510430.2999999523,7241,NNB,A,13
13,test,2,0.0,2-Back,1.0,m,Mon Dec 15 2025 17:47:15 GMT-0600 (Central Standard Time),514836.60000002384,044_o_f_n_a.png,O,m,989,16,1,2004.8999999761581,512831.7000000477,7241,NNB,A,14
14,test,2,0.0,2-Back,1.0,m,Mon Dec 15 2025 17:47:15 GMT-0600 (Central Standard Time),516753.0,058_m_m_n_a.png,O,m,888,17,1,1907.1000000238419,514845.89999997616,7241,NNB,A,15
15,test,2,1.0,2-Back,1.0,z,Mon Dec 15 2025 17:47:15 GMT-0600 (Central Standard Time),518301.7999999523,044_o_f_n_a.png,O,z,522,18,1,1538.7999999523163,516763.0,7241,NNB,A,16
0,test,3,1.0,2-Back,,,Mon Dec 15 2025 17:47:15 GMT-0600 (Central Standard Time),518301.7999999523,041_y_m_n_a.png,O,space,2454,1,1,1538.7999999523163,516763.0,7241,NNB,A,0
0,test,3,1.0,2-Back,,,Mon Dec 15 2025 17:47:15 GMT-0600 (Central Standard Time),518301.7999999523,041_y_m_n_a.png,O,space,2454,2,1,1538.7999999523163,516763.0,7241,NNB,A,0
1,test,3,0.0,2-Back,1.0,m,Mon Dec 15 2025 17:47:15 GMT-0600 (Central Standard Time),528032.0,044_o_f_n_a.png,O,m,1169,3,1,2188.399999976158,525843.6000000238,7241,NNB,A,1
2,test,3,0.0,2-Back,1.0,m,Mon Dec 15 2025 17:47:15 GMT-0600 (Central Standard Time),529998.8999999762,045_m_m_n_a.png,O,m,949,4,1,1957.3999999761581,528041.5,7241,NNB,A,2
3,test,3,1.0,2-Back,1.0,z,Mon Dec 15 2025 17:47:15 GMT-0600 (Central Standard Time),531514.7999999523,044_o_f_n_a.png,O,z,495,5,1,1505.3999999761581,530009.3999999762,7241,NNB,A,3
4,test,3,0.0,2-Back,1.0,m,Mon Dec 15 2025 17:47:15 GMT-0600 (Central Standard Time),533447.2999999523,008_y_m_n_a.png,O,m,914,6,1,1923.0,531524.2999999523,7241,NNB,A,4
5,test,3,0.0,2-Back,1.0,m,Mon Dec 15 2025 17:47:15 GMT-0600 (Central Standard Time),535912.7999999523,045_m_m_n_a.png,O,m,1444,7,1,2455.7999999523163,533457.0,7241,NNB,A,5
6,test,3,1.0,2-Back,1.0,z,Mon Dec 15 2025 17:47:15 GMT-0600 (Central Standard Time),537879.2000000477,008_y_m_n_a.png,O,z,933,8,1,1957.4000000953674,535921.7999999523,7241,NNB,A,6
7,test,3,0.0,2-Back,1.0,m,Mon Dec 15 2025 17:47:15 GMT-0600 (Central Standard Time),540045.5,010_y_f_n_a.png,O,m,1141,9,1,2154.2999999523163,537891.2000000477,7241,NNB,A,7
8,test,3,0.0,2-Back,1.0,m,Mon Dec 15 2025 17:47:15 GMT-0600 (Central Standard Time),542044.1000000238,058_m_m_n_a.png,O,m,974,10,1,1986.2000000476837,540057.8999999762,7241,NNB,A,8
9,test,3,1.0,2-Back,1.0,z,Mon Dec 15 2025 17:47:15 GMT-0600 (Central Standard Time),543576.5,010_y_f_n_a.png,O,z,510,11,1,1525.7000000476837,542050.7999999523,7241,NNB,A,9
10,test,3,1.0,2-Back,1.0,z,Mon Dec 15 2025 17:47:15 GMT-0600 (Central Standard Time),545742.8999999762,058_m_m_n_a.png,O,z,1146,12,1,2158.2999999523163,543584.6000000238,7241,NNB,A,10
11,test,3,0.0,2-Back,1.0,m,Mon Dec 15 2025 17:47:15 GMT-0600 (Central Standard Time),547644.0,044_o_f_n_a.png,O,m,878,13,1,1890.5,545753.5,7241,NNB,A,11
12,test,3,0.0,2-Back,1.0,m,Mon Dec 15 2025 17:47:15 GMT-0600 (Central Standard Time),549791.2000000477,050_m_f_n_a.png,O,m,1128,14,1,2136.9000000953674,547654.2999999523,7241,NNB,A,12
13,test,3,0.0,2-Back,1.0,m,Mon Dec 15 2025 17:47:15 GMT-0600 (Central Standard Time),552074.6000000238,046_o_m_n_a.png,O,m,1259,15,1,2273.0,549801.6000000238,7241,NNB,A,13
14,test,3,1.0,2-Back,1.0,z,Mon Dec 15 2025 17:47:15 GMT-0600 (Central Standard Time),553891.2000000477,050_m_f_n_a.png,O,z,785,16,1,1806.4000000953674,552084.7999999523,7241,NNB,A,14
15,test,3,0.0,2-Back,1.0,m,Mon Dec 15 2025 17:47:15 GMT-0600 (Central Standard Time),555740.6000000238,047_o_f_n_a.png,O,m,833,17,1,1837.1000000238419,553903.5,7241,NNB,A,15
16,test,3,0.0,2-Back,1.0,m,Mon Dec 15 2025 17:47:15 GMT-0600 (Central Standard Time),557955.8999999762,047_o_f_n_a.png,O,m,1182,18,1,2208.899999976158,555747.0,7241,NNB,A,16
0,test,4,0.0,2-Back,,,Mon Dec 15 2025 17:47:15 GMT-0600 (Central Standard Time),557955.8999999762,053_o_m_n_a.png,O,space,2103,1,1,2208.899999976158,555747.0,7241,NNB,A,0
0,test,4,0.0,2-Back,,,Mon Dec 15 2025 17:47:15 GMT-0600 (Central Standard Time),557955.8999999762,063_y_f_n_a.png,O,space,2103,2,1,2208.899999976158,555747.0,7241,NNB,A,0
1,test,4,1.0,2-Back,1.0,z,Mon Dec 15 2025 17:47:15 GMT-0600 (Central Standard Time),566669.7000000477,053_o_m_n_a.png,O,z,473,3,1,1488.4000000953674,565181.2999999523,7241,NNB,A,1
2,test,4,1.0,2-Back,1.0,z,Mon Dec 15 2025 17:47:15 GMT-0600 (Central Standard Time),568402.6000000238,063_y_f_n_a.png,O,z,701,4,1,1721.8000000715256,566680.7999999523,7241,NNB,A,2
3,test,4,0.0,2-Back,1.0,m,Mon Dec 15 2025 17:47:15 GMT-0600 (Central Standard Time),570551.7000000477,044_o_f_n_a.png,O,m,1120,5,1,2138.7000000476837,568413.0,7241,NNB,A,3
4,test,4,0.0,2-Back,1.0,m,Mon Dec 15 2025 17:47:15 GMT-0600 (Central Standard Time),572885.2999999523,044_o_f_n_a.png,O,m,1316,6,1,2321.399999976158,570563.8999999762,7241,NNB,A,4
5,test,4,0.0,2-Back,1.0,m,Mon Dec 15 2025 17:47:15 GMT-0600 (Central Standard Time),575468.5,043_m_f_n_a.png,O,m,1551,7,1,2572.7000000476837,572895.7999999523,7241,NNB,A,5
6,test,4,0.0,2-Back,1.0,m,Mon Dec 15 2025 17:47:15 GMT-0600 (Central Standard Time),577482.8999999762,008_y_m_n_a.png,O,m,984,8,1,2007.2999999523163,575475.6000000238,7241,NNB,A,6
7,test,4,1.0,2-Back,1.0,z,Mon Dec 15 2025 17:47:15 GMT-0600 (Central Standard Time),579015.7000000477,043_m_f_n_a.png,O,z,503,9,1,1523.0,577492.7000000477,7241,NNB,A,7
8,test,4,0.0,2-Back,1.0,m,Mon Dec 15 2025 17:47:15 GMT-0600 (Central Standard Time),580765.2999999523,058_m_m_n_a.png,O,m,716,10,1,1736.2999999523163,579029.0,7241,NNB,A,8
8,test,4,0.0,2-Back,0.0,m,Mon Dec 15 2025 17:47:15 GMT-0600 (Central Standard Time),583797.7000000477,008_y_m_n_a.png,O,None,2016,11,1,3021.4000000953674,580776.2999999523,7241,NNB,A,9
9,test,4,0.0,2-Back,1.0,m,Mon Dec 15 2025 17:47:15 GMT-0600 (Central Standard Time),585731.6000000238,047_o_f_n_a.png,O,m,901,12,1,1922.0,583809.6000000238,7241,NNB,A,10
10,test,4,0.0,2-Back,1.0,m,Mon Dec 15 2025 17:47:15 GMT-0600 (Central Standard Time),587830.6000000238,041_y_m_n_a.png,O,m,1073,13,1,2089.600000023842,585741.0,7241,NNB,A,11
11,test,4,1.0,2-Back,1.0,z,Mon Dec 15 2025 17:47:15 GMT-0600 (Central Standard Time),589529.6000000238,047_o_f_n_a.png,O,z,677,14,1,1687.2000000476837,587842.3999999762,7241,NNB,A,12
12,test,4,1.0,2-Back,1.0,z,Mon Dec 15 2025 17:47:15 GMT-0600 (Central Standard Time),591362.2000000477,041_y_m_n_a.png,O,z,809,15,1,1822.3000000715256,589539.8999999762,7241,NNB,A,13
13,test,4,0.0,2-Back,1.0,m,Mon Dec 15 2025 17:47:15 GMT-0600 (Central Standard Time),593378.1000000238,045_m_m_n_a.png,O,m,993,16,1,2005.6000000238419,591372.5,7241,NNB,A,14
14,test,4,0.0,2-Back,1.0,m,Mon Dec 15 2025 17:47:15 GMT-0600 (Central Standard Time),595261.3999999762,050_m_f_n_a.png,O,m,864,17,1,1874.0,593387.3999999762,7241,NNB,A,15
15,test,4,1.0,2-Back,1.0,z,Mon Dec 15 2025 17:47:15 GMT-0600 (Central Standard Time),596842.7000000477,045_m_m_n_a.png,O,z,559,18,1,1571.9000000953674,595270.7999999523,7241,NNB,A,16
0,test,5,1.0,2-Back,,,Mon Dec 15 2025 17:47:15 GMT-0600 (Central Standard Time),596842.7000000477,041_y_m_n_a.png,O,space,2976,1,1,1571.9000000953674,595270.7999999523,7241,NNB,A,0
0,test,5,1.0,2-Back,,,Mon Dec 15 2025 17:47:15 GMT-0600 (Central Standard Time),596842.7000000477,050_m_f_n_a.png,O,space,2976,2,1,1571.9000000953674,595270.7999999523,7241,NNB,A,0
1,test,5,1.0,2-Back,1.0,z,Mon Dec 15 2025 17:47:15 GMT-0600 (Central Standard Time),606540.5,041_y_m_n_a.png,O,z,642,3,1,1654.2000000476837,604886.2999999523,7241,NNB,A,1
2,test,5,1.0,2-Back,1.0,z,Mon Dec 15 2025 17:47:15 GMT-0600 (Central Standard Time),608306.3999999762,050_m_f_n_a.png,O,z,734,4,1,1755.5,606550.8999999762,7241,NNB,A,2
3,test,5,0.0,2-Back,1.0,m,Mon Dec 15 2025 17:47:15 GMT-0600 (Central Standard Time),610289.0,047_o_f_n_a.png,O,m,962,5,1,1971.3999999761581,608317.6000000238,7241,NNB,A,3
4,test,5,0.0,2-Back,1.0,m,Mon Dec 15 2025 17:47:15 GMT-0600 (Central Standard Time),612356.8999999762,041_y_m_n_a.png,O,m,1051,6,1,2056.600000023842,610300.2999999523,7241,NNB,A,4
5,test,5,0.0,2-Back,1.0,m,Mon Dec 15 2025 17:47:15 GMT-0600 (Central Standard Time),614054.8999999762,010_y_f_n_a.png,O,m,673,7,1,1689.1999999284744,612365.7000000477,7241,NNB,A,5
5,test,5,0.0,2-Back,0.0,m,Mon Dec 15 2025 17:47:15 GMT-0600 (Central Standard Time),616437.6000000238,047_o_f_n_a.png,O,z,1364,8,1,2372.899999976158,614064.7000000477,7241,NNB,A,6
5,test,5,1.0,2-Back,0.0,z,Mon Dec 15 2025 17:47:15 GMT-0600 (Central Standard Time),618086.5,010_y_f_n_a.png,O,m,631,9,1,1639.0,616447.5,7241,NNB,A,7
6,test,5,0.0,2-Back,1.0,m,Mon Dec 15 2025 17:47:15 GMT-0600 (Central Standard Time),619886.2000000477,046_o_m_n_a.png,O,m,781,10,1,1789.1000000238419,618097.1000000238,7241,NNB,A,8
7,test,5,0.0,2-Back,1.0,m,Mon Dec 15 2025 17:47:15 GMT-0600 (Central Standard Time),621869.0,043_m_f_n_a.png,O,m,966,11,1,1973.2000000476837,619895.7999999523,7241,NNB,A,9
8,test,5,0.0,2-Back,1.0,m,Mon Dec 15 2025 17:47:15 GMT-0600 (Central Standard Time),623618.7999999523,058_m_m_n_a.png,O,m,725,12,1,1739.7999999523163,621879.0,7241,NNB,A,10
9,test,5,0.0,2-Back,1.0,m,Mon Dec 15 2025 17:47:15 GMT-0600 (Central Standard Time),625501.8999999762,046_o_m_n_a.png,O,m,854,13,1,1873.3999999761581,623628.5,7241,NNB,A,11
10,test,5,1.0,2-Back,1.0,z,Mon Dec 15 2025 17:47:15 GMT-0600 (Central Standard Time),627235.0,058_m_m_n_a.png,O,z,711,14,1,1722.5,625512.5,7241,NNB,A,12
11,test,5,0.0,2-Back,1.0,m,Mon Dec 15 2025 17:47:15 GMT-0600 (Central Standard Time),629132.7000000477,063_y_f_n_a.png,O,m,881,15,1,1887.6000000238419,627245.1000000238,7241,NNB,A,13
12,test,5,0.0,2-Back,1.0,m,Mon Dec 15 2025 17:47:15 GMT-0600 (Central Standard Time),630883.2999999523,053_o_m_n_a.png,O,m,725,16,1,1741.6999999284744,629141.6000000238,7241,NNB,A,14
13,test,5,0.0,2-Back,1.0,m,Mon Dec 15 2025 17:47:15 GMT-0600 (Central Standard Time),632715.1000000238,043_m_f_n_a.png,O,m,800,17,1,1824.3000000715256,630890.7999999523,7241,NNB,A,15
14,test,5,1.0,2-Back,1.0,z,Mon Dec 15 2025 17:47:15 GMT-0600 (Central Standard Time),634231.8999999762,053_o_m_n_a.png,O,z,488,18,1,1507.2999999523163,632724.6000000238,7241,NNB,A,16
