acc_sum,block,block_c,change,condition,correct,correct_response,datetime,endtime,face,project,response,response_time,row_sel,session_number,start_end,starttime,subject_id,task,task_vers,trial
0,prac,1,,1-Back,,,Fri May 15 2026 09:26:48 GMT-0400 (Eastern Daylight Time),,093_m_f_n_a.png,I,space,18839,1,2,,,9057,NNB,C,0
1,prac,1,0.0,1-Back,1.0,m,Fri May 15 2026 09:26:48 GMT-0400 (Eastern Daylight Time),224480.5,098_y_f_n_a.png,I,m,1053,2,2,1957.5,222523.0,9057,NNB,C,1
1,prac,1,1.0,1-Back,0.0,z,Fri May 15 2026 09:26:48 GMT-0400 (Eastern Daylight Time),227263.59999990463,098_y_f_n_a.png,I,None,2001,3,2,2768.2999999523163,224495.29999995232,9057,NNB,C,2
1,prac,1,0.0,1-Back,0.0,m,Fri May 15 2026 09:26:48 GMT-0400 (Eastern Daylight Time),230180.19999980927,059_o_m_n_a.png,I,None,2016,4,2,2908.0999999046326,227272.09999990463,9057,NNB,C,3
1,prac,1,0.0,1-Back,0.0,m,Fri May 15 2026 09:26:48 GMT-0400 (Eastern Daylight Time),233096.79999995232,092_m_m_n_a.png,I,None,2017,5,2,2908.5,230188.29999995232,9057,NNB,C,4
1,prac,1,1.0,1-Back,0.0,z,Fri May 15 2026 09:26:48 GMT-0400 (Eastern Daylight Time),235880.29999995232,092_m_m_n_a.png,I,None,2001,6,2,2769.100000143051,233111.19999980927,9057,NNB,C,5
1,prac,1,0.0,1-Back,0.0,m,Fri May 15 2026 09:26:48 GMT-0400 (Eastern Daylight Time),238863.5,130_o_f_n_a.png,I,None,2009,7,2,2975.0,235888.5,9057,NNB,C,6
1,prac,1,0.0,1-Back,0.0,m,Fri May 15 2026 09:26:48 GMT-0400 (Eastern Daylight Time),241780.09999990463,082_m_m_n_a.png,I,None,2013,8,2,2904.9000000953674,238875.19999980927,9057,NNB,C,7
1,prac,1,0.0,1-Back,0.0,m,Fri May 15 2026 09:26:48 GMT-0400 (Eastern Daylight Time),244563.5,093_m_f_n_a.png,I,None,2002,9,2,2769.2000000476837,241794.29999995232,9057,NNB,C,8
1,prac,1,1.0,1-Back,0.0,z,Fri May 15 2026 09:26:48 GMT-0400 (Eastern Daylight Time),247346.69999980927,093_m_f_n_a.png,I,None,2005,10,2,2771.7999999523163,244574.89999985695,9057,NNB,C,9
1,prac,1,0.0,1-Back,0.0,m,Fri May 15 2026 09:26:48 GMT-0400 (Eastern Daylight Time),250130.19999980927,059_o_m_n_a.png,I,None,2003,11,2,2770.399999856949,247359.79999995232,9057,NNB,C,10
1,prac,1,0.0,1-Back,0.0,m,Fri May 15 2026 09:26:48 GMT-0400 (Eastern Daylight Time),253046.89999985695,028_y_f_n_a.png,I,None,2003,12,2,2897.2999999523163,250149.59999990463,9057,NNB,C,11
0,prac,2,0.0,1-Back,,,Fri May 15 2026 09:26:48 GMT-0400 (Eastern Daylight Time),253046.89999985695,093_m_f_n_a.png,I,a,10896,1,2,2897.2999999523163,250149.59999990463,9057,NNB,C,0
1,prac,2,0.0,1-Back,1.0,m,Fri May 15 2026 09:26:48 GMT-0400 (Eastern Daylight Time),268530.2999999523,098_y_f_n_a.png,I,m,626,2,2,1523.4000000953674,267006.89999985695,9057,NNB,C,1
2,prac,2,1.0,1-Back,1.0,z,Fri May 15 2026 09:26:48 GMT-0400 (Eastern Daylight Time),271297.19999980927,098_y_f_n_a.png,I,z,1972,3,2,2751.899999856949,268545.2999999523,9057,NNB,C,2
3,prac,2,0.0,1-Back,1.0,m,Fri May 15 2026 09:26:48 GMT-0400 (Eastern Daylight Time),273063.69999980927,059_o_m_n_a.png,I,m,988,4,2,1757.5999999046326,271306.09999990463,9057,NNB,C,3
4,prac,2,0.0,1-Back,1.0,m,Fri May 15 2026 09:26:48 GMT-0400 (Eastern Daylight Time),274880.2999999523,092_m_m_n_a.png,I,m,908,5,2,1809.0,273071.2999999523,9057,NNB,C,4
5,prac,2,1.0,1-Back,1.0,z,Fri May 15 2026 09:26:48 GMT-0400 (Eastern Daylight Time),276597.0,092_m_m_n_a.png,I,z,933,6,2,1700.4000000953674,274896.59999990463,9057,NNB,C,5
6,prac,2,0.0,1-Back,1.0,m,Fri May 15 2026 09:26:48 GMT-0400 (Eastern Daylight Time),278513.69999980927,130_o_f_n_a.png,I,m,984,7,2,1908.5,276605.19999980927,9057,NNB,C,6
7,prac,2,0.0,1-Back,1.0,m,Fri May 15 2026 09:26:48 GMT-0400 (Eastern Daylight Time),280297.0,082_m_m_n_a.png,I,m,879,8,2,1772.7000000476837,278524.2999999523,9057,NNB,C,7
8,prac,2,0.0,1-Back,1.0,m,Fri May 15 2026 09:26:48 GMT-0400 (Eastern Daylight Time),281780.39999985695,093_m_f_n_a.png,I,m,686,9,2,1469.0999999046326,280311.2999999523,9057,NNB,C,8
9,prac,2,1.0,1-Back,1.0,z,Fri May 15 2026 09:26:48 GMT-0400 (Eastern Daylight Time),283397.0,093_m_f_n_a.png,I,z,826,10,2,1609.2000000476837,281787.7999999523,9057,NNB,C,9
10,prac,2,0.0,1-Back,1.0,m,Fri May 15 2026 09:26:48 GMT-0400 (Eastern Daylight Time),285013.59999990463,059_o_m_n_a.png,I,m,824,11,2,1606.5999999046326,283407.0,9057,NNB,C,10
11,prac,2,0.0,1-Back,1.0,m,Fri May 15 2026 09:26:48 GMT-0400 (Eastern Daylight Time),286913.69999980927,028_y_f_n_a.png,I,m,977,12,2,1886.7999999523163,285026.89999985695,9057,NNB,C,11
0,test,1,0.0,1-Back,,,Fri May 15 2026 09:26:48 GMT-0400 (Eastern Daylight Time),286913.69999980927,098_y_f_n_a.png,I,space,19635,1,2,1886.7999999523163,285026.89999985695,9057,NNB,C,0
1,test,1,0.0,1-Back,1.0,m,Fri May 15 2026 09:26:48 GMT-0400 (Eastern Daylight Time),319846.7999999523,006_m_f_n_a.png,I,m,1082,2,2,2109.9000000953674,317736.89999985695,9057,NNB,C,1
2,test,1,0.0,1-Back,1.0,m,Fri May 15 2026 09:26:48 GMT-0400 (Eastern Daylight Time),321730.2999999523,028_y_f_n_a.png,I,m,854,3,2,1875.9000000953674,319854.39999985695,9057,NNB,C,2
3,test,1,1.0,1-Back,1.0,z,Fri May 15 2026 09:26:48 GMT-0400 (Eastern Daylight Time),323480.09999990463,028_y_f_n_a.png,I,z,730,4,2,1742.0999999046326,321738.0,9057,NNB,C,3
4,test,1,0.0,1-Back,1.0,m,Fri May 15 2026 09:26:48 GMT-0400 (Eastern Daylight Time),325180.09999990463,006_m_f_n_a.png,I,m,676,5,2,1692.0,323488.09999990463,9057,NNB,C,4
5,test,1,0.0,1-Back,1.0,m,Fri May 15 2026 09:26:48 GMT-0400 (Eastern Daylight Time),327030.19999980927,059_o_m_n_a.png,I,m,817,6,2,1841.2999999523163,325188.89999985695,9057,NNB,C,5
6,test,1,1.0,1-Back,1.0,z,Fri May 15 2026 09:26:48 GMT-0400 (Eastern Daylight Time),328846.7999999523,059_o_m_n_a.png,I,z,790,7,2,1808.2999999523163,327038.5,9057,NNB,C,6
7,test,1,0.0,1-Back,1.0,m,Fri May 15 2026 09:26:48 GMT-0400 (Eastern Daylight Time),330730.19999980927,092_m_m_n_a.png,I,m,862,8,2,1876.1999998092651,328854.0,9057,NNB,C,7
8,test,1,0.0,1-Back,1.0,m,Fri May 15 2026 09:26:48 GMT-0400 (Eastern Daylight Time),332513.59999990463,130_o_f_n_a.png,I,m,755,9,2,1775.0999999046326,330738.5,9057,NNB,C,8
9,test,1,0.0,1-Back,1.0,m,Fri May 15 2026 09:26:48 GMT-0400 (Eastern Daylight Time),334496.7999999523,092_m_m_n_a.png,I,m,955,10,2,1974.7000000476837,332522.09999990463,9057,NNB,C,9
10,test,1,0.0,1-Back,1.0,m,Fri May 15 2026 09:26:48 GMT-0400 (Eastern Daylight Time),336280.09999990463,057_y_m_n_a.png,I,m,764,11,2,1774.5999999046326,334505.5,9057,NNB,C,10
11,test,1,1.0,1-Back,1.0,z,Fri May 15 2026 09:26:48 GMT-0400 (Eastern Daylight Time),338063.59999990463,057_y_m_n_a.png,I,z,757,12,2,1777.0,336286.59999990463,9057,NNB,C,11
12,test,1,0.0,1-Back,1.0,m,Fri May 15 2026 09:26:48 GMT-0400 (Eastern Daylight Time),339930.19999980927,030_o_f_n_a.png,I,m,845,13,2,1858.3999998569489,338071.7999999523,9057,NNB,C,12
13,test,1,1.0,1-Back,1.0,z,Fri May 15 2026 09:26:48 GMT-0400 (Eastern Daylight Time),341847.0,030_o_f_n_a.png,I,z,883,14,2,1909.9000000953674,339937.09999990463,9057,NNB,C,13
14,test,1,0.0,1-Back,1.0,m,Fri May 15 2026 09:26:48 GMT-0400 (Eastern Daylight Time),343996.89999985695,031_y_m_n_a.png,I,m,1126,15,2,2141.5,341855.39999985695,9057,NNB,C,14
15,test,1,0.0,1-Back,1.0,m,Fri May 15 2026 09:26:48 GMT-0400 (Eastern Daylight Time),345830.2999999523,093_m_f_n_a.png,I,m,800,16,2,1824.9000000953674,344005.39999985695,9057,NNB,C,15
16,test,1,0.0,1-Back,1.0,m,Fri May 15 2026 09:26:48 GMT-0400 (Eastern Daylight Time),347630.19999980927,146_o_m_n_a.png,I,m,774,17,2,1792.8999998569489,345837.2999999523,9057,NNB,C,16
17,test,1,0.0,1-Back,1.0,m,Fri May 15 2026 09:26:48 GMT-0400 (Eastern Daylight Time),349713.59999990463,093_m_f_n_a.png,I,m,1056,18,2,2072.9000000953674,347640.69999980927,9057,NNB,C,17
0,test,2,0.0,1-Back,,,Fri May 15 2026 09:26:48 GMT-0400 (Eastern Daylight Time),349713.59999990463,092_m_m_n_a.png,I,space,7171,1,2,2072.9000000953674,347640.69999980927,9057,NNB,C,0
1,test,2,0.0,1-Back,1.0,m,Fri May 15 2026 09:26:48 GMT-0400 (Eastern Daylight Time),360613.59999990463,006_m_f_n_a.png,I,m,667,2,2,1691.0999999046326,358922.5,9057,NNB,C,1
2,test,2,1.0,1-Back,1.0,z,Fri May 15 2026 09:26:48 GMT-0400 (Eastern Daylight Time),362396.89999985695,006_m_f_n_a.png,I,z,759,3,2,1774.5,360622.39999985695,9057,NNB,C,2
3,test,2,0.0,1-Back,1.0,m,Fri May 15 2026 09:26:48 GMT-0400 (Eastern Daylight Time),364130.19999980927,092_m_m_n_a.png,I,m,704,4,2,1726.6999998092651,362403.5,9057,NNB,C,3
4,test,2,0.0,1-Back,1.0,m,Fri May 15 2026 09:26:48 GMT-0400 (Eastern Daylight Time),365864.2999999523,057_y_m_n_a.png,I,m,714,5,2,1726.9000000953674,364137.39999985695,9057,NNB,C,4
5,test,2,0.0,1-Back,1.0,m,Fri May 15 2026 09:26:48 GMT-0400 (Eastern Daylight Time),367630.19999980927,098_y_f_n_a.png,I,m,741,6,2,1759.0999999046326,365871.09999990463,9057,NNB,C,5
6,test,2,1.0,1-Back,1.0,z,Fri May 15 2026 09:26:48 GMT-0400 (Eastern Daylight Time),369397.0,098_y_f_n_a.png,I,z,734,7,2,1758.5,367638.5,9057,NNB,C,6
7,test,2,0.0,1-Back,1.0,m,Fri May 15 2026 09:26:48 GMT-0400 (Eastern Daylight Time),371096.69999980927,057_y_m_n_a.png,I,m,681,8,2,1689.5,369407.19999980927,9057,NNB,C,7
8,test,2,0.0,1-Back,1.0,m,Fri May 15 2026 09:26:48 GMT-0400 (Eastern Daylight Time),372947.0,030_o_f_n_a.png,I,m,820,9,2,1842.5,371104.5,9057,NNB,C,8
9,test,2,0.0,1-Back,1.0,m,Fri May 15 2026 09:26:48 GMT-0400 (Eastern Daylight Time),374647.09999990463,082_m_m_n_a.png,I,m,683,10,2,1691.7000000476837,372955.39999985695,9057,NNB,C,9
10,test,2,1.0,1-Back,1.0,z,Fri May 15 2026 09:26:48 GMT-0400 (Eastern Daylight Time),376580.09999990463,082_m_m_n_a.png,I,z,902,11,2,1928.2000000476837,374651.89999985695,9057,NNB,C,10
11,test,2,0.0,1-Back,1.0,m,Fri May 15 2026 09:26:48 GMT-0400 (Eastern Daylight Time),378313.5,030_o_f_n_a.png,I,m,712,12,2,1724.0,376589.5,9057,NNB,C,11
12,test,2,0.0,1-Back,1.0,m,Fri May 15 2026 09:26:48 GMT-0400 (Eastern Daylight Time),380130.2999999523,130_o_f_n_a.png,I,m,787,13,2,1810.6000001430511,378319.69999980927,9057,NNB,C,12
13,test,2,0.0,1-Back,1.0,m,Fri May 15 2026 09:26:48 GMT-0400 (Eastern Daylight Time),381980.19999980927,059_o_m_n_a.png,I,m,827,14,2,1841.2999999523163,380138.89999985695,9057,NNB,C,13
14,test,2,0.0,1-Back,1.0,m,Fri May 15 2026 09:26:48 GMT-0400 (Eastern Daylight Time),383780.09999990463,146_o_m_n_a.png,I,m,768,15,2,1793.4000000953674,381986.69999980927,9057,NNB,C,14
15,test,2,1.0,1-Back,1.0,z,Fri May 15 2026 09:26:48 GMT-0400 (Eastern Daylight Time),385630.0,146_o_m_n_a.png,I,z,824,16,2,1839.4000000953674,383790.59999990463,9057,NNB,C,15
16,test,2,0.0,1-Back,1.0,m,Fri May 15 2026 09:26:48 GMT-0400 (Eastern Daylight Time),387496.59999990463,031_y_m_n_a.png,I,m,846,17,2,1859.4000000953674,385637.19999980927,9057,NNB,C,16
17,test,2,1.0,1-Back,1.0,z,Fri May 15 2026 09:26:48 GMT-0400 (Eastern Daylight Time),389313.59999990463,031_y_m_n_a.png,I,z,788,18,2,1810.2000000476837,387503.39999985695,9057,NNB,C,17
0,test,3,1.0,1-Back,,,Fri May 15 2026 09:26:48 GMT-0400 (Eastern Daylight Time),389313.59999990463,028_y_f_n_a.png,I,space,8756,1,2,1810.2000000476837,387503.39999985695,9057,NNB,C,0
1,test,3,0.0,1-Back,1.0,m,Fri May 15 2026 09:26:48 GMT-0400 (Eastern Daylight Time),401997.0,146_o_m_n_a.png,I,m,760,1,2,1772.7000000476837,400224.2999999523,9057,NNB,C,1
2,test,3,1.0,1-Back,1.0,z,Fri May 15 2026 09:26:48 GMT-0400 (Eastern Daylight Time),403847.19999980927,146_o_m_n_a.png,I,z,833,1,2,1843.0,402004.19999980927,9057,NNB,C,2
3,test,3,0.0,1-Back,1.0,m,Fri May 15 2026 09:26:48 GMT-0400 (Eastern Daylight Time),405730.2999999523,093_m_f_n_a.png,I,m,854,1,2,1877.2999999523163,403853.0,9057,NNB,C,3
4,test,3,1.0,1-Back,1.0,z,Fri May 15 2026 09:26:48 GMT-0400 (Eastern Daylight Time),407447.0,093_m_f_n_a.png,I,z,699,1,2,1709.4000000953674,405737.59999990463,9057,NNB,C,4
5,test,3,0.0,1-Back,1.0,m,Fri May 15 2026 09:26:48 GMT-0400 (Eastern Daylight Time),409313.59999990463,030_o_f_n_a.png,I,m,839,1,2,1861.2999999523163,407452.2999999523,9057,NNB,C,5
6,test,3,0.0,1-Back,1.0,m,Fri May 15 2026 09:26:48 GMT-0400 (Eastern Daylight Time),411030.2999999523,057_y_m_n_a.png,I,m,683,1,2,1709.7999999523163,409320.5,9057,NNB,C,6
7,test,3,0.0,1-Back,1.0,m,Fri May 15 2026 09:26:48 GMT-0400 (Eastern Daylight Time),412913.69999980927,030_o_f_n_a.png,I,m,854,1,2,1877.0999999046326,411036.59999990463,9057,NNB,C,7
8,test,3,0.0,1-Back,1.0,m,Fri May 15 2026 09:26:48 GMT-0400 (Eastern Daylight Time),414680.0,031_y_m_n_a.png,I,m,747,1,2,1757.5,412922.5,9057,NNB,C,8
9,test,3,1.0,1-Back,1.0,z,Fri May 15 2026 09:26:48 GMT-0400 (Eastern Daylight Time),416430.39999985695,031_y_m_n_a.png,I,z,724,1,2,1741.0999999046326,414689.2999999523,9057,NNB,C,9
10,test,3,0.0,1-Back,1.0,m,Fri May 15 2026 09:26:48 GMT-0400 (Eastern Daylight Time),418280.0,006_m_f_n_a.png,I,m,830,1,2,1841.8000001907349,416438.19999980927,9057,NNB,C,10
11,test,3,0.0,1-Back,1.0,m,Fri May 15 2026 09:26:48 GMT-0400 (Eastern Daylight Time),420046.89999985695,098_y_f_n_a.png,I,m,741,1,2,1760.2999999523163,418286.59999990463,9057,NNB,C,11
12,test,3,1.0,1-Back,1.0,z,Fri May 15 2026 09:26:48 GMT-0400 (Eastern Daylight Time),421780.19999980927,098_y_f_n_a.png,I,z,702,1,2,1726.5,420053.69999980927,9057,NNB,C,12
13,test,3,0.0,1-Back,1.0,m,Fri May 15 2026 09:26:48 GMT-0400 (Eastern Daylight Time),423580.2999999523,006_m_f_n_a.png,I,m,776,1,2,1793.6000001430511,421786.69999980927,9057,NNB,C,13
14,test,3,0.0,1-Back,1.0,m,Fri May 15 2026 09:26:48 GMT-0400 (Eastern Daylight Time),425263.59999990463,092_m_m_n_a.png,I,m,656,1,2,1674.5999999046326,423589.0,9057,NNB,C,14
15,test,3,1.0,1-Back,1.0,z,Fri May 15 2026 09:26:48 GMT-0400 (Eastern Daylight Time),426997.0,092_m_m_n_a.png,I,z,701,1,2,1726.1000001430511,425270.89999985695,9057,NNB,C,15
16,test,3,0.0,1-Back,1.0,m,Fri May 15 2026 09:26:48 GMT-0400 (Eastern Daylight Time),428696.59999990463,130_o_f_n_a.png,I,m,680,1,2,1693.0999999046326,427003.5,9057,NNB,C,16
17,test,3,1.0,1-Back,1.0,z,Fri May 15 2026 09:26:48 GMT-0400 (Eastern Daylight Time),430696.69999980927,130_o_f_n_a.png,I,z,981,1,2,1990.7999999523163,428705.89999985695,9057,NNB,C,17
0,test,4,1.0,1-Back,,,Fri May 15 2026 09:26:48 GMT-0400 (Eastern Daylight Time),430696.69999980927,093_m_f_n_a.png,I,space,1164,1,2,1990.7999999523163,428705.89999985695,9057,NNB,C,0
1,test,4,0.0,1-Back,1.0,m,Fri May 15 2026 09:26:48 GMT-0400 (Eastern Daylight Time),435730.2999999523,146_o_m_n_a.png,I,m,705,2,2,1727.0,434003.2999999523,9057,NNB,C,1
2,test,4,0.0,1-Back,1.0,m,Fri May 15 2026 09:26:48 GMT-0400 (Eastern Daylight Time),437430.2999999523,093_m_f_n_a.png,I,m,666,3,2,1693.5,435736.7999999523,9057,NNB,C,2
3,test,4,0.0,1-Back,1.0,m,Fri May 15 2026 09:26:48 GMT-0400 (Eastern Daylight Time),439047.09999990463,030_o_f_n_a.png,I,m,599,4,2,1610.5,437436.59999990463,9057,NNB,C,3
4,test,4,1.0,1-Back,1.0,z,Fri May 15 2026 09:26:48 GMT-0400 (Eastern Daylight Time),440597.09999990463,030_o_f_n_a.png,I,z,518,5,2,1543.0999999046326,439054.0,9057,NNB,C,4
5,test,4,0.0,1-Back,1.0,m,Fri May 15 2026 09:26:48 GMT-0400 (Eastern Daylight Time),442196.89999985695,098_y_f_n_a.png,I,m,569,6,2,1593.7999999523163,440603.09999990463,9057,NNB,C,5
6,test,4,0.0,1-Back,1.0,m,Fri May 15 2026 09:26:48 GMT-0400 (Eastern Daylight Time),443830.39999985695,057_y_m_n_a.png,I,m,601,7,2,1626.2999999523163,442204.09999990463,9057,NNB,C,6
7,test,4,1.0,1-Back,1.0,z,Fri May 15 2026 09:26:48 GMT-0400 (Eastern Daylight Time),445580.2999999523,057_y_m_n_a.png,I,z,727,8,2,1743.7000000476837,443836.59999990463,9057,NNB,C,7
8,test,4,0.0,1-Back,1.0,m,Fri May 15 2026 09:26:48 GMT-0400 (Eastern Daylight Time),447146.7999999523,098_y_f_n_a.png,I,m,544,9,2,1560.0,445586.7999999523,9057,NNB,C,8
9,test,4,0.0,1-Back,1.0,m,Fri May 15 2026 09:26:48 GMT-0400 (Eastern Daylight Time),448780.2999999523,082_m_m_n_a.png,I,m,610,10,2,1626.9000000953674,447153.39999985695,9057,NNB,C,9
10,test,4,1.0,1-Back,1.0,z,Fri May 15 2026 09:26:48 GMT-0400 (Eastern Daylight Time),450313.5,082_m_m_n_a.png,I,z,513,11,2,1527.3000001907349,448786.19999980927,9057,NNB,C,10
11,test,4,0.0,1-Back,1.0,m,Fri May 15 2026 09:26:48 GMT-0400 (Eastern Daylight Time),451963.59999990463,130_o_f_n_a.png,I,m,627,12,2,1643.0,450320.59999990463,9057,NNB,C,11
12,test,4,0.0,1-Back,1.0,m,Fri May 15 2026 09:26:48 GMT-0400 (Eastern Daylight Time),453663.5,059_o_m_n_a.png,I,m,674,13,2,1691.6000001430511,451971.89999985695,9057,NNB,C,12
13,test,4,0.0,1-Back,1.0,m,Fri May 15 2026 09:26:48 GMT-0400 (Eastern Daylight Time),455363.59999990463,130_o_f_n_a.png,I,m,669,14,2,1693.0999999046326,453670.5,9057,NNB,C,13
14,test,4,0.0,1-Back,1.0,m,Fri May 15 2026 09:26:48 GMT-0400 (Eastern Daylight Time),457113.59999990463,028_y_f_n_a.png,I,m,730,15,2,1741.7000000476837,455371.89999985695,9057,NNB,C,14
15,test,4,1.0,1-Back,1.0,z,Fri May 15 2026 09:26:48 GMT-0400 (Eastern Daylight Time),458880.19999980927,028_y_f_n_a.png,I,z,739,16,2,1760.2999999523163,457119.89999985695,9057,NNB,C,15
16,test,4,0.0,1-Back,1.0,m,Fri May 15 2026 09:26:48 GMT-0400 (Eastern Daylight Time),460563.59999990463,006_m_f_n_a.png,I,m,654,17,2,1677.0,458886.59999990463,9057,NNB,C,16
17,test,4,1.0,1-Back,1.0,z,Fri May 15 2026 09:26:48 GMT-0400 (Eastern Daylight Time),462247.19999980927,006_m_f_n_a.png,I,z,666,18,2,1677.0999999046326,460570.09999990463,9057,NNB,C,17
0,test,5,1.0,1-Back,,,Fri May 15 2026 09:26:48 GMT-0400 (Eastern Daylight Time),462247.19999980927,059_o_m_n_a.png,I,space,910,1,2,1677.0999999046326,460570.09999990463,9057,NNB,C,0
1,test,5,1.0,1-Back,1.0,z,Fri May 15 2026 09:26:48 GMT-0400 (Eastern Daylight Time),466897.09999990463,059_o_m_n_a.png,I,z,689,2,2,1706.2999999523163,465190.7999999523,9057,NNB,C,1
2,test,5,0.0,1-Back,1.0,m,Fri May 15 2026 09:26:48 GMT-0400 (Eastern Daylight Time),468596.89999985695,098_y_f_n_a.png,I,m,668,3,2,1693.3999998569489,466903.5,9057,NNB,C,2
3,test,5,0.0,1-Back,1.0,m,Fri May 15 2026 09:26:48 GMT-0400 (Eastern Daylight Time),470363.59999990463,057_y_m_n_a.png,I,m,744,4,2,1760.7000000476837,468602.89999985695,9057,NNB,C,3
4,test,5,0.0,1-Back,1.0,m,Fri May 15 2026 09:26:48 GMT-0400 (Eastern Daylight Time),472047.0,098_y_f_n_a.png,I,m,658,5,2,1676.0,470371.0,9057,NNB,C,4
5,test,5,0.0,1-Back,1.0,m,Fri May 15 2026 09:26:48 GMT-0400 (Eastern Daylight Time),473813.69999980927,092_m_m_n_a.png,I,m,734,6,2,1759.6999998092651,472054.0,9057,NNB,C,5
6,test,5,1.0,1-Back,1.0,z,Fri May 15 2026 09:26:48 GMT-0400 (Eastern Daylight Time),475496.69999980927,092_m_m_n_a.png,I,z,663,7,2,1677.0,473819.69999980927,9057,NNB,C,6
7,test,5,0.0,1-Back,1.0,m,Fri May 15 2026 09:26:48 GMT-0400 (Eastern Daylight Time),477130.2999999523,028_y_f_n_a.png,I,m,613,8,2,1626.2999999523163,475504.0,9057,NNB,C,7
8,test,5,0.0,1-Back,1.0,m,Fri May 15 2026 09:26:48 GMT-0400 (Eastern Daylight Time),478897.0,031_y_m_n_a.png,I,m,739,9,2,1760.3000001907349,477136.69999980927,9057,NNB,C,8
9,test,5,0.0,1-Back,1.0,m,Fri May 15 2026 09:26:48 GMT-0400 (Eastern Daylight Time),480713.59999990463,028_y_f_n_a.png,I,m,797,10,2,1809.9000000953674,478903.69999980927,9057,NNB,C,9
10,test,5,0.0,1-Back,1.0,m,Fri May 15 2026 09:26:48 GMT-0400 (Eastern Daylight Time),482380.2999999523,130_o_f_n_a.png,I,m,643,11,2,1658.2999999523163,480722.0,9057,NNB,C,10
11,test,5,1.0,1-Back,1.0,z,Fri May 15 2026 09:26:48 GMT-0400 (Eastern Daylight Time),484113.69999980927,130_o_f_n_a.png,I,z,705,12,2,1727.5,482386.19999980927,9057,NNB,C,11
12,test,5,0.0,1-Back,1.0,m,Fri May 15 2026 09:26:48 GMT-0400 (Eastern Daylight Time),485797.5,146_o_m_n_a.png,I,m,651,13,2,1676.1000001430511,484121.39999985695,9057,NNB,C,12
13,test,5,0.0,1-Back,1.0,m,Fri May 15 2026 09:26:48 GMT-0400 (Eastern Daylight Time),487480.09999990463,093_m_f_n_a.png,I,m,664,14,2,1679.4000000953674,485800.69999980927,9057,NNB,C,13
13,test,5,1.0,1-Back,0.0,z,Fri May 15 2026 09:26:48 GMT-0400 (Eastern Daylight Time),489680.2999999523,093_m_f_n_a.png,I,m,1172,15,2,2193.4000000953674,487486.89999985695,9057,NNB,C,14
14,test,5,0.0,1-Back,1.0,m,Fri May 15 2026 09:26:48 GMT-0400 (Eastern Daylight Time),491447.09999990463,146_o_m_n_a.png,I,m,749,16,2,1758.5999999046326,489688.5,9057,NNB,C,15
15,test,5,0.0,1-Back,1.0,m,Fri May 15 2026 09:26:48 GMT-0400 (Eastern Daylight Time),493196.89999985695,006_m_f_n_a.png,I,m,726,17,2,1742.7999999523163,491454.09999990463,9057,NNB,C,16
16,test,5,0.0,1-Back,1.0,m,Fri May 15 2026 09:26:48 GMT-0400 (Eastern Daylight Time),494913.69999980927,082_m_m_n_a.png,I,m,688,18,2,1710.3999998569489,493203.2999999523,9057,NNB,C,17
0,prac,1,0.0,2-Back,,,Fri May 15 2026 09:26:48 GMT-0400 (Eastern Daylight Time),494913.69999980927,031_y_m_n_a.png,I,space,17550,1,2,1710.3999998569489,493203.2999999523,9057,NNB,C,0
0,prac,1,0.0,2-Back,,,Fri May 15 2026 09:26:48 GMT-0400 (Eastern Daylight Time),494913.69999980927,006_m_f_n_a.png,I,space,17550,2,2,1710.3999998569489,493203.2999999523,9057,NNB,C,0
1,prac,1,1.0,2-Back,1.0,m,Fri May 15 2026 09:26:48 GMT-0400 (Eastern Daylight Time),613214.0999999046,146_o_m_n_a.png,I,m,1334,3,2,2241.2999999523163,610972.7999999523,9057,NNB,C,1
2,prac,1,0.0,2-Back,1.0,m,Fri May 15 2026 09:26:48 GMT-0400 (Eastern Daylight Time),615213.899999857,130_o_f_n_a.png,I,m,1066,4,2,1990.7999999523163,613223.0999999046,9057,NNB,C,2
3,prac,1,0.0,2-Back,1.0,z,Fri May 15 2026 09:26:48 GMT-0400 (Eastern Daylight Time),617147.2999999523,146_o_m_n_a.png,I,z,1146,5,2,1919.2000000476837,615228.0999999046,9057,NNB,C,3
3,prac,1,1.0,2-Back,0.0,z,Fri May 15 2026 09:26:48 GMT-0400 (Eastern Daylight Time),618613.7999999523,130_o_f_n_a.png,I,m,675,6,2,1458.2999999523163,617155.5,9057,NNB,C,4
4,prac,1,0.0,2-Back,1.0,m,Fri May 15 2026 09:26:48 GMT-0400 (Eastern Daylight Time),620580.399999857,082_m_m_n_a.png,I,m,1052,7,2,1958.0,618622.399999857,9057,NNB,C,5
5,prac,1,0.0,2-Back,1.0,m,Fri May 15 2026 09:26:48 GMT-0400 (Eastern Daylight Time),622597.1999998093,059_o_m_n_a.png,I,m,1102,8,2,2008.2999999523163,620588.899999857,9057,NNB,C,6
6,prac,1,0.0,2-Back,1.0,m,Fri May 15 2026 09:26:48 GMT-0400 (Eastern Daylight Time),624615.6999998093,028_y_f_n_a.png,I,m,1118,9,2,2009.1999998092651,622606.5,9057,NNB,C,7
7,prac,1,1.0,2-Back,1.0,z,Fri May 15 2026 09:26:48 GMT-0400 (Eastern Daylight Time),626263.899999857,059_o_m_n_a.png,I,z,873,10,2,1642.2000000476837,624621.6999998093,9057,NNB,C,8
8,prac,1,0.0,2-Back,1.0,m,Fri May 15 2026 09:26:48 GMT-0400 (Eastern Daylight Time),628097.1999998093,098_y_f_n_a.png,I,m,915,11,2,1816.3999998569489,626280.7999999523,9057,NNB,C,9
9,prac,1,0.0,2-Back,1.0,m,Fri May 15 2026 09:26:48 GMT-0400 (Eastern Daylight Time),629663.899999857,082_m_m_n_a.png,I,m,782,12,2,1559.0999999046326,628104.7999999523,9057,NNB,C,10
0,test,1,0.0,2-Back,,,Fri May 15 2026 09:26:48 GMT-0400 (Eastern Daylight Time),629663.899999857,057_y_m_n_a.png,I,space,20467,1,2,1559.0999999046326,628104.7999999523,9057,NNB,C,0
0,test,1,0.0,2-Back,,,Fri May 15 2026 09:26:48 GMT-0400 (Eastern Daylight Time),629663.899999857,057_y_m_n_a.png,I,space,20467,2,2,1559.0999999046326,628104.7999999523,9057,NNB,C,0
1,test,1,0.0,2-Back,1.0,m,Fri May 15 2026 09:26:48 GMT-0400 (Eastern Daylight Time),666547.399999857,130_o_f_n_a.png,I,m,904,3,2,1927.5,664619.899999857,9057,NNB,C,1
2,test,1,0.0,2-Back,1.0,m,Fri May 15 2026 09:26:48 GMT-0400 (Eastern Daylight Time),668513.7999999523,092_m_m_n_a.png,I,m,939,4,2,1959.4000000953674,666554.399999857,9057,NNB,C,2
3,test,1,1.0,2-Back,1.0,z,Fri May 15 2026 09:26:48 GMT-0400 (Eastern Daylight Time),670547.2999999523,130_o_f_n_a.png,I,z,1004,5,2,2021.7999999523163,668525.5,9057,NNB,C,3
4,test,1,0.0,2-Back,1.0,m,Fri May 15 2026 09:26:48 GMT-0400 (Eastern Daylight Time),672380.5,098_y_f_n_a.png,I,m,811,6,2,1826.0,670554.5,9057,NNB,C,4
4,test,1,0.0,2-Back,0.0,m,Fri May 15 2026 09:26:48 GMT-0400 (Eastern Daylight Time),674380.5,092_m_m_n_a.png,I,z,977,7,2,1993.1000001430511,672387.399999857,9057,NNB,C,5
5,test,1,1.0,2-Back,1.0,z,Fri May 15 2026 09:26:48 GMT-0400 (Eastern Daylight Time),676597.0999999046,098_y_f_n_a.png,I,z,1185,8,2,2209.5999999046326,674387.5,9057,NNB,C,6
6,test,1,0.0,2-Back,1.0,m,Fri May 15 2026 09:26:48 GMT-0400 (Eastern Daylight Time),678313.7999999523,031_y_m_n_a.png,I,m,696,9,2,1709.7000000476837,676604.0999999046,9057,NNB,C,7
7,test,1,0.0,2-Back,1.0,m,Fri May 15 2026 09:26:48 GMT-0400 (Eastern Daylight Time),680130.5,030_o_f_n_a.png,I,m,788,10,2,1809.2000000476837,678321.2999999523,9057,NNB,C,8
8,test,1,1.0,2-Back,1.0,z,Fri May 15 2026 09:26:48 GMT-0400 (Eastern Daylight Time),681730.5,031_y_m_n_a.png,I,z,571,11,2,1590.8000001907349,680139.6999998093,9057,NNB,C,9
9,test,1,0.0,2-Back,1.0,m,Fri May 15 2026 09:26:48 GMT-0400 (Eastern Daylight Time),683597.0999999046,006_m_f_n_a.png,I,m,843,12,2,1859.4000000953674,681737.6999998093,9057,NNB,C,10
10,test,1,0.0,2-Back,1.0,m,Fri May 15 2026 09:26:48 GMT-0400 (Eastern Daylight Time),685980.399999857,006_m_f_n_a.png,I,m,1361,13,2,2376.399999856949,683604.0,9057,NNB,C,11
11,test,1,0.0,2-Back,1.0,m,Fri May 15 2026 09:26:48 GMT-0400 (Eastern Daylight Time),688380.399999857,146_o_m_n_a.png,I,m,1377,14,2,2391.399999856949,685989.0,9057,NNB,C,12
12,test,1,0.0,2-Back,1.0,m,Fri May 15 2026 09:26:48 GMT-0400 (Eastern Daylight Time),690663.5,030_o_f_n_a.png,I,m,1265,15,2,2276.7000000476837,688386.7999999523,9057,NNB,C,13
13,test,1,1.0,2-Back,1.0,z,Fri May 15 2026 09:26:48 GMT-0400 (Eastern Daylight Time),692447.0999999046,146_o_m_n_a.png,I,z,758,16,2,1775.5,690671.5999999046,9057,NNB,C,14
14,test,1,0.0,2-Back,1.0,m,Fri May 15 2026 09:26:48 GMT-0400 (Eastern Daylight Time),694413.7999999523,093_m_f_n_a.png,I,m,943,17,2,1960.2999999523163,692453.5,9057,NNB,C,15
15,test,1,0.0,2-Back,1.0,m,Fri May 15 2026 09:26:48 GMT-0400 (Eastern Daylight Time),696447.0999999046,082_m_m_n_a.png,I,m,1008,18,2,2025.7999999523163,694421.2999999523,9057,NNB,C,16
0,test,2,0.0,2-Back,,,Fri May 15 2026 09:26:48 GMT-0400 (Eastern Daylight Time),696447.0999999046,082_m_m_n_a.png,I,space,1943,1,2,2025.7999999523163,694421.2999999523,9057,NNB,C,0
0,test,2,0.0,2-Back,,,Fri May 15 2026 09:26:48 GMT-0400 (Eastern Daylight Time),696447.0999999046,028_y_f_n_a.png,I,space,1943,2,2,2025.7999999523163,694421.2999999523,9057,NNB,C,0
1,test,2,1.0,2-Back,1.0,z,Fri May 15 2026 09:26:48 GMT-0400 (Eastern Daylight Time),705280.5,082_m_m_n_a.png,I,z,690,3,2,1709.2000000476837,703571.2999999523,9057,NNB,C,1
2,test,2,0.0,2-Back,1.0,m,Fri May 15 2026 09:26:48 GMT-0400 (Eastern Daylight Time),707096.899999857,093_m_f_n_a.png,I,m,796,4,2,1809.7000000476837,705287.1999998093,9057,NNB,C,2
2,test,2,0.0,2-Back,0.0,m,Fri May 15 2026 09:26:48 GMT-0400 (Eastern Daylight Time),709430.5,028_y_f_n_a.png,I,z,1301,5,2,2329.100000143051,707101.399999857,9057,NNB,C,3
3,test,2,0.0,2-Back,1.0,m,Fri May 15 2026 09:26:48 GMT-0400 (Eastern Daylight Time),711363.7999999523,146_o_m_n_a.png,I,m,903,6,2,1924.2999999523163,709439.5,9057,NNB,C,4
3,test,2,0.0,2-Back,0.0,m,Fri May 15 2026 09:26:48 GMT-0400 (Eastern Daylight Time),713413.899999857,098_y_f_n_a.png,I,z,1018,7,2,2043.0,711370.899999857,9057,NNB,C,5
4,test,2,1.0,2-Back,1.0,z,Fri May 15 2026 09:26:48 GMT-0400 (Eastern Daylight Time),715413.7999999523,146_o_m_n_a.png,I,z,967,8,2,1993.2999999523163,713420.5,9057,NNB,C,6
5,test,2,0.0,2-Back,1.0,m,Fri May 15 2026 09:26:48 GMT-0400 (Eastern Daylight Time),717096.7999999523,031_y_m_n_a.png,I,m,664,9,2,1676.2000000476837,715420.5999999046,9057,NNB,C,7
6,test,2,0.0,2-Back,1.0,m,Fri May 15 2026 09:26:48 GMT-0400 (Eastern Daylight Time),719280.5,031_y_m_n_a.png,I,m,1157,10,2,2177.7000000476837,717102.7999999523,9057,NNB,C,8
7,test,2,0.0,2-Back,1.0,m,Fri May 15 2026 09:26:48 GMT-0400 (Eastern Daylight Time),721363.899999857,006_m_f_n_a.png,I,m,1053,11,2,2076.7000000476837,719287.1999998093,9057,NNB,C,9
8,test,2,0.0,2-Back,1.0,m,Fri May 15 2026 09:26:48 GMT-0400 (Eastern Daylight Time),723647.1999998093,028_y_f_n_a.png,I,m,1258,12,2,2274.699999809265,721372.5,9057,NNB,C,10
9,test,2,1.0,2-Back,1.0,z,Fri May 15 2026 09:26:48 GMT-0400 (Eastern Daylight Time),725496.899999857,006_m_f_n_a.png,I,z,830,13,2,1843.0,723653.899999857,9057,NNB,C,11
10,test,2,0.0,2-Back,1.0,m,Fri May 15 2026 09:26:48 GMT-0400 (Eastern Daylight Time),727430.2999999523,059_o_m_n_a.png,I,m,916,14,2,1926.7000000476837,725503.5999999046,9057,NNB,C,12
11,test,2,0.0,2-Back,1.0,m,Fri May 15 2026 09:26:48 GMT-0400 (Eastern Daylight Time),729563.6999998093,059_o_m_n_a.png,I,m,1112,15,2,2129.7999999523163,727433.899999857,9057,NNB,C,13
12,test,2,0.0,2-Back,1.0,m,Fri May 15 2026 09:26:48 GMT-0400 (Eastern Daylight Time),731580.5999999046,030_o_f_n_a.png,I,m,994,16,2,2009.9000000953674,729570.6999998093,9057,NNB,C,14
13,test,2,0.0,2-Back,1.0,m,Fri May 15 2026 09:26:48 GMT-0400 (Eastern Daylight Time),733497.0,092_m_m_n_a.png,I,m,896,17,2,1910.5,731586.5,9057,NNB,C,15
14,test,2,1.0,2-Back,1.0,z,Fri May 15 2026 09:26:48 GMT-0400 (Eastern Daylight Time),735447.399999857,030_o_f_n_a.png,I,z,933,18,2,1944.5999999046326,733502.7999999523,9057,NNB,C,16
0,test,3,1.0,2-Back,,,Fri May 15 2026 09:26:48 GMT-0400 (Eastern Daylight Time),735447.399999857,057_y_m_n_a.png,I,space,1231,1,2,1944.5999999046326,733502.7999999523,9057,NNB,C,0
0,test,3,1.0,2-Back,,,Fri May 15 2026 09:26:48 GMT-0400 (Eastern Daylight Time),735447.399999857,057_y_m_n_a.png,I,space,1231,2,2,1944.5999999046326,733502.7999999523,9057,NNB,C,0
1,test,3,0.0,2-Back,1.0,m,Fri May 15 2026 09:26:48 GMT-0400 (Eastern Daylight Time),743497.0,030_o_f_n_a.png,I,m,614,3,2,1626.8000001907349,741870.1999998093,9057,NNB,C,1
2,test,3,0.0,2-Back,1.0,m,Fri May 15 2026 09:26:48 GMT-0400 (Eastern Daylight Time),745280.5,082_m_m_n_a.png,I,m,756,4,2,1777.3000001907349,743503.1999998093,9057,NNB,C,2
3,test,3,1.0,2-Back,1.0,z,Fri May 15 2026 09:26:48 GMT-0400 (Eastern Daylight Time),746913.899999857,030_o_f_n_a.png,I,z,605,5,2,1626.8999998569489,745287.0,9057,NNB,C,3
4,test,3,0.0,2-Back,1.0,m,Fri May 15 2026 09:26:48 GMT-0400 (Eastern Daylight Time),748730.399999857,031_y_m_n_a.png,I,m,795,6,2,1807.3999998569489,746923.0,9057,NNB,C,4
4,test,3,0.0,2-Back,0.0,m,Fri May 15 2026 09:26:48 GMT-0400 (Eastern Daylight Time),750647.399999857,082_m_m_n_a.png,I,z,899,7,2,1910.7000000476837,748736.6999998093,9057,NNB,C,5
5,test,3,1.0,2-Back,1.0,z,Fri May 15 2026 09:26:48 GMT-0400 (Eastern Daylight Time),752663.5,031_y_m_n_a.png,I,z,998,8,2,2010.8000001907349,750652.6999998093,9057,NNB,C,6
6,test,3,0.0,2-Back,1.0,m,Fri May 15 2026 09:26:48 GMT-0400 (Eastern Daylight Time),754413.899999857,028_y_f_n_a.png,I,m,726,9,2,1743.3999998569489,752670.5,9057,NNB,C,7
7,test,3,0.0,2-Back,1.0,m,Fri May 15 2026 09:26:48 GMT-0400 (Eastern Daylight Time),756296.7999999523,092_m_m_n_a.png,I,m,864,10,2,1876.7999999523163,754420.0,9057,NNB,C,8
8,test,3,1.0,2-Back,1.0,z,Fri May 15 2026 09:26:48 GMT-0400 (Eastern Daylight Time),758230.5999999046,028_y_f_n_a.png,I,z,901,11,2,1924.9000000953674,756305.6999998093,9057,NNB,C,9
9,test,3,1.0,2-Back,1.0,z,Fri May 15 2026 09:26:48 GMT-0400 (Eastern Daylight Time),759847.5999999046,092_m_m_n_a.png,I,z,599,12,2,1606.0,758241.5999999046,9057,NNB,C,10
10,test,3,0.0,2-Back,1.0,m,Fri May 15 2026 09:26:48 GMT-0400 (Eastern Daylight Time),761647.2999999523,030_o_f_n_a.png,I,m,775,13,2,1793.9000000953674,759853.399999857,9057,NNB,C,11
11,test,3,0.0,2-Back,1.0,m,Fri May 15 2026 09:26:48 GMT-0400 (Eastern Daylight Time),763363.7999999523,093_m_f_n_a.png,I,m,687,14,2,1709.2999999523163,761654.5,9057,NNB,C,12
12,test,3,0.0,2-Back,1.0,m,Fri May 15 2026 09:26:48 GMT-0400 (Eastern Daylight Time),765130.5,146_o_m_n_a.png,I,m,746,15,2,1759.5,763371.0,9057,NNB,C,13
13,test,3,1.0,2-Back,1.0,z,Fri May 15 2026 09:26:48 GMT-0400 (Eastern Daylight Time),767013.7999999523,093_m_f_n_a.png,I,z,851,16,2,1876.5,765137.2999999523,9057,NNB,C,14
14,test,3,0.0,2-Back,1.0,m,Fri May 15 2026 09:26:48 GMT-0400 (Eastern Daylight Time),769080.2999999523,130_o_f_n_a.png,I,m,1048,17,2,2058.2000000476837,767022.0999999046,9057,NNB,C,15
15,test,3,0.0,2-Back,1.0,m,Fri May 15 2026 09:26:48 GMT-0400 (Eastern Daylight Time),771447.1999998093,130_o_f_n_a.png,I,m,1333,18,2,2361.7999999523163,769085.399999857,9057,NNB,C,16
0,test,4,0.0,2-Back,,,Fri May 15 2026 09:26:48 GMT-0400 (Eastern Daylight Time),771447.1999998093,059_o_m_n_a.png,I,space,1247,1,2,2361.7999999523163,769085.399999857,9057,NNB,C,0
0,test,4,0.0,2-Back,,,Fri May 15 2026 09:26:48 GMT-0400 (Eastern Daylight Time),771447.1999998093,098_y_f_n_a.png,I,space,1247,2,2,2361.7999999523163,769085.399999857,9057,NNB,C,0
1,test,4,1.0,2-Back,1.0,z,Fri May 15 2026 09:26:48 GMT-0400 (Eastern Daylight Time),779847.2999999523,059_o_m_n_a.png,I,z,819,3,2,1843.9000000953674,778003.399999857,9057,NNB,C,1
2,test,4,1.0,2-Back,1.0,z,Fri May 15 2026 09:26:48 GMT-0400 (Eastern Daylight Time),781847.5,098_y_f_n_a.png,I,z,982,4,2,1993.5,779854.0,9057,NNB,C,2
3,test,4,0.0,2-Back,1.0,m,Fri May 15 2026 09:26:48 GMT-0400 (Eastern Daylight Time),783730.5,030_o_f_n_a.png,I,m,854,5,2,1874.7000000476837,781855.7999999523,9057,NNB,C,3
4,test,4,0.0,2-Back,1.0,m,Fri May 15 2026 09:26:48 GMT-0400 (Eastern Daylight Time),785963.7999999523,030_o_f_n_a.png,I,m,1211,6,2,2226.7000000476837,783737.0999999046,9057,NNB,C,4
5,test,4,0.0,2-Back,1.0,m,Fri May 15 2026 09:26:48 GMT-0400 (Eastern Daylight Time),787963.7999999523,006_m_f_n_a.png,I,m,978,7,2,1991.5,785972.2999999523,9057,NNB,C,5
6,test,4,0.0,2-Back,1.0,m,Fri May 15 2026 09:26:48 GMT-0400 (Eastern Daylight Time),789947.1999998093,031_y_m_n_a.png,I,m,961,8,2,1974.0,787973.1999998093,9057,NNB,C,6
7,test,4,1.0,2-Back,1.0,z,Fri May 15 2026 09:26:48 GMT-0400 (Eastern Daylight Time),791613.1999998093,006_m_f_n_a.png,I,z,642,9,2,1657.2999999523163,789955.899999857,9057,NNB,C,7
8,test,4,0.0,2-Back,1.0,m,Fri May 15 2026 09:26:48 GMT-0400 (Eastern Daylight Time),793330.5999999046,092_m_m_n_a.png,I,m,688,10,2,1713.5,791617.0999999046,9057,NNB,C,8
8,test,4,0.0,2-Back,0.0,m,Fri May 15 2026 09:26:48 GMT-0400 (Eastern Daylight Time),795163.899999857,031_y_m_n_a.png,I,z,811,11,2,1823.5,793340.399999857,9057,NNB,C,9
9,test,4,0.0,2-Back,1.0,m,Fri May 15 2026 09:26:48 GMT-0400 (Eastern Daylight Time),797880.399999857,130_o_f_n_a.png,I,m,1698,12,2,2709.7999999523163,795170.5999999046,9057,NNB,C,10
10,test,4,0.0,2-Back,1.0,m,Fri May 15 2026 09:26:48 GMT-0400 (Eastern Daylight Time),799980.5,057_y_m_n_a.png,I,m,1077,13,2,2092.100000143051,797888.399999857,9057,NNB,C,11
11,test,4,1.0,2-Back,1.0,z,Fri May 15 2026 09:26:48 GMT-0400 (Eastern Daylight Time),801847.2999999523,130_o_f_n_a.png,I,z,834,14,2,1860.4000000953674,799986.899999857,9057,NNB,C,12
12,test,4,1.0,2-Back,1.0,z,Fri May 15 2026 09:26:48 GMT-0400 (Eastern Daylight Time),803696.899999857,057_y_m_n_a.png,I,z,821,15,2,1843.7999999523163,801853.0999999046,9057,NNB,C,13
13,test,4,0.0,2-Back,1.0,m,Fri May 15 2026 09:26:48 GMT-0400 (Eastern Daylight Time),805513.7999999523,082_m_m_n_a.png,I,m,795,16,2,1812.9000000953674,803700.899999857,9057,NNB,C,14
14,test,4,0.0,2-Back,1.0,m,Fri May 15 2026 09:26:48 GMT-0400 (Eastern Daylight Time),807513.7999999523,093_m_f_n_a.png,I,m,980,17,2,1993.7000000476837,805520.0999999046,9057,NNB,C,15
15,test,4,1.0,2-Back,1.0,z,Fri May 15 2026 09:26:48 GMT-0400 (Eastern Daylight Time),809063.5999999046,082_m_m_n_a.png,I,z,532,18,2,1543.9000000953674,807519.6999998093,9057,NNB,C,16
0,test,5,1.0,2-Back,,,Fri May 15 2026 09:26:48 GMT-0400 (Eastern Daylight Time),809063.5999999046,057_y_m_n_a.png,I,space,1167,1,2,1543.9000000953674,807519.6999998093,9057,NNB,C,0
0,test,5,1.0,2-Back,,,Fri May 15 2026 09:26:48 GMT-0400 (Eastern Daylight Time),809063.5999999046,093_m_f_n_a.png,I,space,1167,2,2,1543.9000000953674,807519.6999998093,9057,NNB,C,0
1,test,5,1.0,2-Back,1.0,z,Fri May 15 2026 09:26:48 GMT-0400 (Eastern Daylight Time),817430.399999857,057_y_m_n_a.png,I,z,1017,3,2,2043.7999999523163,815386.5999999046,9057,NNB,C,1
2,test,5,1.0,2-Back,1.0,z,Fri May 15 2026 09:26:48 GMT-0400 (Eastern Daylight Time),818997.1999998093,093_m_f_n_a.png,I,z,536,4,2,1560.7999999523163,817436.399999857,9057,NNB,C,2
3,test,5,0.0,2-Back,1.0,m,Fri May 15 2026 09:26:48 GMT-0400 (Eastern Daylight Time),820897.1999998093,130_o_f_n_a.png,I,m,873,5,2,1892.0,819005.1999998093,9057,NNB,C,3
3,test,5,0.0,2-Back,0.0,m,Fri May 15 2026 09:26:48 GMT-0400 (Eastern Daylight Time),822663.5999999046,057_y_m_n_a.png,I,z,749,6,2,1759.7999999523163,820903.7999999523,9057,NNB,C,4
4,test,5,0.0,2-Back,1.0,m,Fri May 15 2026 09:26:48 GMT-0400 (Eastern Daylight Time),824597.1999998093,028_y_f_n_a.png,I,m,902,7,2,1925.5,822671.6999998093,9057,NNB,C,5
4,test,5,0.0,2-Back,0.0,m,Fri May 15 2026 09:26:48 GMT-0400 (Eastern Daylight Time),826180.5,130_o_f_n_a.png,I,z,553,8,2,1575.0,824605.5,9057,NNB,C,6
5,test,5,1.0,2-Back,1.0,z,Fri May 15 2026 09:26:48 GMT-0400 (Eastern Daylight Time),827797.1999998093,028_y_f_n_a.png,I,z,585,9,2,1609.5,826187.6999998093,9057,NNB,C,7
6,test,5,0.0,2-Back,1.0,m,Fri May 15 2026 09:26:48 GMT-0400 (Eastern Daylight Time),829563.7999999523,146_o_m_n_a.png,I,m,744,10,2,1760.9000000953674,827802.899999857,9057,NNB,C,8
7,test,5,0.0,2-Back,1.0,m,Fri May 15 2026 09:26:48 GMT-0400 (Eastern Daylight Time),832147.2999999523,006_m_f_n_a.png,I,m,1553,11,2,2576.5,829570.7999999523,9057,NNB,C,9
8,test,5,0.0,2-Back,1.0,m,Fri May 15 2026 09:26:48 GMT-0400 (Eastern Daylight Time),834097.2999999523,092_m_m_n_a.png,I,m,923,12,2,1942.4000000953674,832154.899999857,9057,NNB,C,10
8,test,5,0.0,2-Back,0.0,m,Fri May 15 2026 09:26:48 GMT-0400 (Eastern Daylight Time),835947.1999998093,146_o_m_n_a.png,I,z,829,13,2,1843.7999999523163,834103.399999857,9057,NNB,C,11
9,test,5,1.0,2-Back,1.0,z,Fri May 15 2026 09:26:48 GMT-0400 (Eastern Daylight Time),838080.0,092_m_m_n_a.png,I,z,1105,14,2,2126.0,835954.0,9057,NNB,C,12
10,test,5,0.0,2-Back,1.0,m,Fri May 15 2026 09:26:48 GMT-0400 (Eastern Daylight Time),839863.6999998093,098_y_f_n_a.png,I,m,765,15,2,1780.6999998092651,838083.0,9057,NNB,C,13
11,test,5,0.0,2-Back,1.0,m,Fri May 15 2026 09:26:48 GMT-0400 (Eastern Daylight Time),841862.5,059_o_m_n_a.png,I,m,934,16,2,1990.7000000476837,839871.7999999523,9057,NNB,C,14
12,test,5,0.0,2-Back,1.0,m,Fri May 15 2026 09:26:48 GMT-0400 (Eastern Daylight Time),843563.899999857,006_m_f_n_a.png,I,m,678,17,2,1692.8999998569489,841871.0,9057,NNB,C,15
13,test,5,1.0,2-Back,1.0,z,Fri May 15 2026 09:26:48 GMT-0400 (Eastern Daylight Time),845347.2999999523,059_o_m_n_a.png,I,z,754,18,2,1777.2000000476837,843570.0999999046,9057,NNB,C,16
