acc_sum,block,block_c,change,condition,correct,correct_response,datetime,endtime,face,project,response,response_time,row_sel,session_number,start_end,starttime,subject_id,task,task_vers,trial
0,prac,1,,1-Back,,,Mon Dec 15 2025 14:18:18 GMT-0500 (Eastern Standard Time),,005_o_f_d_a.png,I,space,17337,1,3,,,9024,VNB,B,0
1,prac,1,0.0,1-Back,1.0,m,Mon Dec 15 2025 14:18:18 GMT-0500 (Eastern Standard Time),162873.0,020_y_f_n_a.png,I,m,1815,2,3,2731.0999999046326,160141.90000009537,9024,VNB,B,1
1,prac,1,0.0,1-Back,0.0,m,Mon Dec 15 2025 14:18:18 GMT-0500 (Eastern Standard Time),165822.69999980927,007_m_m_h_a.png,I,None,2009,3,3,2935.699999809265,162887.0,9024,VNB,B,2
1,prac,1,0.0,1-Back,0.0,m,Mon Dec 15 2025 14:18:18 GMT-0500 (Eastern Standard Time),168256.0,016_y_m_d_a.png,I,z,1484,4,3,2419.4000000953674,165836.59999990463,9024,VNB,B,3
1,prac,1,0.0,1-Back,0.0,m,Mon Dec 15 2025 14:18:18 GMT-0500 (Eastern Standard Time),170589.40000009537,005_o_f_n_a.png,I,z,1400,5,3,2317.5999999046326,168271.80000019073,9024,VNB,B,4
2,prac,1,1.0,1-Back,1.0,z,Mon Dec 15 2025 14:18:18 GMT-0500 (Eastern Standard Time),172872.90000009537,016_y_m_n_a.png,I,z,1327,6,3,2266.9000000953674,170606.0,9024,VNB,B,5
3,prac,1,0.0,1-Back,1.0,m,Mon Dec 15 2025 14:18:18 GMT-0500 (Eastern Standard Time),175172.90000009537,004_o_m_h_a.png,I,m,1379,7,3,2287.0999999046326,172885.80000019073,9024,VNB,B,6
4,prac,1,0.0,1-Back,1.0,m,Mon Dec 15 2025 14:18:18 GMT-0500 (Eastern Standard Time),178006.30000019073,011_m_f_d_a.png,I,m,1889,8,3,2818.1000003814697,175188.19999980927,9024,VNB,B,7
4,prac,1,1.0,1-Back,0.0,z,Mon Dec 15 2025 14:18:18 GMT-0500 (Eastern Standard Time),180356.0,020_y_f_d_a.png,I,m,1421,9,3,2333.5999999046326,178022.40000009537,9024,VNB,B,8
5,prac,1,0.0,1-Back,1.0,m,Mon Dec 15 2025 14:18:18 GMT-0500 (Eastern Standard Time),182806.30000019073,007_m_m_n_a.png,I,m,1494,10,3,2430.9000000953674,180375.40000009537,9024,VNB,B,9
6,prac,1,0.0,1-Back,1.0,m,Mon Dec 15 2025 14:18:18 GMT-0500 (Eastern Standard Time),185022.69999980927,005_o_f_h_a.png,I,m,1280,11,3,2200.8999996185303,182821.80000019073,9024,VNB,B,10
6,prac,1,0.0,1-Back,0.0,m,Mon Dec 15 2025 14:18:18 GMT-0500 (Eastern Standard Time),187972.59999990463,016_y_m_d_a.png,I,None,2005,12,3,2934.4000000953674,185038.19999980927,9024,VNB,B,11
0,prac,2,0.0,1-Back,,,Mon Dec 15 2025 14:18:18 GMT-0500 (Eastern Standard Time),187972.59999990463,005_o_f_d_a.png,I,a,8265,1,3,2934.4000000953674,185038.19999980927,9024,VNB,B,0
1,prac,2,0.0,1-Back,1.0,m,Mon Dec 15 2025 14:18:18 GMT-0500 (Eastern Standard Time),201656.09999990463,020_y_f_n_a.png,I,m,1435,2,3,2350.199999809265,199305.90000009537,9024,VNB,B,1
2,prac,2,0.0,1-Back,1.0,m,Mon Dec 15 2025 14:18:18 GMT-0500 (Eastern Standard Time),203705.59999990463,007_m_m_h_a.png,I,m,1095,3,3,2034.7999997138977,201670.80000019073,9024,VNB,B,2
3,prac,2,0.0,1-Back,1.0,m,Mon Dec 15 2025 14:18:18 GMT-0500 (Eastern Standard Time),205322.80000019073,016_y_m_d_a.png,I,m,824,4,3,1605.0,203717.80000019073,9024,VNB,B,3
4,prac,2,0.0,1-Back,1.0,m,Mon Dec 15 2025 14:18:18 GMT-0500 (Eastern Standard Time),207156.09999990463,005_o_f_n_a.png,I,m,893,5,3,1817.6999998092651,205338.40000009537,9024,VNB,B,4
4,prac,2,1.0,1-Back,0.0,z,Mon Dec 15 2025 14:18:18 GMT-0500 (Eastern Standard Time),209006.09999990463,016_y_m_n_a.png,I,m,899,6,3,1833.5999999046326,207172.5,9024,VNB,B,5
5,prac,2,0.0,1-Back,1.0,m,Mon Dec 15 2025 14:18:18 GMT-0500 (Eastern Standard Time),211639.5,004_o_m_h_a.png,I,m,1704,7,3,2620.9000000953674,209018.59999990463,9024,VNB,B,6
5,prac,2,0.0,1-Back,0.0,m,Mon Dec 15 2025 14:18:18 GMT-0500 (Eastern Standard Time),214306.0,011_m_f_d_a.png,I,z,1718,8,3,2649.699999809265,211656.30000019073,9024,VNB,B,7
5,prac,2,1.0,1-Back,0.0,z,Mon Dec 15 2025 14:18:18 GMT-0500 (Eastern Standard Time),216022.59999990463,020_y_f_d_a.png,I,m,779,9,3,1700.1999998092651,214322.40000009537,9024,VNB,B,8
6,prac,2,0.0,1-Back,1.0,m,Mon Dec 15 2025 14:18:18 GMT-0500 (Eastern Standard Time),218406.09999990463,007_m_m_n_a.png,I,m,1428,10,3,2369.9000000953674,216036.19999980927,9024,VNB,B,9
7,prac,2,0.0,1-Back,1.0,m,Mon Dec 15 2025 14:18:18 GMT-0500 (Eastern Standard Time),220656.0,005_o_f_h_a.png,I,m,1299,11,3,2237.5999999046326,218418.40000009537,9024,VNB,B,10
8,prac,2,0.0,1-Back,1.0,m,Mon Dec 15 2025 14:18:18 GMT-0500 (Eastern Standard Time),222672.90000009537,016_y_m_d_a.png,I,m,1064,12,3,2003.8000001907349,220669.09999990463,9024,VNB,B,11
0,test,1,0.0,1-Back,,,Mon Dec 15 2025 14:18:18 GMT-0500 (Eastern Standard Time),222672.90000009537,020_y_f_d_a.png,I,space,16113,1,3,2003.8000001907349,220669.09999990463,9024,VNB,B,0
1,test,1,0.0,1-Back,1.0,m,Mon Dec 15 2025 14:18:18 GMT-0500 (Eastern Standard Time),246706.0,011_m_f_n_a.png,I,m,995,2,3,2003.5999999046326,244702.40000009537,9024,VNB,B,1
2,test,1,0.0,1-Back,1.0,m,Mon Dec 15 2025 14:18:18 GMT-0500 (Eastern Standard Time),248612.59999990463,004_o_m_h_a.png,I,m,867,3,3,1894.9000000953674,246717.69999980927,9024,VNB,B,2
3,test,1,1.0,1-Back,1.0,z,Mon Dec 15 2025 14:18:18 GMT-0500 (Eastern Standard Time),250606.09999990463,007_m_m_h_a.png,I,z,983,4,3,1986.4000000953674,248619.69999980927,9024,VNB,B,3
4,test,1,0.0,1-Back,1.0,m,Mon Dec 15 2025 14:18:18 GMT-0500 (Eastern Standard Time),252605.90000009537,005_o_f_n_a.png,I,m,966,5,3,1988.2000002861023,250617.69999980927,9024,VNB,B,4
5,test,1,0.0,1-Back,1.0,m,Mon Dec 15 2025 14:18:18 GMT-0500 (Eastern Standard Time),254905.69999980927,016_y_m_d_a.png,I,m,1271,6,3,2286.0,252619.69999980927,9024,VNB,B,5
5,test,1,1.0,1-Back,0.0,z,Mon Dec 15 2025 14:18:18 GMT-0500 (Eastern Standard Time),257272.40000009537,011_m_f_d_a.png,I,m,1339,7,3,2353.300000190735,254919.09999990463,9024,VNB,B,6
6,test,1,0.0,1-Back,1.0,m,Mon Dec 15 2025 14:18:18 GMT-0500 (Eastern Standard Time),259572.59999990463,020_y_f_h_a.png,I,m,1276,8,3,2289.699999809265,257282.90000009537,9024,VNB,B,7
7,test,1,0.0,1-Back,1.0,m,Mon Dec 15 2025 14:18:18 GMT-0500 (Eastern Standard Time),261439.19999980927,004_o_m_n_a.png,I,m,847,9,3,1853.6999998092651,259585.5,9024,VNB,B,8
8,test,1,0.0,1-Back,1.0,m,Mon Dec 15 2025 14:18:18 GMT-0500 (Eastern Standard Time),263839.09999990463,016_y_m_h_a.png,I,m,1365,10,3,2384.2999997138977,261454.80000019073,9024,VNB,B,9
9,test,1,0.0,1-Back,1.0,m,Mon Dec 15 2025 14:18:18 GMT-0500 (Eastern Standard Time),266605.90000009537,004_o_m_d_a.png,I,m,1733,11,3,2753.4000000953674,263852.5,9024,VNB,B,10
10,test,1,1.0,1-Back,1.0,z,Mon Dec 15 2025 14:18:18 GMT-0500 (Eastern Standard Time),269105.90000009537,005_o_f_d_a.png,I,z,1478,12,3,2487.9000000953674,266618.0,9024,VNB,B,11
11,test,1,0.0,1-Back,1.0,m,Mon Dec 15 2025 14:18:18 GMT-0500 (Eastern Standard Time),271039.09999990463,007_m_m_n_a.png,I,m,915,13,3,1920.5,269118.59999990463,9024,VNB,B,12
11,test,1,1.0,1-Back,0.0,z,Mon Dec 15 2025 14:18:18 GMT-0500 (Eastern Standard Time),273239.19999980927,020_y_f_n_a.png,I,m,1172,14,3,2187.8999996185303,271051.30000019073,9024,VNB,B,13
12,test,1,0.0,1-Back,1.0,m,Mon Dec 15 2025 14:18:18 GMT-0500 (Eastern Standard Time),275239.19999980927,011_m_f_h_a.png,I,m,973,15,3,1987.3999996185303,273251.80000019073,9024,VNB,B,14
13,test,1,0.0,1-Back,1.0,m,Mon Dec 15 2025 14:18:18 GMT-0500 (Eastern Standard Time),277772.5,007_m_m_d_a.png,I,m,1501,16,3,2519.0,275253.5,9024,VNB,B,15
14,test,1,0.0,1-Back,1.0,m,Mon Dec 15 2025 14:18:18 GMT-0500 (Eastern Standard Time),280422.40000009537,016_y_m_n_a.png,I,m,1608,17,3,2634.2000002861023,277788.19999980927,9024,VNB,B,16
15,test,1,0.0,1-Back,1.0,m,Mon Dec 15 2025 14:18:18 GMT-0500 (Eastern Standard Time),282605.90000009537,005_o_f_h_a.png,I,m,1149,18,3,2174.300000190735,280431.59999990463,9024,VNB,B,17
0,test,2,0.0,1-Back,,,Mon Dec 15 2025 14:18:18 GMT-0500 (Eastern Standard Time),282605.90000009537,016_y_m_n_a.png,I,space,1838,1,3,2174.300000190735,280431.59999990463,9024,VNB,B,0
1,test,2,0.0,1-Back,1.0,m,Mon Dec 15 2025 14:18:18 GMT-0500 (Eastern Standard Time),288822.59999990463,020_y_f_h_a.png,I,m,1325,2,3,2336.9000000953674,286485.69999980927,9024,VNB,B,1
2,test,2,1.0,1-Back,1.0,m,Mon Dec 15 2025 14:18:18 GMT-0500 (Eastern Standard Time),290672.40000009537,004_o_m_n_a.png,I,m,829,3,3,1838.7000002861023,288833.69999980927,9024,VNB,B,2
3,test,2,0.0,1-Back,1.0,m,Mon Dec 15 2025 14:18:18 GMT-0500 (Eastern Standard Time),292639.0,011_m_f_d_a.png,I,m,947,4,3,1955.1999998092651,290683.80000019073,9024,VNB,B,3
4,test,2,0.0,1-Back,1.0,z,Mon Dec 15 2025 14:18:18 GMT-0500 (Eastern Standard Time),294839.19999980927,007_m_m_d_a.png,I,z,1172,5,3,2187.2999997138977,292651.90000009537,9024,VNB,B,4
5,test,2,0.0,1-Back,1.0,m,Mon Dec 15 2025 14:18:18 GMT-0500 (Eastern Standard Time),296922.40000009537,016_y_m_h_a.png,I,m,1053,6,3,2069.0,294853.40000009537,9024,VNB,B,5
6,test,2,1.0,1-Back,1.0,z,Mon Dec 15 2025 14:18:18 GMT-0500 (Eastern Standard Time),299122.5,005_o_f_h_a.png,I,z,1178,7,3,2189.9000000953674,296932.59999990463,9024,VNB,B,6
7,test,2,0.0,1-Back,1.0,m,Mon Dec 15 2025 14:18:18 GMT-0500 (Eastern Standard Time),302022.40000009537,011_m_f_n_a.png,I,m,1858,8,3,2883.7000002861023,299138.69999980927,9024,VNB,B,7
7,test,2,0.0,1-Back,0.0,m,Mon Dec 15 2025 14:18:18 GMT-0500 (Eastern Standard Time),303455.69999980927,020_y_f_d_a.png,I,z,414,9,3,1423.6999998092651,302032.0,9024,VNB,B,8
8,test,2,0.0,1-Back,1.0,m,Mon Dec 15 2025 14:18:18 GMT-0500 (Eastern Standard Time),306155.80000019073,007_m_m_n_a.png,I,m,1669,10,3,2687.800000190735,303468.0,9024,VNB,B,9
9,test,2,1.0,1-Back,1.0,m,Mon Dec 15 2025 14:18:18 GMT-0500 (Eastern Standard Time),308606.09999990463,011_m_f_h_a.png,I,m,1415,11,3,2431.2999997138977,306174.80000019073,9024,VNB,B,10
9,test,2,0.0,1-Back,0.0,z,Mon Dec 15 2025 14:18:18 GMT-0500 (Eastern Standard Time),311339.19999980927,004_o_m_h_a.png,I,m,1703,12,3,2721.5,308617.69999980927,9024,VNB,B,11
10,test,2,0.0,1-Back,1.0,m,Mon Dec 15 2025 14:18:18 GMT-0500 (Eastern Standard Time),313689.19999980927,016_y_m_d_a.png,I,m,1320,13,3,2336.0,311353.19999980927,9024,VNB,B,12
11,test,2,0.0,1-Back,1.0,m,Mon Dec 15 2025 14:18:18 GMT-0500 (Eastern Standard Time),315955.80000019073,005_o_f_n_a.png,I,m,1243,14,3,2255.300000190735,313700.5,9024,VNB,B,13
12,test,2,0.0,1-Back,1.0,z,Mon Dec 15 2025 14:18:18 GMT-0500 (Eastern Standard Time),318522.30000019073,020_y_f_n_a.png,I,z,1536,15,3,2551.1000003814697,315971.19999980927,9024,VNB,B,14
13,test,2,1.0,1-Back,1.0,m,Mon Dec 15 2025 14:18:18 GMT-0500 (Eastern Standard Time),320772.5,007_m_m_h_a.png,I,m,1226,16,3,2239.699999809265,318532.80000019073,9024,VNB,B,15
14,test,2,0.0,1-Back,1.0,m,Mon Dec 15 2025 14:18:18 GMT-0500 (Eastern Standard Time),322722.5,005_o_f_d_a.png,I,m,928,17,3,1936.8000001907349,320785.69999980927,9024,VNB,B,16
14,test,2,1.0,1-Back,0.0,z,Mon Dec 15 2025 14:18:18 GMT-0500 (Eastern Standard Time),325506.30000019073,004_o_m_d_a.png,I,m,1745,18,3,2773.4000000953674,322732.90000009537,9024,VNB,B,17
0,test,3,1.0,1-Back,,,Mon Dec 15 2025 14:18:18 GMT-0500 (Eastern Standard Time),325506.30000019073,005_o_f_h_a.png,I,space,1786,1,3,2773.4000000953674,322732.90000009537,9024,VNB,B,0
1,test,3,0.0,1-Back,1.0,m,Mon Dec 15 2025 14:18:18 GMT-0500 (Eastern Standard Time),331272.40000009537,011_m_f_d_a.png,I,m,754,2,3,1782.5,329489.90000009537,9024,VNB,B,1
1,test,3,1.0,1-Back,0.0,m,Mon Dec 15 2025 14:18:18 GMT-0500 (Eastern Standard Time),333838.80000019073,007_m_m_n_a.png,I,z,1548,3,3,2553.0,331285.80000019073,9024,VNB,B,2
1,test,3,0.0,1-Back,0.0,z,Mon Dec 15 2025 14:18:18 GMT-0500 (Eastern Standard Time),335672.5,005_o_f_n_a.png,I,m,805,4,3,1820.1999998092651,333852.30000019073,9024,VNB,B,3
2,test,3,1.0,1-Back,1.0,m,Mon Dec 15 2025 14:18:18 GMT-0500 (Eastern Standard Time),338055.80000019073,004_o_m_d_a.png,I,m,1355,5,3,2368.800000190735,335687.0,9024,VNB,B,4
3,test,3,0.0,1-Back,1.0,m,Mon Dec 15 2025 14:18:18 GMT-0500 (Eastern Standard Time),339939.19999980927,020_y_f_h_a.png,I,m,859,6,3,1869.7999997138977,338069.40000009537,9024,VNB,B,5
4,test,3,0.0,1-Back,1.0,z,Mon Dec 15 2025 14:18:18 GMT-0500 (Eastern Standard Time),341972.40000009537,016_y_m_h_a.png,I,z,1008,7,3,2022.3000001907349,339950.09999990463,9024,VNB,B,6
5,test,3,0.0,1-Back,1.0,m,Mon Dec 15 2025 14:18:18 GMT-0500 (Eastern Standard Time),343689.09999990463,011_m_f_n_a.png,I,m,687,8,3,1702.2999997138977,341986.80000019073,9024,VNB,B,7
6,test,3,0.0,1-Back,1.0,m,Mon Dec 15 2025 14:18:18 GMT-0500 (Eastern Standard Time),345422.5,020_y_f_d_a.png,I,m,699,9,3,1724.0999999046326,343698.40000009537,9024,VNB,B,8
7,test,3,1.0,1-Back,1.0,m,Mon Dec 15 2025 14:18:18 GMT-0500 (Eastern Standard Time),347072.40000009537,004_o_m_n_a.png,I,m,613,10,3,1635.9000000953674,345436.5,9024,VNB,B,9
8,test,3,0.0,1-Back,1.0,m,Mon Dec 15 2025 14:18:18 GMT-0500 (Eastern Standard Time),349005.19999980927,007_m_m_h_a.png,I,m,899,11,3,1923.1999998092651,347082.0,9024,VNB,B,10
8,test,3,0.0,1-Back,0.0,z,Mon Dec 15 2025 14:18:18 GMT-0500 (Eastern Standard Time),351022.19999980927,011_m_f_h_a.png,I,m,997,12,3,2010.7999997138977,349011.40000009537,9024,VNB,B,11
9,test,3,1.0,1-Back,1.0,m,Mon Dec 15 2025 14:18:18 GMT-0500 (Eastern Standard Time),353339.09999990463,005_o_f_d_a.png,I,m,1285,13,3,2303.9000000953674,351035.19999980927,9024,VNB,B,12
9,test,3,0.0,1-Back,0.0,z,Mon Dec 15 2025 14:18:18 GMT-0500 (Eastern Standard Time),355622.5,007_m_m_d_a.png,I,m,1257,14,3,2267.699999809265,353354.80000019073,9024,VNB,B,13
10,test,3,0.0,1-Back,1.0,m,Mon Dec 15 2025 14:18:18 GMT-0500 (Eastern Standard Time),358339.19999980927,016_y_m_n_a.png,I,m,1677,15,3,2699.2999997138977,355639.90000009537,9024,VNB,B,14
10,test,3,1.0,1-Back,0.0,m,Mon Dec 15 2025 14:18:18 GMT-0500 (Eastern Standard Time),361372.5,004_o_m_h_a.png,I,None,2016,16,3,3018.9000000953674,358353.59999990463,9024,VNB,B,15
11,test,3,0.0,1-Back,1.0,m,Mon Dec 15 2025 14:18:18 GMT-0500 (Eastern Standard Time),363572.40000009537,016_y_m_d_a.png,I,m,1175,17,3,2185.5,361386.90000009537,9024,VNB,B,16
12,test,3,1.0,1-Back,1.0,m,Mon Dec 15 2025 14:18:18 GMT-0500 (Eastern Standard Time),365972.40000009537,020_y_f_n_a.png,I,m,1360,18,3,2373.5,363598.90000009537,9024,VNB,B,17
0,test,4,1.0,1-Back,,,Mon Dec 15 2025 14:18:18 GMT-0500 (Eastern Standard Time),365972.40000009537,007_m_m_d_a.png,I,space,1367,1,3,2373.5,363598.90000009537,9024,VNB,B,0
1,test,4,0.0,1-Back,1.0,z,Mon Dec 15 2025 14:18:18 GMT-0500 (Eastern Standard Time),372005.69999980927,004_o_m_d_a.png,I,z,1608,2,3,2622.3999996185303,369383.30000019073,9024,VNB,B,1
2,test,4,0.0,1-Back,1.0,m,Mon Dec 15 2025 14:18:18 GMT-0500 (Eastern Standard Time),373889.0,016_y_m_h_a.png,I,m,847,3,3,1868.1999998092651,372020.80000019073,9024,VNB,B,2
3,test,4,0.0,1-Back,1.0,m,Mon Dec 15 2025 14:18:18 GMT-0500 (Eastern Standard Time),375589.09999990463,011_m_f_n_a.png,I,m,674,4,3,1685.0999999046326,373904.0,9024,VNB,B,3
4,test,4,1.0,1-Back,1.0,m,Mon Dec 15 2025 14:18:18 GMT-0500 (Eastern Standard Time),378072.40000009537,005_o_f_h_a.png,I,m,1456,5,3,2473.4000000953674,375599.0,9024,VNB,B,4
5,test,4,0.0,1-Back,1.0,m,Mon Dec 15 2025 14:18:18 GMT-0500 (Eastern Standard Time),380022.5,007_m_m_n_a.png,I,m,923,6,3,1937.0,378085.5,9024,VNB,B,5
6,test,4,0.0,1-Back,1.0,m,Mon Dec 15 2025 14:18:18 GMT-0500 (Eastern Standard Time),382855.69999980927,016_y_m_d_a.png,I,m,1805,7,3,2821.5999999046326,380034.09999990463,9024,VNB,B,6
6,test,4,1.0,1-Back,0.0,z,Mon Dec 15 2025 14:18:18 GMT-0500 (Eastern Standard Time),385889.30000019073,020_y_f_d_a.png,I,None,2016,8,3,3020.5,382868.80000019073,9024,VNB,B,7
7,test,4,0.0,1-Back,1.0,m,Mon Dec 15 2025 14:18:18 GMT-0500 (Eastern Standard Time),388189.0,011_m_f_h_a.png,I,m,1266,9,3,2284.9000000953674,385904.09999990463,9024,VNB,B,8
8,test,4,0.0,1-Back,1.0,z,Mon Dec 15 2025 14:18:18 GMT-0500 (Eastern Standard Time),390439.09999990463,004_o_m_h_a.png,I,z,1223,10,3,2234.699999809265,388204.40000009537,9024,VNB,B,9
9,test,4,1.0,1-Back,1.0,m,Mon Dec 15 2025 14:18:18 GMT-0500 (Eastern Standard Time),392505.40000009537,005_o_f_n_a.png,I,m,1037,11,3,2053.5,390451.90000009537,9024,VNB,B,10
10,test,4,0.0,1-Back,1.0,m,Mon Dec 15 2025 14:18:18 GMT-0500 (Eastern Standard Time),395005.90000009537,011_m_f_d_a.png,I,m,1482,12,3,2489.7000002861023,392516.19999980927,9024,VNB,B,11
10,test,4,0.0,1-Back,0.0,m,Mon Dec 15 2025 14:18:18 GMT-0500 (Eastern Standard Time),396739.0,020_y_f_n_a.png,I,z,710,13,3,1721.1999998092651,395017.80000019073,9024,VNB,B,12
10,test,4,0.0,1-Back,0.0,m,Mon Dec 15 2025 14:18:18 GMT-0500 (Eastern Standard Time),399772.5,005_o_f_d_a.png,I,None,2016,14,3,3020.4000000953674,396752.09999990463,9024,VNB,B,13
11,test,4,0.0,1-Back,1.0,m,Mon Dec 15 2025 14:18:18 GMT-0500 (Eastern Standard Time),402089.0,020_y_f_h_a.png,I,m,1287,15,3,2303.9000000953674,399785.09999990463,9024,VNB,B,14
11,test,4,1.0,1-Back,0.0,z,Mon Dec 15 2025 14:18:18 GMT-0500 (Eastern Standard Time),404206.0,007_m_m_h_a.png,I,m,1098,16,3,2102.0999999046326,402103.90000009537,9024,VNB,B,15
11,test,4,0.0,1-Back,0.0,m,Mon Dec 15 2025 14:18:18 GMT-0500 (Eastern Standard Time),406105.80000019073,004_o_m_n_a.png,I,z,870,17,3,1890.4000000953674,404215.40000009537,9024,VNB,B,16
11,test,4,1.0,1-Back,0.0,z,Mon Dec 15 2025 14:18:18 GMT-0500 (Eastern Standard Time),408005.80000019073,016_y_m_n_a.png,I,m,874,18,3,1887.6000003814697,406118.19999980927,9024,VNB,B,17
0,test,5,1.0,1-Back,,,Mon Dec 15 2025 14:18:18 GMT-0500 (Eastern Standard Time),408005.80000019073,004_o_m_n_a.png,I,space,1718,1,3,1887.6000003814697,406118.19999980927,9024,VNB,B,0
0,test,5,1.0,1-Back,0.0,m,Mon Dec 15 2025 14:18:18 GMT-0500 (Eastern Standard Time),414789.19999980927,005_o_f_h_a.png,I,None,2016,2,3,3020.199999809265,411769.0,9024,VNB,B,1
1,test,5,0.0,1-Back,1.0,m,Mon Dec 15 2025 14:18:18 GMT-0500 (Eastern Standard Time),416805.69999980927,016_y_m_d_a.png,I,m,976,3,3,1998.5999999046326,414807.09999990463,9024,VNB,B,2
2,test,5,0.0,1-Back,1.0,z,Mon Dec 15 2025 14:18:18 GMT-0500 (Eastern Standard Time),418872.40000009537,004_o_m_d_a.png,I,z,1038,4,3,2053.5999999046326,416818.80000019073,9024,VNB,B,3
3,test,5,0.0,1-Back,1.0,m,Mon Dec 15 2025 14:18:18 GMT-0500 (Eastern Standard Time),420922.0,011_m_f_h_a.png,I,m,1019,5,3,2036.0999999046326,418885.90000009537,9024,VNB,B,4
4,test,5,0.0,1-Back,1.0,m,Mon Dec 15 2025 14:18:18 GMT-0500 (Eastern Standard Time),422989.0,020_y_f_n_a.png,I,m,1033,6,3,2057.699999809265,420931.30000019073,9024,VNB,B,5
4,test,5,1.0,1-Back,0.0,z,Mon Dec 15 2025 14:18:18 GMT-0500 (Eastern Standard Time),425272.40000009537,005_o_f_n_a.png,I,m,1255,7,3,2271.7000002861023,423000.69999980927,9024,VNB,B,6
4,test,5,0.0,1-Back,0.0,m,Mon Dec 15 2025 14:18:18 GMT-0500 (Eastern Standard Time),428305.80000019073,011_m_f_d_a.png,I,None,2016,8,3,3019.9000000953674,425285.90000009537,9024,VNB,B,7
5,test,5,0.0,1-Back,1.0,m,Mon Dec 15 2025 14:18:18 GMT-0500 (Eastern Standard Time),430705.80000019073,016_y_m_h_a.png,I,m,1378,9,3,2388.1000003814697,428317.69999980927,9024,VNB,B,8
6,test,5,0.0,1-Back,1.0,m,Mon Dec 15 2025 14:18:18 GMT-0500 (Eastern Standard Time),433505.69999980927,020_y_f_d_a.png,I,m,1778,10,3,2787.2999997138977,430718.40000009537,9024,VNB,B,9
6,test,5,0.0,1-Back,0.0,m,Mon Dec 15 2025 14:18:18 GMT-0500 (Eastern Standard Time),435405.69999980927,007_m_m_n_a.png,I,z,850,11,3,1884.5,433521.19999980927,9024,VNB,B,10
6,test,5,1.0,1-Back,0.0,z,Mon Dec 15 2025 14:18:18 GMT-0500 (Eastern Standard Time),437072.30000019073,011_m_f_n_a.png,I,m,646,12,3,1652.8000001907349,435419.5,9024,VNB,B,11
6,test,5,0.0,1-Back,0.0,m,Mon Dec 15 2025 14:18:18 GMT-0500 (Eastern Standard Time),438955.69999980927,004_o_m_h_a.png,I,z,852,13,3,1871.0,437084.69999980927,9024,VNB,B,12
6,test,5,0.0,1-Back,0.0,z,Mon Dec 15 2025 14:18:18 GMT-0500 (Eastern Standard Time),441105.69999980927,007_m_m_h_a.png,I,m,1112,14,3,2136.699999809265,438969.0,9024,VNB,B,13
6,test,5,1.0,1-Back,0.0,m,Mon Dec 15 2025 14:18:18 GMT-0500 (Eastern Standard Time),443105.69999980927,005_o_f_d_a.png,I,z,978,15,3,1987.7999997138977,441117.90000009537,9024,VNB,B,14
7,test,5,0.0,1-Back,1.0,m,Mon Dec 15 2025 14:18:18 GMT-0500 (Eastern Standard Time),445172.19999980927,016_y_m_n_a.png,I,m,1026,16,3,2051.0999999046326,443121.09999990463,9024,VNB,B,15
7,test,5,0.0,1-Back,0.0,m,Mon Dec 15 2025 14:18:18 GMT-0500 (Eastern Standard Time),447989.09999990463,020_y_f_h_a.png,I,z,1791,17,3,2804.9000000953674,445184.19999980927,9024,VNB,B,16
8,test,5,0.0,1-Back,1.0,m,Mon Dec 15 2025 14:18:18 GMT-0500 (Eastern Standard Time),449972.30000019073,007_m_m_d_a.png,I,m,960,18,3,1971.5,448000.80000019073,9024,VNB,B,17
0,prac,1,0.0,2-Back,,,Mon Dec 15 2025 14:18:18 GMT-0500 (Eastern Standard Time),449972.30000019073,011_m_f_n_a.png,I,space,16907,1,3,1971.5,448000.80000019073,9024,VNB,B,0
0,prac,1,0.0,2-Back,,,Mon Dec 15 2025 14:18:18 GMT-0500 (Eastern Standard Time),449972.30000019073,005_o_f_h_a.png,I,space,16907,2,3,1971.5,448000.80000019073,9024,VNB,B,0
1,prac,1,0.0,2-Back,1.0,m,Mon Dec 15 2025 14:18:18 GMT-0500 (Eastern Standard Time),569622.5,004_o_m_d_a.png,I,m,1523,3,3,2433.9000000953674,567188.5999999046,9024,VNB,B,1
1,prac,1,1.0,2-Back,0.0,z,Mon Dec 15 2025 14:18:18 GMT-0500 (Eastern Standard Time),572405.5999999046,007_m_m_h_a.png,I,m,1828,4,3,2766.4000000953674,569639.1999998093,9024,VNB,B,2
2,prac,1,0.0,2-Back,1.0,m,Mon Dec 15 2025 14:18:18 GMT-0500 (Eastern Standard Time),574505.6999998093,020_y_f_n_a.png,I,m,1165,5,3,2083.0,572422.6999998093,9024,VNB,B,3
2,prac,1,1.0,2-Back,0.0,z,Mon Dec 15 2025 14:18:18 GMT-0500 (Eastern Standard Time),576855.6999998093,004_o_m_h_a.png,I,m,1422,6,3,2333.8999996185303,574521.8000001907,9024,VNB,B,4
2,prac,1,1.0,2-Back,0.0,z,Mon Dec 15 2025 14:18:18 GMT-0500 (Eastern Standard Time),579255.5999999046,016_y_m_n_a.png,I,m,1441,7,3,2382.0999999046326,576873.5,9024,VNB,B,5
2,prac,1,0.0,2-Back,0.0,m,Mon Dec 15 2025 14:18:18 GMT-0500 (Eastern Standard Time),581722.1999998093,011_m_f_d_a.png,I,z,1513,8,3,2449.5999999046326,579272.5999999046,9024,VNB,B,6
3,prac,1,0.0,2-Back,1.0,m,Mon Dec 15 2025 14:18:18 GMT-0500 (Eastern Standard Time),583680.8000001907,005_o_f_d_a.png,I,m,1000,9,3,1942.6000003814697,581738.1999998093,9024,VNB,B,7
3,prac,1,0.0,2-Back,0.0,m,Mon Dec 15 2025 14:18:18 GMT-0500 (Eastern Standard Time),586472.0,007_m_m_h_a.png,I,None,2012,10,3,2779.699999809265,583692.3000001907,9024,VNB,B,8
3,prac,1,1.0,2-Back,0.0,z,Mon Dec 15 2025 14:18:18 GMT-0500 (Eastern Standard Time),588955.5999999046,020_y_f_d_a.png,I,m,1543,11,3,2466.5,586489.0999999046,9024,VNB,B,9
3,prac,1,0.0,2-Back,0.0,m,Mon Dec 15 2025 14:18:18 GMT-0500 (Eastern Standard Time),590722.3000001907,004_o_m_n_a.png,I,z,842,12,3,1748.7000002861023,588973.5999999046,9024,VNB,B,10
0,prac,2,0.0,2-Back,,,Mon Dec 15 2025 14:18:18 GMT-0500 (Eastern Standard Time),590722.3000001907,011_m_f_n_a.png,I,a,4076,1,3,1748.7000002861023,588973.5999999046,9024,VNB,B,0
0,prac,2,0.0,2-Back,,,Mon Dec 15 2025 14:18:18 GMT-0500 (Eastern Standard Time),590722.3000001907,005_o_f_h_a.png,I,a,4076,2,3,1748.7000002861023,588973.5999999046,9024,VNB,B,0
1,prac,2,0.0,2-Back,1.0,m,Mon Dec 15 2025 14:18:18 GMT-0500 (Eastern Standard Time),602755.5999999046,004_o_m_d_a.png,I,m,1676,3,3,2582.5,600173.0999999046,9024,VNB,B,1
1,prac,2,1.0,2-Back,0.0,z,Mon Dec 15 2025 14:18:18 GMT-0500 (Eastern Standard Time),605021.6999998093,007_m_m_h_a.png,I,m,1482,4,3,2251.3999996185303,602770.3000001907,9024,VNB,B,2
1,prac,2,0.0,2-Back,0.0,m,Mon Dec 15 2025 14:18:18 GMT-0500 (Eastern Standard Time),607955.1999998093,020_y_f_n_a.png,I,None,2013,5,3,2922.199999809265,605033.0,9024,VNB,B,3
1,prac,2,1.0,2-Back,0.0,z,Mon Dec 15 2025 14:18:18 GMT-0500 (Eastern Standard Time),610321.5999999046,004_o_m_h_a.png,I,m,1447,6,3,2354.4000000953674,607967.1999998093,9024,VNB,B,4
1,prac,2,1.0,2-Back,0.0,z,Mon Dec 15 2025 14:18:18 GMT-0500 (Eastern Standard Time),612622.0,016_y_m_n_a.png,I,m,1352,7,3,2288.5,610333.5,9024,VNB,B,5
1,prac,2,0.0,2-Back,0.0,m,Mon Dec 15 2025 14:18:18 GMT-0500 (Eastern Standard Time),614705.3000001907,011_m_f_d_a.png,I,z,1139,8,3,2065.800000190735,612639.5,9024,VNB,B,6
2,prac,2,0.0,2-Back,1.0,m,Mon Dec 15 2025 14:18:18 GMT-0500 (Eastern Standard Time),616505.6999998093,005_o_f_d_a.png,I,m,846,9,3,1784.1999998092651,614721.5,9024,VNB,B,7
3,prac,2,0.0,2-Back,1.0,m,Mon Dec 15 2025 14:18:18 GMT-0500 (Eastern Standard Time),618388.9000000954,007_m_m_h_a.png,I,m,1089,10,3,1865.7000002861023,616523.1999998093,9024,VNB,B,8
4,prac,2,1.0,2-Back,1.0,z,Mon Dec 15 2025 14:18:18 GMT-0500 (Eastern Standard Time),620855.5999999046,020_y_f_d_a.png,I,z,1526,11,3,2443.4000000953674,618412.1999998093,9024,VNB,B,9
5,prac,2,0.0,2-Back,1.0,m,Mon Dec 15 2025 14:18:18 GMT-0500 (Eastern Standard Time),622938.9000000954,004_o_m_n_a.png,I,m,1148,12,3,2065.9000000953674,620873.0,9024,VNB,B,10
0,test,1,0.0,2-Back,,,Mon Dec 15 2025 14:18:18 GMT-0500 (Eastern Standard Time),622938.9000000954,016_y_m_h_a.png,I,space,18049,1,3,2065.9000000953674,620873.0,9024,VNB,B,0
0,test,1,0.0,2-Back,,,Mon Dec 15 2025 14:18:18 GMT-0500 (Eastern Standard Time),622938.9000000954,005_o_f_n_a.png,I,space,18049,2,3,2065.9000000953674,620873.0,9024,VNB,B,0
0,test,1,0.0,2-Back,0.0,z,Mon Dec 15 2025 14:18:18 GMT-0500 (Eastern Standard Time),672988.9000000954,004_o_m_h_a.png,I,m,1134,3,3,2167.5999999046326,670821.3000001907,9024,VNB,B,1
1,test,1,0.0,2-Back,1.0,m,Mon Dec 15 2025 14:18:18 GMT-0500 (Eastern Standard Time),674988.8000001907,011_m_f_d_a.png,I,m,967,4,3,1986.9000000953674,673001.9000000954,9024,VNB,B,2
1,test,1,1.0,2-Back,0.0,m,Mon Dec 15 2025 14:18:18 GMT-0500 (Eastern Standard Time),677555.5,016_y_m_n_a.png,I,z,1543,5,3,2551.9000000953674,675003.5999999046,9024,VNB,B,3
1,test,1,0.0,2-Back,0.0,z,Mon Dec 15 2025 14:18:18 GMT-0500 (Eastern Standard Time),679688.8000001907,020_y_f_d_a.png,I,m,1104,6,3,2120.0,677568.8000001907,9024,VNB,B,4
1,test,1,0.0,2-Back,0.0,m,Mon Dec 15 2025 14:18:18 GMT-0500 (Eastern Standard Time),681838.5,007_m_m_h_a.png,I,z,1132,7,3,2135.4000000953674,679703.0999999046,9024,VNB,B,5
2,test,1,1.0,2-Back,1.0,m,Mon Dec 15 2025 14:18:18 GMT-0500 (Eastern Standard Time),684322.0999999046,020_y_f_n_a.png,I,m,1461,8,3,2469.7999997138977,681852.3000001907,9024,VNB,B,6
3,test,1,0.0,2-Back,1.0,z,Mon Dec 15 2025 14:18:18 GMT-0500 (Eastern Standard Time),687005.3000001907,005_o_f_h_a.png,I,z,1650,9,3,2668.5,684336.8000001907,9024,VNB,B,7
4,test,1,0.0,2-Back,1.0,m,Mon Dec 15 2025 14:18:18 GMT-0500 (Eastern Standard Time),689405.1999998093,004_o_m_d_a.png,I,m,1366,10,3,2386.2999997138977,687018.9000000954,9024,VNB,B,8
5,test,1,1.0,2-Back,1.0,m,Mon Dec 15 2025 14:18:18 GMT-0500 (Eastern Standard Time),691438.3000001907,007_m_m_d_a.png,I,m,1013,11,3,2017.8000001907349,689420.5,9024,VNB,B,9
5,test,1,0.0,2-Back,0.0,m,Mon Dec 15 2025 14:18:18 GMT-0500 (Eastern Standard Time),694472.3000001907,011_m_f_n_a.png,I,None,2016,12,3,3022.800000190735,691449.5,9024,VNB,B,10
5,test,1,0.0,2-Back,0.0,m,Mon Dec 15 2025 14:18:18 GMT-0500 (Eastern Standard Time),696688.6999998093,020_y_f_h_a.png,I,z,1196,13,3,2204.7999997138977,694483.9000000954,9024,VNB,B,11
6,test,1,0.0,2-Back,1.0,z,Mon Dec 15 2025 14:18:18 GMT-0500 (Eastern Standard Time),698838.5,007_m_m_n_a.png,I,z,1122,14,3,2137.4000000953674,696701.0999999046,9024,VNB,B,12
7,test,1,0.0,2-Back,1.0,m,Mon Dec 15 2025 14:18:18 GMT-0500 (Eastern Standard Time),700838.6999998093,016_y_m_d_a.png,I,m,973,15,3,1992.5,698846.1999998093,9024,VNB,B,13
8,test,1,1.0,2-Back,1.0,m,Mon Dec 15 2025 14:18:18 GMT-0500 (Eastern Standard Time),702655.4000000954,011_m_f_h_a.png,I,m,797,16,3,1802.5,700852.9000000954,9024,VNB,B,14
9,test,1,0.0,2-Back,1.0,z,Mon Dec 15 2025 14:18:18 GMT-0500 (Eastern Standard Time),704321.9000000954,005_o_f_d_a.png,I,z,644,17,3,1651.9000000953674,702670.0,9024,VNB,B,15
10,test,1,0.0,2-Back,1.0,m,Mon Dec 15 2025 14:18:18 GMT-0500 (Eastern Standard Time),706088.8000001907,004_o_m_n_a.png,I,m,737,18,3,1754.2000002861023,704334.5999999046,9024,VNB,B,16
0,test,2,0.0,2-Back,,,Mon Dec 15 2025 14:18:18 GMT-0500 (Eastern Standard Time),706088.8000001907,007_m_m_h_a.png,I,space,1955,1,3,1754.2000002861023,704334.5999999046,9024,VNB,B,0
0,test,2,0.0,2-Back,,,Mon Dec 15 2025 14:18:18 GMT-0500 (Eastern Standard Time),706088.8000001907,020_y_f_n_a.png,I,space,1955,2,3,1754.2000002861023,704334.5999999046,9024,VNB,B,0
1,test,2,1.0,2-Back,1.0,z,Mon Dec 15 2025 14:18:18 GMT-0500 (Eastern Standard Time),715255.4000000954,005_o_f_h_a.png,I,z,839,3,3,1852.0,713403.4000000954,9024,VNB,B,1
2,test,2,0.0,2-Back,1.0,m,Mon Dec 15 2025 14:18:18 GMT-0500 (Eastern Standard Time),717055.1999998093,004_o_m_d_a.png,I,m,780,4,3,1786.7999997138977,715268.4000000954,9024,VNB,B,2
2,test,2,0.0,2-Back,0.0,m,Mon Dec 15 2025 14:18:18 GMT-0500 (Eastern Standard Time),718805.4000000954,011_m_f_d_a.png,I,z,724,5,3,1739.2000002861023,717066.1999998093,9024,VNB,B,3
3,test,2,0.0,2-Back,1.0,m,Mon Dec 15 2025 14:18:18 GMT-0500 (Eastern Standard Time),720555.4000000954,016_y_m_h_a.png,I,m,718,6,3,1735.0,718820.4000000954,9024,VNB,B,4
3,test,2,0.0,2-Back,0.0,m,Mon Dec 15 2025 14:18:18 GMT-0500 (Eastern Standard Time),722738.6999998093,005_o_f_n_a.png,I,z,1161,7,3,2168.8999996185303,720569.8000001907,9024,VNB,B,5
3,test,2,1.0,2-Back,0.0,z,Mon Dec 15 2025 14:18:18 GMT-0500 (Eastern Standard Time),724422.0,004_o_m_h_a.png,I,m,641,8,3,1668.0999999046326,722753.9000000954,9024,VNB,B,6
3,test,2,0.0,2-Back,0.0,m,Mon Dec 15 2025 14:18:18 GMT-0500 (Eastern Standard Time),726188.6999998093,020_y_f_d_a.png,I,z,718,9,3,1750.3999996185303,724438.3000001907,9024,VNB,B,7
4,test,2,0.0,2-Back,1.0,m,Mon Dec 15 2025 14:18:18 GMT-0500 (Eastern Standard Time),727805.0999999046,016_y_m_d_a.png,I,m,583,10,3,1601.5999999046326,726203.5,9024,VNB,B,8
4,test,2,0.0,2-Back,0.0,m,Mon Dec 15 2025 14:18:18 GMT-0500 (Eastern Standard Time),729388.6999998093,007_m_m_n_a.png,I,z,550,11,3,1571.3999996185303,727817.3000001907,9024,VNB,B,9
4,test,2,0.0,2-Back,0.0,m,Mon Dec 15 2025 14:18:18 GMT-0500 (Eastern Standard Time),731105.4000000954,011_m_f_h_a.png,I,z,695,12,3,1703.5999999046326,729401.8000001907,9024,VNB,B,10
4,test,2,1.0,2-Back,0.0,z,Mon Dec 15 2025 14:18:18 GMT-0500 (Eastern Standard Time),732922.0,004_o_m_n_a.png,I,m,786,13,3,1803.5,731118.5,9024,VNB,B,11
4,test,2,0.0,2-Back,0.0,m,Mon Dec 15 2025 14:18:18 GMT-0500 (Eastern Standard Time),735421.8000001907,005_o_f_d_a.png,I,z,1481,14,3,2487.300000190735,732934.5,9024,VNB,B,12
4,test,2,0.0,2-Back,0.0,m,Mon Dec 15 2025 14:18:18 GMT-0500 (Eastern Standard Time),738455.5,020_y_f_h_a.png,I,None,2016,15,3,3020.0999999046326,735435.4000000954,9024,VNB,B,13
5,test,2,0.0,2-Back,1.0,z,Mon Dec 15 2025 14:18:18 GMT-0500 (Eastern Standard Time),741271.9000000954,007_m_m_d_a.png,I,z,1788,16,3,2803.7000002861023,738468.1999998093,9024,VNB,B,14
5,test,2,0.0,2-Back,0.0,m,Mon Dec 15 2025 14:18:18 GMT-0500 (Eastern Standard Time),743355.0999999046,016_y_m_n_a.png,I,z,1036,17,3,2067.0,741288.0999999046,9024,VNB,B,15
6,test,2,1.0,2-Back,1.0,m,Mon Dec 15 2025 14:18:18 GMT-0500 (Eastern Standard Time),745038.3000001907,011_m_f_n_a.png,I,m,664,18,3,1671.2000002861023,743367.0999999046,9024,VNB,B,16
0,test,3,1.0,2-Back,,,Mon Dec 15 2025 14:18:18 GMT-0500 (Eastern Standard Time),745038.3000001907,004_o_m_n_a.png,I,space,3358,1,3,1671.2000002861023,743367.0999999046,9024,VNB,B,0
0,test,3,1.0,2-Back,,,Mon Dec 15 2025 14:18:18 GMT-0500 (Eastern Standard Time),745038.3000001907,005_o_f_d_a.png,I,space,3358,2,3,1671.2000002861023,743367.0999999046,9024,VNB,B,0
0,test,3,0.0,2-Back,0.0,m,Mon Dec 15 2025 14:18:18 GMT-0500 (Eastern Standard Time),756488.9000000954,020_y_f_h_a.png,I,None,2016,3,3,3020.800000190735,753468.0999999046,9024,VNB,B,1
0,test,3,0.0,2-Back,0.0,z,Mon Dec 15 2025 14:18:18 GMT-0500 (Eastern Standard Time),758638.5,011_m_f_d_a.png,I,m,1131,4,3,2136.4000000953674,756502.0999999046,9024,VNB,B,2
0,test,3,1.0,2-Back,0.0,m,Mon Dec 15 2025 14:18:18 GMT-0500 (Eastern Standard Time),761105.1999998093,016_y_m_n_a.png,I,z,1428,5,3,2449.0,758656.1999998093,9024,VNB,B,3
1,test,3,0.0,2-Back,1.0,m,Mon Dec 15 2025 14:18:18 GMT-0500 (Eastern Standard Time),762872.0999999046,004_o_m_h_a.png,I,m,738,6,3,1753.4000000953674,761118.6999998093,9024,VNB,B,4
1,test,3,0.0,2-Back,0.0,z,Mon Dec 15 2025 14:18:18 GMT-0500 (Eastern Standard Time),765288.8000001907,020_y_f_n_a.png,I,m,1389,7,3,2402.300000190735,762886.5,9024,VNB,B,5
1,test,3,1.0,2-Back,0.0,m,Mon Dec 15 2025 14:18:18 GMT-0500 (Eastern Standard Time),768322.0999999046,007_m_m_d_a.png,I,None,2016,8,3,3019.199999809265,765302.9000000954,9024,VNB,B,6
1,test,3,0.0,2-Back,0.0,m,Mon Dec 15 2025 14:18:18 GMT-0500 (Eastern Standard Time),770255.1999998093,016_y_m_d_a.png,I,z,915,9,3,1918.1999998092651,768337.0,9024,VNB,B,7
2,test,3,0.0,2-Back,1.0,m,Mon Dec 15 2025 14:18:18 GMT-0500 (Eastern Standard Time),772071.8000001907,005_o_f_h_a.png,I,m,772,10,3,1802.4000000953674,770269.4000000954,9024,VNB,B,8
3,test,3,1.0,2-Back,1.0,m,Mon Dec 15 2025 14:18:18 GMT-0500 (Eastern Standard Time),773938.6999998093,011_m_f_n_a.png,I,m,843,11,3,1854.5,772084.1999998093,9024,VNB,B,9
3,test,3,1.0,2-Back,0.0,z,Mon Dec 15 2025 14:18:18 GMT-0500 (Eastern Standard Time),775371.9000000954,007_m_m_h_a.png,I,m,385,12,3,1419.2000002861023,773952.6999998093,9024,VNB,B,10
4,test,3,0.0,2-Back,1.0,m,Mon Dec 15 2025 14:18:18 GMT-0500 (Eastern Standard Time),778088.6999998093,020_y_f_d_a.png,I,m,1688,13,3,2703.7999997138977,775384.9000000954,9024,VNB,B,11
5,test,3,0.0,2-Back,1.0,m,Mon Dec 15 2025 14:18:18 GMT-0500 (Eastern Standard Time),779888.5999999046,005_o_f_n_a.png,I,m,779,14,3,1788.5,778100.0999999046,9024,VNB,B,12
5,test,3,0.0,2-Back,0.0,z,Mon Dec 15 2025 14:18:18 GMT-0500 (Eastern Standard Time),782922.0999999046,004_o_m_d_a.png,I,None,2016,15,3,3019.5,779902.5999999046,9024,VNB,B,13
5,test,3,1.0,2-Back,0.0,m,Mon Dec 15 2025 14:18:18 GMT-0500 (Eastern Standard Time),785005.1999998093,011_m_f_h_a.png,I,z,1048,16,3,2069.8999996185303,782935.3000001907,9024,VNB,B,14
5,test,3,0.0,2-Back,0.0,m,Mon Dec 15 2025 14:18:18 GMT-0500 (Eastern Standard Time),788038.5999999046,007_m_m_n_a.png,I,None,2016,17,3,3018.0,785020.5999999046,9024,VNB,B,15
6,test,3,0.0,2-Back,1.0,z,Mon Dec 15 2025 14:18:18 GMT-0500 (Eastern Standard Time),790522.0,016_y_m_h_a.png,I,z,1453,18,3,2469.199999809265,788052.8000001907,9024,VNB,B,16
0,test,4,0.0,2-Back,,,Mon Dec 15 2025 14:18:18 GMT-0500 (Eastern Standard Time),790522.0,011_m_f_n_a.png,I,space,8034,1,3,2469.199999809265,788052.8000001907,9024,VNB,B,0
0,test,4,0.0,2-Back,,,Mon Dec 15 2025 14:18:18 GMT-0500 (Eastern Standard Time),790522.0,004_o_m_n_a.png,I,space,8034,2,3,2469.199999809265,788052.8000001907,9024,VNB,B,0
0,test,4,1.0,2-Back,0.0,m,Mon Dec 15 2025 14:18:18 GMT-0500 (Eastern Standard Time),806054.5999999046,016_y_m_h_a.png,I,z,1121,3,3,2134.9000000953674,803919.6999998093,9024,VNB,B,1
0,test,4,1.0,2-Back,0.0,m,Mon Dec 15 2025 14:18:18 GMT-0500 (Eastern Standard Time),808871.9000000954,005_o_f_d_a.png,I,z,1788,4,3,2803.5999999046326,806068.3000001907,9024,VNB,B,2
1,test,4,0.0,2-Back,1.0,z,Mon Dec 15 2025 14:18:18 GMT-0500 (Eastern Standard Time),811255.1999998093,004_o_m_h_a.png,I,z,1356,5,3,2370.199999809265,808885.0,9024,VNB,B,3
2,test,4,0.0,2-Back,1.0,m,Mon Dec 15 2025 14:18:18 GMT-0500 (Eastern Standard Time),813205.1999998093,007_m_m_n_a.png,I,m,924,6,3,1936.5,811268.6999998093,9024,VNB,B,4
2,test,4,0.0,2-Back,0.0,m,Mon Dec 15 2025 14:18:18 GMT-0500 (Eastern Standard Time),815321.8000001907,011_m_f_d_a.png,I,z,1071,7,3,2100.7000002861023,813221.0999999046,9024,VNB,B,5
2,test,4,0.0,2-Back,0.0,z,Mon Dec 15 2025 14:18:18 GMT-0500 (Eastern Standard Time),817788.6999998093,020_y_f_n_a.png,I,m,1434,8,3,2455.5,815333.1999998093,9024,VNB,B,6
2,test,4,1.0,2-Back,0.0,m,Mon Dec 15 2025 14:18:18 GMT-0500 (Eastern Standard Time),820355.0999999046,005_o_f_h_a.png,I,z,1527,9,3,2551.199999809265,817803.9000000954,9024,VNB,B,7
2,test,4,0.0,2-Back,0.0,m,Mon Dec 15 2025 14:18:18 GMT-0500 (Eastern Standard Time),822738.5999999046,007_m_m_h_a.png,I,z,1360,10,3,2371.0,820367.5999999046,9024,VNB,B,8
2,test,4,0.0,2-Back,0.0,m,Mon Dec 15 2025 14:18:18 GMT-0500 (Eastern Standard Time),825787.5999999046,020_y_f_d_a.png,I,None,2031,11,3,3037.2999997138977,822750.3000001907,9024,VNB,B,9
2,test,4,0.0,2-Back,0.0,m,Mon Dec 15 2025 14:18:18 GMT-0500 (Eastern Standard Time),828822.0,016_y_m_n_a.png,I,None,2016,12,3,3019.5999999046326,825802.4000000954,9024,VNB,B,10
2,test,4,0.0,2-Back,0.0,z,Mon Dec 15 2025 14:18:18 GMT-0500 (Eastern Standard Time),831088.3000001907,004_o_m_d_a.png,I,m,1246,13,3,2251.9000000953674,828836.4000000954,9024,VNB,B,11
3,test,4,1.0,2-Back,1.0,m,Mon Dec 15 2025 14:18:18 GMT-0500 (Eastern Standard Time),833305.3000001907,011_m_f_h_a.png,I,m,1186,14,3,2202.1000003814697,831103.1999998093,9024,VNB,B,12
3,test,4,1.0,2-Back,0.0,m,Mon Dec 15 2025 14:18:18 GMT-0500 (Eastern Standard Time),835221.8000001907,020_y_f_h_a.png,I,z,874,15,3,1897.3000001907349,833324.5,9024,VNB,B,13
4,test,4,0.0,2-Back,1.0,m,Mon Dec 15 2025 14:18:18 GMT-0500 (Eastern Standard Time),837155.3000001907,005_o_f_n_a.png,I,m,910,16,3,1919.0,835236.3000001907,9024,VNB,B,14
5,test,4,0.0,2-Back,1.0,m,Mon Dec 15 2025 14:18:18 GMT-0500 (Eastern Standard Time),839071.8000001907,016_y_m_d_a.png,I,m,881,17,3,1901.9000000953674,837169.9000000954,9024,VNB,B,15
5,test,4,1.0,2-Back,0.0,m,Mon Dec 15 2025 14:18:18 GMT-0500 (Eastern Standard Time),840738.5999999046,007_m_m_d_a.png,I,z,644,18,3,1651.6999998092651,839086.9000000954,9024,VNB,B,16
0,test,5,1.0,2-Back,,,Mon Dec 15 2025 14:18:18 GMT-0500 (Eastern Standard Time),840738.5999999046,020_y_f_d_a.png,I,space,2073,1,3,1651.6999998092651,839086.9000000954,9024,VNB,B,0
0,test,5,1.0,2-Back,,,Mon Dec 15 2025 14:18:18 GMT-0500 (Eastern Standard Time),840738.5999999046,005_o_f_h_a.png,I,space,2073,2,3,1651.6999998092651,839086.9000000954,9024,VNB,B,0
0,test,5,1.0,2-Back,0.0,z,Mon Dec 15 2025 14:18:18 GMT-0500 (Eastern Standard Time),850638.3000001907,004_o_m_d_a.png,I,m,1181,3,3,2186.1000003814697,848452.1999998093,9024,VNB,B,1
1,test,5,1.0,2-Back,1.0,m,Mon Dec 15 2025 14:18:18 GMT-0500 (Eastern Standard Time),853421.9000000954,011_m_f_n_a.png,I,m,1749,4,3,2769.5,850652.4000000954,9024,VNB,B,2
1,test,5,0.0,2-Back,0.0,m,Mon Dec 15 2025 14:18:18 GMT-0500 (Eastern Standard Time),855521.9000000954,007_m_m_h_a.png,I,z,1078,5,3,2085.300000190735,853436.5999999046,9024,VNB,B,3
1,test,5,0.0,2-Back,0.0,z,Mon Dec 15 2025 14:18:18 GMT-0500 (Eastern Standard Time),857271.9000000954,020_y_f_n_a.png,I,m,722,6,3,1736.0,855535.9000000954,9024,VNB,B,4
1,test,5,0.0,2-Back,0.0,m,Mon Dec 15 2025 14:18:18 GMT-0500 (Eastern Standard Time),859871.6999998093,005_o_f_d_a.png,I,z,1579,7,3,2585.699999809265,857286.0,9024,VNB,B,5
2,test,5,0.0,2-Back,1.0,m,Mon Dec 15 2025 14:18:18 GMT-0500 (Eastern Standard Time),861688.4000000954,004_o_m_h_a.png,I,m,772,8,3,1803.8000001907349,859884.5999999046,9024,VNB,B,6
3,test,5,1.0,2-Back,1.0,z,Mon Dec 15 2025 14:18:18 GMT-0500 (Eastern Standard Time),863821.8000001907,011_m_f_d_a.png,I,z,1114,9,3,2118.0,861703.8000001907,9024,VNB,B,7
4,test,5,0.0,2-Back,1.0,m,Mon Dec 15 2025 14:18:18 GMT-0500 (Eastern Standard Time),865788.5,016_y_m_n_a.png,I,m,918,10,3,1951.3000001907349,863837.1999998093,9024,VNB,B,8
4,test,5,0.0,2-Back,0.0,m,Mon Dec 15 2025 14:18:18 GMT-0500 (Eastern Standard Time),867938.5999999046,007_m_m_n_a.png,I,z,1127,11,3,2137.699999809265,865800.9000000954,9024,VNB,B,9
4,test,5,0.0,2-Back,0.0,m,Mon Dec 15 2025 14:18:18 GMT-0500 (Eastern Standard Time),871022.0999999046,020_y_f_h_a.png,I,None,2017,12,3,3031.0,867991.0999999046,9024,VNB,B,10
4,test,5,0.0,2-Back,0.0,m,Mon Dec 15 2025 14:18:18 GMT-0500 (Eastern Standard Time),874071.9000000954,016_y_m_d_a.png,I,None,2017,13,3,3034.300000190735,871037.5999999046,9024,VNB,B,11
4,test,5,1.0,2-Back,0.0,z,Mon Dec 15 2025 14:18:18 GMT-0500 (Eastern Standard Time),876171.6999998093,011_m_f_h_a.png,I,m,1051,14,3,2083.5999999046326,874088.0999999046,9024,VNB,B,12
4,test,5,0.0,2-Back,0.0,m,Mon Dec 15 2025 14:18:18 GMT-0500 (Eastern Standard Time),877755.0999999046,004_o_m_n_a.png,I,z,552,15,3,1570.0999999046326,876185.0,9024,VNB,B,13
4,test,5,0.0,2-Back,0.0,m,Mon Dec 15 2025 14:18:18 GMT-0500 (Eastern Standard Time),879371.8000001907,007_m_m_d_a.png,I,z,585,16,3,1602.4000000953674,877769.4000000954,9024,VNB,B,14
4,test,5,0.0,2-Back,0.0,z,Mon Dec 15 2025 14:18:18 GMT-0500 (Eastern Standard Time),880938.5,005_o_f_n_a.png,I,m,536,17,3,1553.8000001907349,879384.6999998093,9024,VNB,B,15
4,test,5,1.0,2-Back,0.0,m,Mon Dec 15 2025 14:18:18 GMT-0500 (Eastern Standard Time),882738.4000000954,016_y_m_h_a.png,I,z,739,18,3,1784.5999999046326,880953.8000001907,9024,VNB,B,16
