acc_sum,block,block_c,change,condition,correct,correct_response,datetime,endtime,face,project,response,response_time,row_sel,session_number,start_end,starttime,subject_id,task,task_vers,trial
0,prac,1,,1-Back,,,Thu Sep 11 2025 14:58:47 GMT-0400 (Eastern Daylight Time),,124_o_f_d_a.png,I,space,15280,1,2,,,9024,VNB,A,0
1,prac,1,0.0,1-Back,1,m,Thu Sep 11 2025 14:58:47 GMT-0400 (Eastern Daylight Time),5383804.800000191,071_y_f_n_a.png,I,m,829,2,2,1716.6000003814697,5382088.199999809,9024,VNB,A,1
1,prac,1,0.0,1-Back,0,m,Thu Sep 11 2025 14:58:47 GMT-0400 (Eastern Daylight Time),5386704.3999996185,165_m_m_h_a.png,I,None,2013,3,2,2885.5,5383818.8999996185,9024,VNB,A,2
1,prac,1,0.0,1-Back,0,m,Thu Sep 11 2025 14:58:47 GMT-0400 (Eastern Daylight Time),5388787.8999996185,109_y_m_d_a.png,I,z,1181,4,2,2067.5999994277954,5386720.300000191,9024,VNB,A,3
2,prac,1,0.0,1-Back,1,m,Thu Sep 11 2025 14:58:47 GMT-0400 (Eastern Daylight Time),5391037.8999996185,124_o_f_n_a.png,I,m,1256,5,2,2234.5999994277954,5388803.300000191,9024,VNB,A,4
2,prac,1,1.0,1-Back,0,z,Thu Sep 11 2025 14:58:47 GMT-0400 (Eastern Daylight Time),5393121.099999428,109_y_m_n_a.png,I,m,1175,6,2,2070.699999809265,5391050.3999996185,9024,VNB,A,5
3,prac,1,0.0,1-Back,1,m,Thu Sep 11 2025 14:58:47 GMT-0400 (Eastern Daylight Time),5395388.0,039_o_m_h_a.png,I,m,1352,7,2,2252.300000190735,5393135.699999809,9024,VNB,A,6
4,prac,1,0.0,1-Back,1,m,Thu Sep 11 2025 14:58:47 GMT-0400 (Eastern Daylight Time),5397021.300000191,139_m_f_d_a.png,I,m,798,8,2,1621.9000005722046,5395399.3999996185,9024,VNB,A,7
5,prac,1,1.0,1-Back,1,z,Thu Sep 11 2025 14:58:47 GMT-0400 (Eastern Daylight Time),5398854.5,071_y_f_d_a.png,I,z,998,9,2,1819.8000001907349,5397034.699999809,9024,VNB,A,8
6,prac,1,0.0,1-Back,1,m,Thu Sep 11 2025 14:58:47 GMT-0400 (Eastern Daylight Time),5400804.5,165_m_m_n_a.png,I,m,1112,10,2,1935.5,5398869.0,9024,VNB,A,9
6,prac,1,0.0,1-Back,0,m,Thu Sep 11 2025 14:58:47 GMT-0400 (Eastern Daylight Time),5402837.199999809,124_o_f_h_a.png,I,z,1164,11,2,2016.6999998092651,5400820.5,9024,VNB,A,10
7,prac,1,0.0,1-Back,1,m,Thu Sep 11 2025 14:58:47 GMT-0400 (Eastern Daylight Time),5404304.5,109_y_m_d_a.png,I,m,683,12,2,1458.4000005722046,5402846.099999428,9024,VNB,A,11
0,prac,2,0.0,1-Back,,,Thu Sep 11 2025 14:58:47 GMT-0400 (Eastern Daylight Time),5404304.5,124_o_f_d_a.png,I,a,11226,1,2,1458.4000005722046,5402846.099999428,9024,VNB,A,0
1,prac,2,0.0,1-Back,1,m,Thu Sep 11 2025 14:58:47 GMT-0400 (Eastern Daylight Time),5420337.8999996185,071_y_f_n_a.png,I,m,915,2,2,1736.0,5418601.8999996185,9024,VNB,A,1
2,prac,2,0.0,1-Back,1,m,Thu Sep 11 2025 14:58:47 GMT-0400 (Eastern Daylight Time),5422787.8999996185,165_m_m_h_a.png,I,m,1609,3,2,2429.8999996185303,5420358.0,9024,VNB,A,2
2,prac,2,0.0,1-Back,0,m,Thu Sep 11 2025 14:58:47 GMT-0400 (Eastern Daylight Time),5425021.199999809,109_y_m_d_a.png,I,z,1443,4,2,2213.8999996185303,5422807.300000191,9024,VNB,A,3
3,prac,2,0.0,1-Back,1,m,Thu Sep 11 2025 14:58:47 GMT-0400 (Eastern Daylight Time),5426937.8999996185,124_o_f_n_a.png,I,m,1026,5,2,1897.8999996185303,5425040.0,9024,VNB,A,4
4,prac,2,1.0,1-Back,1,z,Thu Sep 11 2025 14:58:47 GMT-0400 (Eastern Daylight Time),5428954.5,109_y_m_n_a.png,I,z,1163,6,2,1997.4000005722046,5426957.099999428,9024,VNB,A,5
5,prac,2,0.0,1-Back,1,m,Thu Sep 11 2025 14:58:47 GMT-0400 (Eastern Daylight Time),5431037.599999428,039_o_m_h_a.png,I,m,1252,7,2,2063.0999994277954,5428974.5,9024,VNB,A,6
6,prac,2,0.0,1-Back,1,m,Thu Sep 11 2025 14:58:47 GMT-0400 (Eastern Daylight Time),5432654.599999428,139_m_f_d_a.png,I,m,789,8,2,1603.8999996185303,5431050.699999809,9024,VNB,A,7
7,prac,2,1.0,1-Back,1,z,Thu Sep 11 2025 14:58:47 GMT-0400 (Eastern Daylight Time),5434553.8999996185,071_y_f_d_a.png,I,z,1075,9,2,1882.6999998092651,5432671.199999809,9024,VNB,A,8
8,prac,2,0.0,1-Back,1,m,Thu Sep 11 2025 14:58:47 GMT-0400 (Eastern Daylight Time),5436321.199999809,165_m_m_n_a.png,I,m,940,10,2,1757.5,5434563.699999809,9024,VNB,A,9
9,prac,2,0.0,1-Back,1,m,Thu Sep 11 2025 14:58:47 GMT-0400 (Eastern Daylight Time),5438754.5,124_o_f_h_a.png,I,m,1575,11,2,2421.300000190735,5436333.199999809,9024,VNB,A,10
10,prac,2,0.0,1-Back,1,m,Thu Sep 11 2025 14:58:47 GMT-0400 (Eastern Daylight Time),5440954.5,109_y_m_d_a.png,I,m,1416,12,2,2184.5,5438770.0,9024,VNB,A,11
0,test,1,0.0,1-Back,,,Thu Sep 11 2025 14:58:47 GMT-0400 (Eastern Daylight Time),5440954.5,071_y_f_d_a.png,I,space,23542,1,2,2184.5,5438770.0,9024,VNB,A,0
1,test,1,0.0,1-Back,1,m,Thu Sep 11 2025 14:58:47 GMT-0400 (Eastern Daylight Time),5479254.3999996185,139_m_f_n_a.png,I,m,988,2,2,2004.3999996185303,5477250.0,9024,VNB,A,1
2,test,1,0.0,1-Back,1,m,Thu Sep 11 2025 14:58:47 GMT-0400 (Eastern Daylight Time),5481204.5,039_o_m_h_a.png,I,m,924,3,2,1935.4000005722046,5479269.099999428,9024,VNB,A,2
3,test,1,1.0,1-Back,1,z,Thu Sep 11 2025 14:58:47 GMT-0400 (Eastern Daylight Time),5483187.800000191,165_m_m_h_a.png,I,z,957,4,2,1971.9000005722046,5481215.8999996185,9024,VNB,A,3
4,test,1,0.0,1-Back,1,m,Thu Sep 11 2025 14:58:47 GMT-0400 (Eastern Daylight Time),5485504.3999996185,124_o_f_n_a.png,I,m,1295,5,2,2306.3999996185303,5483198.0,9024,VNB,A,4
5,test,1,0.0,1-Back,1,m,Thu Sep 11 2025 14:58:47 GMT-0400 (Eastern Daylight Time),5487404.199999809,109_y_m_d_a.png,I,m,865,6,2,1883.6000003814697,5485520.599999428,9024,VNB,A,5
6,test,1,1.0,1-Back,1,z,Thu Sep 11 2025 14:58:47 GMT-0400 (Eastern Daylight Time),5489054.3999996185,139_m_f_d_a.png,I,z,629,7,2,1637.8000001907349,5487416.599999428,9024,VNB,A,6
7,test,1,0.0,1-Back,1,m,Thu Sep 11 2025 14:58:47 GMT-0400 (Eastern Daylight Time),5490971.099999428,071_y_f_h_a.png,I,m,884,8,2,1907.3999996185303,5489063.699999809,9024,VNB,A,7
8,test,1,0.0,1-Back,1,m,Thu Sep 11 2025 14:58:47 GMT-0400 (Eastern Daylight Time),5492637.800000191,039_o_m_n_a.png,I,m,631,9,2,1651.8000001907349,5490986.0,9024,VNB,A,8
9,test,1,0.0,1-Back,1,m,Thu Sep 11 2025 14:58:47 GMT-0400 (Eastern Daylight Time),5494387.800000191,109_y_m_h_a.png,I,m,724,10,2,1737.8000001907349,5492650.0,9024,VNB,A,9
10,test,1,0.0,1-Back,1,m,Thu Sep 11 2025 14:58:47 GMT-0400 (Eastern Daylight Time),5496187.599999428,039_o_m_d_a.png,I,m,767,11,2,1790.1999998092651,5494397.3999996185,9024,VNB,A,10
11,test,1,1.0,1-Back,1,z,Thu Sep 11 2025 14:58:47 GMT-0400 (Eastern Daylight Time),5498304.300000191,124_o_f_d_a.png,I,z,1095,12,2,2102.1000003814697,5496202.199999809,9024,VNB,A,11
12,test,1,0.0,1-Back,1,m,Thu Sep 11 2025 14:58:47 GMT-0400 (Eastern Daylight Time),5500121.199999809,165_m_m_n_a.png,I,m,785,13,2,1804.8000001907349,5498316.3999996185,9024,VNB,A,12
13,test,1,1.0,1-Back,1,z,Thu Sep 11 2025 14:58:47 GMT-0400 (Eastern Daylight Time),5501820.8999996185,071_y_f_n_a.png,I,z,681,14,2,1688.1999998092651,5500132.699999809,9024,VNB,A,13
14,test,1,0.0,1-Back,1,m,Thu Sep 11 2025 14:58:47 GMT-0400 (Eastern Daylight Time),5503504.5,139_m_f_h_a.png,I,m,661,15,2,1671.8000001907349,5501832.699999809,9024,VNB,A,14
15,test,1,0.0,1-Back,1,m,Thu Sep 11 2025 14:58:47 GMT-0400 (Eastern Daylight Time),5505337.800000191,165_m_m_d_a.png,I,m,801,16,2,1824.4000005722046,5503513.3999996185,9024,VNB,A,15
16,test,1,0.0,1-Back,1,m,Thu Sep 11 2025 14:58:47 GMT-0400 (Eastern Daylight Time),5507071.099999428,109_y_m_n_a.png,I,m,713,17,2,1722.6999998092651,5505348.3999996185,9024,VNB,A,16
17,test,1,0.0,1-Back,1,m,Thu Sep 11 2025 14:58:47 GMT-0400 (Eastern Daylight Time),5509020.8999996185,124_o_f_h_a.png,I,m,931,18,2,1937.8999996185303,5507083.0,9024,VNB,A,17
0,test,2,0.0,1-Back,,,Thu Sep 11 2025 14:58:47 GMT-0400 (Eastern Daylight Time),5509020.8999996185,109_y_m_n_a.png,I,space,3597,1,2,1937.8999996185303,5507083.0,9024,VNB,A,0
1,test,2,0.0,1-Back,1,m,Thu Sep 11 2025 14:58:47 GMT-0400 (Eastern Daylight Time),5516471.199999809,071_y_f_h_a.png,I,m,804,2,2,1821.1000003814697,5514650.099999428,9024,VNB,A,1
2,test,2,1.0,1-Back,1,m,Thu Sep 11 2025 14:58:47 GMT-0400 (Eastern Daylight Time),5518121.800000191,039_o_m_n_a.png,I,m,619,3,2,1638.5,5516483.300000191,9024,VNB,A,2
2,test,2,0.0,1-Back,0,m,Thu Sep 11 2025 14:58:47 GMT-0400 (Eastern Daylight Time),5520387.800000191,139_m_f_d_a.png,I,z,1241,4,2,2259.9000005722046,5518127.8999996185,9024,VNB,A,3
3,test,2,0.0,1-Back,1,z,Thu Sep 11 2025 14:58:47 GMT-0400 (Eastern Daylight Time),5522304.5,165_m_m_d_a.png,I,z,894,5,2,1907.6000003814697,5520396.8999996185,9024,VNB,A,4
4,test,2,0.0,1-Back,1,m,Thu Sep 11 2025 14:58:47 GMT-0400 (Eastern Daylight Time),5524004.5,109_y_m_h_a.png,I,m,675,6,2,1690.9000005722046,5522313.599999428,9024,VNB,A,5
5,test,2,1.0,1-Back,1,z,Thu Sep 11 2025 14:58:47 GMT-0400 (Eastern Daylight Time),5525554.599999428,124_o_f_h_a.png,I,z,525,7,2,1537.0999994277954,5524017.5,9024,VNB,A,6
6,test,2,0.0,1-Back,1,m,Thu Sep 11 2025 14:58:47 GMT-0400 (Eastern Daylight Time),5527237.8999996185,139_m_f_n_a.png,I,m,655,8,2,1674.1999998092651,5525563.699999809,9024,VNB,A,7
6,test,2,0.0,1-Back,0,m,Thu Sep 11 2025 14:58:47 GMT-0400 (Eastern Daylight Time),5529271.199999809,071_y_f_d_a.png,I,z,1005,9,2,2024.1000003814697,5527247.099999428,9024,VNB,A,8
7,test,2,0.0,1-Back,1,m,Thu Sep 11 2025 14:58:47 GMT-0400 (Eastern Daylight Time),5530954.5,165_m_m_n_a.png,I,m,651,10,2,1670.4000005722046,5529284.099999428,9024,VNB,A,9
8,test,2,1.0,1-Back,1,m,Thu Sep 11 2025 14:58:47 GMT-0400 (Eastern Daylight Time),5532654.3999996185,139_m_f_h_a.png,I,m,679,11,2,1689.0999994277954,5530965.300000191,9024,VNB,A,10
9,test,2,0.0,1-Back,1,z,Thu Sep 11 2025 14:58:47 GMT-0400 (Eastern Daylight Time),5534504.5,039_o_m_h_a.png,I,z,820,12,2,1838.6999998092651,5532665.800000191,9024,VNB,A,11
10,test,2,0.0,1-Back,1,m,Thu Sep 11 2025 14:58:47 GMT-0400 (Eastern Daylight Time),5536154.599999428,109_y_m_d_a.png,I,m,617,13,2,1638.6999998092651,5534515.8999996185,9024,VNB,A,12
11,test,2,0.0,1-Back,1,m,Thu Sep 11 2025 14:58:47 GMT-0400 (Eastern Daylight Time),5538171.199999809,124_o_f_n_a.png,I,m,983,14,2,2005.6999998092651,5536165.5,9024,VNB,A,13
12,test,2,0.0,1-Back,1,z,Thu Sep 11 2025 14:58:47 GMT-0400 (Eastern Daylight Time),5540087.800000191,071_y_f_n_a.png,I,z,888,15,2,1908.4000005722046,5538179.3999996185,9024,VNB,A,14
13,test,2,1.0,1-Back,1,m,Thu Sep 11 2025 14:58:47 GMT-0400 (Eastern Daylight Time),5541787.800000191,165_m_m_h_a.png,I,m,651,16,2,1689.0,5540098.800000191,9024,VNB,A,15
14,test,2,0.0,1-Back,1,m,Thu Sep 11 2025 14:58:47 GMT-0400 (Eastern Daylight Time),5544004.3999996185,124_o_f_d_a.png,I,m,1190,17,2,2205.300000190735,5541799.099999428,9024,VNB,A,16
15,test,2,1.0,1-Back,1,z,Thu Sep 11 2025 14:58:47 GMT-0400 (Eastern Daylight Time),5545587.8999996185,039_o_m_d_a.png,I,z,558,18,2,1572.8999996185303,5544015.0,9024,VNB,A,17
0,test,3,1.0,1-Back,,,Thu Sep 11 2025 14:58:47 GMT-0400 (Eastern Daylight Time),5545587.8999996185,124_o_f_h_a.png,I,space,2774,1,2,1572.8999996185303,5544015.0,9024,VNB,A,0
1,test,3,0.0,1-Back,1,m,Thu Sep 11 2025 14:58:47 GMT-0400 (Eastern Daylight Time),5552471.0,139_m_f_d_a.png,I,m,987,2,2,2004.8000001907349,5550466.199999809,9024,VNB,A,1
2,test,3,1.0,1-Back,1,m,Thu Sep 11 2025 14:58:47 GMT-0400 (Eastern Daylight Time),5554254.3999996185,165_m_m_n_a.png,I,m,763,3,2,1771.3000001907349,5552483.099999428,9024,VNB,A,2
3,test,3,0.0,1-Back,1,z,Thu Sep 11 2025 14:58:47 GMT-0400 (Eastern Daylight Time),5556620.8999996185,124_o_f_n_a.png,I,z,1348,4,2,2355.5999994277954,5554265.300000191,9024,VNB,A,3
4,test,3,1.0,1-Back,1,m,Thu Sep 11 2025 14:58:47 GMT-0400 (Eastern Daylight Time),5558687.800000191,039_o_m_d_a.png,I,m,1045,5,2,2059.5,5556628.300000191,9024,VNB,A,4
5,test,3,0.0,1-Back,1,m,Thu Sep 11 2025 14:58:47 GMT-0400 (Eastern Daylight Time),5560388.0,071_y_f_h_a.png,I,m,674,6,2,1691.3000001907349,5558696.699999809,9024,VNB,A,5
6,test,3,0.0,1-Back,1,z,Thu Sep 11 2025 14:58:47 GMT-0400 (Eastern Daylight Time),5562520.8999996185,109_y_m_h_a.png,I,z,1103,7,2,2121.8999996185303,5560399.0,9024,VNB,A,6
7,test,3,0.0,1-Back,1,m,Thu Sep 11 2025 14:58:47 GMT-0400 (Eastern Daylight Time),5564254.5,139_m_f_n_a.png,I,m,713,8,2,1725.6000003814697,5562528.8999996185,9024,VNB,A,7
8,test,3,0.0,1-Back,1,m,Thu Sep 11 2025 14:58:47 GMT-0400 (Eastern Daylight Time),5566004.3999996185,071_y_f_d_a.png,I,m,723,9,2,1740.3999996185303,5564264.0,9024,VNB,A,8
9,test,3,1.0,1-Back,1,m,Thu Sep 11 2025 14:58:47 GMT-0400 (Eastern Daylight Time),5567687.8999996185,039_o_m_n_a.png,I,m,653,10,2,1672.5999994277954,5566015.300000191,9024,VNB,A,9
10,test,3,0.0,1-Back,1,m,Thu Sep 11 2025 14:58:47 GMT-0400 (Eastern Daylight Time),5569421.0,165_m_m_h_a.png,I,m,715,11,2,1722.5,5567698.5,9024,VNB,A,10
11,test,3,0.0,1-Back,1,z,Thu Sep 11 2025 14:58:47 GMT-0400 (Eastern Daylight Time),5571437.599999428,139_m_f_h_a.png,I,z,997,12,2,2005.2999992370605,5569432.300000191,9024,VNB,A,11
12,test,3,1.0,1-Back,1,m,Thu Sep 11 2025 14:58:47 GMT-0400 (Eastern Daylight Time),5573187.8999996185,124_o_f_d_a.png,I,m,725,13,2,1738.3000001907349,5571449.599999428,9024,VNB,A,12
13,test,3,0.0,1-Back,1,z,Thu Sep 11 2025 14:58:47 GMT-0400 (Eastern Daylight Time),5575037.599999428,165_m_m_d_a.png,I,z,830,14,2,1837.7999992370605,5573199.800000191,9024,VNB,A,13
14,test,3,0.0,1-Back,1,m,Thu Sep 11 2025 14:58:47 GMT-0400 (Eastern Daylight Time),5576704.300000191,109_y_m_n_a.png,I,m,645,15,2,1654.1000003814697,5575050.199999809,9024,VNB,A,14
15,test,3,1.0,1-Back,1,m,Thu Sep 11 2025 14:58:47 GMT-0400 (Eastern Daylight Time),5578521.199999809,039_o_m_h_a.png,I,m,785,16,2,1805.5,5576715.699999809,9024,VNB,A,15
15,test,3,0.0,1-Back,0,m,Thu Sep 11 2025 14:58:47 GMT-0400 (Eastern Daylight Time),5580571.099999428,109_y_m_d_a.png,I,z,1017,17,2,2037.1999998092651,5578533.8999996185,9024,VNB,A,16
16,test,3,1.0,1-Back,1,m,Thu Sep 11 2025 14:58:47 GMT-0400 (Eastern Daylight Time),5582271.199999809,071_y_f_n_a.png,I,m,664,18,2,1686.3999996185303,5580584.800000191,9024,VNB,A,17
0,test,4,1.0,1-Back,,,Thu Sep 11 2025 14:58:47 GMT-0400 (Eastern Daylight Time),5582271.199999809,165_m_m_d_a.png,I,space,1899,1,2,1686.3999996185303,5580584.800000191,9024,VNB,A,0
1,test,4,0.0,1-Back,1,z,Thu Sep 11 2025 14:58:47 GMT-0400 (Eastern Daylight Time),5588004.699999809,039_o_m_d_a.png,I,z,774,2,2,1787.6000003814697,5586217.099999428,9024,VNB,A,1
2,test,4,0.0,1-Back,1,m,Thu Sep 11 2025 14:58:47 GMT-0400 (Eastern Daylight Time),5589521.300000191,109_y_m_h_a.png,I,m,495,3,2,1506.2000007629395,5588015.099999428,9024,VNB,A,2
3,test,4,0.0,1-Back,1,m,Thu Sep 11 2025 14:58:47 GMT-0400 (Eastern Daylight Time),5592254.5,139_m_f_n_a.png,I,m,1713,4,2,2721.699999809265,5589532.800000191,9024,VNB,A,3
4,test,4,1.0,1-Back,1,m,Thu Sep 11 2025 14:58:47 GMT-0400 (Eastern Daylight Time),5594304.599999428,124_o_f_h_a.png,I,m,1028,5,2,2038.5999994277954,5592266.0,9024,VNB,A,4
5,test,4,0.0,1-Back,1,m,Thu Sep 11 2025 14:58:47 GMT-0400 (Eastern Daylight Time),5596671.199999809,165_m_m_n_a.png,I,m,1346,6,2,2357.800000190735,5594313.3999996185,9024,VNB,A,5
6,test,4,0.0,1-Back,1,m,Thu Sep 11 2025 14:58:47 GMT-0400 (Eastern Daylight Time),5598437.8999996185,109_y_m_d_a.png,I,m,722,7,2,1752.8000001907349,5596685.099999428,9024,VNB,A,6
7,test,4,1.0,1-Back,1,z,Thu Sep 11 2025 14:58:47 GMT-0400 (Eastern Daylight Time),5600188.199999809,071_y_f_d_a.png,I,z,733,8,2,1742.1999998092651,5598446.0,9024,VNB,A,7
8,test,4,0.0,1-Back,1,m,Thu Sep 11 2025 14:58:47 GMT-0400 (Eastern Daylight Time),5601871.199999809,139_m_f_h_a.png,I,m,664,9,2,1673.8000001907349,5600197.3999996185,9024,VNB,A,8
9,test,4,0.0,1-Back,1,z,Thu Sep 11 2025 14:58:47 GMT-0400 (Eastern Daylight Time),5603404.3999996185,039_o_m_h_a.png,I,z,516,10,2,1518.0,5601886.3999996185,9024,VNB,A,9
10,test,4,1.0,1-Back,1,m,Thu Sep 11 2025 14:58:47 GMT-0400 (Eastern Daylight Time),5605571.199999809,124_o_f_n_a.png,I,m,1142,11,2,2157.800000190735,5603413.3999996185,9024,VNB,A,10
11,test,4,0.0,1-Back,1,m,Thu Sep 11 2025 14:58:47 GMT-0400 (Eastern Daylight Time),5607937.8999996185,139_m_f_d_a.png,I,m,1343,12,2,2355.0,5605582.8999996185,9024,VNB,A,11
12,test,4,0.0,1-Back,1,m,Thu Sep 11 2025 14:58:47 GMT-0400 (Eastern Daylight Time),5610120.800000191,071_y_f_n_a.png,I,m,1152,13,2,2168.9000005722046,5607951.8999996185,9024,VNB,A,12
13,test,4,0.0,1-Back,1,m,Thu Sep 11 2025 14:58:47 GMT-0400 (Eastern Daylight Time),5611837.599999428,124_o_f_d_a.png,I,m,697,14,2,1711.7999992370605,5610125.800000191,9024,VNB,A,13
14,test,4,0.0,1-Back,1,m,Thu Sep 11 2025 14:58:47 GMT-0400 (Eastern Daylight Time),5613987.8999996185,071_y_f_h_a.png,I,m,1125,15,2,2140.699999809265,5611847.199999809,9024,VNB,A,14
15,test,4,1.0,1-Back,1,z,Thu Sep 11 2025 14:58:47 GMT-0400 (Eastern Daylight Time),5615803.8999996185,165_m_m_h_a.png,I,z,798,16,2,1801.5,5614002.3999996185,9024,VNB,A,15
16,test,4,0.0,1-Back,1,m,Thu Sep 11 2025 14:58:47 GMT-0400 (Eastern Daylight Time),5617521.199999809,039_o_m_n_a.png,I,m,693,17,2,1713.1000003814697,5615808.099999428,9024,VNB,A,16
17,test,4,1.0,1-Back,1,z,Thu Sep 11 2025 14:58:47 GMT-0400 (Eastern Daylight Time),5619271.300000191,109_y_m_n_a.png,I,z,721,18,2,1737.8000001907349,5617533.5,9024,VNB,A,17
0,test,5,1.0,1-Back,,,Thu Sep 11 2025 14:58:47 GMT-0400 (Eastern Daylight Time),5619271.300000191,039_o_m_n_a.png,I,space,1923,1,2,1737.8000001907349,5617533.5,9024,VNB,A,0
0,test,5,1.0,1-Back,0,m,Thu Sep 11 2025 14:58:47 GMT-0400 (Eastern Daylight Time),5626254.699999809,124_o_f_h_a.png,I,None,2016,2,2,3022.0,5623232.699999809,9024,VNB,A,1
1,test,5,0.0,1-Back,1,m,Thu Sep 11 2025 14:58:47 GMT-0400 (Eastern Daylight Time),5628021.300000191,109_y_m_d_a.png,I,m,741,3,2,1756.0,5626265.300000191,9024,VNB,A,2
1,test,5,0.0,1-Back,0,z,Thu Sep 11 2025 14:58:47 GMT-0400 (Eastern Daylight Time),5630270.8999996185,039_o_m_d_a.png,I,m,1229,4,2,2238.699999809265,5628032.199999809,9024,VNB,A,3
2,test,5,0.0,1-Back,1,m,Thu Sep 11 2025 14:58:47 GMT-0400 (Eastern Daylight Time),5632037.8999996185,139_m_f_h_a.png,I,m,740,5,2,1757.0,5630280.8999996185,9024,VNB,A,4
3,test,5,0.0,1-Back,1,m,Thu Sep 11 2025 14:58:47 GMT-0400 (Eastern Daylight Time),5634171.300000191,071_y_f_n_a.png,I,m,1100,6,2,2123.6000003814697,5632047.699999809,9024,VNB,A,5
4,test,5,1.0,1-Back,1,z,Thu Sep 11 2025 14:58:47 GMT-0400 (Eastern Daylight Time),5636021.300000191,124_o_f_n_a.png,I,z,824,7,2,1839.0,5634182.300000191,9024,VNB,A,6
5,test,5,0.0,1-Back,1,m,Thu Sep 11 2025 14:58:47 GMT-0400 (Eastern Daylight Time),5637854.5,139_m_f_d_a.png,I,m,812,8,2,1821.9000005722046,5636032.599999428,9024,VNB,A,7
6,test,5,0.0,1-Back,1,m,Thu Sep 11 2025 14:58:47 GMT-0400 (Eastern Daylight Time),5639620.599999428,109_y_m_h_a.png,I,m,739,9,2,1755.7999992370605,5637864.800000191,9024,VNB,A,8
6,test,5,0.0,1-Back,0,m,Thu Sep 11 2025 14:58:47 GMT-0400 (Eastern Daylight Time),5641537.8999996185,071_y_f_d_a.png,I,z,894,10,2,1913.0,5639624.8999996185,9024,VNB,A,9
7,test,5,0.0,1-Back,1,m,Thu Sep 11 2025 14:58:47 GMT-0400 (Eastern Daylight Time),5643121.300000191,165_m_m_n_a.png,I,m,560,11,2,1575.3000001907349,5641546.0,9024,VNB,A,10
7,test,5,1.0,1-Back,0,z,Thu Sep 11 2025 14:58:47 GMT-0400 (Eastern Daylight Time),5646154.699999809,139_m_f_n_a.png,I,None,2015,12,2,3023.8999996185303,5643130.800000191,9024,VNB,A,11
8,test,5,0.0,1-Back,1,m,Thu Sep 11 2025 14:58:47 GMT-0400 (Eastern Daylight Time),5648188.099999428,039_o_m_h_a.png,I,m,1017,13,2,2028.8999996185303,5646159.199999809,9024,VNB,A,12
9,test,5,0.0,1-Back,1,z,Thu Sep 11 2025 14:58:47 GMT-0400 (Eastern Daylight Time),5650021.199999809,165_m_m_h_a.png,I,z,807,14,2,1822.1000003814697,5648199.099999428,9024,VNB,A,13
10,test,5,1.0,1-Back,1,m,Thu Sep 11 2025 14:58:47 GMT-0400 (Eastern Daylight Time),5651754.5,124_o_f_d_a.png,I,m,701,15,2,1721.4000005722046,5650033.099999428,9024,VNB,A,14
11,test,5,0.0,1-Back,1,m,Thu Sep 11 2025 14:58:47 GMT-0400 (Eastern Daylight Time),5653471.199999809,109_y_m_n_a.png,I,m,697,16,2,1704.0,5651767.199999809,9024,VNB,A,15
12,test,5,0.0,1-Back,1,m,Thu Sep 11 2025 14:58:47 GMT-0400 (Eastern Daylight Time),5655304.599999428,071_y_f_h_a.png,I,m,804,17,2,1821.3999996185303,5653483.199999809,9024,VNB,A,16
13,test,5,0.0,1-Back,1,m,Thu Sep 11 2025 14:58:47 GMT-0400 (Eastern Daylight Time),5657587.8999996185,165_m_m_d_a.png,I,m,1258,18,2,2272.8999996185303,5655315.0,9024,VNB,A,17
0,prac,1,0.0,2-Back,,,Thu Sep 11 2025 14:58:47 GMT-0400 (Eastern Daylight Time),5657587.8999996185,139_m_f_n_a.png,I,space,19718,1,2,2272.8999996185303,5655315.0,9024,VNB,A,0
0,prac,1,0.0,2-Back,,,Thu Sep 11 2025 14:58:47 GMT-0400 (Eastern Daylight Time),5657587.8999996185,124_o_f_h_a.png,I,space,19718,2,2,2272.8999996185303,5655315.0,9024,VNB,A,0
1,prac,1,0.0,2-Back,1,m,Thu Sep 11 2025 14:58:47 GMT-0400 (Eastern Daylight Time),5917921.8999996185,039_o_m_d_a.png,I,m,1374,3,2,2191.300000190735,5915730.599999428,9024,VNB,A,1
2,prac,1,1.0,2-Back,1,z,Thu Sep 11 2025 14:58:47 GMT-0400 (Eastern Daylight Time),5919771.699999809,165_m_m_h_a.png,I,z,1015,4,2,1835.0,5917936.699999809,9024,VNB,A,2
3,prac,1,0.0,2-Back,1,m,Thu Sep 11 2025 14:58:47 GMT-0400 (Eastern Daylight Time),5922521.199999809,071_y_f_n_a.png,I,m,1909,5,2,2734.8999996185303,5919786.300000191,9024,VNB,A,3
4,prac,1,1.0,2-Back,1,z,Thu Sep 11 2025 14:58:47 GMT-0400 (Eastern Daylight Time),5924437.8999996185,039_o_m_h_a.png,I,z,1087,6,2,1906.8000001907349,5922531.099999428,9024,VNB,A,4
4,prac,1,1.0,2-Back,0,z,Thu Sep 11 2025 14:58:47 GMT-0400 (Eastern Daylight Time),5926238.199999809,109_y_m_n_a.png,I,m,959,7,2,1784.6999998092651,5924453.5,9024,VNB,A,5
4,prac,1,0.0,2-Back,0,m,Thu Sep 11 2025 14:58:47 GMT-0400 (Eastern Daylight Time),5928088.199999809,139_m_f_d_a.png,I,z,1014,8,2,1837.6999998092651,5926250.5,9024,VNB,A,6
5,prac,1,0.0,2-Back,1,m,Thu Sep 11 2025 14:58:47 GMT-0400 (Eastern Daylight Time),5929871.599999428,124_o_f_d_a.png,I,m,907,9,2,1768.6999998092651,5928102.8999996185,9024,VNB,A,7
6,prac,1,0.0,2-Back,1,m,Thu Sep 11 2025 14:58:47 GMT-0400 (Eastern Daylight Time),5931888.300000191,165_m_m_h_a.png,I,m,1231,10,2,2004.2000007629395,5929884.099999428,9024,VNB,A,8
6,prac,1,1.0,2-Back,0,z,Thu Sep 11 2025 14:58:47 GMT-0400 (Eastern Daylight Time),5933554.8999996185,071_y_f_d_a.png,I,m,838,11,2,1653.5,5931901.3999996185,9024,VNB,A,9
6,prac,1,0.0,2-Back,0,m,Thu Sep 11 2025 14:58:47 GMT-0400 (Eastern Daylight Time),5935354.800000191,039_o_m_n_a.png,I,z,980,12,2,1788.1000003814697,5933566.699999809,9024,VNB,A,10
0,prac,2,0.0,2-Back,,,Thu Sep 11 2025 14:58:47 GMT-0400 (Eastern Daylight Time),5935354.800000191,139_m_f_n_a.png,I,a,7558,1,2,1788.1000003814697,5933566.699999809,9024,VNB,A,0
0,prac,2,0.0,2-Back,,,Thu Sep 11 2025 14:58:47 GMT-0400 (Eastern Daylight Time),5935354.800000191,124_o_f_h_a.png,I,a,7558,2,2,1788.1000003814697,5933566.699999809,9024,VNB,A,0
0,prac,2,0.0,2-Back,0,m,Thu Sep 11 2025 14:58:47 GMT-0400 (Eastern Daylight Time),5950921.5,039_o_m_d_a.png,I,None,2005,3,2,2816.4000005722046,5948105.099999428,9024,VNB,A,1
1,prac,2,1.0,2-Back,1,z,Thu Sep 11 2025 14:58:47 GMT-0400 (Eastern Daylight Time),5953121.599999428,165_m_m_h_a.png,I,z,1410,4,2,2184.199999809265,5950937.3999996185,9024,VNB,A,2
2,prac,2,0.0,2-Back,1,m,Thu Sep 11 2025 14:58:47 GMT-0400 (Eastern Daylight Time),5954838.199999809,071_y_f_n_a.png,I,m,877,5,2,1698.3000001907349,5953139.8999996185,9024,VNB,A,3
3,prac,2,1.0,2-Back,1,z,Thu Sep 11 2025 14:58:47 GMT-0400 (Eastern Daylight Time),5956538.3999996185,039_o_m_h_a.png,I,z,862,6,2,1685.3000001907349,5954853.099999428,9024,VNB,A,4
3,prac,2,1.0,2-Back,0,z,Thu Sep 11 2025 14:58:47 GMT-0400 (Eastern Daylight Time),5958188.099999428,109_y_m_n_a.png,I,m,810,7,2,1629.5999994277954,5956558.5,9024,VNB,A,5
3,prac,2,0.0,2-Back,0,m,Thu Sep 11 2025 14:58:47 GMT-0400 (Eastern Daylight Time),5959821.5,139_m_f_d_a.png,I,z,803,8,2,1615.8000001907349,5958205.699999809,9024,VNB,A,6
3,prac,2,0.0,2-Back,0,m,Thu Sep 11 2025 14:58:47 GMT-0400 (Eastern Daylight Time),5962038.199999809,124_o_f_d_a.png,I,z,1326,9,2,2193.5,5959844.699999809,9024,VNB,A,7
4,prac,2,0.0,2-Back,1,m,Thu Sep 11 2025 14:58:47 GMT-0400 (Eastern Daylight Time),5963421.699999809,165_m_m_h_a.png,I,m,595,10,2,1365.0,5962056.699999809,9024,VNB,A,8
5,prac,2,1.0,2-Back,1,z,Thu Sep 11 2025 14:58:47 GMT-0400 (Eastern Daylight Time),5965138.300000191,071_y_f_d_a.png,I,z,882,11,2,1698.1000003814697,5963440.199999809,9024,VNB,A,9
5,prac,2,0.0,2-Back,0,m,Thu Sep 11 2025 14:58:47 GMT-0400 (Eastern Daylight Time),5966804.800000191,039_o_m_n_a.png,I,z,836,12,2,1653.4000005722046,5965151.3999996185,9024,VNB,A,10
0,test,1,0.0,2-Back,,,Thu Sep 11 2025 14:58:47 GMT-0400 (Eastern Daylight Time),5966804.800000191,109_y_m_h_a.png,I,space,23369,1,2,1653.4000005722046,5965151.3999996185,9024,VNB,A,0
0,test,1,0.0,2-Back,,,Thu Sep 11 2025 14:58:47 GMT-0400 (Eastern Daylight Time),5966804.800000191,124_o_f_n_a.png,I,space,23369,2,2,1653.4000005722046,5965151.3999996185,9024,VNB,A,0
1,test,1,0.0,2-Back,1,z,Thu Sep 11 2025 14:58:47 GMT-0400 (Eastern Daylight Time),6019338.3999996185,039_o_m_h_a.png,I,z,935,3,2,1955.0,6017383.3999996185,9024,VNB,A,1
2,test,1,0.0,2-Back,1,m,Thu Sep 11 2025 14:58:47 GMT-0400 (Eastern Daylight Time),6021454.800000191,139_m_f_d_a.png,I,m,1097,4,2,2105.300000190735,6019349.5,9024,VNB,A,2
2,test,1,1.0,2-Back,0,m,Thu Sep 11 2025 14:58:47 GMT-0400 (Eastern Daylight Time),6023371.300000191,109_y_m_n_a.png,I,z,884,5,2,1902.5,6021468.800000191,9024,VNB,A,3
2,test,1,0.0,2-Back,0,z,Thu Sep 11 2025 14:58:47 GMT-0400 (Eastern Daylight Time),6025371.3999996185,071_y_f_d_a.png,I,m,968,6,2,1989.5,6023381.8999996185,9024,VNB,A,4
2,test,1,0.0,2-Back,0,m,Thu Sep 11 2025 14:58:47 GMT-0400 (Eastern Daylight Time),6027371.5,165_m_m_h_a.png,I,z,951,7,2,1983.5,6025388.0,9024,VNB,A,5
3,test,1,1.0,2-Back,1,m,Thu Sep 11 2025 14:58:47 GMT-0400 (Eastern Daylight Time),6029321.599999428,071_y_f_n_a.png,I,m,918,8,2,1941.0999994277954,6027380.5,9024,VNB,A,6
4,test,1,0.0,2-Back,1,z,Thu Sep 11 2025 14:58:47 GMT-0400 (Eastern Daylight Time),6031271.300000191,124_o_f_h_a.png,I,z,922,9,2,1938.0,6029333.300000191,9024,VNB,A,7
5,test,1,0.0,2-Back,1,m,Thu Sep 11 2025 14:58:47 GMT-0400 (Eastern Daylight Time),6033038.099999428,039_o_m_d_a.png,I,m,748,10,2,1754.1999998092651,6031283.8999996185,9024,VNB,A,8
5,test,1,1.0,2-Back,0,m,Thu Sep 11 2025 14:58:47 GMT-0400 (Eastern Daylight Time),6034888.099999428,165_m_m_d_a.png,I,z,821,11,2,1839.5,6033048.599999428,9024,VNB,A,9
6,test,1,0.0,2-Back,1,m,Thu Sep 11 2025 14:58:47 GMT-0400 (Eastern Daylight Time),6036604.599999428,139_m_f_n_a.png,I,m,699,12,2,1704.0,6034900.599999428,9024,VNB,A,10
6,test,1,0.0,2-Back,0,m,Thu Sep 11 2025 14:58:47 GMT-0400 (Eastern Daylight Time),6038188.300000191,071_y_f_h_a.png,I,z,550,13,2,1568.1000003814697,6036620.199999809,9024,VNB,A,11
6,test,1,0.0,2-Back,0,z,Thu Sep 11 2025 14:58:47 GMT-0400 (Eastern Daylight Time),6039704.8999996185,165_m_m_n_a.png,I,m,487,14,2,1508.1999998092651,6038196.699999809,9024,VNB,A,12
6,test,1,0.0,2-Back,0,m,Thu Sep 11 2025 14:58:47 GMT-0400 (Eastern Daylight Time),6041454.800000191,109_y_m_d_a.png,I,z,730,15,2,1740.7000007629395,6039714.099999428,9024,VNB,A,13
7,test,1,1.0,2-Back,1,m,Thu Sep 11 2025 14:58:47 GMT-0400 (Eastern Daylight Time),6044337.8999996185,139_m_f_h_a.png,I,m,1860,16,2,2871.0,6041466.8999996185,9024,VNB,A,14
8,test,1,0.0,2-Back,1,z,Thu Sep 11 2025 14:58:47 GMT-0400 (Eastern Daylight Time),6046371.599999428,124_o_f_d_a.png,I,z,1009,17,2,2020.2999992370605,6044351.300000191,9024,VNB,A,15
9,test,1,0.0,2-Back,1,m,Thu Sep 11 2025 14:58:47 GMT-0400 (Eastern Daylight Time),6048604.699999809,039_o_m_n_a.png,I,m,1216,18,2,2224.800000190735,6046379.8999996185,9024,VNB,A,16
0,test,2,0.0,2-Back,,,Thu Sep 11 2025 14:58:47 GMT-0400 (Eastern Daylight Time),6048604.699999809,165_m_m_h_a.png,I,space,2430,1,2,2224.800000190735,6046379.8999996185,9024,VNB,A,0
0,test,2,0.0,2-Back,,,Thu Sep 11 2025 14:58:47 GMT-0400 (Eastern Daylight Time),6048604.699999809,071_y_f_n_a.png,I,space,2430,2,2,2224.800000190735,6046379.8999996185,9024,VNB,A,0
1,test,2,1.0,2-Back,1,z,Thu Sep 11 2025 14:58:47 GMT-0400 (Eastern Daylight Time),6057854.599999428,124_o_f_h_a.png,I,z,663,3,2,1672.0999994277954,6056182.5,9024,VNB,A,1
2,test,2,0.0,2-Back,1,m,Thu Sep 11 2025 14:58:47 GMT-0400 (Eastern Daylight Time),6060154.8999996185,039_o_m_d_a.png,I,m,1268,4,2,2289.699999809265,6057865.199999809,9024,VNB,A,2
2,test,2,0.0,2-Back,0,m,Thu Sep 11 2025 14:58:47 GMT-0400 (Eastern Daylight Time),6062254.800000191,139_m_f_d_a.png,I,z,1080,5,2,2089.2000007629395,6060165.599999428,9024,VNB,A,3
3,test,2,0.0,2-Back,1,m,Thu Sep 11 2025 14:58:47 GMT-0400 (Eastern Daylight Time),6064238.099999428,109_y_m_h_a.png,I,m,964,6,2,1970.5,6062267.599999428,9024,VNB,A,4
4,test,2,0.0,2-Back,1,m,Thu Sep 11 2025 14:58:47 GMT-0400 (Eastern Daylight Time),6066738.300000191,124_o_f_n_a.png,I,m,1476,7,2,2484.6000003814697,6064253.699999809,9024,VNB,A,5
5,test,2,1.0,2-Back,1,z,Thu Sep 11 2025 14:58:47 GMT-0400 (Eastern Daylight Time),6068321.5,039_o_m_h_a.png,I,z,561,8,2,1569.6000003814697,6066751.8999996185,9024,VNB,A,6
6,test,2,0.0,2-Back,1,m,Thu Sep 11 2025 14:58:47 GMT-0400 (Eastern Daylight Time),6070604.599999428,071_y_f_d_a.png,I,m,1266,9,2,2270.5999994277954,6068334.0,9024,VNB,A,7
7,test,2,0.0,2-Back,1,m,Thu Sep 11 2025 14:58:47 GMT-0400 (Eastern Daylight Time),6073471.5,109_y_m_d_a.png,I,m,1830,10,2,2851.4000005722046,6070620.099999428,9024,VNB,A,8
8,test,2,0.0,2-Back,1,m,Thu Sep 11 2025 14:58:47 GMT-0400 (Eastern Daylight Time),6075954.800000191,165_m_m_n_a.png,I,m,1459,11,2,2474.5,6073480.300000191,9024,VNB,A,9
9,test,2,0.0,2-Back,1,m,Thu Sep 11 2025 14:58:47 GMT-0400 (Eastern Daylight Time),6078504.800000191,139_m_f_h_a.png,I,m,1520,12,2,2538.1000003814697,6075966.699999809,9024,VNB,A,10
9,test,2,1.0,2-Back,0,z,Thu Sep 11 2025 14:58:47 GMT-0400 (Eastern Daylight Time),6080588.199999809,039_o_m_n_a.png,I,m,1050,13,2,2070.800000190735,6078517.3999996185,9024,VNB,A,11
9,test,2,0.0,2-Back,0,m,Thu Sep 11 2025 14:58:47 GMT-0400 (Eastern Daylight Time),6082571.599999428,124_o_f_d_a.png,I,z,951,14,2,1969.7999992370605,6080601.800000191,9024,VNB,A,12
9,test,2,0.0,2-Back,0,m,Thu Sep 11 2025 14:58:47 GMT-0400 (Eastern Daylight Time),6084604.8999996185,071_y_f_h_a.png,I,z,1016,15,2,2021.5,6082583.3999996185,9024,VNB,A,13
9,test,2,0.0,2-Back,0,z,Thu Sep 11 2025 14:58:47 GMT-0400 (Eastern Daylight Time),6086588.099999428,165_m_m_d_a.png,I,m,950,16,2,1972.5,6084615.599999428,9024,VNB,A,14
10,test,2,0.0,2-Back,1,m,Thu Sep 11 2025 14:58:47 GMT-0400 (Eastern Daylight Time),6088755.0,109_y_m_n_a.png,I,m,1144,17,2,2154.800000190735,6086600.199999809,9024,VNB,A,15
11,test,2,1.0,2-Back,1,m,Thu Sep 11 2025 14:58:47 GMT-0400 (Eastern Daylight Time),6091054.800000191,139_m_f_n_a.png,I,m,1279,18,2,2288.1000003814697,6088766.699999809,9024,VNB,A,16
0,test,3,1.0,2-Back,,,Thu Sep 11 2025 14:58:47 GMT-0400 (Eastern Daylight Time),6091054.800000191,039_o_m_n_a.png,I,space,2140,1,2,2288.1000003814697,6088766.699999809,9024,VNB,A,0
0,test,3,1.0,2-Back,,,Thu Sep 11 2025 14:58:47 GMT-0400 (Eastern Daylight Time),6091054.800000191,124_o_f_d_a.png,I,space,2140,2,2,2288.1000003814697,6088766.699999809,9024,VNB,A,0
0,test,3,0.0,2-Back,0,m,Thu Sep 11 2025 14:58:47 GMT-0400 (Eastern Daylight Time),6100704.8999996185,071_y_f_h_a.png,I,z,1312,3,2,2321.0,6098383.8999996185,9024,VNB,A,1
0,test,3,0.0,2-Back,0,z,Thu Sep 11 2025 14:58:47 GMT-0400 (Eastern Daylight Time),6102621.300000191,139_m_f_d_a.png,I,m,898,4,2,1904.9000005722046,6100716.3999996185,9024,VNB,A,2
1,test,3,1.0,2-Back,1,m,Thu Sep 11 2025 14:58:47 GMT-0400 (Eastern Daylight Time),6104671.599999428,109_y_m_n_a.png,I,m,1029,5,2,2037.5,6102634.099999428,9024,VNB,A,3
1,test,3,0.0,2-Back,0,m,Thu Sep 11 2025 14:58:47 GMT-0400 (Eastern Daylight Time),6106638.0,039_o_m_h_a.png,I,z,948,6,2,1957.0,6104681.0,9024,VNB,A,4
1,test,3,0.0,2-Back,0,z,Thu Sep 11 2025 14:58:47 GMT-0400 (Eastern Daylight Time),6108688.300000191,071_y_f_n_a.png,I,m,1029,7,2,2038.0,6106650.300000191,9024,VNB,A,5
1,test,3,1.0,2-Back,0,m,Thu Sep 11 2025 14:58:47 GMT-0400 (Eastern Daylight Time),6110438.300000191,165_m_m_d_a.png,I,z,723,8,2,1737.7000007629395,6108700.599999428,9024,VNB,A,6
2,test,3,0.0,2-Back,1,m,Thu Sep 11 2025 14:58:47 GMT-0400 (Eastern Daylight Time),6112138.300000191,109_y_m_d_a.png,I,m,669,9,2,1688.5,6110449.800000191,9024,VNB,A,7
2,test,3,0.0,2-Back,0,m,Thu Sep 11 2025 14:58:47 GMT-0400 (Eastern Daylight Time),6114254.300000191,124_o_f_h_a.png,I,z,1095,10,2,2106.800000190735,6112147.5,9024,VNB,A,8
3,test,3,1.0,2-Back,1,m,Thu Sep 11 2025 14:58:47 GMT-0400 (Eastern Daylight Time),6116105.0,139_m_f_n_a.png,I,m,820,11,2,1846.5,6114258.5,9024,VNB,A,9
4,test,3,1.0,2-Back,1,z,Thu Sep 11 2025 14:58:47 GMT-0400 (Eastern Daylight Time),6117837.8999996185,165_m_m_h_a.png,I,z,714,12,2,1721.8000001907349,6116116.099999428,9024,VNB,A,10
5,test,3,0.0,2-Back,1,m,Thu Sep 11 2025 14:58:47 GMT-0400 (Eastern Daylight Time),6119771.5,071_y_f_d_a.png,I,m,901,13,2,1921.9000005722046,6117849.599999428,9024,VNB,A,11
5,test,3,0.0,2-Back,0,m,Thu Sep 11 2025 14:58:47 GMT-0400 (Eastern Daylight Time),6122304.3999996185,124_o_f_n_a.png,I,z,1511,14,2,2520.699999809265,6119783.699999809,9024,VNB,A,12
5,test,3,0.0,2-Back,0,z,Thu Sep 11 2025 14:58:47 GMT-0400 (Eastern Daylight Time),6125188.300000191,039_o_m_d_a.png,I,m,1858,15,2,2878.1000003814697,6122310.199999809,9024,VNB,A,13
5,test,3,1.0,2-Back,0,m,Thu Sep 11 2025 14:58:47 GMT-0400 (Eastern Daylight Time),6126921.599999428,139_m_f_h_a.png,I,z,701,16,2,1720.5999994277954,6125201.0,9024,VNB,A,14
6,test,3,0.0,2-Back,1,m,Thu Sep 11 2025 14:58:47 GMT-0400 (Eastern Daylight Time),6129254.8999996185,165_m_m_n_a.png,I,m,1306,17,2,2320.800000190735,6126934.099999428,9024,VNB,A,15
7,test,3,0.0,2-Back,1,z,Thu Sep 11 2025 14:58:47 GMT-0400 (Eastern Daylight Time),6131571.599999428,109_y_m_h_a.png,I,z,1292,18,2,2307.3999996185303,6129264.199999809,9024,VNB,A,16
0,test,4,0.0,2-Back,,,Thu Sep 11 2025 14:58:47 GMT-0400 (Eastern Daylight Time),6131571.599999428,139_m_f_n_a.png,I,space,1831,1,2,2307.3999996185303,6129264.199999809,9024,VNB,A,0
0,test,4,0.0,2-Back,,,Thu Sep 11 2025 14:58:47 GMT-0400 (Eastern Daylight Time),6131571.599999428,039_o_m_n_a.png,I,space,1831,2,2,2307.3999996185303,6129264.199999809,9024,VNB,A,0
0,test,4,1.0,2-Back,0,m,Thu Sep 11 2025 14:58:47 GMT-0400 (Eastern Daylight Time),6140138.300000191,109_y_m_h_a.png,I,z,569,3,2,1586.4000005722046,6138551.8999996185,9024,VNB,A,1
1,test,4,1.0,2-Back,1,m,Thu Sep 11 2025 14:58:47 GMT-0400 (Eastern Daylight Time),6142355.599999428,124_o_f_d_a.png,I,m,1192,4,2,2207.2999992370605,6140148.300000191,9024,VNB,A,2
2,test,4,0.0,2-Back,1,z,Thu Sep 11 2025 14:58:47 GMT-0400 (Eastern Daylight Time),6144354.800000191,039_o_m_h_a.png,I,z,976,5,2,1993.4000005722046,6142361.3999996185,9024,VNB,A,3
3,test,4,0.0,2-Back,1,m,Thu Sep 11 2025 14:58:47 GMT-0400 (Eastern Daylight Time),6146321.5,165_m_m_n_a.png,I,m,944,6,2,1956.6999998092651,6144364.800000191,9024,VNB,A,4
3,test,4,0.0,2-Back,0,m,Thu Sep 11 2025 14:58:47 GMT-0400 (Eastern Daylight Time),6148188.599999428,139_m_f_d_a.png,I,z,850,7,2,1853.7999992370605,6146334.800000191,9024,VNB,A,5
3,test,4,0.0,2-Back,0,z,Thu Sep 11 2025 14:58:47 GMT-0400 (Eastern Daylight Time),6150071.599999428,071_y_f_n_a.png,I,m,855,8,2,1872.7999992370605,6148198.800000191,9024,VNB,A,6
3,test,4,1.0,2-Back,0,m,Thu Sep 11 2025 14:58:47 GMT-0400 (Eastern Daylight Time),6152155.0,124_o_f_h_a.png,I,z,1052,9,2,2070.199999809265,6150084.800000191,9024,VNB,A,7
3,test,4,0.0,2-Back,0,m,Thu Sep 11 2025 14:58:47 GMT-0400 (Eastern Daylight Time),6154221.300000191,165_m_m_h_a.png,I,z,1047,10,2,2054.300000190735,6152167.0,9024,VNB,A,8
3,test,4,0.0,2-Back,0,m,Thu Sep 11 2025 14:58:47 GMT-0400 (Eastern Daylight Time),6156254.699999809,071_y_f_d_a.png,I,z,1013,11,2,2021.3999996185303,6154233.300000191,9024,VNB,A,9
4,test,4,0.0,2-Back,1,m,Thu Sep 11 2025 14:58:47 GMT-0400 (Eastern Daylight Time),6158088.199999809,109_y_m_n_a.png,I,m,802,12,2,1825.0,6156263.199999809,9024,VNB,A,10
5,test,4,0.0,2-Back,1,z,Thu Sep 11 2025 14:58:47 GMT-0400 (Eastern Daylight Time),6160254.5,039_o_m_d_a.png,I,z,1146,13,2,2156.9000005722046,6158097.599999428,9024,VNB,A,11
5,test,4,1.0,2-Back,0,m,Thu Sep 11 2025 14:58:47 GMT-0400 (Eastern Daylight Time),6162337.800000191,139_m_f_h_a.png,I,z,1059,14,2,2072.4000005722046,6160265.3999996185,9024,VNB,A,12
5,test,4,1.0,2-Back,0,m,Thu Sep 11 2025 14:58:47 GMT-0400 (Eastern Daylight Time),6164321.699999809,071_y_f_h_a.png,I,z,959,15,2,1979.0,6162342.699999809,9024,VNB,A,13
6,test,4,0.0,2-Back,1,m,Thu Sep 11 2025 14:58:47 GMT-0400 (Eastern Daylight Time),6166121.300000191,124_o_f_n_a.png,I,m,769,16,2,1791.6000003814697,6164329.699999809,9024,VNB,A,14
6,test,4,0.0,2-Back,0,m,Thu Sep 11 2025 14:58:47 GMT-0400 (Eastern Daylight Time),6167988.3999996185,109_y_m_d_a.png,I,z,843,17,2,1862.8999996185303,6166125.5,9024,VNB,A,15
7,test,4,1.0,2-Back,1,m,Thu Sep 11 2025 14:58:47 GMT-0400 (Eastern Daylight Time),6169721.699999809,165_m_m_d_a.png,I,m,703,18,2,1724.3999996185303,6167997.300000191,9024,VNB,A,16
0,test,5,1.0,2-Back,,,Thu Sep 11 2025 14:58:47 GMT-0400 (Eastern Daylight Time),6169721.699999809,071_y_f_d_a.png,I,space,1809,1,2,1724.3999996185303,6167997.300000191,9024,VNB,A,0
0,test,5,1.0,2-Back,,,Thu Sep 11 2025 14:58:47 GMT-0400 (Eastern Daylight Time),6169721.699999809,124_o_f_h_a.png,I,space,1809,2,2,1724.3999996185303,6167997.300000191,9024,VNB,A,0
0,test,5,1.0,2-Back,0,z,Thu Sep 11 2025 14:58:47 GMT-0400 (Eastern Daylight Time),6179721.800000191,039_o_m_d_a.png,I,None,2017,3,2,3020.4000005722046,6176701.3999996185,9024,VNB,A,1
1,test,5,1.0,2-Back,1,m,Thu Sep 11 2025 14:58:47 GMT-0400 (Eastern Daylight Time),6181822.5,139_m_f_n_a.png,I,m,1081,4,2,2089.9000005722046,6179732.599999428,9024,VNB,A,2
1,test,5,0.0,2-Back,0,m,Thu Sep 11 2025 14:58:47 GMT-0400 (Eastern Daylight Time),6183704.8999996185,165_m_m_h_a.png,I,z,853,5,2,1869.3000001907349,6181835.599999428,9024,VNB,A,3
1,test,5,0.0,2-Back,0,z,Thu Sep 11 2025 14:58:47 GMT-0400 (Eastern Daylight Time),6185888.3999996185,071_y_f_n_a.png,I,m,1161,6,2,2175.199999809265,6183713.199999809,9024,VNB,A,4
1,test,5,0.0,2-Back,0,m,Thu Sep 11 2025 14:58:47 GMT-0400 (Eastern Daylight Time),6187788.300000191,124_o_f_d_a.png,I,z,867,7,2,1887.4000005722046,6185900.8999996185,9024,VNB,A,5
2,test,5,0.0,2-Back,1,m,Thu Sep 11 2025 14:58:47 GMT-0400 (Eastern Daylight Time),6189738.300000191,039_o_m_h_a.png,I,m,902,8,2,1936.2000007629395,6187802.099999428,9024,VNB,A,6
3,test,5,1.0,2-Back,1,z,Thu Sep 11 2025 14:58:47 GMT-0400 (Eastern Daylight Time),6191554.699999809,139_m_f_d_a.png,I,z,793,9,2,1803.1999998092651,6189751.5,9024,VNB,A,7
4,test,5,0.0,2-Back,1,m,Thu Sep 11 2025 14:58:47 GMT-0400 (Eastern Daylight Time),6193655.0,109_y_m_n_a.png,I,m,1072,10,2,2095.699999809265,6191559.300000191,9024,VNB,A,8
5,test,5,0.0,2-Back,1,m,Thu Sep 11 2025 14:58:47 GMT-0400 (Eastern Daylight Time),6195871.699999809,165_m_m_n_a.png,I,m,1196,11,2,2208.300000190735,6193663.3999996185,9024,VNB,A,9
5,test,5,0.0,2-Back,0,m,Thu Sep 11 2025 14:58:47 GMT-0400 (Eastern Daylight Time),6197638.300000191,071_y_f_h_a.png,I,z,740,12,2,1756.5,6195881.800000191,9024,VNB,A,10
6,test,5,0.0,2-Back,1,m,Thu Sep 11 2025 14:58:47 GMT-0400 (Eastern Daylight Time),6200188.300000191,109_y_m_d_a.png,I,m,1517,13,2,2542.2000007629395,6197646.099999428,9024,VNB,A,11
7,test,5,1.0,2-Back,1,z,Thu Sep 11 2025 14:58:47 GMT-0400 (Eastern Daylight Time),6202354.699999809,139_m_f_h_a.png,I,z,1141,14,2,2154.699999809265,6200200.0,9024,VNB,A,12
8,test,5,0.0,2-Back,1,m,Thu Sep 11 2025 14:58:47 GMT-0400 (Eastern Daylight Time),6204621.3999996185,039_o_m_n_a.png,I,m,1249,15,2,2261.800000190735,6202359.599999428,9024,VNB,A,13
8,test,5,0.0,2-Back,0,m,Thu Sep 11 2025 14:58:47 GMT-0400 (Eastern Daylight Time),6206321.699999809,165_m_m_d_a.png,I,z,678,16,2,1689.0,6204632.699999809,9024,VNB,A,14
8,test,5,0.0,2-Back,0,z,Thu Sep 11 2025 14:58:47 GMT-0400 (Eastern Daylight Time),6208071.800000191,124_o_f_n_a.png,I,m,721,17,2,1736.3000001907349,6206335.5,9024,VNB,A,15
8,test,5,1.0,2-Back,0,m,Thu Sep 11 2025 14:58:47 GMT-0400 (Eastern Daylight Time),6209788.099999428,109_y_m_h_a.png,I,z,684,18,2,1704.5,6208083.599999428,9024,VNB,A,16
