acc_sum,block,block_c,change,condition,correct,correct_response,datetime,endtime,face,project,response,response_time,row_sel,session_number,start_end,starttime,subject_id,task,task_vers,trial
0,prac,1,,1-Back,,,Tue Feb 03 2026 18:47:56 GMT-0600 (Central Standard Time),,005_o_f_d_a.png,I,space,3392,1,,,,8083,VNB,B,0
1,prac,1,0.0,1-Back,1.0,m,Tue Feb 03 2026 18:47:56 GMT-0600 (Central Standard Time),113660.20000000019,020_y_f_n_a.png,I,m,1528,2,,2408.5,111251.70000000019,8083,VNB,B,1
2,prac,1,0.0,1-Back,1.0,m,Tue Feb 03 2026 18:47:56 GMT-0600 (Central Standard Time),115645.70000000019,007_m_m_h_a.png,I,m,1144,3,,1982.2000000001863,113663.5,8083,VNB,B,2
3,prac,1,0.0,1-Back,1.0,m,Tue Feb 03 2026 18:47:56 GMT-0600 (Central Standard Time),117209.5,016_y_m_d_a.png,I,m,699,4,,1553.7999999998137,115655.70000000019,8083,VNB,B,3
4,prac,1,0.0,1-Back,1.0,m,Tue Feb 03 2026 18:47:56 GMT-0600 (Central Standard Time),119060.1000000001,005_o_f_n_a.png,I,m,997,5,,1846.3999999999069,117213.70000000019,8083,VNB,B,4
5,prac,1,1.0,1-Back,1.0,z,Tue Feb 03 2026 18:47:56 GMT-0600 (Central Standard Time),120859.5,016_y_m_n_a.png,I,z,931,6,,1789.1999999997206,119070.30000000028,8083,VNB,B,5
6,prac,1,0.0,1-Back,1.0,m,Tue Feb 03 2026 18:47:56 GMT-0600 (Central Standard Time),122508.30000000028,004_o_m_h_a.png,I,m,807,7,,1644.8999999999069,120863.40000000037,8083,VNB,B,6
7,prac,1,0.0,1-Back,1.0,m,Tue Feb 03 2026 18:47:56 GMT-0600 (Central Standard Time),124290.5,011_m_f_d_a.png,I,m,912,8,,1772.3999999999069,122518.1000000001,8083,VNB,B,7
7,prac,1,1.0,1-Back,0.0,z,Tue Feb 03 2026 18:47:56 GMT-0600 (Central Standard Time),126607.40000000037,020_y_f_d_a.png,I,m,1474,9,,2313.3000000002794,124294.1000000001,8083,VNB,B,8
7,prac,1,0.0,1-Back,0.0,m,Tue Feb 03 2026 18:47:56 GMT-0600 (Central Standard Time),128958.0,007_m_m_n_a.png,I,z,1481,10,,2339.5999999996275,126618.40000000037,8083,VNB,B,9
8,prac,1,0.0,1-Back,1.0,m,Tue Feb 03 2026 18:47:56 GMT-0600 (Central Standard Time),130872.0,005_o_f_h_a.png,I,m,1062,11,,1908.5,128963.5,8083,VNB,B,10
9,prac,1,0.0,1-Back,1.0,m,Tue Feb 03 2026 18:47:56 GMT-0600 (Central Standard Time),132756.7000000002,016_y_m_d_a.png,I,m,1033,12,,1875.3999999999069,130881.30000000028,8083,VNB,B,11
0,test,1,0.0,1-Back,,,Tue Feb 03 2026 18:47:56 GMT-0600 (Central Standard Time),132756.7000000002,020_y_f_d_a.png,I,space,11097,1,,1875.3999999999069,130881.30000000028,8083,VNB,B,0
1,test,1,0.0,1-Back,1.0,m,Tue Feb 03 2026 18:47:56 GMT-0600 (Central Standard Time),152231.6000000001,011_m_f_n_a.png,I,m,853,2,,1875.0,150356.6000000001,8083,VNB,B,1
2,test,1,0.0,1-Back,1.0,m,Tue Feb 03 2026 18:47:56 GMT-0600 (Central Standard Time),154180.1000000001,004_o_m_h_a.png,I,m,919,3,,1946.8999999999069,152233.2000000002,8083,VNB,B,2
3,test,1,1.0,1-Back,1.0,z,Tue Feb 03 2026 18:47:56 GMT-0600 (Central Standard Time),156230.2000000002,007_m_m_h_a.png,I,z,1025,4,,2044.3999999999069,154185.80000000028,8083,VNB,B,3
4,test,1,0.0,1-Back,1.0,m,Tue Feb 03 2026 18:47:56 GMT-0600 (Central Standard Time),157846.7000000002,005_o_f_n_a.png,I,m,597,5,,1614.7000000001863,156232.0,8083,VNB,B,4
5,test,1,0.0,1-Back,1.0,m,Tue Feb 03 2026 18:47:56 GMT-0600 (Central Standard Time),160128.80000000028,016_y_m_d_a.png,I,m,1251,6,,2275.100000000093,157853.7000000002,8083,VNB,B,5
6,test,1,1.0,1-Back,1.0,z,Tue Feb 03 2026 18:47:56 GMT-0600 (Central Standard Time),162178.30000000028,011_m_f_d_a.png,I,z,1029,7,,2046.8999999999069,160131.40000000037,8083,VNB,B,6
7,test,1,0.0,1-Back,1.0,m,Tue Feb 03 2026 18:47:56 GMT-0600 (Central Standard Time),163977.30000000028,020_y_f_h_a.png,I,m,780,8,,1790.1000000000931,162187.2000000002,8083,VNB,B,7
8,test,1,0.0,1-Back,1.0,m,Tue Feb 03 2026 18:47:56 GMT-0600 (Central Standard Time),165643.2000000002,004_o_m_n_a.png,I,m,637,9,,1660.1000000000931,163983.1000000001,8083,VNB,B,8
9,test,1,0.0,1-Back,1.0,m,Tue Feb 03 2026 18:47:56 GMT-0600 (Central Standard Time),167292.90000000037,016_y_m_h_a.png,I,m,620,10,,1641.2000000001863,165651.7000000002,8083,VNB,B,9
10,test,1,0.0,1-Back,1.0,m,Tue Feb 03 2026 18:47:56 GMT-0600 (Central Standard Time),168959.5,004_o_m_d_a.png,I,m,634,11,,1660.5,167299.0,8083,VNB,B,10
11,test,1,1.0,1-Back,1.0,z,Tue Feb 03 2026 18:47:56 GMT-0600 (Central Standard Time),170742.1000000001,005_o_f_d_a.png,I,z,752,12,,1774.0,168968.1000000001,8083,VNB,B,11
12,test,1,0.0,1-Back,1.0,m,Tue Feb 03 2026 18:47:56 GMT-0600 (Central Standard Time),172558.30000000028,007_m_m_n_a.png,I,m,791,13,,1811.1000000000931,170747.2000000002,8083,VNB,B,12
13,test,1,1.0,1-Back,1.0,z,Tue Feb 03 2026 18:47:56 GMT-0600 (Central Standard Time),174557.30000000028,020_y_f_n_a.png,I,z,968,14,,1989.7000000001863,172567.6000000001,8083,VNB,B,13
14,test,1,0.0,1-Back,1.0,m,Tue Feb 03 2026 18:47:56 GMT-0600 (Central Standard Time),176406.80000000028,011_m_f_h_a.png,I,m,825,15,,1845.6000000000931,174561.2000000002,8083,VNB,B,14
15,test,1,0.0,1-Back,1.0,m,Tue Feb 03 2026 18:47:56 GMT-0600 (Central Standard Time),178339.1000000001,007_m_m_d_a.png,I,m,910,16,,1925.6000000000931,176413.5,8083,VNB,B,15
15,test,1,0.0,1-Back,0.0,m,Tue Feb 03 2026 18:47:56 GMT-0600 (Central Standard Time),180488.40000000037,016_y_m_n_a.png,I,z,1131,17,,2146.0,178342.40000000037,8083,VNB,B,16
16,test,1,0.0,1-Back,1.0,m,Tue Feb 03 2026 18:47:56 GMT-0600 (Central Standard Time),182242.6000000001,005_o_f_h_a.png,I,m,721,18,,1749.6999999997206,180492.90000000037,8083,VNB,B,17
0,test,2,0.0,1-Back,,,Tue Feb 03 2026 18:47:56 GMT-0600 (Central Standard Time),182242.6000000001,016_y_m_n_a.png,I,space,1851,1,,1749.6999999997206,180492.90000000037,8083,VNB,B,0
1,test,2,0.0,1-Back,1.0,m,Tue Feb 03 2026 18:47:56 GMT-0600 (Central Standard Time),188053.40000000037,020_y_f_h_a.png,I,m,900,2,,1925.7000000001863,186127.7000000002,8083,VNB,B,1
2,test,2,1.0,1-Back,1.0,m,Tue Feb 03 2026 18:47:56 GMT-0600 (Central Standard Time),189802.40000000037,004_o_m_n_a.png,I,m,729,3,,1746.3000000002794,188056.1000000001,8083,VNB,B,2
2,test,2,0.0,1-Back,0.0,m,Tue Feb 03 2026 18:47:56 GMT-0600 (Central Standard Time),191803.2000000002,011_m_f_d_a.png,I,z,980,4,,1992.6000000000931,189810.6000000001,8083,VNB,B,3
2,test,2,0.0,1-Back,0.0,z,Tue Feb 03 2026 18:47:56 GMT-0600 (Central Standard Time),194068.40000000037,007_m_m_d_a.png,I,m,1235,5,,2261.100000000093,191807.30000000028,8083,VNB,B,4
3,test,2,0.0,1-Back,1.0,m,Tue Feb 03 2026 18:47:56 GMT-0600 (Central Standard Time),195850.5,016_y_m_h_a.png,I,m,760,6,,1774.7999999998137,194075.7000000002,8083,VNB,B,5
4,test,2,1.0,1-Back,1.0,z,Tue Feb 03 2026 18:47:56 GMT-0600 (Central Standard Time),197716.5,005_o_f_h_a.png,I,z,843,7,,1860.5999999996275,195855.90000000037,8083,VNB,B,6
5,test,2,0.0,1-Back,1.0,m,Tue Feb 03 2026 18:47:56 GMT-0600 (Central Standard Time),199418.40000000037,011_m_f_n_a.png,I,m,674,8,,1695.2000000001863,197723.2000000002,8083,VNB,B,7
5,test,2,0.0,1-Back,0.0,m,Tue Feb 03 2026 18:47:56 GMT-0600 (Central Standard Time),201514.7000000002,020_y_f_d_a.png,I,z,1070,9,,2093.600000000093,199421.1000000001,8083,VNB,B,8
6,test,2,0.0,1-Back,1.0,m,Tue Feb 03 2026 18:47:56 GMT-0600 (Central Standard Time),203683.40000000037,007_m_m_n_a.png,I,m,1138,10,,2162.4000000003725,201521.0,8083,VNB,B,9
7,test,2,1.0,1-Back,1.0,m,Tue Feb 03 2026 18:47:56 GMT-0600 (Central Standard Time),205564.30000000028,011_m_f_h_a.png,I,m,861,11,,1878.2000000001863,203686.1000000001,8083,VNB,B,10
8,test,2,0.0,1-Back,1.0,z,Tue Feb 03 2026 18:47:56 GMT-0600 (Central Standard Time),207513.80000000028,004_o_m_h_a.png,I,z,923,12,,1941.0,205572.80000000028,8083,VNB,B,11
9,test,2,0.0,1-Back,1.0,m,Tue Feb 03 2026 18:47:56 GMT-0600 (Central Standard Time),209246.7000000002,016_y_m_d_a.png,I,m,709,13,,1729.6000000000931,207517.1000000001,8083,VNB,B,12
10,test,2,0.0,1-Back,1.0,m,Tue Feb 03 2026 18:47:56 GMT-0600 (Central Standard Time),211212.30000000028,005_o_f_n_a.png,I,m,943,14,,1956.3999999999069,209255.90000000037,8083,VNB,B,13
11,test,2,0.0,1-Back,1.0,z,Tue Feb 03 2026 18:47:56 GMT-0600 (Central Standard Time),213112.2000000002,020_y_f_n_a.png,I,z,873,15,,1897.8999999999069,211214.30000000028,8083,VNB,B,14
12,test,2,1.0,1-Back,1.0,m,Tue Feb 03 2026 18:47:56 GMT-0600 (Central Standard Time),214845.2000000002,007_m_m_h_a.png,I,m,701,16,,1721.8999999999069,213123.30000000028,8083,VNB,B,15
13,test,2,0.0,1-Back,1.0,m,Tue Feb 03 2026 18:47:56 GMT-0600 (Central Standard Time),216643.90000000037,005_o_f_d_a.png,I,m,777,17,,1795.7000000001863,214848.2000000002,8083,VNB,B,16
13,test,2,1.0,1-Back,0.0,z,Tue Feb 03 2026 18:47:56 GMT-0600 (Central Standard Time),218793.2000000002,004_o_m_d_a.png,I,m,1121,18,,2143.2000000001863,216650.0,8083,VNB,B,17
0,test,3,1.0,1-Back,,,Tue Feb 03 2026 18:47:56 GMT-0600 (Central Standard Time),218793.2000000002,005_o_f_h_a.png,I,space,1204,1,,2143.2000000001863,216650.0,8083,VNB,B,0
1,test,3,0.0,1-Back,1.0,m,Tue Feb 03 2026 18:47:56 GMT-0600 (Central Standard Time),223842.90000000037,011_m_f_d_a.png,I,m,720,2,,1740.8000000002794,222102.1000000001,8083,VNB,B,1
2,test,3,1.0,1-Back,1.0,m,Tue Feb 03 2026 18:47:56 GMT-0600 (Central Standard Time),225857.6000000001,007_m_m_n_a.png,I,m,988,3,,2012.1999999997206,223845.40000000037,8083,VNB,B,2
3,test,3,0.0,1-Back,1.0,z,Tue Feb 03 2026 18:47:56 GMT-0600 (Central Standard Time),227591.0,005_o_f_n_a.png,I,z,700,4,,1728.5999999996275,225862.40000000037,8083,VNB,B,3
4,test,3,1.0,1-Back,1.0,m,Tue Feb 03 2026 18:47:56 GMT-0600 (Central Standard Time),229189.5,004_o_m_d_a.png,I,m,575,5,,1596.6999999997206,227592.80000000028,8083,VNB,B,4
5,test,3,0.0,1-Back,1.0,m,Tue Feb 03 2026 18:47:56 GMT-0600 (Central Standard Time),231040.1000000001,020_y_f_h_a.png,I,m,824,6,,1848.1000000000931,229192.0,8083,VNB,B,5
6,test,3,0.0,1-Back,1.0,z,Tue Feb 03 2026 18:47:56 GMT-0600 (Central Standard Time),232856.2000000002,016_y_m_h_a.png,I,z,783,7,,1813.7999999998137,231042.40000000037,8083,VNB,B,6
7,test,3,0.0,1-Back,1.0,m,Tue Feb 03 2026 18:47:56 GMT-0600 (Central Standard Time),234471.90000000037,011_m_f_n_a.png,I,m,590,8,,1608.8000000002794,232863.1000000001,8083,VNB,B,7
8,test,3,0.0,1-Back,1.0,m,Tue Feb 03 2026 18:47:56 GMT-0600 (Central Standard Time),236455.80000000028,020_y_f_d_a.png,I,m,967,9,,1982.0,234473.80000000028,8083,VNB,B,8
9,test,3,1.0,1-Back,1.0,m,Tue Feb 03 2026 18:47:56 GMT-0600 (Central Standard Time),238722.0,004_o_m_n_a.png,I,m,1239,10,,2259.399999999907,236462.6000000001,8083,VNB,B,9
10,test,3,0.0,1-Back,1.0,m,Tue Feb 03 2026 18:47:56 GMT-0600 (Central Standard Time),240569.40000000037,007_m_m_h_a.png,I,m,821,11,,1845.0,238724.40000000037,8083,VNB,B,10
11,test,3,0.0,1-Back,1.0,z,Tue Feb 03 2026 18:47:56 GMT-0600 (Central Standard Time),242236.90000000037,011_m_f_h_a.png,I,z,645,12,,1660.7000000001863,240576.2000000002,8083,VNB,B,11
12,test,3,1.0,1-Back,1.0,m,Tue Feb 03 2026 18:47:56 GMT-0600 (Central Standard Time),243967.90000000037,005_o_f_d_a.png,I,m,699,13,,1728.7000000001863,242239.2000000002,8083,VNB,B,12
13,test,3,0.0,1-Back,1.0,z,Tue Feb 03 2026 18:47:56 GMT-0600 (Central Standard Time),245952.80000000028,007_m_m_d_a.png,I,z,958,14,,1978.8000000002794,243974.0,8083,VNB,B,13
14,test,3,0.0,1-Back,1.0,m,Tue Feb 03 2026 18:47:56 GMT-0600 (Central Standard Time),247767.6000000001,016_y_m_n_a.png,I,m,785,15,,1812.6000000000931,245955.0,8083,VNB,B,14
15,test,3,1.0,1-Back,1.0,m,Tue Feb 03 2026 18:47:56 GMT-0600 (Central Standard Time),249684.30000000028,004_o_m_h_a.png,I,m,893,16,,1908.6000000000931,247775.7000000002,8083,VNB,B,15
16,test,3,0.0,1-Back,1.0,m,Tue Feb 03 2026 18:47:56 GMT-0600 (Central Standard Time),251600.6000000001,016_y_m_d_a.png,I,m,885,17,,1914.2999999998137,249686.30000000028,8083,VNB,B,16
16,test,3,1.0,1-Back,0.0,m,Tue Feb 03 2026 18:47:56 GMT-0600 (Central Standard Time),253382.40000000037,020_y_f_n_a.png,I,z,747,18,,1770.9000000003725,251611.5,8083,VNB,B,17
0,test,4,1.0,1-Back,,,Tue Feb 03 2026 18:47:56 GMT-0600 (Central Standard Time),253382.40000000037,007_m_m_d_a.png,I,space,1375,1,,1770.9000000003725,251611.5,8083,VNB,B,0
1,test,4,0.0,1-Back,1.0,z,Tue Feb 03 2026 18:47:56 GMT-0600 (Central Standard Time),259181.90000000037,004_o_m_d_a.png,I,z,1366,2,,2392.100000000093,256789.80000000028,8083,VNB,B,1
2,test,4,0.0,1-Back,1.0,m,Tue Feb 03 2026 18:47:56 GMT-0600 (Central Standard Time),260863.40000000037,016_y_m_h_a.png,I,m,656,3,,1678.9000000003725,259184.5,8083,VNB,B,2
3,test,4,0.0,1-Back,1.0,m,Tue Feb 03 2026 18:47:56 GMT-0600 (Central Standard Time),262611.7000000002,011_m_f_n_a.png,I,m,717,4,,1741.7000000001863,260870.0,8083,VNB,B,3
4,test,4,1.0,1-Back,1.0,m,Tue Feb 03 2026 18:47:56 GMT-0600 (Central Standard Time),264462.8000000003,005_o_f_h_a.png,I,m,825,5,,1849.0,262613.8000000003,8083,VNB,B,4
5,test,4,0.0,1-Back,1.0,m,Tue Feb 03 2026 18:47:56 GMT-0600 (Central Standard Time),266281.6000000001,007_m_m_n_a.png,I,m,799,6,,1811.1999999997206,264470.4000000004,8083,VNB,B,5
6,test,4,0.0,1-Back,1.0,m,Tue Feb 03 2026 18:47:56 GMT-0600 (Central Standard Time),268277.7000000002,016_y_m_d_a.png,I,m,968,7,,1993.1000000000931,266284.6000000001,8083,VNB,B,6
7,test,4,1.0,1-Back,1.0,z,Tue Feb 03 2026 18:47:56 GMT-0600 (Central Standard Time),270126.9000000004,020_y_f_d_a.png,I,z,825,8,,1842.4000000003725,268284.5,8083,VNB,B,7
8,test,4,0.0,1-Back,1.0,m,Tue Feb 03 2026 18:47:56 GMT-0600 (Central Standard Time),271895.3000000003,011_m_f_h_a.png,I,m,743,9,,1766.3999999999069,270128.9000000004,8083,VNB,B,8
9,test,4,0.0,1-Back,1.0,z,Tue Feb 03 2026 18:47:56 GMT-0600 (Central Standard Time),273809.1000000001,004_o_m_h_a.png,I,z,885,10,,1905.2999999998137,271903.8000000003,8083,VNB,B,9
10,test,4,1.0,1-Back,1.0,m,Tue Feb 03 2026 18:47:56 GMT-0600 (Central Standard Time),275525.5,005_o_f_n_a.png,I,m,685,11,,1713.2999999998137,273812.2000000002,8083,VNB,B,10
11,test,4,0.0,1-Back,1.0,m,Tue Feb 03 2026 18:47:56 GMT-0600 (Central Standard Time),277409.6000000001,011_m_f_d_a.png,I,m,857,12,,1877.1999999997206,275532.4000000004,8083,VNB,B,11
11,test,4,0.0,1-Back,0.0,m,Tue Feb 03 2026 18:47:56 GMT-0600 (Central Standard Time),279408.9000000004,020_y_f_n_a.png,I,z,985,13,,1996.1000000000931,277412.8000000003,8083,VNB,B,12
12,test,4,0.0,1-Back,1.0,m,Tue Feb 03 2026 18:47:56 GMT-0600 (Central Standard Time),281274.6000000001,005_o_f_d_a.png,I,m,838,14,,1859.8999999999069,279414.7000000002,8083,VNB,B,13
13,test,4,0.0,1-Back,1.0,m,Tue Feb 03 2026 18:47:56 GMT-0600 (Central Standard Time),283240.1000000001,020_y_f_h_a.png,I,m,940,15,,1961.3999999999069,281278.7000000002,8083,VNB,B,14
14,test,4,1.0,1-Back,1.0,z,Tue Feb 03 2026 18:47:56 GMT-0600 (Central Standard Time),284972.5,007_m_m_h_a.png,I,z,711,16,,1726.3999999999069,283246.1000000001,8083,VNB,B,15
15,test,4,0.0,1-Back,1.0,m,Tue Feb 03 2026 18:47:56 GMT-0600 (Central Standard Time),286688.1000000001,004_o_m_n_a.png,I,m,683,17,,1712.8999999999069,284975.2000000002,8083,VNB,B,16
16,test,4,1.0,1-Back,1.0,z,Tue Feb 03 2026 18:47:56 GMT-0600 (Central Standard Time),288671.4000000004,016_y_m_n_a.png,I,z,951,18,,1980.5,286690.9000000004,8083,VNB,B,17
0,test,5,1.0,1-Back,,,Tue Feb 03 2026 18:47:56 GMT-0600 (Central Standard Time),288671.4000000004,004_o_m_n_a.png,I,space,1303,1,,1980.5,286690.9000000004,8083,VNB,B,0
1,test,5,1.0,1-Back,1.0,m,Tue Feb 03 2026 18:47:56 GMT-0600 (Central Standard Time),293703.2000000002,005_o_f_h_a.png,I,m,676,2,,1690.3999999999069,292012.8000000003,8083,VNB,B,1
2,test,5,0.0,1-Back,1.0,m,Tue Feb 03 2026 18:47:56 GMT-0600 (Central Standard Time),295502.5,016_y_m_d_a.png,I,m,768,3,,1796.2999999998137,293706.2000000002,8083,VNB,B,2
3,test,5,0.0,1-Back,1.0,z,Tue Feb 03 2026 18:47:56 GMT-0600 (Central Standard Time),297518.1000000001,004_o_m_d_a.png,I,z,992,4,,2008.5,295509.6000000001,8083,VNB,B,3
4,test,5,0.0,1-Back,1.0,m,Tue Feb 03 2026 18:47:56 GMT-0600 (Central Standard Time),299234.7000000002,011_m_f_h_a.png,I,m,695,5,,1712.1000000000931,297522.6000000001,8083,VNB,B,4
5,test,5,0.0,1-Back,1.0,m,Tue Feb 03 2026 18:47:56 GMT-0600 (Central Standard Time),301216.6000000001,020_y_f_n_a.png,I,m,955,6,,1972.6000000000931,299244.0,8083,VNB,B,5
6,test,5,1.0,1-Back,1.0,z,Tue Feb 03 2026 18:47:56 GMT-0600 (Central Standard Time),303083.9000000004,005_o_f_n_a.png,I,z,837,7,,1863.6000000000931,301220.3000000003,8083,VNB,B,6
7,test,5,0.0,1-Back,1.0,m,Tue Feb 03 2026 18:47:56 GMT-0600 (Central Standard Time),304766.4000000004,011_m_f_d_a.png,I,m,660,8,,1671.2000000001863,303095.2000000002,8083,VNB,B,7
8,test,5,0.0,1-Back,1.0,m,Tue Feb 03 2026 18:47:56 GMT-0600 (Central Standard Time),306531.8000000003,016_y_m_h_a.png,I,m,735,9,,1762.2000000001863,304769.6000000001,8083,VNB,B,8
9,test,5,0.0,1-Back,1.0,m,Tue Feb 03 2026 18:47:56 GMT-0600 (Central Standard Time),308431.0,020_y_f_d_a.png,I,m,882,10,,1891.1999999997206,306539.8000000003,8083,VNB,B,9
9,test,5,0.0,1-Back,0.0,m,Tue Feb 03 2026 18:47:56 GMT-0600 (Central Standard Time),310364.1000000001,007_m_m_n_a.png,I,z,904,11,,1931.2999999998137,308432.8000000003,8083,VNB,B,10
9,test,5,1.0,1-Back,0.0,z,Tue Feb 03 2026 18:47:56 GMT-0600 (Central Standard Time),312415.2000000002,011_m_f_n_a.png,I,m,1018,12,,2039.8999999999069,310375.3000000003,8083,VNB,B,11
10,test,5,0.0,1-Back,1.0,m,Tue Feb 03 2026 18:47:56 GMT-0600 (Central Standard Time),314130.1000000001,004_o_m_h_a.png,I,m,700,13,,1711.7999999998137,312418.3000000003,8083,VNB,B,12
11,test,5,0.0,1-Back,1.0,z,Tue Feb 03 2026 18:47:56 GMT-0600 (Central Standard Time),315779.4000000004,007_m_m_h_a.png,I,z,628,14,,1641.4000000003725,314138.0,8083,VNB,B,13
12,test,5,1.0,1-Back,1.0,m,Tue Feb 03 2026 18:47:56 GMT-0600 (Central Standard Time),317461.6000000001,005_o_f_d_a.png,I,m,651,15,,1679.3999999999069,315782.2000000002,8083,VNB,B,14
12,test,5,0.0,1-Back,0.0,m,Tue Feb 03 2026 18:47:56 GMT-0600 (Central Standard Time),319494.2000000002,016_y_m_n_a.png,I,z,1007,16,,2022.6000000000931,317471.6000000001,8083,VNB,B,15
13,test,5,0.0,1-Back,1.0,m,Tue Feb 03 2026 18:47:56 GMT-0600 (Central Standard Time),321193.8000000003,020_y_f_h_a.png,I,m,670,17,,1697.3000000002794,319496.5,8083,VNB,B,16
14,test,5,0.0,1-Back,1.0,m,Tue Feb 03 2026 18:47:56 GMT-0600 (Central Standard Time),322843.0,007_m_m_d_a.png,I,m,629,18,,1639.5,321203.5,8083,VNB,B,17
0,prac,1,0.0,2-Back,,,Tue Feb 03 2026 18:47:56 GMT-0600 (Central Standard Time),322843.0,011_m_f_n_a.png,I,space,3308,1,,1639.5,321203.5,8083,VNB,B,0
0,prac,1,0.0,2-Back,,,Tue Feb 03 2026 18:47:56 GMT-0600 (Central Standard Time),322843.0,005_o_f_h_a.png,I,space,3308,2,,1639.5,321203.5,8083,VNB,B,0
1,prac,1,0.0,2-Back,1.0,m,Tue Feb 03 2026 18:47:56 GMT-0600 (Central Standard Time),420595.8000000003,004_o_m_d_a.png,I,m,1168,3,,2012.8999999999069,418582.9000000004,8083,VNB,B,1
2,prac,1,1.0,2-Back,1.0,z,Tue Feb 03 2026 18:47:56 GMT-0600 (Central Standard Time),423196.2000000002,007_m_m_h_a.png,I,z,1733,4,,2590.5,420605.7000000002,8083,VNB,B,2
3,prac,1,0.0,2-Back,1.0,m,Tue Feb 03 2026 18:47:56 GMT-0600 (Central Standard Time),425047.1000000001,020_y_f_n_a.png,I,m,1009,5,,1846.8999999999069,423200.2000000002,8083,VNB,B,3
3,prac,1,1.0,2-Back,0.0,z,Tue Feb 03 2026 18:47:56 GMT-0600 (Central Standard Time),427310.2000000002,004_o_m_h_a.png,I,m,1470,6,,2254.0,425056.2000000002,8083,VNB,B,4
3,prac,1,1.0,2-Back,0.0,z,Tue Feb 03 2026 18:47:56 GMT-0600 (Central Standard Time),429778.0,016_y_m_n_a.png,I,m,1599,7,,2461.5999999996275,427316.4000000004,8083,VNB,B,5
3,prac,1,0.0,2-Back,0.0,m,Tue Feb 03 2026 18:47:56 GMT-0600 (Central Standard Time),432625.8000000003,011_m_f_d_a.png,I,None,2009,8,,2838.899999999907,429786.9000000004,8083,VNB,B,6
3,prac,1,0.0,2-Back,0.0,m,Tue Feb 03 2026 18:47:56 GMT-0600 (Central Standard Time),435124.7000000002,005_o_f_d_a.png,I,z,1635,9,,2495.100000000093,432629.6000000001,8083,VNB,B,7
3,prac,1,0.0,2-Back,0.0,m,Tue Feb 03 2026 18:47:56 GMT-0600 (Central Standard Time),437258.0,007_m_m_h_a.png,I,z,1369,10,,2123.7999999998137,435134.2000000002,8083,VNB,B,8
4,prac,1,1.0,2-Back,1.0,z,Tue Feb 03 2026 18:47:56 GMT-0600 (Central Standard Time),439441.4000000004,020_y_f_d_a.png,I,z,1357,11,,2178.7000000001863,437262.7000000002,8083,VNB,B,9
5,prac,1,0.0,2-Back,1.0,m,Tue Feb 03 2026 18:47:56 GMT-0600 (Central Standard Time),441273.1000000001,004_o_m_n_a.png,I,m,989,12,,1822.3999999999069,439450.7000000002,8083,VNB,B,10
0,prac,2,0.0,2-Back,,,Tue Feb 03 2026 18:47:56 GMT-0600 (Central Standard Time),441273.1000000001,011_m_f_n_a.png,I,a,5185,1,,1822.3999999999069,439450.7000000002,8083,VNB,B,0
0,prac,2,0.0,2-Back,,,Tue Feb 03 2026 18:47:56 GMT-0600 (Central Standard Time),441273.1000000001,005_o_f_h_a.png,I,a,5185,2,,1822.3999999999069,439450.7000000002,8083,VNB,B,0
1,prac,2,0.0,2-Back,1.0,m,Tue Feb 03 2026 18:47:56 GMT-0600 (Central Standard Time),453669.0,004_o_m_d_a.png,I,m,1136,3,,1976.5,451692.5,8083,VNB,B,1
2,prac,2,1.0,2-Back,1.0,z,Tue Feb 03 2026 18:47:56 GMT-0600 (Central Standard Time),455802.3000000003,007_m_m_h_a.png,I,z,1346,4,,2125.7000000001863,453676.6000000001,8083,VNB,B,2
3,prac,2,0.0,2-Back,1.0,m,Tue Feb 03 2026 18:47:56 GMT-0600 (Central Standard Time),457583.8000000003,020_y_f_n_a.png,I,m,934,5,,1777.8999999999069,455805.9000000004,8083,VNB,B,3
3,prac,2,1.0,2-Back,0.0,z,Tue Feb 03 2026 18:47:56 GMT-0600 (Central Standard Time),459767.7000000002,004_o_m_h_a.png,I,m,1328,6,,2175.2000000001863,457592.5,8083,VNB,B,4
3,prac,2,1.0,2-Back,0.0,z,Tue Feb 03 2026 18:47:56 GMT-0600 (Central Standard Time),462017.3000000003,016_y_m_n_a.png,I,m,1384,7,,2245.899999999907,459771.4000000004,8083,VNB,B,5
3,prac,2,0.0,2-Back,0.0,m,Tue Feb 03 2026 18:47:56 GMT-0600 (Central Standard Time),464215.8000000003,011_m_f_d_a.png,I,z,1332,8,,2186.399999999907,462029.4000000004,8083,VNB,B,6
4,prac,2,0.0,2-Back,1.0,m,Tue Feb 03 2026 18:47:56 GMT-0600 (Central Standard Time),466031.3000000003,005_o_f_d_a.png,I,m,974,9,,1809.8000000002794,464221.5,8083,VNB,B,7
4,prac,2,0.0,2-Back,0.0,m,Tue Feb 03 2026 18:47:56 GMT-0600 (Central Standard Time),467998.6000000001,007_m_m_h_a.png,I,z,1201,10,,1961.0,466037.6000000001,8083,VNB,B,8
4,prac,2,1.0,2-Back,0.0,z,Tue Feb 03 2026 18:47:56 GMT-0600 (Central Standard Time),469996.6000000001,020_y_f_d_a.png,I,m,1140,11,,1993.5,468003.1000000001,8083,VNB,B,9
5,prac,2,0.0,2-Back,1.0,m,Tue Feb 03 2026 18:47:56 GMT-0600 (Central Standard Time),471814.6000000001,004_o_m_n_a.png,I,m,969,12,,1808.6999999997206,470005.9000000004,8083,VNB,B,10
0,test,1,0.0,2-Back,,,Tue Feb 03 2026 18:47:56 GMT-0600 (Central Standard Time),471814.6000000001,016_y_m_h_a.png,I,space,6002,1,,1808.6999999997206,470005.9000000004,8083,VNB,B,0
0,test,1,0.0,2-Back,,,Tue Feb 03 2026 18:47:56 GMT-0600 (Central Standard Time),471814.6000000001,005_o_f_n_a.png,I,space,6002,2,,1808.6999999997206,470005.9000000004,8083,VNB,B,0
1,test,1,0.0,2-Back,1.0,z,Tue Feb 03 2026 18:47:56 GMT-0600 (Central Standard Time),493572.8000000003,004_o_m_h_a.png,I,z,860,3,,1879.8999999999069,491692.9000000004,8083,VNB,B,1
2,test,1,0.0,2-Back,1.0,m,Tue Feb 03 2026 18:47:56 GMT-0600 (Central Standard Time),495588.6000000001,011_m_f_d_a.png,I,m,994,4,,2009.1000000000931,493579.5,8083,VNB,B,2
2,test,1,1.0,2-Back,0.0,m,Tue Feb 03 2026 18:47:56 GMT-0600 (Central Standard Time),497571.3000000003,016_y_m_n_a.png,I,z,952,5,,1980.3000000002794,495591.0,8083,VNB,B,3
2,test,1,0.0,2-Back,0.0,z,Tue Feb 03 2026 18:47:56 GMT-0600 (Central Standard Time),499440.9000000004,020_y_f_d_a.png,I,m,843,6,,1863.9000000003725,497577.0,8083,VNB,B,4
2,test,1,0.0,2-Back,0.0,m,Tue Feb 03 2026 18:47:56 GMT-0600 (Central Standard Time),501471.4000000004,007_m_m_h_a.png,I,z,1005,7,,2027.8000000002794,499443.6000000001,8083,VNB,B,5
2,test,1,1.0,2-Back,0.0,m,Tue Feb 03 2026 18:47:56 GMT-0600 (Central Standard Time),503536.7000000002,020_y_f_n_a.png,I,z,1038,8,,2057.100000000093,501479.6000000001,8083,VNB,B,6
3,test,1,0.0,2-Back,1.0,z,Tue Feb 03 2026 18:47:56 GMT-0600 (Central Standard Time),505968.0,005_o_f_h_a.png,I,z,1413,9,,2428.6999999997206,503539.3000000003,8083,VNB,B,7
4,test,1,0.0,2-Back,1.0,m,Tue Feb 03 2026 18:47:56 GMT-0600 (Central Standard Time),507784.8000000003,004_o_m_d_a.png,I,m,800,10,,1813.8999999999069,505970.9000000004,8083,VNB,B,8
5,test,1,1.0,2-Back,1.0,m,Tue Feb 03 2026 18:47:56 GMT-0600 (Central Standard Time),510267.4000000004,007_m_m_d_a.png,I,m,1462,11,,2480.4000000003725,507787.0,8083,VNB,B,9
5,test,1,0.0,2-Back,0.0,m,Tue Feb 03 2026 18:47:56 GMT-0600 (Central Standard Time),512649.2000000002,011_m_f_n_a.png,I,z,1356,12,,2378.100000000093,510271.1000000001,8083,VNB,B,10
6,test,1,0.0,2-Back,1.0,m,Tue Feb 03 2026 18:47:56 GMT-0600 (Central Standard Time),514848.9000000004,020_y_f_h_a.png,I,m,1171,13,,2196.9000000003725,512652.0,8083,VNB,B,11
7,test,1,0.0,2-Back,1.0,z,Tue Feb 03 2026 18:47:56 GMT-0600 (Central Standard Time),517131.5,007_m_m_n_a.png,I,z,1261,14,,2276.5999999996275,514854.9000000004,8083,VNB,B,12
8,test,1,0.0,2-Back,1.0,m,Tue Feb 03 2026 18:47:56 GMT-0600 (Central Standard Time),518964.8000000003,016_y_m_d_a.png,I,m,809,15,,1830.1000000000931,517134.7000000002,8083,VNB,B,13
8,test,1,1.0,2-Back,0.0,m,Tue Feb 03 2026 18:47:56 GMT-0600 (Central Standard Time),521363.2000000002,011_m_f_h_a.png,I,z,1367,16,,2391.7999999998137,518971.4000000004,8083,VNB,B,14
8,test,1,0.0,2-Back,0.0,z,Tue Feb 03 2026 18:47:56 GMT-0600 (Central Standard Time),523579.3000000003,005_o_f_d_a.png,I,m,1184,17,,2213.600000000093,521365.7000000002,8083,VNB,B,15
9,test,1,0.0,2-Back,1.0,m,Tue Feb 03 2026 18:47:56 GMT-0600 (Central Standard Time),526095.4000000004,004_o_m_n_a.png,I,m,1490,18,,2510.4000000003725,523585.0,8083,VNB,B,16
0,test,2,0.0,2-Back,,,Tue Feb 03 2026 18:47:56 GMT-0600 (Central Standard Time),526095.4000000004,007_m_m_h_a.png,I,space,1519,1,,2510.4000000003725,523585.0,8083,VNB,B,0
0,test,2,0.0,2-Back,,,Tue Feb 03 2026 18:47:56 GMT-0600 (Central Standard Time),526095.4000000004,020_y_f_n_a.png,I,space,1519,2,,2510.4000000003725,523585.0,8083,VNB,B,0
1,test,2,1.0,2-Back,1.0,z,Tue Feb 03 2026 18:47:56 GMT-0600 (Central Standard Time),534526.3000000003,005_o_f_h_a.png,I,z,667,3,,1697.7000000001863,532828.6000000001,8083,VNB,B,1
2,test,2,0.0,2-Back,1.0,m,Tue Feb 03 2026 18:47:56 GMT-0600 (Central Standard Time),536676.1000000001,004_o_m_d_a.png,I,m,1129,4,,2139.7999999998137,534536.3000000003,8083,VNB,B,2
2,test,2,0.0,2-Back,0.0,m,Tue Feb 03 2026 18:47:56 GMT-0600 (Central Standard Time),539358.2000000002,011_m_f_d_a.png,I,z,1659,5,,2676.7000000001863,536681.5,8083,VNB,B,3
3,test,2,0.0,2-Back,1.0,m,Tue Feb 03 2026 18:47:56 GMT-0600 (Central Standard Time),541423.8000000003,016_y_m_h_a.png,I,m,1040,6,,2058.8000000002794,539365.0,8083,VNB,B,4
3,test,2,0.0,2-Back,0.0,m,Tue Feb 03 2026 18:47:56 GMT-0600 (Central Standard Time),543539.8000000003,005_o_f_n_a.png,I,z,1093,7,,2110.8000000002794,541429.0,8083,VNB,B,5
4,test,2,1.0,2-Back,1.0,z,Tue Feb 03 2026 18:47:56 GMT-0600 (Central Standard Time),545456.1000000001,004_o_m_h_a.png,I,z,889,8,,1905.3999999999069,543550.7000000002,8083,VNB,B,6
5,test,2,0.0,2-Back,1.0,m,Tue Feb 03 2026 18:47:56 GMT-0600 (Central Standard Time),547322.3000000003,020_y_f_d_a.png,I,m,846,9,,1862.1000000000931,545460.2000000002,8083,VNB,B,7
6,test,2,0.0,2-Back,1.0,m,Tue Feb 03 2026 18:47:56 GMT-0600 (Central Standard Time),549772.3000000003,016_y_m_d_a.png,I,m,1420,10,,2444.5,547327.8000000003,8083,VNB,B,8
7,test,2,0.0,2-Back,1.0,m,Tue Feb 03 2026 18:47:56 GMT-0600 (Central Standard Time),552236.8000000003,007_m_m_n_a.png,I,m,1435,11,,2458.7000000001863,549778.1000000001,8083,VNB,B,9
7,test,2,0.0,2-Back,0.0,m,Tue Feb 03 2026 18:47:56 GMT-0600 (Central Standard Time),554586.9000000004,011_m_f_h_a.png,I,z,1328,12,,2341.600000000093,552245.3000000003,8083,VNB,B,10
7,test,2,1.0,2-Back,0.0,z,Tue Feb 03 2026 18:47:56 GMT-0600 (Central Standard Time),556753.0,004_o_m_n_a.png,I,m,1135,13,,2163.899999999907,554589.1000000001,8083,VNB,B,11
8,test,2,0.0,2-Back,1.0,m,Tue Feb 03 2026 18:47:56 GMT-0600 (Central Standard Time),559036.1000000001,005_o_f_d_a.png,I,m,1254,14,,2276.2999999998137,556759.8000000003,8083,VNB,B,12
8,test,2,0.0,2-Back,0.0,m,Tue Feb 03 2026 18:47:56 GMT-0600 (Central Standard Time),560901.0,020_y_f_h_a.png,I,z,844,15,,1861.5999999996275,559039.4000000004,8083,VNB,B,13
8,test,2,0.0,2-Back,0.0,z,Tue Feb 03 2026 18:47:56 GMT-0600 (Central Standard Time),563150.0,007_m_m_d_a.png,I,m,1224,16,,2241.0,560909.0,8083,VNB,B,14
9,test,2,0.0,2-Back,1.0,m,Tue Feb 03 2026 18:47:56 GMT-0600 (Central Standard Time),565417.0,016_y_m_n_a.png,I,m,1233,17,,2264.399999999907,563152.6000000001,8083,VNB,B,15
9,test,2,1.0,2-Back,0.0,m,Tue Feb 03 2026 18:47:56 GMT-0600 (Central Standard Time),567649.2000000002,011_m_f_n_a.png,I,z,1207,18,,2225.100000000093,565424.1000000001,8083,VNB,B,16
0,test,3,1.0,2-Back,,,Tue Feb 03 2026 18:47:56 GMT-0600 (Central Standard Time),567649.2000000002,004_o_m_n_a.png,I,space,1157,1,,2225.100000000093,565424.1000000001,8083,VNB,B,0
0,test,3,1.0,2-Back,,,Tue Feb 03 2026 18:47:56 GMT-0600 (Central Standard Time),567649.2000000002,005_o_f_d_a.png,I,space,1157,2,,2225.100000000093,565424.1000000001,8083,VNB,B,0
1,test,3,0.0,2-Back,1.0,m,Tue Feb 03 2026 18:47:56 GMT-0600 (Central Standard Time),575829.4000000004,020_y_f_h_a.png,I,m,941,3,,1961.2000000001863,573868.2000000002,8083,VNB,B,1
2,test,3,0.0,2-Back,1.0,z,Tue Feb 03 2026 18:47:56 GMT-0600 (Central Standard Time),577995.3000000003,011_m_f_d_a.png,I,z,1138,4,,2160.0,575835.3000000003,8083,VNB,B,2
3,test,3,1.0,2-Back,1.0,m,Tue Feb 03 2026 18:47:56 GMT-0600 (Central Standard Time),579894.7000000002,016_y_m_n_a.png,I,m,874,5,,1895.1000000000931,577999.6000000001,8083,VNB,B,3
3,test,3,0.0,2-Back,0.0,m,Tue Feb 03 2026 18:47:56 GMT-0600 (Central Standard Time),581695.8000000003,004_o_m_h_a.png,I,z,769,6,,1794.3000000002794,579901.5,8083,VNB,B,4
4,test,3,0.0,2-Back,1.0,z,Tue Feb 03 2026 18:47:56 GMT-0600 (Central Standard Time),583960.1000000001,020_y_f_n_a.png,I,z,1246,7,,2261.5,581698.6000000001,8083,VNB,B,5
5,test,3,1.0,2-Back,1.0,m,Tue Feb 03 2026 18:47:56 GMT-0600 (Central Standard Time),585927.3000000003,007_m_m_d_a.png,I,m,936,8,,1961.6000000000931,583965.7000000002,8083,VNB,B,6
6,test,3,0.0,2-Back,1.0,m,Tue Feb 03 2026 18:47:56 GMT-0600 (Central Standard Time),588676.0,016_y_m_d_a.png,I,m,1725,9,,2746.1999999997206,585929.8000000003,8083,VNB,B,7
7,test,3,0.0,2-Back,1.0,m,Tue Feb 03 2026 18:47:56 GMT-0600 (Central Standard Time),590858.9000000004,005_o_f_h_a.png,I,m,1162,10,,2175.600000000093,588683.3000000003,8083,VNB,B,8
8,test,3,1.0,2-Back,1.0,m,Tue Feb 03 2026 18:47:56 GMT-0600 (Central Standard Time),593040.1000000001,011_m_f_n_a.png,I,m,1156,11,,2178.5,590861.6000000001,8083,VNB,B,9
9,test,3,1.0,2-Back,1.0,z,Tue Feb 03 2026 18:47:56 GMT-0600 (Central Standard Time),595306.1000000001,007_m_m_h_a.png,I,z,1236,12,,2261.0,593045.1000000001,8083,VNB,B,10
10,test,3,0.0,2-Back,1.0,m,Tue Feb 03 2026 18:47:56 GMT-0600 (Central Standard Time),597705.9000000004,020_y_f_d_a.png,I,m,1379,13,,2397.2000000001863,595308.7000000002,8083,VNB,B,11
10,test,3,0.0,2-Back,0.0,m,Tue Feb 03 2026 18:47:56 GMT-0600 (Central Standard Time),600205.3000000003,005_o_f_n_a.png,I,z,1467,14,,2492.0,597713.3000000003,8083,VNB,B,12
10,test,3,0.0,2-Back,0.0,z,Tue Feb 03 2026 18:47:56 GMT-0600 (Central Standard Time),602937.7000000002,004_o_m_d_a.png,I,m,1713,15,,2730.7000000001863,600207.0,8083,VNB,B,13
11,test,3,1.0,2-Back,1.0,m,Tue Feb 03 2026 18:47:56 GMT-0600 (Central Standard Time),605337.0,011_m_f_h_a.png,I,m,1371,16,,2392.6999999997206,602944.3000000003,8083,VNB,B,14
11,test,3,0.0,2-Back,0.0,m,Tue Feb 03 2026 18:47:56 GMT-0600 (Central Standard Time),607305.3000000003,007_m_m_n_a.png,I,z,950,17,,1966.3999999999069,605338.9000000004,8083,VNB,B,15
11,test,3,0.0,2-Back,0.0,z,Tue Feb 03 2026 18:47:56 GMT-0600 (Central Standard Time),609435.5,016_y_m_h_a.png,I,m,1111,18,,2127.0,607308.5,8083,VNB,B,16
0,test,4,0.0,2-Back,,,Tue Feb 03 2026 18:47:56 GMT-0600 (Central Standard Time),609435.5,011_m_f_n_a.png,I,space,1194,1,,2127.0,607308.5,8083,VNB,B,0
0,test,4,0.0,2-Back,,,Tue Feb 03 2026 18:47:56 GMT-0600 (Central Standard Time),609435.5,004_o_m_n_a.png,I,space,1194,2,,2127.0,607308.5,8083,VNB,B,0
1,test,4,1.0,2-Back,1.0,m,Tue Feb 03 2026 18:47:56 GMT-0600 (Central Standard Time),618133.6000000001,016_y_m_h_a.png,I,m,1293,3,,2314.399999999907,615819.2000000002,8083,VNB,B,1
1,test,4,1.0,2-Back,0.0,m,Tue Feb 03 2026 18:47:56 GMT-0600 (Central Standard Time),620099.5,005_o_f_d_a.png,I,z,943,4,,1958.7999999998137,618140.7000000002,8083,VNB,B,2
2,test,4,0.0,2-Back,1.0,z,Tue Feb 03 2026 18:47:56 GMT-0600 (Central Standard Time),622098.0,004_o_m_h_a.png,I,z,977,5,,1996.2999999998137,620101.7000000002,8083,VNB,B,3
2,test,4,0.0,2-Back,0.0,m,Tue Feb 03 2026 18:47:56 GMT-0600 (Central Standard Time),624164.4000000004,007_m_m_n_a.png,I,z,1045,6,,2061.100000000093,622103.3000000003,8083,VNB,B,4
3,test,4,0.0,2-Back,1.0,m,Tue Feb 03 2026 18:47:56 GMT-0600 (Central Standard Time),626179.5,011_m_f_d_a.png,I,m,983,7,,2011.5,624168.0,8083,VNB,B,5
3,test,4,0.0,2-Back,0.0,z,Tue Feb 03 2026 18:47:56 GMT-0600 (Central Standard Time),628330.1000000001,020_y_f_n_a.png,I,m,1127,8,,2145.399999999907,626184.7000000002,8083,VNB,B,6
3,test,4,1.0,2-Back,0.0,m,Tue Feb 03 2026 18:47:56 GMT-0600 (Central Standard Time),630081.0,005_o_f_h_a.png,I,z,717,9,,1748.3999999999069,628332.6000000001,8083,VNB,B,7
4,test,4,0.0,2-Back,1.0,m,Tue Feb 03 2026 18:47:56 GMT-0600 (Central Standard Time),632096.1000000001,007_m_m_h_a.png,I,m,988,10,,2008.7999999998137,630087.3000000003,8083,VNB,B,8
5,test,4,0.0,2-Back,1.0,m,Tue Feb 03 2026 18:47:56 GMT-0600 (Central Standard Time),633860.7000000002,020_y_f_d_a.png,I,m,731,11,,1761.6000000000931,632099.1000000001,8083,VNB,B,9
5,test,4,0.0,2-Back,0.0,m,Tue Feb 03 2026 18:47:56 GMT-0600 (Central Standard Time),636028.4000000004,016_y_m_n_a.png,I,z,1144,12,,2161.100000000093,633867.3000000003,8083,VNB,B,10
6,test,4,0.0,2-Back,1.0,z,Tue Feb 03 2026 18:47:56 GMT-0600 (Central Standard Time),638111.5,004_o_m_d_a.png,I,z,1050,13,,2080.0999999996275,636031.4000000004,8083,VNB,B,11
7,test,4,1.0,2-Back,1.0,m,Tue Feb 03 2026 18:47:56 GMT-0600 (Central Standard Time),640275.5,011_m_f_h_a.png,I,m,1136,14,,2156.899999999907,638118.6000000001,8083,VNB,B,12
8,test,4,1.0,2-Back,1.0,m,Tue Feb 03 2026 18:47:56 GMT-0600 (Central Standard Time),642209.7000000002,020_y_f_h_a.png,I,m,928,15,,1931.7000000001863,640278.0,8083,VNB,B,13
9,test,4,0.0,2-Back,1.0,m,Tue Feb 03 2026 18:47:56 GMT-0600 (Central Standard Time),644241.5,005_o_f_n_a.png,I,m,1013,16,,2027.2999999998137,642214.2000000002,8083,VNB,B,14
10,test,4,0.0,2-Back,1.0,m,Tue Feb 03 2026 18:47:56 GMT-0600 (Central Standard Time),646140.5,016_y_m_d_a.png,I,m,868,17,,1894.0,644246.5,8083,VNB,B,15
10,test,4,1.0,2-Back,0.0,m,Tue Feb 03 2026 18:47:56 GMT-0600 (Central Standard Time),648240.3000000003,007_m_m_d_a.png,I,z,1068,18,,2092.5,646147.8000000003,8083,VNB,B,16
0,test,5,1.0,2-Back,,,Tue Feb 03 2026 18:47:56 GMT-0600 (Central Standard Time),648240.3000000003,020_y_f_d_a.png,I,space,2134,1,,2092.5,646147.8000000003,8083,VNB,B,0
0,test,5,1.0,2-Back,,,Tue Feb 03 2026 18:47:56 GMT-0600 (Central Standard Time),648240.3000000003,005_o_f_h_a.png,I,space,2134,2,,2092.5,646147.8000000003,8083,VNB,B,0
1,test,5,1.0,2-Back,1.0,z,Tue Feb 03 2026 18:47:56 GMT-0600 (Central Standard Time),657670.0,004_o_m_d_a.png,I,z,1076,3,,2095.7999999998137,655574.2000000002,8083,VNB,B,1
2,test,5,1.0,2-Back,1.0,m,Tue Feb 03 2026 18:47:56 GMT-0600 (Central Standard Time),659420.7000000002,011_m_f_n_a.png,I,m,728,4,,1743.0,657677.7000000002,8083,VNB,B,2
3,test,5,0.0,2-Back,1.0,m,Tue Feb 03 2026 18:47:56 GMT-0600 (Central Standard Time),661935.8000000003,007_m_m_h_a.png,I,m,1485,5,,2512.2000000001863,659423.6000000001,8083,VNB,B,3
4,test,5,0.0,2-Back,1.0,z,Tue Feb 03 2026 18:47:56 GMT-0600 (Central Standard Time),663867.9000000004,020_y_f_n_a.png,I,z,909,6,,1925.2000000001863,661942.7000000002,8083,VNB,B,4
5,test,5,0.0,2-Back,1.0,m,Tue Feb 03 2026 18:47:56 GMT-0600 (Central Standard Time),666185.0,005_o_f_d_a.png,I,m,1290,7,,2313.5999999996275,663871.4000000004,8083,VNB,B,5
6,test,5,0.0,2-Back,1.0,m,Tue Feb 03 2026 18:47:56 GMT-0600 (Central Standard Time),668133.5,004_o_m_h_a.png,I,m,927,8,,1941.7999999998137,666191.7000000002,8083,VNB,B,6
7,test,5,1.0,2-Back,1.0,z,Tue Feb 03 2026 18:47:56 GMT-0600 (Central Standard Time),670183.7000000002,011_m_f_d_a.png,I,z,1024,9,,2046.6000000000931,668137.1000000001,8083,VNB,B,7
8,test,5,0.0,2-Back,1.0,m,Tue Feb 03 2026 18:47:56 GMT-0600 (Central Standard Time),672465.6000000001,016_y_m_n_a.png,I,m,1248,10,,2274.100000000093,670191.5,8083,VNB,B,8
9,test,5,0.0,2-Back,1.0,m,Tue Feb 03 2026 18:47:56 GMT-0600 (Central Standard Time),674747.7000000002,007_m_m_n_a.png,I,m,1251,11,,2279.0,672468.7000000002,8083,VNB,B,9
10,test,5,0.0,2-Back,1.0,m,Tue Feb 03 2026 18:47:56 GMT-0600 (Central Standard Time),676964.6000000001,020_y_f_h_a.png,I,m,1186,12,,2210.0,674754.6000000001,8083,VNB,B,10
11,test,5,0.0,2-Back,1.0,m,Tue Feb 03 2026 18:47:56 GMT-0600 (Central Standard Time),679197.6000000001,016_y_m_d_a.png,I,m,1211,13,,2229.399999999907,676968.2000000002,8083,VNB,B,11
12,test,5,1.0,2-Back,1.0,z,Tue Feb 03 2026 18:47:56 GMT-0600 (Central Standard Time),681279.2000000002,011_m_f_h_a.png,I,z,1051,14,,2073.2000000001863,679206.0,8083,VNB,B,12
12,test,5,0.0,2-Back,0.0,m,Tue Feb 03 2026 18:47:56 GMT-0600 (Central Standard Time),683512.4000000004,004_o_m_n_a.png,I,z,1207,15,,2230.7000000001863,681281.7000000002,8083,VNB,B,13
13,test,5,0.0,2-Back,1.0,m,Tue Feb 03 2026 18:47:56 GMT-0600 (Central Standard Time),685394.8000000003,007_m_m_d_a.png,I,m,862,16,,1874.8999999999069,683519.9000000004,8083,VNB,B,14
14,test,5,0.0,2-Back,1.0,z,Tue Feb 03 2026 18:47:56 GMT-0600 (Central Standard Time),687961.5,005_o_f_n_a.png,I,z,1539,17,,2564.0,685397.5,8083,VNB,B,15
15,test,5,1.0,2-Back,1.0,m,Tue Feb 03 2026 18:47:56 GMT-0600 (Central Standard Time),690808.7000000002,016_y_m_h_a.png,I,m,1821,18,,2840.399999999907,687968.3000000003,8083,VNB,B,16
