Q,Q1,Q2,Q3,Q4,acc_sum,block,block_c,correct,correct_response,datetime,endtime,project,response,response_time,row_sel,session_number,squiggle1,squiggle1x,squiggle1y,squiggle2,squiggle2x,squiggle2y,squiggle3,squiggle3x,squiggle3y,squiggle4,squiggle4x,squiggle4y,start_end,starttime,subject_id,target_congruent,task,task_vers,testsquiggle,testsquigglex,testsquiggley,time_practice_delay,time_practice_fixation,time_practice_stimuli,time_practice_study,time_test_delay,time_test_fixation,time_test_stimuli,time_test_study,trial
1,1,0,0,0,0,prac,1,0,z,Tue Aug 26 2025 17:35:09 GMT-0500 (Central Daylight Time),101982.20000000298,I,m,1142,1,2,116.bmp,-120,-120,117.bmp,120,-120,118.bmp,-120,120,119.bmp,120,120,9960.70000000298,92021.5,8054,yes,SM,A,116.bmp,-120,-120,91080,85052,93097,87066,,,,,1
3,0,0,1,0,1,prac,1,1,m,Tue Aug 26 2025 17:35:09 GMT-0500 (Central Daylight Time),112578.89999999106,I,m,1770,2,2,120.bmp,-120,-120,121.bmp,120,-120,122.bmp,-120,120,123.bmp,120,120,10593.09999999404,101985.79999999702,8054,no,SM,A,123.bmp,-120,120,101044,95016,103060,97029,,,,,2
4,0,0,0,1,2,prac,1,1,m,Tue Aug 26 2025 17:35:09 GMT-0500 (Central Daylight Time),122592.39999999106,I,m,1190,3,2,124.bmp,-120,-120,125.bmp,120,-120,126.bmp,-120,120,127.bmp,120,120,10009.59999999404,112582.79999999702,8054,no,SM,A,124.bmp,120,120,111640,105613,113657,107625,,,,,3
2,0,1,0,0,3,prac,1,1,z,Tue Aug 26 2025 17:35:09 GMT-0500 (Central Daylight Time),132622.79999999702,I,z,1210,4,2,128.bmp,-120,-120,129.bmp,120,-120,130.bmp,-120,120,131.bmp,120,120,10026.90000000596,122595.89999999106,8054,yes,SM,A,129.bmp,120,-120,121654,115626,123670,117639,,,,,4
3,0,0,1,0,4,prac,1,1,z,Tue Aug 26 2025 17:35:09 GMT-0500 (Central Daylight Time),142503.0,I,z,1080,5,2,132.bmp,-120,-120,133.bmp,120,-120,134.bmp,-120,120,135.bmp,120,120,9876.70000000298,132626.29999999702,8054,yes,SM,A,134.bmp,-120,120,131684,125657,133700,127669,,,,,5
1,1,0,0,0,5,prac,1,1,m,Tue Aug 26 2025 17:35:09 GMT-0500 (Central Daylight Time),152833.09999999404,I,m,1514,6,2,136.bmp,-120,-120,137.bmp,120,-120,138.bmp,-120,120,139.bmp,120,120,10327.09999999404,142506.0,8054,no,SM,A,139.bmp,-120,-120,141565,135536,143581,137549,,,,,6
2,0,1,0,0,5,prac,1,0,m,Tue Aug 26 2025 17:35:09 GMT-0500 (Central Daylight Time),163063.20000000298,I,z,1408,7,2,140.bmp,-120,-120,141.bmp,120,-120,142.bmp,-120,120,143.bmp,120,120,10226.60000000894,152836.59999999404,8054,no,SM,A,140.bmp,120,-120,151894,145867,153911,147879,,,,,7
4,0,0,0,1,5,prac,1,0,z,Tue Aug 26 2025 17:35:09 GMT-0500 (Central Daylight Time),173892.79999999702,I,None,2015,8,2,144.bmp,-120,-120,145.bmp,120,-120,146.bmp,-120,120,147.bmp,120,120,10826.09999999404,163066.70000000298,8054,yes,SM,A,147.bmp,120,120,162125,156097,164141,158109,,,,,8
4,0,0,0,1,1,test,1,1,m,Tue Aug 26 2025 17:35:09 GMT-0500 (Central Daylight Time),192720.59999999404,I,m,1150,1,2,148.bmp,-120,-120,149.bmp,120,-120,150.bmp,-120,120,143.bmp,120,120,9211.39999999106,183509.20000000298,8054,no,SM,A,150.bmp,120,120,162125,156097,164141,158109,182568.0,176539.0,184584.0,178553.0,1
2,0,1,0,0,2,test,1,1,m,Tue Aug 26 2025 17:35:09 GMT-0500 (Central Daylight Time),201850.5,I,m,1080,2,2,101.bmp,-120,-120,102.bmp,120,-120,103.bmp,-120,120,104.bmp,120,120,9126.90000000596,192723.59999999404,8054,no,SM,A,103.bmp,120,-120,162125,156097,164141,158109,191782.0,185754.0,193798.0,187767.0,2
1,1,0,0,0,2,test,1,0,z,Tue Aug 26 2025 17:35:09 GMT-0500 (Central Daylight Time),211914.39999999106,I,None,2015,3,2,105.bmp,-120,-120,106.bmp,120,-120,107.bmp,-120,120,108.bmp,120,120,10060.79999999702,201853.59999999404,8054,yes,SM,A,105.bmp,-120,-120,162125,156097,164141,158109,200912.0,194884.0,202929.0,196897.0,3
3,0,0,1,0,3,test,1,1,m,Tue Aug 26 2025 17:35:09 GMT-0500 (Central Daylight Time),221311.5,I,m,1334,4,2,109.bmp,-120,-120,110.bmp,120,-120,111.bmp,-120,120,112.bmp,120,120,9393.29999999702,211918.20000000298,8054,no,SM,A,109.bmp,-120,120,162125,156097,164141,158109,210976.0,204948.0,212992.0,206961.0,4
2,0,1,0,0,4,test,1,1,z,Tue Aug 26 2025 17:35:09 GMT-0500 (Central Daylight Time),230675.20000000298,I,z,1306,5,2,113.bmp,-120,-120,114.bmp,120,-120,115.bmp,-120,120,116.bmp,120,120,9360.0,221315.20000000298,8054,yes,SM,A,114.bmp,120,-120,162125,156097,164141,158109,220373.0,214345.0,222389.0,216358.0,5
3,0,0,1,0,5,test,1,1,z,Tue Aug 26 2025 17:35:09 GMT-0500 (Central Daylight Time),239972.29999999702,I,z,1238,6,2,117.bmp,-120,-120,118.bmp,120,-120,119.bmp,-120,120,120.bmp,120,120,9293.29999999702,230679.0,8054,yes,SM,A,119.bmp,-120,120,162125,156097,164141,158109,229737.0,223709.0,231753.0,225722.0,6
4,0,0,0,1,6,test,1,1,z,Tue Aug 26 2025 17:35:09 GMT-0500 (Central Daylight Time),249336.0,I,z,1309,7,2,121.bmp,-120,-120,122.bmp,120,-120,123.bmp,-120,120,124.bmp,120,120,9360.0,239976.0,8054,yes,SM,A,124.bmp,120,120,162125,156097,164141,158109,239034.0,233006.0,241050.0,235018.0,7
2,0,1,0,0,6,test,1,0,m,Tue Aug 26 2025 17:35:09 GMT-0500 (Central Daylight Time),258183.29999999702,I,z,792,8,2,125.bmp,-120,-120,126.bmp,120,-120,127.bmp,-120,120,128.bmp,120,120,8844.20000000298,249339.09999999404,8054,no,SM,A,125.bmp,120,-120,162125,156097,164141,158109,248398.0,242369.0,250415.0,244382.0,8
3,0,0,1,0,7,test,1,1,m,Tue Aug 26 2025 17:35:09 GMT-0500 (Central Daylight Time),267197.09999999404,I,m,954,9,2,129.bmp,-120,-120,130.bmp,120,-120,131.bmp,-120,120,132.bmp,120,120,9010.79999999702,258186.29999999702,8054,no,SM,A,130.bmp,-120,120,162125,156097,164141,158109,257245.0,251217.0,259261.0,253229.0,9
4,0,0,0,1,8,test,1,1,z,Tue Aug 26 2025 17:35:09 GMT-0500 (Central Daylight Time),276610.59999999404,I,z,1364,10,2,137.bmp,-120,-120,138.bmp,120,-120,139.bmp,-120,120,140.bmp,120,120,9410.39999999106,267200.200000003,8054,yes,SM,A,140.bmp,120,120,162125,156097,164141,158109,266259.0,260230.0,268275.0,262243.0,10
3,0,0,1,0,8,test,1,0,z,Tue Aug 26 2025 17:35:09 GMT-0500 (Central Daylight Time),286674.5,I,None,2015,11,2,133.bmp,-120,-120,134.bmp,120,-120,135.bmp,-120,120,136.bmp,120,120,10060.40000000596,276614.09999999404,8054,yes,SM,A,135.bmp,-120,120,162125,156097,164141,158109,275672.0,269644.0,277689.0,271657.0,11
2,0,1,0,0,9,test,1,1,m,Tue Aug 26 2025 17:35:09 GMT-0500 (Central Daylight Time),296004.700000003,I,m,1271,12,2,141.bmp,-120,-120,142.bmp,120,-120,143.bmp,-120,120,144.bmp,120,120,9326.40000000596,286678.299999997,8054,no,SM,A,141.bmp,120,-120,162125,156097,164141,158109,285736.0,279709.0,287752.0,281721.0,12
3,0,0,1,0,10,test,1,1,m,Tue Aug 26 2025 17:35:09 GMT-0500 (Central Daylight Time),304902.09999999404,I,m,845,13,2,145.bmp,-120,-120,146.bmp,120,-120,147.bmp,-120,120,148.bmp,120,120,8893.70000000298,296008.39999999106,8054,no,SM,A,146.bmp,-120,120,162125,156097,164141,158109,295066.0,289039.0,297082.0,291051.0,13
1,1,0,0,0,11,test,1,1,z,Tue Aug 26 2025 17:35:09 GMT-0500 (Central Daylight Time),314532.09999999404,I,z,1579,14,2,149.bmp,-120,-120,150.bmp,120,-120,104.bmp,-120,120,101.bmp,120,120,9626.39999999106,304905.700000003,8054,yes,SM,A,149.bmp,-120,-120,162125,156097,164141,158109,303964.0,297936.0,305980.0,299948.0,14
4,0,0,0,1,11,test,1,0,m,Tue Aug 26 2025 17:35:09 GMT-0500 (Central Daylight Time),323879.39999999106,I,z,1293,15,2,110.bmp,-120,-120,111.bmp,120,-120,112.bmp,-120,120,113.bmp,120,120,9344.09999999404,314535.299999997,8054,no,SM,A,111.bmp,120,120,162125,156097,164141,158109,313594.0,307566.0,315610.0,309579.0,15
1,1,0,0,0,12,test,1,1,m,Tue Aug 26 2025 17:35:09 GMT-0500 (Central Daylight Time),332843.0,I,m,906,16,2,102.bmp,-120,-120,103.bmp,120,-120,104.bmp,-120,120,105.bmp,120,120,8960.29999999702,323882.700000003,8054,no,SM,A,105.bmp,-120,-120,162125,156097,164141,158109,322941.0,316913.0,324957.0,318926.0,16
3,0,0,1,0,13,test,1,1,m,Tue Aug 26 2025 17:35:09 GMT-0500 (Central Daylight Time),342823.299999997,I,m,1926,17,2,122.bmp,-120,-120,123.bmp,120,-120,124.bmp,-120,120,125.bmp,120,120,9977.0,332846.299999997,8054,no,SM,A,122.bmp,-120,120,162125,156097,164141,158109,331905.0,325877.0,333921.0,327889.0,17
1,1,0,0,0,14,test,1,1,z,Tue Aug 26 2025 17:35:09 GMT-0500 (Central Daylight Time),351953.5,I,z,1081,18,2,106.bmp,-120,-120,107.bmp,120,-120,108.bmp,-120,120,109.bmp,120,120,9127.0,342826.5,8054,yes,SM,A,106.bmp,-120,-120,162125,156097,164141,158109,341885.0,335857.0,343901.0,337870.0,18
2,0,1,0,0,14,test,1,0,z,Tue Aug 26 2025 17:35:09 GMT-0500 (Central Daylight Time),361433.700000003,I,m,1422,19,2,126.bmp,-120,-120,127.bmp,120,-120,128.bmp,-120,120,129.bmp,120,120,9477.300000011921,351956.39999999106,8054,yes,SM,A,127.bmp,120,-120,162125,156097,164141,158109,351015.0,344987.0,353032.0,347010.0,19
3,0,0,1,0,15,test,1,1,z,Tue Aug 26 2025 17:35:09 GMT-0500 (Central Daylight Time),370664.5,I,z,1175,20,2,130.bmp,-120,-120,131.bmp,120,-120,132.bmp,-120,120,133.bmp,120,120,9227.29999999702,361437.200000003,8054,yes,SM,A,132.bmp,-120,120,162125,156097,164141,158109,360495.0,354467.0,362511.0,356480.0,20
1,1,0,0,0,16,test,1,1,m,Tue Aug 26 2025 17:35:09 GMT-0500 (Central Daylight Time),379928.200000003,I,m,1201,21,2,114.bmp,-120,-120,115.bmp,120,-120,116.bmp,-120,120,117.bmp,120,120,9260.800000011921,370667.39999999106,8054,no,SM,A,116.bmp,-120,-120,162125,156097,164141,158109,369726.0,363698.0,371742.0,365711.0,21
4,0,0,0,1,17,test,1,1,z,Tue Aug 26 2025 17:35:09 GMT-0500 (Central Daylight Time),388892.299999997,I,z,905,22,2,118.bmp,-120,-120,119.bmp,120,-120,120.bmp,-120,120,121.bmp,120,120,8960.79999999702,379931.5,8054,yes,SM,A,121.bmp,120,120,162125,156097,164141,158109,378990.0,372962.0,381006.0,374975.0,22
1,1,0,0,0,18,test,1,1,m,Tue Aug 26 2025 17:35:09 GMT-0500 (Central Daylight Time),398122.5,I,m,1181,23,2,134.bmp,-120,-120,135.bmp,120,-120,136.bmp,-120,120,137.bmp,120,120,9227.0,388895.5,8054,no,SM,A,137.bmp,-120,-120,162125,156097,164141,158109,387954.0,381926.0,389970.0,383939.0,23
2,0,1,0,0,19,test,1,1,z,Tue Aug 26 2025 17:35:09 GMT-0500 (Central Daylight Time),407353.200000003,I,z,1174,24,2,142.bmp,-120,-120,143.bmp,120,-120,144.bmp,-120,120,145.bmp,120,120,9226.0,398127.200000003,8054,yes,SM,A,143.bmp,120,-120,162125,156097,164141,158109,397184.0,391157.0,399200.0,393169.0,24
4,0,0,0,1,20,test,1,1,m,Tue Aug 26 2025 17:35:09 GMT-0500 (Central Daylight Time),416366.799999997,I,m,961,25,2,146.bmp,-120,-120,147.bmp,120,-120,148.bmp,-120,120,149.bmp,120,120,9009.79999999702,407357.0,8054,no,SM,A,148.bmp,120,120,162125,156097,164141,158109,406414.0,400387.0,408430.0,402399.0,25
1,1,0,0,0,21,test,1,1,z,Tue Aug 26 2025 17:35:09 GMT-0500 (Central Daylight Time),425830.59999999404,I,z,1410,26,2,138.bmp,-120,-120,139.bmp,120,-120,140.bmp,-120,120,141.bmp,120,120,9460.39999999106,416370.200000003,8054,yes,SM,A,138.bmp,-120,-120,162125,156097,164141,158109,415428.0,409400.0,417445.0,411413.0,26
4,0,0,0,1,22,test,1,1,z,Tue Aug 26 2025 17:35:09 GMT-0500 (Central Daylight Time),435044.39999999106,I,z,1155,27,2,150.bmp,-120,-120,111.bmp,120,-120,101.bmp,-120,120,102.bmp,120,120,9210.29999999702,425834.09999999404,8054,yes,SM,A,102.bmp,120,120,162125,156097,164141,158109,424892.0,418865.0,426908.0,420877.0,27
3,0,0,1,0,22,test,1,0,m,Tue Aug 26 2025 17:35:09 GMT-0500 (Central Daylight Time),444141.700000003,I,z,1036,28,2,103.bmp,-120,-120,104.bmp,120,-120,105.bmp,-120,120,106.bmp,120,120,9094.20000000298,435047.5,8054,no,SM,A,103.bmp,-120,120,162125,156097,164141,158109,434106.0,428078.0,436122.0,430091.0,28
2,0,1,0,0,23,test,1,1,z,Tue Aug 26 2025 17:35:09 GMT-0500 (Central Daylight Time),453338.299999997,I,z,1149,29,2,107.bmp,-120,-120,108.bmp,120,-120,109.bmp,-120,120,110.bmp,120,120,9193.20000000298,444145.09999999404,8054,yes,SM,A,108.bmp,120,-120,162125,156097,164141,158109,443203.0,437175.0,445219.0,439188.0,29
3,0,0,1,0,23,test,1,0,z,Tue Aug 26 2025 17:35:09 GMT-0500 (Central Daylight Time),463403.200000003,I,None,2016,30,2,111.bmp,-120,-120,112.bmp,120,-120,113.bmp,-120,120,114.bmp,120,120,10061.300000011921,453341.89999999106,8054,yes,SM,A,113.bmp,-120,120,162125,156097,164141,158109,452400.0,446372.0,454417.0,448385.0,30
1,1,0,0,0,24,test,1,1,z,Tue Aug 26 2025 17:35:09 GMT-0500 (Central Daylight Time),472499.09999999404,I,z,1047,31,2,115.bmp,-120,-120,116.bmp,120,-120,117.bmp,-120,120,118.bmp,120,120,9092.79999999702,463406.299999997,8054,yes,SM,A,115.bmp,-120,-120,162125,156097,164141,158109,462464.0,456437.0,464480.0,458449.0,31
2,0,1,0,0,25,test,1,1,m,Tue Aug 26 2025 17:35:09 GMT-0500 (Central Daylight Time),481396.5,I,m,838,32,2,119.bmp,-120,-120,120.bmp,120,-120,121.bmp,-120,120,122.bmp,120,120,8894.40000000596,472502.09999999404,8054,no,SM,A,119.bmp,120,-120,162125,156097,164141,158109,471561.0,465532.0,473577.0,467546.0,32
4,0,0,0,1,26,test,1,1,z,Tue Aug 26 2025 17:35:09 GMT-0500 (Central Daylight Time),490527.200000003,I,z,1077,33,2,131.bmp,-120,-120,132.bmp,120,-120,133.bmp,-120,120,134.bmp,120,120,9127.70000000298,481399.5,8054,yes,SM,A,134.bmp,120,120,162125,156097,164141,158109,480458.0,474430.0,482474.0,476443.0,33
2,0,1,0,0,27,test,1,1,z,Tue Aug 26 2025 17:35:09 GMT-0500 (Central Daylight Time),499607.5,I,z,1026,34,2,123.bmp,-120,-120,124.bmp,120,-120,125.bmp,-120,120,126.bmp,120,120,9077.60000000894,490529.89999999106,8054,yes,SM,A,124.bmp,120,-120,162125,156097,164141,158109,489589.0,483560.0,491605.0,485573.0,34
4,0,0,0,1,28,test,1,1,m,Tue Aug 26 2025 17:35:09 GMT-0500 (Central Daylight Time),508704.799999997,I,m,1049,35,2,127.bmp,-120,-120,128.bmp,120,-120,129.bmp,-120,120,130.bmp,120,120,9093.90000000596,499610.89999999106,8054,no,SM,A,129.bmp,120,120,162125,156097,164141,158109,498669.0,492641.0,500686.0,494654.0,35
3,0,0,1,0,28,test,1,0,m,Tue Aug 26 2025 17:35:09 GMT-0500 (Central Daylight Time),517768.39999999106,I,z,1008,36,2,135.bmp,-120,-120,136.bmp,120,-120,137.bmp,-120,120,138.bmp,120,120,9060.199999988079,508708.200000003,8054,no,SM,A,135.bmp,-120,120,162125,156097,164141,158109,507766.0,501738.0,509783.0,503751.0,36
1,1,0,0,0,29,test,1,1,m,Tue Aug 26 2025 17:35:09 GMT-0500 (Central Daylight Time),526715.299999997,I,m,897,37,2,139.bmp,-120,-120,140.bmp,120,-120,141.bmp,-120,120,142.bmp,120,120,8943.40000000596,517771.89999999106,8054,no,SM,A,140.bmp,-120,-120,162125,156097,164141,158109,516830.0,510802.0,518846.0,512815.0,37
2,0,1,0,0,30,test,1,1,m,Tue Aug 26 2025 17:35:09 GMT-0500 (Central Daylight Time),536079.700000003,I,m,1310,38,2,143.bmp,-120,-120,144.bmp,120,-120,145.bmp,-120,120,146.bmp,120,120,9361.5,526718.200000003,8054,no,SM,A,145.bmp,120,-120,162125,156097,164141,158109,525777.0,519748.0,527793.0,521762.0,38
4,0,0,0,1,30,test,1,0,z,Tue Aug 26 2025 17:35:09 GMT-0500 (Central Daylight Time),545426.599999994,I,m,1290,39,2,147.bmp,-120,-120,148.bmp,120,-120,149.bmp,-120,120,150.bmp,120,120,9343.89999999106,536082.700000003,8054,yes,SM,A,150.bmp,120,120,162125,156097,164141,158109,535141.0,529113.0,537157.0,531126.0,39
3,0,0,1,0,31,test,1,1,m,Tue Aug 26 2025 17:35:09 GMT-0500 (Central Daylight Time),554323.799999997,I,m,847,40,2,104.bmp,-120,-120,105.bmp,120,-120,106.bmp,-120,120,107.bmp,120,120,8894.0,545429.799999997,8054,no,SM,A,105.bmp,-120,120,162125,156097,164141,158109,544488.0,538460.0,546504.0,540473.0,40
1,1,0,0,0,32,test,1,1,z,Tue Aug 26 2025 17:35:09 GMT-0500 (Central Daylight Time),563453.8999999911,I,z,1069,41,2,108.bmp,-120,-120,109.bmp,120,-120,110.bmp,-120,120,111.bmp,120,120,9127.39999999106,554326.5,8054,yes,SM,A,108.bmp,-120,-120,162125,156097,164141,158109,553385.0,547357.0,555401.0,549370.0,41
4,0,0,0,1,33,test,1,1,z,Tue Aug 26 2025 17:35:09 GMT-0500 (Central Daylight Time),572801.099999994,I,z,1291,42,2,112.bmp,-120,-120,113.bmp,120,-120,114.bmp,-120,120,115.bmp,120,120,9344.20000000298,563456.8999999911,8054,yes,SM,A,115.bmp,120,120,162125,156097,164141,158109,562516.0,556487.0,564532.0,558501.0,42
1,1,0,0,0,34,test,1,1,z,Tue Aug 26 2025 17:35:09 GMT-0500 (Central Daylight Time),581898.099999994,I,z,1048,43,2,116.bmp,-120,-120,117.bmp,120,-120,118.bmp,-120,120,119.bmp,120,120,9094.39999999106,572803.700000003,8054,yes,SM,A,116.bmp,-120,-120,162125,156097,164141,158109,571863.0,565834.0,573879.0,567848.0,43
4,0,0,0,1,35,test,1,1,m,Tue Aug 26 2025 17:35:09 GMT-0500 (Central Daylight Time),590745.700000003,I,m,783,44,2,104.bmp,-120,-120,101.bmp,120,-120,102.bmp,-120,120,103.bmp,120,120,8844.90000000596,581900.799999997,8054,no,SM,A,104.bmp,120,120,162125,156097,164141,158109,580960.0,574931.0,582976.0,576945.0,44
1,1,0,0,0,36,test,1,1,m,Tue Aug 26 2025 17:35:09 GMT-0500 (Central Daylight Time),599792.5,I,m,991,45,2,128.bmp,-120,-120,129.bmp,120,-120,130.bmp,-120,120,131.bmp,120,120,9043.90000000596,590748.599999994,8054,no,SM,A,131.bmp,-120,-120,162125,156097,164141,158109,589807.0,583779.0,591823.0,585792.0,45
1,1,0,0,0,37,test,1,1,m,Tue Aug 26 2025 17:35:09 GMT-0500 (Central Daylight Time),608890.799999997,I,m,1049,46,2,120.bmp,-120,-120,121.bmp,120,-120,122.bmp,-120,120,123.bmp,120,120,9095.59999999404,599795.200000003,8054,no,SM,A,121.bmp,-120,-120,162125,156097,164141,158109,598854.0,592825.0,600870.0,594839.0,46
3,0,0,1,0,38,test,1,1,z,Tue Aug 26 2025 17:35:09 GMT-0500 (Central Daylight Time),618087.099999994,I,z,1136,47,2,124.bmp,-120,-120,125.bmp,120,-120,126.bmp,-120,120,127.bmp,120,120,9193.29999999702,608893.799999997,8054,yes,SM,A,126.bmp,-120,120,162125,156097,164141,158109,607951.0,601924.0,609967.0,603936.0,47
3,0,0,1,0,39,test,1,1,z,Tue Aug 26 2025 17:35:09 GMT-0500 (Central Daylight Time),627400.599999994,I,z,1258,48,2,140.bmp,-120,-120,141.bmp,120,-120,142.bmp,-120,120,143.bmp,120,120,9310.39999999106,618090.200000003,8054,yes,SM,A,142.bmp,-120,120,162125,156097,164141,158109,617148.0,611120.0,619165.0,613133.0,48
2,0,1,0,0,40,test,1,1,z,Tue Aug 26 2025 17:35:09 GMT-0500 (Central Daylight Time),636497.700000003,I,z,1040,49,2,136.bmp,-120,-120,137.bmp,120,-120,138.bmp,-120,120,139.bmp,120,120,9093.40000000596,627404.299999997,8054,yes,SM,A,137.bmp,120,-120,162125,156097,164141,158109,626462.0,620435.0,628478.0,622447.0,49
3,0,0,1,0,41,test,1,1,m,Tue Aug 26 2025 17:35:09 GMT-0500 (Central Daylight Time),646094.799999997,I,m,1535,50,2,132.bmp,-120,-120,133.bmp,120,-120,134.bmp,-120,120,135.bmp,120,120,9594.09999999404,636500.700000003,8054,no,SM,A,132.bmp,-120,120,162125,156097,164141,158109,635559.0,629531.0,637576.0,631544.0,50
2,0,1,0,0,41,test,1,0,z,Tue Aug 26 2025 17:35:09 GMT-0500 (Central Daylight Time),655658.299999997,I,m,1514,51,2,144.bmp,-120,-120,145.bmp,120,-120,146.bmp,-120,120,147.bmp,120,120,9560.5,646097.799999997,8054,yes,SM,A,145.bmp,120,-120,162125,156097,164141,158109,645156.0,639128.0,647173.0,641141.0,51
4,0,0,0,1,42,test,1,1,m,Tue Aug 26 2025 17:35:09 GMT-0500 (Central Daylight Time),664738.700000003,I,m,1032,52,2,148.bmp,-120,-120,149.bmp,120,-120,150.bmp,-120,120,131.bmp,120,120,9077.60000000894,655661.099999994,8054,no,SM,A,148.bmp,120,120,162125,156097,164141,158109,654720.0,648691.0,656736.0,650705.0,52
3,0,0,1,0,43,test,1,1,z,Tue Aug 26 2025 17:35:09 GMT-0500 (Central Daylight Time),673785.8999999911,I,z,998,53,2,101.bmp,-120,-120,102.bmp,120,-120,103.bmp,-120,120,104.bmp,120,120,9044.09999999404,664741.799999997,8054,yes,SM,A,103.bmp,-120,120,162125,156097,164141,158109,663802.0,657772.0,665817.0,659785.0,53
1,1,0,0,0,44,test,1,1,m,Tue Aug 26 2025 17:35:09 GMT-0500 (Central Daylight Time),683499.799999997,I,m,1655,54,2,105.bmp,-120,-120,106.bmp,120,-120,107.bmp,-120,120,108.bmp,120,120,9710.90000000596,673788.8999999911,8054,no,SM,A,107.bmp,-120,-120,162125,156097,164141,158109,672848.0,666819.0,674864.0,668832.0,54
4,0,0,0,1,44,test,1,0,z,Tue Aug 26 2025 17:35:09 GMT-0500 (Central Daylight Time),692864.5,I,m,1316,55,2,109.bmp,-120,-120,110.bmp,120,-120,111.bmp,-120,120,112.bmp,120,120,9361.29999999702,683503.200000003,8054,yes,SM,A,112.bmp,120,120,162125,156097,164141,158109,682561.0,676533.0,684578.0,678546.0,55
2,0,1,0,0,45,test,1,1,m,Tue Aug 26 2025 17:35:09 GMT-0500 (Central Daylight Time),702027.3999999911,I,m,1114,56,2,113.bmp,-120,-120,114.bmp,120,-120,115.bmp,-120,120,116.bmp,120,120,9159.79999999702,692867.599999994,8054,no,SM,A,113.bmp,120,-120,162125,156097,164141,158109,691925.0,685898.0,693941.0,687910.0,56
4,0,0,0,1,45,test,1,0,m,Tue Aug 26 2025 17:35:09 GMT-0500 (Central Daylight Time),711457.5,I,z,1382,57,2,117.bmp,-120,-120,118.bmp,120,-120,119.bmp,-120,120,120.bmp,120,120,9427.0,702030.5,8054,no,SM,A,118.bmp,120,120,162125,156097,164141,158109,701089.0,695061.0,703105.0,697074.0,57
3,0,0,1,0,46,test,1,1,z,Tue Aug 26 2025 17:35:09 GMT-0500 (Central Daylight Time),721321.200000003,I,z,1815,58,2,121.bmp,-120,-120,122.bmp,120,-120,123.bmp,-120,120,124.bmp,120,120,9861.0,711460.200000003,8054,yes,SM,A,123.bmp,-120,120,162125,156097,164141,158109,710519.0,704490.0,712520.0,706504.0,58
2,0,1,0,0,46,test,1,0,m,Tue Aug 26 2025 17:35:09 GMT-0500 (Central Daylight Time),730701.599999994,I,z,1320,59,2,125.bmp,-120,-120,126.bmp,120,-120,127.bmp,-120,120,128.bmp,120,120,9377.79999999702,721323.799999997,8054,no,SM,A,128.bmp,120,-120,162125,156097,164141,158109,720383.0,714354.0,722399.0,716368.0,59
1,1,0,0,0,46,test,1,0,z,Tue Aug 26 2025 17:35:09 GMT-0500 (Central Daylight Time),739881.799999997,I,m,1132,60,2,129.bmp,-120,-120,130.bmp,120,-120,131.bmp,-120,120,132.bmp,120,120,9177.20000000298,730704.599999994,8054,yes,SM,A,129.bmp,-120,-120,162125,156097,164141,158109,729763.0,723735.0,731779.0,725748.0,60
2,0,1,0,0,47,test,1,1,z,Tue Aug 26 2025 17:35:09 GMT-0500 (Central Daylight Time),749062.599999994,I,z,1119,61,2,133.bmp,-120,-120,134.bmp,120,-120,135.bmp,-120,120,136.bmp,120,120,9178.0,739884.599999994,8054,yes,SM,A,134.bmp,120,-120,162125,156097,164141,158109,738944.0,732915.0,740960.0,734928.0,61
4,0,0,0,1,48,test,1,1,z,Tue Aug 26 2025 17:35:09 GMT-0500 (Central Daylight Time),758209.3999999911,I,z,1099,62,2,141.bmp,-120,-120,142.bmp,120,-120,143.bmp,-120,120,144.bmp,120,120,9143.5,749065.8999999911,8054,yes,SM,A,144.bmp,120,120,162125,156097,164141,158109,748124.0,742096.0,750140.0,744109.0,62
1,1,0,0,0,49,test,1,1,m,Tue Aug 26 2025 17:35:09 GMT-0500 (Central Daylight Time),767573.3999999911,I,m,1313,63,2,145.bmp,-120,-120,146.bmp,120,-120,147.bmp,-120,120,148.bmp,120,120,9361.29999999702,758212.099999994,8054,no,SM,A,145.bmp,-120,120,162125,156097,164141,158109,757271.0,751243.0,759287.0,753256.0,63
2,0,1,0,0,50,test,1,1,z,Tue Aug 26 2025 17:35:09 GMT-0500 (Central Daylight Time),776653.8999999911,I,z,1028,64,2,149.bmp,-120,-120,150.bmp,120,-120,112.bmp,-120,120,101.bmp,120,120,9077.79999999702,767576.099999994,8054,yes,SM,A,150.bmp,120,-120,162125,156097,164141,158109,766635.0,760606.0,768651.0,762620.0,64
4,0,0,0,1,51,test,1,1,m,Tue Aug 26 2025 17:35:09 GMT-0500 (Central Daylight Time),785701.0,I,m,997,65,2,102.bmp,-120,-120,103.bmp,120,-120,104.bmp,-120,120,105.bmp,120,120,9044.10000000894,776656.8999999911,8054,no,SM,A,104.bmp,120,120,162125,156097,164141,158109,775716.0,769687.0,777731.0,771700.0,65
3,0,0,1,0,52,test,1,1,m,Tue Aug 26 2025 17:35:09 GMT-0500 (Central Daylight Time),794498.3999999911,I,m,740,66,2,106.bmp,-120,-120,107.bmp,120,-120,108.bmp,-120,120,109.bmp,120,120,8794.199999988079,785704.200000003,8054,no,SM,A,109.bmp,-120,120,162125,156097,164141,158109,784763.0,778734.0,786779.0,780747.0,66
2,0,1,0,0,53,test,1,1,m,Tue Aug 26 2025 17:35:09 GMT-0500 (Central Daylight Time),803512.200000003,I,m,959,67,2,137.bmp,-120,-120,138.bmp,120,-120,139.bmp,-120,120,140.bmp,120,120,9011.0,794501.200000003,8054,no,SM,A,139.bmp,120,-120,162125,156097,164141,158109,793560.0,787532.0,795576.0,789544.0,67
3,0,0,1,0,54,test,1,1,z,Tue Aug 26 2025 17:35:09 GMT-0500 (Central Daylight Time),812509.200000003,I,z,945,68,2,110.bmp,-120,-120,111.bmp,120,-120,112.bmp,-120,120,113.bmp,120,120,8994.0,803515.200000003,8054,yes,SM,A,112.bmp,-120,120,162125,156097,164141,158109,802574.0,796545.0,804590.0,798558.0,68
1,1,0,0,0,55,test,1,1,m,Tue Aug 26 2025 17:35:09 GMT-0500 (Central Daylight Time),821623.099999994,I,m,1052,69,2,114.bmp,-120,-120,115.bmp,120,-120,116.bmp,-120,120,117.bmp,120,120,9110.59999999404,812512.5,8054,no,SM,A,115.bmp,-120,-120,162125,156097,164141,158109,811571.0,805543.0,813587.0,807555.0,69
2,0,1,0,0,56,test,1,1,m,Tue Aug 26 2025 17:35:09 GMT-0500 (Central Daylight Time),830737.0,I,m,1050,70,2,118.bmp,-120,-120,119.bmp,120,-120,120.bmp,-120,120,121.bmp,120,120,9110.60000000894,821626.3999999911,8054,no,SM,A,120.bmp,120,-120,162125,156097,164141,158109,820685.0,814657.0,822701.0,816670.0,70
4,0,0,0,1,57,test,1,1,z,Tue Aug 26 2025 17:35:09 GMT-0500 (Central Daylight Time),839917.299999997,I,z,1120,71,2,122.bmp,-120,-120,123.bmp,120,-120,124.bmp,-120,120,125.bmp,120,120,9176.70000000298,830740.599999994,8054,yes,SM,A,125.bmp,120,120,162125,156097,164141,158109,829799.0,823771.0,831815.0,825783.0,71
1,1,0,0,0,58,test,1,1,z,Tue Aug 26 2025 17:35:09 GMT-0500 (Central Daylight Time),849381.0,I,z,1404,72,2,126.bmp,-120,-120,127.bmp,120,-120,128.bmp,-120,120,129.bmp,120,120,9460.40000000596,839920.599999994,8054,yes,SM,A,126.bmp,-120,-120,162125,156097,164141,158109,838979.0,832951.0,840995.0,834964.0,72
2,0,1,0,0,59,test,1,1,z,Tue Aug 26 2025 17:35:09 GMT-0500 (Central Daylight Time),858777.8999999911,I,z,1348,73,2,130.bmp,-120,-120,131.bmp,120,-120,132.bmp,-120,120,133.bmp,120,120,9394.09999999404,849383.799999997,8054,yes,SM,A,131.bmp,120,-120,162125,156097,164141,158109,848443.0,842414.0,850459.0,844428.0,73
4,0,0,0,1,60,test,1,1,m,Tue Aug 26 2025 17:35:09 GMT-0500 (Central Daylight Time),867742.099999994,I,m,911,74,2,134.bmp,-120,-120,135.bmp,120,-120,136.bmp,-120,120,137.bmp,120,120,8961.5,858780.599999994,8054,no,SM,A,136.bmp,120,120,162125,156097,164141,158109,857840.0,851811.0,859856.0,853824.0,74
2,0,1,0,0,60,test,1,0,m,Tue Aug 26 2025 17:35:09 GMT-0500 (Central Daylight Time),876905.8999999911,I,z,1108,75,2,138.bmp,-120,-120,139.bmp,120,-120,140.bmp,-120,120,141.bmp,120,120,9160.89999999106,867745.0,8054,no,SM,A,141.bmp,120,-120,162125,156097,164141,158109,866803.0,860775.0,868820.0,862788.0,75
1,1,0,0,0,61,test,1,1,z,Tue Aug 26 2025 17:35:09 GMT-0500 (Central Daylight Time),886902.700000003,I,z,1943,76,2,142.bmp,-120,-120,143.bmp,120,-120,144.bmp,-120,120,145.bmp,120,120,9993.300000011921,876909.3999999911,8054,yes,SM,A,142.bmp,-120,-120,162125,156097,164141,158109,875967.0,869940.0,877984.0,871952.0,76
3,0,0,1,0,62,test,1,1,z,Tue Aug 26 2025 17:35:09 GMT-0500 (Central Daylight Time),896316.099999994,I,z,1354,77,2,150.bmp,-120,-120,111.bmp,120,-120,101.bmp,-120,120,102.bmp,120,120,9410.39999999106,886905.700000003,8054,yes,SM,A,101.bmp,-120,120,162125,156097,164141,158109,885964.0,879936.0,887981.0,881949.0,77
1,1,0,0,0,63,test,1,1,m,Tue Aug 26 2025 17:35:09 GMT-0500 (Central Daylight Time),905796.8999999911,I,m,1421,78,2,146.bmp,-120,-120,147.bmp,120,-120,148.bmp,-120,120,149.bmp,120,120,9477.29999999702,896319.599999994,8054,no,SM,A,147.bmp,-120,-120,162125,156097,164141,158109,895378.0,889350.0,897394.0,891363.0,78
4,0,0,0,1,64,test,1,1,m,Tue Aug 26 2025 17:35:09 GMT-0500 (Central Daylight Time),914910.5,I,m,1077,79,2,107.bmp,-120,-120,108.bmp,120,-120,109.bmp,-120,120,110.bmp,120,120,9106.5,905804.0,8054,no,SM,A,107.bmp,120,120,162125,156097,164141,158109,904858.0,898834.0,906859.0,900843.0,79
3,0,0,1,0,65,test,1,1,m,Tue Aug 26 2025 17:35:09 GMT-0500 (Central Daylight Time),924207.700000003,I,m,1235,80,2,103.bmp,-120,-120,104.bmp,120,-120,105.bmp,-120,120,106.bmp,120,120,9293.60000000894,914914.099999994,8054,no,SM,A,106.bmp,-120,120,162125,156097,164141,158109,913972.0,907944.0,915988.0,909957.0,80
