acc_sum,block,block_c,change,condition,correct,correct_response,datetime,endtime,face,project,response,response_time,row_sel,session_number,start_end,starttime,subject_id,task,task_vers,trial
0,prac,1,,1-Back,,,Thu Nov 13 2025 14:25:11 GMT-0500 (Eastern Standard Time),,124_o_f_d_a.png,I,space,16192,1,1,,,9030,VNB,A,0
1,prac,1,0.0,1-Back,1.0,m,Thu Nov 13 2025 14:25:11 GMT-0500 (Eastern Standard Time),199177.20000000298,071_y_f_n_a.png,I,m,866,2,1,1679.0999999940395,197498.10000000894,9030,VNB,A,1
1,prac,1,0.0,1-Back,0.0,m,Thu Nov 13 2025 14:25:11 GMT-0500 (Eastern Standard Time),202010.10000000894,165_m_m_h_a.png,I,None,2004,3,1,2813.4000000059605,199196.70000000298,9030,VNB,A,2
1,prac,1,0.0,1-Back,0.0,m,Thu Nov 13 2025 14:25:11 GMT-0500 (Eastern Standard Time),203977.0,109_y_m_d_a.png,I,z,1127,4,1,1947.5,202029.5,9030,VNB,A,3
2,prac,1,0.0,1-Back,1.0,m,Thu Nov 13 2025 14:25:11 GMT-0500 (Eastern Standard Time),206360.5,124_o_f_n_a.png,I,m,1506,5,1,2363.5,203997.0,9030,VNB,A,4
2,prac,1,1.0,1-Back,0.0,z,Thu Nov 13 2025 14:25:11 GMT-0500 (Eastern Standard Time),209210.20000000298,109_y_m_n_a.png,I,None,2011,6,1,2829.3999999910593,206380.80000001192,9030,VNB,A,5
3,prac,1,0.0,1-Back,1.0,m,Thu Nov 13 2025 14:25:11 GMT-0500 (Eastern Standard Time),211460.40000000596,039_o_m_h_a.png,I,m,1415,7,1,2223.0999999940395,209237.30000001192,9030,VNB,A,6
4,prac,1,0.0,1-Back,1.0,m,Thu Nov 13 2025 14:25:11 GMT-0500 (Eastern Standard Time),213927.10000000894,139_m_f_d_a.png,I,m,1632,8,1,2444.4000000059605,211482.70000000298,9030,VNB,A,7
5,prac,1,1.0,1-Back,1.0,z,Thu Nov 13 2025 14:25:11 GMT-0500 (Eastern Standard Time),215827.0,071_y_f_d_a.png,I,z,1057,9,1,1877.8999999910593,213949.10000000894,9030,VNB,A,8
6,prac,1,0.0,1-Back,1.0,m,Thu Nov 13 2025 14:25:11 GMT-0500 (Eastern Standard Time),217877.0,165_m_m_n_a.png,I,m,1220,10,1,2027.3999999910593,215849.60000000894,9030,VNB,A,9
7,prac,1,0.0,1-Back,1.0,m,Thu Nov 13 2025 14:25:11 GMT-0500 (Eastern Standard Time),220393.80000001192,124_o_f_h_a.png,I,m,1643,11,1,2494.0,217899.80000001192,9030,VNB,A,10
7,prac,1,0.0,1-Back,0.0,m,Thu Nov 13 2025 14:25:11 GMT-0500 (Eastern Standard Time),223127.0,109_y_m_d_a.png,I,z,1941,12,1,2711.199999988079,220415.80000001192,9030,VNB,A,11
0,prac,2,0.0,1-Back,,,Thu Nov 13 2025 14:25:11 GMT-0500 (Eastern Standard Time),223127.0,124_o_f_d_a.png,I,a,7125,1,1,2711.199999988079,220415.80000001192,9030,VNB,A,0
1,prac,2,0.0,1-Back,1.0,m,Thu Nov 13 2025 14:25:11 GMT-0500 (Eastern Standard Time),235193.70000000298,071_y_f_n_a.png,I,m,1029,2,1,1842.7999999970198,233350.90000000596,9030,VNB,A,1
2,prac,2,0.0,1-Back,1.0,m,Thu Nov 13 2025 14:25:11 GMT-0500 (Eastern Standard Time),237860.30000001192,165_m_m_h_a.png,I,m,1819,3,1,2643.2000000029802,235217.10000000894,9030,VNB,A,2
3,prac,2,0.0,1-Back,1.0,m,Thu Nov 13 2025 14:25:11 GMT-0500 (Eastern Standard Time),240193.60000000894,109_y_m_d_a.png,I,m,1529,4,1,2310.1000000089407,237883.5,9030,VNB,A,3
4,prac,2,0.0,1-Back,1.0,m,Thu Nov 13 2025 14:25:11 GMT-0500 (Eastern Standard Time),242477.0,124_o_f_n_a.png,I,m,1403,5,1,2264.0,240213.0,9030,VNB,A,4
5,prac,2,1.0,1-Back,1.0,z,Thu Nov 13 2025 14:25:11 GMT-0500 (Eastern Standard Time),244643.60000000894,109_y_m_n_a.png,I,z,1316,6,1,2146.6000000089407,242497.0,9030,VNB,A,5
6,prac,2,0.0,1-Back,1.0,m,Thu Nov 13 2025 14:25:11 GMT-0500 (Eastern Standard Time),246427.0,039_o_m_h_a.png,I,m,949,7,1,1763.7999999970198,244663.20000000298,9030,VNB,A,6
7,prac,2,0.0,1-Back,1.0,m,Thu Nov 13 2025 14:25:11 GMT-0500 (Eastern Standard Time),248527.0,139_m_f_d_a.png,I,m,1261,8,1,2079.7999999970198,246447.20000000298,9030,VNB,A,7
8,prac,2,1.0,1-Back,1.0,z,Thu Nov 13 2025 14:25:11 GMT-0500 (Eastern Standard Time),250310.30000001192,071_y_f_d_a.png,I,z,955,9,1,1763.800000011921,248546.5,9030,VNB,A,8
9,prac,2,0.0,1-Back,1.0,m,Thu Nov 13 2025 14:25:11 GMT-0500 (Eastern Standard Time),252127.10000000894,165_m_m_n_a.png,I,m,978,10,1,1798.7000000029802,250328.40000000596,9030,VNB,A,9
10,prac,2,0.0,1-Back,1.0,m,Thu Nov 13 2025 14:25:11 GMT-0500 (Eastern Standard Time),254077.0,124_o_f_h_a.png,I,m,1089,11,1,1930.199999988079,252146.80000001192,9030,VNB,A,10
10,prac,2,0.0,1-Back,0.0,m,Thu Nov 13 2025 14:25:11 GMT-0500 (Eastern Standard Time),256560.20000000298,109_y_m_d_a.png,I,z,1685,12,1,2464.3999999910593,254095.80000001192,9030,VNB,A,11
0,test,1,0.0,1-Back,,,Thu Nov 13 2025 14:25:11 GMT-0500 (Eastern Standard Time),256560.20000000298,071_y_f_d_a.png,I,space,14213,1,1,2464.3999999910593,254095.80000001192,9030,VNB,A,0
1,test,1,0.0,1-Back,1.0,m,Thu Nov 13 2025 14:25:11 GMT-0500 (Eastern Standard Time),286626.90000000596,139_m_f_n_a.png,I,m,602,2,1,1632.7000000029802,284994.200000003,9030,VNB,A,1
2,test,1,0.0,1-Back,1.0,m,Thu Nov 13 2025 14:25:11 GMT-0500 (Eastern Standard Time),289410.200000003,039_o_m_h_a.png,I,m,1736,3,1,2765.0999999940395,286645.10000000894,9030,VNB,A,2
3,test,1,1.0,1-Back,1.0,z,Thu Nov 13 2025 14:25:11 GMT-0500 (Eastern Standard Time),291543.40000000596,165_m_m_h_a.png,I,z,1097,4,1,2115.0999999940395,289428.3000000119,9030,VNB,A,3
4,test,1,0.0,1-Back,1.0,m,Thu Nov 13 2025 14:25:11 GMT-0500 (Eastern Standard Time),293476.8000000119,124_o_f_n_a.png,I,m,884,5,1,1915.9000000059605,291560.90000000596,9030,VNB,A,4
5,test,1,0.0,1-Back,1.0,m,Thu Nov 13 2025 14:25:11 GMT-0500 (Eastern Standard Time),295693.5,109_y_m_d_a.png,I,m,1174,6,1,2199.3999999910593,293494.10000000894,9030,VNB,A,5
6,test,1,1.0,1-Back,1.0,z,Thu Nov 13 2025 14:25:11 GMT-0500 (Eastern Standard Time),297760.200000003,139_m_f_d_a.png,I,z,1022,7,1,2038.0,295722.200000003,9030,VNB,A,6
7,test,1,0.0,1-Back,1.0,m,Thu Nov 13 2025 14:25:11 GMT-0500 (Eastern Standard Time),299676.8000000119,071_y_f_h_a.png,I,m,875,8,1,1898.300000011921,297778.5,9030,VNB,A,7
8,test,1,0.0,1-Back,1.0,m,Thu Nov 13 2025 14:25:11 GMT-0500 (Eastern Standard Time),301610.200000003,039_o_m_n_a.png,I,m,894,9,1,1904.7999999970198,299705.40000000596,9030,VNB,A,8
9,test,1,0.0,1-Back,1.0,m,Thu Nov 13 2025 14:25:11 GMT-0500 (Eastern Standard Time),304093.5,109_y_m_h_a.png,I,m,1441,10,1,2461.0999999940395,301632.40000000596,9030,VNB,A,9
10,test,1,0.0,1-Back,1.0,m,Thu Nov 13 2025 14:25:11 GMT-0500 (Eastern Standard Time),306043.5,039_o_m_d_a.png,I,m,910,11,1,1927.199999988079,304116.3000000119,9030,VNB,A,10
11,test,1,1.0,1-Back,1.0,z,Thu Nov 13 2025 14:25:11 GMT-0500 (Eastern Standard Time),307793.5,124_o_f_d_a.png,I,z,704,12,1,1731.5999999940395,306061.90000000596,9030,VNB,A,11
12,test,1,0.0,1-Back,1.0,m,Thu Nov 13 2025 14:25:11 GMT-0500 (Eastern Standard Time),309710.10000000894,165_m_m_n_a.png,I,m,874,13,1,1892.7000000029802,307817.40000000596,9030,VNB,A,12
13,test,1,1.0,1-Back,1.0,z,Thu Nov 13 2025 14:25:11 GMT-0500 (Eastern Standard Time),311893.90000000596,071_y_f_n_a.png,I,z,1149,14,1,2166.2000000029802,309727.700000003,9030,VNB,A,13
14,test,1,0.0,1-Back,1.0,m,Thu Nov 13 2025 14:25:11 GMT-0500 (Eastern Standard Time),313926.5,139_m_f_h_a.png,I,m,998,15,1,2014.0999999940395,311912.40000000596,9030,VNB,A,14
15,test,1,0.0,1-Back,1.0,m,Thu Nov 13 2025 14:25:11 GMT-0500 (Eastern Standard Time),315860.0,165_m_m_d_a.png,I,m,884,16,1,1912.5999999940395,313947.40000000596,9030,VNB,A,15
16,test,1,0.0,1-Back,1.0,m,Thu Nov 13 2025 14:25:11 GMT-0500 (Eastern Standard Time),317943.200000003,109_y_m_n_a.png,I,m,1047,17,1,2062.7000000029802,315880.5,9030,VNB,A,16
17,test,1,0.0,1-Back,1.0,m,Thu Nov 13 2025 14:25:11 GMT-0500 (Eastern Standard Time),320326.60000000894,124_o_f_h_a.png,I,m,1347,18,1,2366.0,317960.60000000894,9030,VNB,A,17
0,test,2,0.0,1-Back,,,Thu Nov 13 2025 14:25:11 GMT-0500 (Eastern Standard Time),320326.60000000894,109_y_m_n_a.png,I,space,3405,1,1,2366.0,317960.60000000894,9030,VNB,A,0
1,test,2,0.0,1-Back,1.0,m,Thu Nov 13 2025 14:25:11 GMT-0500 (Eastern Standard Time),328026.8000000119,071_y_f_h_a.png,I,m,1227,2,1,2238.7000000029802,325788.10000000894,9030,VNB,A,1
2,test,2,1.0,1-Back,1.0,m,Thu Nov 13 2025 14:25:11 GMT-0500 (Eastern Standard Time),330576.8000000119,039_o_m_n_a.png,I,m,1504,3,1,2530.300000011921,328046.5,9030,VNB,A,2
3,test,2,0.0,1-Back,1.0,m,Thu Nov 13 2025 14:25:11 GMT-0500 (Eastern Standard Time),332643.40000000596,139_m_f_d_a.png,I,m,1018,4,1,2046.2999999970198,330597.10000000894,9030,VNB,A,3
4,test,2,0.0,1-Back,1.0,z,Thu Nov 13 2025 14:25:11 GMT-0500 (Eastern Standard Time),334693.8000000119,165_m_m_d_a.png,I,z,1016,5,1,2029.9000000059605,332663.90000000596,9030,VNB,A,4
5,test,2,0.0,1-Back,1.0,m,Thu Nov 13 2025 14:25:11 GMT-0500 (Eastern Standard Time),336743.200000003,109_y_m_h_a.png,I,m,1014,6,1,2032.2999999970198,334710.90000000596,9030,VNB,A,5
6,test,2,1.0,1-Back,1.0,z,Thu Nov 13 2025 14:25:11 GMT-0500 (Eastern Standard Time),338443.5,124_o_f_h_a.png,I,z,660,7,1,1676.3999999910593,336767.10000000894,9030,VNB,A,6
7,test,2,0.0,1-Back,1.0,m,Thu Nov 13 2025 14:25:11 GMT-0500 (Eastern Standard Time),340376.700000003,139_m_f_n_a.png,I,m,895,8,1,1914.0,338462.700000003,9030,VNB,A,7
8,test,2,0.0,1-Back,1.0,m,Thu Nov 13 2025 14:25:11 GMT-0500 (Eastern Standard Time),342410.0,071_y_f_d_a.png,I,m,994,9,1,2012.5999999940395,340397.40000000596,9030,VNB,A,8
9,test,2,0.0,1-Back,1.0,m,Thu Nov 13 2025 14:25:11 GMT-0500 (Eastern Standard Time),344260.10000000894,165_m_m_n_a.png,I,m,801,10,1,1832.7000000029802,342427.40000000596,9030,VNB,A,9
9,test,2,1.0,1-Back,0.0,m,Thu Nov 13 2025 14:25:11 GMT-0500 (Eastern Standard Time),346193.40000000596,139_m_f_h_a.png,I,z,887,11,1,1914.2000000029802,344279.200000003,9030,VNB,A,10
10,test,2,0.0,1-Back,1.0,z,Thu Nov 13 2025 14:25:11 GMT-0500 (Eastern Standard Time),348226.8000000119,039_o_m_h_a.png,I,z,986,12,1,2016.300000011921,346210.5,9030,VNB,A,11
11,test,2,0.0,1-Back,1.0,m,Thu Nov 13 2025 14:25:11 GMT-0500 (Eastern Standard Time),350310.0,109_y_m_d_a.png,I,m,1032,13,1,2053.3999999910593,348256.60000000894,9030,VNB,A,12
12,test,2,0.0,1-Back,1.0,m,Thu Nov 13 2025 14:25:11 GMT-0500 (Eastern Standard Time),352610.200000003,124_o_f_n_a.png,I,m,1253,14,1,2281.7000000029802,350328.5,9030,VNB,A,13
12,test,2,0.0,1-Back,0.0,z,Thu Nov 13 2025 14:25:11 GMT-0500 (Eastern Standard Time),354793.40000000596,071_y_f_n_a.png,I,m,1145,15,1,2165.5,352627.90000000596,9030,VNB,A,14
13,test,2,1.0,1-Back,1.0,m,Thu Nov 13 2025 14:25:11 GMT-0500 (Eastern Standard Time),356843.3000000119,165_m_m_h_a.png,I,m,1010,16,1,2030.9000000059605,354812.40000000596,9030,VNB,A,15
14,test,2,0.0,1-Back,1.0,m,Thu Nov 13 2025 14:25:11 GMT-0500 (Eastern Standard Time),359093.60000000894,124_o_f_d_a.png,I,m,1215,17,1,2229.7000000029802,356863.90000000596,9030,VNB,A,16
15,test,2,1.0,1-Back,1.0,z,Thu Nov 13 2025 14:25:11 GMT-0500 (Eastern Standard Time),361010.0,039_o_m_d_a.png,I,z,870,18,1,1900.3999999910593,359109.60000000894,9030,VNB,A,17
0,test,3,1.0,1-Back,,,Thu Nov 13 2025 14:25:11 GMT-0500 (Eastern Standard Time),361010.0,124_o_f_h_a.png,I,space,3561,1,1,1900.3999999910593,359109.60000000894,9030,VNB,A,0
1,test,3,0.0,1-Back,1.0,m,Thu Nov 13 2025 14:25:11 GMT-0500 (Eastern Standard Time),368459.700000003,139_m_f_d_a.png,I,m,758,2,1,1783.2999999970198,366676.40000000596,9030,VNB,A,1
2,test,3,1.0,1-Back,1.0,m,Thu Nov 13 2025 14:25:11 GMT-0500 (Eastern Standard Time),370393.40000000596,165_m_m_n_a.png,I,m,912,3,1,1918.5,368474.90000000596,9030,VNB,A,2
3,test,3,0.0,1-Back,1.0,z,Thu Nov 13 2025 14:25:11 GMT-0500 (Eastern Standard Time),372226.8000000119,124_o_f_n_a.png,I,z,786,4,1,1815.9000000059605,370410.90000000596,9030,VNB,A,3
4,test,3,1.0,1-Back,1.0,m,Thu Nov 13 2025 14:25:11 GMT-0500 (Eastern Standard Time),374126.3000000119,039_o_m_d_a.png,I,m,855,5,1,1880.2000000029802,372246.10000000894,9030,VNB,A,4
5,test,3,0.0,1-Back,1.0,m,Thu Nov 13 2025 14:25:11 GMT-0500 (Eastern Standard Time),376210.0,071_y_f_h_a.png,I,m,1053,6,1,2068.5,374141.5,9030,VNB,A,5
6,test,3,0.0,1-Back,1.0,z,Thu Nov 13 2025 14:25:11 GMT-0500 (Eastern Standard Time),378126.700000003,109_y_m_h_a.png,I,z,873,7,1,1898.5,376228.200000003,9030,VNB,A,6
7,test,3,0.0,1-Back,1.0,m,Thu Nov 13 2025 14:25:11 GMT-0500 (Eastern Standard Time),379993.40000000596,139_m_f_n_a.png,I,m,828,8,1,1839.0999999940395,378154.3000000119,9030,VNB,A,7
8,test,3,0.0,1-Back,1.0,m,Thu Nov 13 2025 14:25:11 GMT-0500 (Eastern Standard Time),382509.60000000894,071_y_f_d_a.png,I,m,1472,9,1,2497.6000000089407,380012.0,9030,VNB,A,8
9,test,3,1.0,1-Back,1.0,m,Thu Nov 13 2025 14:25:11 GMT-0500 (Eastern Standard Time),385043.10000000894,039_o_m_n_a.png,I,m,1501,10,1,2518.6000000089407,382524.5,9030,VNB,A,9
10,test,3,0.0,1-Back,1.0,m,Thu Nov 13 2025 14:25:11 GMT-0500 (Eastern Standard Time),387026.8000000119,165_m_m_h_a.png,I,m,952,11,1,1968.2000000029802,385058.60000000894,9030,VNB,A,10
11,test,3,0.0,1-Back,1.0,z,Thu Nov 13 2025 14:25:11 GMT-0500 (Eastern Standard Time),389109.700000003,139_m_f_h_a.png,I,z,1048,12,1,2063.7000000029802,387046.0,9030,VNB,A,11
12,test,3,1.0,1-Back,1.0,m,Thu Nov 13 2025 14:25:11 GMT-0500 (Eastern Standard Time),391109.700000003,124_o_f_d_a.png,I,m,965,13,1,1981.5,389128.200000003,9030,VNB,A,12
13,test,3,0.0,1-Back,1.0,z,Thu Nov 13 2025 14:25:11 GMT-0500 (Eastern Standard Time),393143.10000000894,165_m_m_d_a.png,I,z,997,14,1,2015.2000000029802,391127.90000000596,9030,VNB,A,13
14,test,3,0.0,1-Back,1.0,m,Thu Nov 13 2025 14:25:11 GMT-0500 (Eastern Standard Time),395126.5,109_y_m_n_a.png,I,m,948,15,1,1965.699999988079,393160.8000000119,9030,VNB,A,14
15,test,3,1.0,1-Back,1.0,m,Thu Nov 13 2025 14:25:11 GMT-0500 (Eastern Standard Time),397760.0,039_o_m_h_a.png,I,m,1588,16,1,2614.7999999970198,395145.200000003,9030,VNB,A,15
16,test,3,0.0,1-Back,1.0,m,Thu Nov 13 2025 14:25:11 GMT-0500 (Eastern Standard Time),400126.700000003,109_y_m_d_a.png,I,m,1323,17,1,2347.7000000029802,397779.0,9030,VNB,A,16
17,test,3,1.0,1-Back,1.0,m,Thu Nov 13 2025 14:25:11 GMT-0500 (Eastern Standard Time),402026.700000003,071_y_f_n_a.png,I,m,861,18,1,1882.0,400144.700000003,9030,VNB,A,17
0,test,4,1.0,1-Back,,,Thu Nov 13 2025 14:25:11 GMT-0500 (Eastern Standard Time),402026.700000003,165_m_m_d_a.png,I,space,2632,1,1,1882.0,400144.700000003,9030,VNB,A,0
1,test,4,0.0,1-Back,1.0,z,Thu Nov 13 2025 14:25:11 GMT-0500 (Eastern Standard Time),408776.700000003,039_o_m_d_a.png,I,z,1046,2,1,2056.0,406720.700000003,9030,VNB,A,1
2,test,4,0.0,1-Back,1.0,m,Thu Nov 13 2025 14:25:11 GMT-0500 (Eastern Standard Time),410660.0,109_y_m_h_a.png,I,m,834,3,1,1865.199999988079,408794.8000000119,9030,VNB,A,2
3,test,4,0.0,1-Back,1.0,m,Thu Nov 13 2025 14:25:11 GMT-0500 (Eastern Standard Time),412676.5,139_m_f_n_a.png,I,m,967,4,1,1997.5,410679.0,9030,VNB,A,3
4,test,4,1.0,1-Back,1.0,m,Thu Nov 13 2025 14:25:11 GMT-0500 (Eastern Standard Time),414709.90000000596,124_o_f_h_a.png,I,m,998,5,1,2015.0999999940395,412694.8000000119,9030,VNB,A,4
5,test,4,0.0,1-Back,1.0,m,Thu Nov 13 2025 14:25:11 GMT-0500 (Eastern Standard Time),416493.40000000596,165_m_m_n_a.png,I,m,741,6,1,1767.0999999940395,414726.3000000119,9030,VNB,A,5
6,test,4,0.0,1-Back,1.0,m,Thu Nov 13 2025 14:25:11 GMT-0500 (Eastern Standard Time),418343.0,109_y_m_d_a.png,I,m,814,7,1,1832.199999988079,416510.8000000119,9030,VNB,A,6
6,test,4,1.0,1-Back,0.0,z,Thu Nov 13 2025 14:25:11 GMT-0500 (Eastern Standard Time),420560.10000000894,071_y_f_d_a.png,I,m,1172,8,1,2200.2999999970198,418359.8000000119,9030,VNB,A,7
7,test,4,0.0,1-Back,1.0,m,Thu Nov 13 2025 14:25:11 GMT-0500 (Eastern Standard Time),422343.0,139_m_f_h_a.png,I,m,747,9,1,1764.3999999910593,420578.60000000894,9030,VNB,A,8
8,test,4,0.0,1-Back,1.0,z,Thu Nov 13 2025 14:25:11 GMT-0500 (Eastern Standard Time),424926.60000000894,039_o_m_h_a.png,I,z,1540,10,1,2565.6000000089407,422361.0,9030,VNB,A,9
9,test,4,1.0,1-Back,1.0,m,Thu Nov 13 2025 14:25:11 GMT-0500 (Eastern Standard Time),426693.5,124_o_f_n_a.png,I,m,732,11,1,1747.7999999970198,424945.700000003,9030,VNB,A,10
10,test,4,0.0,1-Back,1.0,m,Thu Nov 13 2025 14:25:11 GMT-0500 (Eastern Standard Time),428809.90000000596,139_m_f_d_a.png,I,m,1078,12,1,2099.2999999970198,426710.60000000894,9030,VNB,A,11
11,test,4,0.0,1-Back,1.0,m,Thu Nov 13 2025 14:25:11 GMT-0500 (Eastern Standard Time),431393.3000000119,071_y_f_n_a.png,I,m,1537,13,1,2563.800000011921,428829.5,9030,VNB,A,12
12,test,4,0.0,1-Back,1.0,m,Thu Nov 13 2025 14:25:11 GMT-0500 (Eastern Standard Time),433576.60000000894,124_o_f_d_a.png,I,m,1146,14,1,2165.5,431411.10000000894,9030,VNB,A,13
13,test,4,0.0,1-Back,1.0,m,Thu Nov 13 2025 14:25:11 GMT-0500 (Eastern Standard Time),435943.0,071_y_f_h_a.png,I,m,1330,15,1,2348.0999999940395,433594.90000000596,9030,VNB,A,14
14,test,4,1.0,1-Back,1.0,z,Thu Nov 13 2025 14:25:11 GMT-0500 (Eastern Standard Time),437826.700000003,165_m_m_h_a.png,I,z,837,16,1,1864.8999999910593,435961.8000000119,9030,VNB,A,15
15,test,4,0.0,1-Back,1.0,m,Thu Nov 13 2025 14:25:11 GMT-0500 (Eastern Standard Time),439676.700000003,039_o_m_n_a.png,I,m,808,17,1,1827.8999999910593,437848.8000000119,9030,VNB,A,16
15,test,4,1.0,1-Back,0.0,z,Thu Nov 13 2025 14:25:11 GMT-0500 (Eastern Standard Time),441476.60000000894,109_y_m_n_a.png,I,m,751,18,1,1781.9000000059605,439694.700000003,9030,VNB,A,17
0,test,5,1.0,1-Back,,,Thu Nov 13 2025 14:25:11 GMT-0500 (Eastern Standard Time),441476.60000000894,039_o_m_n_a.png,I,space,5327,1,1,1781.9000000059605,439694.700000003,9030,VNB,A,0
1,test,5,1.0,1-Back,1.0,m,Thu Nov 13 2025 14:25:11 GMT-0500 (Eastern Standard Time),450776.5,124_o_f_h_a.png,I,m,896,2,1,1914.5999999940395,448861.90000000596,9030,VNB,A,1
2,test,5,0.0,1-Back,1.0,m,Thu Nov 13 2025 14:25:11 GMT-0500 (Eastern Standard Time),452826.8000000119,109_y_m_d_a.png,I,m,1010,3,1,2031.9000000059605,450794.90000000596,9030,VNB,A,2
3,test,5,0.0,1-Back,1.0,z,Thu Nov 13 2025 14:25:11 GMT-0500 (Eastern Standard Time),454543.3000000119,039_o_m_d_a.png,I,z,673,4,1,1696.9000000059605,452846.40000000596,9030,VNB,A,3
4,test,5,0.0,1-Back,1.0,m,Thu Nov 13 2025 14:25:11 GMT-0500 (Eastern Standard Time),456609.90000000596,139_m_f_h_a.png,I,m,1020,5,1,2047.5,454562.40000000596,9030,VNB,A,4
5,test,5,0.0,1-Back,1.0,m,Thu Nov 13 2025 14:25:11 GMT-0500 (Eastern Standard Time),459609.90000000596,071_y_f_n_a.png,I,m,1961,6,1,2982.0,456627.90000000596,9030,VNB,A,5
6,test,5,1.0,1-Back,1.0,z,Thu Nov 13 2025 14:25:11 GMT-0500 (Eastern Standard Time),461693.3000000119,124_o_f_n_a.png,I,z,1042,7,1,2063.2000000029802,459630.10000000894,9030,VNB,A,6
7,test,5,0.0,1-Back,1.0,m,Thu Nov 13 2025 14:25:11 GMT-0500 (Eastern Standard Time),463493.40000000596,139_m_f_d_a.png,I,m,750,8,1,1781.2999999970198,461712.10000000894,9030,VNB,A,7
8,test,5,0.0,1-Back,1.0,m,Thu Nov 13 2025 14:25:11 GMT-0500 (Eastern Standard Time),465626.40000000596,109_y_m_h_a.png,I,m,1094,9,1,2114.5999999940395,463511.8000000119,9030,VNB,A,8
9,test,5,0.0,1-Back,1.0,m,Thu Nov 13 2025 14:25:11 GMT-0500 (Eastern Standard Time),467426.3000000119,071_y_f_d_a.png,I,m,751,10,1,1778.300000011921,465648.0,9030,VNB,A,9
10,test,5,0.0,1-Back,1.0,m,Thu Nov 13 2025 14:25:11 GMT-0500 (Eastern Standard Time),469376.60000000894,165_m_m_n_a.png,I,m,921,11,1,1935.9000000059605,467440.700000003,9030,VNB,A,10
10,test,5,1.0,1-Back,0.0,z,Thu Nov 13 2025 14:25:11 GMT-0500 (Eastern Standard Time),471226.700000003,139_m_f_n_a.png,I,m,810,12,1,1831.3999999910593,469395.3000000119,9030,VNB,A,11
11,test,5,0.0,1-Back,1.0,m,Thu Nov 13 2025 14:25:11 GMT-0500 (Eastern Standard Time),473276.700000003,039_o_m_h_a.png,I,m,1008,13,1,2029.5,471247.200000003,9030,VNB,A,12
12,test,5,0.0,1-Back,1.0,z,Thu Nov 13 2025 14:25:11 GMT-0500 (Eastern Standard Time),475109.700000003,165_m_m_h_a.png,I,z,798,14,1,1814.5,473295.200000003,9030,VNB,A,13
13,test,5,1.0,1-Back,1.0,m,Thu Nov 13 2025 14:25:11 GMT-0500 (Eastern Standard Time),477093.5,124_o_f_d_a.png,I,m,949,15,1,1966.0999999940395,475127.40000000596,9030,VNB,A,14
14,test,5,0.0,1-Back,1.0,m,Thu Nov 13 2025 14:25:11 GMT-0500 (Eastern Standard Time),479060.0,109_y_m_n_a.png,I,m,918,16,1,1939.3999999910593,477120.60000000894,9030,VNB,A,15
15,test,5,0.0,1-Back,1.0,m,Thu Nov 13 2025 14:25:11 GMT-0500 (Eastern Standard Time),481076.60000000894,071_y_f_h_a.png,I,m,967,17,1,1987.7000000029802,479088.90000000596,9030,VNB,A,16
16,test,5,0.0,1-Back,1.0,m,Thu Nov 13 2025 14:25:11 GMT-0500 (Eastern Standard Time),483009.90000000596,165_m_m_d_a.png,I,m,887,18,1,1915.2999999970198,481094.60000000894,9030,VNB,A,17
0,prac,1,0.0,2-Back,,,Thu Nov 13 2025 14:25:11 GMT-0500 (Eastern Standard Time),483009.90000000596,139_m_f_n_a.png,I,space,17231,1,1,1915.2999999970198,481094.60000000894,9030,VNB,A,0
0,prac,1,0.0,2-Back,,,Thu Nov 13 2025 14:25:11 GMT-0500 (Eastern Standard Time),483009.90000000596,124_o_f_h_a.png,I,space,17231,2,1,1915.2999999970198,481094.60000000894,9030,VNB,A,0
1,prac,1,0.0,2-Back,1.0,m,Thu Nov 13 2025 14:25:11 GMT-0500 (Eastern Standard Time),613243.5,039_o_m_d_a.png,I,m,1312,3,1,2129.8999999910593,611113.6000000089,9030,VNB,A,1
1,prac,1,1.0,2-Back,0.0,z,Thu Nov 13 2025 14:25:11 GMT-0500 (Eastern Standard Time),616076.400000006,165_m_m_h_a.png,I,None,2001,4,1,2812.7999999970198,613263.6000000089,9030,VNB,A,2
2,prac,1,0.0,2-Back,1.0,m,Thu Nov 13 2025 14:25:11 GMT-0500 (Eastern Standard Time),618876.6000000089,071_y_f_n_a.png,I,m,1960,5,1,2777.0,616099.6000000089,9030,VNB,A,3
3,prac,1,1.0,2-Back,1.0,z,Thu Nov 13 2025 14:25:11 GMT-0500 (Eastern Standard Time),621576.5,039_o_m_h_a.png,I,z,1853,6,1,2675.2999999970198,618901.200000003,9030,VNB,A,4
3,prac,1,1.0,2-Back,0.0,z,Thu Nov 13 2025 14:25:11 GMT-0500 (Eastern Standard Time),624342.6000000089,109_y_m_n_a.png,I,m,1923,7,1,2742.2000000029802,621600.400000006,9030,VNB,A,5
3,prac,1,0.0,2-Back,0.0,m,Thu Nov 13 2025 14:25:11 GMT-0500 (Eastern Standard Time),626826.400000006,139_m_f_d_a.png,I,z,1648,8,1,2463.0999999940395,624363.3000000119,9030,VNB,A,6
4,prac,1,0.0,2-Back,1.0,m,Thu Nov 13 2025 14:25:11 GMT-0500 (Eastern Standard Time),629143.200000003,124_o_f_d_a.png,I,m,1439,9,1,2298.0,626845.200000003,9030,VNB,A,7
5,prac,1,0.0,2-Back,1.0,m,Thu Nov 13 2025 14:25:11 GMT-0500 (Eastern Standard Time),631559.8000000119,165_m_m_h_a.png,I,m,1620,10,1,2391.1000000089407,629168.700000003,9030,VNB,A,8
5,prac,1,1.0,2-Back,0.0,z,Thu Nov 13 2025 14:25:11 GMT-0500 (Eastern Standard Time),634393.0,071_y_f_d_a.png,I,None,2005,11,1,2812.3999999910593,631580.6000000089,9030,VNB,A,9
5,prac,1,0.0,2-Back,0.0,m,Thu Nov 13 2025 14:25:11 GMT-0500 (Eastern Standard Time),636409.700000003,039_o_m_n_a.png,I,z,1183,12,1,1996.5999999940395,634413.1000000089,9030,VNB,A,10
0,prac,2,0.0,2-Back,,,Thu Nov 13 2025 14:25:11 GMT-0500 (Eastern Standard Time),636409.700000003,139_m_f_n_a.png,I,a,10019,1,1,1996.5999999940395,634413.1000000089,9030,VNB,A,0
0,prac,2,0.0,2-Back,,,Thu Nov 13 2025 14:25:11 GMT-0500 (Eastern Standard Time),636409.700000003,124_o_f_h_a.png,I,a,10019,2,1,1996.5999999940395,634413.1000000089,9030,VNB,A,0
1,prac,2,0.0,2-Back,1.0,m,Thu Nov 13 2025 14:25:11 GMT-0500 (Eastern Standard Time),653576.6000000089,039_o_m_d_a.png,I,m,1117,3,1,1927.4000000059605,651649.200000003,9030,VNB,A,1
2,prac,2,1.0,2-Back,1.0,z,Thu Nov 13 2025 14:25:11 GMT-0500 (Eastern Standard Time),656293.200000003,165_m_m_h_a.png,I,z,1928,4,1,2696.5,653596.700000003,9030,VNB,A,2
3,prac,2,0.0,2-Back,1.0,m,Thu Nov 13 2025 14:25:11 GMT-0500 (Eastern Standard Time),658759.8000000119,071_y_f_n_a.png,I,m,1634,5,1,2447.1000000089407,656312.700000003,9030,VNB,A,3
3,prac,2,1.0,2-Back,0.0,z,Thu Nov 13 2025 14:25:11 GMT-0500 (Eastern Standard Time),661592.900000006,039_o_m_h_a.png,I,None,2007,6,1,2813.5,658779.400000006,9030,VNB,A,4
3,prac,2,1.0,2-Back,0.0,z,Thu Nov 13 2025 14:25:11 GMT-0500 (Eastern Standard Time),663959.700000003,109_y_m_n_a.png,I,m,1524,7,1,2345.5999999940395,661614.1000000089,9030,VNB,A,5
4,prac,2,0.0,2-Back,1.0,m,Thu Nov 13 2025 14:25:11 GMT-0500 (Eastern Standard Time),666209.8000000119,139_m_f_d_a.png,I,m,1407,8,1,2229.2000000029802,663980.6000000089,9030,VNB,A,6
4,prac,2,0.0,2-Back,0.0,m,Thu Nov 13 2025 14:25:11 GMT-0500 (Eastern Standard Time),668593.200000003,124_o_f_d_a.png,I,z,1497,9,1,2363.7000000029802,666229.5,9030,VNB,A,7
5,prac,2,0.0,2-Back,1.0,m,Thu Nov 13 2025 14:25:11 GMT-0500 (Eastern Standard Time),670493.200000003,165_m_m_h_a.png,I,m,1100,10,1,1876.8999999910593,668616.3000000119,9030,VNB,A,8
6,prac,2,1.0,2-Back,1.0,z,Thu Nov 13 2025 14:25:11 GMT-0500 (Eastern Standard Time),673043.1000000089,071_y_f_d_a.png,I,z,1706,11,1,2529.2000000029802,670513.900000006,9030,VNB,A,9
6,prac,2,0.0,2-Back,0.0,m,Thu Nov 13 2025 14:25:11 GMT-0500 (Eastern Standard Time),675876.3000000119,039_o_m_n_a.png,I,None,2005,12,1,2812.6000000089407,673063.700000003,9030,VNB,A,10
0,test,1,0.0,2-Back,,,Thu Nov 13 2025 14:25:11 GMT-0500 (Eastern Standard Time),675876.3000000119,109_y_m_h_a.png,I,space,15440,1,1,2812.6000000089407,673063.700000003,9030,VNB,A,0
0,test,1,0.0,2-Back,,,Thu Nov 13 2025 14:25:11 GMT-0500 (Eastern Standard Time),675876.3000000119,124_o_f_n_a.png,I,space,15440,2,1,2812.6000000089407,673063.700000003,9030,VNB,A,0
1,test,1,0.0,2-Back,1.0,z,Thu Nov 13 2025 14:25:11 GMT-0500 (Eastern Standard Time),721809.3000000119,039_o_m_h_a.png,I,z,1169,3,1,2196.7000000029802,719612.6000000089,9030,VNB,A,1
2,test,1,0.0,2-Back,1.0,m,Thu Nov 13 2025 14:25:11 GMT-0500 (Eastern Standard Time),723826.3000000119,139_m_f_d_a.png,I,m,986,4,1,2002.0,721824.3000000119,9030,VNB,A,2
2,test,1,1.0,2-Back,0.0,m,Thu Nov 13 2025 14:25:11 GMT-0500 (Eastern Standard Time),726876.5,109_y_m_n_a.png,I,None,2016,5,1,3031.199999988079,723845.3000000119,9030,VNB,A,3
2,test,1,0.0,2-Back,0.0,z,Thu Nov 13 2025 14:25:11 GMT-0500 (Eastern Standard Time),729259.6000000089,071_y_f_d_a.png,I,m,1343,6,1,2362.2000000029802,726897.400000006,9030,VNB,A,4
2,test,1,0.0,2-Back,0.0,m,Thu Nov 13 2025 14:25:11 GMT-0500 (Eastern Standard Time),731843.200000003,165_m_m_h_a.png,I,z,1535,7,1,2563.2999999970198,729279.900000006,9030,VNB,A,5
2,test,1,1.0,2-Back,0.0,m,Thu Nov 13 2025 14:25:11 GMT-0500 (Eastern Standard Time),734893.1000000089,071_y_f_n_a.png,I,None,2016,8,1,3031.4000000059605,731861.700000003,9030,VNB,A,6
3,test,1,0.0,2-Back,1.0,z,Thu Nov 13 2025 14:25:11 GMT-0500 (Eastern Standard Time),737376.3000000119,124_o_f_h_a.png,I,z,1438,9,1,2463.1000000089407,734913.200000003,9030,VNB,A,7
4,test,1,0.0,2-Back,1.0,m,Thu Nov 13 2025 14:25:11 GMT-0500 (Eastern Standard Time),740309.8000000119,039_o_m_d_a.png,I,m,1899,10,1,2915.0,737394.8000000119,9030,VNB,A,8
4,test,1,1.0,2-Back,0.0,m,Thu Nov 13 2025 14:25:11 GMT-0500 (Eastern Standard Time),743359.700000003,165_m_m_d_a.png,I,None,2017,11,1,3031.0999999940395,740328.6000000089,9030,VNB,A,9
5,test,1,0.0,2-Back,1.0,m,Thu Nov 13 2025 14:25:11 GMT-0500 (Eastern Standard Time),746293.1000000089,139_m_f_n_a.png,I,m,1884,12,1,2911.5,743381.6000000089,9030,VNB,A,10
5,test,1,0.0,2-Back,0.0,m,Thu Nov 13 2025 14:25:11 GMT-0500 (Eastern Standard Time),749009.6000000089,071_y_f_h_a.png,I,z,1670,13,1,2693.7000000029802,746315.900000006,9030,VNB,A,11
5,test,1,0.0,2-Back,0.0,z,Thu Nov 13 2025 14:25:11 GMT-0500 (Eastern Standard Time),750759.6000000089,165_m_m_n_a.png,I,m,713,14,1,1722.1000000089407,749037.5,9030,VNB,A,12
6,test,1,0.0,2-Back,1.0,m,Thu Nov 13 2025 14:25:11 GMT-0500 (Eastern Standard Time),753142.900000006,109_y_m_d_a.png,I,m,1348,15,1,2364.5999999940395,750778.3000000119,9030,VNB,A,13
6,test,1,1.0,2-Back,0.0,m,Thu Nov 13 2025 14:25:11 GMT-0500 (Eastern Standard Time),755409.6000000089,139_m_f_h_a.png,I,z,1220,16,1,2247.0,753162.6000000089,9030,VNB,A,14
6,test,1,0.0,2-Back,0.0,z,Thu Nov 13 2025 14:25:11 GMT-0500 (Eastern Standard Time),757126.0,124_o_f_d_a.png,I,m,681,17,1,1695.199999988079,755430.8000000119,9030,VNB,A,15
7,test,1,0.0,2-Back,1.0,m,Thu Nov 13 2025 14:25:11 GMT-0500 (Eastern Standard Time),759192.900000006,039_o_m_n_a.png,I,m,1029,18,1,2047.0,757145.900000006,9030,VNB,A,16
0,test,2,0.0,2-Back,,,Thu Nov 13 2025 14:25:11 GMT-0500 (Eastern Standard Time),759192.900000006,165_m_m_h_a.png,I,space,5187,1,1,2047.0,757145.900000006,9030,VNB,A,0
0,test,2,0.0,2-Back,,,Thu Nov 13 2025 14:25:11 GMT-0500 (Eastern Standard Time),759192.900000006,071_y_f_n_a.png,I,space,5187,2,1,2047.0,757145.900000006,9030,VNB,A,0
1,test,2,1.0,2-Back,1.0,z,Thu Nov 13 2025 14:25:11 GMT-0500 (Eastern Standard Time),771659.200000003,124_o_f_h_a.png,I,z,1075,3,1,2091.3999999910593,769567.8000000119,9030,VNB,A,1
2,test,2,0.0,2-Back,1.0,m,Thu Nov 13 2025 14:25:11 GMT-0500 (Eastern Standard Time),774176.3000000119,039_o_m_d_a.png,I,m,1488,4,1,2502.1000000089407,771674.200000003,9030,VNB,A,2
2,test,2,0.0,2-Back,0.0,m,Thu Nov 13 2025 14:25:11 GMT-0500 (Eastern Standard Time),777159.400000006,139_m_f_d_a.png,I,z,1947,5,1,2952.5999999940395,774206.8000000119,9030,VNB,A,3
2,test,2,0.0,2-Back,0.0,m,Thu Nov 13 2025 14:25:11 GMT-0500 (Eastern Standard Time),780209.6000000089,109_y_m_h_a.png,I,None,2015,6,1,3029.0,777180.6000000089,9030,VNB,A,4
2,test,2,0.0,2-Back,0.0,m,Thu Nov 13 2025 14:25:11 GMT-0500 (Eastern Standard Time),782559.6000000089,124_o_f_n_a.png,I,z,1306,7,1,2331.2000000029802,780228.400000006,9030,VNB,A,5
3,test,2,1.0,2-Back,1.0,z,Thu Nov 13 2025 14:25:11 GMT-0500 (Eastern Standard Time),785526.1000000089,039_o_m_h_a.png,I,z,1932,8,1,2947.2999999970198,782578.8000000119,9030,VNB,A,6
4,test,2,0.0,2-Back,1.0,m,Thu Nov 13 2025 14:25:11 GMT-0500 (Eastern Standard Time),788142.8000000119,071_y_f_d_a.png,I,m,1573,9,1,2594.2000000029802,785548.6000000089,9030,VNB,A,7
4,test,2,0.0,2-Back,0.0,m,Thu Nov 13 2025 14:25:11 GMT-0500 (Eastern Standard Time),791192.700000003,109_y_m_d_a.png,I,None,2016,10,1,3030.7000000029802,788162.0,9030,VNB,A,8
5,test,2,0.0,2-Back,1.0,m,Thu Nov 13 2025 14:25:11 GMT-0500 (Eastern Standard Time),793409.5,165_m_m_n_a.png,I,m,1170,11,1,2197.699999988079,791211.8000000119,9030,VNB,A,9
5,test,2,0.0,2-Back,0.0,m,Thu Nov 13 2025 14:25:11 GMT-0500 (Eastern Standard Time),795726.200000003,139_m_f_h_a.png,I,z,1274,12,1,2297.7000000029802,793428.5,9030,VNB,A,10
5,test,2,1.0,2-Back,0.0,z,Thu Nov 13 2025 14:25:11 GMT-0500 (Eastern Standard Time),798592.900000006,039_o_m_n_a.png,I,m,1821,13,1,2848.0,795744.900000006,9030,VNB,A,11
6,test,2,0.0,2-Back,1.0,m,Thu Nov 13 2025 14:25:11 GMT-0500 (Eastern Standard Time),801326.3000000119,124_o_f_d_a.png,I,m,1690,14,1,2714.5,798611.8000000119,9030,VNB,A,12
6,test,2,0.0,2-Back,0.0,m,Thu Nov 13 2025 14:25:11 GMT-0500 (Eastern Standard Time),803176.200000003,071_y_f_h_a.png,I,z,813,15,1,1829.8999999910593,801346.3000000119,9030,VNB,A,13
6,test,2,0.0,2-Back,0.0,z,Thu Nov 13 2025 14:25:11 GMT-0500 (Eastern Standard Time),805942.6000000089,165_m_m_d_a.png,I,m,1731,16,1,2747.2999999970198,803195.3000000119,9030,VNB,A,14
6,test,2,0.0,2-Back,0.0,m,Thu Nov 13 2025 14:25:11 GMT-0500 (Eastern Standard Time),808993.0,109_y_m_n_a.png,I,None,2016,17,1,3031.699999988079,805961.3000000119,9030,VNB,A,15
6,test,2,1.0,2-Back,0.0,m,Thu Nov 13 2025 14:25:11 GMT-0500 (Eastern Standard Time),812009.5,139_m_f_n_a.png,I,z,1978,18,1,2992.5999999940395,809016.900000006,9030,VNB,A,16
0,test,3,1.0,2-Back,,,Thu Nov 13 2025 14:25:11 GMT-0500 (Eastern Standard Time),812009.5,039_o_m_n_a.png,I,space,2761,1,1,2992.5999999940395,809016.900000006,9030,VNB,A,0
0,test,3,1.0,2-Back,,,Thu Nov 13 2025 14:25:11 GMT-0500 (Eastern Standard Time),812009.5,124_o_f_d_a.png,I,space,2761,2,1,2992.5999999940395,809016.900000006,9030,VNB,A,0
1,test,3,0.0,2-Back,1.0,m,Thu Nov 13 2025 14:25:11 GMT-0500 (Eastern Standard Time),822042.900000006,071_y_f_h_a.png,I,m,1144,3,1,2164.2000000029802,819878.700000003,9030,VNB,A,1
1,test,3,0.0,2-Back,0.0,z,Thu Nov 13 2025 14:25:11 GMT-0500 (Eastern Standard Time),824376.1000000089,139_m_f_d_a.png,I,m,1296,4,1,2312.7000000029802,822063.400000006,9030,VNB,A,2
1,test,3,1.0,2-Back,0.0,m,Thu Nov 13 2025 14:25:11 GMT-0500 (Eastern Standard Time),826642.8000000119,109_y_m_n_a.png,I,z,1218,5,1,2246.0,824396.8000000119,9030,VNB,A,3
1,test,3,0.0,2-Back,0.0,m,Thu Nov 13 2025 14:25:11 GMT-0500 (Eastern Standard Time),829493.0,039_o_m_h_a.png,I,z,1816,6,1,2830.7999999970198,826662.200000003,9030,VNB,A,4
1,test,3,0.0,2-Back,0.0,z,Thu Nov 13 2025 14:25:11 GMT-0500 (Eastern Standard Time),832276.200000003,071_y_f_n_a.png,I,m,1735,7,1,2763.7000000029802,829512.5,9030,VNB,A,5
2,test,3,1.0,2-Back,1.0,m,Thu Nov 13 2025 14:25:11 GMT-0500 (Eastern Standard Time),834976.3000000119,165_m_m_d_a.png,I,m,1655,8,1,2679.0,832297.3000000119,9030,VNB,A,6
3,test,3,0.0,2-Back,1.0,m,Thu Nov 13 2025 14:25:11 GMT-0500 (Eastern Standard Time),837693.0,109_y_m_d_a.png,I,m,1675,9,1,2688.0999999940395,835004.900000006,9030,VNB,A,7
3,test,3,0.0,2-Back,0.0,m,Thu Nov 13 2025 14:25:11 GMT-0500 (Eastern Standard Time),839642.8000000119,124_o_f_h_a.png,I,z,909,10,1,1930.6000000089407,837712.200000003,9030,VNB,A,8
3,test,3,1.0,2-Back,0.0,m,Thu Nov 13 2025 14:25:11 GMT-0500 (Eastern Standard Time),842476.200000003,139_m_f_n_a.png,I,z,1792,11,1,2814.5999999940395,839661.6000000089,9030,VNB,A,9
3,test,3,1.0,2-Back,0.0,z,Thu Nov 13 2025 14:25:11 GMT-0500 (Eastern Standard Time),845125.900000006,165_m_m_h_a.png,I,m,1615,12,1,2629.2000000029802,842496.700000003,9030,VNB,A,10
4,test,3,0.0,2-Back,1.0,m,Thu Nov 13 2025 14:25:11 GMT-0500 (Eastern Standard Time),847476.200000003,071_y_f_d_a.png,I,m,1300,13,1,2322.5999999940395,845153.6000000089,9030,VNB,A,11
4,test,3,0.0,2-Back,0.0,m,Thu Nov 13 2025 14:25:11 GMT-0500 (Eastern Standard Time),849742.900000006,124_o_f_n_a.png,I,z,1222,14,1,2247.5999999940395,847495.3000000119,9030,VNB,A,12
4,test,3,0.0,2-Back,0.0,z,Thu Nov 13 2025 14:25:11 GMT-0500 (Eastern Standard Time),852209.5,039_o_m_d_a.png,I,m,1419,15,1,2447.0,849762.5,9030,VNB,A,13
4,test,3,1.0,2-Back,0.0,m,Thu Nov 13 2025 14:25:11 GMT-0500 (Eastern Standard Time),854459.5,139_m_f_h_a.png,I,z,1210,16,1,2231.0999999940395,852228.400000006,9030,VNB,A,14
4,test,3,0.0,2-Back,0.0,m,Thu Nov 13 2025 14:25:11 GMT-0500 (Eastern Standard Time),856926.200000003,165_m_m_n_a.png,I,z,1423,17,1,2447.0999999940395,854479.1000000089,9030,VNB,A,15
5,test,3,0.0,2-Back,1.0,z,Thu Nov 13 2025 14:25:11 GMT-0500 (Eastern Standard Time),859942.6000000089,109_y_m_h_a.png,I,z,1980,18,1,2995.2999999970198,856947.3000000119,9030,VNB,A,16
0,test,4,0.0,2-Back,,,Thu Nov 13 2025 14:25:11 GMT-0500 (Eastern Standard Time),859942.6000000089,139_m_f_n_a.png,I,space,2533,1,1,2995.2999999970198,856947.3000000119,9030,VNB,A,0
0,test,4,0.0,2-Back,,,Thu Nov 13 2025 14:25:11 GMT-0500 (Eastern Standard Time),859942.6000000089,039_o_m_n_a.png,I,space,2533,2,1,2995.2999999970198,856947.3000000119,9030,VNB,A,0
1,test,4,1.0,2-Back,1.0,m,Thu Nov 13 2025 14:25:11 GMT-0500 (Eastern Standard Time),869759.5,109_y_m_h_a.png,I,m,1106,3,1,2131.2999999970198,867628.200000003,9030,VNB,A,1
1,test,4,1.0,2-Back,0.0,m,Thu Nov 13 2025 14:25:11 GMT-0500 (Eastern Standard Time),872559.400000006,124_o_f_d_a.png,I,z,1756,4,1,2780.4000000059605,869779.0,9030,VNB,A,2
1,test,4,0.0,2-Back,0.0,z,Thu Nov 13 2025 14:25:11 GMT-0500 (Eastern Standard Time),875092.8000000119,039_o_m_h_a.png,I,m,1483,5,1,2514.2000000029802,872578.6000000089,9030,VNB,A,3
1,test,4,0.0,2-Back,0.0,m,Thu Nov 13 2025 14:25:11 GMT-0500 (Eastern Standard Time),877276.200000003,165_m_m_n_a.png,I,z,1141,6,1,2163.3999999910593,875112.8000000119,9030,VNB,A,4
2,test,4,0.0,2-Back,1.0,m,Thu Nov 13 2025 14:25:11 GMT-0500 (Eastern Standard Time),879592.400000006,139_m_f_d_a.png,I,m,1278,7,1,2296.5999999940395,877295.8000000119,9030,VNB,A,5
2,test,4,0.0,2-Back,0.0,z,Thu Nov 13 2025 14:25:11 GMT-0500 (Eastern Standard Time),882475.700000003,071_y_f_n_a.png,I,m,1841,8,1,2863.5999999940395,879612.1000000089,9030,VNB,A,6
3,test,4,1.0,2-Back,1.0,m,Thu Nov 13 2025 14:25:11 GMT-0500 (Eastern Standard Time),885009.5,124_o_f_h_a.png,I,m,1503,9,1,2517.5999999940395,882491.900000006,9030,VNB,A,7
3,test,4,0.0,2-Back,0.0,m,Thu Nov 13 2025 14:25:11 GMT-0500 (Eastern Standard Time),887642.8000000119,165_m_m_h_a.png,I,z,1593,10,1,2614.300000011921,885028.5,9030,VNB,A,8
4,test,4,0.0,2-Back,1.0,m,Thu Nov 13 2025 14:25:11 GMT-0500 (Eastern Standard Time),890026.1000000089,071_y_f_d_a.png,I,m,1343,11,1,2363.7999999970198,887662.3000000119,9030,VNB,A,9
4,test,4,0.0,2-Back,0.0,m,Thu Nov 13 2025 14:25:11 GMT-0500 (Eastern Standard Time),892092.700000003,109_y_m_n_a.png,I,z,1025,12,1,2047.5,890045.200000003,9030,VNB,A,10
4,test,4,0.0,2-Back,0.0,z,Thu Nov 13 2025 14:25:11 GMT-0500 (Eastern Standard Time),894342.5,039_o_m_d_a.png,I,m,1214,13,1,2230.7999999970198,892111.700000003,9030,VNB,A,11
4,test,4,1.0,2-Back,0.0,m,Thu Nov 13 2025 14:25:11 GMT-0500 (Eastern Standard Time),896426.1000000089,139_m_f_h_a.png,I,z,1043,14,1,2065.2999999970198,894360.8000000119,9030,VNB,A,12
4,test,4,1.0,2-Back,0.0,m,Thu Nov 13 2025 14:25:11 GMT-0500 (Eastern Standard Time),898892.8000000119,071_y_f_h_a.png,I,z,1425,15,1,2438.6000000089407,896454.200000003,9030,VNB,A,13
4,test,4,0.0,2-Back,0.0,m,Thu Nov 13 2025 14:25:11 GMT-0500 (Eastern Standard Time),901759.3000000119,124_o_f_n_a.png,I,z,1821,16,1,2847.300000011921,898912.0,9030,VNB,A,14
5,test,4,0.0,2-Back,1.0,m,Thu Nov 13 2025 14:25:11 GMT-0500 (Eastern Standard Time),904159.3000000119,109_y_m_d_a.png,I,m,1355,17,1,2380.300000011921,901779.0,9030,VNB,A,15
5,test,4,1.0,2-Back,0.0,m,Thu Nov 13 2025 14:25:11 GMT-0500 (Eastern Standard Time),907042.8000000119,165_m_m_d_a.png,I,z,1836,18,1,2864.4000000059605,904178.400000006,9030,VNB,A,16
0,test,5,1.0,2-Back,,,Thu Nov 13 2025 14:25:11 GMT-0500 (Eastern Standard Time),907042.8000000119,071_y_f_d_a.png,I,space,3104,1,1,2864.4000000059605,904178.400000006,9030,VNB,A,0
0,test,5,1.0,2-Back,,,Thu Nov 13 2025 14:25:11 GMT-0500 (Eastern Standard Time),907042.8000000119,124_o_f_h_a.png,I,space,3104,2,1,2864.4000000059605,904178.400000006,9030,VNB,A,0
0,test,5,1.0,2-Back,0.0,z,Thu Nov 13 2025 14:25:11 GMT-0500 (Eastern Standard Time),917509.400000006,039_o_m_d_a.png,I,m,1150,3,1,2180.5,915328.900000006,9030,VNB,A,1
0,test,5,1.0,2-Back,0.0,m,Thu Nov 13 2025 14:25:11 GMT-0500 (Eastern Standard Time),920509.5,139_m_f_n_a.png,I,z,1957,4,1,2981.0,917528.5,9030,VNB,A,2
0,test,5,0.0,2-Back,0.0,m,Thu Nov 13 2025 14:25:11 GMT-0500 (Eastern Standard Time),923292.8000000119,165_m_m_h_a.png,I,z,1742,5,1,2754.300000011921,920538.5,9030,VNB,A,3
0,test,5,0.0,2-Back,0.0,z,Thu Nov 13 2025 14:25:11 GMT-0500 (Eastern Standard Time),925859.400000006,071_y_f_n_a.png,I,m,1517,6,1,2543.5999999940395,923315.8000000119,9030,VNB,A,4
0,test,5,0.0,2-Back,0.0,m,Thu Nov 13 2025 14:25:11 GMT-0500 (Eastern Standard Time),928909.5,124_o_f_d_a.png,I,None,2016,7,1,3030.699999988079,925878.8000000119,9030,VNB,A,5
0,test,5,0.0,2-Back,0.0,m,Thu Nov 13 2025 14:25:11 GMT-0500 (Eastern Standard Time),931576.0,039_o_m_h_a.png,I,z,1629,8,1,2647.5,928928.5,9030,VNB,A,6
1,test,5,1.0,2-Back,1.0,z,Thu Nov 13 2025 14:25:11 GMT-0500 (Eastern Standard Time),934142.700000003,139_m_f_d_a.png,I,z,1522,9,1,2546.7999999970198,931595.900000006,9030,VNB,A,7
1,test,5,0.0,2-Back,0.0,m,Thu Nov 13 2025 14:25:11 GMT-0500 (Eastern Standard Time),936942.8000000119,109_y_m_n_a.png,I,z,1755,10,1,2779.7000000029802,934163.1000000089,9030,VNB,A,8
2,test,5,0.0,2-Back,1.0,m,Thu Nov 13 2025 14:25:11 GMT-0500 (Eastern Standard Time),939875.700000003,165_m_m_n_a.png,I,m,1887,11,1,2912.0,936963.700000003,9030,VNB,A,9
2,test,5,0.0,2-Back,0.0,m,Thu Nov 13 2025 14:25:11 GMT-0500 (Eastern Standard Time),942259.400000006,071_y_f_h_a.png,I,z,1351,12,1,2368.2999999970198,939891.1000000089,9030,VNB,A,10
3,test,5,0.0,2-Back,1.0,m,Thu Nov 13 2025 14:25:11 GMT-0500 (Eastern Standard Time),944542.700000003,109_y_m_d_a.png,I,m,1239,13,1,2254.3999999910593,942288.3000000119,9030,VNB,A,11
4,test,5,1.0,2-Back,1.0,z,Thu Nov 13 2025 14:25:11 GMT-0500 (Eastern Standard Time),946809.3000000119,139_m_f_h_a.png,I,z,1227,14,1,2245.300000011921,944564.0,9030,VNB,A,12
4,test,5,0.0,2-Back,0.0,m,Thu Nov 13 2025 14:25:11 GMT-0500 (Eastern Standard Time),949176.0,039_o_m_n_a.png,I,z,1329,15,1,2347.5,946828.5,9030,VNB,A,13
5,test,5,0.0,2-Back,1.0,m,Thu Nov 13 2025 14:25:11 GMT-0500 (Eastern Standard Time),951442.8000000119,165_m_m_d_a.png,I,m,1219,16,1,2237.0,949205.8000000119,9030,VNB,A,14
5,test,5,0.0,2-Back,0.0,z,Thu Nov 13 2025 14:25:11 GMT-0500 (Eastern Standard Time),953726.0,124_o_f_n_a.png,I,m,1239,17,1,2263.5,951462.5,9030,VNB,A,15
5,test,5,1.0,2-Back,0.0,m,Thu Nov 13 2025 14:25:11 GMT-0500 (Eastern Standard Time),956159.3000000119,109_y_m_h_a.png,I,z,1388,18,1,2415.0,953744.3000000119,9030,VNB,A,16
