acc_sum,block,block_c,change,condition,correct,correct_response,datetime,endtime,face,project,response,response_time,row_sel,session_number,start_end,starttime,subject_id,task,task_vers,trial
0,prac,1,,1-Back,,,Thu Aug 21 2025 14:11:58 GMT-0500 (Central Daylight Time),,012_o_f_d_a.png,I,space,6900,1,3,,,8030,VNB,C,0
1,prac,1,0.0,1-Back,1.0,m,Thu Aug 21 2025 14:11:58 GMT-0500 (Central Daylight Time),123702.60000002384,022_y_f_n_a.png,I,m,1171,2,3,2056.100000023842,121646.5,8030,VNB,C,1
2,prac,1,0.0,1-Back,1.0,m,Thu Aug 21 2025 14:11:58 GMT-0500 (Central Daylight Time),126035.19999992847,014_m_m_h_a.png,I,m,1450,3,3,2324.2999999523163,123710.89999997616,8030,VNB,C,2
3,prac,1,0.0,1-Back,1.0,m,Thu Aug 21 2025 14:11:58 GMT-0500 (Central Daylight Time),127719.29999995232,025_y_m_d_a.png,I,m,829,4,3,1676.1999999284744,126043.10000002384,8030,VNB,C,3
4,prac,1,0.0,1-Back,1.0,m,Thu Aug 21 2025 14:11:58 GMT-0500 (Central Daylight Time),130117.29999995232,012_o_f_n_a.png,I,m,1512,5,3,2387.6999999284744,127729.60000002384,8030,VNB,C,4
5,prac,1,1.0,1-Back,1.0,z,Thu Aug 21 2025 14:11:58 GMT-0500 (Central Daylight Time),132134.10000002384,025_y_m_n_a.png,I,z,1154,6,3,2008.2000000476837,130125.89999997616,8030,VNB,C,5
6,prac,1,0.0,1-Back,1.0,m,Thu Aug 21 2025 14:11:58 GMT-0500 (Central Daylight Time),133982.69999992847,015_o_m_h_a.png,I,m,952,7,3,1839.0999999046326,132143.60000002384,8030,VNB,C,6
7,prac,1,0.0,1-Back,1.0,m,Thu Aug 21 2025 14:11:58 GMT-0500 (Central Daylight Time),135965.39999997616,019_m_f_d_a.png,I,m,1096,8,3,1973.0,133992.39999997616,8030,VNB,C,7
8,prac,1,1.0,1-Back,1.0,z,Thu Aug 21 2025 14:11:58 GMT-0500 (Central Daylight Time),137831.5,022_y_f_d_a.png,I,z,970,9,3,1857.0,135974.5,8030,VNB,C,8
9,prac,1,0.0,1-Back,1.0,m,Thu Aug 21 2025 14:11:58 GMT-0500 (Central Daylight Time),139564.29999995232,014_m_m_n_a.png,I,m,859,10,3,1724.1000000238419,137840.19999992847,8030,VNB,C,9
9,prac,1,0.0,1-Back,0.0,m,Thu Aug 21 2025 14:11:58 GMT-0500 (Central Daylight Time),141713.5,012_o_f_h_a.png,I,z,1269,11,3,2140.899999976158,139572.60000002384,8030,VNB,C,10
9,prac,1,0.0,1-Back,0.0,m,Thu Aug 21 2025 14:11:58 GMT-0500 (Central Daylight Time),143863.10000002384,025_y_m_d_a.png,I,z,1282,12,3,2140.0,141723.10000002384,8030,VNB,C,11
0,test,1,0.0,1-Back,,,Thu Aug 21 2025 14:11:58 GMT-0500 (Central Daylight Time),143863.10000002384,022_y_f_d_a.png,I,space,3191,1,3,2140.0,141723.10000002384,8030,VNB,C,0
1,test,1,0.0,1-Back,1.0,m,Thu Aug 21 2025 14:11:58 GMT-0500 (Central Daylight Time),172520.39999997616,019_m_f_n_a.png,I,m,1255,2,3,2276.5,170243.89999997616,8030,VNB,C,1
1,test,1,0.0,1-Back,0.0,m,Thu Aug 21 2025 14:11:58 GMT-0500 (Central Daylight Time),175036.39999997616,015_o_m_h_a.png,I,z,1491,3,3,2510.0,172526.39999997616,8030,VNB,C,2
2,test,1,1.0,1-Back,1.0,z,Thu Aug 21 2025 14:11:58 GMT-0500 (Central Daylight Time),177602.19999992847,014_m_m_h_a.png,I,z,1545,4,3,2560.1999999284744,175042.0,8030,VNB,C,3
3,test,1,0.0,1-Back,1.0,m,Thu Aug 21 2025 14:11:58 GMT-0500 (Central Daylight Time),179851.5,012_o_f_n_a.png,I,m,1228,5,3,2243.7000000476837,177607.79999995232,8030,VNB,C,4
4,test,1,0.0,1-Back,1.0,m,Thu Aug 21 2025 14:11:58 GMT-0500 (Central Daylight Time),181801.0,025_y_m_d_a.png,I,m,930,6,3,1944.6000000238419,179856.39999997616,8030,VNB,C,5
4,test,1,1.0,1-Back,0.0,z,Thu Aug 21 2025 14:11:58 GMT-0500 (Central Daylight Time),183633.60000002384,019_m_f_d_a.png,I,m,812,7,3,1826.0,181807.60000002384,8030,VNB,C,6
5,test,1,0.0,1-Back,1.0,m,Thu Aug 21 2025 14:11:58 GMT-0500 (Central Daylight Time),185932.89999997616,022_y_f_h_a.png,I,m,1277,8,3,2293.7000000476837,183639.19999992847,8030,VNB,C,7
6,test,1,0.0,1-Back,1.0,m,Thu Aug 21 2025 14:11:58 GMT-0500 (Central Daylight Time),188348.79999995232,015_o_m_n_a.png,I,m,1384,9,3,2409.600000023842,185939.19999992847,8030,VNB,C,8
6,test,1,0.0,1-Back,0.0,m,Thu Aug 21 2025 14:11:58 GMT-0500 (Central Daylight Time),190398.19999992847,025_y_m_h_a.png,I,z,1032,10,3,2043.2999999523163,188354.89999997616,8030,VNB,C,9
7,test,1,0.0,1-Back,1.0,m,Thu Aug 21 2025 14:11:58 GMT-0500 (Central Daylight Time),193032.60000002384,015_o_m_d_a.png,I,m,1600,11,3,2629.4000000953674,190403.19999992847,8030,VNB,C,10
7,test,1,1.0,1-Back,0.0,z,Thu Aug 21 2025 14:11:58 GMT-0500 (Central Daylight Time),195463.5,012_o_f_d_a.png,I,m,1415,12,3,2425.100000023842,193038.39999997616,8030,VNB,C,11
8,test,1,0.0,1-Back,1.0,m,Thu Aug 21 2025 14:11:58 GMT-0500 (Central Daylight Time),198162.29999995232,014_m_m_n_a.png,I,m,1671,13,3,2693.1999999284744,195469.10000002384,8030,VNB,C,12
8,test,1,1.0,1-Back,0.0,z,Thu Aug 21 2025 14:11:58 GMT-0500 (Central Daylight Time),201144.79999995232,022_y_f_n_a.png,I,m,1963,14,3,2976.6999999284744,198168.10000002384,8030,VNB,C,13
9,test,1,0.0,1-Back,1.0,m,Thu Aug 21 2025 14:11:58 GMT-0500 (Central Daylight Time),203160.79999995232,019_m_f_h_a.png,I,m,997,15,3,2010.0,201150.79999995232,8030,VNB,C,14
9,test,1,0.0,1-Back,0.0,m,Thu Aug 21 2025 14:11:58 GMT-0500 (Central Daylight Time),205694.89999997616,014_m_m_d_a.png,I,z,1500,16,3,2526.7000000476837,203168.19999992847,8030,VNB,C,15
10,test,1,0.0,1-Back,1.0,m,Thu Aug 21 2025 14:11:58 GMT-0500 (Central Daylight Time),208310.19999992847,025_y_m_n_a.png,I,m,1600,17,3,2609.1999999284744,205701.0,8030,VNB,C,16
11,test,1,0.0,1-Back,1.0,m,Thu Aug 21 2025 14:11:58 GMT-0500 (Central Daylight Time),210608.60000002384,012_o_f_h_a.png,I,m,1281,18,3,2293.7000000476837,208314.89999997616,8030,VNB,C,17
0,test,2,0.0,1-Back,,,Thu Aug 21 2025 14:11:58 GMT-0500 (Central Daylight Time),210608.60000002384,025_y_m_n_a.png,I,space,4245,1,3,2293.7000000476837,208314.89999997616,8030,VNB,C,0
1,test,2,0.0,1-Back,1.0,m,Thu Aug 21 2025 14:11:58 GMT-0500 (Central Daylight Time),218822.5,022_y_f_h_a.png,I,m,925,2,3,1943.2000000476837,216879.29999995232,8030,VNB,C,1
2,test,2,1.0,1-Back,1.0,m,Thu Aug 21 2025 14:11:58 GMT-0500 (Central Daylight Time),220938.5,015_o_m_n_a.png,I,m,1096,3,3,2110.7000000476837,218827.79999995232,8030,VNB,C,2
3,test,2,0.0,1-Back,1.0,m,Thu Aug 21 2025 14:11:58 GMT-0500 (Central Daylight Time),223487.89999997616,019_m_f_d_a.png,I,m,1524,4,3,2543.600000023842,220944.29999995232,8030,VNB,C,3
4,test,2,0.0,1-Back,1.0,z,Thu Aug 21 2025 14:11:58 GMT-0500 (Central Daylight Time),225787.10000002384,014_m_m_d_a.png,I,z,1268,5,3,2292.5,223494.60000002384,8030,VNB,C,4
5,test,2,0.0,1-Back,1.0,m,Thu Aug 21 2025 14:11:58 GMT-0500 (Central Daylight Time),227904.0,025_y_m_h_a.png,I,m,1098,6,3,2111.3000000715256,225792.69999992847,8030,VNB,C,5
6,test,2,1.0,1-Back,1.0,z,Thu Aug 21 2025 14:11:58 GMT-0500 (Central Daylight Time),229902.39999997616,012_o_f_h_a.png,I,z,974,7,3,1992.3999999761581,227910.0,8030,VNB,C,6
7,test,2,0.0,1-Back,1.0,m,Thu Aug 21 2025 14:11:58 GMT-0500 (Central Daylight Time),231936.10000002384,019_m_f_n_a.png,I,m,1015,8,3,2028.1000000238419,229908.0,8030,VNB,C,7
8,test,2,0.0,1-Back,1.0,m,Thu Aug 21 2025 14:11:58 GMT-0500 (Central Daylight Time),233934.5,022_y_f_d_a.png,I,m,974,9,3,1992.6000000238419,231941.89999997616,8030,VNB,C,8
9,test,2,0.0,1-Back,1.0,m,Thu Aug 21 2025 14:11:58 GMT-0500 (Central Daylight Time),236667.19999992847,014_m_m_n_a.png,I,m,1711,10,3,2726.899999976158,233940.29999995232,8030,VNB,C,9
10,test,2,1.0,1-Back,1.0,m,Thu Aug 21 2025 14:11:58 GMT-0500 (Central Daylight Time),239116.19999992847,019_m_f_h_a.png,I,m,1426,11,3,2443.2999999523163,236672.89999997616,8030,VNB,C,10
10,test,2,0.0,1-Back,0.0,z,Thu Aug 21 2025 14:11:58 GMT-0500 (Central Daylight Time),241048.79999995232,015_o_m_h_a.png,I,m,913,12,3,1927.0,239121.79999995232,8030,VNB,C,11
11,test,2,0.0,1-Back,1.0,m,Thu Aug 21 2025 14:11:58 GMT-0500 (Central Daylight Time),243281.5,025_y_m_d_a.png,I,m,1204,13,3,2228.0,241053.5,8030,VNB,C,12
12,test,2,0.0,1-Back,1.0,m,Thu Aug 21 2025 14:11:58 GMT-0500 (Central Daylight Time),245730.79999995232,012_o_f_n_a.png,I,m,1429,14,3,2443.6999999284744,243287.10000002384,8030,VNB,C,13
12,test,2,0.0,1-Back,0.0,z,Thu Aug 21 2025 14:11:58 GMT-0500 (Central Daylight Time),248081.60000002384,022_y_f_n_a.png,I,m,1322,15,3,2346.0,245735.60000002384,8030,VNB,C,14
13,test,2,1.0,1-Back,1.0,m,Thu Aug 21 2025 14:11:58 GMT-0500 (Central Daylight Time),250995.79999995232,014_m_m_h_a.png,I,m,1885,16,3,2909.100000023842,248086.69999992847,8030,VNB,C,15
13,test,2,0.0,1-Back,0.0,m,Thu Aug 21 2025 14:11:58 GMT-0500 (Central Daylight Time),254029.0,012_o_f_d_a.png,I,None,2016,17,3,3026.3000000715256,251002.69999992847,8030,VNB,C,16
13,test,2,1.0,1-Back,0.0,z,Thu Aug 21 2025 14:11:58 GMT-0500 (Central Daylight Time),257060.60000002384,015_o_m_d_a.png,I,None,2016,18,3,3026.2000000476837,254034.39999997616,8030,VNB,C,17
0,test,3,1.0,1-Back,,,Thu Aug 21 2025 14:11:58 GMT-0500 (Central Daylight Time),257060.60000002384,012_o_f_h_a.png,I,space,2081,1,3,3026.2000000476837,254034.39999997616,8030,VNB,C,0
1,test,3,0.0,1-Back,1.0,m,Thu Aug 21 2025 14:11:58 GMT-0500 (Central Daylight Time),263308.5,019_m_f_d_a.png,I,m,1026,2,3,2043.2000000476837,261265.29999995232,8030,VNB,C,1
2,test,3,1.0,1-Back,1.0,m,Thu Aug 21 2025 14:11:58 GMT-0500 (Central Daylight Time),265691.2999999523,014_m_m_n_a.png,I,m,1362,3,3,2377.7999999523163,263313.5,8030,VNB,C,2
3,test,3,0.0,1-Back,1.0,z,Thu Aug 21 2025 14:11:58 GMT-0500 (Central Daylight Time),267607.39999997616,012_o_f_n_a.png,I,z,891,4,3,1910.5,265696.89999997616,8030,VNB,C,3
4,test,3,1.0,1-Back,1.0,m,Thu Aug 21 2025 14:11:58 GMT-0500 (Central Daylight Time),270089.89999997616,015_o_m_d_a.png,I,m,1454,5,3,2476.7000000476837,267613.1999999285,8030,VNB,C,4
5,test,3,0.0,1-Back,1.0,m,Thu Aug 21 2025 14:11:58 GMT-0500 (Central Daylight Time),272855.6999999285,022_y_f_h_a.png,I,m,1739,6,3,2759.6999999284744,270096.0,8030,VNB,C,5
6,test,3,0.0,1-Back,1.0,z,Thu Aug 21 2025 14:11:58 GMT-0500 (Central Daylight Time),274805.10000002384,025_y_m_h_a.png,I,z,917,7,3,1943.6000000238419,272861.5,8030,VNB,C,6
7,test,3,0.0,1-Back,1.0,m,Thu Aug 21 2025 14:11:58 GMT-0500 (Central Daylight Time),276754.5,019_m_f_n_a.png,I,m,921,8,3,1943.6000000238419,274810.89999997616,8030,VNB,C,7
8,test,3,0.0,1-Back,1.0,m,Thu Aug 21 2025 14:11:58 GMT-0500 (Central Daylight Time),278703.7999999523,022_y_f_d_a.png,I,m,931,9,3,1943.5,276760.2999999523,8030,VNB,C,8
9,test,3,1.0,1-Back,1.0,m,Thu Aug 21 2025 14:11:58 GMT-0500 (Central Daylight Time),281336.39999997616,015_o_m_n_a.png,I,m,1605,10,3,2626.899999976158,278709.5,8030,VNB,C,9
10,test,3,0.0,1-Back,1.0,m,Thu Aug 21 2025 14:11:58 GMT-0500 (Central Daylight Time),283502.1999999285,014_m_m_h_a.png,I,m,1141,11,3,2160.399999976158,281341.7999999523,8030,VNB,C,10
11,test,3,0.0,1-Back,1.0,z,Thu Aug 21 2025 14:11:58 GMT-0500 (Central Daylight Time),285634.89999997616,019_m_f_h_a.png,I,z,1075,12,3,2127.5,283507.39999997616,8030,VNB,C,11
12,test,3,1.0,1-Back,1.0,m,Thu Aug 21 2025 14:11:58 GMT-0500 (Central Daylight Time),287567.60000002384,012_o_f_d_a.png,I,m,907,13,3,1927.1000000238419,285640.5,8030,VNB,C,12
13,test,3,0.0,1-Back,1.0,z,Thu Aug 21 2025 14:11:58 GMT-0500 (Central Daylight Time),289433.7999999523,014_m_m_d_a.png,I,z,847,14,3,1860.6999999284744,287573.10000002384,8030,VNB,C,13
14,test,3,0.0,1-Back,1.0,m,Thu Aug 21 2025 14:11:58 GMT-0500 (Central Daylight Time),291766.39999997616,025_y_m_n_a.png,I,m,1307,15,3,2326.0,289440.39999997616,8030,VNB,C,14
15,test,3,1.0,1-Back,1.0,m,Thu Aug 21 2025 14:11:58 GMT-0500 (Central Daylight Time),293599.10000002384,015_o_m_h_a.png,I,m,807,16,3,1827.2000000476837,291771.89999997616,8030,VNB,C,15
16,test,3,0.0,1-Back,1.0,m,Thu Aug 21 2025 14:11:58 GMT-0500 (Central Daylight Time),295615.89999997616,025_y_m_d_a.png,I,m,998,17,3,2011.5,293604.39999997616,8030,VNB,C,16
17,test,3,1.0,1-Back,1.0,m,Thu Aug 21 2025 14:11:58 GMT-0500 (Central Daylight Time),297364.60000002384,022_y_f_n_a.png,I,m,726,18,3,1742.6000000238419,295622.0,8030,VNB,C,17
0,test,4,1.0,1-Back,,,Thu Aug 21 2025 14:11:58 GMT-0500 (Central Daylight Time),297364.60000002384,014_m_m_d_a.png,I,space,1458,1,3,1742.6000000238419,295622.0,8030,VNB,C,0
1,test,4,0.0,1-Back,1.0,z,Thu Aug 21 2025 14:11:58 GMT-0500 (Central Daylight Time),302746.2999999523,015_o_m_d_a.png,I,z,878,2,3,1893.7999999523163,300852.5,8030,VNB,C,1
2,test,4,0.0,1-Back,1.0,m,Thu Aug 21 2025 14:11:58 GMT-0500 (Central Daylight Time),304612.39999997616,025_y_m_h_a.png,I,m,844,3,3,1860.2000000476837,302752.1999999285,8030,VNB,C,2
3,test,4,0.0,1-Back,1.0,m,Thu Aug 21 2025 14:11:58 GMT-0500 (Central Daylight Time),306494.7999999523,019_m_f_n_a.png,I,m,865,4,3,1876.3999999761581,304618.39999997616,8030,VNB,C,3
4,test,4,1.0,1-Back,1.0,m,Thu Aug 21 2025 14:11:58 GMT-0500 (Central Daylight Time),308527.5,012_o_f_h_a.png,I,m,1006,5,3,2027.5,306500.0,8030,VNB,C,4
5,test,4,0.0,1-Back,1.0,m,Thu Aug 21 2025 14:11:58 GMT-0500 (Central Daylight Time),310360.2999999523,014_m_m_n_a.png,I,m,805,6,3,1827.1999999284744,308533.10000002384,8030,VNB,C,5
6,test,4,0.0,1-Back,1.0,m,Thu Aug 21 2025 14:11:58 GMT-0500 (Central Daylight Time),312359.60000002384,025_y_m_d_a.png,I,m,982,7,3,1992.8000000715256,310366.7999999523,8030,VNB,C,6
7,test,4,1.0,1-Back,1.0,z,Thu Aug 21 2025 14:11:58 GMT-0500 (Central Daylight Time),314175.89999997616,022_y_f_d_a.png,I,z,797,8,3,1810.6000000238419,312365.2999999523,8030,VNB,C,7
8,test,4,0.0,1-Back,1.0,m,Thu Aug 21 2025 14:11:58 GMT-0500 (Central Daylight Time),316142.10000002384,019_m_f_h_a.png,I,m,933,9,3,1961.2000000476837,314180.89999997616,8030,VNB,C,8
9,test,4,0.0,1-Back,1.0,z,Thu Aug 21 2025 14:11:58 GMT-0500 (Central Daylight Time),318174.6999999285,015_o_m_h_a.png,I,z,1015,10,3,2026.7999999523163,316147.89999997616,8030,VNB,C,9
10,test,4,1.0,1-Back,1.0,m,Thu Aug 21 2025 14:11:58 GMT-0500 (Central Daylight Time),320040.7999999523,012_o_f_n_a.png,I,m,839,11,3,1859.0,318181.7999999523,8030,VNB,C,10
11,test,4,0.0,1-Back,1.0,m,Thu Aug 21 2025 14:11:58 GMT-0500 (Central Daylight Time),322256.7999999523,019_m_f_d_a.png,I,m,1196,12,3,2211.0,320045.7999999523,8030,VNB,C,11
12,test,4,0.0,1-Back,1.0,m,Thu Aug 21 2025 14:11:58 GMT-0500 (Central Daylight Time),324089.5,022_y_f_n_a.png,I,m,813,13,3,1827.5,322262.0,8030,VNB,C,12
13,test,4,0.0,1-Back,1.0,m,Thu Aug 21 2025 14:11:58 GMT-0500 (Central Daylight Time),326322.2999999523,012_o_f_d_a.png,I,m,1212,14,3,2227.0,324095.2999999523,8030,VNB,C,13
14,test,4,0.0,1-Back,1.0,m,Thu Aug 21 2025 14:11:58 GMT-0500 (Central Daylight Time),328804.89999997616,022_y_f_h_a.png,I,m,1460,15,3,2477.100000023842,326327.7999999523,8030,VNB,C,14
15,test,4,1.0,1-Back,1.0,z,Thu Aug 21 2025 14:11:58 GMT-0500 (Central Daylight Time),330654.2999999523,014_m_m_h_a.png,I,z,833,16,3,1844.2999999523163,328810.0,8030,VNB,C,15
16,test,4,0.0,1-Back,1.0,m,Thu Aug 21 2025 14:11:58 GMT-0500 (Central Daylight Time),332553.5,015_o_m_n_a.png,I,m,880,17,3,1894.3000000715256,330659.1999999285,8030,VNB,C,16
17,test,4,1.0,1-Back,1.0,z,Thu Aug 21 2025 14:11:58 GMT-0500 (Central Daylight Time),334419.5,025_y_m_n_a.png,I,z,844,18,3,1860.6000000238419,332558.89999997616,8030,VNB,C,17
0,test,5,1.0,1-Back,,,Thu Aug 21 2025 14:11:58 GMT-0500 (Central Daylight Time),334419.5,015_o_m_n_a.png,I,space,1722,1,3,1860.6000000238419,332558.89999997616,8030,VNB,C,0
1,test,5,1.0,1-Back,1.0,m,Thu Aug 21 2025 14:11:58 GMT-0500 (Central Daylight Time),340001.1999999285,012_o_f_h_a.png,I,m,805,2,3,1826.7999999523163,338174.39999997616,8030,VNB,C,1
2,test,5,0.0,1-Back,1.0,m,Thu Aug 21 2025 14:11:58 GMT-0500 (Central Daylight Time),342283.89999997616,025_y_m_d_a.png,I,m,1260,3,3,2277.600000023842,340006.2999999523,8030,VNB,C,2
3,test,5,0.0,1-Back,1.0,z,Thu Aug 21 2025 14:11:58 GMT-0500 (Central Daylight Time),344049.6999999285,015_o_m_d_a.png,I,z,747,4,3,1760.0999999046326,342289.60000002384,8030,VNB,C,3
4,test,5,0.0,1-Back,1.0,m,Thu Aug 21 2025 14:11:58 GMT-0500 (Central Daylight Time),345866.10000002384,019_m_f_h_a.png,I,m,795,5,3,1811.0,344055.10000002384,8030,VNB,C,4
5,test,5,0.0,1-Back,1.0,m,Thu Aug 21 2025 14:11:58 GMT-0500 (Central Daylight Time),347715.5,022_y_f_n_a.png,I,m,827,6,3,1844.7000000476837,345870.7999999523,8030,VNB,C,5
6,test,5,1.0,1-Back,1.0,z,Thu Aug 21 2025 14:11:58 GMT-0500 (Central Daylight Time),349531.2999999523,012_o_f_n_a.png,I,z,786,7,3,1810.7999999523163,347720.5,8030,VNB,C,6
7,test,5,0.0,1-Back,1.0,m,Thu Aug 21 2025 14:11:58 GMT-0500 (Central Daylight Time),351281.0,019_m_f_d_a.png,I,m,730,8,3,1744.6000000238419,349536.39999997616,8030,VNB,C,7
8,test,5,0.0,1-Back,1.0,m,Thu Aug 21 2025 14:11:58 GMT-0500 (Central Daylight Time),353413.5,025_y_m_h_a.png,I,m,1108,9,3,2127.3000000715256,351286.1999999285,8030,VNB,C,8
9,test,5,0.0,1-Back,1.0,m,Thu Aug 21 2025 14:11:58 GMT-0500 (Central Daylight Time),355862.5,022_y_f_d_a.png,I,m,1432,10,3,2443.3000000715256,353419.1999999285,8030,VNB,C,9
10,test,5,0.0,1-Back,1.0,m,Thu Aug 21 2025 14:11:58 GMT-0500 (Central Daylight Time),357745.6999999285,014_m_m_n_a.png,I,m,862,11,3,1878.0,355867.6999999285,8030,VNB,C,10
11,test,5,1.0,1-Back,1.0,z,Thu Aug 21 2025 14:11:58 GMT-0500 (Central Daylight Time),359395.2999999523,019_m_f_n_a.png,I,z,628,12,3,1644.1000000238419,357751.1999999285,8030,VNB,C,11
12,test,5,0.0,1-Back,1.0,m,Thu Aug 21 2025 14:11:58 GMT-0500 (Central Daylight Time),361927.5,015_o_m_h_a.png,I,m,1506,13,3,2527.100000023842,359400.39999997616,8030,VNB,C,12
13,test,5,0.0,1-Back,1.0,z,Thu Aug 21 2025 14:11:58 GMT-0500 (Central Daylight Time),363710.39999997616,014_m_m_h_a.png,I,z,751,14,3,1777.7000000476837,361932.6999999285,8030,VNB,C,13
14,test,5,1.0,1-Back,1.0,m,Thu Aug 21 2025 14:11:58 GMT-0500 (Central Daylight Time),365509.89999997616,012_o_f_d_a.png,I,m,767,15,3,1793.7999999523163,363716.10000002384,8030,VNB,C,14
15,test,5,0.0,1-Back,1.0,m,Thu Aug 21 2025 14:11:58 GMT-0500 (Central Daylight Time),367242.60000002384,025_y_m_n_a.png,I,m,711,16,3,1725.6000000238419,365517.0,8030,VNB,C,15
16,test,5,0.0,1-Back,1.0,m,Thu Aug 21 2025 14:11:58 GMT-0500 (Central Daylight Time),369142.39999997616,022_y_f_h_a.png,I,m,883,17,3,1894.7000000476837,367247.6999999285,8030,VNB,C,16
17,test,5,0.0,1-Back,1.0,m,Thu Aug 21 2025 14:11:58 GMT-0500 (Central Daylight Time),371291.5,014_m_m_d_a.png,I,m,1120,18,3,2144.100000023842,369147.39999997616,8030,VNB,C,17
0,prac,1,0.0,2-Back,,,Thu Aug 21 2025 14:11:58 GMT-0500 (Central Daylight Time),371291.5,019_m_f_n_a.png,I,space,3889,1,3,2144.100000023842,369147.39999997616,8030,VNB,C,0
0,prac,1,0.0,2-Back,,,Thu Aug 21 2025 14:11:58 GMT-0500 (Central Daylight Time),371291.5,012_o_f_h_a.png,I,space,3889,2,3,2144.100000023842,369147.39999997616,8030,VNB,C,0
1,prac,1,0.0,2-Back,1.0,m,Thu Aug 21 2025 14:11:58 GMT-0500 (Central Daylight Time),465279.0,015_o_m_d_a.png,I,m,1474,3,3,2358.3000000715256,462920.6999999285,8030,VNB,C,1
2,prac,1,1.0,2-Back,1.0,z,Thu Aug 21 2025 14:11:58 GMT-0500 (Central Daylight Time),467127.89999997616,014_m_m_h_a.png,I,z,977,4,3,1841.3999999761581,465286.5,8030,VNB,C,2
2,prac,1,0.0,2-Back,0.0,m,Thu Aug 21 2025 14:11:58 GMT-0500 (Central Daylight Time),470027.0,022_y_f_n_a.png,I,None,2015,5,3,2889.7000000476837,467137.2999999523,8030,VNB,C,3
2,prac,1,1.0,2-Back,0.0,z,Thu Aug 21 2025 14:11:58 GMT-0500 (Central Daylight Time),472809.5,015_o_m_h_a.png,I,None,2008,6,3,2774.899999976158,470034.60000002384,8030,VNB,C,4
3,prac,1,1.0,2-Back,1.0,z,Thu Aug 21 2025 14:11:58 GMT-0500 (Central Daylight Time),474875.6999999285,025_y_m_n_a.png,I,z,1201,7,3,2058.5999999046326,472817.10000002384,8030,VNB,C,5
4,prac,1,0.0,2-Back,1.0,m,Thu Aug 21 2025 14:11:58 GMT-0500 (Central Daylight Time),477226.2999999523,019_m_f_d_a.png,I,m,1460,8,3,2343.6999999284744,474882.60000002384,8030,VNB,C,6
4,prac,1,0.0,2-Back,0.0,m,Thu Aug 21 2025 14:11:58 GMT-0500 (Central Daylight Time),479524.2999999523,012_o_f_d_a.png,I,z,1414,9,3,2291.0,477233.2999999523,8030,VNB,C,7
4,prac,1,0.0,2-Back,0.0,m,Thu Aug 21 2025 14:11:58 GMT-0500 (Central Daylight Time),481707.89999997616,014_m_m_h_a.png,I,z,1419,10,3,2177.100000023842,479530.7999999523,8030,VNB,C,8
5,prac,1,1.0,2-Back,1.0,z,Thu Aug 21 2025 14:11:58 GMT-0500 (Central Daylight Time),483889.2999999523,022_y_f_d_a.png,I,z,1293,11,3,2173.899999976158,481715.39999997616,8030,VNB,C,9
6,prac,1,0.0,2-Back,1.0,m,Thu Aug 21 2025 14:11:58 GMT-0500 (Central Daylight Time),486671.89999997616,015_o_m_n_a.png,I,m,1897,12,3,2774.899999976158,483897.0,8030,VNB,C,10
0,test,1,0.0,2-Back,,,Thu Aug 21 2025 14:11:58 GMT-0500 (Central Daylight Time),486671.89999997616,025_y_m_h_a.png,I,space,5090,1,3,2774.899999976158,483897.0,8030,VNB,C,0
0,test,1,0.0,2-Back,,,Thu Aug 21 2025 14:11:58 GMT-0500 (Central Daylight Time),486671.89999997616,012_o_f_n_a.png,I,space,5090,2,3,2774.899999976158,483897.0,8030,VNB,C,0
1,test,1,0.0,2-Back,1.0,z,Thu Aug 21 2025 14:11:58 GMT-0500 (Central Daylight Time),538722.1999999285,015_o_m_h_a.png,I,z,904,3,3,1927.3999999761581,536794.7999999523,8030,VNB,C,1
2,test,1,0.0,2-Back,1.0,m,Thu Aug 21 2025 14:11:58 GMT-0500 (Central Daylight Time),540988.1000000238,019_m_f_d_a.png,I,m,1243,4,3,2260.600000023842,538727.5,8030,VNB,C,2
2,test,1,1.0,2-Back,0.0,m,Thu Aug 21 2025 14:11:58 GMT-0500 (Central Daylight Time),543121.0,025_y_m_n_a.png,I,z,1106,5,3,2127.8000000715256,540993.1999999285,8030,VNB,C,3
2,test,1,0.0,2-Back,0.0,z,Thu Aug 21 2025 14:11:58 GMT-0500 (Central Daylight Time),545436.8999999762,022_y_f_d_a.png,I,m,1285,6,3,2310.899999976158,543126.0,8030,VNB,C,4
2,test,1,0.0,2-Back,0.0,m,Thu Aug 21 2025 14:11:58 GMT-0500 (Central Daylight Time),547452.6000000238,014_m_m_h_a.png,I,z,993,7,3,2010.2000000476837,545442.3999999762,8030,VNB,C,5
2,test,1,1.0,2-Back,0.0,m,Thu Aug 21 2025 14:11:58 GMT-0500 (Central Daylight Time),549918.7999999523,022_y_f_n_a.png,I,z,1433,8,3,2461.399999976158,547457.3999999762,8030,VNB,C,6
2,test,1,0.0,2-Back,0.0,z,Thu Aug 21 2025 14:11:58 GMT-0500 (Central Daylight Time),552951.1000000238,012_o_f_h_a.png,I,None,2016,9,3,3026.4000000953674,549924.6999999285,8030,VNB,C,7
3,test,1,0.0,2-Back,1.0,m,Thu Aug 21 2025 14:11:58 GMT-0500 (Central Daylight Time),555167.1000000238,015_o_m_d_a.png,I,m,1190,10,3,2210.8000000715256,552956.2999999523,8030,VNB,C,8
4,test,1,1.0,2-Back,1.0,m,Thu Aug 21 2025 14:11:58 GMT-0500 (Central Daylight Time),557766.1999999285,014_m_m_d_a.png,I,m,1582,11,3,2593.5,555172.6999999285,8030,VNB,C,9
4,test,1,0.0,2-Back,0.0,m,Thu Aug 21 2025 14:11:58 GMT-0500 (Central Daylight Time),560648.6999999285,019_m_f_n_a.png,I,z,1863,12,3,2877.2999999523163,557771.3999999762,8030,VNB,C,10
5,test,1,0.0,2-Back,1.0,m,Thu Aug 21 2025 14:11:58 GMT-0500 (Central Daylight Time),562814.6000000238,022_y_f_h_a.png,I,m,1149,13,3,2160.7000000476837,560653.8999999762,8030,VNB,C,11
6,test,1,0.0,2-Back,1.0,z,Thu Aug 21 2025 14:11:58 GMT-0500 (Central Daylight Time),564830.5,014_m_m_n_a.png,I,z,992,14,3,2011.2000000476837,562819.2999999523,8030,VNB,C,12
7,test,1,0.0,2-Back,1.0,m,Thu Aug 21 2025 14:11:58 GMT-0500 (Central Daylight Time),567796.2999999523,025_y_m_d_a.png,I,m,1943,15,3,2960.6999999284744,564835.6000000238,8030,VNB,C,13
7,test,1,1.0,2-Back,0.0,m,Thu Aug 21 2025 14:11:58 GMT-0500 (Central Daylight Time),570462.5,019_m_f_h_a.png,I,z,1649,16,3,2660.600000023842,567801.8999999762,8030,VNB,C,14
7,test,1,0.0,2-Back,0.0,z,Thu Aug 21 2025 14:11:58 GMT-0500 (Central Daylight Time),573228.1000000238,012_o_f_d_a.png,I,m,1744,17,3,2761.100000023842,570467.0,8030,VNB,C,15
8,test,1,0.0,2-Back,1.0,m,Thu Aug 21 2025 14:11:58 GMT-0500 (Central Daylight Time),575960.3999999762,015_o_m_n_a.png,I,m,1713,18,3,2727.100000023842,573233.2999999523,8030,VNB,C,16
0,test,2,0.0,2-Back,,,Thu Aug 21 2025 14:11:58 GMT-0500 (Central Daylight Time),575960.3999999762,014_m_m_h_a.png,I,space,4221,1,3,2727.100000023842,573233.2999999523,8030,VNB,C,0
0,test,2,0.0,2-Back,,,Thu Aug 21 2025 14:11:58 GMT-0500 (Central Daylight Time),575960.3999999762,022_y_f_n_a.png,I,space,4221,2,3,2727.100000023842,573233.2999999523,8030,VNB,C,0
1,test,2,1.0,2-Back,1.0,z,Thu Aug 21 2025 14:11:58 GMT-0500 (Central Daylight Time),587307.1000000238,012_o_f_h_a.png,I,z,853,3,3,1877.6000000238419,585429.5,8030,VNB,C,1
2,test,2,0.0,2-Back,1.0,m,Thu Aug 21 2025 14:11:58 GMT-0500 (Central Daylight Time),589539.5,015_o_m_d_a.png,I,m,1202,4,3,2227.3000000715256,587312.1999999285,8030,VNB,C,2
3,test,2,0.0,2-Back,1.0,m,Thu Aug 21 2025 14:11:58 GMT-0500 (Central Daylight Time),592055.3999999762,019_m_f_d_a.png,I,m,1498,5,3,2510.399999976158,589545.0,8030,VNB,C,3
4,test,2,0.0,2-Back,1.0,m,Thu Aug 21 2025 14:11:58 GMT-0500 (Central Daylight Time),594854.7999999523,025_y_m_h_a.png,I,m,1767,6,3,2794.1999999284744,592060.6000000238,8030,VNB,C,4
5,test,2,0.0,2-Back,1.0,m,Thu Aug 21 2025 14:11:58 GMT-0500 (Central Daylight Time),597337.1999999285,012_o_f_n_a.png,I,m,1455,7,3,2477.0,594860.1999999285,8030,VNB,C,5
6,test,2,1.0,2-Back,1.0,z,Thu Aug 21 2025 14:11:58 GMT-0500 (Central Daylight Time),599220.0,015_o_m_h_a.png,I,z,852,8,3,1878.0,597342.0,8030,VNB,C,6
7,test,2,0.0,2-Back,1.0,m,Thu Aug 21 2025 14:11:58 GMT-0500 (Central Daylight Time),601852.1999999285,022_y_f_d_a.png,I,m,1601,9,3,2627.899999976158,599224.2999999523,8030,VNB,C,7
7,test,2,0.0,2-Back,0.0,m,Thu Aug 21 2025 14:11:58 GMT-0500 (Central Daylight Time),604884.7999999523,025_y_m_d_a.png,I,None,2016,10,3,3028.2999999523163,601856.5,8030,VNB,C,8
8,test,2,0.0,2-Back,1.0,m,Thu Aug 21 2025 14:11:58 GMT-0500 (Central Daylight Time),607034.2999999523,014_m_m_n_a.png,I,m,1130,11,3,2144.899999976158,604889.3999999762,8030,VNB,C,9
9,test,2,0.0,2-Back,1.0,m,Thu Aug 21 2025 14:11:58 GMT-0500 (Central Daylight Time),609366.6000000238,019_m_f_h_a.png,I,m,1307,12,3,2328.600000023842,607038.0,8030,VNB,C,10
10,test,2,1.0,2-Back,1.0,z,Thu Aug 21 2025 14:11:58 GMT-0500 (Central Daylight Time),612232.5,015_o_m_n_a.png,I,z,1847,13,3,2862.100000023842,609370.3999999762,8030,VNB,C,11
11,test,2,0.0,2-Back,1.0,m,Thu Aug 21 2025 14:11:58 GMT-0500 (Central Daylight Time),614748.1999999285,012_o_f_d_a.png,I,m,1485,14,3,2510.899999976158,612237.2999999523,8030,VNB,C,12
11,test,2,0.0,2-Back,0.0,m,Thu Aug 21 2025 14:11:58 GMT-0500 (Central Daylight Time),616416.5,022_y_f_h_a.png,I,z,642,15,3,1663.7000000476837,614752.7999999523,8030,VNB,C,13
11,test,2,0.0,2-Back,0.0,z,Thu Aug 21 2025 14:11:58 GMT-0500 (Central Daylight Time),618980.2999999523,014_m_m_d_a.png,I,m,1543,16,3,2559.0,616421.2999999523,8030,VNB,C,14
12,test,2,0.0,2-Back,1.0,m,Thu Aug 21 2025 14:11:58 GMT-0500 (Central Daylight Time),621379.6000000238,025_y_m_n_a.png,I,m,1376,17,3,2395.100000023842,618984.5,8030,VNB,C,15
12,test,2,1.0,2-Back,0.0,m,Thu Aug 21 2025 14:11:58 GMT-0500 (Central Daylight Time),623478.7999999523,019_m_f_n_a.png,I,z,1083,18,3,2094.7999999523163,621384.0,8030,VNB,C,16
0,test,3,1.0,2-Back,,,Thu Aug 21 2025 14:11:58 GMT-0500 (Central Daylight Time),623478.7999999523,015_o_m_n_a.png,I,space,2511,1,3,2094.7999999523163,621384.0,8030,VNB,C,0
0,test,3,1.0,2-Back,,,Thu Aug 21 2025 14:11:58 GMT-0500 (Central Daylight Time),623478.7999999523,012_o_f_d_a.png,I,space,2511,2,3,2094.7999999523163,621384.0,8030,VNB,C,0
1,test,3,0.0,2-Back,1.0,m,Thu Aug 21 2025 14:11:58 GMT-0500 (Central Daylight Time),633142.6999999285,022_y_f_h_a.png,I,m,1067,3,3,2095.399999976158,631047.2999999523,8030,VNB,C,1
2,test,3,0.0,2-Back,1.0,z,Thu Aug 21 2025 14:11:58 GMT-0500 (Central Daylight Time),635508.2999999523,019_m_f_d_a.png,I,z,1344,4,3,2361.1999999284744,633147.1000000238,8030,VNB,C,2
2,test,3,1.0,2-Back,0.0,m,Thu Aug 21 2025 14:11:58 GMT-0500 (Central Daylight Time),638207.5,025_y_m_n_a.png,I,z,1681,5,3,2695.3000000715256,635512.1999999285,8030,VNB,C,3
3,test,3,0.0,2-Back,1.0,m,Thu Aug 21 2025 14:11:58 GMT-0500 (Central Daylight Time),640457.1000000238,015_o_m_h_a.png,I,m,1223,6,3,2245.100000023842,638212.0,8030,VNB,C,4
4,test,3,0.0,2-Back,1.0,z,Thu Aug 21 2025 14:11:58 GMT-0500 (Central Daylight Time),642322.7999999523,022_y_f_n_a.png,I,z,845,7,3,1861.3999999761581,640461.3999999762,8030,VNB,C,5
4,test,3,1.0,2-Back,0.0,m,Thu Aug 21 2025 14:11:58 GMT-0500 (Central Daylight Time),644955.2999999523,014_m_m_d_a.png,I,z,1610,8,3,2627.600000023842,642327.6999999285,8030,VNB,C,6
5,test,3,0.0,2-Back,1.0,m,Thu Aug 21 2025 14:11:58 GMT-0500 (Central Daylight Time),647938.0,025_y_m_d_a.png,I,m,1962,9,3,2978.3000000715256,644959.6999999285,8030,VNB,C,7
6,test,3,0.0,2-Back,1.0,m,Thu Aug 21 2025 14:11:58 GMT-0500 (Central Daylight Time),650370.5,012_o_f_h_a.png,I,m,1403,10,3,2427.7000000476837,647942.7999999523,8030,VNB,C,8
7,test,3,1.0,2-Back,1.0,m,Thu Aug 21 2025 14:11:58 GMT-0500 (Central Daylight Time),652453.0,019_m_f_n_a.png,I,m,1060,11,3,2078.7000000476837,650374.2999999523,8030,VNB,C,9
7,test,3,1.0,2-Back,0.0,z,Thu Aug 21 2025 14:11:58 GMT-0500 (Central Daylight Time),654635.6000000238,014_m_m_h_a.png,I,m,1161,12,3,2178.5,652457.1000000238,8030,VNB,C,10
7,test,3,0.0,2-Back,0.0,m,Thu Aug 21 2025 14:11:58 GMT-0500 (Central Daylight Time),657668.2999999523,022_y_f_d_a.png,I,None,2016,13,3,3028.1999999284744,654640.1000000238,8030,VNB,C,11
8,test,3,0.0,2-Back,1.0,m,Thu Aug 21 2025 14:11:58 GMT-0500 (Central Daylight Time),660100.6000000238,012_o_f_n_a.png,I,m,1408,14,3,2428.0,657672.6000000238,8030,VNB,C,12
8,test,3,0.0,2-Back,0.0,z,Thu Aug 21 2025 14:11:58 GMT-0500 (Central Daylight Time),662467.6999999285,015_o_m_d_a.png,I,m,1344,15,3,2362.899999976158,660104.7999999523,8030,VNB,C,13
9,test,3,1.0,2-Back,1.0,m,Thu Aug 21 2025 14:11:58 GMT-0500 (Central Daylight Time),664749.1999999285,019_m_f_h_a.png,I,m,1251,16,3,2276.7999999523163,662472.3999999762,8030,VNB,C,14
9,test,3,0.0,2-Back,0.0,m,Thu Aug 21 2025 14:11:58 GMT-0500 (Central Daylight Time),667065.1999999285,014_m_m_n_a.png,I,z,1289,17,3,2311.0,664754.1999999285,8030,VNB,C,15
9,test,3,0.0,2-Back,0.0,z,Thu Aug 21 2025 14:11:58 GMT-0500 (Central Daylight Time),669797.6999999285,025_y_m_h_a.png,I,m,1700,18,3,2727.6999999284744,667070.0,8030,VNB,C,16
0,test,4,0.0,2-Back,,,Thu Aug 21 2025 14:11:58 GMT-0500 (Central Daylight Time),669797.6999999285,019_m_f_n_a.png,I,space,2056,1,3,2727.6999999284744,667070.0,8030,VNB,C,0
0,test,4,0.0,2-Back,,,Thu Aug 21 2025 14:11:58 GMT-0500 (Central Daylight Time),669797.6999999285,015_o_m_n_a.png,I,space,2056,2,3,2727.6999999284744,667070.0,8030,VNB,C,0
1,test,4,1.0,2-Back,1.0,m,Thu Aug 21 2025 14:11:58 GMT-0500 (Central Daylight Time),679128.1000000238,025_y_m_h_a.png,I,m,989,3,3,2011.2000000476837,677116.8999999762,8030,VNB,C,1
2,test,4,1.0,2-Back,1.0,m,Thu Aug 21 2025 14:11:58 GMT-0500 (Central Daylight Time),681062.2999999523,012_o_f_d_a.png,I,m,918,4,3,1929.1999999284744,679133.1000000238,8030,VNB,C,2
2,test,4,0.0,2-Back,0.0,z,Thu Aug 21 2025 14:11:58 GMT-0500 (Central Daylight Time),683176.8999999762,015_o_m_h_a.png,I,m,1097,5,3,2111.2000000476837,681065.6999999285,8030,VNB,C,3
3,test,4,0.0,2-Back,1.0,m,Thu Aug 21 2025 14:11:58 GMT-0500 (Central Daylight Time),685659.2999999523,014_m_m_n_a.png,I,m,1461,6,3,2478.600000023842,683180.6999999285,8030,VNB,C,4
4,test,4,0.0,2-Back,1.0,m,Thu Aug 21 2025 14:11:58 GMT-0500 (Central Daylight Time),688325.8999999762,019_m_f_d_a.png,I,m,1634,7,3,2662.0,685663.8999999762,8030,VNB,C,5
5,test,4,0.0,2-Back,1.0,z,Thu Aug 21 2025 14:11:58 GMT-0500 (Central Daylight Time),690224.3999999762,022_y_f_n_a.png,I,z,873,8,3,1894.3999999761581,688330.0,8030,VNB,C,6
6,test,4,1.0,2-Back,1.0,m,Thu Aug 21 2025 14:11:58 GMT-0500 (Central Daylight Time),692440.6000000238,012_o_f_h_a.png,I,m,1197,9,3,2212.2000000476837,690228.3999999762,8030,VNB,C,7
7,test,4,0.0,2-Back,1.0,m,Thu Aug 21 2025 14:11:58 GMT-0500 (Central Daylight Time),694889.7999999523,014_m_m_h_a.png,I,m,1429,10,3,2444.6999999284744,692445.1000000238,8030,VNB,C,8
8,test,4,0.0,2-Back,1.0,m,Thu Aug 21 2025 14:11:58 GMT-0500 (Central Daylight Time),696839.1999999285,022_y_f_d_a.png,I,m,923,11,3,1945.3999999761581,694893.7999999523,8030,VNB,C,9
9,test,4,0.0,2-Back,1.0,m,Thu Aug 21 2025 14:11:58 GMT-0500 (Central Daylight Time),698738.3999999762,025_y_m_n_a.png,I,m,878,12,3,1894.2999999523163,696844.1000000238,8030,VNB,C,10
10,test,4,0.0,2-Back,1.0,z,Thu Aug 21 2025 14:11:58 GMT-0500 (Central Daylight Time),700604.7999999523,015_o_m_d_a.png,I,z,835,13,3,1862.1000000238419,698742.6999999285,8030,VNB,C,11
11,test,4,1.0,2-Back,1.0,m,Thu Aug 21 2025 14:11:58 GMT-0500 (Central Daylight Time),703187.2999999523,019_m_f_h_a.png,I,m,1561,14,3,2577.7999999523163,700609.5,8030,VNB,C,12
12,test,4,1.0,2-Back,1.0,m,Thu Aug 21 2025 14:11:58 GMT-0500 (Central Daylight Time),705753.1000000238,022_y_f_h_a.png,I,m,1538,15,3,2560.9000000953674,703192.1999999285,8030,VNB,C,13
13,test,4,0.0,2-Back,1.0,m,Thu Aug 21 2025 14:11:58 GMT-0500 (Central Daylight Time),708168.8999999762,012_o_f_n_a.png,I,m,1388,16,3,2411.2000000476837,705757.6999999285,8030,VNB,C,14
14,test,4,0.0,2-Back,1.0,m,Thu Aug 21 2025 14:11:58 GMT-0500 (Central Daylight Time),710468.2999999523,025_y_m_d_a.png,I,m,1277,17,3,2294.600000023842,708173.6999999285,8030,VNB,C,15
15,test,4,1.0,2-Back,1.0,m,Thu Aug 21 2025 14:11:58 GMT-0500 (Central Daylight Time),713034.1999999285,014_m_m_d_a.png,I,m,1545,18,3,2561.2999999523163,710472.8999999762,8030,VNB,C,16
0,test,5,1.0,2-Back,,,Thu Aug 21 2025 14:11:58 GMT-0500 (Central Daylight Time),713034.1999999285,022_y_f_d_a.png,I,space,1571,1,3,2561.2999999523163,710472.8999999762,8030,VNB,C,0
0,test,5,1.0,2-Back,,,Thu Aug 21 2025 14:11:58 GMT-0500 (Central Daylight Time),713034.1999999285,012_o_f_h_a.png,I,space,1571,2,3,2561.2999999523163,710472.8999999762,8030,VNB,C,0
1,test,5,1.0,2-Back,1.0,z,Thu Aug 21 2025 14:11:58 GMT-0500 (Central Daylight Time),722181.1999999285,015_o_m_d_a.png,I,z,1276,3,3,2294.1999999284744,719887.0,8030,VNB,C,1
2,test,5,1.0,2-Back,1.0,m,Thu Aug 21 2025 14:11:58 GMT-0500 (Central Daylight Time),724963.6999999285,019_m_f_n_a.png,I,m,1752,4,3,2777.899999976158,722185.7999999523,8030,VNB,C,2
3,test,5,0.0,2-Back,1.0,m,Thu Aug 21 2025 14:11:58 GMT-0500 (Central Daylight Time),727862.6999999285,014_m_m_h_a.png,I,m,1875,5,3,2894.6999999284744,724968.0,8030,VNB,C,3
4,test,5,0.0,2-Back,1.0,z,Thu Aug 21 2025 14:11:58 GMT-0500 (Central Daylight Time),729512.2999999523,022_y_f_n_a.png,I,z,631,6,3,1645.6999999284744,727866.6000000238,8030,VNB,C,4
5,test,5,0.0,2-Back,1.0,m,Thu Aug 21 2025 14:11:58 GMT-0500 (Central Daylight Time),732527.7999999523,012_o_f_d_a.png,I,m,1998,7,3,3011.6999999284744,729516.1000000238,8030,VNB,C,5
6,test,5,0.0,2-Back,1.0,m,Thu Aug 21 2025 14:11:58 GMT-0500 (Central Daylight Time),734960.6000000238,015_o_m_h_a.png,I,m,1405,8,3,2428.0,732532.6000000238,8030,VNB,C,6
6,test,5,1.0,2-Back,0.0,z,Thu Aug 21 2025 14:11:58 GMT-0500 (Central Daylight Time),737094.0,019_m_f_d_a.png,I,m,1101,9,3,2128.7000000476837,734965.2999999523,8030,VNB,C,7
7,test,5,0.0,2-Back,1.0,m,Thu Aug 21 2025 14:11:58 GMT-0500 (Central Daylight Time),739009.2999999523,025_y_m_n_a.png,I,m,896,10,3,1910.8999999761581,737098.3999999762,8030,VNB,C,8
7,test,5,0.0,2-Back,0.0,m,Thu Aug 21 2025 14:11:58 GMT-0500 (Central Daylight Time),741858.5,014_m_m_n_a.png,I,z,1821,11,3,2844.3000000715256,739014.1999999285,8030,VNB,C,9
8,test,5,0.0,2-Back,1.0,m,Thu Aug 21 2025 14:11:58 GMT-0500 (Central Daylight Time),744008.0,022_y_f_h_a.png,I,m,1124,12,3,2144.7000000476837,741863.2999999523,8030,VNB,C,10
9,test,5,0.0,2-Back,1.0,m,Thu Aug 21 2025 14:11:58 GMT-0500 (Central Daylight Time),746406.7999999523,025_y_m_d_a.png,I,m,1373,13,3,2393.7999999523163,744013.0,8030,VNB,C,11
9,test,5,1.0,2-Back,0.0,z,Thu Aug 21 2025 14:11:58 GMT-0500 (Central Daylight Time),749439.1000000238,019_m_f_h_a.png,I,None,2015,14,3,3027.7000000476837,746411.3999999762,8030,VNB,C,12
10,test,5,0.0,2-Back,1.0,m,Thu Aug 21 2025 14:11:58 GMT-0500 (Central Daylight Time),752172.0,015_o_m_n_a.png,I,m,1710,15,3,2727.899999976158,749444.1000000238,8030,VNB,C,13
11,test,5,0.0,2-Back,1.0,m,Thu Aug 21 2025 14:11:58 GMT-0500 (Central Daylight Time),754171.1999999285,014_m_m_d_a.png,I,m,978,16,3,1995.1999999284744,752176.0,8030,VNB,C,14
12,test,5,0.0,2-Back,1.0,z,Thu Aug 21 2025 14:11:58 GMT-0500 (Central Daylight Time),755720.6000000238,012_o_f_n_a.png,I,z,530,17,3,1543.6000000238419,754177.0,8030,VNB,C,15
13,test,5,1.0,2-Back,1.0,m,Thu Aug 21 2025 14:11:58 GMT-0500 (Central Daylight Time),758436.3999999762,025_y_m_h_a.png,I,m,1693,18,3,2712.2000000476837,755724.1999999285,8030,VNB,C,16
