acc_sum,block,block_c,block_cond,con_img,correct,correct_response,datetime,endtime,face,jitter,line,project,response,response_time,row_sel,session_number,start_end,starttime,subject_id,task,task_vers,trial
0,prac,1,A,haborder.png,0,z,Mon Jul 21 2025 16:56:56 GMT-0500 (Central Daylight Time),49890.19999998808,CFD-BF-031-020-A.jpg,1000,solid,O,None,1515,4,1,3331.899999976158,46558.30000001192,7182,ATS,C,1
1,prac,1,A,haborder.png,1,m,Mon Jul 21 2025 16:56:56 GMT-0500 (Central Daylight Time),53239.30000001192,CFD-WM-035-036-HC.jpg,1700,solid,O,m,820,9,1,6681.0,46558.30000001192,7182,ATS,C,2
2,prac,1,A,haborder.png,1,m,Mon Jul 21 2025 16:56:56 GMT-0500 (Central Daylight Time),56288.19999998808,CFD-BM-022-004-HC.jpg,1500,solid,O,m,725,3,1,9729.899999976158,46558.30000001192,7182,ATS,C,3
3,prac,1,A,haborder.png,1,z,Mon Jul 21 2025 16:56:56 GMT-0500 (Central Daylight Time),58937.30000001192,CFD-BF-002-018-A.jpg,1200,solid,O,z,625,6,1,12379.0,46558.30000001192,7182,ATS,C,4
4,prac,1,A,haborder.png,1,m,Mon Jul 21 2025 16:56:56 GMT-0500 (Central Daylight Time),62152.90000000596,CFD-BM-034-035-HC.jpg,1700,solid,O,m,684,1,1,15594.59999999404,46558.30000001192,7182,ATS,C,5
5,prac,1,A,haborder.png,1,m,Mon Jul 21 2025 16:56:56 GMT-0500 (Central Daylight Time),65085.40000000596,CFD-WF-013-009-HC.jpg,1500,solid,O,m,614,11,1,18527.09999999404,46558.30000001192,7182,ATS,C,6
6,prac,1,A,haborder.png,1,z,Mon Jul 21 2025 16:56:56 GMT-0500 (Central Daylight Time),67484.40000000596,CFD-WF-023-013-A.jpg,1000,solid,O,z,572,12,1,20926.09999999404,46558.30000001192,7182,ATS,C,7
6,prac,1,A,haborder.png,0,m,Mon Jul 21 2025 16:56:56 GMT-0500 (Central Daylight Time),70450.19999998808,CFD-WM-028-005-HC.jpg,1400,solid,O,z,733,7,1,23891.899999976158,46558.30000001192,7182,ATS,C,8
7,prac,1,A,haborder.png,1,z,Mon Jul 21 2025 16:56:56 GMT-0500 (Central Daylight Time),73599.19999998808,CFD-BM-043-014-A.jpg,1600,solid,O,z,719,2,1,27040.899999976158,46558.30000001192,7182,ATS,C,9
8,prac,1,A,haborder.png,1,z,Mon Jul 21 2025 16:56:56 GMT-0500 (Central Daylight Time),77531.0,CFD-WM-036-018-A.jpg,1900,solid,O,z,1200,8,1,30972.69999998808,46558.30000001192,7182,ATS,C,10
9,prac,1,A,haborder.png,1,m,Mon Jul 21 2025 16:56:56 GMT-0500 (Central Daylight Time),80980.19999998808,CFD-BF-019-004-HC.jpg,2000,solid,O,m,632,5,1,34421.89999997616,46558.30000001192,7182,ATS,C,11
10,prac,1,A,haborder.png,1,z,Mon Jul 21 2025 16:56:56 GMT-0500 (Central Daylight Time),84079.30000001192,CFD-WF-037-016-A.jpg,1600,solid,O,z,669,10,1,37521.0,46558.30000001192,7182,ATS,C,12
1,prac,1,B,mfborder.png,1,m,Mon Jul 21 2025 16:56:56 GMT-0500 (Central Daylight Time),112103.5,CFD-BM-022-004-HC.jpg,1700,1,O,m,897,dash,1,3400.0,108703.5,7182,ATS,C,1
2,prac,1,B,mfborder.png,1,m,Mon Jul 21 2025 16:56:56 GMT-0500 (Central Daylight Time),115302.19999998808,CFD-WM-036-018-A.jpg,1700,9,O,m,670,dash,1,6598.699999988079,108703.5,7182,ATS,C,2
3,prac,1,B,mfborder.png,1,z,Mon Jul 21 2025 16:56:56 GMT-0500 (Central Daylight Time),118133.90000000596,CFD-WF-037-016-A.jpg,1500,11,O,z,503,dash,1,9430.40000000596,108703.5,7182,ATS,C,3
3,prac,1,B,mfborder.png,0,z,Mon Jul 21 2025 16:56:56 GMT-0500 (Central Daylight Time),121150.40000000596,CFD-BF-042-031-HC.jpg,1500,3,O,m,703,dash,1,12446.90000000596,108703.5,7182,ATS,C,4
4,prac,1,B,mfborder.png,1,m,Mon Jul 21 2025 16:56:56 GMT-0500 (Central Daylight Time),124549.09999999404,CFD-BM-021-026-A.jpg,1600,2,O,m,980,dash,1,15845.59999999404,108703.5,7182,ATS,C,5
5,prac,1,B,mfborder.png,1,m,Mon Jul 21 2025 16:56:56 GMT-0500 (Central Daylight Time),127964.80000001192,CFD-WM-035-036-HC.jpg,1600,10,O,m,988,dash,1,19261.30000001192,108703.5,7182,ATS,C,6
6,prac,1,B,mfborder.png,1,z,Mon Jul 21 2025 16:56:56 GMT-0500 (Central Daylight Time),131380.5,CFD-WF-001-010-HC.jpg,1900,8,O,z,697,dash,1,22677.0,108703.5,7182,ATS,C,7
7,prac,1,B,mfborder.png,1,m,Mon Jul 21 2025 16:56:56 GMT-0500 (Central Daylight Time),134779.40000000596,CFD-BM-043-014-A.jpg,2000,5,O,m,574,dash,1,26075.90000000596,108703.5,7182,ATS,C,8
8,prac,1,B,mfborder.png,1,m,Mon Jul 21 2025 16:56:56 GMT-0500 (Central Daylight Time),137794.80000001192,CFD-WM-034-040-A.jpg,1200,6,O,m,990,dash,1,29091.30000001192,108703.5,7182,ATS,C,9
9,prac,1,B,mfborder.png,1,z,Mon Jul 21 2025 16:56:56 GMT-0500 (Central Daylight Time),140893.80000001192,CFD-BF-019-004-HC.jpg,1400,7,O,z,870,dash,1,32190.30000001192,108703.5,7182,ATS,C,10
10,prac,1,B,mfborder.png,1,z,Mon Jul 21 2025 16:56:56 GMT-0500 (Central Daylight Time),143792.5,CFD-WF-013-009-HC.jpg,1000,12,O,z,1075,dash,1,35089.0,108703.5,7182,ATS,C,11
11,prac,1,B,mfborder.png,1,z,Mon Jul 21 2025 16:56:56 GMT-0500 (Central Daylight Time),146425.69999998808,CFD-BF-031-020-A.jpg,1000,4,O,z,793,dash,1,37722.19999998808,108703.5,7182,ATS,C,12
1,test,1,A,haborder.png,1,m,Mon Jul 21 2025 16:56:56 GMT-0500 (Central Daylight Time),173816.30000001192,CFD-BF-019-004-HC.jpg,2000,solid,O,m,771,5,1,2815.600000023842,171000.69999998808,7182,ATS,C,1
2,test,1,A,haborder.png,1,z,Mon Jul 21 2025 16:56:56 GMT-0500 (Central Daylight Time),176082.19999998808,CFD-WF-037-016-A.jpg,1600,solid,O,z,618,10,1,5081.5,171000.69999998808,7182,ATS,C,2
3,test,1,A,haborder.png,1,z,Mon Jul 21 2025 16:56:56 GMT-0500 (Central Daylight Time),178581.40000000596,CFD-BM-043-014-A.jpg,1600,solid,O,z,856,2,1,7580.700000017881,171000.69999998808,7182,ATS,C,3
4,test,1,A,haborder.png,1,z,Mon Jul 21 2025 16:56:56 GMT-0500 (Central Daylight Time),180363.5,CFD-WF-023-013-A.jpg,1000,solid,O,z,740,12,1,9362.800000011921,171000.69999998808,7182,ATS,C,4
5,test,1,A,haborder.png,1,m,Mon Jul 21 2025 16:56:56 GMT-0500 (Central Daylight Time),182596.59999999404,CFD-WM-035-036-HC.jpg,1700,solid,O,m,500,9,1,11595.90000000596,171000.69999998808,7182,ATS,C,5
6,test,1,A,haborder.png,1,z,Mon Jul 21 2025 16:56:56 GMT-0500 (Central Daylight Time),184329.30000001192,CFD-BF-031-020-A.jpg,1000,solid,O,z,686,4,1,13328.600000023842,171000.69999998808,7182,ATS,C,6
7,test,1,A,haborder.png,1,z,Mon Jul 21 2025 16:56:56 GMT-0500 (Central Daylight Time),185895.5,CFD-BF-031-020-A.jpg,1000,solid,O,z,528,4,1,14894.800000011921,171000.69999998808,7182,ATS,C,7
8,test,1,A,haborder.png,1,m,Mon Jul 21 2025 16:56:56 GMT-0500 (Central Daylight Time),187994.59999999404,CFD-BM-022-004-HC.jpg,1500,solid,O,m,558,3,1,16993.90000000596,171000.69999998808,7182,ATS,C,8
9,test,1,A,haborder.png,1,m,Mon Jul 21 2025 16:56:56 GMT-0500 (Central Daylight Time),190277.59999999404,CFD-WF-013-009-HC.jpg,1500,solid,O,m,748,11,1,19276.90000000596,171000.69999998808,7182,ATS,C,9
10,test,1,A,haborder.png,1,m,Mon Jul 21 2025 16:56:56 GMT-0500 (Central Daylight Time),192393.40000000596,CFD-WM-028-005-HC.jpg,1400,solid,O,m,660,7,1,21392.70000001788,171000.69999998808,7182,ATS,C,10
11,test,1,A,haborder.png,1,m,Mon Jul 21 2025 16:56:56 GMT-0500 (Central Daylight Time),194976.0,CFD-BM-034-035-HC.jpg,1700,solid,O,m,839,1,1,23975.30000001192,171000.69999998808,7182,ATS,C,11
12,test,1,A,haborder.png,1,m,Mon Jul 21 2025 16:56:56 GMT-0500 (Central Daylight Time),197758.09999999404,CFD-BF-019-004-HC.jpg,2000,solid,O,m,747,5,1,26757.40000000596,171000.69999998808,7182,ATS,C,12
13,test,1,A,haborder.png,1,z,Mon Jul 21 2025 16:56:56 GMT-0500 (Central Daylight Time),200490.80000001192,CFD-WM-036-018-A.jpg,1900,solid,O,z,784,8,1,29490.100000023842,171000.69999998808,7182,ATS,C,13
14,test,1,A,haborder.png,1,m,Mon Jul 21 2025 16:56:56 GMT-0500 (Central Daylight Time),202823.5,CFD-BM-034-035-HC.jpg,1700,solid,O,m,587,1,1,31822.80000001192,171000.69999998808,7182,ATS,C,14
15,test,1,A,haborder.png,1,z,Mon Jul 21 2025 16:56:56 GMT-0500 (Central Daylight Time),204839.30000001192,CFD-BF-002-018-A.jpg,1200,solid,O,z,754,6,1,33838.60000002384,171000.69999998808,7182,ATS,C,15
16,test,1,A,haborder.png,1,z,Mon Jul 21 2025 16:56:56 GMT-0500 (Central Daylight Time),207505.0,CFD-WM-036-018-A.jpg,1900,solid,O,z,719,8,1,36504.30000001192,171000.69999998808,7182,ATS,C,16
17,test,1,A,haborder.png,1,m,Mon Jul 21 2025 16:56:56 GMT-0500 (Central Daylight Time),209538.09999999404,CFD-WM-028-005-HC.jpg,1400,solid,O,m,586,7,1,38537.40000000596,171000.69999998808,7182,ATS,C,17
18,test,1,A,haborder.png,1,z,Mon Jul 21 2025 16:56:56 GMT-0500 (Central Daylight Time),211503.80000001192,CFD-BF-002-018-A.jpg,1200,solid,O,z,720,6,1,40503.10000002384,171000.69999998808,7182,ATS,C,18
19,test,1,A,haborder.png,1,z,Mon Jul 21 2025 16:56:56 GMT-0500 (Central Daylight Time),213353.40000000596,CFD-WF-023-013-A.jpg,1000,solid,O,z,802,12,1,42352.70000001788,171000.69999998808,7182,ATS,C,19
20,test,1,A,haborder.png,1,z,Mon Jul 21 2025 16:56:56 GMT-0500 (Central Daylight Time),215702.59999999404,CFD-BM-043-014-A.jpg,1600,solid,O,z,705,2,1,44701.90000000596,171000.69999998808,7182,ATS,C,20
21,test,1,A,haborder.png,1,m,Mon Jul 21 2025 16:56:56 GMT-0500 (Central Daylight Time),217968.5,CFD-BM-022-004-HC.jpg,1500,solid,O,m,721,3,1,46967.80000001192,171000.69999998808,7182,ATS,C,21
21,test,1,A,haborder.png,0,m,Mon Jul 21 2025 16:56:56 GMT-0500 (Central Daylight Time),221235.40000000596,CFD-WM-035-036-HC.jpg,1700,solid,O,None,1516,9,1,50234.70000001788,171000.69999998808,7182,ATS,C,22
22,test,1,A,haborder.png,1,z,Mon Jul 21 2025 16:56:56 GMT-0500 (Central Daylight Time),223583.19999998808,CFD-WF-037-016-A.jpg,1600,solid,O,z,713,10,1,52582.5,171000.69999998808,7182,ATS,C,23
23,test,1,A,haborder.png,1,m,Mon Jul 21 2025 16:56:56 GMT-0500 (Central Daylight Time),226032.59999999404,CFD-WF-013-009-HC.jpg,1500,solid,O,m,903,11,1,55031.90000000596,171000.69999998808,7182,ATS,C,24
1,test,1,B,mfborder.png,1,z,Mon Jul 21 2025 16:56:56 GMT-0500 (Central Daylight Time),241760.5,CFD-WF-037-016-A.jpg,1500,dash,O,z,710,11,1,2249.0999999940395,239511.40000000596,7182,ATS,C,1
2,test,1,B,mfborder.png,1,m,Mon Jul 21 2025 16:56:56 GMT-0500 (Central Daylight Time),244359.69999998808,CFD-BM-043-014-A.jpg,2000,dash,O,m,562,5,1,4848.299999982119,239511.40000000596,7182,ATS,C,2
3,test,1,B,mfborder.png,1,m,Mon Jul 21 2025 16:56:56 GMT-0500 (Central Daylight Time),246225.80000001192,CFD-WM-034-040-A.jpg,1200,dash,O,m,609,6,1,6714.4000000059605,239511.40000000596,7182,ATS,C,3
4,test,1,B,mfborder.png,1,z,Mon Jul 21 2025 16:56:56 GMT-0500 (Central Daylight Time),247908.69999998808,CFD-WF-013-009-HC.jpg,1000,dash,O,z,633,12,1,8397.299999982119,239511.40000000596,7182,ATS,C,4
5,test,1,B,mfborder.png,1,z,Mon Jul 21 2025 16:56:56 GMT-0500 (Central Daylight Time),250574.19999998808,CFD-WF-001-010-HC.jpg,1900,dash,O,z,714,8,1,11062.799999982119,239511.40000000596,7182,ATS,C,5
6,test,1,B,mfborder.png,1,m,Mon Jul 21 2025 16:56:56 GMT-0500 (Central Daylight Time),252856.90000000596,CFD-WM-035-036-HC.jpg,1600,dash,O,m,643,10,1,13345.5,239511.40000000596,7182,ATS,C,6
7,test,1,B,mfborder.png,1,z,Mon Jul 21 2025 16:56:56 GMT-0500 (Central Daylight Time),255222.90000000596,CFD-BF-042-031-HC.jpg,1500,dash,O,z,832,3,1,15711.5,239511.40000000596,7182,ATS,C,7
8,test,1,B,mfborder.png,1,m,Mon Jul 21 2025 16:56:56 GMT-0500 (Central Daylight Time),257588.59999999404,CFD-BM-022-004-HC.jpg,1700,dash,O,m,599,1,1,18077.19999998808,239511.40000000596,7182,ATS,C,8
9,test,1,B,mfborder.png,1,m,Mon Jul 21 2025 16:56:56 GMT-0500 (Central Daylight Time),259908.0,CFD-WM-035-036-HC.jpg,1600,dash,O,m,684,10,1,20396.59999999404,239511.40000000596,7182,ATS,C,9
10,test,1,B,mfborder.png,1,z,Mon Jul 21 2025 16:56:56 GMT-0500 (Central Daylight Time),262004.19999998808,CFD-BF-019-004-HC.jpg,1400,dash,O,z,667,7,1,22492.79999998212,239511.40000000596,7182,ATS,C,10
11,test,1,B,mfborder.png,1,m,Mon Jul 21 2025 16:56:56 GMT-0500 (Central Daylight Time),264553.09999999404,CFD-BM-043-014-A.jpg,2000,dash,O,m,510,5,1,25041.69999998808,239511.40000000596,7182,ATS,C,11
12,test,1,B,mfborder.png,1,z,Mon Jul 21 2025 16:56:56 GMT-0500 (Central Daylight Time),267135.59999999404,CFD-WF-037-016-A.jpg,1500,dash,O,z,1045,11,1,27624.19999998808,239511.40000000596,7182,ATS,C,12
13,test,1,B,mfborder.png,1,z,Mon Jul 21 2025 16:56:56 GMT-0500 (Central Daylight Time),269335.0,CFD-BF-019-004-HC.jpg,1400,dash,O,z,755,7,1,29823.59999999404,239511.40000000596,7182,ATS,C,13
14,test,1,B,mfborder.png,1,z,Mon Jul 21 2025 16:56:56 GMT-0500 (Central Daylight Time),271017.6999999881,CFD-BF-031-020-A.jpg,1000,dash,O,z,644,4,1,31506.29999998212,239511.40000000596,7182,ATS,C,14
15,test,1,B,mfborder.png,1,m,Mon Jul 21 2025 16:56:56 GMT-0500 (Central Daylight Time),273367.0,CFD-WM-036-018-A.jpg,1700,dash,O,m,588,9,1,33855.59999999404,239511.40000000596,7182,ATS,C,15
16,test,1,B,mfborder.png,1,m,Mon Jul 21 2025 16:56:56 GMT-0500 (Central Daylight Time),275549.59999999404,CFD-BM-021-026-A.jpg,1600,dash,O,m,548,2,1,36038.19999998808,239511.40000000596,7182,ATS,C,16
17,test,1,B,mfborder.png,1,z,Mon Jul 21 2025 16:56:56 GMT-0500 (Central Daylight Time),277715.40000000596,CFD-BF-042-031-HC.jpg,1500,dash,O,z,616,3,1,38204.0,239511.40000000596,7182,ATS,C,17
18,test,1,B,mfborder.png,1,z,Mon Jul 21 2025 16:56:56 GMT-0500 (Central Daylight Time),279364.90000000596,CFD-BF-031-020-A.jpg,1000,dash,O,z,591,4,1,39853.5,239511.40000000596,7182,ATS,C,18
19,test,1,B,mfborder.png,1,m,Mon Jul 21 2025 16:56:56 GMT-0500 (Central Daylight Time),281647.6999999881,CFD-BM-022-004-HC.jpg,1700,dash,O,m,538,1,1,42136.29999998212,239511.40000000596,7182,ATS,C,19
20,test,1,B,mfborder.png,1,m,Mon Jul 21 2025 16:56:56 GMT-0500 (Central Daylight Time),284013.90000000596,CFD-BM-021-026-A.jpg,1600,dash,O,m,731,2,1,44502.5,239511.40000000596,7182,ATS,C,20
21,test,1,B,mfborder.png,1,m,Mon Jul 21 2025 16:56:56 GMT-0500 (Central Daylight Time),285912.8000000119,CFD-WM-034-040-A.jpg,1200,dash,O,m,636,6,1,46401.40000000596,239511.40000000596,7182,ATS,C,21
22,test,1,B,mfborder.png,1,z,Mon Jul 21 2025 16:56:56 GMT-0500 (Central Daylight Time),288411.90000000596,CFD-WF-001-010-HC.jpg,1900,dash,O,z,557,8,1,48900.5,239511.40000000596,7182,ATS,C,22
23,test,1,B,mfborder.png,1,z,Mon Jul 21 2025 16:56:56 GMT-0500 (Central Daylight Time),290378.0,CFD-WF-013-009-HC.jpg,1000,dash,O,z,927,12,1,50866.59999999404,239511.40000000596,7182,ATS,C,23
24,test,1,B,mfborder.png,1,m,Mon Jul 21 2025 16:56:56 GMT-0500 (Central Daylight Time),292960.8000000119,CFD-WM-036-018-A.jpg,1700,dash,O,m,836,9,1,53449.40000000596,239511.40000000596,7182,ATS,C,24
1,prac,1,C,mfborder.png,1,m,Mon Jul 21 2025 16:56:56 GMT-0500 (Central Daylight Time),347126.5,CFD-WM-036-018-A.jpg,1700,solid,O,m,1138,9,1,3666.5,343460.0,7182,ATS,C,1
1,prac,1,C,haborder.png,0,m,Mon Jul 21 2025 16:56:56 GMT-0500 (Central Daylight Time),350958.0,CFD-BM-022-004-HC.jpg,1500,solid,O,None,1516,9,1,7498.0,343460.0,7182,ATS,C,2
2,prac,1,C,mfborder.png,1,z,Mon Jul 21 2025 16:56:56 GMT-0500 (Central Daylight Time),354007.6999999881,CFD-BF-019-004-HC.jpg,1000,dash,O,z,1219,9,1,10547.699999988079,343460.0,7182,ATS,C,3
3,prac,1,C,haborder.png,1,m,Mon Jul 21 2025 16:56:56 GMT-0500 (Central Daylight Time),356590.09999999404,CFD-WM-028-005-HC.jpg,1000,dash,O,m,763,9,1,13130.09999999404,343460.0,7182,ATS,C,4
4,prac,1,C,haborder.png,1,m,Mon Jul 21 2025 16:56:56 GMT-0500 (Central Daylight Time),360055.3000000119,CFD-WM-028-005-HC.jpg,1400,solid,O,m,1254,9,1,16595.30000001192,343460.0,7182,ATS,C,5
5,prac,1,C,mfborder.png,1,z,Mon Jul 21 2025 16:56:56 GMT-0500 (Central Daylight Time),363372.1999999881,CFD-WF-023-013-A.jpg,1500,solid,O,z,983,9,1,19912.19999998808,343460.0,7182,ATS,C,6
6,prac,1,C,haborder.png,1,z,Mon Jul 21 2025 16:56:56 GMT-0500 (Central Daylight Time),366986.5,CFD-BF-002-018-A.jpg,1700,solid,O,z,1083,9,1,23526.5,343460.0,7182,ATS,C,7
7,prac,1,C,mfborder.png,1,z,Mon Jul 21 2025 16:56:56 GMT-0500 (Central Daylight Time),370285.6999999881,CFD-WF-013-009-HC.jpg,1600,dash,O,z,897,9,1,26825.69999998808,343460.0,7182,ATS,C,8
8,prac,1,C,mfborder.png,1,m,Mon Jul 21 2025 16:56:56 GMT-0500 (Central Daylight Time),373001.09999999404,CFD-BM-043-014-A.jpg,1200,dash,O,m,694,9,1,29541.09999999404,343460.0,7182,ATS,C,9
9,prac,1,C,haborder.png,1,z,Mon Jul 21 2025 16:56:56 GMT-0500 (Central Daylight Time),376116.6999999881,CFD-WF-037-016-A.jpg,1600,dash,O,z,690,9,1,32656.69999998808,343460.0,7182,ATS,C,10
10,prac,1,C,mfborder.png,1,m,Mon Jul 21 2025 16:56:56 GMT-0500 (Central Daylight Time),379715.59999999404,CFD-BM-034-035-HC.jpg,2000,solid,O,m,774,9,1,36255.59999999404,343460.0,7182,ATS,C,11
11,prac,1,C,haborder.png,1,z,Mon Jul 21 2025 16:56:56 GMT-0500 (Central Daylight Time),383047.90000000596,CFD-BF-031-020-A.jpg,1900,dash,O,z,620,9,1,39587.90000000596,343460.0,7182,ATS,C,12
1,test,1,C,mfborder.png,1,m,Mon Jul 21 2025 16:56:56 GMT-0500 (Central Daylight Time),399958.90000000596,CFD-WM-035-036-HC.jpg,1000,dash,O,m,739,4,1,1782.800000011921,398176.09999999404,7182,ATS,C,1
1,test,1,C,haborder.png,0,m,Mon Jul 21 2025 16:56:56 GMT-0500 (Central Daylight Time),402158.09999999404,CFD-WF-001-010-HC.jpg,1500,solid,O,z,640,11,1,3982.0,398176.09999999404,7182,ATS,C,2
1,test,1,C,haborder.png,0,z,Mon Jul 21 2025 16:56:56 GMT-0500 (Central Daylight Time),404407.1999999881,CFD-WM-036-018-A.jpg,1400,solid,O,m,813,7,1,6231.0999999940395,398176.09999999404,7182,ATS,C,3
1,test,1,C,haborder.png,0,z,Mon Jul 21 2025 16:56:56 GMT-0500 (Central Daylight Time),406973.09999999404,CFD-BM-043-014-A.jpg,1900,solid,O,m,624,8,1,8797.0,398176.09999999404,7182,ATS,C,4
1,test,1,C,haborder.png,0,m,Mon Jul 21 2025 16:56:56 GMT-0500 (Central Daylight Time),409372.3000000119,CFD-WF-001-010-HC.jpg,1500,solid,O,z,834,11,1,11196.200000017881,398176.09999999404,7182,ATS,C,5
2,test,1,C,mfborder.png,1,m,Mon Jul 21 2025 16:56:56 GMT-0500 (Central Daylight Time),411288.3000000119,CFD-BM-022-004-HC.jpg,1200,dash,O,m,662,6,1,13112.200000017881,398176.09999999404,7182,ATS,C,6
3,test,1,C,mfborder.png,1,z,Mon Jul 21 2025 16:56:56 GMT-0500 (Central Daylight Time),413687.59999999404,CFD-BF-042-031-HC.jpg,1700,dash,O,z,663,1,1,15511.5,398176.09999999404,7182,ATS,C,7
3,test,1,C,haborder.png,0,z,Mon Jul 21 2025 16:56:56 GMT-0500 (Central Daylight Time),416837.40000000596,CFD-BM-021-026-A.jpg,1700,solid,O,m,1416,9,1,18661.30000001192,398176.09999999404,7182,ATS,C,8
4,test,1,C,mfborder.png,1,z,Mon Jul 21 2025 16:56:56 GMT-0500 (Central Daylight Time),419302.40000000596,CFD-BF-031-020-A.jpg,1600,dash,O,z,806,2,1,21126.30000001192,398176.09999999404,7182,ATS,C,9
5,test,1,C,mfborder.png,1,m,Mon Jul 21 2025 16:56:56 GMT-0500 (Central Daylight Time),421318.09999999404,CFD-BM-022-004-HC.jpg,1200,dash,O,m,781,6,1,23142.0,398176.09999999404,7182,ATS,C,10
6,test,1,C,mfborder.png,1,z,Mon Jul 21 2025 16:56:56 GMT-0500 (Central Daylight Time),423534.0,CFD-BF-031-020-A.jpg,1600,dash,O,z,582,2,1,25357.90000000596,398176.09999999404,7182,ATS,C,11
6,test,1,C,haborder.png,0,m,Mon Jul 21 2025 16:56:56 GMT-0500 (Central Daylight Time),426183.5,CFD-BF-019-004-HC.jpg,1600,solid,O,z,996,10,1,28007.40000000596,398176.09999999404,7182,ATS,C,12
6,test,1,C,haborder.png,0,z,Mon Jul 21 2025 16:56:56 GMT-0500 (Central Daylight Time),428115.59999999404,CFD-WM-036-018-A.jpg,1400,solid,O,m,490,7,1,29939.5,398176.09999999404,7182,ATS,C,13
6,test,1,C,haborder.png,0,m,Mon Jul 21 2025 16:56:56 GMT-0500 (Central Daylight Time),429749.0,CFD-WF-013-009-HC.jpg,1000,solid,O,z,608,12,1,31572.90000000596,398176.09999999404,7182,ATS,C,14
6,test,1,C,mfborder.png,0,z,Mon Jul 21 2025 16:56:56 GMT-0500 (Central Daylight Time),431915.0,CFD-WF-037-016-A.jpg,1500,dash,O,m,618,3,1,33738.90000000596,398176.09999999404,7182,ATS,C,15
7,test,1,C,mfborder.png,1,m,Mon Jul 21 2025 16:56:56 GMT-0500 (Central Daylight Time),434546.5,CFD-WM-034-040-A.jpg,2000,dash,O,m,592,5,1,36370.40000000596,398176.09999999404,7182,ATS,C,16
8,test,1,C,mfborder.png,1,m,Mon Jul 21 2025 16:56:56 GMT-0500 (Central Daylight Time),437279.09999999404,CFD-WM-034-040-A.jpg,2000,dash,O,m,712,5,1,39103.0,398176.09999999404,7182,ATS,C,17
9,test,1,C,haborder.png,1,z,Mon Jul 21 2025 16:56:56 GMT-0500 (Central Daylight Time),440129.0,CFD-BM-043-014-A.jpg,1900,solid,O,z,921,8,1,41952.90000000596,398176.09999999404,7182,ATS,C,18
9,test,1,C,haborder.png,0,z,Mon Jul 21 2025 16:56:56 GMT-0500 (Central Daylight Time),443143.8000000119,CFD-BM-021-026-A.jpg,1700,solid,O,m,1268,9,1,44967.70000001788,398176.09999999404,7182,ATS,C,19
9,test,1,C,haborder.png,0,m,Mon Jul 21 2025 16:56:56 GMT-0500 (Central Daylight Time),445792.90000000596,CFD-BF-019-004-HC.jpg,1600,solid,O,z,1027,10,1,47616.80000001192,398176.09999999404,7182,ATS,C,20
10,test,1,C,mfborder.png,1,m,Mon Jul 21 2025 16:56:56 GMT-0500 (Central Daylight Time),447793.0,CFD-WM-035-036-HC.jpg,1000,dash,O,m,979,4,1,49616.90000000596,398176.09999999404,7182,ATS,C,21
11,test,1,C,mfborder.png,1,z,Mon Jul 21 2025 16:56:56 GMT-0500 (Central Daylight Time),450724.59999999404,CFD-WF-037-016-A.jpg,1500,dash,O,z,1381,3,1,52548.5,398176.09999999404,7182,ATS,C,22
11,test,1,C,haborder.png,0,m,Mon Jul 21 2025 16:56:56 GMT-0500 (Central Daylight Time),453241.3000000119,CFD-WF-013-009-HC.jpg,1000,solid,O,z,1486,12,1,55065.20000001788,398176.09999999404,7182,ATS,C,23
12,test,1,C,mfborder.png,1,z,Mon Jul 21 2025 16:56:56 GMT-0500 (Central Daylight Time),455790.59999999404,CFD-BF-042-031-HC.jpg,1700,dash,O,z,806,1,1,57614.5,398176.09999999404,7182,ATS,C,24
1,test,2,C,haborder.png,1,z,Mon Jul 21 2025 16:56:56 GMT-0500 (Central Daylight Time),467486.6999999881,CFD-BF-031-020-A.jpg,1400,solid,O,z,923,7,1,2365.899999976158,465120.8000000119,7182,ATS,C,1
2,test,2,C,haborder.png,1,m,Mon Jul 21 2025 16:56:56 GMT-0500 (Central Daylight Time),470252.6999999881,CFD-WM-028-005-HC.jpg,1500,solid,O,m,1200,11,1,5131.899999976158,465120.8000000119,7182,ATS,C,2
2,test,2,C,mfborder.png,0,z,Mon Jul 21 2025 16:56:56 GMT-0500 (Central Daylight Time),473520.90000000596,CFD-WF-013-009-HC.jpg,1700,dash,O,None,1515,1,1,8400.09999999404,465120.8000000119,7182,ATS,C,3
3,test,2,C,mfborder.png,1,m,Mon Jul 21 2025 16:56:56 GMT-0500 (Central Daylight Time),475684.0,CFD-WM-036-018-A.jpg,1200,dash,O,m,917,6,1,10563.199999988079,465120.8000000119,7182,ATS,C,4
4,test,2,C,mfborder.png,1,z,Mon Jul 21 2025 16:56:56 GMT-0500 (Central Daylight Time),478000.09999999404,CFD-WF-013-009-HC.jpg,1700,dash,O,z,580,1,1,12879.299999982119,465120.8000000119,7182,ATS,C,5
5,test,2,C,haborder.png,1,m,Mon Jul 21 2025 16:56:56 GMT-0500 (Central Daylight Time),480515.6999999881,CFD-BM-022-004-HC.jpg,1600,solid,O,m,875,10,1,15394.899999976158,465120.8000000119,7182,ATS,C,6
6,test,2,C,haborder.png,1,m,Mon Jul 21 2025 16:56:56 GMT-0500 (Central Daylight Time),482365.8000000119,CFD-WM-028-005-HC.jpg,1000,solid,O,m,815,12,1,17245.0,465120.8000000119,7182,ATS,C,7
7,test,2,C,haborder.png,1,z,Mon Jul 21 2025 16:56:56 GMT-0500 (Central Daylight Time),484764.5,CFD-WF-037-016-A.jpg,1700,solid,O,z,634,9,1,19643.69999998808,465120.8000000119,7182,ATS,C,8
8,test,2,C,haborder.png,1,z,Mon Jul 21 2025 16:56:56 GMT-0500 (Central Daylight Time),487280.1999999881,CFD-WF-037-016-A.jpg,1700,solid,O,z,779,9,1,22159.399999976158,465120.8000000119,7182,ATS,C,9
9,test,2,C,mfborder.png,1,m,Mon Jul 21 2025 16:56:56 GMT-0500 (Central Daylight Time),489179.59999999404,CFD-WM-036-018-A.jpg,1200,dash,O,m,659,6,1,24058.79999998212,465120.8000000119,7182,ATS,C,10
10,test,2,C,haborder.png,1,z,Mon Jul 21 2025 16:56:56 GMT-0500 (Central Daylight Time),491728.0,CFD-BF-002-018-A.jpg,1900,solid,O,z,611,8,1,26607.19999998808,465120.8000000119,7182,ATS,C,11
11,test,2,C,mfborder.png,1,m,Mon Jul 21 2025 16:56:56 GMT-0500 (Central Daylight Time),494427.59999999404,CFD-BM-043-014-A.jpg,2000,dash,O,m,667,5,1,29306.79999998212,465120.8000000119,7182,ATS,C,12
12,test,2,C,mfborder.png,1,z,Mon Jul 21 2025 16:56:56 GMT-0500 (Central Daylight Time),496726.90000000596,CFD-BF-019-004-HC.jpg,1500,dash,O,z,780,3,1,31606.09999999404,465120.8000000119,7182,ATS,C,13
13,test,2,C,haborder.png,1,m,Mon Jul 21 2025 16:56:56 GMT-0500 (Central Daylight Time),498959.5,CFD-BM-022-004-HC.jpg,1600,solid,O,m,596,10,1,33838.69999998808,465120.8000000119,7182,ATS,C,14
14,test,2,C,haborder.png,1,m,Mon Jul 21 2025 16:56:56 GMT-0500 (Central Daylight Time),500642.40000000596,CFD-WM-028-005-HC.jpg,1000,solid,O,m,627,12,1,35521.59999999404,465120.8000000119,7182,ATS,C,15
15,test,2,C,mfborder.png,1,m,Mon Jul 21 2025 16:56:56 GMT-0500 (Central Daylight Time),503274.8000000119,CFD-BM-043-014-A.jpg,2000,dash,O,m,584,5,1,38154.0,465120.8000000119,7182,ATS,C,16
16,test,2,C,mfborder.png,1,z,Mon Jul 21 2025 16:56:56 GMT-0500 (Central Daylight Time),505557.8000000119,CFD-WF-023-013-A.jpg,1600,dash,O,z,648,2,1,40437.0,465120.8000000119,7182,ATS,C,17
17,test,2,C,mfborder.png,1,m,Mon Jul 21 2025 16:56:56 GMT-0500 (Central Daylight Time),507273.6999999881,CFD-BM-034-035-HC.jpg,1000,dash,O,m,678,4,1,42152.89999997616,465120.8000000119,7182,ATS,C,18
18,test,2,C,haborder.png,1,z,Mon Jul 21 2025 16:56:56 GMT-0500 (Central Daylight Time),509372.90000000596,CFD-BF-031-020-A.jpg,1400,solid,O,z,651,7,1,44252.09999999404,465120.8000000119,7182,ATS,C,19
19,test,2,C,mfborder.png,1,z,Mon Jul 21 2025 16:56:56 GMT-0500 (Central Daylight Time),512155.5,CFD-BF-019-004-HC.jpg,1500,dash,O,z,1234,3,1,47034.69999998808,465120.8000000119,7182,ATS,C,20
20,test,2,C,mfborder.png,1,z,Mon Jul 21 2025 16:56:56 GMT-0500 (Central Daylight Time),514488.0,CFD-WF-023-013-A.jpg,1600,dash,O,z,688,2,1,49367.19999998808,465120.8000000119,7182,ATS,C,21
21,test,2,C,mfborder.png,1,m,Mon Jul 21 2025 16:56:56 GMT-0500 (Central Daylight Time),516220.8000000119,CFD-BM-034-035-HC.jpg,1000,dash,O,m,691,4,1,51100.0,465120.8000000119,7182,ATS,C,22
22,test,2,C,haborder.png,1,z,Mon Jul 21 2025 16:56:56 GMT-0500 (Central Daylight Time),518786.59999999404,CFD-BF-002-018-A.jpg,1900,solid,O,z,627,8,1,53665.79999998212,465120.8000000119,7182,ATS,C,23
23,test,2,C,haborder.png,1,m,Mon Jul 21 2025 16:56:56 GMT-0500 (Central Daylight Time),520985.90000000596,CFD-WM-028-005-HC.jpg,1500,solid,O,m,661,11,1,55865.09999999404,465120.8000000119,7182,ATS,C,24
1,test,3,C,mfborder.png,1,m,Mon Jul 21 2025 16:56:56 GMT-0500 (Central Daylight Time),524934.400000006,CFD-WM-035-036-HC.jpg,1000,dash,O,m,673,4,1,1732.7000000178814,523201.6999999881,7182,ATS,C,1
1,test,3,C,haborder.png,0,m,Mon Jul 21 2025 16:56:56 GMT-0500 (Central Daylight Time),527183.6999999881,CFD-WF-001-010-HC.jpg,1500,solid,O,z,730,11,1,3982.0,523201.6999999881,7182,ATS,C,2
1,test,3,C,haborder.png,0,m,Mon Jul 21 2025 16:56:56 GMT-0500 (Central Daylight Time),529016.599999994,CFD-WF-013-009-HC.jpg,1000,solid,O,z,779,12,1,5814.9000000059605,523201.6999999881,7182,ATS,C,3
2,test,3,C,mfborder.png,1,z,Mon Jul 21 2025 16:56:56 GMT-0500 (Central Daylight Time),531415.5,CFD-WF-037-016-A.jpg,1500,dash,O,z,863,3,1,8213.800000011921,523201.6999999881,7182,ATS,C,4
2,test,3,C,haborder.png,0,z,Mon Jul 21 2025 16:56:56 GMT-0500 (Central Daylight Time),533981.599999994,CFD-BM-043-014-A.jpg,1900,solid,O,m,624,8,1,10779.90000000596,523201.6999999881,7182,ATS,C,5
2,test,3,C,haborder.png,0,z,Mon Jul 21 2025 16:56:56 GMT-0500 (Central Daylight Time),536081.0,CFD-WM-036-018-A.jpg,1400,solid,O,m,654,7,1,12879.300000011921,523201.6999999881,7182,ATS,C,6
2,test,3,C,haborder.png,0,m,Mon Jul 21 2025 16:56:56 GMT-0500 (Central Daylight Time),538613.6999999881,CFD-BF-019-004-HC.jpg,1600,solid,O,z,899,10,1,15412.0,523201.6999999881,7182,ATS,C,7
2,test,3,C,haborder.png,0,m,Mon Jul 21 2025 16:56:56 GMT-0500 (Central Daylight Time),540379.400000006,CFD-WF-013-009-HC.jpg,1000,solid,O,z,718,12,1,17177.70000001788,523201.6999999881,7182,ATS,C,8
2,test,3,C,haborder.png,0,z,Mon Jul 21 2025 16:56:56 GMT-0500 (Central Daylight Time),542828.6999999881,CFD-BM-021-026-A.jpg,1700,solid,O,m,708,9,1,19627.0,523201.6999999881,7182,ATS,C,9
2,test,3,C,haborder.png,0,m,Mon Jul 21 2025 16:56:56 GMT-0500 (Central Daylight Time),545861.099999994,CFD-WF-001-010-HC.jpg,1500,solid,O,z,1483,11,1,22659.40000000596,523201.6999999881,7182,ATS,C,10
3,test,3,C,mfborder.png,1,m,Mon Jul 21 2025 16:56:56 GMT-0500 (Central Daylight Time),547760.400000006,CFD-BM-022-004-HC.jpg,1200,dash,O,m,645,6,1,24558.70000001788,523201.6999999881,7182,ATS,C,11
3,test,3,C,haborder.png,0,m,Mon Jul 21 2025 16:56:56 GMT-0500 (Central Daylight Time),550392.900000006,CFD-BF-019-004-HC.jpg,1600,solid,O,z,987,10,1,27191.20000001788,523201.6999999881,7182,ATS,C,12
4,test,3,C,mfborder.png,1,z,Mon Jul 21 2025 16:56:56 GMT-0500 (Central Daylight Time),552642.099999994,CFD-BF-031-020-A.jpg,1600,dash,O,z,603,2,1,29440.40000000596,523201.6999999881,7182,ATS,C,13
4,test,3,C,haborder.png,0,z,Mon Jul 21 2025 16:56:56 GMT-0500 (Central Daylight Time),555291.400000006,CFD-BM-043-014-A.jpg,1900,solid,O,m,710,8,1,32089.70000001788,523201.6999999881,7182,ATS,C,14
5,test,3,C,mfborder.png,1,z,Mon Jul 21 2025 16:56:56 GMT-0500 (Central Daylight Time),557940.400000006,CFD-BF-031-020-A.jpg,1600,dash,O,z,991,2,1,34738.70000001788,523201.6999999881,7182,ATS,C,15
6,test,3,C,mfborder.png,1,m,Mon Jul 21 2025 16:56:56 GMT-0500 (Central Daylight Time),559923.0,CFD-WM-035-036-HC.jpg,1000,dash,O,m,943,4,1,36721.30000001192,523201.6999999881,7182,ATS,C,16
6,test,3,C,haborder.png,0,z,Mon Jul 21 2025 16:56:56 GMT-0500 (Central Daylight Time),562255.6999999881,CFD-WM-036-018-A.jpg,1400,solid,O,m,896,7,1,39054.0,523201.6999999881,7182,ATS,C,17
6,test,3,C,haborder.png,0,z,Mon Jul 21 2025 16:56:56 GMT-0500 (Central Daylight Time),564938.0,CFD-BM-021-026-A.jpg,1700,solid,O,m,944,9,1,41736.30000001192,523201.6999999881,7182,ATS,C,18
7,test,3,C,mfborder.png,1,z,Mon Jul 21 2025 16:56:56 GMT-0500 (Central Daylight Time),567354.0,CFD-BF-042-031-HC.jpg,1700,dash,O,z,669,1,1,44152.30000001192,523201.6999999881,7182,ATS,C,19
8,test,3,C,mfborder.png,1,z,Mon Jul 21 2025 16:56:56 GMT-0500 (Central Daylight Time),569586.6999999881,CFD-WF-037-016-A.jpg,1500,dash,O,z,685,3,1,46385.0,523201.6999999881,7182,ATS,C,20
9,test,3,C,mfborder.png,1,m,Mon Jul 21 2025 16:56:56 GMT-0500 (Central Daylight Time),571385.099999994,CFD-BM-022-004-HC.jpg,1200,dash,O,m,535,6,1,48183.40000000596,523201.6999999881,7182,ATS,C,21
10,test,3,C,mfborder.png,1,m,Mon Jul 21 2025 16:56:56 GMT-0500 (Central Daylight Time),574118.099999994,CFD-WM-034-040-A.jpg,2000,dash,O,m,714,5,1,50916.40000000596,523201.6999999881,7182,ATS,C,22
11,test,3,C,mfborder.png,1,z,Mon Jul 21 2025 16:56:56 GMT-0500 (Central Daylight Time),576517.599999994,CFD-BF-042-031-HC.jpg,1700,dash,O,z,657,1,1,53315.90000000596,523201.6999999881,7182,ATS,C,23
12,test,3,C,mfborder.png,1,m,Mon Jul 21 2025 16:56:56 GMT-0500 (Central Daylight Time),579116.099999994,CFD-WM-034-040-A.jpg,2000,dash,O,m,550,5,1,55914.40000000596,523201.6999999881,7182,ATS,C,24
1,test,4,C,haborder.png,1,z,Mon Jul 21 2025 16:56:56 GMT-0500 (Central Daylight Time),583082.0,CFD-BF-031-020-A.jpg,1400,solid,O,z,761,7,1,2215.9000000059605,580866.099999994,7182,ATS,C,1
2,test,4,C,haborder.png,1,m,Mon Jul 21 2025 16:56:56 GMT-0500 (Central Daylight Time),585364.6999999881,CFD-BM-022-004-HC.jpg,1600,solid,O,m,634,10,1,4498.5999999940395,580866.099999994,7182,ATS,C,2
3,test,4,C,haborder.png,1,z,Mon Jul 21 2025 16:56:56 GMT-0500 (Central Daylight Time),588197.099999994,CFD-BF-002-018-A.jpg,1900,solid,O,z,891,8,1,7331.0,580866.099999994,7182,ATS,C,3
4,test,4,C,mfborder.png,1,m,Mon Jul 21 2025 16:56:56 GMT-0500 (Central Daylight Time),590013.3000000119,CFD-BM-034-035-HC.jpg,1000,dash,O,m,766,4,1,9147.200000017881,580866.099999994,7182,ATS,C,4
5,test,4,C,haborder.png,1,m,Mon Jul 21 2025 16:56:56 GMT-0500 (Central Daylight Time),592361.6999999881,CFD-WM-028-005-HC.jpg,1500,solid,O,m,802,11,1,11495.59999999404,580866.099999994,7182,ATS,C,5
6,test,4,C,mfborder.png,1,m,Mon Jul 21 2025 16:56:56 GMT-0500 (Central Daylight Time),595610.400000006,CFD-BM-043-014-A.jpg,2000,dash,O,m,1217,5,1,14744.300000011921,580866.099999994,7182,ATS,C,6
7,test,4,C,haborder.png,1,m,Mon Jul 21 2025 16:56:56 GMT-0500 (Central Daylight Time),597510.5,CFD-WM-028-005-HC.jpg,1000,solid,O,m,881,12,1,16644.40000000596,580866.099999994,7182,ATS,C,7
8,test,4,C,mfborder.png,1,z,Mon Jul 21 2025 16:56:56 GMT-0500 (Central Daylight Time),599843.3000000119,CFD-BF-019-004-HC.jpg,1500,dash,O,z,776,3,1,18977.20000001788,580866.099999994,7182,ATS,C,8
9,test,4,C,mfborder.png,1,z,Mon Jul 21 2025 16:56:56 GMT-0500 (Central Daylight Time),602475.599999994,CFD-WF-013-009-HC.jpg,1700,dash,O,z,892,1,1,21609.5,580866.099999994,7182,ATS,C,9
10,test,4,C,mfborder.png,1,m,Mon Jul 21 2025 16:56:56 GMT-0500 (Central Daylight Time),604541.6999999881,CFD-WM-036-018-A.jpg,1200,dash,O,m,832,6,1,23675.59999999404,580866.099999994,7182,ATS,C,10
11,test,4,C,mfborder.png,1,z,Mon Jul 21 2025 16:56:56 GMT-0500 (Central Daylight Time),607424.1999999881,CFD-WF-023-013-A.jpg,1600,dash,O,z,1221,2,1,26558.09999999404,580866.099999994,7182,ATS,C,11
12,test,4,C,haborder.png,1,m,Mon Jul 21 2025 16:56:56 GMT-0500 (Central Daylight Time),610006.400000006,CFD-WM-028-005-HC.jpg,1500,solid,O,m,1039,11,1,29140.30000001192,580866.099999994,7182,ATS,C,12
13,test,4,C,mfborder.png,1,z,Mon Jul 21 2025 16:56:56 GMT-0500 (Central Daylight Time),612355.599999994,CFD-WF-023-013-A.jpg,1600,dash,O,z,701,2,1,31489.5,580866.099999994,7182,ATS,C,13
14,test,4,C,haborder.png,1,m,Mon Jul 21 2025 16:56:56 GMT-0500 (Central Daylight Time),614005.3000000119,CFD-WM-028-005-HC.jpg,1000,solid,O,m,608,12,1,33139.20000001788,580866.099999994,7182,ATS,C,14
15,test,4,C,mfborder.png,1,z,Mon Jul 21 2025 16:56:56 GMT-0500 (Central Daylight Time),616154.6999999881,CFD-BF-019-004-HC.jpg,1500,dash,O,z,593,3,1,35288.59999999404,580866.099999994,7182,ATS,C,15
16,test,4,C,haborder.png,1,z,Mon Jul 21 2025 16:56:56 GMT-0500 (Central Daylight Time),618770.3000000119,CFD-BF-002-018-A.jpg,1900,solid,O,z,677,8,1,37904.20000001788,580866.099999994,7182,ATS,C,16
17,test,4,C,mfborder.png,1,m,Mon Jul 21 2025 16:56:56 GMT-0500 (Central Daylight Time),620562.599999994,CFD-BM-034-035-HC.jpg,1000,dash,O,m,737,4,1,39696.5,580866.099999994,7182,ATS,C,17
18,test,4,C,mfborder.png,1,z,Mon Jul 21 2025 16:56:56 GMT-0500 (Central Daylight Time),623135.599999994,CFD-WF-013-009-HC.jpg,1700,dash,O,z,838,1,1,42269.5,580866.099999994,7182,ATS,C,18
19,test,4,C,haborder.png,1,z,Mon Jul 21 2025 16:56:56 GMT-0500 (Central Daylight Time),625718.5,CFD-WF-037-016-A.jpg,1700,solid,O,z,849,9,1,44852.40000000596,580866.099999994,7182,ATS,C,19
20,test,4,C,haborder.png,1,m,Mon Jul 21 2025 16:56:56 GMT-0500 (Central Daylight Time),628084.099999994,CFD-BM-022-004-HC.jpg,1600,solid,O,m,725,10,1,47218.0,580866.099999994,7182,ATS,C,20
21,test,4,C,mfborder.png,1,m,Mon Jul 21 2025 16:56:56 GMT-0500 (Central Daylight Time),630283.1999999881,CFD-WM-036-018-A.jpg,1200,dash,O,m,951,6,1,49417.09999999404,580866.099999994,7182,ATS,C,21
22,test,4,C,mfborder.png,1,m,Mon Jul 21 2025 16:56:56 GMT-0500 (Central Daylight Time),633532.099999994,CFD-BM-043-014-A.jpg,2000,dash,O,m,1200,5,1,52666.0,580866.099999994,7182,ATS,C,22
23,test,4,C,haborder.png,1,z,Mon Jul 21 2025 16:56:56 GMT-0500 (Central Daylight Time),635848.1999999881,CFD-WF-037-016-A.jpg,1700,solid,O,z,571,9,1,54982.09999999404,580866.099999994,7182,ATS,C,23
24,test,4,C,haborder.png,1,z,Mon Jul 21 2025 16:56:56 GMT-0500 (Central Daylight Time),638530.599999994,CFD-BF-031-020-A.jpg,1400,solid,O,z,1235,7,1,57664.5,580866.099999994,7182,ATS,C,24
