block_c,block_dur,condition,countdown,datetime,endtime,list,multichar_response,project,response,response_time,session_number,start_end,starttime,subject_id,task,task_vers,trial
,,,,Tue Aug 12 2025 10:45:53 GMT-0500 (Central Daylight Time),,,,O,space,601,1,,,7181,WL,A,
prac,,0,,Tue Aug 12 2025 10:45:53 GMT-0500 (Central Daylight Time),,NA,b,O,b,2778,1,,,7181,WL,A,1.0
prac,,0,,Tue Aug 12 2025 10:45:53 GMT-0500 (Central Daylight Time),,NA,bo,O,o,159,1,,,7181,WL,A,1.0
prac,,0,,Tue Aug 12 2025 10:45:53 GMT-0500 (Central Daylight Time),,NA,boo,O,o,120,1,,,7181,WL,A,1.0
prac,,0,,Tue Aug 12 2025 10:45:53 GMT-0500 (Central Daylight Time),,NA,boos,O,s,43,1,,,7181,WL,A,1.0
prac,,0,,Tue Aug 12 2025 10:45:53 GMT-0500 (Central Daylight Time),,NA,boost,O,t,144,1,,,7181,WL,A,1.0
prac,,0,,Tue Aug 12 2025 10:45:53 GMT-0500 (Central Daylight Time),,NA,boostenter,O,enter,1279,1,,,7181,WL,A,1.0
1,0.8500001430511475,learn,59149.99985694885,Tue Aug 12 2025 10:45:53 GMT-0500 (Central Daylight Time),108426.20000004768,A,b,O,b,805,1,849.0,107577.20000004768,7181,WL,A,1.0
1,1.065999984741211,learn,58934.00001525879,Tue Aug 12 2025 10:45:53 GMT-0500 (Central Daylight Time),108642.20000004768,A,bo,O,o,175,1,1065.0,107577.20000004768,7181,WL,A,1.0
1,1.183000087738037,learn,58816.99991226196,Tue Aug 12 2025 10:45:53 GMT-0500 (Central Daylight Time),108759.0,A,boo,O,o,86,1,1181.7999999523163,107577.20000004768,7181,WL,A,1.0
1,1.499000072479248,learn,58500.99992752075,Tue Aug 12 2025 10:45:53 GMT-0500 (Central Daylight Time),109075.39999985695,A,book,O,k,278,1,1498.1999998092651,107577.20000004768,7181,WL,A,1.0
1,1.8650000095367432,learn,58134.99999046326,Tue Aug 12 2025 10:45:53 GMT-0500 (Central Daylight Time),109441.09999990463,A,bookenter,O,enter,331,1,1863.8999998569489,107577.20000004768,7181,WL,A,1.0
1,2.8320000171661377,learn,57167.99998283386,Tue Aug 12 2025 10:45:53 GMT-0500 (Central Daylight Time),110408.5,A,f,O,f,956,1,967.0,109441.5,7181,WL,A,2.0
1,2.8980000019073486,learn,57101.99999809265,Tue Aug 12 2025 10:45:53 GMT-0500 (Central Daylight Time),110474.29999995232,A,fl,O,l,27,1,1032.7999999523163,109441.5,7181,WL,A,2.0
1,3.0980000495910645,learn,56901.999950408936,Tue Aug 12 2025 10:45:53 GMT-0500 (Central Daylight Time),110674.39999985695,A,flo,O,o,180,1,1232.8999998569489,109441.5,7181,WL,A,2.0
1,3.1649999618530273,learn,56835.00003814697,Tue Aug 12 2025 10:45:53 GMT-0500 (Central Daylight Time),110741.29999995232,A,flow,O,w,50,1,1299.7999999523163,109441.5,7181,WL,A,2.0
1,3.2820000648498535,learn,56717.99993515015,Tue Aug 12 2025 10:45:53 GMT-0500 (Central Daylight Time),110858.5,A,flowe,O,e,88,1,1417.0,109441.5,7181,WL,A,2.0
1,3.930999994277954,learn,56069.000005722046,Tue Aug 12 2025 10:45:53 GMT-0500 (Central Daylight Time),111507.59999990463,A,flower,O,r,616,1,2066.0999999046326,109441.5,7181,WL,A,2.0
1,5.064000129699707,learn,54935.99987030029,Tue Aug 12 2025 10:45:53 GMT-0500 (Central Daylight Time),112639.79999995232,A,flowerenter,O,enter,1110,1,3198.2999999523163,109441.5,7181,WL,A,2.0
1,6.0299999713897705,learn,53970.00002861023,Tue Aug 12 2025 10:45:53 GMT-0500 (Central Daylight Time),113606.29999995232,A,c,O,c,948,1,966.0,112640.29999995232,7181,WL,A,3.0
1,6.147000074386597,learn,53852.9999256134,Tue Aug 12 2025 10:45:53 GMT-0500 (Central Daylight Time),113723.0,A,ch,O,h,109,1,1082.7000000476837,112640.29999995232,7181,WL,A,3.0
1,6.281000137329102,learn,53718.9998626709,Tue Aug 12 2025 10:45:53 GMT-0500 (Central Daylight Time),113857.29999995232,A,chi,O,i,122,1,1217.0,112640.29999995232,7181,WL,A,3.0
1,6.581000089645386,learn,53418.999910354614,Tue Aug 12 2025 10:45:53 GMT-0500 (Central Daylight Time),114157.09999990463,A,chim,O,m,264,1,1516.7999999523163,112640.29999995232,7181,WL,A,3.0
1,7.13100004196167,learn,52868.99995803833,Tue Aug 12 2025 10:45:53 GMT-0500 (Central Daylight Time),114707.0,A,chimn,O,n,508,1,2066.7000000476837,112640.29999995232,7181,WL,A,3.0
1,7.480999946594238,learn,52519.00005340576,Tue Aug 12 2025 10:45:53 GMT-0500 (Central Daylight Time),115056.89999985695,A,chimne,O,e,317,1,2416.5999999046326,112640.29999995232,7181,WL,A,3.0
1,7.614000082015991,learn,52385.99991798401,Tue Aug 12 2025 10:45:53 GMT-0500 (Central Daylight Time),115190.39999985695,A,chimney,O,y,98,1,2550.0999999046326,112640.29999995232,7181,WL,A,3.0
1,7.996999979019165,learn,52003.000020980835,Tue Aug 12 2025 10:45:53 GMT-0500 (Central Daylight Time),115573.5,A,chimneyenter,O,enter,348,1,2933.2000000476837,112640.29999995232,7181,WL,A,3.0
1,11.13100004196167,learn,48868.99995803833,Tue Aug 12 2025 10:45:53 GMT-0500 (Central Daylight Time),118705.70000004768,A,r,O,r,3120,1,3131.800000190735,115573.89999985695,7181,WL,A,4.0
1,11.281000137329102,learn,48718.9998626709,Tue Aug 12 2025 10:45:53 GMT-0500 (Central Daylight Time),118855.70000004768,A,ru,O,u,115,1,3281.800000190735,115573.89999985695,7181,WL,A,4.0
1,11.430000066757202,learn,48569.9999332428,Tue Aug 12 2025 10:45:53 GMT-0500 (Central Daylight Time),119005.39999985695,A,rug,O,g,118,1,3431.5,115573.89999985695,7181,WL,A,4.0
1,11.845999956130981,learn,48154.00004386902,Tue Aug 12 2025 10:45:53 GMT-0500 (Central Daylight Time),119421.20000004768,A,rugenter,O,enter,380,1,3847.300000190735,115573.89999985695,7181,WL,A,4.0
1,14.213000059127808,learn,45786.99994087219,Tue Aug 12 2025 10:45:53 GMT-0500 (Central Daylight Time),121788.0,A,l,O,l,2353,1,2366.600000143051,119421.39999985695,7181,WL,A,5.0
1,14.413000106811523,learn,45586.99989318848,Tue Aug 12 2025 10:45:53 GMT-0500 (Central Daylight Time),121988.0,A,lo,O,o,158,1,2566.600000143051,119421.39999985695,7181,WL,A,5.0
1,14.562999963760376,learn,45437.000036239624,Tue Aug 12 2025 10:45:53 GMT-0500 (Central Daylight Time),122137.89999985695,A,log,O,g,116,1,2716.5,119421.39999985695,7181,WL,A,5.0
1,14.84500002861023,learn,45154.99997138977,Tue Aug 12 2025 10:45:53 GMT-0500 (Central Daylight Time),122420.09999990463,A,logenter,O,enter,247,1,2998.7000000476837,119421.39999985695,7181,WL,A,5.0
1,16.378999948501587,learn,43621.00005149841,Tue Aug 12 2025 10:45:53 GMT-0500 (Central Daylight Time),123954.0,A,g,O,g,1522,1,1533.5,122420.5,7181,WL,A,6.0
1,16.478000164031982,learn,43521.99983596802,Tue Aug 12 2025 10:45:53 GMT-0500 (Central Daylight Time),124053.20000004768,A,go,O,o,65,1,1632.7000000476837,122420.5,7181,WL,A,6.0
1,16.67799997329712,learn,43322.00002670288,Tue Aug 12 2025 10:45:53 GMT-0500 (Central Daylight Time),124253.59999990463,A,gol,O,l,187,1,1833.0999999046326,122420.5,7181,WL,A,6.0
1,16.84500002861023,learn,43154.99997138977,Tue Aug 12 2025 10:45:53 GMT-0500 (Central Daylight Time),124420.0,A,gold,O,d,131,1,1999.5,122420.5,7181,WL,A,6.0
1,17.24399995803833,learn,42756.00004196167,Tue Aug 12 2025 10:45:53 GMT-0500 (Central Daylight Time),124819.20000004768,A,goldenter,O,enter,367,1,2398.7000000476837,122420.5,7181,WL,A,6.0
1,18.778000116348267,learn,41221.99988365173,Tue Aug 12 2025 10:45:53 GMT-0500 (Central Daylight Time),126353.20000004768,A,m,O,m,1515,1,1533.6000001430511,124819.59999990463,7181,WL,A,7.0
1,18.89400005340576,learn,41105.99994659424,Tue Aug 12 2025 10:45:53 GMT-0500 (Central Daylight Time),126468.89999985695,A,me,O,e,83,1,1649.2999999523163,124819.59999990463,7181,WL,A,7.0
1,19.361000061035156,learn,40638.999938964844,Tue Aug 12 2025 10:45:53 GMT-0500 (Central Daylight Time),126936.29999995232,A,med,O,d,450,1,2116.7000000476837,124819.59999990463,7181,WL,A,7.0
1,19.927000045776367,learn,40072.99995422363,Tue Aug 12 2025 10:45:53 GMT-0500 (Central Daylight Time),127502.59999990463,A,medo,O,o,531,1,2683.0,124819.59999990463,7181,WL,A,7.0
1,20.009999990463257,learn,39990.00000953674,Tue Aug 12 2025 10:45:53 GMT-0500 (Central Daylight Time),127585.5,A,medow,O,w,44,1,2765.9000000953674,124819.59999990463,7181,WL,A,7.0
1,20.776999950408936,learn,39223.000049591064,Tue Aug 12 2025 10:45:53 GMT-0500 (Central Daylight Time),128352.59999990463,A,medo,O,backspace,740,1,3533.0,124819.59999990463,7181,WL,A,7.0
1,20.97699999809265,learn,39023.00000190735,Tue Aug 12 2025 10:45:53 GMT-0500 (Central Daylight Time),128552.5,A,med,O,backspace,166,1,3732.9000000953674,124819.59999990463,7181,WL,A,7.0
1,21.127000093460083,learn,38872.99990653992,Tue Aug 12 2025 10:45:53 GMT-0500 (Central Daylight Time),128702.09999990463,A,me,O,backspace,123,1,3882.5,124819.59999990463,7181,WL,A,7.0
1,21.276000022888184,learn,38723.99997711182,Tue Aug 12 2025 10:45:53 GMT-0500 (Central Daylight Time),128851.20000004768,A,mea,O,a,116,1,4031.600000143051,124819.59999990463,7181,WL,A,7.0
1,21.544000148773193,learn,38455.99985122681,Tue Aug 12 2025 10:45:53 GMT-0500 (Central Daylight Time),129119.0,A,mead,O,d,251,1,4299.400000095367,124819.59999990463,7181,WL,A,7.0
1,21.993000030517578,learn,38006.99996948242,Tue Aug 12 2025 10:45:53 GMT-0500 (Central Daylight Time),129568.5,A,meado,O,o,413,1,4748.900000095367,124819.59999990463,7181,WL,A,7.0
1,22.3270001411438,learn,37672.9998588562,Tue Aug 12 2025 10:45:53 GMT-0500 (Central Daylight Time),129902.09999990463,A,meadow,O,w,308,1,5082.5,124819.59999990463,7181,WL,A,7.0
1,22.492000102996826,learn,37507.999897003174,Tue Aug 12 2025 10:45:53 GMT-0500 (Central Daylight Time),130067.70000004768,A,meadowenter,O,enter,133,1,5248.100000143051,124819.59999990463,7181,WL,A,7.0
1,33.555999994277954,learn,26444.000005722046,Tue Aug 12 2025 10:45:53 GMT-0500 (Central Daylight Time),141130.70000004768,A,enter,O,enter,11041,1,11062.800000190735,130067.89999985695,7181,WL,A,8.0
1,34.355000019073486,learn,25644.999980926514,Tue Aug 12 2025 10:45:53 GMT-0500 (Central Daylight Time),141930.39999985695,A,enter,O,enter,778,1,799.2999999523163,141131.09999990463,7181,WL,A,9.0
1,34.621999979019165,learn,25378.000020980835,Tue Aug 12 2025 10:45:53 GMT-0500 (Central Daylight Time),142196.89999985695,A,enter,O,enter,250,1,266.19999980926514,141930.70000004768,7181,WL,A,10.0
1,34.955000162124634,learn,25044.999837875366,Tue Aug 12 2025 10:45:53 GMT-0500 (Central Daylight Time),142530.20000004768,A,enter,O,enter,320,1,332.90000009536743,142197.29999995232,7181,WL,A,11.0
1,35.28800010681152,learn,24711.999893188477,Tue Aug 12 2025 10:45:53 GMT-0500 (Central Daylight Time),142863.39999985695,A,enter,O,enter,323,1,332.7999999523163,142530.59999990463,7181,WL,A,12.0
1,35.687999963760376,learn,24312.000036239624,Tue Aug 12 2025 10:45:53 GMT-0500 (Central Daylight Time),143263.29999995232,A,enter,O,enter,382,1,399.5,142863.79999995232,7181,WL,A,13.0
1,36.08800005912781,learn,23911.999940872192,Tue Aug 12 2025 10:45:53 GMT-0500 (Central Daylight Time),143663.20000004768,A,enter,O,enter,381,1,399.5,143263.70000004768,7181,WL,A,14.0
1,36.83800005912781,learn,23161.999940872192,Tue Aug 12 2025 10:45:53 GMT-0500 (Central Daylight Time),144412.89999985695,A,enter,O,enter,742,1,749.2999999523163,143663.59999990463,7181,WL,A,15.0
2,0.6999998092651367,learn,59300.00019073486,Tue Aug 12 2025 10:45:53 GMT-0500 (Central Daylight Time),211791.89999985695,A,g,O,g,671,1,699.3999998569489,211092.5,7181,WL,A,1.0
2,0.8320000171661377,learn,59167.99998283386,Tue Aug 12 2025 10:45:53 GMT-0500 (Central Daylight Time),211924.29999995232,A,go,O,o,102,1,831.7999999523163,211092.5,7181,WL,A,1.0
2,1.0999999046325684,learn,58900.00009536743,Tue Aug 12 2025 10:45:53 GMT-0500 (Central Daylight Time),212191.79999995232,A,gol,O,l,240,1,1099.2999999523163,211092.5,7181,WL,A,1.0
2,1.248999834060669,learn,58751.00016593933,Tue Aug 12 2025 10:45:53 GMT-0500 (Central Daylight Time),212341.5,A,gold,O,d,124,1,1249.0,211092.5,7181,WL,A,1.0
2,1.7319998741149902,learn,58268.00012588501,Tue Aug 12 2025 10:45:53 GMT-0500 (Central Daylight Time),212823.89999985695,A,goldenter,O,enter,445,1,1731.3999998569489,211092.5,7181,WL,A,1.0
2,2.131999969482422,learn,57868.00003051758,Tue Aug 12 2025 10:45:53 GMT-0500 (Central Daylight Time),213224.29999995232,A,b,O,b,390,1,400.2000000476837,212824.09999990463,7181,WL,A,2.0
2,2.3489999771118164,learn,57651.00002288818,Tue Aug 12 2025 10:45:53 GMT-0500 (Central Daylight Time),213441.39999985695,A,bu,O,u,192,1,617.2999999523163,212824.09999990463,7181,WL,A,2.0
2,2.7330000400543213,learn,57266.99995994568,Tue Aug 12 2025 10:45:53 GMT-0500 (Central Daylight Time),213824.59999990463,A,but,O,t,354,1,1000.5,212824.09999990463,7181,WL,A,2.0
2,2.881999969482422,learn,57118.00003051758,Tue Aug 12 2025 10:45:53 GMT-0500 (Central Daylight Time),213974.0,A,butt,O,t,128,1,1149.9000000953674,212824.09999990463,7181,WL,A,2.0
2,3.4819998741149902,learn,56518.00012588501,Tue Aug 12 2025 10:45:53 GMT-0500 (Central Daylight Time),214574.0,A,butto,O,o,577,1,1749.9000000953674,212824.09999990463,7181,WL,A,2.0
2,3.631999969482422,learn,56368.00003051758,Tue Aug 12 2025 10:45:53 GMT-0500 (Central Daylight Time),214724.09999990463,A,button,O,n,121,1,1900.0,212824.09999990463,7181,WL,A,2.0
2,3.88100004196167,learn,56118.99995803833,Tue Aug 12 2025 10:45:53 GMT-0500 (Central Daylight Time),214973.09999990463,A,buttonenter,O,enter,227,1,2149.0,212824.09999990463,7181,WL,A,2.0
2,4.264999866485596,learn,55735.000133514404,Tue Aug 12 2025 10:45:53 GMT-0500 (Central Daylight Time),215357.5,A,k,O,k,369,1,384.10000014305115,214973.39999985695,7181,WL,A,3.0
2,4.615000009536743,learn,55384.99999046326,Tue Aug 12 2025 10:45:53 GMT-0500 (Central Daylight Time),215707.29999995232,A,ke,O,e,316,1,733.9000000953674,214973.39999985695,7181,WL,A,3.0
2,5.047999858856201,learn,54952.0001411438,Tue Aug 12 2025 10:45:53 GMT-0500 (Central Daylight Time),216140.39999985695,A,key,O,y,400,1,1167.0,214973.39999985695,7181,WL,A,3.0
2,5.447000026702881,learn,54552.99997329712,Tue Aug 12 2025 10:45:53 GMT-0500 (Central Daylight Time),216539.20000004768,A,keyenter,O,enter,366,1,1565.8000001907349,214973.39999985695,7181,WL,A,3.0
2,7.680999994277954,learn,52319.000005722046,Tue Aug 12 2025 10:45:53 GMT-0500 (Central Daylight Time),218773.0,A,r,O,r,2226,1,2233.4000000953674,216539.59999990463,7181,WL,A,4.0
2,7.88100004196167,learn,52118.99995803833,Tue Aug 12 2025 10:45:53 GMT-0500 (Central Daylight Time),218973.5,A,ra,O,a,175,1,2433.9000000953674,216539.59999990463,7181,WL,A,4.0
2,8.496999979019165,learn,51503.000020980835,Tue Aug 12 2025 10:45:53 GMT-0500 (Central Daylight Time),219589.09999990463,A,rat,O,t,582,1,3049.5,216539.59999990463,7181,WL,A,4.0
2,8.664000034332275,learn,51335.999965667725,Tue Aug 12 2025 10:45:53 GMT-0500 (Central Daylight Time),219755.89999985695,A,ratt,O,t,132,1,3216.2999999523163,216539.59999990463,7181,WL,A,4.0
2,8.780999898910522,learn,51219.00010108948,Tue Aug 12 2025 10:45:53 GMT-0500 (Central Daylight Time),219872.59999990463,A,rattl,O,l,89,1,3333.0,216539.59999990463,7181,WL,A,4.0
2,8.86299991607666,learn,51137.00008392334,Tue Aug 12 2025 10:45:53 GMT-0500 (Central Daylight Time),219955.29999995232,A,rattle,O,e,50,1,3415.7000000476837,216539.59999990463,7181,WL,A,4.0
2,9.378999948501587,learn,50621.00005149841,Tue Aug 12 2025 10:45:53 GMT-0500 (Central Daylight Time),220471.39999985695,A,rattleenter,O,enter,490,1,3931.7999999523163,216539.59999990463,7181,WL,A,4.0
2,10.097999811172485,learn,49902.000188827515,Tue Aug 12 2025 10:45:53 GMT-0500 (Central Daylight Time),221189.5,A,c,O,c,711,1,717.7999999523163,220471.70000004768,7181,WL,A,5.0
2,10.179999828338623,learn,49820.00017166138,Tue Aug 12 2025 10:45:53 GMT-0500 (Central Daylight Time),221272.09999990463,A,ch,O,h,47,1,800.3999998569489,220471.70000004768,7181,WL,A,5.0
2,10.245999813079834,learn,49754.000186920166,Tue Aug 12 2025 10:45:53 GMT-0500 (Central Daylight Time),221338.09999990463,A,chi,O,i,35,1,866.3999998569489,220471.70000004768,7181,WL,A,5.0
2,10.480000019073486,learn,49519.999980926514,Tue Aug 12 2025 10:45:53 GMT-0500 (Central Daylight Time),221572.0,A,chim,O,m,212,1,1100.2999999523163,220471.70000004768,7181,WL,A,5.0
2,10.746999979019165,learn,49253.000020980835,Tue Aug 12 2025 10:45:53 GMT-0500 (Central Daylight Time),221838.5,A,chimn,O,n,240,1,1366.7999999523163,220471.70000004768,7181,WL,A,5.0
2,10.912999868392944,learn,49087.000131607056,Tue Aug 12 2025 10:45:53 GMT-0500 (Central Daylight Time),222005.09999990463,A,chimne,O,e,133,1,1533.3999998569489,220471.70000004768,7181,WL,A,5.0
2,11.312999963760376,learn,48687.000036239624,Tue Aug 12 2025 10:45:53 GMT-0500 (Central Daylight Time),222405.09999990463,A,chimney,O,y,367,1,1933.3999998569489,220471.70000004768,7181,WL,A,5.0
2,11.711999893188477,learn,48288.00010681152,Tue Aug 12 2025 10:45:53 GMT-0500 (Central Daylight Time),222803.89999985695,A,chimneyenter,O,enter,365,1,2332.199999809265,220471.70000004768,7181,WL,A,5.0
2,13.328999996185303,learn,46671.0000038147,Tue Aug 12 2025 10:45:53 GMT-0500 (Central Daylight Time),224421.39999985695,A,m,O,m,1610,1,1617.1999998092651,222804.20000004768,7181,WL,A,6.0
2,13.428999900817871,learn,46571.00009918213,Tue Aug 12 2025 10:45:53 GMT-0500 (Central Daylight Time),224520.70000004768,A,me,O,e,59,1,1716.5,222804.20000004768,7181,WL,A,6.0
2,13.562000036239624,learn,46437.999963760376,Tue Aug 12 2025 10:45:53 GMT-0500 (Central Daylight Time),224654.39999985695,A,mea,O,a,99,1,1850.1999998092651,222804.20000004768,7181,WL,A,6.0
2,14.111999988555908,learn,45888.00001144409,Tue Aug 12 2025 10:45:53 GMT-0500 (Central Daylight Time),225204.20000004768,A,mead,O,d,521,1,2400.0,222804.20000004768,7181,WL,A,6.0
2,14.328999996185303,learn,45671.0000038147,Tue Aug 12 2025 10:45:53 GMT-0500 (Central Daylight Time),225420.70000004768,A,meado,O,o,184,1,2616.5,222804.20000004768,7181,WL,A,6.0
2,14.494999885559082,learn,45505.00011444092,Tue Aug 12 2025 10:45:53 GMT-0500 (Central Daylight Time),225587.29999995232,A,meadow,O,w,128,1,2783.0999999046326,222804.20000004768,7181,WL,A,6.0
2,15.343999862670898,learn,44656.0001373291,Tue Aug 12 2025 10:45:53 GMT-0500 (Central Daylight Time),226436.0,A,meadowenter,O,enter,816,1,3631.7999999523163,222804.20000004768,7181,WL,A,6.0
2,16.128000020980835,learn,43871.999979019165,Tue Aug 12 2025 10:45:53 GMT-0500 (Central Daylight Time),227220.20000004768,A,b,O,b,762,1,783.9000000953674,226436.29999995232,7181,WL,A,7.0
2,16.210999965667725,learn,43789.000034332275,Tue Aug 12 2025 10:45:53 GMT-0500 (Central Daylight Time),227303.39999985695,A,bo,O,o,47,1,867.0999999046326,226436.29999995232,7181,WL,A,7.0
2,16.360999822616577,learn,43639.00017738342,Tue Aug 12 2025 10:45:53 GMT-0500 (Central Daylight Time),227453.20000004768,A,boo,O,o,124,1,1016.9000000953674,226436.29999995232,7181,WL,A,7.0
2,16.544999837875366,learn,43455.000162124634,Tue Aug 12 2025 10:45:53 GMT-0500 (Central Daylight Time),227636.70000004768,A,book,O,k,152,1,1200.4000000953674,226436.29999995232,7181,WL,A,7.0
2,17.05999994277954,learn,42940.00005722046,Tue Aug 12 2025 10:45:53 GMT-0500 (Central Daylight Time),228152.09999990463,A,bookenter,O,enter,486,1,1715.7999999523163,226436.29999995232,7181,WL,A,7.0
2,18.16100001335144,learn,41838.99998664856,Tue Aug 12 2025 10:45:53 GMT-0500 (Central Daylight Time),229252.70000004768,A,f,O,f,1086,1,1100.4000000953674,228152.29999995232,7181,WL,A,8.0
2,18.243000030517578,learn,41756.99996948242,Tue Aug 12 2025 10:45:53 GMT-0500 (Central Daylight Time),229335.39999985695,A,fl,O,l,55,1,1183.0999999046326,228152.29999995232,7181,WL,A,8.0
2,18.444000005722046,learn,41555.999994277954,Tue Aug 12 2025 10:45:53 GMT-0500 (Central Daylight Time),229536.09999990463,A,flo,O,o,185,1,1383.7999999523163,228152.29999995232,7181,WL,A,8.0
2,18.610999822616577,learn,41389.00017738342,Tue Aug 12 2025 10:45:53 GMT-0500 (Central Daylight Time),229702.59999990463,A,flow,O,w,141,1,1550.2999999523163,228152.29999995232,7181,WL,A,8.0
2,18.74399995803833,learn,41256.00004196167,Tue Aug 12 2025 10:45:53 GMT-0500 (Central Daylight Time),229835.89999985695,A,flowe,O,e,94,1,1683.5999999046326,228152.29999995232,7181,WL,A,8.0
2,18.80999994277954,learn,41190.00005722046,Tue Aug 12 2025 10:45:53 GMT-0500 (Central Daylight Time),229901.70000004768,A,flower,O,r,29,1,1749.4000000953674,228152.29999995232,7181,WL,A,8.0
2,19.109999895095825,learn,40890.000104904175,Tue Aug 12 2025 10:45:53 GMT-0500 (Central Daylight Time),230201.5,A,flowerenter,O,enter,280,1,2049.2000000476837,228152.29999995232,7181,WL,A,8.0
2,19.376999855041504,learn,40623.000144958496,Tue Aug 12 2025 10:45:53 GMT-0500 (Central Daylight Time),230469.09999990463,A,t,O,t,253,1,267.39999985694885,230201.70000004768,7181,WL,A,9.0
2,19.560999870300293,learn,40439.00012969971,Tue Aug 12 2025 10:45:53 GMT-0500 (Central Daylight Time),230653.0,A,tr,O,r,159,1,451.2999999523163,230201.70000004768,7181,WL,A,9.0
2,19.70899987220764,learn,40291.00012779236,Tue Aug 12 2025 10:45:53 GMT-0500 (Central Daylight Time),230801.29999995232,A,tra,O,a,120,1,599.5999999046326,230201.70000004768,7181,WL,A,9.0
2,19.842999935150146,learn,40157.00006484985,Tue Aug 12 2025 10:45:53 GMT-0500 (Central Daylight Time),230935.0,A,trai,O,i,116,1,733.2999999523163,230201.70000004768,7181,WL,A,9.0
2,20.042999982833862,learn,39957.00001716614,Tue Aug 12 2025 10:45:53 GMT-0500 (Central Daylight Time),231135.39999985695,A,train,O,n,184,1,933.6999998092651,230201.70000004768,7181,WL,A,9.0
2,20.491999864578247,learn,39508.00013542175,Tue Aug 12 2025 10:45:53 GMT-0500 (Central Daylight Time),231584.29999995232,A,trainenter,O,enter,412,1,1382.5999999046326,230201.70000004768,7181,WL,A,9.0
2,22.692999839782715,learn,37307.000160217285,Tue Aug 12 2025 10:45:53 GMT-0500 (Central Daylight Time),233784.70000004768,A,r,O,r,2182,1,2200.0,231584.70000004768,7181,WL,A,10.0
2,22.79199981689453,learn,37208.00018310547,Tue Aug 12 2025 10:45:53 GMT-0500 (Central Daylight Time),233883.70000004768,A,ru,O,u,67,1,2299.0,231584.70000004768,7181,WL,A,10.0
2,22.97499990463257,learn,37025.00009536743,Tue Aug 12 2025 10:45:53 GMT-0500 (Central Daylight Time),234066.79999995232,A,rug,O,g,161,1,2482.0999999046326,231584.70000004768,7181,WL,A,10.0
2,23.20799994468689,learn,36792.00005531311,Tue Aug 12 2025 10:45:53 GMT-0500 (Central Daylight Time),234299.89999985695,A,rugenter,O,enter,217,1,2715.199999809265,231584.70000004768,7181,WL,A,10.0
2,26.408999919891357,learn,33591.00008010864,Tue Aug 12 2025 10:45:53 GMT-0500 (Central Daylight Time),237499.89999985695,A,f,O,f,3186,1,3199.699999809265,234300.20000004768,7181,WL,A,11.0
2,26.491999864578247,learn,33508.00013542175,Tue Aug 12 2025 10:45:53 GMT-0500 (Central Daylight Time),237583.20000004768,A,fi,O,i,58,1,3283.0,234300.20000004768,7181,WL,A,11.0
2,26.658999919891357,learn,33341.00008010864,Tue Aug 12 2025 10:45:53 GMT-0500 (Central Daylight Time),237750.0,A,fin,O,n,137,1,3449.7999999523163,234300.20000004768,7181,WL,A,11.0
2,26.79199981689453,learn,33208.00018310547,Tue Aug 12 2025 10:45:53 GMT-0500 (Central Daylight Time),237883.20000004768,A,fing,O,g,95,1,3583.0,234300.20000004768,7181,WL,A,11.0
2,26.97499990463257,learn,33025.00009536743,Tue Aug 12 2025 10:45:53 GMT-0500 (Central Daylight Time),238066.29999995232,A,finge,O,e,157,1,3766.0999999046326,234300.20000004768,7181,WL,A,11.0
2,27.074999809265137,learn,32925.00019073486,Tue Aug 12 2025 10:45:53 GMT-0500 (Central Daylight Time),238165.29999995232,A,finger,O,r,70,1,3865.0999999046326,234300.20000004768,7181,WL,A,11.0
2,27.257999897003174,learn,32742.000102996826,Tue Aug 12 2025 10:45:53 GMT-0500 (Central Daylight Time),238348.79999995232,A,fingerenter,O,enter,176,1,4048.5999999046326,234300.20000004768,7181,WL,A,11.0
2,28.35800004005432,learn,31641.99995994568,Tue Aug 12 2025 10:45:53 GMT-0500 (Central Daylight Time),239449.0,A,s,O,s,1082,1,1099.9000000953674,238349.09999990463,7181,WL,A,12.0
2,28.491999864578247,learn,31508.000135421753,Tue Aug 12 2025 10:45:53 GMT-0500 (Central Daylight Time),239582.5,A,sa,O,a,111,1,1233.4000000953674,238349.09999990463,7181,WL,A,12.0
2,28.72499990463257,learn,31275.00009536743,Tue Aug 12 2025 10:45:53 GMT-0500 (Central Daylight Time),239816.0,A,sal,O,l,198,1,1466.9000000953674,238349.09999990463,7181,WL,A,12.0
2,29.057999849319458,learn,30942.000150680542,Tue Aug 12 2025 10:45:53 GMT-0500 (Central Daylight Time),240149.29999995232,A,salt,O,t,301,1,1800.2000000476837,238349.09999990463,7181,WL,A,12.0
2,29.37399983406067,learn,30626.00016593933,Tue Aug 12 2025 10:45:53 GMT-0500 (Central Daylight Time),240464.89999985695,A,saltenter,O,enter,277,1,2115.7999999523163,238349.09999990463,7181,WL,A,12.0
2,31.006999969482422,learn,28993.000030517578,Tue Aug 12 2025 10:45:53 GMT-0500 (Central Daylight Time),242097.5,A,enter,O,enter,1612,1,1632.4000000953674,240465.09999990463,7181,WL,A,13.0
2,31.289999961853027,learn,28710.000038146973,Tue Aug 12 2025 10:45:53 GMT-0500 (Central Daylight Time),242380.89999985695,A,enter,O,enter,276,1,283.0,242097.89999985695,7181,WL,A,14.0
2,32.33999991416931,learn,27660.00008583069,Tue Aug 12 2025 10:45:53 GMT-0500 (Central Daylight Time),243430.5,A,enter,O,enter,1040,1,1049.2999999523163,242381.20000004768,7181,WL,A,15.0
3,0.432999849319458,learn,59567.00015068054,Tue Aug 12 2025 10:45:53 GMT-0500 (Central Daylight Time),308759.89999985695,A,g,O,g,408,1,433.0,308326.89999985695,7181,WL,A,1.0
3,0.5490000247955322,learn,59450.99997520447,Tue Aug 12 2025 10:45:53 GMT-0500 (Central Daylight Time),308875.5,A,go,O,o,90,1,548.6000001430511,308326.89999985695,7181,WL,A,1.0
3,0.7829999923706055,learn,59217.000007629395,Tue Aug 12 2025 10:45:53 GMT-0500 (Central Daylight Time),309109.7999999523,A,gol,O,l,219,1,782.9000000953674,308326.89999985695,7181,WL,A,1.0
3,0.9169998168945312,learn,59083.00018310547,Tue Aug 12 2025 10:45:53 GMT-0500 (Central Daylight Time),309243.2999999523,A,gold,O,d,106,1,916.4000000953674,308326.89999985695,7181,WL,A,1.0
3,1.1319999694824219,learn,58868.00003051758,Tue Aug 12 2025 10:45:53 GMT-0500 (Central Daylight Time),309458.89999985695,A,goldenter,O,enter,183,1,1132.0,308326.89999985695,7181,WL,A,1.0
3,1.3499999046325684,learn,58650.00009536743,Tue Aug 12 2025 10:45:53 GMT-0500 (Central Daylight Time),309676.89999985695,A,r,O,r,211,1,217.79999995231628,309459.09999990463,7181,WL,A,2.0
3,1.5,learn,58500.0,Tue Aug 12 2025 10:45:53 GMT-0500 (Central Daylight Time),309826.09999990463,A,ra,O,a,116,1,367.0,309459.09999990463,7181,WL,A,2.0
3,1.8329999446868896,learn,58167.00005531311,Tue Aug 12 2025 10:45:53 GMT-0500 (Central Daylight Time),310159.7000000477,A,rat,O,t,305,1,700.6000001430511,309459.09999990463,7181,WL,A,2.0
3,2.0,learn,58000.0,Tue Aug 12 2025 10:45:53 GMT-0500 (Central Daylight Time),310326.2999999523,A,ratt,O,t,133,1,867.2000000476837,309459.09999990463,7181,WL,A,2.0
3,2.0999999046325684,learn,57900.00009536743,Tue Aug 12 2025 10:45:53 GMT-0500 (Central Daylight Time),310426.2000000477,A,rattl,O,l,71,1,967.1000001430511,309459.09999990463,7181,WL,A,2.0
3,2.2159998416900635,learn,57784.00015830994,Tue Aug 12 2025 10:45:53 GMT-0500 (Central Daylight Time),310543.0,A,rattle,O,e,87,1,1083.9000000953674,309459.09999990463,7181,WL,A,2.0
3,3.2149999141693115,learn,56785.00008583069,Tue Aug 12 2025 10:45:53 GMT-0500 (Central Daylight Time),311541.5,A,rattleenter,O,enter,972,1,2082.4000000953674,309459.09999990463,7181,WL,A,2.0
3,3.6649999618530273,learn,56335.00003814697,Tue Aug 12 2025 10:45:53 GMT-0500 (Central Daylight Time),311991.2999999523,A,s,O,s,440,1,449.5,311541.7999999523,7181,WL,A,3.0
3,3.7829999923706055,learn,56217.000007629395,Tue Aug 12 2025 10:45:53 GMT-0500 (Central Daylight Time),312109.2000000477,A,sa,O,a,110,1,567.4000000953674,311541.7999999523,7181,WL,A,3.0
3,3.9830000400543213,learn,56016.99995994568,Tue Aug 12 2025 10:45:53 GMT-0500 (Central Daylight Time),312309.2000000477,A,sal,O,l,176,1,767.4000000953674,311541.7999999523,7181,WL,A,3.0
3,4.148999929428101,learn,55851.0000705719,Tue Aug 12 2025 10:45:53 GMT-0500 (Central Daylight Time),312475.39999985695,A,salt,O,t,128,1,933.5999999046326,311541.7999999523,7181,WL,A,3.0
3,4.365000009536743,learn,55634.99999046326,Tue Aug 12 2025 10:45:53 GMT-0500 (Central Daylight Time),312691.09999990463,A,saltenter,O,enter,185,1,1149.2999999523163,311541.7999999523,7181,WL,A,3.0
3,4.56499981880188,learn,55435.00018119812,Tue Aug 12 2025 10:45:53 GMT-0500 (Central Daylight Time),312892.09999990463,A,f,O,f,187,1,200.79999995231628,312691.2999999523,7181,WL,A,4.0
3,4.698999881744385,learn,55301.000118255615,Tue Aug 12 2025 10:45:53 GMT-0500 (Central Daylight Time),313025.2000000477,A,fi,O,i,97,1,333.90000009536743,312691.2999999523,7181,WL,A,4.0
3,4.914999961853027,learn,55085.00003814697,Tue Aug 12 2025 10:45:53 GMT-0500 (Central Daylight Time),313241.7000000477,A,fin,O,n,189,1,550.4000000953674,312691.2999999523,7181,WL,A,4.0
3,5.06499981880188,learn,54935.00018119812,Tue Aug 12 2025 10:45:53 GMT-0500 (Central Daylight Time),313391.2999999523,A,fing,O,g,125,1,700.0,312691.2999999523,7181,WL,A,4.0
3,5.248999834060669,learn,54751.00016593933,Tue Aug 12 2025 10:45:53 GMT-0500 (Central Daylight Time),313575.2000000477,A,finge,O,e,159,1,883.9000000953674,312691.2999999523,7181,WL,A,4.0
3,5.365000009536743,learn,54634.99999046326,Tue Aug 12 2025 10:45:53 GMT-0500 (Central Daylight Time),313691.7999999523,A,finger,O,r,86,1,1000.5,312691.2999999523,7181,WL,A,4.0
3,6.664000034332275,learn,53335.999965667725,Tue Aug 12 2025 10:45:53 GMT-0500 (Central Daylight Time),314990.2999999523,A,fingerenter,O,enter,1273,1,2299.0,312691.2999999523,7181,WL,A,4.0
3,7.146999835968018,learn,52853.00016403198,Tue Aug 12 2025 10:45:53 GMT-0500 (Central Daylight Time),315473.39999985695,A,h,O,h,471,1,482.69999980926514,314990.7000000477,7181,WL,A,5.0
3,7.313999891281128,learn,52686.00010871887,Tue Aug 12 2025 10:45:53 GMT-0500 (Central Daylight Time),315640.89999985695,A,ha,O,a,154,1,650.1999998092651,314990.7000000477,7181,WL,A,5.0
3,7.547999858856201,learn,52452.0001411438,Tue Aug 12 2025 10:45:53 GMT-0500 (Central Daylight Time),315874.5,A,har,O,r,206,1,883.7999999523163,314990.7000000477,7181,WL,A,5.0
3,7.846999883651733,learn,52153.00011634827,Tue Aug 12 2025 10:45:53 GMT-0500 (Central Daylight Time),316173.89999985695,A,harp,O,p,274,1,1183.1999998092651,314990.7000000477,7181,WL,A,5.0
3,8.329999923706055,learn,51670.000076293945,Tue Aug 12 2025 10:45:53 GMT-0500 (Central Daylight Time),316656.5,A,harpenter,O,enter,446,1,1665.7999999523163,314990.7000000477,7181,WL,A,5.0
3,11.246999979019165,learn,48753.000020980835,Tue Aug 12 2025 10:45:53 GMT-0500 (Central Daylight Time),319573.2000000477,A,g,O,g,2895,1,2916.4000000953674,316656.7999999523,7181,WL,A,6.0
3,11.305999994277954,learn,48694.000005722046,Tue Aug 12 2025 10:45:53 GMT-0500 (Central Daylight Time),319632.2999999523,A,go,O,o,33,1,2975.5,316656.7999999523,7181,WL,A,6.0
3,11.513000011444092,learn,48486.99998855591,Tue Aug 12 2025 10:45:53 GMT-0500 (Central Daylight Time),319839.7999999523,A,gol,O,l,182,1,3183.0,316656.7999999523,7181,WL,A,6.0
3,11.846999883651733,learn,48153.00011634827,Tue Aug 12 2025 10:45:53 GMT-0500 (Central Daylight Time),320173.2000000477,A,go,O,backspace,310,1,3516.4000000953674,316656.7999999523,7181,WL,A,6.0
3,12.046000003814697,learn,47953.9999961853,Tue Aug 12 2025 10:45:53 GMT-0500 (Central Daylight Time),320372.89999985695,A,g,O,backspace,170,1,3716.0999999046326,316656.7999999523,7181,WL,A,6.0
3,12.230000019073486,learn,47769.999980926514,Tue Aug 12 2025 10:45:53 GMT-0500 (Central Daylight Time),320556.2999999523,A,,O,backspace,144,1,3899.5,316656.7999999523,7181,WL,A,6.0
3,13.19599986076355,learn,46804.00013923645,Tue Aug 12 2025 10:45:53 GMT-0500 (Central Daylight Time),321522.59999990463,A,b,O,b,939,1,4865.799999952316,316656.7999999523,7181,WL,A,6.0
3,13.279000043869019,learn,46720.99995613098,Tue Aug 12 2025 10:45:53 GMT-0500 (Central Daylight Time),321605.7000000477,A,bo,O,o,61,1,4948.900000095367,316656.7999999523,7181,WL,A,6.0
3,13.44599986076355,learn,46554.00013923645,Tue Aug 12 2025 10:45:53 GMT-0500 (Central Daylight Time),321772.59999990463,A,boo,O,o,126,1,5115.799999952316,316656.7999999523,7181,WL,A,6.0
3,13.595999956130981,learn,46404.00004386902,Tue Aug 12 2025 10:45:53 GMT-0500 (Central Daylight Time),321922.5,A,book,O,k,112,1,5265.700000047684,316656.7999999523,7181,WL,A,6.0
3,13.828999996185303,learn,46171.0000038147,Tue Aug 12 2025 10:45:53 GMT-0500 (Central Daylight Time),322155.89999985695,A,bookenter,O,enter,200,1,5499.099999904633,316656.7999999523,7181,WL,A,6.0
3,14.345999956130981,learn,45654.00004386902,Tue Aug 12 2025 10:45:53 GMT-0500 (Central Daylight Time),322672.2999999523,A,f,O,f,498,1,516.0999999046326,322156.2000000477,7181,WL,A,7.0
3,14.462999820709229,learn,45537.00017929077,Tue Aug 12 2025 10:45:53 GMT-0500 (Central Daylight Time),322789.09999990463,A,fl,O,l,92,1,632.8999998569489,322156.2000000477,7181,WL,A,7.0
3,14.661999940872192,learn,45338.00005912781,Tue Aug 12 2025 10:45:53 GMT-0500 (Central Daylight Time),322988.7000000477,A,flo,O,o,160,1,832.5,322156.2000000477,7181,WL,A,7.0
3,14.796000003814697,learn,45203.9999961853,Tue Aug 12 2025 10:45:53 GMT-0500 (Central Daylight Time),323122.09999990463,A,flou,O,u,95,1,965.8999998569489,322156.2000000477,7181,WL,A,7.0
3,15.361999988555908,learn,44638.00001144409,Tue Aug 12 2025 10:45:53 GMT-0500 (Central Daylight Time),323688.89999985695,A,flo,O,backspace,539,1,1532.6999998092651,322156.2000000477,7181,WL,A,7.0
3,15.494999885559082,learn,44505.00011444092,Tue Aug 12 2025 10:45:53 GMT-0500 (Central Daylight Time),323821.7000000477,A,flow,O,w,99,1,1665.5,322156.2000000477,7181,WL,A,7.0
3,15.694999933242798,learn,44305.0000667572,Tue Aug 12 2025 10:45:53 GMT-0500 (Central Daylight Time),324021.7999999523,A,flowe,O,e,175,1,1865.5999999046326,322156.2000000477,7181,WL,A,7.0
3,15.794999837875366,learn,44205.000162124634,Tue Aug 12 2025 10:45:53 GMT-0500 (Central Daylight Time),324121.7999999523,A,flower,O,r,71,1,1965.5999999046326,322156.2000000477,7181,WL,A,7.0
3,16.276999950408936,learn,43723.000049591064,Tue Aug 12 2025 10:45:53 GMT-0500 (Central Daylight Time),324603.89999985695,A,flowerenter,O,enter,450,1,2447.699999809265,322156.2000000477,7181,WL,A,7.0
3,17.07799983024597,learn,42922.00016975403,Tue Aug 12 2025 10:45:53 GMT-0500 (Central Daylight Time),325404.7000000477,A,r,O,r,786,1,800.6000001430511,324604.09999990463,7181,WL,A,8.0
3,18.477999925613403,learn,41522.0000743866,Tue Aug 12 2025 10:45:53 GMT-0500 (Central Daylight Time),326804.7999999523,A,ru,O,u,1376,1,2200.7000000476837,324604.09999990463,7181,WL,A,8.0
3,18.64400005340576,learn,41355.99994659424,Tue Aug 12 2025 10:45:53 GMT-0500 (Central Daylight Time),326970.7999999523,A,rug,O,g,128,1,2366.7000000476837,324604.09999990463,7181,WL,A,8.0
3,18.80999994277954,learn,41190.00005722046,Tue Aug 12 2025 10:45:53 GMT-0500 (Central Daylight Time),327136.39999985695,A,rugenter,O,enter,137,1,2532.2999999523163,324604.09999990463,7181,WL,A,8.0
3,19.24399995803833,learn,40756.00004196167,Tue Aug 12 2025 10:45:53 GMT-0500 (Central Daylight Time),327570.5,A,t,O,t,414,1,433.90000009536743,327136.59999990463,7181,WL,A,9.0
3,19.51099991798401,learn,40489.00008201599,Tue Aug 12 2025 10:45:53 GMT-0500 (Central Daylight Time),327837.2000000477,A,tr,O,r,235,1,700.6000001430511,327136.59999990463,7181,WL,A,9.0
3,19.677000045776367,learn,40322.99995422363,Tue Aug 12 2025 10:45:53 GMT-0500 (Central Daylight Time),328004.0,A,tra,O,a,136,1,867.4000000953674,327136.59999990463,7181,WL,A,9.0
3,19.860999822616577,learn,40139.00017738342,Tue Aug 12 2025 10:45:53 GMT-0500 (Central Daylight Time),328187.09999990463,A,trai,O,i,155,1,1050.5,327136.59999990463,7181,WL,A,9.0
3,20.043999910354614,learn,39956.000089645386,Tue Aug 12 2025 10:45:53 GMT-0500 (Central Daylight Time),328370.5,A,train,O,n,154,1,1233.9000000953674,327136.59999990463,7181,WL,A,9.0
3,20.493000030517578,learn,39506.99996948242,Tue Aug 12 2025 10:45:53 GMT-0500 (Central Daylight Time),328819.09999990463,A,trainenter,O,enter,417,1,1682.5,327136.59999990463,7181,WL,A,9.0
3,27.674999952316284,learn,32325.000047683716,Tue Aug 12 2025 10:45:53 GMT-0500 (Central Daylight Time),336001.09999990463,A,c,O,c,7164,1,7181.799999952316,328819.2999999523,7181,WL,A,10.0
3,27.7739999294281,learn,32226.0000705719,Tue Aug 12 2025 10:45:53 GMT-0500 (Central Daylight Time),336100.7999999523,A,ch,O,h,75,1,7281.5,328819.2999999523,7181,WL,A,10.0
3,27.891000032424927,learn,32108.999967575073,Tue Aug 12 2025 10:45:53 GMT-0500 (Central Daylight Time),336217.7999999523,A,chi,O,i,82,1,7398.5,328819.2999999523,7181,WL,A,10.0
3,28.10800004005432,learn,31891.99995994568,Tue Aug 12 2025 10:45:53 GMT-0500 (Central Daylight Time),336434.2000000477,A,chim,O,m,186,1,7614.900000095367,328819.2999999523,7181,WL,A,10.0
3,28.473999977111816,learn,31526.000022888184,Tue Aug 12 2025 10:45:53 GMT-0500 (Central Daylight Time),336800.7999999523,A,chimn,O,n,334,1,7981.5,328819.2999999523,7181,WL,A,10.0
3,28.590999841690063,learn,31409.000158309937,Tue Aug 12 2025 10:45:53 GMT-0500 (Central Daylight Time),336917.59999990463,A,chimne,O,e,85,1,8098.299999952316,328819.2999999523,7181,WL,A,10.0
3,28.757999897003174,learn,31242.000102996826,Tue Aug 12 2025 10:45:53 GMT-0500 (Central Daylight Time),337084.09999990463,A,chimney,O,y,127,1,8264.799999952316,328819.2999999523,7181,WL,A,10.0
3,29.33999991416931,learn,30660.00008583069,Tue Aug 12 2025 10:45:53 GMT-0500 (Central Daylight Time),337666.2999999523,A,chimneyenter,O,enter,543,1,8847.0,328819.2999999523,7181,WL,A,10.0
3,30.207000017166138,learn,29792.999982833862,Tue Aug 12 2025 10:45:53 GMT-0500 (Central Daylight Time),338533.59999990463,A,m,O,m,852,1,867.0999999046326,337666.5,7181,WL,A,11.0
3,30.27300000190735,learn,29726.99999809265,Tue Aug 12 2025 10:45:53 GMT-0500 (Central Daylight Time),338599.7000000477,A,me,O,e,41,1,933.2000000476837,337666.5,7181,WL,A,11.0
3,30.391000032424927,learn,29608.999967575073,Tue Aug 12 2025 10:45:53 GMT-0500 (Central Daylight Time),338717.2000000477,A,mea,O,a,103,1,1050.7000000476837,337666.5,7181,WL,A,11.0
3,30.806999921798706,learn,29193.000078201294,Tue Aug 12 2025 10:45:53 GMT-0500 (Central Daylight Time),339133.39999985695,A,mead,O,d,388,1,1466.8999998569489,337666.5,7181,WL,A,11.0
3,30.9229998588562,learn,29077.0001411438,Tue Aug 12 2025 10:45:53 GMT-0500 (Central Daylight Time),339250.0,A,meado,O,o,83,1,1583.5,337666.5,7181,WL,A,11.0
3,31.02300000190735,learn,28976.99999809265,Tue Aug 12 2025 10:45:53 GMT-0500 (Central Daylight Time),339349.59999990463,A,meadow,O,w,76,1,1683.0999999046326,337666.5,7181,WL,A,11.0
3,31.471999883651733,learn,28528.000116348267,Tue Aug 12 2025 10:45:53 GMT-0500 (Central Daylight Time),339798.89999985695,A,meadowenter,O,enter,420,1,2132.399999856949,337666.5,7181,WL,A,11.0
3,39.00399994850159,learn,20996.000051498413,Tue Aug 12 2025 10:45:53 GMT-0500 (Central Daylight Time),347330.7999999523,A,b,O,b,7512,1,7531.700000047684,339799.09999990463,7181,WL,A,12.0
3,39.13699984550476,learn,20863.00015449524,Tue Aug 12 2025 10:45:53 GMT-0500 (Central Daylight Time),347463.7999999523,A,bu,O,u,96,1,7664.700000047684,339799.09999990463,7181,WL,A,12.0
3,39.270999908447266,learn,20729.000091552734,Tue Aug 12 2025 10:45:53 GMT-0500 (Central Daylight Time),347597.39999985695,A,but,O,t,102,1,7798.299999952316,339799.09999990463,7181,WL,A,12.0
3,39.40299987792969,learn,20597.000122070312,Tue Aug 12 2025 10:45:53 GMT-0500 (Central Daylight Time),347729.5,A,butt,O,t,102,1,7930.400000095367,339799.09999990463,7181,WL,A,12.0
3,39.48599982261658,learn,20514.000177383423,Tue Aug 12 2025 10:45:53 GMT-0500 (Central Daylight Time),347813.0,A,butto,O,o,74,1,8013.900000095367,339799.09999990463,7181,WL,A,12.0
3,39.62100005149841,learn,20378.999948501587,Tue Aug 12 2025 10:45:53 GMT-0500 (Central Daylight Time),347947.39999985695,A,button,O,n,112,1,8148.299999952316,339799.09999990463,7181,WL,A,12.0
3,39.80299997329712,learn,20197.00002670288,Tue Aug 12 2025 10:45:53 GMT-0500 (Central Daylight Time),348129.5,A,buttonenter,O,enter,152,1,8330.400000095367,339799.09999990463,7181,WL,A,12.0
3,43.418999910354614,learn,16581.000089645386,Tue Aug 12 2025 10:45:53 GMT-0500 (Central Daylight Time),351746.09999990463,A,l,O,l,3605,1,3616.399999856949,348129.7000000477,7181,WL,A,13.0
3,43.585999965667725,learn,16414.000034332275,Tue Aug 12 2025 10:45:53 GMT-0500 (Central Daylight Time),351912.39999985695,A,lo,O,o,139,1,3782.699999809265,348129.7000000477,7181,WL,A,13.0
3,43.668999910354614,learn,16331.000089645386,Tue Aug 12 2025 10:45:53 GMT-0500 (Central Daylight Time),351995.7000000477,A,log,O,g,46,1,3866.0,348129.7000000477,7181,WL,A,13.0
3,43.83500003814697,learn,16164.999961853027,Tue Aug 12 2025 10:45:53 GMT-0500 (Central Daylight Time),352161.5,A,logenter,O,enter,136,1,4031.7999999523163,348129.7000000477,7181,WL,A,13.0
3,46.03399991989136,learn,13966.000080108643,Tue Aug 12 2025 10:45:53 GMT-0500 (Central Daylight Time),354360.7999999523,A,enter,O,enter,2188,1,2199.0,352161.7999999523,7181,WL,A,14.0
3,46.53399991989136,learn,13466.000080108643,Tue Aug 12 2025 10:45:53 GMT-0500 (Central Daylight Time),354860.5,A,enter,O,enter,485,1,499.40000009536743,354361.09999990463,7181,WL,A,15.0
4,0.5169999599456787,learn,59483.00004005432,Tue Aug 12 2025 10:45:53 GMT-0500 (Central Daylight Time),421189.59999990463,A,g,O,g,509,1,517.2999999523163,420672.2999999523,7181,WL,A,1.0
4,0.6509997844696045,learn,59349.000215530396,Tue Aug 12 2025 10:45:53 GMT-0500 (Central Daylight Time),421323.2000000477,A,go,O,o,102,1,650.9000000953674,420672.2999999523,7181,WL,A,1.0
4,1.0679998397827148,learn,58932.000160217285,Tue Aug 12 2025 10:45:53 GMT-0500 (Central Daylight Time),421739.89999985695,A,gol,O,l,386,1,1067.5999999046326,420672.2999999523,7181,WL,A,1.0
4,1.3339998722076416,learn,58666.00012779236,Tue Aug 12 2025 10:45:53 GMT-0500 (Central Daylight Time),422005.7999999523,A,gold,O,d,245,1,1333.5,420672.2999999523,7181,WL,A,1.0
4,1.8659999370574951,learn,58134.000062942505,Tue Aug 12 2025 10:45:53 GMT-0500 (Central Daylight Time),422538.5,A,goldenter,O,enter,504,1,1866.2000000476837,420672.2999999523,7181,WL,A,1.0
4,2.132999897003174,learn,57867.000102996826,Tue Aug 12 2025 10:45:53 GMT-0500 (Central Daylight Time),422805.5,A,a,O,a,260,1,266.7999999523163,422538.7000000477,7181,WL,A,2.0
4,2.2669999599456787,learn,57733.00004005432,Tue Aug 12 2025 10:45:53 GMT-0500 (Central Daylight Time),422939.5,A,ap,O,p,96,1,400.7999999523163,422538.7000000477,7181,WL,A,2.0
4,2.43399977684021,learn,57566.00022315979,Tue Aug 12 2025 10:45:53 GMT-0500 (Central Daylight Time),423106.0,A,app,O,p,137,1,567.2999999523163,422538.7000000477,7181,WL,A,2.0
4,2.682999849319458,learn,57317.00015068054,Tue Aug 12 2025 10:45:53 GMT-0500 (Central Daylight Time),423355.7000000477,A,appl,O,l,210,1,817.0,422538.7000000477,7181,WL,A,2.0
4,2.8999998569488525,learn,57100.00014305115,Tue Aug 12 2025 10:45:53 GMT-0500 (Central Daylight Time),423572.39999985695,A,apple,O,e,186,1,1033.6999998092651,422538.7000000477,7181,WL,A,2.0
4,3.5169999599456787,learn,56483.00004005432,Tue Aug 12 2025 10:45:53 GMT-0500 (Central Daylight Time),424188.89999985695,A,appleenter,O,enter,592,1,1650.1999998092651,422538.7000000477,7181,WL,A,2.0
4,4.1499998569488525,learn,55850.00014305115,Tue Aug 12 2025 10:45:53 GMT-0500 (Central Daylight Time),424822.0,A,h,O,h,617,1,632.7999999523163,424189.2000000477,7181,WL,A,3.0
4,4.482999801635742,learn,55517.00019836426,Tue Aug 12 2025 10:45:53 GMT-0500 (Central Daylight Time),425155.2999999523,A,ha,O,a,294,1,966.0999999046326,424189.2000000477,7181,WL,A,3.0
4,4.9659998416900635,learn,55034.00015830994,Tue Aug 12 2025 10:45:53 GMT-0500 (Central Daylight Time),425638.5,A,har,O,r,450,1,1449.2999999523163,424189.2000000477,7181,WL,A,3.0
4,5.265999794006348,learn,54734.00020599365,Tue Aug 12 2025 10:45:53 GMT-0500 (Central Daylight Time),425938.09999990463,A,harp,O,p,264,1,1748.8999998569489,424189.2000000477,7181,WL,A,3.0
4,6.514999866485596,learn,53485.000133514404,Tue Aug 12 2025 10:45:53 GMT-0500 (Central Daylight Time),427187.0,A,harpenter,O,enter,1216,1,2997.7999999523163,424189.2000000477,7181,WL,A,3.0
4,7.531999826431274,learn,52468.000173568726,Tue Aug 12 2025 10:45:53 GMT-0500 (Central Daylight Time),428204.2000000477,A,b,O,b,996,1,1017.0,427187.2000000477,7181,WL,A,4.0
4,7.630999803543091,learn,52369.00019645691,Tue Aug 12 2025 10:45:53 GMT-0500 (Central Daylight Time),428303.09999990463,A,bo,O,o,73,1,1115.8999998569489,427187.2000000477,7181,WL,A,4.0
4,7.7809998989105225,learn,52219.00010108948,Tue Aug 12 2025 10:45:53 GMT-0500 (Central Daylight Time),428453.0,A,boo,O,o,133,1,1265.7999999523163,427187.2000000477,7181,WL,A,4.0
4,7.980999946594238,learn,52019.00005340576,Tue Aug 12 2025 10:45:53 GMT-0500 (Central Daylight Time),428652.89999985695,A,book,O,k,184,1,1465.6999998092651,427187.2000000477,7181,WL,A,4.0
4,9.21399998664856,learn,50786.00001335144,Tue Aug 12 2025 10:45:53 GMT-0500 (Central Daylight Time),429886.0,A,bookenter,O,enter,1215,1,2698.7999999523163,427187.2000000477,7181,WL,A,4.0
4,9.530999898910522,learn,50469.00010108948,Tue Aug 12 2025 10:45:53 GMT-0500 (Central Daylight Time),430203.59999990463,A,f,O,f,304,1,317.2999999523163,429886.2999999523,7181,WL,A,5.0
4,9.648000001907349,learn,50351.99999809265,Tue Aug 12 2025 10:45:53 GMT-0500 (Central Daylight Time),430320.2999999523,A,fl,O,l,94,1,434.0,429886.2999999523,7181,WL,A,5.0
4,9.830999851226807,learn,50169.00014877319,Tue Aug 12 2025 10:45:53 GMT-0500 (Central Daylight Time),430503.59999990463,A,flo,O,o,151,1,617.2999999523163,429886.2999999523,7181,WL,A,5.0
4,9.964999914169312,learn,50035.00008583069,Tue Aug 12 2025 10:45:53 GMT-0500 (Central Daylight Time),430636.7999999523,A,flou,O,u,103,1,750.5,429886.2999999523,7181,WL,A,5.0
4,10.447999954223633,learn,49552.00004577637,Tue Aug 12 2025 10:45:53 GMT-0500 (Central Daylight Time),431120.09999990463,A,flo,O,backspace,449,1,1233.7999999523163,429886.2999999523,7181,WL,A,5.0
4,10.580999851226807,learn,49419.00014877319,Tue Aug 12 2025 10:45:53 GMT-0500 (Central Daylight Time),431253.39999985695,A,flow,O,w,110,1,1367.0999999046326,429886.2999999523,7181,WL,A,5.0
4,10.863999843597412,learn,49136.00015640259,Tue Aug 12 2025 10:45:53 GMT-0500 (Central Daylight Time),431536.39999985695,A,flowe,O,e,252,1,1650.0999999046326,429886.2999999523,7181,WL,A,5.0
4,10.929999828338623,learn,49070.00017166138,Tue Aug 12 2025 10:45:53 GMT-0500 (Central Daylight Time),431602.5,A,flower,O,r,37,1,1716.2000000476837,429886.2999999523,7181,WL,A,5.0
4,11.212999820709229,learn,48787.00017929077,Tue Aug 12 2025 10:45:53 GMT-0500 (Central Daylight Time),431885.39999985695,A,flowerenter,O,enter,260,1,1999.0999999046326,429886.2999999523,7181,WL,A,5.0
4,11.696999788284302,learn,48303.0002117157,Tue Aug 12 2025 10:45:53 GMT-0500 (Central Daylight Time),432369.2999999523,A,t,O,t,474,1,483.59999990463257,431885.7000000477,7181,WL,A,6.0
4,11.930999994277954,learn,48069.000005722046,Tue Aug 12 2025 10:45:53 GMT-0500 (Central Daylight Time),432602.89999985695,A,tr,O,r,203,1,717.1999998092651,431885.7000000477,7181,WL,A,6.0
4,12.012999773025513,learn,47987.00022697449,Tue Aug 12 2025 10:45:53 GMT-0500 (Central Daylight Time),432685.39999985695,A,tra,O,a,62,1,799.6999998092651,431885.7000000477,7181,WL,A,6.0
4,12.179999828338623,learn,47820.00017166138,Tue Aug 12 2025 10:45:53 GMT-0500 (Central Daylight Time),432852.7000000477,A,trai,O,i,146,1,967.0,431885.7000000477,7181,WL,A,6.0
4,12.363999843597412,learn,47636.00015640259,Tue Aug 12 2025 10:45:53 GMT-0500 (Central Daylight Time),433036.0,A,train,O,n,144,1,1150.2999999523163,431885.7000000477,7181,WL,A,6.0
4,12.712999820709229,learn,47287.00017929077,Tue Aug 12 2025 10:45:53 GMT-0500 (Central Daylight Time),433384.89999985695,A,trainenter,O,enter,311,1,1499.1999998092651,431885.7000000477,7181,WL,A,6.0
4,13.096999883651733,learn,46903.00011634827,Tue Aug 12 2025 10:45:53 GMT-0500 (Central Daylight Time),433769.09999990463,A,r,O,r,374,1,384.0,433385.09999990463,7181,WL,A,7.0
4,13.27999997138977,learn,46720.00002861023,Tue Aug 12 2025 10:45:53 GMT-0500 (Central Daylight Time),433952.2000000477,A,ru,O,u,150,1,567.1000001430511,433385.09999990463,7181,WL,A,7.0
4,13.496999979019165,learn,46503.000020980835,Tue Aug 12 2025 10:45:53 GMT-0500 (Central Daylight Time),434169.0,A,rug,O,g,181,1,783.9000000953674,433385.09999990463,7181,WL,A,7.0
4,14.478999853134155,learn,45521.000146865845,Tue Aug 12 2025 10:45:53 GMT-0500 (Central Daylight Time),435151.0,A,rugenter,O,enter,954,1,1765.9000000953674,433385.09999990463,7181,WL,A,7.0
4,16.895999908447266,learn,43104.000091552734,Tue Aug 12 2025 10:45:53 GMT-0500 (Central Daylight Time),437567.89999985695,A,c,O,c,2407,1,2416.699999809265,435151.2000000477,7181,WL,A,8.0
4,16.977999925613403,learn,43022.0000743866,Tue Aug 12 2025 10:45:53 GMT-0500 (Central Daylight Time),437650.09999990463,A,ch,O,h,53,1,2498.899999856949,435151.2000000477,7181,WL,A,8.0
4,17.060999870300293,learn,42939.00012969971,Tue Aug 12 2025 10:45:53 GMT-0500 (Central Daylight Time),437733.59999990463,A,chi,O,i,62,1,2582.399999856949,435151.2000000477,7181,WL,A,8.0
4,17.27899980545044,learn,42721.00019454956,Tue Aug 12 2025 10:45:53 GMT-0500 (Central Daylight Time),437950.89999985695,A,chim,O,m,194,1,2799.699999809265,435151.2000000477,7181,WL,A,8.0
4,17.495999813079834,learn,42504.000186920166,Tue Aug 12 2025 10:45:53 GMT-0500 (Central Daylight Time),438167.7999999523,A,chimn,O,n,190,1,3016.5999999046326,435151.2000000477,7181,WL,A,8.0
4,17.628999948501587,learn,42371.00005149841,Tue Aug 12 2025 10:45:53 GMT-0500 (Central Daylight Time),438301.0,A,chimne,O,e,93,1,3149.7999999523163,435151.2000000477,7181,WL,A,8.0
4,17.76099991798401,learn,42239.00008201599,Tue Aug 12 2025 10:45:53 GMT-0500 (Central Daylight Time),438433.5,A,chimney,O,y,100,1,3282.2999999523163,435151.2000000477,7181,WL,A,8.0
4,18.193999767303467,learn,41806.00023269653,Tue Aug 12 2025 10:45:53 GMT-0500 (Central Daylight Time),438866.39999985695,A,chimneyenter,O,enter,404,1,3715.199999809265,435151.2000000477,7181,WL,A,8.0
4,21.16099977493286,learn,38839.00022506714,Tue Aug 12 2025 10:45:53 GMT-0500 (Central Daylight Time),441833.09999990463,A,s,O,s,2957,1,2966.399999856949,438866.7000000477,7181,WL,A,9.0
4,21.293999910354614,learn,38706.000089645386,Tue Aug 12 2025 10:45:53 GMT-0500 (Central Daylight Time),441966.39999985695,A,sa,O,a,99,1,3099.699999809265,438866.7000000477,7181,WL,A,9.0
4,21.727999925613403,learn,38272.0000743866,Tue Aug 12 2025 10:45:53 GMT-0500 (Central Daylight Time),442399.7999999523,A,sal,O,l,398,1,3533.0999999046326,438866.7000000477,7181,WL,A,9.0
4,21.893999814987183,learn,38106.00018501282,Tue Aug 12 2025 10:45:53 GMT-0500 (Central Daylight Time),442566.2999999523,A,salt,O,t,134,1,3699.5999999046326,438866.7000000477,7181,WL,A,9.0
4,22.125999927520752,learn,37874.00007247925,Tue Aug 12 2025 10:45:53 GMT-0500 (Central Daylight Time),442798.5,A,saltenter,O,enter,197,1,3931.7999999523163,438866.7000000477,7181,WL,A,9.0
4,22.32699990272522,learn,37673.00009727478,Tue Aug 12 2025 10:45:53 GMT-0500 (Central Daylight Time),442999.5,A,f,O,f,184,1,200.79999995231628,442798.7000000477,7181,WL,A,10.0
4,22.426999807357788,learn,37573.00019264221,Tue Aug 12 2025 10:45:53 GMT-0500 (Central Daylight Time),443099.39999985695,A,fi,O,i,70,1,300.69999980926514,442798.7000000477,7181,WL,A,10.0
4,22.609999895095825,learn,37390.000104904175,Tue Aug 12 2025 10:45:53 GMT-0500 (Central Daylight Time),443282.7000000477,A,fin,O,n,148,1,484.0,442798.7000000477,7181,WL,A,10.0
4,22.72599983215332,learn,37274.00016784668,Tue Aug 12 2025 10:45:53 GMT-0500 (Central Daylight Time),443398.59999990463,A,fing,O,g,80,1,599.8999998569489,442798.7000000477,7181,WL,A,10.0
4,22.893999814987183,learn,37106.00018501282,Tue Aug 12 2025 10:45:53 GMT-0500 (Central Daylight Time),443565.89999985695,A,finge,O,e,145,1,767.1999998092651,442798.7000000477,7181,WL,A,10.0
4,22.992999792099,learn,37007.000207901,Tue Aug 12 2025 10:45:53 GMT-0500 (Central Daylight Time),443665.7000000477,A,finger,O,r,72,1,867.0,442798.7000000477,7181,WL,A,10.0
4,23.459999799728394,learn,36540.00020027161,Tue Aug 12 2025 10:45:53 GMT-0500 (Central Daylight Time),444132.59999990463,A,fingerenter,O,enter,427,1,1333.8999998569489,442798.7000000477,7181,WL,A,10.0
4,23.842999935150146,learn,36157.00006484985,Tue Aug 12 2025 10:45:53 GMT-0500 (Central Daylight Time),444515.59999990463,A,l,O,l,362,1,382.7999999523163,444132.7999999523,7181,WL,A,11.0
4,24.026999950408936,learn,35973.000049591064,Tue Aug 12 2025 10:45:53 GMT-0500 (Central Daylight Time),444698.89999985695,A,lo,O,o,145,1,566.0999999046326,444132.7999999523,7181,WL,A,11.0
4,24.192999839782715,learn,35807.000160217285,Tue Aug 12 2025 10:45:53 GMT-0500 (Central Daylight Time),444865.59999990463,A,log,O,g,130,1,732.7999999523163,444132.7999999523,7181,WL,A,11.0
4,24.625,learn,35375.0,Tue Aug 12 2025 10:45:53 GMT-0500 (Central Daylight Time),445297.59999990463,A,logenter,O,enter,395,1,1164.7999999523163,444132.7999999523,7181,WL,A,11.0
4,33.43999981880188,learn,26560.00018119812,Tue Aug 12 2025 10:45:53 GMT-0500 (Central Daylight Time),454112.59999990463,A,b,O,b,8798,1,8814.700000047684,445297.89999985695,7181,WL,A,12.0
4,33.57299995422363,learn,26427.000045776367,Tue Aug 12 2025 10:45:53 GMT-0500 (Central Daylight Time),454245.5,A,bu,O,u,107,1,8947.600000143051,445297.89999985695,7181,WL,A,12.0
4,33.78999996185303,learn,26210.000038146973,Tue Aug 12 2025 10:45:53 GMT-0500 (Central Daylight Time),454461.89999985695,A,but,O,t,193,1,9164.0,445297.89999985695,7181,WL,A,12.0
4,33.989999771118164,learn,26010.000228881836,Tue Aug 12 2025 10:45:53 GMT-0500 (Central Daylight Time),454661.7999999523,A,butt,O,t,176,1,9363.900000095367,445297.89999985695,7181,WL,A,12.0
4,34.08899998664856,learn,25911.00001335144,Tue Aug 12 2025 10:45:53 GMT-0500 (Central Daylight Time),454761.7000000477,A,butto,O,o,63,1,9463.800000190735,445297.89999985695,7181,WL,A,12.0
4,34.18999981880188,learn,25810.00018119812,Tue Aug 12 2025 10:45:53 GMT-0500 (Central Daylight Time),454861.7999999523,A,button,O,n,85,1,9563.900000095367,445297.89999985695,7181,WL,A,12.0
4,34.42199993133545,learn,25578.00006866455,Tue Aug 12 2025 10:45:53 GMT-0500 (Central Daylight Time),455094.39999985695,A,buttonenter,O,enter,203,1,9796.5,445297.89999985695,7181,WL,A,12.0
4,39.3219997882843,learn,20678.0002117157,Tue Aug 12 2025 10:45:53 GMT-0500 (Central Daylight Time),459993.7999999523,A,h,O,h,4888,1,4899.099999904633,455094.7000000477,7181,WL,A,13.0
4,39.520999908447266,learn,20479.000091552734,Tue Aug 12 2025 10:45:53 GMT-0500 (Central Daylight Time),460193.7000000477,A,ha,O,a,175,1,5099.0,455094.7000000477,7181,WL,A,13.0
4,40.370999813079834,learn,19629.000186920166,Tue Aug 12 2025 10:45:53 GMT-0500 (Central Daylight Time),461043.39999985695,A,har,O,r,819,1,5948.699999809265,455094.7000000477,7181,WL,A,13.0
4,40.520999908447266,learn,19479.000091552734,Tue Aug 12 2025 10:45:53 GMT-0500 (Central Daylight Time),461193.5,A,harp,O,p,127,1,6098.799999952316,455094.7000000477,7181,WL,A,13.0
4,40.78699994087219,learn,19213.000059127808,Tue Aug 12 2025 10:45:53 GMT-0500 (Central Daylight Time),461459.0,A,harpenter,O,enter,239,1,6364.299999952316,455094.7000000477,7181,WL,A,13.0
4,42.76899981498718,learn,17231.000185012817,Tue Aug 12 2025 10:45:53 GMT-0500 (Central Daylight Time),463441.7000000477,A,enter,O,enter,1970,1,1982.4000000953674,461459.2999999523,7181,WL,A,14.0
4,43.26899981498718,learn,16731.000185012817,Tue Aug 12 2025 10:45:53 GMT-0500 (Central Daylight Time),463941.5,A,enter,O,enter,492,1,499.5,463442.0,7181,WL,A,15.0
5,0.5499999523162842,learn,60000.0,Tue Aug 12 2025 10:45:53 GMT-0500 (Central Daylight Time),528971.7000000477,A,k,O,k,525,1,549.3000001907349,528422.399999857,7181,WL,A,1.0
5,0.749000072479248,learn,60000.0,Tue Aug 12 2025 10:45:53 GMT-0500 (Central Daylight Time),529171.2000000477,A,ke,O,e,158,1,748.8000001907349,528422.399999857,7181,WL,A,1.0
5,1.0320000648498535,learn,60000.0,Tue Aug 12 2025 10:45:53 GMT-0500 (Central Daylight Time),529454.5,A,key,O,y,250,1,1032.1000001430511,528422.399999857,7181,WL,A,1.0
5,1.3480000495910645,learn,60000.0,Tue Aug 12 2025 10:45:53 GMT-0500 (Central Daylight Time),529769.899999857,A,keyenter,O,enter,287,1,1347.5,528422.399999857,7181,WL,A,1.0
5,1.6489999294281006,learn,60000.0,Tue Aug 12 2025 10:45:53 GMT-0500 (Central Daylight Time),530070.899999857,A,r,O,r,284,1,300.69999980926514,529770.2000000477,7181,WL,A,2.0
5,1.8320000171661377,learn,60000.0,Tue Aug 12 2025 10:45:53 GMT-0500 (Central Daylight Time),530254.2000000477,A,ra,O,a,154,1,484.0,529770.2000000477,7181,WL,A,2.0
5,2.047999858856201,learn,60000.0,Tue Aug 12 2025 10:45:53 GMT-0500 (Central Daylight Time),530470.5,A,rat,O,t,192,1,700.2999999523163,529770.2000000477,7181,WL,A,2.0
5,2.2149999141693115,learn,60000.0,Tue Aug 12 2025 10:45:53 GMT-0500 (Central Daylight Time),530637.2000000477,A,ratt,O,t,135,1,867.0,529770.2000000477,7181,WL,A,2.0
5,2.3309998512268066,learn,60000.0,Tue Aug 12 2025 10:45:53 GMT-0500 (Central Daylight Time),530753.5,A,rattl,O,l,89,1,983.2999999523163,529770.2000000477,7181,WL,A,2.0
5,2.447999954223633,learn,60000.0,Tue Aug 12 2025 10:45:53 GMT-0500 (Central Daylight Time),530870.399999857,A,rattle,O,e,93,1,1100.1999998092651,529770.2000000477,7181,WL,A,2.0
5,2.8309998512268066,learn,60000.0,Tue Aug 12 2025 10:45:53 GMT-0500 (Central Daylight Time),531252.899999857,A,rattleenter,O,enter,350,1,1482.6999998092651,529770.2000000477,7181,WL,A,2.0
5,3.115000009536743,learn,60000.0,Tue Aug 12 2025 10:45:53 GMT-0500 (Central Daylight Time),531537.0999999046,A,g,O,g,274,1,284.0,531253.0999999046,7181,WL,A,3.0
5,3.2149999141693115,learn,60000.0,Tue Aug 12 2025 10:45:53 GMT-0500 (Central Daylight Time),531637.0,A,go,O,o,77,1,383.90000009536743,531253.0999999046,7181,WL,A,3.0
5,3.4819998741149902,learn,60000.0,Tue Aug 12 2025 10:45:53 GMT-0500 (Central Daylight Time),531903.7000000477,A,gol,O,l,237,1,650.6000001430511,531253.0999999046,7181,WL,A,3.0
5,3.7309999465942383,learn,60000.0,Tue Aug 12 2025 10:45:53 GMT-0500 (Central Daylight Time),532153.5999999046,A,gold,O,d,221,1,900.5,531253.0999999046,7181,WL,A,3.0
5,4.480000019073486,learn,60000.0,Tue Aug 12 2025 10:45:53 GMT-0500 (Central Daylight Time),532902.2000000477,A,goldenter,O,enter,722,1,1649.1000001430511,531253.0999999046,7181,WL,A,3.0
5,5.297999858856201,learn,60000.0,Tue Aug 12 2025 10:45:53 GMT-0500 (Central Daylight Time),533719.7999999523,A,b,O,b,809,1,817.2999999523163,532902.5,7181,WL,A,4.0
5,5.398000001907349,learn,60000.0,Tue Aug 12 2025 10:45:53 GMT-0500 (Central Daylight Time),533819.5999999046,A,bo,O,o,61,1,917.0999999046326,532902.5,7181,WL,A,4.0
5,5.5309998989105225,learn,60000.0,Tue Aug 12 2025 10:45:53 GMT-0500 (Central Daylight Time),533953.0,A,boo,O,o,107,1,1050.5,532902.5,7181,WL,A,4.0
5,5.7809998989105225,learn,60000.0,Tue Aug 12 2025 10:45:53 GMT-0500 (Central Daylight Time),534203.0,A,book,O,k,212,1,1300.5,532902.5,7181,WL,A,4.0
5,6.412999868392944,learn,60000.0,Tue Aug 12 2025 10:45:53 GMT-0500 (Central Daylight Time),534834.899999857,A,bookenter,O,enter,591,1,1932.3999998569489,532902.5,7181,WL,A,4.0
5,6.879999876022339,learn,60000.0,Tue Aug 12 2025 10:45:53 GMT-0500 (Central Daylight Time),535301.899999857,A,f,O,f,460,1,466.59999990463257,534835.2999999523,7181,WL,A,5.0
5,6.980000019073486,learn,60000.0,Tue Aug 12 2025 10:45:53 GMT-0500 (Central Daylight Time),535402.5,A,fl,O,l,72,1,567.2000000476837,534835.2999999523,7181,WL,A,5.0
5,7.162999868392944,learn,60000.0,Tue Aug 12 2025 10:45:53 GMT-0500 (Central Daylight Time),535585.5,A,flo,O,o,147,1,750.2000000476837,534835.2999999523,7181,WL,A,5.0
5,7.2790000438690186,learn,60000.0,Tue Aug 12 2025 10:45:53 GMT-0500 (Central Daylight Time),535701.0999999046,A,flou,O,u,90,1,865.7999999523163,534835.2999999523,7181,WL,A,5.0
5,7.478999853134155,learn,60000.0,Tue Aug 12 2025 10:45:53 GMT-0500 (Central Daylight Time),535901.0999999046,A,flour,O,r,183,1,1065.7999999523163,534835.2999999523,7181,WL,A,5.0
5,7.86299991607666,learn,60000.0,Tue Aug 12 2025 10:45:53 GMT-0500 (Central Daylight Time),536285.5999999046,A,flou,O,backspace,361,1,1450.2999999523163,534835.2999999523,7181,WL,A,5.0
5,8.04699993133545,learn,60000.0,Tue Aug 12 2025 10:45:53 GMT-0500 (Central Daylight Time),536468.7000000477,A,flo,O,backspace,153,1,1633.4000000953674,534835.2999999523,7181,WL,A,5.0
5,8.312999963760376,learn,60000.0,Tue Aug 12 2025 10:45:53 GMT-0500 (Central Daylight Time),536735.5,A,flow,O,w,233,1,1900.2000000476837,534835.2999999523,7181,WL,A,5.0
5,8.747999906539917,learn,60000.0,Tue Aug 12 2025 10:45:53 GMT-0500 (Central Daylight Time),537168.7000000477,A,flowe,O,e,403,1,2333.4000000953674,534835.2999999523,7181,WL,A,5.0
5,8.848000049591064,learn,60000.0,Tue Aug 12 2025 10:45:53 GMT-0500 (Central Daylight Time),537268.5,A,flower,O,r,60,1,2433.2000000476837,534835.2999999523,7181,WL,A,5.0
5,9.147000074386597,learn,60000.0,Tue Aug 12 2025 10:45:53 GMT-0500 (Central Daylight Time),537567.399999857,A,flowerenter,O,enter,275,1,2732.0999999046326,534835.2999999523,7181,WL,A,5.0
5,10.19700002670288,learn,60000.0,Tue Aug 12 2025 10:45:53 GMT-0500 (Central Daylight Time),538618.0999999046,A,t,O,t,1040,1,1050.5,537567.5999999046,7181,WL,A,6.0
5,10.397000074386597,learn,60000.0,Tue Aug 12 2025 10:45:53 GMT-0500 (Central Daylight Time),538818.0999999046,A,tr,O,r,173,1,1250.5,537567.5999999046,7181,WL,A,6.0
5,10.496999979019165,learn,60000.0,Tue Aug 12 2025 10:45:53 GMT-0500 (Central Daylight Time),538917.899999857,A,tra,O,a,69,1,1350.2999999523163,537567.5999999046,7181,WL,A,6.0
5,10.61299991607666,learn,60000.0,Tue Aug 12 2025 10:45:53 GMT-0500 (Central Daylight Time),539033.5999999046,A,trai,O,i,79,1,1466.0,537567.5999999046,7181,WL,A,6.0
5,10.746999979019165,learn,60000.0,Tue Aug 12 2025 10:45:53 GMT-0500 (Central Daylight Time),539167.899999857,A,train,O,n,117,1,1600.2999999523163,537567.5999999046,7181,WL,A,6.0
5,11.013000011444092,learn,60000.0,Tue Aug 12 2025 10:45:53 GMT-0500 (Central Daylight Time),539433.399999857,A,trainenter,O,enter,229,1,1865.7999999523163,537567.5999999046,7181,WL,A,6.0
5,11.180000066757202,learn,60000.0,Tue Aug 12 2025 10:45:53 GMT-0500 (Central Daylight Time),539601.0,A,r,O,r,150,1,167.29999995231628,539433.7000000477,7181,WL,A,7.0
5,11.312999963760376,learn,60000.0,Tue Aug 12 2025 10:45:53 GMT-0500 (Central Daylight Time),539734.0,A,ru,O,u,107,1,300.2999999523163,539433.7000000477,7181,WL,A,7.0
5,11.680000066757202,learn,60000.0,Tue Aug 12 2025 10:45:53 GMT-0500 (Central Daylight Time),540101.0999999046,A,rug,O,g,336,1,667.3999998569489,539433.7000000477,7181,WL,A,7.0
5,13.01199984550476,learn,60000.0,Tue Aug 12 2025 10:45:53 GMT-0500 (Central Daylight Time),541432.899999857,A,rugenter,O,enter,1303,1,1999.1999998092651,539433.7000000477,7181,WL,A,7.0
5,16.478999853134155,learn,60000.0,Tue Aug 12 2025 10:45:53 GMT-0500 (Central Daylight Time),544899.399999857,A,m,O,m,3445,1,3466.199999809265,541433.2000000477,7181,WL,A,8.0
5,16.628999948501587,learn,60000.0,Tue Aug 12 2025 10:45:53 GMT-0500 (Central Daylight Time),545049.5,A,me,O,e,115,1,3616.2999999523163,541433.2000000477,7181,WL,A,8.0
5,16.76199984550476,learn,60000.0,Tue Aug 12 2025 10:45:53 GMT-0500 (Central Daylight Time),545182.5999999046,A,mea,O,a,101,1,3749.399999856949,541433.2000000477,7181,WL,A,8.0
5,16.994999885559082,learn,60000.0,Tue Aug 12 2025 10:45:53 GMT-0500 (Central Daylight Time),545415.899999857,A,mead,O,d,199,1,3982.699999809265,541433.2000000477,7181,WL,A,8.0
5,17.111999988555908,learn,60000.0,Tue Aug 12 2025 10:45:53 GMT-0500 (Central Daylight Time),545532.5,A,meado,O,o,79,1,4099.299999952316,541433.2000000477,7181,WL,A,8.0
5,17.210999965667725,learn,60000.0,Tue Aug 12 2025 10:45:53 GMT-0500 (Central Daylight Time),545632.0999999046,A,meadow,O,w,75,1,4198.899999856949,541433.2000000477,7181,WL,A,8.0
5,17.64400005340576,learn,60000.0,Tue Aug 12 2025 10:45:53 GMT-0500 (Central Daylight Time),546064.7000000477,A,meadowenter,O,enter,403,1,4631.5,541433.2000000477,7181,WL,A,8.0
5,18.194999933242798,learn,60000.0,Tue Aug 12 2025 10:45:53 GMT-0500 (Central Daylight Time),546615.5,A,c,O,c,543,1,550.6000001430511,546064.899999857,7181,WL,A,9.0
5,18.277999877929688,learn,60000.0,Tue Aug 12 2025 10:45:53 GMT-0500 (Central Daylight Time),546698.399999857,A,ch,O,h,48,1,633.5,546064.899999857,7181,WL,A,9.0
5,18.32699990272522,learn,60000.0,Tue Aug 12 2025 10:45:53 GMT-0500 (Central Daylight Time),546748.2999999523,A,chi,O,i,27,1,683.4000000953674,546064.899999857,7181,WL,A,9.0
5,18.527999877929688,learn,60000.0,Tue Aug 12 2025 10:45:53 GMT-0500 (Central Daylight Time),546948.7000000477,A,chim,O,m,173,1,883.8000001907349,546064.899999857,7181,WL,A,9.0
5,18.727999925613403,learn,60000.0,Tue Aug 12 2025 10:45:53 GMT-0500 (Central Daylight Time),547148.5,A,chimi,O,i,161,1,1083.6000001430511,546064.899999857,7181,WL,A,9.0
5,19.361000061035156,learn,60000.0,Tue Aug 12 2025 10:45:53 GMT-0500 (Central Daylight Time),547781.7999999523,A,chim,O,backspace,600,1,1716.9000000953674,546064.899999857,7181,WL,A,9.0
5,19.611000061035156,learn,60000.0,Tue Aug 12 2025 10:45:53 GMT-0500 (Central Daylight Time),548031.5999999046,A,chimn,O,n,216,1,1966.7000000476837,546064.899999857,7181,WL,A,9.0
5,19.72699999809265,learn,60000.0,Tue Aug 12 2025 10:45:53 GMT-0500 (Central Daylight Time),548148.2999999523,A,chimne,O,e,86,1,2083.4000000953674,546064.899999857,7181,WL,A,9.0
5,19.82699990272522,learn,60000.0,Tue Aug 12 2025 10:45:53 GMT-0500 (Central Daylight Time),548247.7000000477,A,chimney,O,y,76,1,2182.800000190735,546064.899999857,7181,WL,A,9.0
5,20.342999935150146,learn,60000.0,Tue Aug 12 2025 10:45:53 GMT-0500 (Central Daylight Time),548763.7000000477,A,chimneyenter,O,enter,485,1,2698.800000190735,546064.899999857,7181,WL,A,9.0
5,21.177000045776367,learn,60000.0,Tue Aug 12 2025 10:45:53 GMT-0500 (Central Daylight Time),549597.7999999523,A,s,O,s,820,1,833.7999999523163,548764.0,7181,WL,A,10.0
5,21.30900001525879,learn,60000.0,Tue Aug 12 2025 10:45:53 GMT-0500 (Central Daylight Time),549729.899999857,A,sa,O,a,102,1,965.8999998569489,548764.0,7181,WL,A,10.0
5,21.442999839782715,learn,60000.0,Tue Aug 12 2025 10:45:53 GMT-0500 (Central Daylight Time),549864.2000000477,A,sal,O,l,116,1,1100.2000000476837,548764.0,7181,WL,A,10.0
5,21.609999895095825,learn,60000.0,Tue Aug 12 2025 10:45:53 GMT-0500 (Central Daylight Time),550031.0999999046,A,salt,O,t,133,1,1267.0999999046326,548764.0,7181,WL,A,10.0
5,21.842000007629395,learn,60000.0,Tue Aug 12 2025 10:45:53 GMT-0500 (Central Daylight Time),550263.2999999523,A,saltenter,O,enter,198,1,1499.2999999523163,548764.0,7181,WL,A,10.0
5,22.042999982833862,learn,60000.0,Tue Aug 12 2025 10:45:53 GMT-0500 (Central Daylight Time),550464.0999999046,A,f,O,f,184,1,200.5,550263.5999999046,7181,WL,A,11.0
5,22.192999839782715,learn,60000.0,Tue Aug 12 2025 10:45:53 GMT-0500 (Central Daylight Time),550614.0,A,fi,O,i,118,1,350.40000009536743,550263.5999999046,7181,WL,A,11.0
5,22.325999975204468,learn,60000.0,Tue Aug 12 2025 10:45:53 GMT-0500 (Central Daylight Time),550747.2999999523,A,fin,O,n,104,1,483.7000000476837,550263.5999999046,7181,WL,A,11.0
5,22.592999935150146,learn,60000.0,Tue Aug 12 2025 10:45:53 GMT-0500 (Central Daylight Time),551014.0999999046,A,fing,O,g,235,1,750.5,550263.5999999046,7181,WL,A,11.0
5,22.792999982833862,learn,60000.0,Tue Aug 12 2025 10:45:53 GMT-0500 (Central Daylight Time),551213.899999857,A,finge,O,e,168,1,950.2999999523163,550263.5999999046,7181,WL,A,11.0
5,22.875999927520752,learn,60000.0,Tue Aug 12 2025 10:45:53 GMT-0500 (Central Daylight Time),551296.7000000477,A,finger,O,r,54,1,1033.1000001430511,550263.5999999046,7181,WL,A,11.0
5,25.057999849319458,learn,60000.0,Tue Aug 12 2025 10:45:53 GMT-0500 (Central Daylight Time),553478.7999999523,A,fingerenter,O,enter,2167,1,3215.2000000476837,550263.5999999046,7181,WL,A,11.0
5,25.54200005531311,learn,60000.0,Tue Aug 12 2025 10:45:53 GMT-0500 (Central Daylight Time),553963.0,A,l,O,l,473,1,483.90000009536743,553479.0999999046,7181,WL,A,12.0
5,25.741999864578247,learn,60000.0,Tue Aug 12 2025 10:45:53 GMT-0500 (Central Daylight Time),554162.7999999523,A,lo,O,o,164,1,683.7000000476837,553479.0999999046,7181,WL,A,12.0
5,25.89199995994568,learn,60000.0,Tue Aug 12 2025 10:45:53 GMT-0500 (Central Daylight Time),554313.0,A,log,O,g,115,1,833.9000000953674,553479.0999999046,7181,WL,A,12.0
5,26.10800004005432,learn,60000.0,Tue Aug 12 2025 10:45:53 GMT-0500 (Central Daylight Time),554528.5,A,logenter,O,enter,178,1,1049.4000000953674,553479.0999999046,7181,WL,A,12.0
5,27.274999856948853,learn,60000.0,Tue Aug 12 2025 10:45:53 GMT-0500 (Central Daylight Time),555695.899999857,A,h,O,h,1159,1,1167.1999998092651,554528.7000000477,7181,WL,A,13.0
5,27.375,learn,60000.0,Tue Aug 12 2025 10:45:53 GMT-0500 (Central Daylight Time),555795.399999857,A,ha,O,a,71,1,1266.6999998092651,554528.7000000477,7181,WL,A,13.0
5,27.774999856948853,learn,60000.0,Tue Aug 12 2025 10:45:53 GMT-0500 (Central Daylight Time),556195.5999999046,A,har,O,r,364,1,1666.8999998569489,554528.7000000477,7181,WL,A,13.0
5,28.024999856948853,learn,60000.0,Tue Aug 12 2025 10:45:53 GMT-0500 (Central Daylight Time),556445.5999999046,A,harp,O,p,219,1,1916.8999998569489,554528.7000000477,7181,WL,A,13.0
5,28.5239999294281,learn,60000.0,Tue Aug 12 2025 10:45:53 GMT-0500 (Central Daylight Time),556944.5,A,harpenter,O,enter,462,1,2415.7999999523163,554528.7000000477,7181,WL,A,13.0
5,39.30299997329712,learn,60000.0,Tue Aug 12 2025 10:45:53 GMT-0500 (Central Daylight Time),567724.0999999046,A,enter,O,enter,10765,1,10779.399999856949,556944.7000000477,7181,WL,A,14.0
5,39.88599991798401,learn,60000.0,Tue Aug 12 2025 10:45:53 GMT-0500 (Central Daylight Time),568307.2999999523,A,enter,O,enter,568,1,582.9000000953674,567724.399999857,7181,WL,A,15.0
6,0.43400001525878906,distr,59565.99998474121,Tue Aug 12 2025 10:45:53 GMT-0500 (Central Daylight Time),644516.7999999523,B,c,O,c,405,1,433.09999990463257,644083.7000000477,7181,WL,A,1.0
6,0.6010000705718994,distr,59398.9999294281,Tue Aug 12 2025 10:45:53 GMT-0500 (Central Daylight Time),644683.5999999046,B,ch,O,h,128,1,599.8999998569489,644083.7000000477,7181,WL,A,1.0
6,0.7670001983642578,distr,59232.99980163574,Tue Aug 12 2025 10:45:53 GMT-0500 (Central Daylight Time),644849.7999999523,B,cha,O,a,139,1,766.0999999046326,644083.7000000477,7181,WL,A,1.0
6,0.9000000953674316,distr,59099.99990463257,Tue Aug 12 2025 10:45:53 GMT-0500 (Central Daylight Time),644982.899999857,B,chai,O,i,110,1,899.1999998092651,644083.7000000477,7181,WL,A,1.0
6,1.067000150680542,distr,58932.99984931946,Tue Aug 12 2025 10:45:53 GMT-0500 (Central Daylight Time),645150.0999999046,B,chair,O,r,143,1,1066.3999998569489,644083.7000000477,7181,WL,A,1.0
6,1.6160001754760742,distr,58383.999824523926,Tue Aug 12 2025 10:45:53 GMT-0500 (Central Daylight Time),645698.7000000477,B,chairenter,O,enter,512,1,1615.0,644083.7000000477,7181,WL,A,1.0
6,2.1500000953674316,distr,57849.99990463257,Tue Aug 12 2025 10:45:53 GMT-0500 (Central Daylight Time),646232.899999857,B,p,O,p,517,1,533.8999998569489,645699.0,7181,WL,A,2.0
6,2.2829999923706055,distr,57717.000007629395,Tue Aug 12 2025 10:45:53 GMT-0500 (Central Daylight Time),646366.0,B,pe,O,e,101,1,667.0,645699.0,7181,WL,A,2.0
6,2.4170000553131104,distr,57582.99994468689,Tue Aug 12 2025 10:45:53 GMT-0500 (Central Daylight Time),646499.2000000477,B,pea,O,a,104,1,800.2000000476837,645699.0,7181,WL,A,2.0
6,2.75,distr,57250.0,Tue Aug 12 2025 10:45:53 GMT-0500 (Central Daylight Time),646832.5999999046,B,peac,O,c,299,1,1133.5999999046326,645699.0,7181,WL,A,2.0
6,2.9000000953674316,distr,57099.99990463257,Tue Aug 12 2025 10:45:53 GMT-0500 (Central Daylight Time),646982.2000000477,B,peach,O,h,117,1,1283.2000000476837,645699.0,7181,WL,A,2.0
6,3.315000057220459,distr,56684.99994277954,Tue Aug 12 2025 10:45:53 GMT-0500 (Central Daylight Time),647398.2000000477,B,peachenter,O,enter,381,1,1699.2000000476837,645699.0,7181,WL,A,2.0
6,3.7829999923706055,distr,56217.000007629395,Tue Aug 12 2025 10:45:53 GMT-0500 (Central Daylight Time),647865.5999999046,B,b,O,b,449,1,467.2999999523163,647398.2999999523,7181,WL,A,3.0
6,3.882000207901001,distr,56117.999792099,Tue Aug 12 2025 10:45:53 GMT-0500 (Central Daylight Time),647964.5999999046,B,bo,O,o,74,1,566.2999999523163,647398.2999999523,7181,WL,A,3.0
6,4.098999977111816,distr,55901.00002288818,Tue Aug 12 2025 10:45:53 GMT-0500 (Central Daylight Time),648182.0,B,bot,O,t,198,1,783.7000000476837,647398.2999999523,7181,WL,A,3.0
6,4.266000032424927,distr,55733.99996757507,Tue Aug 12 2025 10:45:53 GMT-0500 (Central Daylight Time),648348.7000000477,B,bott,O,t,138,1,950.4000000953674,647398.2999999523,7181,WL,A,3.0
6,4.383000135421753,distr,55616.99986457825,Tue Aug 12 2025 10:45:53 GMT-0500 (Central Daylight Time),648465.2999999523,B,bottl,O,l,88,1,1067.0,647398.2999999523,7181,WL,A,3.0
6,4.5329999923706055,distr,55467.000007629395,Tue Aug 12 2025 10:45:53 GMT-0500 (Central Daylight Time),648615.2000000477,B,bottle,O,e,116,1,1216.9000000953674,647398.2999999523,7181,WL,A,3.0
6,4.982000112533569,distr,55017.99988746643,Tue Aug 12 2025 10:45:53 GMT-0500 (Central Daylight Time),649064.0999999046,B,bottleenter,O,enter,422,1,1665.7999999523163,647398.2999999523,7181,WL,A,3.0
6,5.680999994277954,distr,54319.000005722046,Tue Aug 12 2025 10:45:53 GMT-0500 (Central Daylight Time),649764.0,B,b,O,b,685,1,699.5,649064.5,7181,WL,A,4.0
6,5.781000137329102,distr,54218.9998626709,Tue Aug 12 2025 10:45:53 GMT-0500 (Central Daylight Time),649863.7999999523,B,bo,O,o,80,1,799.2999999523163,649064.5,7181,WL,A,4.0
6,5.9150002002716064,distr,54084.99979972839,Tue Aug 12 2025 10:45:53 GMT-0500 (Central Daylight Time),649997.2999999523,B,bow,O,w,124,1,932.7999999523163,649064.5,7181,WL,A,4.0
6,6.064000129699707,distr,53935.99987030029,Tue Aug 12 2025 10:45:53 GMT-0500 (Central Daylight Time),650147.2000000477,B,bowl,O,l,135,1,1082.7000000476837,649064.5,7181,WL,A,4.0
6,6.430999994277954,distr,53569.000005722046,Tue Aug 12 2025 10:45:53 GMT-0500 (Central Daylight Time),650513.7000000477,B,bowlenter,O,enter,354,1,1449.2000000476837,649064.5,7181,WL,A,4.0
6,7.13100004196167,distr,52868.99995803833,Tue Aug 12 2025 10:45:53 GMT-0500 (Central Daylight Time),651213.899999857,B,d,O,d,694,1,700.0,650513.899999857,7181,WL,A,5.0
6,7.315000057220459,distr,52684.99994277954,Tue Aug 12 2025 10:45:53 GMT-0500 (Central Daylight Time),651397.7000000477,B,da,O,a,159,1,883.8000001907349,650513.899999857,7181,WL,A,5.0
6,8.198000192642212,distr,51801.99980735779,Tue Aug 12 2025 10:45:53 GMT-0500 (Central Daylight Time),652280.899999857,B,daw,O,w,849,1,1767.0,650513.899999857,7181,WL,A,5.0
6,8.331000089645386,distr,51668.999910354614,Tue Aug 12 2025 10:45:53 GMT-0500 (Central Daylight Time),652414.0,B,dawn,O,n,102,1,1900.1000001430511,650513.899999857,7181,WL,A,5.0
6,8.61300015449524,distr,51386.99984550476,Tue Aug 12 2025 10:45:53 GMT-0500 (Central Daylight Time),652696.2000000477,B,dawnenter,O,enter,244,1,2182.300000190735,650513.899999857,7181,WL,A,5.0
6,8.797000169754028,distr,51202.99983024597,Tue Aug 12 2025 10:45:53 GMT-0500 (Central Daylight Time),652879.5999999046,B,s,O,s,164,1,183.09999990463257,652696.5,7181,WL,A,6.0
6,8.930000066757202,distr,51069.9999332428,Tue Aug 12 2025 10:45:53 GMT-0500 (Central Daylight Time),653013.0,B,se,O,e,117,1,316.5,652696.5,7181,WL,A,6.0
6,9.115000009536743,distr,50884.99999046326,Tue Aug 12 2025 10:45:53 GMT-0500 (Central Daylight Time),653197.5999999046,B,see,O,e,177,1,501.09999990463257,652696.5,7181,WL,A,6.0
6,9.38100004196167,distr,50618.99995803833,Tue Aug 12 2025 10:45:53 GMT-0500 (Central Daylight Time),653463.5999999046,B,seed,O,d,239,1,767.0999999046326,652696.5,7181,WL,A,6.0
6,9.86300015449524,distr,50136.99984550476,Tue Aug 12 2025 10:45:53 GMT-0500 (Central Daylight Time),653945.899999857,B,seedenter,O,enter,450,1,1249.3999998569489,652696.5,7181,WL,A,6.0
6,19.711000204086304,distr,40288.999795913696,Tue Aug 12 2025 10:45:53 GMT-0500 (Central Daylight Time),663792.7999999523,B,enter,O,enter,9828,1,9846.5,653946.2999999523,7181,WL,A,7.0
6,19.92799997329712,distr,40072.00002670288,Tue Aug 12 2025 10:45:53 GMT-0500 (Central Daylight Time),664009.2999999523,B,enter,O,enter,197,1,216.20000004768372,663793.0999999046,7181,WL,A,8.0
6,20.128000020980835,distr,39871.999979019165,Tue Aug 12 2025 10:45:53 GMT-0500 (Central Daylight Time),664209.2999999523,B,enter,O,enter,180,1,199.70000004768372,664009.5999999046,7181,WL,A,9.0
6,20.311000108718872,distr,39688.99989128113,Tue Aug 12 2025 10:45:53 GMT-0500 (Central Daylight Time),664392.5999999046,B,enter,O,enter,164,1,183.09999990463257,664209.5,7181,WL,A,10.0
6,20.511000156402588,distr,39488.99984359741,Tue Aug 12 2025 10:45:53 GMT-0500 (Central Daylight Time),664592.5,B,enter,O,enter,182,1,199.70000004768372,664392.7999999523,7181,WL,A,11.0
6,20.694000005722046,distr,39305.999994277954,Tue Aug 12 2025 10:45:53 GMT-0500 (Central Daylight Time),664775.7000000477,B,enter,O,enter,174,1,182.90000009536743,664592.7999999523,7181,WL,A,12.0
6,20.89400005340576,distr,39105.99994659424,Tue Aug 12 2025 10:45:53 GMT-0500 (Central Daylight Time),664975.5999999046,B,enter,O,enter,183,1,199.59999990463257,664776.0,7181,WL,A,13.0
6,21.094000101089478,distr,38905.99989891052,Tue Aug 12 2025 10:45:53 GMT-0500 (Central Daylight Time),665175.5,B,enter,O,enter,183,1,199.60000014305115,664975.899999857,7181,WL,A,14.0
6,21.39400005340576,distr,38605.99994659424,Tue Aug 12 2025 10:45:53 GMT-0500 (Central Daylight Time),665475.399999857,B,enter,O,enter,278,1,299.59999990463257,665175.7999999523,7181,WL,A,15.0
7,2.2320001125335693,immed,57767.99988746643,Tue Aug 12 2025 10:45:53 GMT-0500 (Central Daylight Time),677639.0,A,f,O,f,2211,1,2232.2000000476837,675406.7999999523,7181,WL,A,1.0
7,2.4149999618530273,immed,57585.00003814697,Tue Aug 12 2025 10:45:53 GMT-0500 (Central Daylight Time),677822.0,A,fl,O,l,150,1,2415.2000000476837,675406.7999999523,7181,WL,A,1.0
7,2.5820000171661377,immed,57417.99998283386,Tue Aug 12 2025 10:45:53 GMT-0500 (Central Daylight Time),677988.7999999523,A,flo,O,o,142,1,2582.0,675406.7999999523,7181,WL,A,1.0
7,2.6489999294281006,immed,57351.0000705719,Tue Aug 12 2025 10:45:53 GMT-0500 (Central Daylight Time),678055.0999999046,A,flow,O,w,35,1,2648.2999999523163,675406.7999999523,7181,WL,A,1.0
7,2.7660000324249268,immed,57233.99996757507,Tue Aug 12 2025 10:45:53 GMT-0500 (Central Daylight Time),678172.399999857,A,flowe,O,e,97,1,2765.5999999046326,675406.7999999523,7181,WL,A,1.0
7,2.865999937057495,immed,57134.000062942505,Tue Aug 12 2025 10:45:53 GMT-0500 (Central Daylight Time),678272.0999999046,A,flower,O,r,73,1,2865.2999999523163,675406.7999999523,7181,WL,A,1.0
7,3.38100004196167,immed,56618.99995803833,Tue Aug 12 2025 10:45:53 GMT-0500 (Central Daylight Time),678787.899999857,A,flowerenter,O,enter,492,1,3381.0999999046326,675406.7999999523,7181,WL,A,1.0
7,3.7320001125335693,immed,56267.99988746643,Tue Aug 12 2025 10:45:53 GMT-0500 (Central Daylight Time),679138.7999999523,A,t,O,t,332,1,350.59999990463257,678788.2000000477,7181,WL,A,2.0
7,3.8989999294281006,immed,56101.0000705719,Tue Aug 12 2025 10:45:53 GMT-0500 (Central Daylight Time),679305.2000000477,A,tr,O,r,138,1,517.0,678788.2000000477,7181,WL,A,2.0
7,4.015000104904175,immed,55984.999895095825,Tue Aug 12 2025 10:45:53 GMT-0500 (Central Daylight Time),679421.899999857,A,tra,O,a,87,1,633.6999998092651,678788.2000000477,7181,WL,A,2.0
7,4.148999929428101,immed,55851.0000705719,Tue Aug 12 2025 10:45:53 GMT-0500 (Central Daylight Time),679555.2000000477,A,trai,O,i,105,1,767.0,678788.2000000477,7181,WL,A,2.0
7,4.315000057220459,immed,55684.99994277954,Tue Aug 12 2025 10:45:53 GMT-0500 (Central Daylight Time),679721.899999857,A,train,O,n,138,1,933.6999998092651,678788.2000000477,7181,WL,A,2.0
7,4.763999938964844,immed,55236.000061035156,Tue Aug 12 2025 10:45:53 GMT-0500 (Central Daylight Time),680170.7000000477,A,trainenter,O,enter,410,1,1382.5,678788.2000000477,7181,WL,A,2.0
7,4.998000144958496,immed,55001.999855041504,Tue Aug 12 2025 10:45:53 GMT-0500 (Central Daylight Time),680404.899999857,A,r,O,r,213,1,234.0,680170.899999857,7181,WL,A,3.0
7,5.082000017166138,immed,54917.99998283386,Tue Aug 12 2025 10:45:53 GMT-0500 (Central Daylight Time),680488.0999999046,A,ru,O,u,49,1,317.2000000476837,680170.899999857,7181,WL,A,3.0
7,5.46399998664856,immed,54536.00001335144,Tue Aug 12 2025 10:45:53 GMT-0500 (Central Daylight Time),680870.7999999523,A,rug,O,g,357,1,699.9000000953674,680170.899999857,7181,WL,A,3.0
7,7.430000066757202,immed,52569.9999332428,Tue Aug 12 2025 10:45:53 GMT-0500 (Central Daylight Time),682836.5,A,rugenter,O,enter,1944,1,2665.600000143051,680170.899999857,7181,WL,A,3.0
7,8.564000129699707,immed,51435.99987030029,Tue Aug 12 2025 10:45:53 GMT-0500 (Central Daylight Time),683970.2000000477,A,c,O,c,1115,1,1133.5,682836.7000000477,7181,WL,A,4.0
7,8.646000146865845,immed,51353.999853134155,Tue Aug 12 2025 10:45:53 GMT-0500 (Central Daylight Time),684053.0,A,ch,O,h,58,1,1216.2999999523163,682836.7000000477,7181,WL,A,4.0
7,8.730000019073486,immed,51269.999980926514,Tue Aug 12 2025 10:45:53 GMT-0500 (Central Daylight Time),684136.899999857,A,chi,O,i,66,1,1300.1999998092651,682836.7000000477,7181,WL,A,4.0
7,9.064000129699707,immed,50935.99987030029,Tue Aug 12 2025 10:45:53 GMT-0500 (Central Daylight Time),684470.5,A,chim,O,m,312,1,1633.7999999523163,682836.7000000477,7181,WL,A,4.0
7,9.246999979019165,immed,50753.000020980835,Tue Aug 12 2025 10:45:53 GMT-0500 (Central Daylight Time),684653.399999857,A,chimn,O,n,156,1,1816.6999998092651,682836.7000000477,7181,WL,A,4.0
7,9.397000074386597,immed,50602.9999256134,Tue Aug 12 2025 10:45:53 GMT-0500 (Central Daylight Time),684803.2000000477,A,chimne,O,e,120,1,1966.5,682836.7000000477,7181,WL,A,4.0
7,10.763000011444092,immed,49236.99998855591,Tue Aug 12 2025 10:45:53 GMT-0500 (Central Daylight Time),686169.5999999046,A,chimney,O,y,1339,1,3332.899999856949,682836.7000000477,7181,WL,A,4.0
7,11.029000043869019,immed,48970.99995613098,Tue Aug 12 2025 10:45:53 GMT-0500 (Central Daylight Time),686435.2999999523,A,chimneyenter,O,enter,234,1,3598.5999999046326,682836.7000000477,7181,WL,A,4.0
7,11.896000146865845,immed,48103.999853134155,Tue Aug 12 2025 10:45:53 GMT-0500 (Central Daylight Time),687302.2999999523,A,t,O,t,860,1,866.7999999523163,686435.5,7181,WL,A,5.0
7,12.062999963760376,immed,47937.000036239624,Tue Aug 12 2025 10:45:53 GMT-0500 (Central Daylight Time),687470.0,A,tr,O,r,144,1,1034.5,686435.5,7181,WL,A,5.0
7,12.146000146865845,immed,47853.999853134155,Tue Aug 12 2025 10:45:53 GMT-0500 (Central Daylight Time),687552.5,A,tra,O,a,60,1,1117.0,686435.5,7181,WL,A,5.0
7,12.296000003814697,immed,47703.9999961853,Tue Aug 12 2025 10:45:53 GMT-0500 (Central Daylight Time),687702.2000000477,A,trai,O,i,126,1,1266.7000000476837,686435.5,7181,WL,A,5.0
7,12.446000099182129,immed,47553.99990081787,Tue Aug 12 2025 10:45:53 GMT-0500 (Central Daylight Time),687852.5,A,train,O,n,111,1,1417.0,686435.5,7181,WL,A,5.0
7,12.82800006866455,immed,47171.99993133545,Tue Aug 12 2025 10:45:53 GMT-0500 (Central Daylight Time),688234.7000000477,A,trainenter,O,enter,353,1,1799.2000000476837,686435.5,7181,WL,A,5.0
7,13.09500002861023,immed,46904.99997138977,Tue Aug 12 2025 10:45:53 GMT-0500 (Central Daylight Time),688502.0,A,f,O,f,252,1,267.10000014305115,688234.899999857,7181,WL,A,6.0
7,13.196000099182129,immed,46803.99990081787,Tue Aug 12 2025 10:45:53 GMT-0500 (Central Daylight Time),688602.0999999046,A,fi,O,i,64,1,367.2000000476837,688234.899999857,7181,WL,A,6.0
7,13.312000036239624,immed,46687.999963760376,Tue Aug 12 2025 10:45:53 GMT-0500 (Central Daylight Time),688718.5999999046,A,fin,O,n,92,1,483.7000000476837,688234.899999857,7181,WL,A,6.0
7,13.479000091552734,immed,46520.999908447266,Tue Aug 12 2025 10:45:53 GMT-0500 (Central Daylight Time),688885.2000000477,A,fing,O,g,133,1,650.3000001907349,688234.899999857,7181,WL,A,6.0
7,13.644999980926514,immed,46355.000019073486,Tue Aug 12 2025 10:45:53 GMT-0500 (Central Daylight Time),689052.0,A,finge,O,e,137,1,817.1000001430511,688234.899999857,7181,WL,A,6.0
7,13.712000131607056,immed,46287.999868392944,Tue Aug 12 2025 10:45:53 GMT-0500 (Central Daylight Time),689118.2999999523,A,finger,O,r,34,1,883.4000000953674,688234.899999857,7181,WL,A,6.0
7,13.92799997329712,immed,46072.00002670288,Tue Aug 12 2025 10:45:53 GMT-0500 (Central Daylight Time),689334.2000000477,A,fingerenter,O,enter,192,1,1099.3000001907349,688234.899999857,7181,WL,A,6.0
7,14.144999980926514,immed,45855.000019073486,Tue Aug 12 2025 10:45:53 GMT-0500 (Central Daylight Time),689551.7000000477,A,s,O,s,200,1,217.20000004768372,689334.5,7181,WL,A,7.0
7,14.34500002861023,immed,45654.99997138977,Tue Aug 12 2025 10:45:53 GMT-0500 (Central Daylight Time),689751.7999999523,A,sa,O,a,167,1,417.2999999523163,689334.5,7181,WL,A,7.0
7,14.795000076293945,immed,45204.999923706055,Tue Aug 12 2025 10:45:53 GMT-0500 (Central Daylight Time),690201.7000000477,A,sal,O,l,414,1,867.2000000476837,689334.5,7181,WL,A,7.0
7,15.01200008392334,immed,44987.99991607666,Tue Aug 12 2025 10:45:53 GMT-0500 (Central Daylight Time),690418.2000000477,A,salt,O,t,189,1,1083.7000000476837,689334.5,7181,WL,A,7.0
7,16.026999950408936,immed,43973.000049591064,Tue Aug 12 2025 10:45:53 GMT-0500 (Central Daylight Time),691433.7000000477,A,saltenter,O,enter,987,1,2099.2000000476837,689334.5,7181,WL,A,7.0
7,16.311000108718872,immed,43688.99989128113,Tue Aug 12 2025 10:45:53 GMT-0500 (Central Daylight Time),691718.0,A,h,O,h,278,1,284.10000014305115,691433.899999857,7181,WL,A,8.0
7,16.444000005722046,immed,43555.999994277954,Tue Aug 12 2025 10:45:53 GMT-0500 (Central Daylight Time),691851.2999999523,A,ha,O,a,103,1,417.40000009536743,691433.899999857,7181,WL,A,8.0
7,16.64400005340576,immed,43355.99994659424,Tue Aug 12 2025 10:45:53 GMT-0500 (Central Daylight Time),692050.899999857,A,har,O,r,161,1,617.0,691433.899999857,7181,WL,A,8.0
7,16.795000076293945,immed,43204.999923706055,Tue Aug 12 2025 10:45:53 GMT-0500 (Central Daylight Time),692201.2000000477,A,harp,O,p,115,1,767.3000001907349,691433.899999857,7181,WL,A,8.0
7,18.009999990463257,immed,41990.00000953674,Tue Aug 12 2025 10:45:53 GMT-0500 (Central Daylight Time),693416.2999999523,A,harpenter,O,enter,1178,1,1982.4000000953674,691433.899999857,7181,WL,A,8.0
7,19.710000038146973,immed,40289.99996185303,Tue Aug 12 2025 10:45:53 GMT-0500 (Central Daylight Time),695116.899999857,A,k,O,k,1679,1,1700.2999999523163,693416.5999999046,7181,WL,A,9.0
7,19.8270001411438,immed,40172.9998588562,Tue Aug 12 2025 10:45:53 GMT-0500 (Central Daylight Time),695233.399999857,A,ke,O,e,92,1,1816.7999999523163,693416.5999999046,7181,WL,A,9.0
7,20.243000030517578,immed,39756.99996948242,Tue Aug 12 2025 10:45:53 GMT-0500 (Central Daylight Time),695650.0,A,key,O,y,388,1,2233.4000000953674,693416.5999999046,7181,WL,A,9.0
7,20.625999927520752,immed,39374.00007247925,Tue Aug 12 2025 10:45:53 GMT-0500 (Central Daylight Time),696032.2000000477,A,keyenter,O,enter,355,1,2615.600000143051,693416.5999999046,7181,WL,A,9.0
7,25.27500009536743,immed,34724.99990463257,Tue Aug 12 2025 10:45:53 GMT-0500 (Central Daylight Time),700681.5,A,g,O,g,4631,1,4649.100000143051,696032.399999857,7181,WL,A,10.0
7,25.342999935150146,immed,34657.00006484985,Tue Aug 12 2025 10:45:53 GMT-0500 (Central Daylight Time),700749.5,A,go,O,o,28,1,4717.100000143051,696032.399999857,7181,WL,A,10.0
7,25.52500009536743,immed,34474.99990463257,Tue Aug 12 2025 10:45:53 GMT-0500 (Central Daylight Time),700931.399999857,A,gol,O,l,162,1,4899.0,696032.399999857,7181,WL,A,10.0
7,25.69099998474121,immed,34309.00001525879,Tue Aug 12 2025 10:45:53 GMT-0500 (Central Daylight Time),701097.2000000477,A,gold,O,d,129,1,5064.800000190735,696032.399999857,7181,WL,A,10.0
7,26.10700011253357,immed,33892.99988746643,Tue Aug 12 2025 10:45:53 GMT-0500 (Central Daylight Time),701513.7000000477,A,goldenter,O,enter,405,1,5481.300000190735,696032.399999857,7181,WL,A,10.0
7,37.00399994850159,immed,22996.000051498413,Tue Aug 12 2025 10:45:53 GMT-0500 (Central Daylight Time),712410.0999999046,A,enter,O,enter,10877,1,10896.200000047684,701513.899999857,7181,WL,A,11.0
7,37.23699998855591,immed,22763.00001144409,Tue Aug 12 2025 10:45:53 GMT-0500 (Central Daylight Time),712643.399999857,A,enter,O,enter,211,1,233.0,712410.399999857,7181,WL,A,12.0
7,37.437000036239624,immed,22562.999963760376,Tue Aug 12 2025 10:45:53 GMT-0500 (Central Daylight Time),712843.2999999523,A,enter,O,enter,178,1,199.59999990463257,712643.7000000477,7181,WL,A,13.0
7,37.670000076293945,immed,22329.999923706055,Tue Aug 12 2025 10:45:53 GMT-0500 (Central Daylight Time),713076.399999857,A,enter,O,enter,217,1,232.79999995231628,712843.5999999046,7181,WL,A,14.0
7,37.90300011634827,immed,22096.999883651733,Tue Aug 12 2025 10:45:53 GMT-0500 (Central Daylight Time),713309.7999999523,A,enter,O,enter,216,1,233.09999990463257,713076.7000000477,7181,WL,A,15.0
