block_c,block_dur,condition,countdown,datetime,endtime,list,multichar_response,project,response,response_time,session_number,start_end,starttime,subject_id,task,task_vers,trial
,,,,Tue Aug 26 2025 15:41:57 GMT-0500 (Central Daylight Time),,,,O,space,584,1,,,7203,WL,B,
prac,,0,,Tue Aug 26 2025 15:41:57 GMT-0500 (Central Daylight Time),,NA,b,O,b,1735,1,,,7203,WL,B,1.0
prac,,0,,Tue Aug 26 2025 15:41:57 GMT-0500 (Central Daylight Time),,NA,bo,O,o,259,1,,,7203,WL,B,1.0
prac,,0,,Tue Aug 26 2025 15:41:57 GMT-0500 (Central Daylight Time),,NA,boo,O,o,127,1,,,7203,WL,B,1.0
prac,,0,,Tue Aug 26 2025 15:41:57 GMT-0500 (Central Daylight Time),,NA,boos,O,s,121,1,,,7203,WL,B,1.0
prac,,0,,Tue Aug 26 2025 15:41:57 GMT-0500 (Central Daylight Time),,NA,boost,O,t,237,1,,,7203,WL,B,1.0
prac,,0,,Tue Aug 26 2025 15:41:57 GMT-0500 (Central Daylight Time),,NA,boostenter,O,enter,8875,1,,,7203,WL,B,1.0
1,3.1489999294281006,learn,56851.0000705719,Tue Aug 26 2025 15:41:57 GMT-0500 (Central Daylight Time),149661.89999985695,A,s,O,s,3140,1,3149.0,146512.89999985695,7203,WL,B,1.0
1,3.4499998092651367,learn,56550.00019073486,Tue Aug 26 2025 15:41:57 GMT-0500 (Central Daylight Time),149963.0,A,st,O,t,278,1,3450.100000143051,146512.89999985695,7203,WL,B,1.0
1,4.266999959945679,learn,55733.00004005432,Tue Aug 26 2025 15:41:57 GMT-0500 (Central Daylight Time),150780.0,A,str,O,r,801,1,4267.100000143051,146512.89999985695,7203,WL,B,1.0
1,4.432999849319458,learn,55567.00015068054,Tue Aug 26 2025 15:41:57 GMT-0500 (Central Daylight Time),150946.29999995232,A,stre,O,e,142,1,4433.400000095367,146512.89999985695,7203,WL,B,1.0
1,4.599999904632568,learn,55400.00009536743,Tue Aug 26 2025 15:41:57 GMT-0500 (Central Daylight Time),151112.89999985695,A,stree,O,e,142,1,4600.0,146512.89999985695,7203,WL,B,1.0
1,4.865999937057495,learn,55134.000062942505,Tue Aug 26 2025 15:41:57 GMT-0500 (Central Daylight Time),151378.79999995232,A,street,O,t,245,1,4865.900000095367,146512.89999985695,7203,WL,B,1.0
1,8.330999851226807,learn,51669.00014877319,Tue Aug 26 2025 15:41:57 GMT-0500 (Central Daylight Time),154843.79999995232,A,streetenter,O,enter,3448,1,8330.900000095367,146512.89999985695,7203,WL,B,1.0
1,10.263999938964844,learn,49736.000061035156,Tue Aug 26 2025 15:41:57 GMT-0500 (Central Daylight Time),156776.69999980927,A,p,O,p,1920,1,1932.5999999046326,154844.09999990463,7203,WL,B,2.0
1,10.532999992370605,learn,49467.000007629395,Tue Aug 26 2025 15:41:57 GMT-0500 (Central Daylight Time),157046.0,A,pi,O,i,247,1,2201.9000000953674,154844.09999990463,7203,WL,B,2.0
1,10.782999992370605,learn,49217.000007629395,Tue Aug 26 2025 15:41:57 GMT-0500 (Central Daylight Time),157296.19999980927,A,pip,O,p,238,1,2452.0999999046326,154844.09999990463,7203,WL,B,2.0
1,10.995999813079834,learn,49004.000186920166,Tue Aug 26 2025 15:41:57 GMT-0500 (Central Daylight Time),157508.89999985695,A,pipr,O,r,194,1,2664.7999999523163,154844.09999990463,7203,WL,B,2.0
1,11.830999851226807,learn,48169.00014877319,Tue Aug 26 2025 15:41:57 GMT-0500 (Central Daylight Time),158344.09999990463,A,pip,O,backspace,814,1,3500.0,154844.09999990463,7203,WL,B,2.0
1,12.111999988555908,learn,47888.00001144409,Tue Aug 26 2025 15:41:57 GMT-0500 (Central Daylight Time),158624.59999990463,A,pipe,O,e,273,1,3780.5,154844.09999990463,7203,WL,B,2.0
1,12.678999900817871,learn,47321.00009918213,Tue Aug 26 2025 15:41:57 GMT-0500 (Central Daylight Time),159192.0,A,pipeenter,O,enter,548,1,4347.900000095367,154844.09999990463,7203,WL,B,2.0
1,14.577999830245972,learn,45422.00016975403,Tue Aug 26 2025 15:41:57 GMT-0500 (Central Daylight Time),161091.19999980927,A,g,O,g,1883,1,1898.8999998569489,159192.29999995232,7203,WL,B,3.0
1,14.712999820709229,learn,45287.00017929077,Tue Aug 26 2025 15:41:57 GMT-0500 (Central Daylight Time),161226.39999985695,A,gr,O,r,112,1,2034.0999999046326,159192.29999995232,7203,WL,B,3.0
1,14.863999843597412,learn,45136.00015640259,Tue Aug 26 2025 15:41:57 GMT-0500 (Central Daylight Time),161376.59999990463,A,gra,O,a,137,1,2184.2999999523163,159192.29999995232,7203,WL,B,3.0
1,15.277999877929688,learn,44722.00012207031,Tue Aug 26 2025 15:41:57 GMT-0500 (Central Daylight Time),161790.89999985695,A,gras,O,s,403,1,2598.5999999046326,159192.29999995232,7203,WL,B,3.0
1,15.747999906539917,learn,44252.00009346008,Tue Aug 26 2025 15:41:57 GMT-0500 (Central Daylight Time),162260.69999980927,A,grass,O,s,445,1,3068.399999856949,159192.29999995232,7203,WL,B,3.0
1,16.194999933242798,learn,43805.0000667572,Tue Aug 26 2025 15:41:57 GMT-0500 (Central Daylight Time),162707.79999995232,A,grassenter,O,enter,428,1,3515.5,159192.29999995232,7203,WL,B,3.0
1,16.911999940872192,learn,43088.00005912781,Tue Aug 26 2025 15:41:57 GMT-0500 (Central Daylight Time),163425.09999990463,A,w,O,w,698,1,716.9000000953674,162708.19999980927,7203,WL,B,4.0
1,17.179999828338623,learn,42820.00017166138,Tue Aug 26 2025 15:41:57 GMT-0500 (Central Daylight Time),163693.19999980927,A,wi,O,i,248,1,985.0,162708.19999980927,7203,WL,B,4.0
1,17.329999923706055,learn,42670.000076293945,Tue Aug 26 2025 15:41:57 GMT-0500 (Central Daylight Time),163842.79999995232,A,win,O,n,132,1,1134.6000001430511,162708.19999980927,7203,WL,B,4.0
1,17.66100001335144,learn,42338.99998664856,Tue Aug 26 2025 15:41:57 GMT-0500 (Central Daylight Time),164174.5,A,wind,O,d,311,1,1466.3000001907349,162708.19999980927,7203,WL,B,4.0
1,17.893999814987183,learn,42106.00018501282,Tue Aug 26 2025 15:41:57 GMT-0500 (Central Daylight Time),164407.19999980927,A,windo,O,o,219,1,1699.0,162708.19999980927,7203,WL,B,4.0
1,18.192999839782715,learn,41807.000160217285,Tue Aug 26 2025 15:41:57 GMT-0500 (Central Daylight Time),164706.5,A,window,O,w,283,1,1998.3000001907349,162708.19999980927,7203,WL,B,4.0
1,18.811999797821045,learn,41188.000202178955,Tue Aug 26 2025 15:41:57 GMT-0500 (Central Daylight Time),165324.69999980927,A,windowenter,O,enter,606,1,2616.5,162708.19999980927,7203,WL,B,4.0
1,20.99399995803833,learn,39006.00004196167,Tue Aug 26 2025 15:41:57 GMT-0500 (Central Daylight Time),167507.19999980927,A,c,O,c,2161,1,2182.0999999046326,165325.09999990463,7203,WL,B,5.0
1,21.176999807357788,learn,38823.00019264221,Tue Aug 26 2025 15:41:57 GMT-0500 (Central Daylight Time),167690.19999980927,A,ci,O,i,167,1,2365.0999999046326,165325.09999990463,7203,WL,B,5.0
1,21.342000007629395,learn,38657.999992370605,Tue Aug 26 2025 15:41:57 GMT-0500 (Central Daylight Time),167855.0,A,cit,O,t,153,1,2529.9000000953674,165325.09999990463,7203,WL,B,5.0
1,21.459999799728394,learn,38540.00020027161,Tue Aug 26 2025 15:41:57 GMT-0500 (Central Daylight Time),167973.09999990463,A,city,O,y,109,1,2648.0,165325.09999990463,7203,WL,B,5.0
1,22.074999809265137,learn,37925.00019073486,Tue Aug 26 2025 15:41:57 GMT-0500 (Central Daylight Time),168587.79999995232,A,cityenter,O,enter,595,1,3262.7000000476837,165325.09999990463,7203,WL,B,5.0
1,28.60699987411499,learn,31393.00012588501,Tue Aug 26 2025 15:41:57 GMT-0500 (Central Daylight Time),175120.29999995232,A,p,O,p,6511,1,6532.100000143051,168588.19999980927,7203,WL,B,6.0
1,28.941999912261963,learn,31058.000087738037,Tue Aug 26 2025 15:41:57 GMT-0500 (Central Daylight Time),175455.29999995232,A,pu,O,u,313,1,6867.100000143051,168588.19999980927,7203,WL,B,6.0
1,29.29099988937378,learn,30709.00011062622,Tue Aug 26 2025 15:41:57 GMT-0500 (Central Daylight Time),175803.59999990463,A,pup,O,p,330,1,7215.400000095367,168588.19999980927,7203,WL,B,6.0
1,29.556999921798706,learn,30443.000078201294,Tue Aug 26 2025 15:41:57 GMT-0500 (Central Daylight Time),176069.69999980927,A,pupi,O,i,254,1,7481.5,168588.19999980927,7203,WL,B,6.0
1,29.824999809265137,learn,30175.000190734863,Tue Aug 26 2025 15:41:57 GMT-0500 (Central Daylight Time),176338.5,A,pupil,O,l,246,1,7750.300000190735,168588.19999980927,7203,WL,B,6.0
1,30.473999977111816,learn,29526.000022888184,Tue Aug 26 2025 15:41:57 GMT-0500 (Central Daylight Time),176987.19999980927,A,pupilenter,O,enter,629,1,8399.0,168588.19999980927,7203,WL,B,6.0
1,35.50499987602234,learn,24495.00012397766,Tue Aug 26 2025 15:41:57 GMT-0500 (Central Daylight Time),182018.39999985695,A,d,O,d,5010,1,5030.899999856949,176987.5,7203,WL,B,7.0
1,35.75699996948242,learn,24243.000030517578,Tue Aug 26 2025 15:41:57 GMT-0500 (Central Daylight Time),182269.89999985695,A,do,O,o,239,1,5282.399999856949,176987.5,7203,WL,B,7.0
1,35.9539999961853,learn,24046.000003814697,Tue Aug 26 2025 15:41:57 GMT-0500 (Central Daylight Time),182467.89999985695,A,doo,O,o,182,1,5480.399999856949,176987.5,7203,WL,B,7.0
1,36.019999980926514,learn,23980.000019073486,Tue Aug 26 2025 15:41:57 GMT-0500 (Central Daylight Time),182533.5,A,door,O,r,54,1,5546.0,176987.5,7203,WL,B,7.0
1,36.370999813079834,learn,23629.000186920166,Tue Aug 26 2025 15:41:57 GMT-0500 (Central Daylight Time),182884.5,A,doorenter,O,enter,332,1,5897.0,176987.5,7203,WL,B,7.0
1,42.97199988365173,learn,17028.000116348267,Tue Aug 26 2025 15:41:57 GMT-0500 (Central Daylight Time),189485.0,A,c,O,c,6578,1,6600.200000047684,182884.79999995232,7203,WL,B,8.0
1,43.103999853134155,learn,16896.000146865845,Tue Aug 26 2025 15:41:57 GMT-0500 (Central Daylight Time),189617.5,A,ca,O,a,126,1,6732.700000047684,182884.79999995232,7203,WL,B,8.0
1,43.30199980735779,learn,16698.000192642212,Tue Aug 26 2025 15:41:57 GMT-0500 (Central Daylight Time),189815.89999985695,A,cab,O,b,178,1,6931.099999904633,182884.79999995232,7203,WL,B,8.0
1,43.502999782562256,learn,16497.000217437744,Tue Aug 26 2025 15:41:57 GMT-0500 (Central Daylight Time),190016.5,A,cabi,O,i,180,1,7131.700000047684,182884.79999995232,7203,WL,B,8.0
1,43.63599991798401,learn,16364.000082015991,Tue Aug 26 2025 15:41:57 GMT-0500 (Central Daylight Time),190149.19999980927,A,cabin,O,n,115,1,7264.399999856949,182884.79999995232,7203,WL,B,8.0
1,44.133999824523926,learn,15866.000175476074,Tue Aug 26 2025 15:41:57 GMT-0500 (Central Daylight Time),190647.79999995232,A,cabinenter,O,enter,487,1,7763.0,182884.79999995232,7203,WL,B,8.0
1,44.867999792099,learn,15132.000207901001,Tue Aug 26 2025 15:41:57 GMT-0500 (Central Daylight Time),191381.5,A,l,O,l,716,1,733.5,190648.0,7203,WL,B,9.0
1,45.001999855041504,learn,14998.000144958496,Tue Aug 26 2025 15:41:57 GMT-0500 (Central Daylight Time),191515.19999980927,A,la,O,a,117,1,867.1999998092651,190648.0,7203,WL,B,9.0
1,45.151999950408936,learn,14848.000049591064,Tue Aug 26 2025 15:41:57 GMT-0500 (Central Daylight Time),191665.79999995232,A,lak,O,k,129,1,1017.7999999523163,190648.0,7203,WL,B,9.0
1,45.300999879837036,learn,14699.000120162964,Tue Aug 26 2025 15:41:57 GMT-0500 (Central Daylight Time),191814.59999990463,A,lake,O,e,130,1,1166.5999999046326,190648.0,7203,WL,B,9.0
1,45.901999950408936,learn,14098.000049591064,Tue Aug 26 2025 15:41:57 GMT-0500 (Central Daylight Time),192414.89999985695,A,lakeenter,O,enter,589,1,1766.8999998569489,190648.0,7203,WL,B,9.0
1,49.91699981689453,learn,10083.000183105469,Tue Aug 26 2025 15:41:57 GMT-0500 (Central Daylight Time),196430.5,A,a,O,a,3997,1,4015.2000000476837,192415.29999995232,7203,WL,B,10.0
1,50.05199980735779,learn,9948.000192642212,Tue Aug 26 2025 15:41:57 GMT-0500 (Central Daylight Time),196565.19999980927,A,ar,O,r,128,1,4149.899999856949,192415.29999995232,7203,WL,B,10.0
1,50.365999937057495,learn,9634.000062942505,Tue Aug 26 2025 15:41:57 GMT-0500 (Central Daylight Time),196879.59999990463,A,arn,O,n,301,1,4464.299999952316,192415.29999995232,7203,WL,B,10.0
1,50.817999839782715,learn,9182.000160217285,Tue Aug 26 2025 15:41:57 GMT-0500 (Central Daylight Time),197331.09999990463,A,arnenter,O,enter,435,1,4915.799999952316,192415.29999995232,7203,WL,B,10.0
1,60.01300001144409,learn,-13.000011444091797,Tue Aug 26 2025 15:41:57 GMT-0500 (Central Daylight Time),206526.5,A,None,O,None,9190,1,9195.200000047684,197331.29999995232,7203,WL,B,11.0
2,1.8819999694824219,learn,58118.00003051758,Tue Aug 26 2025 15:41:57 GMT-0500 (Central Daylight Time),277304.19999980927,A,s,O,s,1860,1,1881.8999998569489,275422.2999999523,7203,WL,B,1.0
2,2.115999937057495,learn,57884.000062942505,Tue Aug 26 2025 15:41:57 GMT-0500 (Central Daylight Time),277537.5,A,st,O,t,217,1,2115.2000000476837,275422.2999999523,7203,WL,B,1.0
2,2.547999858856201,learn,57452.0001411438,Tue Aug 26 2025 15:41:57 GMT-0500 (Central Daylight Time),277970.39999985695,A,str,O,r,416,1,2548.0999999046326,275422.2999999523,7203,WL,B,1.0
2,2.681999921798706,learn,57318.000078201294,Tue Aug 26 2025 15:41:57 GMT-0500 (Central Daylight Time),278103.69999980927,A,strr,O,r,120,1,2681.399999856949,275422.2999999523,7203,WL,B,1.0
2,2.7309999465942383,learn,57269.00005340576,Tue Aug 26 2025 15:41:57 GMT-0500 (Central Daylight Time),278153.2999999523,A,strre,O,e,32,1,2731.0,275422.2999999523,7203,WL,B,1.0
2,3.2649998664855957,learn,56735.000133514404,Tue Aug 26 2025 15:41:57 GMT-0500 (Central Daylight Time),278687.39999985695,A,strr,O,backspace,516,1,3265.0999999046326,275422.2999999523,7203,WL,B,1.0
2,3.497999906539917,learn,56502.00009346008,Tue Aug 26 2025 15:41:57 GMT-0500 (Central Daylight Time),278920.19999980927,A,str,O,backspace,210,1,3497.899999856949,275422.2999999523,7203,WL,B,1.0
2,3.632999897003174,learn,56367.000102996826,Tue Aug 26 2025 15:41:57 GMT-0500 (Central Daylight Time),279054.5,A,stre,O,e,112,1,3632.2000000476837,275422.2999999523,7203,WL,B,1.0
2,5.2809998989105225,learn,54719.00010108948,Tue Aug 26 2025 15:41:57 GMT-0500 (Central Daylight Time),280703.19999980927,A,stree,O,e,1627,1,5280.899999856949,275422.2999999523,7203,WL,B,1.0
2,5.515999794006348,learn,54484.00020599365,Tue Aug 26 2025 15:41:57 GMT-0500 (Central Daylight Time),280937.59999990463,A,street,O,t,218,1,5515.299999952316,275422.2999999523,7203,WL,B,1.0
2,6.330999851226807,learn,53669.00014877319,Tue Aug 26 2025 15:41:57 GMT-0500 (Central Daylight Time),281752.89999985695,A,streetenter,O,enter,792,1,6330.599999904633,275422.2999999523,7203,WL,B,1.0
2,6.7809998989105225,learn,53219.00010108948,Tue Aug 26 2025 15:41:57 GMT-0500 (Central Daylight Time),282202.5,A,s,O,s,435,1,449.30000019073486,281753.19999980927,7203,WL,B,2.0
2,7.146999835968018,learn,52853.00016403198,Tue Aug 26 2025 15:41:57 GMT-0500 (Central Daylight Time),282569.19999980927,A,st,O,t,350,1,816.0,281753.19999980927,7203,WL,B,2.0
2,7.2809998989105225,learn,52719.00010108948,Tue Aug 26 2025 15:41:57 GMT-0500 (Central Daylight Time),282702.39999985695,A,sta,O,a,121,1,949.2000000476837,281753.19999980927,7203,WL,B,2.0
2,7.429999828338623,learn,52570.00017166138,Tue Aug 26 2025 15:41:57 GMT-0500 (Central Daylight Time),282852.2999999523,A,star,O,r,132,1,1099.1000001430511,281753.19999980927,7203,WL,B,2.0
2,8.013999938964844,learn,51986.000061035156,Tue Aug 26 2025 15:41:57 GMT-0500 (Central Daylight Time),283435.59999990463,A,starenter,O,enter,572,1,1682.4000000953674,281753.19999980927,7203,WL,B,2.0
2,8.29699993133545,learn,51703.00006866455,Tue Aug 26 2025 15:41:57 GMT-0500 (Central Daylight Time),283718.7999999523,A,a,O,a,264,1,283.0,283435.7999999523,7203,WL,B,3.0
2,8.396999835968018,learn,51603.00016403198,Tue Aug 26 2025 15:41:57 GMT-0500 (Central Daylight Time),283819.39999985695,A,ar,O,r,89,1,383.59999990463257,283435.7999999523,7203,WL,B,3.0
2,9.547999858856201,learn,50452.0001411438,Tue Aug 26 2025 15:41:57 GMT-0500 (Central Daylight Time),284969.5,A,arm,O,m,1135,1,1533.7000000476837,283435.7999999523,7203,WL,B,3.0
2,10.129999876022339,learn,49870.00012397766,Tue Aug 26 2025 15:41:57 GMT-0500 (Central Daylight Time),285551.69999980927,A,armenter,O,enter,567,1,2115.899999856949,283435.7999999523,7203,WL,B,3.0
2,10.77999997138977,learn,49220.00002861023,Tue Aug 26 2025 15:41:57 GMT-0500 (Central Daylight Time),286202.0,A,w,O,w,630,1,650.0,285552.0,7203,WL,B,4.0
2,10.94599986076355,learn,49054.00013923645,Tue Aug 26 2025 15:41:57 GMT-0500 (Central Daylight Time),286368.0,A,wi,O,i,151,1,816.0,285552.0,7203,WL,B,4.0
2,11.162999868392944,learn,48837.000131607056,Tue Aug 26 2025 15:41:57 GMT-0500 (Central Daylight Time),286584.59999990463,A,win,O,n,200,1,1032.5999999046326,285552.0,7203,WL,B,4.0
2,11.328999996185303,learn,48671.0000038147,Tue Aug 26 2025 15:41:57 GMT-0500 (Central Daylight Time),286751.09999990463,A,wind,O,d,151,1,1199.0999999046326,285552.0,7203,WL,B,4.0
2,11.46399998664856,learn,48536.00001335144,Tue Aug 26 2025 15:41:57 GMT-0500 (Central Daylight Time),286885.59999990463,A,windo,O,o,125,1,1333.5999999046326,285552.0,7203,WL,B,4.0
2,11.646999835968018,learn,48353.00016403198,Tue Aug 26 2025 15:41:57 GMT-0500 (Central Daylight Time),287068.69999980927,A,window,O,w,166,1,1516.6999998092651,285552.0,7203,WL,B,4.0
2,12.578999996185303,learn,47421.0000038147,Tue Aug 26 2025 15:41:57 GMT-0500 (Central Daylight Time),288001.09999990463,A,windowenter,O,enter,910,1,2449.0999999046326,285552.0,7203,WL,B,4.0
2,14.110999822616577,learn,45889.00017738342,Tue Aug 26 2025 15:41:57 GMT-0500 (Central Daylight Time),289533.39999985695,A,p,O,p,1515,1,1532.0,288001.39999985695,7203,WL,B,5.0
2,14.413999795913696,learn,45586.000204086304,Tue Aug 26 2025 15:41:57 GMT-0500 (Central Daylight Time),289836.0,A,pi,O,i,279,1,1834.6000001430511,288001.39999985695,7203,WL,B,5.0
2,14.628000020980835,learn,45371.999979019165,Tue Aug 26 2025 15:41:57 GMT-0500 (Central Daylight Time),290049.89999985695,A,pip,O,p,198,1,2048.5,288001.39999985695,7203,WL,B,5.0
2,14.91100001335144,learn,45088.99998664856,Tue Aug 26 2025 15:41:57 GMT-0500 (Central Daylight Time),290333.0,A,pipe,O,e,272,1,2331.600000143051,288001.39999985695,7203,WL,B,5.0
2,15.42799997329712,learn,44572.00002670288,Tue Aug 26 2025 15:41:57 GMT-0500 (Central Daylight Time),290850.19999980927,A,pipeenter,O,enter,492,1,2848.7999999523163,288001.39999985695,7203,WL,B,5.0
2,16.5939998626709,learn,43406.0001373291,Tue Aug 26 2025 15:41:57 GMT-0500 (Central Daylight Time),292015.89999985695,A,p,O,p,1154,1,1165.3999998569489,290850.5,7203,WL,B,6.0
2,16.961999893188477,learn,43038.00010681152,Tue Aug 26 2025 15:41:57 GMT-0500 (Central Daylight Time),292383.89999985695,A,pu,O,u,355,1,1533.3999998569489,290850.5,7203,WL,B,6.0
2,17.244999885559082,learn,42755.00011444092,Tue Aug 26 2025 15:41:57 GMT-0500 (Central Daylight Time),292666.89999985695,A,pup,O,p,267,1,1816.3999998569489,290850.5,7203,WL,B,6.0
2,17.51099991798401,learn,42489.00008201599,Tue Aug 26 2025 15:41:57 GMT-0500 (Central Daylight Time),292932.59999990463,A,pupi,O,i,251,1,2082.0999999046326,290850.5,7203,WL,B,6.0
2,17.76099991798401,learn,42239.00008201599,Tue Aug 26 2025 15:41:57 GMT-0500 (Central Daylight Time),293182.39999985695,A,pupil,O,l,226,1,2331.899999856949,290850.5,7203,WL,B,6.0
2,18.80999994277954,learn,41190.00005722046,Tue Aug 26 2025 15:41:57 GMT-0500 (Central Daylight Time),294232.2999999523,A,pupilenter,O,enter,1034,1,3381.7999999523163,290850.5,7203,WL,B,6.0
2,20.47599983215332,learn,39524.00016784668,Tue Aug 26 2025 15:41:57 GMT-0500 (Central Daylight Time),295898.09999990463,A,c,O,c,1653,1,1665.5999999046326,294232.5,7203,WL,B,7.0
2,20.609999895095825,learn,39390.000104904175,Tue Aug 26 2025 15:41:57 GMT-0500 (Central Daylight Time),296031.69999980927,A,ca,O,a,120,1,1799.1999998092651,294232.5,7203,WL,B,7.0
2,20.792999982833862,learn,39207.00001716614,Tue Aug 26 2025 15:41:57 GMT-0500 (Central Daylight Time),296214.7999999523,A,cab,O,b,161,1,1982.2999999523163,294232.5,7203,WL,B,7.0
2,20.942999839782715,learn,39057.000160217285,Tue Aug 26 2025 15:41:57 GMT-0500 (Central Daylight Time),296364.5,A,cabi,O,i,131,1,2132.0,294232.5,7203,WL,B,7.0
2,21.07699990272522,learn,38923.00009727478,Tue Aug 26 2025 15:41:57 GMT-0500 (Central Daylight Time),296498.69999980927,A,cabin,O,n,110,1,2266.199999809265,294232.5,7203,WL,B,7.0
2,21.675999879837036,learn,38324.000120162964,Tue Aug 26 2025 15:41:57 GMT-0500 (Central Daylight Time),297098.2999999523,A,cabinenter,O,enter,594,1,2865.7999999523163,294232.5,7203,WL,B,7.0
2,22.408999919891357,learn,37591.00008010864,Tue Aug 26 2025 15:41:57 GMT-0500 (Central Daylight Time),297831.0,A,l,O,l,715,1,732.4000000953674,297098.59999990463,7203,WL,B,8.0
2,22.55900001525879,learn,37440.99998474121,Tue Aug 26 2025 15:41:57 GMT-0500 (Central Daylight Time),297981.7999999523,A,la,O,a,130,1,883.2000000476837,297098.59999990463,7203,WL,B,8.0
2,22.807999849319458,learn,37192.00015068054,Tue Aug 26 2025 15:41:57 GMT-0500 (Central Daylight Time),298230.7999999523,A,lak,O,k,238,1,1132.2000000476837,297098.59999990463,7203,WL,B,8.0
2,23.009999990463257,learn,36990.00000953674,Tue Aug 26 2025 15:41:57 GMT-0500 (Central Daylight Time),298432.0,A,lake,O,e,178,1,1333.4000000953674,297098.59999990463,7203,WL,B,8.0
2,25.93999981880188,learn,34060.00018119812,Tue Aug 26 2025 15:41:57 GMT-0500 (Central Daylight Time),301362.2999999523,A,lakeenter,O,enter,2921,1,4263.700000047684,297098.59999990463,7203,WL,B,8.0
2,28.156999826431274,learn,31843.000173568726,Tue Aug 26 2025 15:41:57 GMT-0500 (Central Daylight Time),303579.7999999523,A,a,O,a,2212,1,2217.100000143051,301362.69999980927,7203,WL,B,9.0
2,28.35699987411499,learn,31643.00012588501,Tue Aug 26 2025 15:41:57 GMT-0500 (Central Daylight Time),303779.19999980927,A,ar,O,r,180,1,2416.5,301362.69999980927,7203,WL,B,9.0
2,28.60699987411499,learn,31393.00012588501,Tue Aug 26 2025 15:41:57 GMT-0500 (Central Daylight Time),304029.0,A,arn,O,n,239,1,2666.300000190735,301362.69999980927,7203,WL,B,9.0
2,30.405999898910522,learn,29594.000101089478,Tue Aug 26 2025 15:41:57 GMT-0500 (Central Daylight Time),305828.59999990463,A,ar,O,backspace,1788,1,4465.900000095367,301362.69999980927,7203,WL,B,9.0
2,31.605000019073486,learn,28394.999980926514,Tue Aug 26 2025 15:41:57 GMT-0500 (Central Daylight Time),307026.89999985695,A,arm,O,m,1182,1,5664.200000047684,301362.69999980927,7203,WL,B,9.0
2,32.1710000038147,learn,27828.999996185303,Tue Aug 26 2025 15:41:57 GMT-0500 (Central Daylight Time),307593.59999990463,A,armenter,O,enter,555,1,6230.900000095367,301362.69999980927,7203,WL,B,9.0
2,35.47199988365173,learn,24528.000116348267,Tue Aug 26 2025 15:41:57 GMT-0500 (Central Daylight Time),310893.7999999523,A,d,O,d,3294,1,3300.0,307593.7999999523,7203,WL,B,10.0
2,35.65399980545044,learn,24346.00019454956,Tue Aug 26 2025 15:41:57 GMT-0500 (Central Daylight Time),311076.59999990463,A,do,O,o,165,1,3482.7999999523163,307593.7999999523,7203,WL,B,10.0
2,35.871999979019165,learn,24128.000020980835,Tue Aug 26 2025 15:41:57 GMT-0500 (Central Daylight Time),311294.09999990463,A,doo,O,o,196,1,3700.2999999523163,307593.7999999523,7203,WL,B,10.0
2,36.00499987602234,learn,23995.00012397766,Tue Aug 26 2025 15:41:57 GMT-0500 (Central Daylight Time),311427.59999990463,A,door,O,r,119,1,3833.7999999523163,307593.7999999523,7203,WL,B,10.0
2,36.80399990081787,learn,23196.00009918213,Tue Aug 26 2025 15:41:57 GMT-0500 (Central Daylight Time),312226.59999990463,A,doorenter,O,enter,793,1,4632.799999952316,307593.7999999523,7203,WL,B,10.0
2,38.9210000038147,learn,21078.999996185303,Tue Aug 26 2025 15:41:57 GMT-0500 (Central Daylight Time),314343.7999999523,A,g,O,g,2098,1,2117.0,312226.7999999523,7203,WL,B,11.0
2,39.07099986076355,learn,20929.00013923645,Tue Aug 26 2025 15:41:57 GMT-0500 (Central Daylight Time),314493.0,A,gr,O,r,141,1,2266.2000000476837,312226.7999999523,7203,WL,B,11.0
2,39.22099995613098,learn,20779.00004386902,Tue Aug 26 2025 15:41:57 GMT-0500 (Central Daylight Time),314643.59999990463,A,gra,O,a,137,1,2416.7999999523163,312226.7999999523,7203,WL,B,11.0
2,39.50399994850159,learn,20496.000051498413,Tue Aug 26 2025 15:41:57 GMT-0500 (Central Daylight Time),314926.69999980927,A,gras,O,s,273,1,2699.899999856949,312226.7999999523,7203,WL,B,11.0
2,39.65299987792969,learn,20347.000122070312,Tue Aug 26 2025 15:41:57 GMT-0500 (Central Daylight Time),315075.09999990463,A,grass,O,s,133,1,2848.2999999523163,312226.7999999523,7203,WL,B,11.0
2,40.3199999332428,learn,19680.000066757202,Tue Aug 26 2025 15:41:57 GMT-0500 (Central Daylight Time),315742.09999990463,A,grassenter,O,enter,655,1,3515.2999999523163,312226.7999999523,7203,WL,B,11.0
2,53.181999921798706,learn,6818.000078201294,Tue Aug 26 2025 15:41:57 GMT-0500 (Central Daylight Time),328603.7999999523,A,l,O,l,12847,1,12861.5,315742.2999999523,7203,WL,B,12.0
2,53.48399996757507,learn,6516.000032424927,Tue Aug 26 2025 15:41:57 GMT-0500 (Central Daylight Time),328906.5,A,la,O,a,281,1,13164.200000047684,315742.2999999523,7203,WL,B,12.0
2,53.79900002479553,learn,6200.999975204468,Tue Aug 26 2025 15:41:57 GMT-0500 (Central Daylight Time),329221.59999990463,A,lab,O,b,309,1,13479.299999952316,315742.2999999523,7203,WL,B,12.0
2,54.348999977111816,learn,5651.000022888184,Tue Aug 26 2025 15:41:57 GMT-0500 (Central Daylight Time),329771.2999999523,A,la,O,backspace,534,1,14029.0,315742.2999999523,7203,WL,B,12.0
2,56.847999811172485,learn,3152.0001888275146,Tue Aug 26 2025 15:41:57 GMT-0500 (Central Daylight Time),332270.09999990463,A,lak,O,k,2480,1,16527.799999952316,315742.2999999523,7203,WL,B,12.0
2,56.99799990653992,learn,3002.000093460083,Tue Aug 26 2025 15:41:57 GMT-0500 (Central Daylight Time),332420.39999985695,A,lake,O,e,142,1,16678.099999904633,315742.2999999523,7203,WL,B,12.0
2,57.94799995422363,learn,2052.000045776367,Tue Aug 26 2025 15:41:57 GMT-0500 (Central Daylight Time),333370.0,A,lakeenter,O,enter,933,1,17627.700000047684,315742.2999999523,7203,WL,B,12.0
2,60.014999866485596,learn,-14.999866485595703,Tue Aug 26 2025 15:41:57 GMT-0500 (Central Daylight Time),335437.0,A,None,O,None,2062,1,2066.800000190735,333370.19999980927,7203,WL,B,13.0
3,0.9670000076293945,learn,59032.999992370605,Tue Aug 26 2025 15:41:57 GMT-0500 (Central Daylight Time),402131.2999999523,A,c,O,c,957,1,966.5,401164.7999999523,7203,WL,B,1.0
3,1.1510000228881836,learn,58848.99997711182,Tue Aug 26 2025 15:41:57 GMT-0500 (Central Daylight Time),402315.39999985695,A,cl,O,l,177,1,1150.5999999046326,401164.7999999523,7203,WL,B,1.0
3,1.315999984741211,learn,58684.00001525879,Tue Aug 26 2025 15:41:57 GMT-0500 (Central Daylight Time),402481.19999980927,A,clc,O,c,151,1,1316.3999998569489,401164.7999999523,7203,WL,B,1.0
3,1.3659999370574951,learn,58634.000062942505,Tue Aug 26 2025 15:41:57 GMT-0500 (Central Daylight Time),402530.5,A,clco,O,o,32,1,1365.7000000476837,401164.7999999523,7203,WL,B,1.0
3,2.2660000324249268,learn,57733.99996757507,Tue Aug 26 2025 15:41:57 GMT-0500 (Central Daylight Time),403430.5,A,clc,O,backspace,891,1,2265.7000000476837,401164.7999999523,7203,WL,B,1.0
3,2.450000047683716,learn,57549.999952316284,Tue Aug 26 2025 15:41:57 GMT-0500 (Central Daylight Time),403614.69999980927,A,cl,O,backspace,169,1,2449.899999856949,401164.7999999523,7203,WL,B,1.0
3,2.7660000324249268,learn,57233.99996757507,Tue Aug 26 2025 15:41:57 GMT-0500 (Central Daylight Time),403930.39999985695,A,clo,O,o,303,1,2765.5999999046326,401164.7999999523,7203,WL,B,1.0
3,2.9160001277923584,learn,57083.99987220764,Tue Aug 26 2025 15:41:57 GMT-0500 (Central Daylight Time),404080.5,A,cloc,O,c,135,1,2915.7000000476837,401164.7999999523,7203,WL,B,1.0
3,3.700000047683716,learn,56299.999952316284,Tue Aug 26 2025 15:41:57 GMT-0500 (Central Daylight Time),404864.5,A,clock,O,k,761,1,3699.7000000476837,401164.7999999523,7203,WL,B,1.0
3,4.348999977111816,learn,55651.00002288818,Tue Aug 26 2025 15:41:57 GMT-0500 (Central Daylight Time),405513.59999990463,A,clockenter,O,enter,625,1,4348.799999952316,401164.7999999523,7203,WL,B,1.0
3,5.216000080108643,learn,54783.99991989136,Tue Aug 26 2025 15:41:57 GMT-0500 (Central Daylight Time),406380.89999985695,A,p,O,p,850,1,867.0,405513.89999985695,7203,WL,B,2.0
3,5.482000112533569,learn,54517.99988746643,Tue Aug 26 2025 15:41:57 GMT-0500 (Central Daylight Time),406647.19999980927,A,pi,O,i,245,1,1133.2999999523163,405513.89999985695,7203,WL,B,2.0
3,5.715000152587891,learn,54284.99984741211,Tue Aug 26 2025 15:41:57 GMT-0500 (Central Daylight Time),406879.39999985695,A,pip,O,p,210,1,1365.5,405513.89999985695,7203,WL,B,2.0
3,6.065000057220459,learn,53934.99994277954,Tue Aug 26 2025 15:41:57 GMT-0500 (Central Daylight Time),407229.5,A,pipe,O,e,328,1,1715.6000001430511,405513.89999985695,7203,WL,B,2.0
3,6.865000009536743,learn,53134.99999046326,Tue Aug 26 2025 15:41:57 GMT-0500 (Central Daylight Time),408029.39999985695,A,pipeenter,O,enter,787,1,2515.5,405513.89999985695,7203,WL,B,2.0
3,7.331000089645386,learn,52668.999910354614,Tue Aug 26 2025 15:41:57 GMT-0500 (Central Daylight Time),408496.0,A,p,O,p,455,1,466.40000009536743,408029.59999990463,7203,WL,B,3.0
3,7.664000034332275,learn,52335.999965667725,Tue Aug 26 2025 15:41:57 GMT-0500 (Central Daylight Time),408828.7999999523,A,pu,O,u,325,1,799.2000000476837,408029.59999990463,7203,WL,B,3.0
3,7.897000074386597,learn,52102.9999256134,Tue Aug 26 2025 15:41:57 GMT-0500 (Central Daylight Time),409062.0,A,pup,O,p,220,1,1032.4000000953674,408029.59999990463,7203,WL,B,3.0
3,8.164000034332275,learn,51835.999965667725,Tue Aug 26 2025 15:41:57 GMT-0500 (Central Daylight Time),409329.2999999523,A,pupi,O,i,244,1,1299.7000000476837,408029.59999990463,7203,WL,B,3.0
3,8.398000001907349,learn,51601.99999809265,Tue Aug 26 2025 15:41:57 GMT-0500 (Central Daylight Time),409562.59999990463,A,pupil,O,l,218,1,1533.0,408029.59999990463,7203,WL,B,3.0
3,9.064000129699707,learn,50935.99987030029,Tue Aug 26 2025 15:41:57 GMT-0500 (Central Daylight Time),410228.59999990463,A,pupilenter,O,enter,653,1,2199.0,408029.59999990463,7203,WL,B,3.0
3,9.496999979019165,learn,50503.000020980835,Tue Aug 26 2025 15:41:57 GMT-0500 (Central Daylight Time),410661.59999990463,A,s,O,s,423,1,432.7000000476837,410228.89999985695,7203,WL,B,4.0
3,9.713000059127808,learn,50286.99994087219,Tue Aug 26 2025 15:41:57 GMT-0500 (Central Daylight Time),410878.19999980927,A,st,O,t,193,1,649.2999999523163,410228.89999985695,7203,WL,B,4.0
3,9.847000122070312,learn,50152.99987792969,Tue Aug 26 2025 15:41:57 GMT-0500 (Central Daylight Time),411011.69999980927,A,sta,O,a,108,1,782.7999999523163,410228.89999985695,7203,WL,B,4.0
3,10.02999997138977,learn,49970.00002861023,Tue Aug 26 2025 15:41:57 GMT-0500 (Central Daylight Time),411194.5,A,star,O,r,164,1,965.6000001430511,410228.89999985695,7203,WL,B,4.0
3,10.79800009727478,learn,49201.99990272522,Tue Aug 26 2025 15:41:57 GMT-0500 (Central Daylight Time),411962.39999985695,A,starenter,O,enter,744,1,1733.5,410228.89999985695,7203,WL,B,4.0
3,11.581000089645386,learn,48418.999910354614,Tue Aug 26 2025 15:41:57 GMT-0500 (Central Daylight Time),412745.69999980927,A,c,O,c,763,1,783.0999999046326,411962.59999990463,7203,WL,B,5.0
3,11.796000003814697,learn,48203.9999961853,Tue Aug 26 2025 15:41:57 GMT-0500 (Central Daylight Time),412960.7999999523,A,ci,O,i,192,1,998.2000000476837,411962.59999990463,7203,WL,B,5.0
3,12.079999923706055,learn,47920.000076293945,Tue Aug 26 2025 15:41:57 GMT-0500 (Central Daylight Time),413244.59999990463,A,cit,O,t,266,1,1282.0,411962.59999990463,7203,WL,B,5.0
3,12.213000059127808,learn,47786.99994087219,Tue Aug 26 2025 15:41:57 GMT-0500 (Central Daylight Time),413377.89999985695,A,city,O,y,116,1,1415.2999999523163,411962.59999990463,7203,WL,B,5.0
3,12.995000123977661,learn,47004.99987602234,Tue Aug 26 2025 15:41:57 GMT-0500 (Central Daylight Time),414160.0,A,cityenter,O,enter,765,1,2197.4000000953674,411962.59999990463,7203,WL,B,5.0
3,13.562000036239624,learn,46437.999963760376,Tue Aug 26 2025 15:41:57 GMT-0500 (Central Daylight Time),414726.69999980927,A,f,O,f,550,1,566.5,414160.19999980927,7203,WL,B,6.0
3,13.779000043869019,learn,46220.99995613098,Tue Aug 26 2025 15:41:57 GMT-0500 (Central Daylight Time),414943.59999990463,A,fi,O,i,203,1,783.4000000953674,414160.19999980927,7203,WL,B,6.0
3,13.913000106811523,learn,46086.99989318848,Tue Aug 26 2025 15:41:57 GMT-0500 (Central Daylight Time),415077.69999980927,A,fir,O,r,123,1,917.5,414160.19999980927,7203,WL,B,6.0
3,14.128999948501587,learn,45871.00005149841,Tue Aug 26 2025 15:41:57 GMT-0500 (Central Daylight Time),415293.5,A,fire,O,e,199,1,1133.3000001907349,414160.19999980927,7203,WL,B,6.0
3,14.611000061035156,learn,45388.999938964844,Tue Aug 26 2025 15:41:57 GMT-0500 (Central Daylight Time),415775.7999999523,A,fireenter,O,enter,462,1,1615.6000001430511,414160.19999980927,7203,WL,B,6.0
3,15.26200008392334,learn,44737.99991607666,Tue Aug 26 2025 15:41:57 GMT-0500 (Central Daylight Time),416427.0,A,g,O,g,646,1,650.8000001907349,415776.19999980927,7203,WL,B,7.0
3,15.460999965667725,learn,44539.000034332275,Tue Aug 26 2025 15:41:57 GMT-0500 (Central Daylight Time),416625.39999985695,A,gr,O,r,185,1,849.2000000476837,415776.19999980927,7203,WL,B,7.0
3,15.661999940872192,learn,44338.00005912781,Tue Aug 26 2025 15:41:57 GMT-0500 (Central Daylight Time),416826.5,A,gra,O,a,182,1,1050.3000001907349,415776.19999980927,7203,WL,B,7.0
3,15.927000045776367,learn,44072.99995422363,Tue Aug 26 2025 15:41:57 GMT-0500 (Central Daylight Time),417091.89999985695,A,gras,O,s,255,1,1315.7000000476837,415776.19999980927,7203,WL,B,7.0
3,16.094000101089478,learn,43905.99989891052,Tue Aug 26 2025 15:41:57 GMT-0500 (Central Daylight Time),417259.5,A,grass,O,s,162,1,1483.3000001907349,415776.19999980927,7203,WL,B,7.0
3,16.544000148773193,learn,43455.99985122681,Tue Aug 26 2025 15:41:57 GMT-0500 (Central Daylight Time),417709.2999999523,A,grassenter,O,enter,430,1,1933.1000001430511,415776.19999980927,7203,WL,B,7.0
3,16.91100001335144,learn,43088.99998664856,Tue Aug 26 2025 15:41:57 GMT-0500 (Central Daylight Time),418076.59999990463,A,d,O,d,354,1,367.09999990463257,417709.5,7203,WL,B,8.0
3,17.24500012397766,learn,42754.99987602234,Tue Aug 26 2025 15:41:57 GMT-0500 (Central Daylight Time),418411.0,A,do,O,o,319,1,701.5,417709.5,7203,WL,B,8.0
3,17.427000045776367,learn,42572.99995422363,Tue Aug 26 2025 15:41:57 GMT-0500 (Central Daylight Time),418592.2999999523,A,doo,O,o,165,1,882.7999999523163,417709.5,7203,WL,B,8.0
3,17.528000116348267,learn,42471.99988365173,Tue Aug 26 2025 15:41:57 GMT-0500 (Central Daylight Time),418693.09999990463,A,door,O,r,93,1,983.5999999046326,417709.5,7203,WL,B,8.0
3,17.97699999809265,learn,42023.00000190735,Tue Aug 26 2025 15:41:57 GMT-0500 (Central Daylight Time),419142.09999990463,A,doorw,O,w,438,1,1432.5999999046326,417709.5,7203,WL,B,8.0
3,18.14400005340576,learn,41855.99994659424,Tue Aug 26 2025 15:41:57 GMT-0500 (Central Daylight Time),419309.69999980927,A,doorwi,O,i,152,1,1600.1999998092651,417709.5,7203,WL,B,8.0
3,18.627000093460083,learn,41372.99990653992,Tue Aug 26 2025 15:41:57 GMT-0500 (Central Daylight Time),419791.89999985695,A,doorw,O,backspace,469,1,2082.399999856949,417709.5,7203,WL,B,8.0
3,18.861000061035156,learn,41138.999938964844,Tue Aug 26 2025 15:41:57 GMT-0500 (Central Daylight Time),420026.2999999523,A,door,O,backspace,216,1,2316.7999999523163,417709.5,7203,WL,B,8.0
3,19.509999990463257,learn,40490.00000953674,Tue Aug 26 2025 15:41:57 GMT-0500 (Central Daylight Time),420675.2999999523,A,doorenter,O,enter,640,1,2965.7999999523163,417709.5,7203,WL,B,8.0
3,19.878000020980835,learn,40121.999979019165,Tue Aug 26 2025 15:41:57 GMT-0500 (Central Daylight Time),421043.0,A,w,O,w,347,1,367.40000009536743,420675.59999990463,7203,WL,B,9.0
3,20.24399995803833,learn,39756.00004196167,Tue Aug 26 2025 15:41:57 GMT-0500 (Central Daylight Time),421409.19999980927,A,wi,O,i,343,1,733.5999999046326,420675.59999990463,7203,WL,B,9.0
3,20.47699999809265,learn,39523.00000190735,Tue Aug 26 2025 15:41:57 GMT-0500 (Central Daylight Time),421642.19999980927,A,win,O,n,209,1,966.5999999046326,420675.59999990463,7203,WL,B,9.0
3,20.64400005340576,learn,39355.99994659424,Tue Aug 26 2025 15:41:57 GMT-0500 (Central Daylight Time),421809.0,A,wind,O,d,153,1,1133.4000000953674,420675.59999990463,7203,WL,B,9.0
3,20.792999982833862,learn,39207.00001716614,Tue Aug 26 2025 15:41:57 GMT-0500 (Central Daylight Time),421958.19999980927,A,windo,O,o,130,1,1282.5999999046326,420675.59999990463,7203,WL,B,9.0
3,20.993000030517578,learn,39006.99996948242,Tue Aug 26 2025 15:41:57 GMT-0500 (Central Daylight Time),422158.69999980927,A,window,O,w,188,1,1483.0999999046326,420675.59999990463,7203,WL,B,9.0
3,21.909000158309937,learn,38090.99984169006,Tue Aug 26 2025 15:41:57 GMT-0500 (Central Daylight Time),423074.39999985695,A,windowd,O,d,901,1,2398.7999999523163,420675.59999990463,7203,WL,B,9.0
3,22.776999950408936,learn,37223.000049591064,Tue Aug 26 2025 15:41:57 GMT-0500 (Central Daylight Time),423941.69999980927,A,window,O,backspace,846,1,3266.0999999046326,420675.59999990463,7203,WL,B,9.0
3,23.276000022888184,learn,36723.99997711182,Tue Aug 26 2025 15:41:57 GMT-0500 (Central Daylight Time),424440.7999999523,A,windowenter,O,enter,478,1,3765.2000000476837,420675.59999990463,7203,WL,B,9.0
3,23.72699999809265,learn,36273.00000190735,Tue Aug 26 2025 15:41:57 GMT-0500 (Central Daylight Time),424892.09999990463,A,d,O,d,431,1,451.0,424441.09999990463,7203,WL,B,10.0
3,24.0239999294281,learn,35976.0000705719,Tue Aug 26 2025 15:41:57 GMT-0500 (Central Daylight Time),425189.2999999523,A,do,O,o,278,1,748.2000000476837,424441.09999990463,7203,WL,B,10.0
3,24.192000150680542,learn,35807.99984931946,Tue Aug 26 2025 15:41:57 GMT-0500 (Central Daylight Time),425357.5,A,doo,O,o,160,1,916.4000000953674,424441.09999990463,7203,WL,B,10.0
3,24.342999935150146,learn,35657.00006484985,Tue Aug 26 2025 15:41:57 GMT-0500 (Central Daylight Time),425508.19999980927,A,door,O,r,130,1,1067.0999999046326,424441.09999990463,7203,WL,B,10.0
3,25.141000032424927,learn,34858.99996757507,Tue Aug 26 2025 15:41:57 GMT-0500 (Central Daylight Time),426306.5,A,doorenter,O,enter,776,1,1865.4000000953674,424441.09999990463,7203,WL,B,10.0
3,25.825000047683716,learn,34174.999952316284,Tue Aug 26 2025 15:41:57 GMT-0500 (Central Daylight Time),426990.59999990463,A,w,O,w,667,1,683.9000000953674,426306.69999980927,7203,WL,B,11.0
3,26.058000087738037,learn,33941.99991226196,Tue Aug 26 2025 15:41:57 GMT-0500 (Central Daylight Time),427223.09999990463,A,wi,O,i,219,1,916.4000000953674,426306.69999980927,7203,WL,B,11.0
3,26.223999977111816,learn,33776.00002288818,Tue Aug 26 2025 15:41:57 GMT-0500 (Central Daylight Time),427389.2999999523,A,wif,O,f,158,1,1082.6000001430511,426306.69999980927,7203,WL,B,11.0
3,26.424000024795532,learn,33575.99997520447,Tue Aug 26 2025 15:41:57 GMT-0500 (Central Daylight Time),427589.19999980927,A,wife,O,e,184,1,1282.5,426306.69999980927,7203,WL,B,11.0
3,26.70900011062622,learn,33290.99988937378,Tue Aug 26 2025 15:41:57 GMT-0500 (Central Daylight Time),427874.5,A,wifeenter,O,enter,273,1,1567.8000001907349,426306.69999980927,7203,WL,B,11.0
3,27.342000007629395,learn,32657.999992370605,Tue Aug 26 2025 15:41:57 GMT-0500 (Central Daylight Time),428507.2999999523,A,c,O,c,613,1,632.6000001430511,427874.69999980927,7203,WL,B,12.0
3,27.707000017166138,learn,32292.999982833862,Tue Aug 26 2025 15:41:57 GMT-0500 (Central Daylight Time),428872.5,A,ci,O,i,343,1,997.8000001907349,427874.69999980927,7203,WL,B,12.0
3,27.924999952316284,learn,32075.000047683716,Tue Aug 26 2025 15:41:57 GMT-0500 (Central Daylight Time),429089.69999980927,A,cit,O,t,200,1,1215.0,427874.69999980927,7203,WL,B,12.0
3,28.091000080108643,learn,31908.999919891357,Tue Aug 26 2025 15:41:57 GMT-0500 (Central Daylight Time),429256.59999990463,A,city,O,y,156,1,1381.9000000953674,427874.69999980927,7203,WL,B,12.0
3,29.341000080108643,learn,30658.999919891357,Tue Aug 26 2025 15:41:57 GMT-0500 (Central Daylight Time),430505.69999980927,A,cityenter,O,enter,1227,1,2631.0,427874.69999980927,7203,WL,B,12.0
3,30.391000032424927,learn,29608.999967575073,Tue Aug 26 2025 15:41:57 GMT-0500 (Central Daylight Time),431556.59999990463,A,f,O,f,1031,1,1050.5999999046326,430506.0,7203,WL,B,13.0
3,30.60800004005432,learn,29391.99995994568,Tue Aug 26 2025 15:41:57 GMT-0500 (Central Daylight Time),431773.09999990463,A,fi,O,i,211,1,1267.0999999046326,430506.0,7203,WL,B,13.0
3,30.723999977111816,learn,29276.000022888184,Tue Aug 26 2025 15:41:57 GMT-0500 (Central Daylight Time),431888.7999999523,A,fir,O,r,92,1,1382.7999999523163,430506.0,7203,WL,B,13.0
3,31.272000074386597,learn,28727.999925613403,Tue Aug 26 2025 15:41:57 GMT-0500 (Central Daylight Time),432437.2999999523,A,fire,O,e,530,1,1931.2999999523163,430506.0,7203,WL,B,13.0
3,31.722000122070312,learn,28277.999877929688,Tue Aug 26 2025 15:41:57 GMT-0500 (Central Daylight Time),432887.19999980927,A,fireenter,O,enter,429,1,2381.199999809265,430506.0,7203,WL,B,13.0
3,38.23800015449524,learn,21761.99984550476,Tue Aug 26 2025 15:41:57 GMT-0500 (Central Daylight Time),439403.59999990463,A,a,O,a,6496,1,6516.099999904633,432887.5,7203,WL,B,14.0
3,38.37000012397766,learn,21629.99987602234,Tue Aug 26 2025 15:41:57 GMT-0500 (Central Daylight Time),439535.39999985695,A,ar,O,r,117,1,6647.899999856949,432887.5,7203,WL,B,14.0
3,39.25500011444092,learn,20744.999885559082,Tue Aug 26 2025 15:41:57 GMT-0500 (Central Daylight Time),440420.0,A,arn,O,n,865,1,7532.5,432887.5,7203,WL,B,14.0
3,39.90400004386902,learn,20095.99995613098,Tue Aug 26 2025 15:41:57 GMT-0500 (Central Daylight Time),441068.89999985695,A,ar,O,backspace,640,1,8181.399999856949,432887.5,7203,WL,B,14.0
3,40.670000076293945,learn,19329.999923706055,Tue Aug 26 2025 15:41:57 GMT-0500 (Central Daylight Time),441835.5,A,arm,O,m,750,1,8948.0,432887.5,7203,WL,B,14.0
3,41.28800010681152,learn,18711.999893188477,Tue Aug 26 2025 15:41:57 GMT-0500 (Central Daylight Time),442453.19999980927,A,armenter,O,enter,612,1,9565.699999809265,432887.5,7203,WL,B,14.0
3,49.98399996757507,learn,10016.000032424927,Tue Aug 26 2025 15:41:57 GMT-0500 (Central Daylight Time),451149.39999985695,A,l,O,l,8687,1,8696.0,442453.39999985695,7203,WL,B,15.0
3,50.28400015830994,learn,9715.999841690063,Tue Aug 26 2025 15:41:57 GMT-0500 (Central Daylight Time),451449.39999985695,A,la,O,a,287,1,8996.0,442453.39999985695,7203,WL,B,15.0
3,51.26699995994568,learn,8733.000040054321,Tue Aug 26 2025 15:41:57 GMT-0500 (Central Daylight Time),452431.89999985695,A,lak,O,k,964,1,9978.5,442453.39999985695,7203,WL,B,15.0
3,51.38300013542175,learn,8616.999864578247,Tue Aug 26 2025 15:41:57 GMT-0500 (Central Daylight Time),452548.5,A,lake,O,e,108,1,10095.100000143051,442453.39999985695,7203,WL,B,15.0
3,52.16700005531311,learn,7832.99994468689,Tue Aug 26 2025 15:41:57 GMT-0500 (Central Daylight Time),453331.89999985695,A,lakeenter,O,enter,766,1,10878.5,442453.39999985695,7203,WL,B,15.0
4,0.9490001201629639,learn,59050.999879837036,Tue Aug 26 2025 15:41:57 GMT-0500 (Central Daylight Time),519710.0,A,c,O,c,938,1,948.4000000953674,518761.59999990463,7203,WL,B,1.0
4,1.183000087738037,learn,58816.99991226196,Tue Aug 26 2025 15:41:57 GMT-0500 (Central Daylight Time),519944.09999990463,A,cl,O,l,211,1,1182.5,518761.59999990463,7203,WL,B,1.0
4,1.3829998970031738,learn,58617.000102996826,Tue Aug 26 2025 15:41:57 GMT-0500 (Central Daylight Time),520144.0,A,clo,O,o,187,1,1382.4000000953674,518761.59999990463,7203,WL,B,1.0
4,1.5,learn,58500.0,Tue Aug 26 2025 15:41:57 GMT-0500 (Central Daylight Time),520260.89999985695,A,cloc,O,c,98,1,1499.2999999523163,518761.59999990463,7203,WL,B,1.0
4,1.6670000553131104,learn,58332.99994468689,Tue Aug 26 2025 15:41:57 GMT-0500 (Central Daylight Time),520427.2999999523,A,clock,O,k,148,1,1665.7000000476837,518761.59999990463,7203,WL,B,1.0
4,2.382999897003174,learn,57617.000102996826,Tue Aug 26 2025 15:41:57 GMT-0500 (Central Daylight Time),521143.2999999523,A,clockenter,O,enter,700,1,2381.7000000476837,518761.59999990463,7203,WL,B,1.0
4,3.2820000648498535,learn,56717.99993515015,Tue Aug 26 2025 15:41:57 GMT-0500 (Central Daylight Time),522042.7999999523,A,f,O,f,892,1,899.2000000476837,521143.59999990463,7203,WL,B,2.0
4,3.4830000400543213,learn,56516.99995994568,Tue Aug 26 2025 15:41:57 GMT-0500 (Central Daylight Time),522243.09999990463,A,fi,O,i,180,1,1099.5,521143.59999990463,7203,WL,B,2.0
4,3.5989999771118164,learn,56401.00002288818,Tue Aug 26 2025 15:41:57 GMT-0500 (Central Daylight Time),522360.0,A,fir,O,r,103,1,1216.4000000953674,521143.59999990463,7203,WL,B,2.0
4,3.8010001182556152,learn,56198.999881744385,Tue Aug 26 2025 15:41:57 GMT-0500 (Central Daylight Time),522561.09999990463,A,fire,O,e,179,1,1417.5,521143.59999990463,7203,WL,B,2.0
4,4.315000057220459,learn,55684.99994277954,Tue Aug 26 2025 15:41:57 GMT-0500 (Central Daylight Time),523075.19999980927,A,fireenter,O,enter,505,1,1931.5999999046326,521143.59999990463,7203,WL,B,2.0
4,4.881999969482422,learn,55118.00003051758,Tue Aug 26 2025 15:41:57 GMT-0500 (Central Daylight Time),523642.2999999523,A,s,O,s,547,1,566.9000000953674,523075.39999985695,7203,WL,B,3.0
4,5.398000001907349,learn,54601.99999809265,Tue Aug 26 2025 15:41:57 GMT-0500 (Central Daylight Time),524159.0,A,st,O,t,494,1,1083.6000001430511,523075.39999985695,7203,WL,B,3.0
4,5.549999952316284,learn,54450.000047683716,Tue Aug 26 2025 15:41:57 GMT-0500 (Central Daylight Time),524310.2999999523,A,sta,O,a,131,1,1234.9000000953674,523075.39999985695,7203,WL,B,3.0
4,5.700000047683716,learn,54299.999952316284,Tue Aug 26 2025 15:41:57 GMT-0500 (Central Daylight Time),524460.1999998093,A,star,O,r,129,1,1384.7999999523163,523075.39999985695,7203,WL,B,3.0
4,7.04800009727478,learn,52951.99990272522,Tue Aug 26 2025 15:41:57 GMT-0500 (Central Daylight Time),525808.5,A,starenter,O,enter,1329,1,2733.100000143051,523075.39999985695,7203,WL,B,3.0
4,8.530999898910522,learn,51469.00010108948,Tue Aug 26 2025 15:41:57 GMT-0500 (Central Daylight Time),527291.6999998093,A,w,O,w,1463,1,1482.8999998569489,525808.7999999523,7203,WL,B,4.0
4,8.666000127792358,learn,51333.99987220764,Tue Aug 26 2025 15:41:57 GMT-0500 (Central Daylight Time),527427.0,A,wi,O,i,121,1,1618.2000000476837,525808.7999999523,7203,WL,B,4.0
4,8.829999923706055,learn,51170.000076293945,Tue Aug 26 2025 15:41:57 GMT-0500 (Central Daylight Time),527590.6999998093,A,win,O,n,145,1,1781.8999998569489,525808.7999999523,7203,WL,B,4.0
4,8.914000034332275,learn,51085.999965667725,Tue Aug 26 2025 15:41:57 GMT-0500 (Central Daylight Time),527674.2999999523,A,wind,O,d,76,1,1865.5,525808.7999999523,7203,WL,B,4.0
4,9.115000009536743,learn,50884.99999046326,Tue Aug 26 2025 15:41:57 GMT-0500 (Central Daylight Time),527875.2999999523,A,windo,O,o,181,1,2066.5,525808.7999999523,7203,WL,B,4.0
4,9.280999898910522,learn,50719.00010108948,Tue Aug 26 2025 15:41:57 GMT-0500 (Central Daylight Time),528042.0,A,window,O,w,151,1,2233.2000000476837,525808.7999999523,7203,WL,B,4.0
4,10.095999956130981,learn,49904.00004386902,Tue Aug 26 2025 15:41:57 GMT-0500 (Central Daylight Time),528856.5,A,windowenter,O,enter,797,1,3047.7000000476837,525808.7999999523,7203,WL,B,4.0
4,11.130000114440918,learn,48869.99988555908,Tue Aug 26 2025 15:41:57 GMT-0500 (Central Daylight Time),529890.399999857,A,p,O,p,1014,1,1033.7000000476837,528856.6999998093,7203,WL,B,5.0
4,11.430000066757202,learn,48569.9999332428,Tue Aug 26 2025 15:41:57 GMT-0500 (Central Daylight Time),530190.5999999046,A,pu,O,u,285,1,1333.9000000953674,528856.6999998093,7203,WL,B,5.0
4,11.696000099182129,learn,48303.99990081787,Tue Aug 26 2025 15:41:57 GMT-0500 (Central Daylight Time),530456.7999999523,A,pup,O,p,245,1,1600.1000001430511,528856.6999998093,7203,WL,B,5.0
4,13.09500002861023,learn,46904.99997138977,Tue Aug 26 2025 15:41:57 GMT-0500 (Central Daylight Time),531855.7999999523,A,pupi,O,i,1376,1,2999.100000143051,528856.6999998093,7203,WL,B,5.0
4,13.312999963760376,learn,46687.000036239624,Tue Aug 26 2025 15:41:57 GMT-0500 (Central Daylight Time),532073.7999999523,A,pupil,O,l,202,1,3217.100000143051,528856.6999998093,7203,WL,B,5.0
4,13.595999956130981,learn,46404.00004386902,Tue Aug 26 2025 15:41:57 GMT-0500 (Central Daylight Time),532356.5999999046,A,pupilenter,O,enter,271,1,3499.9000000953674,528856.6999998093,7203,WL,B,5.0
4,14.128000020980835,learn,45871.999979019165,Tue Aug 26 2025 15:41:57 GMT-0500 (Central Daylight Time),532888.7999999523,A,a,O,a,519,1,532.0,532356.7999999523,7203,WL,B,6.0
4,14.29699993133545,learn,45703.00006866455,Tue Aug 26 2025 15:41:57 GMT-0500 (Central Daylight Time),533057.399999857,A,ar,O,r,158,1,700.5999999046326,532356.7999999523,7203,WL,B,6.0
4,14.63100004196167,learn,45368.99995803833,Tue Aug 26 2025 15:41:57 GMT-0500 (Central Daylight Time),533391.399999857,A,arn,O,n,312,1,1034.5999999046326,532356.7999999523,7203,WL,B,6.0
4,15.062000036239624,learn,44937.999963760376,Tue Aug 26 2025 15:41:57 GMT-0500 (Central Daylight Time),533822.5,A,ar,O,backspace,413,1,1465.7000000476837,532356.7999999523,7203,WL,B,6.0
4,15.395999908447266,learn,44604.000091552734,Tue Aug 26 2025 15:41:57 GMT-0500 (Central Daylight Time),534156.5,A,arm,O,m,315,1,1799.7000000476837,532356.7999999523,7203,WL,B,6.0
4,15.778000116348267,learn,44221.99988365173,Tue Aug 26 2025 15:41:57 GMT-0500 (Central Daylight Time),534539.0999999046,A,armenter,O,enter,362,1,2182.2999999523163,532356.7999999523,7203,WL,B,6.0
4,16.34500002861023,learn,43654.99997138977,Tue Aug 26 2025 15:41:57 GMT-0500 (Central Daylight Time),535106.2999999523,A,s,O,s,547,1,567.0,534539.2999999523,7203,WL,B,7.0
4,16.52900004386902,learn,43470.99995613098,Tue Aug 26 2025 15:41:57 GMT-0500 (Central Daylight Time),535289.5999999046,A,sk,O,k,161,1,750.2999999523163,534539.2999999523,7203,WL,B,7.0
4,16.746999979019165,learn,43253.000020980835,Tue Aug 26 2025 15:41:57 GMT-0500 (Central Daylight Time),535508.0,A,ski,O,i,196,1,968.7000000476837,534539.2999999523,7203,WL,B,7.0
4,16.861000061035156,learn,43138.999938964844,Tue Aug 26 2025 15:41:57 GMT-0500 (Central Daylight Time),535621.5,A,skin,O,n,97,1,1082.2000000476837,534539.2999999523,7203,WL,B,7.0
4,18.177000045776367,learn,41822.99995422363,Tue Aug 26 2025 15:41:57 GMT-0500 (Central Daylight Time),536938.399999857,A,skinenter,O,enter,1300,1,2399.0999999046326,534539.2999999523,7203,WL,B,7.0
4,19.30999994277954,learn,40690.00005722046,Tue Aug 26 2025 15:41:57 GMT-0500 (Central Daylight Time),538071.399999857,A,f,O,f,1122,1,1132.7999999523163,536938.5999999046,7203,WL,B,8.0
4,19.444999933242798,learn,40555.0000667572,Tue Aug 26 2025 15:41:57 GMT-0500 (Central Daylight Time),538206.0999999046,A,fi,O,i,125,1,1267.5,536938.5999999046,7203,WL,B,8.0
4,19.592000007629395,learn,40407.999992370605,Tue Aug 26 2025 15:41:57 GMT-0500 (Central Daylight Time),538353.399999857,A,fir,O,r,134,1,1414.7999999523163,536938.5999999046,7203,WL,B,8.0
4,19.759999990463257,learn,40240.00000953674,Tue Aug 26 2025 15:41:57 GMT-0500 (Central Daylight Time),538521.0,A,fire,O,e,150,1,1582.4000000953674,536938.5999999046,7203,WL,B,8.0
4,20.078999996185303,learn,39921.0000038147,Tue Aug 26 2025 15:41:57 GMT-0500 (Central Daylight Time),538839.6999998093,A,fireenter,O,enter,296,1,1901.0999999046326,536938.5999999046,7203,WL,B,8.0
4,21.926000118255615,learn,38073.999881744385,Tue Aug 26 2025 15:41:57 GMT-0500 (Central Daylight Time),540687.0,A,w,O,w,1837,1,1846.9000000953674,538840.0999999046,7203,WL,B,9.0
4,22.078999996185303,learn,37921.0000038147,Tue Aug 26 2025 15:41:57 GMT-0500 (Central Daylight Time),540840.0,A,wi,O,i,133,1,1999.9000000953674,538840.0999999046,7203,WL,B,9.0
4,22.64300012588501,learn,37356.99987411499,Tue Aug 26 2025 15:41:57 GMT-0500 (Central Daylight Time),541403.6999998093,A,w,O,backspace,548,1,2563.5999999046326,538840.0999999046,7203,WL,B,9.0
4,22.844000101089478,learn,37155.99989891052,Tue Aug 26 2025 15:41:57 GMT-0500 (Central Daylight Time),541604.6999998093,A,,O,backspace,196,1,2764.5999999046326,538840.0999999046,7203,WL,B,9.0
4,23.64199995994568,learn,36358.00004005432,Tue Aug 26 2025 15:41:57 GMT-0500 (Central Daylight Time),542403.0,A,c,O,c,781,1,3562.9000000953674,538840.0999999046,7203,WL,B,9.0
4,23.759000062942505,learn,36240.999937057495,Tue Aug 26 2025 15:41:57 GMT-0500 (Central Daylight Time),542520.2999999523,A,ca,O,a,100,1,3680.2000000476837,538840.0999999046,7203,WL,B,9.0
4,23.95900011062622,learn,36040.99988937378,Tue Aug 26 2025 15:41:57 GMT-0500 (Central Daylight Time),542719.899999857,A,cab,O,b,185,1,3879.7999999523163,538840.0999999046,7203,WL,B,9.0
4,24.16000008583069,learn,35839.99991416931,Tue Aug 26 2025 15:41:57 GMT-0500 (Central Daylight Time),542920.7999999523,A,cabi,O,i,191,1,4080.7000000476837,538840.0999999046,7203,WL,B,9.0
4,24.308000087738037,learn,35691.99991226196,Tue Aug 26 2025 15:41:57 GMT-0500 (Central Daylight Time),543069.5999999046,A,cabin,O,n,137,1,4229.5,538840.0999999046,7203,WL,B,9.0
4,24.70900011062622,learn,35290.99988937378,Tue Aug 26 2025 15:41:57 GMT-0500 (Central Daylight Time),543469.5999999046,A,cabinenter,O,enter,391,1,4629.5,538840.0999999046,7203,WL,B,9.0
4,25.460000038146973,learn,34539.99996185303,Tue Aug 26 2025 15:41:57 GMT-0500 (Central Daylight Time),544221.2999999523,A,l,O,l,746,1,751.5,543469.7999999523,7203,WL,B,10.0
4,25.676000118255615,learn,34323.999881744385,Tue Aug 26 2025 15:41:57 GMT-0500 (Central Daylight Time),544437.0,A,la,O,a,198,1,967.2000000476837,543469.7999999523,7203,WL,B,10.0
4,25.740999937057495,learn,34259.000062942505,Tue Aug 26 2025 15:41:57 GMT-0500 (Central Daylight Time),544502.0999999046,A,lak,O,k,44,1,1032.2999999523163,543469.7999999523,7203,WL,B,10.0
4,25.9760000705719,learn,34023.9999294281,Tue Aug 26 2025 15:41:57 GMT-0500 (Central Daylight Time),544737.399999857,A,lake,O,e,221,1,1267.5999999046326,543469.7999999523,7203,WL,B,10.0
4,26.47499990463257,learn,33525.00009536743,Tue Aug 26 2025 15:41:57 GMT-0500 (Central Daylight Time),545235.899999857,A,lakeenter,O,enter,483,1,1766.0999999046326,543469.7999999523,7203,WL,B,10.0
4,26.924999952316284,learn,33075.000047683716,Tue Aug 26 2025 15:41:57 GMT-0500 (Central Daylight Time),545686.1999998093,A,p,O,p,434,1,450.0,545236.1999998093,7203,WL,B,11.0
4,27.20900011062622,learn,32790.99988937378,Tue Aug 26 2025 15:41:57 GMT-0500 (Central Daylight Time),545970.0,A,pi,O,i,267,1,733.8000001907349,545236.1999998093,7203,WL,B,11.0
4,27.441999912261963,learn,32558.000087738037,Tue Aug 26 2025 15:41:57 GMT-0500 (Central Daylight Time),546203.0,A,pip,O,p,221,1,966.8000001907349,545236.1999998093,7203,WL,B,11.0
4,27.624000072479248,learn,32375.999927520752,Tue Aug 26 2025 15:41:57 GMT-0500 (Central Daylight Time),546385.2999999523,A,pipe,O,e,161,1,1149.1000001430511,545236.1999998093,7203,WL,B,11.0
4,28.640000104904175,learn,31359.999895095825,Tue Aug 26 2025 15:41:57 GMT-0500 (Central Daylight Time),547400.7999999523,A,pipeenter,O,enter,1008,1,2164.600000143051,545236.1999998093,7203,WL,B,11.0
4,29.723999977111816,learn,30276.000022888184,Tue Aug 26 2025 15:41:57 GMT-0500 (Central Daylight Time),548484.899999857,A,g,O,g,1069,1,1083.8999998569489,547401.0,7203,WL,B,12.0
4,29.877000093460083,learn,30122.999906539917,Tue Aug 26 2025 15:41:57 GMT-0500 (Central Daylight Time),548637.899999857,A,gr,O,r,131,1,1236.8999998569489,547401.0,7203,WL,B,12.0
4,29.990999937057495,learn,30009.000062942505,Tue Aug 26 2025 15:41:57 GMT-0500 (Central Daylight Time),548752.399999857,A,gra,O,a,102,1,1351.3999998569489,547401.0,7203,WL,B,12.0
4,30.322999954223633,learn,29677.000045776367,Tue Aug 26 2025 15:41:57 GMT-0500 (Central Daylight Time),549084.5,A,gras,O,s,322,1,1683.5,547401.0,7203,WL,B,12.0
4,30.473000049591064,learn,29526.999950408936,Tue Aug 26 2025 15:41:57 GMT-0500 (Central Daylight Time),549234.5,A,grass,O,s,130,1,1833.5,547401.0,7203,WL,B,12.0
4,30.907000064849854,learn,29092.999935150146,Tue Aug 26 2025 15:41:57 GMT-0500 (Central Daylight Time),549668.2999999523,A,grassenter,O,enter,416,1,2267.2999999523163,547401.0,7203,WL,B,12.0
4,31.29100012779236,learn,28708.99987220764,Tue Aug 26 2025 15:41:57 GMT-0500 (Central Daylight Time),550052.0,A,s,O,s,370,1,383.5,549668.5,7203,WL,B,13.0
4,31.556999921798706,learn,28443.000078201294,Tue Aug 26 2025 15:41:57 GMT-0500 (Central Daylight Time),550318.0,A,st,O,t,246,1,649.5,549668.5,7203,WL,B,13.0
4,31.957000017166138,learn,28042.999982833862,Tue Aug 26 2025 15:41:57 GMT-0500 (Central Daylight Time),550717.6999998093,A,str,O,r,381,1,1049.1999998092651,549668.5,7203,WL,B,13.0
4,32.20700001716614,learn,27792.999982833862,Tue Aug 26 2025 15:41:57 GMT-0500 (Central Daylight Time),550968.5999999046,A,stre,O,e,238,1,1300.0999999046326,549668.5,7203,WL,B,13.0
4,32.390000104904175,learn,27609.999895095825,Tue Aug 26 2025 15:41:57 GMT-0500 (Central Daylight Time),551150.7999999523,A,stree,O,e,162,1,1482.2999999523163,549668.5,7203,WL,B,13.0
4,32.58999991416931,learn,27410.00008583069,Tue Aug 26 2025 15:41:57 GMT-0500 (Central Daylight Time),551351.399999857,A,street,O,t,189,1,1682.8999998569489,549668.5,7203,WL,B,13.0
4,33.388999938964844,learn,26611.000061035156,Tue Aug 26 2025 15:41:57 GMT-0500 (Central Daylight Time),552150.399999857,A,streetenter,O,enter,781,1,2481.899999856949,549668.5,7203,WL,B,13.0
4,39.13800001144409,learn,20861.99998855591,Tue Aug 26 2025 15:41:57 GMT-0500 (Central Daylight Time),557899.0999999046,A,w,O,w,5728,1,5748.5,552150.5999999046,7203,WL,B,14.0
4,39.355000019073486,learn,20644.999980926514,Tue Aug 26 2025 15:41:57 GMT-0500 (Central Daylight Time),558116.2999999523,A,wi,O,i,210,1,5965.700000047684,552150.5999999046,7203,WL,B,14.0
4,39.53800010681152,learn,20461.999893188477,Tue Aug 26 2025 15:41:57 GMT-0500 (Central Daylight Time),558298.5999999046,A,wif,O,f,162,1,6148.0,552150.5999999046,7203,WL,B,14.0
4,39.8199999332428,learn,20180.000066757202,Tue Aug 26 2025 15:41:57 GMT-0500 (Central Daylight Time),558580.6999998093,A,wife,O,e,263,1,6430.099999904633,552150.5999999046,7203,WL,B,14.0
4,40.13599991798401,learn,19864.00008201599,Tue Aug 26 2025 15:41:57 GMT-0500 (Central Daylight Time),558897.0999999046,A,wifeenter,O,enter,297,1,6746.5,552150.5999999046,7203,WL,B,14.0
4,40.55399990081787,learn,19446.00009918213,Tue Aug 26 2025 15:41:57 GMT-0500 (Central Daylight Time),559315.1999998093,A,c,O,c,400,1,417.7999999523163,558897.399999857,7203,WL,B,15.0
4,40.80299997329712,learn,19197.00002670288,Tue Aug 26 2025 15:41:57 GMT-0500 (Central Daylight Time),559564.0999999046,A,ci,O,i,237,1,666.7000000476837,558897.399999857,7203,WL,B,15.0
4,41.020999908447266,learn,18979.000091552734,Tue Aug 26 2025 15:41:57 GMT-0500 (Central Daylight Time),559781.6999998093,A,cir,O,r,204,1,884.2999999523163,558897.399999857,7203,WL,B,15.0
4,41.63800001144409,learn,18361.99998855591,Tue Aug 26 2025 15:41:57 GMT-0500 (Central Daylight Time),560398.6999998093,A,ci,O,backspace,597,1,1501.2999999523163,558897.399999857,7203,WL,B,15.0
4,42.23699998855591,learn,17763.00001144409,Tue Aug 26 2025 15:41:57 GMT-0500 (Central Daylight Time),560998.0,A,cit,O,t,581,1,2100.600000143051,558897.399999857,7203,WL,B,15.0
4,42.587000131607056,learn,17412.999868392944,Tue Aug 26 2025 15:41:57 GMT-0500 (Central Daylight Time),561348.1999998093,A,city,O,y,337,1,2450.7999999523163,558897.399999857,7203,WL,B,15.0
4,43.01900005340576,learn,16980.99994659424,Tue Aug 26 2025 15:41:57 GMT-0500 (Central Daylight Time),561780.0999999046,A,cityenter,O,enter,415,1,2882.7000000476837,558897.399999857,7203,WL,B,15.0
5,0.749000072479248,learn,60000.0,Tue Aug 26 2025 15:41:57 GMT-0500 (Central Daylight Time),632174.7999999523,A,c,O,c,740,1,748.7000000476837,631426.0999999046,7203,WL,B,1.0
5,0.8980000019073486,learn,60000.0,Tue Aug 26 2025 15:41:57 GMT-0500 (Central Daylight Time),632323.5999999046,A,ca,O,a,140,1,897.5,631426.0999999046,7203,WL,B,1.0
5,1.1319999694824219,learn,60000.0,Tue Aug 26 2025 15:41:57 GMT-0500 (Central Daylight Time),632557.1999998093,A,cab,O,b,224,1,1131.0999999046326,631426.0999999046,7203,WL,B,1.0
5,1.2990000247955322,learn,60000.0,Tue Aug 26 2025 15:41:57 GMT-0500 (Central Daylight Time),632724.899999857,A,cabi,O,i,160,1,1298.7999999523163,631426.0999999046,7203,WL,B,1.0
5,1.4500000476837158,learn,60000.0,Tue Aug 26 2025 15:41:57 GMT-0500 (Central Daylight Time),632875.2999999523,A,cabin,O,n,128,1,1449.2000000476837,631426.0999999046,7203,WL,B,1.0
5,1.8659999370574951,learn,60000.0,Tue Aug 26 2025 15:41:57 GMT-0500 (Central Daylight Time),633291.2999999523,A,cabinenter,O,enter,402,1,1865.2000000476837,631426.0999999046,7203,WL,B,1.0
5,2.499000072479248,learn,60000.0,Tue Aug 26 2025 15:41:57 GMT-0500 (Central Daylight Time),633924.1999998093,A,l,O,l,618,1,632.5999999046326,633291.5999999046,7203,WL,B,2.0
5,2.634000062942505,learn,60000.0,Tue Aug 26 2025 15:41:57 GMT-0500 (Central Daylight Time),634059.7999999523,A,la,O,a,121,1,768.2000000476837,633291.5999999046,7203,WL,B,2.0
5,2.7649998664855957,learn,60000.0,Tue Aug 26 2025 15:41:57 GMT-0500 (Central Daylight Time),634190.5999999046,A,lak,O,k,121,1,899.0,633291.5999999046,7203,WL,B,2.0
5,2.931999921798706,learn,60000.0,Tue Aug 26 2025 15:41:57 GMT-0500 (Central Daylight Time),634357.899999857,A,lake,O,e,150,1,1066.2999999523163,633291.5999999046,7203,WL,B,2.0
5,3.6470000743865967,learn,60000.0,Tue Aug 26 2025 15:41:57 GMT-0500 (Central Daylight Time),635072.0,A,lakeenter,O,enter,700,1,1780.4000000953674,633291.5999999046,7203,WL,B,2.0
5,4.180999994277954,learn,60000.0,Tue Aug 26 2025 15:41:57 GMT-0500 (Central Daylight Time),635606.7999999523,A,w,O,w,526,1,534.6000001430511,635072.1999998093,7203,WL,B,3.0
5,4.365000009536743,learn,60000.0,Tue Aug 26 2025 15:41:57 GMT-0500 (Central Daylight Time),635790.0999999046,A,wi,O,i,169,1,717.9000000953674,635072.1999998093,7203,WL,B,3.0
5,4.54800009727478,learn,60000.0,Tue Aug 26 2025 15:41:57 GMT-0500 (Central Daylight Time),635973.5,A,win,O,n,171,1,901.3000001907349,635072.1999998093,7203,WL,B,3.0
5,4.664999961853027,learn,60000.0,Tue Aug 26 2025 15:41:57 GMT-0500 (Central Daylight Time),636090.0999999046,A,wind,O,d,111,1,1017.9000000953674,635072.1999998093,7203,WL,B,3.0
5,4.8480000495910645,learn,60000.0,Tue Aug 26 2025 15:41:57 GMT-0500 (Central Daylight Time),636273.5999999046,A,windo,O,o,161,1,1201.4000000953674,635072.1999998093,7203,WL,B,3.0
5,4.997999906539917,learn,60000.0,Tue Aug 26 2025 15:41:57 GMT-0500 (Central Daylight Time),636423.0999999046,A,window,O,w,137,1,1350.9000000953674,635072.1999998093,7203,WL,B,3.0
5,5.497999906539917,learn,60000.0,Tue Aug 26 2025 15:41:57 GMT-0500 (Central Daylight Time),636923.0999999046,A,windowenter,O,enter,477,1,1850.9000000953674,635072.1999998093,7203,WL,B,3.0
5,5.897000074386597,learn,60000.0,Tue Aug 26 2025 15:41:57 GMT-0500 (Central Daylight Time),637322.5999999046,A,g,O,g,385,1,399.2999999523163,636923.2999999523,7203,WL,B,4.0
5,6.013999938964844,learn,60000.0,Tue Aug 26 2025 15:41:57 GMT-0500 (Central Daylight Time),637439.2999999523,A,gr,O,r,102,1,516.0,636923.2999999523,7203,WL,B,4.0
5,6.148000001907349,learn,60000.0,Tue Aug 26 2025 15:41:57 GMT-0500 (Central Daylight Time),637573.6999998093,A,gra,O,a,123,1,650.3999998569489,636923.2999999523,7203,WL,B,4.0
5,6.364000082015991,learn,60000.0,Tue Aug 26 2025 15:41:57 GMT-0500 (Central Daylight Time),637789.0999999046,A,gras,O,s,204,1,865.7999999523163,636923.2999999523,7203,WL,B,4.0
5,6.5299999713897705,learn,60000.0,Tue Aug 26 2025 15:41:57 GMT-0500 (Central Daylight Time),637955.6999998093,A,grass,O,s,153,1,1032.3999998569489,636923.2999999523,7203,WL,B,4.0
5,7.0309998989105225,learn,60000.0,Tue Aug 26 2025 15:41:57 GMT-0500 (Central Daylight Time),638456.0999999046,A,grassenter,O,enter,474,1,1532.7999999523163,636923.2999999523,7203,WL,B,4.0
5,7.263999938964844,learn,60000.0,Tue Aug 26 2025 15:41:57 GMT-0500 (Central Daylight Time),638689.6999998093,A,s,O,s,220,1,233.39999985694885,638456.2999999523,7203,WL,B,5.0
5,7.496000051498413,learn,60000.0,Tue Aug 26 2025 15:41:57 GMT-0500 (Central Daylight Time),638921.899999857,A,st,O,t,211,1,465.59999990463257,638456.2999999523,7203,WL,B,5.0
5,7.815000057220459,learn,60000.0,Tue Aug 26 2025 15:41:57 GMT-0500 (Central Daylight Time),639240.6999998093,A,str,O,r,297,1,784.3999998569489,638456.2999999523,7203,WL,B,5.0
5,7.980000019073486,learn,60000.0,Tue Aug 26 2025 15:41:57 GMT-0500 (Central Daylight Time),639405.899999857,A,strr,O,r,144,1,949.5999999046326,638456.2999999523,7203,WL,B,5.0
5,8.11299991607666,learn,60000.0,Tue Aug 26 2025 15:41:57 GMT-0500 (Central Daylight Time),639538.5999999046,A,strre,O,e,114,1,1082.2999999523163,638456.2999999523,7203,WL,B,5.0
5,8.280999898910522,learn,60000.0,Tue Aug 26 2025 15:41:57 GMT-0500 (Central Daylight Time),639706.2999999523,A,strret,O,t,151,1,1250.0,638456.2999999523,7203,WL,B,5.0
5,8.645999908447266,learn,60000.0,Tue Aug 26 2025 15:41:57 GMT-0500 (Central Daylight Time),640071.6999998093,A,strre,O,backspace,352,1,1615.3999998569489,638456.2999999523,7203,WL,B,5.0
5,8.879999876022339,learn,60000.0,Tue Aug 26 2025 15:41:57 GMT-0500 (Central Daylight Time),640305.5,A,strr,O,backspace,213,1,1849.2000000476837,638456.2999999523,7203,WL,B,5.0
5,9.079999923706055,learn,60000.0,Tue Aug 26 2025 15:41:57 GMT-0500 (Central Daylight Time),640505.2999999523,A,str,O,backspace,178,1,2049.0,638456.2999999523,7203,WL,B,5.0
5,9.247999906539917,learn,60000.0,Tue Aug 26 2025 15:41:57 GMT-0500 (Central Daylight Time),640673.2999999523,A,stre,O,e,144,1,2217.0,638456.2999999523,7203,WL,B,5.0
5,9.444999933242798,learn,60000.0,Tue Aug 26 2025 15:41:57 GMT-0500 (Central Daylight Time),640871.0,A,stree,O,e,175,1,2414.7000000476837,638456.2999999523,7203,WL,B,5.0
5,9.662999868392944,learn,60000.0,Tue Aug 26 2025 15:41:57 GMT-0500 (Central Daylight Time),641088.399999857,A,street,O,t,198,1,2632.0999999046326,638456.2999999523,7203,WL,B,5.0
5,10.479000091552734,learn,60000.0,Tue Aug 26 2025 15:41:57 GMT-0500 (Central Daylight Time),641904.899999857,A,streetenter,O,enter,795,1,3448.5999999046326,638456.2999999523,7203,WL,B,5.0
5,10.812999963760376,learn,60000.0,Tue Aug 26 2025 15:41:57 GMT-0500 (Central Daylight Time),642238.5,A,a,O,a,315,1,333.40000009536743,641905.0999999046,7203,WL,B,6.0
5,10.996000051498413,learn,60000.0,Tue Aug 26 2025 15:41:57 GMT-0500 (Central Daylight Time),642421.5,A,ar,O,r,163,1,516.4000000953674,641905.0999999046,7203,WL,B,6.0
5,11.312999963760376,learn,60000.0,Tue Aug 26 2025 15:41:57 GMT-0500 (Central Daylight Time),642738.0999999046,A,arm,O,m,299,1,833.0,641905.0999999046,7203,WL,B,6.0
5,11.94599986076355,learn,60000.0,Tue Aug 26 2025 15:41:57 GMT-0500 (Central Daylight Time),643371.0,A,armenter,O,enter,616,1,1465.9000000953674,641905.0999999046,7203,WL,B,6.0
5,13.411999940872192,learn,60000.0,Tue Aug 26 2025 15:41:57 GMT-0500 (Central Daylight Time),644837.0999999046,A,f,O,f,1449,1,1465.7999999523163,643371.2999999523,7203,WL,B,7.0
5,13.595999956130981,learn,60000.0,Tue Aug 26 2025 15:41:57 GMT-0500 (Central Daylight Time),645021.2999999523,A,fi,O,i,167,1,1650.0,643371.2999999523,7203,WL,B,7.0
5,13.74399995803833,learn,60000.0,Tue Aug 26 2025 15:41:57 GMT-0500 (Central Daylight Time),645169.899999857,A,fir,O,r,141,1,1798.5999999046326,643371.2999999523,7203,WL,B,7.0
5,13.961999893188477,learn,60000.0,Tue Aug 26 2025 15:41:57 GMT-0500 (Central Daylight Time),645387.0999999046,A,fire,O,e,194,1,2015.7999999523163,643371.2999999523,7203,WL,B,7.0
5,14.16100001335144,learn,60000.0,Tue Aug 26 2025 15:41:57 GMT-0500 (Central Daylight Time),645586.7999999523,A,fireenter,O,enter,181,1,2215.5,643371.2999999523,7203,WL,B,7.0
5,14.510999917984009,learn,60000.0,Tue Aug 26 2025 15:41:57 GMT-0500 (Central Daylight Time),645936.399999857,A,s,O,s,329,1,349.2999999523163,645587.0999999046,7203,WL,B,8.0
5,14.76200008392334,learn,60000.0,Tue Aug 26 2025 15:41:57 GMT-0500 (Central Daylight Time),646187.399999857,A,st,O,t,228,1,600.2999999523163,645587.0999999046,7203,WL,B,8.0
5,14.82800006866455,learn,60000.0,Tue Aug 26 2025 15:41:57 GMT-0500 (Central Daylight Time),646253.1999998093,A,sta,O,a,54,1,666.0999999046326,645587.0999999046,7203,WL,B,8.0
5,15.010999917984009,learn,60000.0,Tue Aug 26 2025 15:41:57 GMT-0500 (Central Daylight Time),646436.399999857,A,star,O,r,172,1,849.2999999523163,645587.0999999046,7203,WL,B,8.0
5,15.727999925613403,learn,60000.0,Tue Aug 26 2025 15:41:57 GMT-0500 (Central Daylight Time),647153.1999998093,A,starenter,O,enter,700,1,1566.0999999046326,645587.0999999046,7203,WL,B,8.0
5,16.57699990272522,learn,60000.0,Tue Aug 26 2025 15:41:57 GMT-0500 (Central Daylight Time),648002.899999857,A,s,O,s,830,1,849.5,647153.399999857,7203,WL,B,9.0
5,16.74399995803833,learn,60000.0,Tue Aug 26 2025 15:41:57 GMT-0500 (Central Daylight Time),648169.899999857,A,sk,O,k,150,1,1016.5,647153.399999857,7203,WL,B,9.0
5,16.944999933242798,learn,60000.0,Tue Aug 26 2025 15:41:57 GMT-0500 (Central Daylight Time),648370.5999999046,A,ski,O,i,187,1,1217.2000000476837,647153.399999857,7203,WL,B,9.0
5,17.0939998626709,learn,60000.0,Tue Aug 26 2025 15:41:57 GMT-0500 (Central Daylight Time),648519.5,A,skin,O,n,135,1,1366.1000001430511,647153.399999857,7203,WL,B,9.0
5,17.80999994277954,learn,60000.0,Tue Aug 26 2025 15:41:57 GMT-0500 (Central Daylight Time),649235.7999999523,A,skinenter,O,enter,706,1,2082.4000000953674,647153.399999857,7203,WL,B,9.0
5,18.375999927520752,learn,60000.0,Tue Aug 26 2025 15:41:57 GMT-0500 (Central Daylight Time),649802.0,A,p,O,p,553,1,566.0,649236.0,7203,WL,B,10.0
5,18.675999879837036,learn,60000.0,Tue Aug 26 2025 15:41:57 GMT-0500 (Central Daylight Time),650101.899999857,A,pu,O,u,280,1,865.8999998569489,649236.0,7203,WL,B,10.0
5,18.875999927520752,learn,60000.0,Tue Aug 26 2025 15:41:57 GMT-0500 (Central Daylight Time),650301.899999857,A,pup,O,p,179,1,1065.8999998569489,649236.0,7203,WL,B,10.0
5,19.14299988746643,learn,60000.0,Tue Aug 26 2025 15:41:57 GMT-0500 (Central Daylight Time),650568.6999998093,A,pupi,O,i,248,1,1332.6999998092651,649236.0,7203,WL,B,10.0
5,19.359999895095825,learn,60000.0,Tue Aug 26 2025 15:41:57 GMT-0500 (Central Daylight Time),650785.1999998093,A,pupil,O,l,199,1,1549.1999998092651,649236.0,7203,WL,B,10.0
5,20.276999950408936,learn,60000.0,Tue Aug 26 2025 15:41:57 GMT-0500 (Central Daylight Time),651702.5,A,pupilenter,O,enter,904,1,2466.5,649236.0,7203,WL,B,10.0
5,24.22499990463257,learn,60000.0,Tue Aug 26 2025 15:41:57 GMT-0500 (Central Daylight Time),655650.7999999523,A,g,O,g,3928,1,3948.100000143051,651702.6999998093,7203,WL,B,11.0
5,24.35800004005432,learn,60000.0,Tue Aug 26 2025 15:41:57 GMT-0500 (Central Daylight Time),655783.399999857,A,gr,O,r,119,1,4080.7000000476837,651702.6999998093,7203,WL,B,11.0
5,24.507999897003174,learn,60000.0,Tue Aug 26 2025 15:41:57 GMT-0500 (Central Daylight Time),655933.399999857,A,gra,O,a,129,1,4230.700000047684,651702.6999998093,7203,WL,B,11.0
5,24.808000087738037,learn,60000.0,Tue Aug 26 2025 15:41:57 GMT-0500 (Central Daylight Time),656233.5999999046,A,gras,O,s,277,1,4530.900000095367,651702.6999998093,7203,WL,B,11.0
5,25.006999969482422,learn,60000.0,Tue Aug 26 2025 15:41:57 GMT-0500 (Central Daylight Time),656432.2999999523,A,grass,O,s,169,1,4729.600000143051,651702.6999998093,7203,WL,B,11.0
5,25.641000032424927,learn,60000.0,Tue Aug 26 2025 15:41:57 GMT-0500 (Central Daylight Time),657066.399999857,A,grassenter,O,enter,619,1,5363.700000047684,651702.6999998093,7203,WL,B,11.0
5,34.65599989891052,learn,60000.0,Tue Aug 26 2025 15:41:57 GMT-0500 (Central Daylight Time),666081.6999998093,A,a,O,a,9004,1,9015.0,657066.6999998093,7203,WL,B,12.0
5,34.90599989891052,learn,60000.0,Tue Aug 26 2025 15:41:57 GMT-0500 (Central Daylight Time),666332.0,A,ar,O,r,230,1,9265.300000190735,657066.6999998093,7203,WL,B,12.0
5,35.05399990081787,learn,60000.0,Tue Aug 26 2025 15:41:57 GMT-0500 (Central Daylight Time),666480.399999857,A,arm,O,m,136,1,9413.700000047684,657066.6999998093,7203,WL,B,12.0
5,35.605000019073486,learn,60000.0,Tue Aug 26 2025 15:41:57 GMT-0500 (Central Daylight Time),667030.5,A,ar,O,backspace,534,1,9963.800000190735,657066.6999998093,7203,WL,B,12.0
5,35.83699989318848,learn,60000.0,Tue Aug 26 2025 15:41:57 GMT-0500 (Central Daylight Time),667262.5999999046,A,a,O,backspace,212,1,10195.900000095367,657066.6999998093,7203,WL,B,12.0
5,36.03699994087219,learn,60000.0,Tue Aug 26 2025 15:41:57 GMT-0500 (Central Daylight Time),667462.899999857,A,,O,backspace,182,1,10396.200000047684,657066.6999998093,7203,WL,B,12.0
5,36.20300006866455,learn,60000.0,Tue Aug 26 2025 15:41:57 GMT-0500 (Central Daylight Time),667629.0999999046,A,,O,backspace,150,1,10562.400000095367,657066.6999998093,7203,WL,B,12.0
5,36.58699989318848,learn,60000.0,Tue Aug 26 2025 15:41:57 GMT-0500 (Central Daylight Time),668013.399999857,A,a,O,a,378,1,10946.700000047684,657066.6999998093,7203,WL,B,12.0
5,36.80399990081787,learn,60000.0,Tue Aug 26 2025 15:41:57 GMT-0500 (Central Daylight Time),668230.1999998093,A,ak,O,k,205,1,11163.5,657066.6999998093,7203,WL,B,12.0
5,36.98699998855591,learn,60000.0,Tue Aug 26 2025 15:41:57 GMT-0500 (Central Daylight Time),668413.399999857,A,aki,O,i,173,1,11346.700000047684,657066.6999998093,7203,WL,B,12.0
5,37.15400004386902,learn,60000.0,Tue Aug 26 2025 15:41:57 GMT-0500 (Central Daylight Time),668579.899999857,A,akin,O,n,150,1,11513.200000047684,657066.6999998093,7203,WL,B,12.0
5,37.72199988365173,learn,60000.0,Tue Aug 26 2025 15:41:57 GMT-0500 (Central Daylight Time),669147.6999998093,A,aki,O,backspace,545,1,12081.0,657066.6999998093,7203,WL,B,12.0
5,37.9539999961853,learn,60000.0,Tue Aug 26 2025 15:41:57 GMT-0500 (Central Daylight Time),669380.399999857,A,ak,O,backspace,212,1,12313.700000047684,657066.6999998093,7203,WL,B,12.0
5,38.13599991798401,learn,60000.0,Tue Aug 26 2025 15:41:57 GMT-0500 (Central Daylight Time),669562.1999998093,A,a,O,backspace,161,1,12495.5,657066.6999998093,7203,WL,B,12.0
5,38.454999923706055,learn,60000.0,Tue Aug 26 2025 15:41:57 GMT-0500 (Central Daylight Time),669880.7999999523,A,,O,backspace,299,1,12814.100000143051,657066.6999998093,7203,WL,B,12.0
5,38.82099986076355,learn,60000.0,Tue Aug 26 2025 15:41:57 GMT-0500 (Central Daylight Time),670246.6999998093,A,s,O,s,348,1,13180.0,657066.6999998093,7203,WL,B,12.0
5,39.104000091552734,learn,60000.0,Tue Aug 26 2025 15:41:57 GMT-0500 (Central Daylight Time),670529.5,A,sk,O,k,270,1,13462.800000190735,657066.6999998093,7203,WL,B,12.0
5,39.30299997329712,learn,60000.0,Tue Aug 26 2025 15:41:57 GMT-0500 (Central Daylight Time),670729.2999999523,A,ski,O,i,186,1,13662.600000143051,657066.6999998093,7203,WL,B,12.0
5,39.437000036239624,learn,60000.0,Tue Aug 26 2025 15:41:57 GMT-0500 (Central Daylight Time),670862.899999857,A,skin,O,n,115,1,13796.200000047684,657066.6999998093,7203,WL,B,12.0
5,39.8199999332428,learn,60000.0,Tue Aug 26 2025 15:41:57 GMT-0500 (Central Daylight Time),671245.899999857,A,skinenter,O,enter,373,1,14179.200000047684,657066.6999998093,7203,WL,B,12.0
5,54.21799993515015,learn,60000.0,Tue Aug 26 2025 15:41:57 GMT-0500 (Central Daylight Time),685643.6999998093,A,c,O,c,14392,1,14397.5,671246.1999998093,7203,WL,B,13.0
5,54.36500000953674,learn,60000.0,Tue Aug 26 2025 15:41:57 GMT-0500 (Central Daylight Time),685790.7999999523,A,ca,O,a,128,1,14544.600000143051,671246.1999998093,7203,WL,B,13.0
5,54.5460000038147,learn,60000.0,Tue Aug 26 2025 15:41:57 GMT-0500 (Central Daylight Time),685972.2999999523,A,cab,O,b,161,1,14726.100000143051,671246.1999998093,7203,WL,B,13.0
5,54.66599988937378,learn,60000.0,Tue Aug 26 2025 15:41:57 GMT-0500 (Central Daylight Time),686092.0,A,cabi,O,i,116,1,14845.800000190735,671246.1999998093,7203,WL,B,13.0
5,54.83200001716614,learn,60000.0,Tue Aug 26 2025 15:41:57 GMT-0500 (Central Daylight Time),686258.1999998093,A,cabin,O,n,145,1,15012.0,671246.1999998093,7203,WL,B,13.0
5,55.29800009727478,learn,60000.0,Tue Aug 26 2025 15:41:57 GMT-0500 (Central Daylight Time),686724.0,A,cabinenter,O,enter,449,1,15477.800000190735,671246.1999998093,7203,WL,B,13.0
5,56.680999994277954,learn,60000.0,Tue Aug 26 2025 15:41:57 GMT-0500 (Central Daylight Time),688107.1999998093,A,s,O,s,1378,1,1382.8999998569489,686724.2999999523,7203,WL,B,14.0
5,56.914000034332275,learn,60000.0,Tue Aug 26 2025 15:41:57 GMT-0500 (Central Daylight Time),688340.1999998093,A,st,O,t,217,1,1615.8999998569489,686724.2999999523,7203,WL,B,14.0
5,57.02999997138977,learn,60000.0,Tue Aug 26 2025 15:41:57 GMT-0500 (Central Daylight Time),688456.1999998093,A,sta,O,a,95,1,1731.8999998569489,686724.2999999523,7203,WL,B,14.0
5,57.180999994277954,learn,60000.0,Tue Aug 26 2025 15:41:57 GMT-0500 (Central Daylight Time),688607.0,A,star,O,r,130,1,1882.7000000476837,686724.2999999523,7203,WL,B,14.0
5,57.914000034332275,learn,60000.0,Tue Aug 26 2025 15:41:57 GMT-0500 (Central Daylight Time),689339.6999998093,A,starenter,O,enter,726,1,2615.399999856949,686724.2999999523,7203,WL,B,14.0
5,60.680999994277954,learn,60000.0,Tue Aug 26 2025 15:41:57 GMT-0500 (Central Daylight Time),692107.0999999046,A,c,O,c,2752,1,2767.2000000476837,689339.899999857,7203,WL,B,15.0
6,1.1989998817443848,distr,58801.000118255615,Tue Aug 26 2025 15:41:57 GMT-0500 (Central Daylight Time),758900.2999999523,B,c,O,c,1188,1,1198.9000000953674,757701.399999857,7203,WL,B,1.0
6,1.3339998722076416,distr,58666.00012779236,Tue Aug 26 2025 15:41:57 GMT-0500 (Central Daylight Time),759035.0,B,ce,O,e,118,1,1333.6000001430511,757701.399999857,7203,WL,B,1.0
6,1.5159997940063477,distr,58484.00020599365,Tue Aug 26 2025 15:41:57 GMT-0500 (Central Daylight Time),759217.2999999523,B,cel,O,l,165,1,1515.9000000953674,757701.399999857,7203,WL,B,1.0
6,1.7159998416900635,distr,58284.00015830994,Tue Aug 26 2025 15:41:57 GMT-0500 (Central Daylight Time),759417.5,B,cell,O,l,184,1,1716.1000001430511,757701.399999857,7203,WL,B,1.0
6,2.050999879837036,distr,57949.000120162964,Tue Aug 26 2025 15:41:57 GMT-0500 (Central Daylight Time),759752.1999998093,B,cellenter,O,enter,322,1,2050.7999999523163,757701.399999857,7203,WL,B,1.0
6,2.9179999828338623,distr,57082.00001716614,Tue Aug 26 2025 15:41:57 GMT-0500 (Central Daylight Time),760619.5,B,a,O,a,862,1,867.1000001430511,759752.399999857,7203,WL,B,2.0
6,3.0829999446868896,distr,56917.00005531311,Tue Aug 26 2025 15:41:57 GMT-0500 (Central Daylight Time),760784.0999999046,B,ar,O,r,150,1,1031.7000000476837,759752.399999857,7203,WL,B,2.0
6,3.3479998111724854,distr,56652.000188827515,Tue Aug 26 2025 15:41:57 GMT-0500 (Central Daylight Time),761049.6999998093,B,arn,O,n,244,1,1297.2999999523163,759752.399999857,7203,WL,B,2.0
6,4.081999778747559,distr,55918.00022125244,Tue Aug 26 2025 15:41:57 GMT-0500 (Central Daylight Time),761783.0,B,ar,O,backspace,709,1,2030.6000001430511,759752.399999857,7203,WL,B,2.0
6,4.348999977111816,distr,55651.00002288818,Tue Aug 26 2025 15:41:57 GMT-0500 (Central Daylight Time),762050.5999999046,B,arm,O,m,244,1,2298.2000000476837,759752.399999857,7203,WL,B,2.0
6,4.599999904632568,distr,55400.00009536743,Tue Aug 26 2025 15:41:57 GMT-0500 (Central Daylight Time),762301.0999999046,B,army,O,y,243,1,2548.7000000476837,759752.399999857,7203,WL,B,2.0
6,5.180999994277954,distr,54819.000005722046,Tue Aug 26 2025 15:41:57 GMT-0500 (Central Daylight Time),762882.7999999523,B,armyenter,O,enter,564,1,3130.4000000953674,759752.399999857,7203,WL,B,2.0
6,5.880999803543091,distr,54119.00019645691,Tue Aug 26 2025 15:41:57 GMT-0500 (Central Daylight Time),763582.2999999523,B,o,O,o,681,1,699.2999999523163,762883.0,7203,WL,B,3.0
6,5.997999906539917,distr,54002.00009346008,Tue Aug 26 2025 15:41:57 GMT-0500 (Central Daylight Time),763699.5999999046,B,oc,O,c,107,1,816.5999999046326,762883.0,7203,WL,B,3.0
6,6.097999811172485,distr,53902.000188827515,Tue Aug 26 2025 15:41:57 GMT-0500 (Central Daylight Time),763799.0,B,oca,O,a,86,1,916.0,762883.0,7203,WL,B,3.0
6,6.330999851226807,distr,53669.00014877319,Tue Aug 26 2025 15:41:57 GMT-0500 (Central Daylight Time),764032.1999998093,B,ocae,O,e,209,1,1149.1999998092651,762883.0,7203,WL,B,3.0
6,6.996999979019165,distr,53003.000020980835,Tue Aug 26 2025 15:41:57 GMT-0500 (Central Daylight Time),764698.5,B,oca,O,backspace,643,1,1815.5,762883.0,7203,WL,B,3.0
6,7.180999994277954,distr,52819.000005722046,Tue Aug 26 2025 15:41:57 GMT-0500 (Central Daylight Time),764882.0999999046,B,oc,O,backspace,166,1,1999.0999999046326,762883.0,7203,WL,B,3.0
6,7.247999906539917,distr,52752.00009346008,Tue Aug 26 2025 15:41:57 GMT-0500 (Central Daylight Time),764948.899999857,B,oce,O,e,53,1,2065.899999856949,762883.0,7203,WL,B,3.0
6,7.329999923706055,distr,52670.000076293945,Tue Aug 26 2025 15:41:57 GMT-0500 (Central Daylight Time),765031.6999998093,B,ocea,O,a,62,1,2148.699999809265,762883.0,7203,WL,B,3.0
6,7.581999778747559,distr,52418.00022125244,Tue Aug 26 2025 15:41:57 GMT-0500 (Central Daylight Time),765283.1999998093,B,ocean,O,n,228,1,2400.199999809265,762883.0,7203,WL,B,3.0
6,8.196999788284302,distr,51803.0002117157,Tue Aug 26 2025 15:41:57 GMT-0500 (Central Daylight Time),765898.5999999046,B,oceanenter,O,enter,607,1,3015.5999999046326,762883.0,7203,WL,B,3.0
6,8.79699993133545,distr,51203.00006866455,Tue Aug 26 2025 15:41:57 GMT-0500 (Central Daylight Time),766498.0,B,b,O,b,585,1,599.0,765899.0,7203,WL,B,4.0
6,8.997999906539917,distr,51002.00009346008,Tue Aug 26 2025 15:41:57 GMT-0500 (Central Daylight Time),766699.0,B,bu,O,u,183,1,800.0,765899.0,7203,WL,B,4.0
6,9.163999795913696,distr,50836.000204086304,Tue Aug 26 2025 15:41:57 GMT-0500 (Central Daylight Time),766865.6999998093,B,bui,O,i,151,1,966.6999998092651,765899.0,7203,WL,B,4.0
6,9.398000001907349,distr,50601.99999809265,Tue Aug 26 2025 15:41:57 GMT-0500 (Central Daylight Time),767099.0,B,buil,O,l,209,1,1200.0,765899.0,7203,WL,B,4.0
6,9.495999813079834,distr,50504.000186920166,Tue Aug 26 2025 15:41:57 GMT-0500 (Central Daylight Time),767197.6999998093,B,build,O,d,78,1,1298.6999998092651,765899.0,7203,WL,B,4.0
6,9.631999969482422,distr,50368.00003051758,Tue Aug 26 2025 15:41:57 GMT-0500 (Central Daylight Time),767333.0,B,buildi,O,i,114,1,1434.0,765899.0,7203,WL,B,4.0
6,9.79699993133545,distr,50203.00006866455,Tue Aug 26 2025 15:41:57 GMT-0500 (Central Daylight Time),767498.399999857,B,buildin,O,n,142,1,1599.3999998569489,765899.0,7203,WL,B,4.0
6,9.878999948501587,distr,50121.00005149841,Tue Aug 26 2025 15:41:57 GMT-0500 (Central Daylight Time),767580.7999999523,B,building,O,g,71,1,1681.7999999523163,765899.0,7203,WL,B,4.0
6,10.462999820709229,distr,49537.00017929077,Tue Aug 26 2025 15:41:57 GMT-0500 (Central Daylight Time),768164.399999857,B,buildingenter,O,enter,572,1,2265.399999856949,765899.0,7203,WL,B,4.0
6,14.394999980926514,distr,45605.000019073486,Tue Aug 26 2025 15:41:57 GMT-0500 (Central Daylight Time),772096.1999998093,B,b,O,b,3919,1,3931.5,768164.6999998093,7203,WL,B,5.0
6,14.561999797821045,distr,45438.000202178955,Tue Aug 26 2025 15:41:57 GMT-0500 (Central Daylight Time),772263.399999857,B,ba,O,a,143,1,4098.700000047684,768164.6999998093,7203,WL,B,5.0
6,14.643999814987183,distr,45356.00018501282,Tue Aug 26 2025 15:41:57 GMT-0500 (Central Daylight Time),772345.6999998093,B,bab,O,b,74,1,4181.0,768164.6999998093,7203,WL,B,5.0
6,14.912999868392944,distr,45087.000131607056,Tue Aug 26 2025 15:41:57 GMT-0500 (Central Daylight Time),772614.6999998093,B,baby,O,y,249,1,4450.0,768164.6999998093,7203,WL,B,5.0
6,15.527999877929688,distr,44472.00012207031,Tue Aug 26 2025 15:41:57 GMT-0500 (Central Daylight Time),773229.5,B,babyenter,O,enter,597,1,5064.800000190735,768164.6999998093,7203,WL,B,5.0
6,33.888999938964844,distr,26111.000061035156,Tue Aug 26 2025 15:41:57 GMT-0500 (Central Daylight Time),791590.5999999046,B,enter,O,enter,18343,1,18360.900000095367,773229.6999998093,7203,WL,B,6.0
6,36.05499982833862,distr,23945.000171661377,Tue Aug 26 2025 15:41:57 GMT-0500 (Central Daylight Time),793756.399999857,B,enter,O,enter,2148,1,2165.5,791590.899999857,7203,WL,B,7.0
6,36.72099995613098,distr,23279.00004386902,Tue Aug 26 2025 15:41:57 GMT-0500 (Central Daylight Time),794423.0,B,enter,O,enter,649,1,666.3000001907349,793756.6999998093,7203,WL,B,8.0
6,37.871999979019165,distr,22128.000020980835,Tue Aug 26 2025 15:41:57 GMT-0500 (Central Daylight Time),795573.7999999523,B,enter,O,enter,1134,1,1150.5,794423.2999999523,7203,WL,B,9.0
6,38.35499978065491,distr,21645.000219345093,Tue Aug 26 2025 15:41:57 GMT-0500 (Central Daylight Time),796056.5,B,enter,O,enter,471,1,482.40000009536743,795574.0999999046,7203,WL,B,10.0
6,38.90299987792969,distr,21097.000122070312,Tue Aug 26 2025 15:41:57 GMT-0500 (Central Daylight Time),796604.899999857,B,enter,O,enter,533,1,548.0,796056.899999857,7203,WL,B,11.0
6,39.58699989318848,distr,20413.000106811523,Tue Aug 26 2025 15:41:57 GMT-0500 (Central Daylight Time),797288.5999999046,B,enter,O,enter,671,1,683.4000000953674,796605.1999998093,7203,WL,B,12.0
6,41.30199980735779,distr,18698.000192642212,Tue Aug 26 2025 15:41:57 GMT-0500 (Central Daylight Time),799003.899999857,B,enter,O,enter,1700,1,1715.0,797288.899999857,7203,WL,B,13.0
6,42.27199983596802,distr,17728.000164031982,Tue Aug 26 2025 15:41:57 GMT-0500 (Central Daylight Time),799973.7999999523,B,enter,O,enter,948,1,969.6000001430511,799004.1999998093,7203,WL,B,14.0
6,43.30299997329712,distr,16697.00002670288,Tue Aug 26 2025 15:41:57 GMT-0500 (Central Daylight Time),801005.0999999046,B,enter,O,enter,1022,1,1031.0,799974.0999999046,7203,WL,B,15.0
7,1.0329999923706055,immed,58967.000007629395,Tue Aug 26 2025 15:41:57 GMT-0500 (Central Daylight Time),820964.899999857,A,c,O,c,1016,1,1032.8999998569489,819932.0,7203,WL,B,1.0
7,1.25,immed,58750.0,Tue Aug 26 2025 15:41:57 GMT-0500 (Central Daylight Time),821181.399999857,A,ci,O,i,197,1,1249.3999998569489,819932.0,7203,WL,B,1.0
7,1.4500000476837158,immed,58549.999952316284,Tue Aug 26 2025 15:41:57 GMT-0500 (Central Daylight Time),821381.6999998093,A,cit,O,t,182,1,1449.6999998092651,819932.0,7203,WL,B,1.0
7,1.5840001106262207,immed,58415.99988937378,Tue Aug 26 2025 15:41:57 GMT-0500 (Central Daylight Time),821515.6999998093,A,city,O,y,124,1,1583.6999998092651,819932.0,7203,WL,B,1.0
7,2.115000009536743,immed,57884.99999046326,Tue Aug 26 2025 15:41:57 GMT-0500 (Central Daylight Time),822047.1999998093,A,cityenter,O,enter,520,1,2115.199999809265,819932.0,7203,WL,B,1.0
7,2.7180001735687256,immed,57281.999826431274,Tue Aug 26 2025 15:41:57 GMT-0500 (Central Daylight Time),822649.7999999523,A,f,O,f,581,1,602.4000000953674,822047.399999857,7203,WL,B,2.0
7,2.9660000801086426,immed,57033.99991989136,Tue Aug 26 2025 15:41:57 GMT-0500 (Central Daylight Time),822897.5,A,fi,O,i,242,1,850.1000001430511,822047.399999857,7203,WL,B,2.0
7,3.0980000495910645,immed,56901.999950408936,Tue Aug 26 2025 15:41:57 GMT-0500 (Central Daylight Time),823030.2999999523,A,fir,O,r,124,1,982.9000000953674,822047.399999857,7203,WL,B,2.0
7,3.265000104904175,immed,56734.999895095825,Tue Aug 26 2025 15:41:57 GMT-0500 (Central Daylight Time),823197.0,A,fire,O,e,157,1,1149.6000001430511,822047.399999857,7203,WL,B,2.0
7,3.932000160217285,immed,56067.999839782715,Tue Aug 26 2025 15:41:57 GMT-0500 (Central Daylight Time),823864.0999999046,A,fireenter,O,enter,656,1,1816.7000000476837,822047.399999857,7203,WL,B,2.0
7,6.365000009536743,immed,53634.99999046326,Tue Aug 26 2025 15:41:57 GMT-0500 (Central Daylight Time),826297.1999998093,A,g,O,g,2419,1,2432.7999999523163,823864.399999857,7203,WL,B,3.0
7,6.515000104904175,immed,53484.999895095825,Tue Aug 26 2025 15:41:57 GMT-0500 (Central Daylight Time),826446.6999998093,A,gr,O,r,129,1,2582.2999999523163,823864.399999857,7203,WL,B,3.0
7,6.79800009727478,immed,53201.99990272522,Tue Aug 26 2025 15:41:57 GMT-0500 (Central Daylight Time),826729.2999999523,A,gra,O,a,267,1,2864.9000000953674,823864.399999857,7203,WL,B,3.0
7,7.04800009727478,immed,52951.99990272522,Tue Aug 26 2025 15:41:57 GMT-0500 (Central Daylight Time),826979.7999999523,A,gras,O,s,245,1,3115.4000000953674,823864.399999857,7203,WL,B,3.0
7,7.182000160217285,immed,52817.999839782715,Tue Aug 26 2025 15:41:57 GMT-0500 (Central Daylight Time),827114.0999999046,A,grass,O,s,121,1,3249.7000000476837,823864.399999857,7203,WL,B,3.0
7,7.5980000495910645,immed,52401.999950408936,Tue Aug 26 2025 15:41:57 GMT-0500 (Central Daylight Time),827529.5999999046,A,grassenter,O,enter,400,1,3665.2000000476837,823864.399999857,7203,WL,B,3.0
7,8.015000104904175,immed,51984.999895095825,Tue Aug 26 2025 15:41:57 GMT-0500 (Central Daylight Time),827946.7999999523,A,s,O,s,404,1,417.0,827529.7999999523,7203,WL,B,4.0
7,8.233000040054321,immed,51766.99995994568,Tue Aug 26 2025 15:41:57 GMT-0500 (Central Daylight Time),828164.1999998093,A,st,O,t,209,1,634.3999998569489,827529.7999999523,7203,WL,B,4.0
7,8.498000144958496,immed,51501.999855041504,Tue Aug 26 2025 15:41:57 GMT-0500 (Central Daylight Time),828430.1999998093,A,str,O,r,254,1,900.3999998569489,827529.7999999523,7203,WL,B,4.0
7,8.71399998664856,immed,51286.00001335144,Tue Aug 26 2025 15:41:57 GMT-0500 (Central Daylight Time),828645.899999857,A,stre,O,e,207,1,1116.0999999046326,827529.7999999523,7203,WL,B,4.0
7,8.849000215530396,immed,51150.999784469604,Tue Aug 26 2025 15:41:57 GMT-0500 (Central Daylight Time),828780.7999999523,A,stree,O,e,129,1,1251.0,827529.7999999523,7203,WL,B,4.0
7,9.19700002670288,immed,50802.99997329712,Tue Aug 26 2025 15:41:57 GMT-0500 (Central Daylight Time),829129.2999999523,A,street,O,t,336,1,1599.5,827529.7999999523,7203,WL,B,4.0
7,10.646000146865845,immed,49353.999853134155,Tue Aug 26 2025 15:41:57 GMT-0500 (Central Daylight Time),830577.899999857,A,streetenter,O,enter,1442,1,3048.0999999046326,827529.7999999523,7203,WL,B,4.0
7,11.28000020980835,immed,48719.99979019165,Tue Aug 26 2025 15:41:57 GMT-0500 (Central Daylight Time),831211.5999999046,A,w,O,w,628,1,633.4000000953674,830578.1999998093,7203,WL,B,5.0
7,11.513000011444092,immed,48486.99998855591,Tue Aug 26 2025 15:41:57 GMT-0500 (Central Daylight Time),831445.0,A,wi,O,i,228,1,866.8000001907349,830578.1999998093,7203,WL,B,5.0
7,11.699000120162964,immed,48300.999879837036,Tue Aug 26 2025 15:41:57 GMT-0500 (Central Daylight Time),831630.6999998093,A,win,O,n,163,1,1052.5,830578.1999998093,7203,WL,B,5.0
7,11.84600019454956,immed,48153.99980545044,Tue Aug 26 2025 15:41:57 GMT-0500 (Central Daylight Time),831777.6999998093,A,wind,O,d,126,1,1199.5,830578.1999998093,7203,WL,B,5.0
7,11.980000019073486,immed,48019.999980926514,Tue Aug 26 2025 15:41:57 GMT-0500 (Central Daylight Time),831912.1999998093,A,windo,O,o,111,1,1334.0,830578.1999998093,7203,WL,B,5.0
7,12.163000106811523,immed,47836.99989318848,Tue Aug 26 2025 15:41:57 GMT-0500 (Central Daylight Time),832095.0999999046,A,window,O,w,171,1,1516.9000000953674,830578.1999998093,7203,WL,B,5.0
7,12.879000186920166,immed,47120.999813079834,Tue Aug 26 2025 15:41:57 GMT-0500 (Central Daylight Time),832811.0,A,windowenter,O,enter,708,1,2232.800000190735,830578.1999998093,7203,WL,B,5.0
7,13.712000131607056,immed,46287.999868392944,Tue Aug 26 2025 15:41:57 GMT-0500 (Central Daylight Time),833643.7999999523,A,f,O,f,826,1,832.5,832811.2999999523,7203,WL,B,6.0
7,13.879000186920166,immed,46120.999813079834,Tue Aug 26 2025 15:41:57 GMT-0500 (Central Daylight Time),833810.6999998093,A,fi,O,i,154,1,999.3999998569489,832811.2999999523,7203,WL,B,6.0
7,13.995000123977661,immed,46004.99987602234,Tue Aug 26 2025 15:41:57 GMT-0500 (Central Daylight Time),833927.1999998093,A,fir,O,r,96,1,1115.8999998569489,832811.2999999523,7203,WL,B,6.0
7,14.146000146865845,immed,45853.999853134155,Tue Aug 26 2025 15:41:57 GMT-0500 (Central Daylight Time),834078.1999998093,A,fire,O,e,132,1,1266.8999998569489,832811.2999999523,7203,WL,B,6.0
7,14.361999988555908,immed,45638.00001144409,Tue Aug 26 2025 15:41:57 GMT-0500 (Central Daylight Time),834293.7999999523,A,fireenter,O,enter,204,1,1482.5,832811.2999999523,7203,WL,B,6.0
7,14.562000036239624,immed,45437.999963760376,Tue Aug 26 2025 15:41:57 GMT-0500 (Central Daylight Time),834493.6999998093,A,s,O,s,190,1,199.59999990463257,834294.0999999046,7203,WL,B,7.0
7,14.779000043869019,immed,45220.99995613098,Tue Aug 26 2025 15:41:57 GMT-0500 (Central Daylight Time),834710.5999999046,A,st,O,t,207,1,416.5,834294.0999999046,7203,WL,B,7.0
7,14.86300015449524,immed,45136.99984550476,Tue Aug 26 2025 15:41:57 GMT-0500 (Central Daylight Time),834794.2999999523,A,sta,O,a,77,1,500.2000000476837,834294.0999999046,7203,WL,B,7.0
7,15.013000011444092,immed,44986.99998855591,Tue Aug 26 2025 15:41:57 GMT-0500 (Central Daylight Time),834944.7999999523,A,star,O,r,128,1,650.7000000476837,834294.0999999046,7203,WL,B,7.0
7,15.677000045776367,immed,44322.99995422363,Tue Aug 26 2025 15:41:57 GMT-0500 (Central Daylight Time),835609.1999998093,A,starenter,O,enter,650,1,1315.0999999046326,834294.0999999046,7203,WL,B,7.0
7,18.243000030517578,immed,41756.99996948242,Tue Aug 26 2025 15:41:57 GMT-0500 (Central Daylight Time),838175.0999999046,A,p,O,p,2555,1,2565.5999999046326,835609.5,7203,WL,B,8.0
7,18.56000018119812,immed,41439.99981880188,Tue Aug 26 2025 15:41:57 GMT-0500 (Central Daylight Time),838491.6999998093,A,pu,O,u,307,1,2882.199999809265,835609.5,7203,WL,B,8.0
7,18.812000036239624,immed,41187.999963760376,Tue Aug 26 2025 15:41:57 GMT-0500 (Central Daylight Time),838744.0999999046,A,pup,O,p,231,1,3134.5999999046326,835609.5,7203,WL,B,8.0
7,19.094000101089478,immed,40905.99989891052,Tue Aug 26 2025 15:41:57 GMT-0500 (Central Daylight Time),839026.5,A,pupi,O,i,257,1,3417.0,835609.5,7203,WL,B,8.0
7,19.294000148773193,immed,40705.99985122681,Tue Aug 26 2025 15:41:57 GMT-0500 (Central Daylight Time),839225.6999998093,A,pupil,O,l,184,1,3616.199999809265,835609.5,7203,WL,B,8.0
7,19.860000133514404,immed,40139.999866485596,Tue Aug 26 2025 15:41:57 GMT-0500 (Central Daylight Time),839792.1999998093,A,pupilenter,O,enter,555,1,4182.699999809265,835609.5,7203,WL,B,8.0
7,22.110000133514404,immed,37889.999866485596,Tue Aug 26 2025 15:41:57 GMT-0500 (Central Daylight Time),842042.1999998093,A,s,O,s,2230,1,2249.7999999523163,839792.399999857,7203,WL,B,9.0
7,22.242000102996826,immed,37757.999897003174,Tue Aug 26 2025 15:41:57 GMT-0500 (Central Daylight Time),842174.399999857,A,sk,O,k,112,1,2382.0,839792.399999857,7203,WL,B,9.0
7,22.443000078201294,immed,37556.999921798706,Tue Aug 26 2025 15:41:57 GMT-0500 (Central Daylight Time),842375.5999999046,A,ski,O,i,188,1,2583.2000000476837,839792.399999857,7203,WL,B,9.0
7,22.5770001411438,immed,37422.9998588562,Tue Aug 26 2025 15:41:57 GMT-0500 (Central Daylight Time),842509.1999998093,A,skin,O,n,115,1,2716.7999999523163,839792.399999857,7203,WL,B,9.0
7,22.974000215530396,immed,37025.999784469604,Tue Aug 26 2025 15:41:57 GMT-0500 (Central Daylight Time),842906.0,A,skinenter,O,enter,388,1,3113.600000143051,839792.399999857,7203,WL,B,9.0
7,23.360000133514404,immed,36639.999866485596,Tue Aug 26 2025 15:41:57 GMT-0500 (Central Daylight Time),843291.899999857,A,a,O,a,370,1,385.59999990463257,842906.2999999523,7203,WL,B,10.0
7,23.526000022888184,immed,36473.99997711182,Tue Aug 26 2025 15:41:57 GMT-0500 (Central Daylight Time),843457.899999857,A,ar,O,r,153,1,551.5999999046326,842906.2999999523,7203,WL,B,10.0
7,23.825000047683716,immed,36174.999952316284,Tue Aug 26 2025 15:41:57 GMT-0500 (Central Daylight Time),843757.1999998093,A,arm,O,m,281,1,850.8999998569489,842906.2999999523,7203,WL,B,10.0
7,24.694000005722046,immed,35305.999994277954,Tue Aug 26 2025 15:41:57 GMT-0500 (Central Daylight Time),844626.0,A,armenter,O,enter,855,1,1719.7000000476837,842906.2999999523,7203,WL,B,10.0
7,28.192000150680542,immed,31807.999849319458,Tue Aug 26 2025 15:41:57 GMT-0500 (Central Daylight Time),848124.399999857,A,d,O,d,3494,1,3498.2000000476837,844626.1999998093,7203,WL,B,11.0
7,28.391000032424927,immed,31608.999967575073,Tue Aug 26 2025 15:41:57 GMT-0500 (Central Daylight Time),848323.5,A,do,O,o,177,1,3697.300000190735,844626.1999998093,7203,WL,B,11.0
7,28.575000047683716,immed,31424.999952316284,Tue Aug 26 2025 15:41:57 GMT-0500 (Central Daylight Time),848506.7999999523,A,doo,O,o,177,1,3880.600000143051,844626.1999998093,7203,WL,B,11.0
7,28.69000005722046,immed,31309.99994277954,Tue Aug 26 2025 15:41:57 GMT-0500 (Central Daylight Time),848621.7999999523,A,door,O,r,104,1,3995.600000143051,844626.1999998093,7203,WL,B,11.0
7,29.008000135421753,immed,30991.999864578247,Tue Aug 26 2025 15:41:57 GMT-0500 (Central Daylight Time),848940.0999999046,A,doorenter,O,enter,297,1,4313.900000095367,844626.1999998093,7203,WL,B,11.0
7,40.6710000038147,immed,19328.999996185303,Tue Aug 26 2025 15:41:57 GMT-0500 (Central Daylight Time),860603.0999999046,A,p,O,p,11640,1,11662.799999952316,848940.2999999523,7203,WL,B,12.0
7,40.97000002861023,immed,19029.99997138977,Tue Aug 26 2025 15:41:57 GMT-0500 (Central Daylight Time),860902.2999999523,A,pu,O,u,281,1,11962.0,848940.2999999523,7203,WL,B,12.0
7,41.2039999961853,immed,18796.000003814697,Tue Aug 26 2025 15:41:57 GMT-0500 (Central Daylight Time),861136.1999998093,A,pup,O,p,213,1,12195.899999856949,848940.2999999523,7203,WL,B,12.0
7,41.4539999961853,immed,18546.000003814697,Tue Aug 26 2025 15:41:57 GMT-0500 (Central Daylight Time),861386.399999857,A,pupi,O,i,233,1,12446.099999904633,848940.2999999523,7203,WL,B,12.0
7,41.68600010871887,immed,18313.999891281128,Tue Aug 26 2025 15:41:57 GMT-0500 (Central Daylight Time),861618.5,A,pupil,O,l,225,1,12678.200000047684,848940.2999999523,7203,WL,B,12.0
7,42.3030002117157,immed,17696.9997882843,Tue Aug 26 2025 15:41:57 GMT-0500 (Central Daylight Time),862234.7999999523,A,pupilenter,O,enter,604,1,13294.5,848940.2999999523,7203,WL,B,12.0
7,46.41900014877319,immed,13580.999851226807,Tue Aug 26 2025 15:41:57 GMT-0500 (Central Daylight Time),866351.1999998093,A,a,O,a,4099,1,4116.099999904633,862235.0999999046,7203,WL,B,13.0
7,46.93600010871887,immed,13063.999891281128,Tue Aug 26 2025 15:41:57 GMT-0500 (Central Daylight Time),866868.0999999046,A,,O,backspace,493,1,4633.0,862235.0999999046,7203,WL,B,13.0
7,47.086000204086304,immed,12913.999795913696,Tue Aug 26 2025 15:41:57 GMT-0500 (Central Daylight Time),867017.7999999523,A,s,O,s,127,1,4782.700000047684,862235.0999999046,7203,WL,B,13.0
7,47.80000019073486,immed,12199.999809265137,Tue Aug 26 2025 15:41:57 GMT-0500 (Central Daylight Time),867731.7999999523,A,sk,O,k,706,1,5496.700000047684,862235.0999999046,7203,WL,B,13.0
7,48.0,immed,12000.0,Tue Aug 26 2025 15:41:57 GMT-0500 (Central Daylight Time),867932.5999999046,A,ski,O,i,193,1,5697.5,862235.0999999046,7203,WL,B,13.0
7,48.11800003051758,immed,11881.999969482422,Tue Aug 26 2025 15:41:57 GMT-0500 (Central Daylight Time),868050.5999999046,A,skin,O,n,111,1,5815.5,862235.0999999046,7203,WL,B,13.0
7,48.93400001525879,immed,11065.999984741211,Tue Aug 26 2025 15:41:57 GMT-0500 (Central Daylight Time),868866.2999999523,A,skinenter,O,enter,794,1,6631.200000047684,862235.0999999046,7203,WL,B,13.0
7,60.01600003242493,immed,-16.000032424926758,Tue Aug 26 2025 15:41:57 GMT-0500 (Central Daylight Time),879948.5,A,None,O,None,11077,1,11082.0,868866.5,7203,WL,B,14.0
