acc_sum,block,block_c,change,condition,correct,correct_response,datetime,endtime,face,project,response,response_time,row_sel,session_number,start_end,starttime,subject_id,task,task_vers,trial
0,prac,1,,1-Back,,,Tue Mar 03 2026 11:11:27 GMT-0600 (Central Standard Time),,124_o_f_d_a.png,O,space,12744,1,1,,,7762,VNB,A,0
0,prac,1,0.0,1-Back,0.0,m,Tue Mar 03 2026 11:11:27 GMT-0600 (Central Standard Time),176212.30000007153,071_y_f_n_a.png,O,None,2009,2,1,2805.4000000953674,173406.89999997616,7762,VNB,A,1
0,prac,1,0.0,1-Back,0.0,m,Tue Mar 03 2026 11:11:27 GMT-0600 (Central Standard Time),179027.89999997616,165_m_m_h_a.png,O,None,2015,3,1,2809.399999976158,176218.5,7762,VNB,A,2
1,prac,1,0.0,1-Back,1.0,m,Tue Mar 03 2026 11:11:27 GMT-0600 (Central Standard Time),181544.0,109_y_m_d_a.png,O,m,1705,4,1,2509.899999976158,179034.10000002384,7762,VNB,A,3
1,prac,1,0.0,1-Back,0.0,m,Tue Mar 03 2026 11:11:27 GMT-0600 (Central Standard Time),184209.70000004768,124_o_f_n_a.png,O,z,1833,5,1,2658.100000023842,181551.60000002384,7762,VNB,A,4
2,prac,1,1.0,1-Back,1.0,z,Tue Mar 03 2026 11:11:27 GMT-0600 (Central Standard Time),186875.39999997616,109_y_m_n_a.png,O,z,1849,6,1,2659.1999999284744,184216.20000004768,7762,VNB,A,5
3,prac,1,0.0,1-Back,1.0,m,Tue Mar 03 2026 11:11:27 GMT-0600 (Central Standard Time),189224.80000007153,039_o_m_h_a.png,O,m,1552,7,1,2343.8000000715256,186881.0,7762,VNB,A,6
4,prac,1,0.0,1-Back,1.0,m,Tue Mar 03 2026 11:11:27 GMT-0600 (Central Standard Time),191607.5,139_m_f_d_a.png,O,m,1576,8,1,2375.899999976158,189231.60000002384,7762,VNB,A,7
5,prac,1,1.0,1-Back,1.0,z,Tue Mar 03 2026 11:11:27 GMT-0600 (Central Standard Time),194289.70000004768,071_y_f_d_a.png,O,z,1872,9,1,2674.2000000476837,191615.5,7762,VNB,A,8
6,prac,1,0.0,1-Back,1.0,m,Tue Mar 03 2026 11:11:27 GMT-0600 (Central Standard Time),196256.0,165_m_m_n_a.png,O,m,1166,10,1,1959.7999999523163,194296.20000004768,7762,VNB,A,9
7,prac,1,0.0,1-Back,1.0,m,Tue Mar 03 2026 11:11:27 GMT-0600 (Central Standard Time),198188.89999997616,124_o_f_h_a.png,O,m,1104,11,1,1927.0,196261.89999997616,7762,VNB,A,10
8,prac,1,0.0,1-Back,1.0,m,Tue Mar 03 2026 11:11:27 GMT-0600 (Central Standard Time),200088.30000007153,109_y_m_d_a.png,O,m,1126,12,1,1893.4000000953674,198194.89999997616,7762,VNB,A,11
0,test,1,0.0,1-Back,,,Tue Mar 03 2026 11:11:27 GMT-0600 (Central Standard Time),200088.30000007153,071_y_f_d_a.png,O,space,18202,1,1,1893.4000000953674,198194.89999997616,7762,VNB,A,0
1,test,1,0.0,1-Back,1.0,m,Tue Mar 03 2026 11:11:27 GMT-0600 (Central Standard Time),234243.80000007153,139_m_f_n_a.png,O,m,1280,2,1,2294.5,231949.30000007153,7762,VNB,A,1
2,test,1,0.0,1-Back,1.0,m,Tue Mar 03 2026 11:11:27 GMT-0600 (Central Standard Time),237092.89999997616,039_o_m_h_a.png,O,m,1821,3,1,2845.1999999284744,234247.70000004768,7762,VNB,A,2
3,test,1,1.0,1-Back,1.0,z,Tue Mar 03 2026 11:11:27 GMT-0600 (Central Standard Time),239359.0,165_m_m_h_a.png,O,z,1236,4,1,2261.899999976158,237097.10000002384,7762,VNB,A,3
4,test,1,0.0,1-Back,1.0,m,Tue Mar 03 2026 11:11:27 GMT-0600 (Central Standard Time),241591.60000002384,124_o_f_n_a.png,O,m,1208,5,1,2228.5,239363.10000002384,7762,VNB,A,4
5,test,1,0.0,1-Back,1.0,m,Tue Mar 03 2026 11:11:27 GMT-0600 (Central Standard Time),243924.10000002384,109_y_m_d_a.png,O,m,1305,6,1,2328.0,241596.10000002384,7762,VNB,A,5
5,test,1,1.0,1-Back,0.0,z,Tue Mar 03 2026 11:11:27 GMT-0600 (Central Standard Time),246290.0,139_m_f_d_a.png,O,m,1347,7,1,2362.0,243928.0,7762,VNB,A,6
5,test,1,0.0,1-Back,0.0,m,Tue Mar 03 2026 11:11:27 GMT-0600 (Central Standard Time),248689.30000007153,071_y_f_h_a.png,O,z,1366,8,1,2395.600000023842,246293.70000004768,7762,VNB,A,7
6,test,1,0.0,1-Back,1.0,m,Tue Mar 03 2026 11:11:27 GMT-0600 (Central Standard Time),251055.30000007153,039_o_m_n_a.png,O,m,1344,9,1,2362.100000023842,248693.20000004768,7762,VNB,A,8
7,test,1,0.0,1-Back,1.0,m,Tue Mar 03 2026 11:11:27 GMT-0600 (Central Standard Time),253288.10000002384,109_y_m_h_a.png,O,m,1201,10,1,2228.399999976158,251059.70000004768,7762,VNB,A,9
8,test,1,0.0,1-Back,1.0,m,Tue Mar 03 2026 11:11:27 GMT-0600 (Central Standard Time),255304.10000002384,039_o_m_d_a.png,O,m,992,11,1,2012.5,253291.60000002384,7762,VNB,A,10
9,test,1,1.0,1-Back,1.0,z,Tue Mar 03 2026 11:11:27 GMT-0600 (Central Standard Time),257486.80000007153,124_o_f_d_a.png,O,z,1153,12,1,2179.100000023842,255307.70000004768,7762,VNB,A,11
10,test,1,0.0,1-Back,1.0,m,Tue Mar 03 2026 11:11:27 GMT-0600 (Central Standard Time),259952.80000007153,165_m_m_n_a.png,O,m,1434,13,1,2462.0,257490.80000007153,7762,VNB,A,12
10,test,1,1.0,1-Back,0.0,z,Tue Mar 03 2026 11:11:27 GMT-0600 (Central Standard Time),262118.5,071_y_f_n_a.png,O,m,1136,14,1,2162.2999999523163,259956.20000004768,7762,VNB,A,13
11,test,1,0.0,1-Back,1.0,m,Tue Mar 03 2026 11:11:27 GMT-0600 (Central Standard Time),264534.60000002384,139_m_f_h_a.png,O,m,1395,15,1,2412.2999999523163,262122.30000007153,7762,VNB,A,14
11,test,1,0.0,1-Back,0.0,m,Tue Mar 03 2026 11:11:27 GMT-0600 (Central Standard Time),267567.10000002384,165_m_m_d_a.png,O,None,2016,16,1,3029.0,264538.10000002384,7762,VNB,A,15
12,test,1,0.0,1-Back,1.0,m,Tue Mar 03 2026 11:11:27 GMT-0600 (Central Standard Time),270199.3000000715,109_y_m_n_a.png,O,m,1602,17,1,2628.2000000476837,267571.10000002384,7762,VNB,A,16
13,test,1,0.0,1-Back,1.0,m,Tue Mar 03 2026 11:11:27 GMT-0600 (Central Standard Time),272732.3000000715,124_o_f_h_a.png,O,m,1505,18,1,2529.0,270203.3000000715,7762,VNB,A,17
0,test,2,0.0,1-Back,,,Tue Mar 03 2026 11:11:27 GMT-0600 (Central Standard Time),272732.3000000715,109_y_m_n_a.png,O,space,5828,1,1,2529.0,270203.3000000715,7762,VNB,A,0
0,test,2,0.0,1-Back,0.0,m,Tue Mar 03 2026 11:11:27 GMT-0600 (Central Standard Time),283646.2000000477,071_y_f_h_a.png,O,None,2009,2,1,3062.7000000476837,280583.5,7762,VNB,A,1
1,test,2,1.0,1-Back,1.0,m,Tue Mar 03 2026 11:11:27 GMT-0600 (Central Standard Time),286111.2000000477,039_o_m_n_a.png,O,m,1444,3,1,2460.899999976158,283650.3000000715,7762,VNB,A,2
2,test,2,0.0,1-Back,1.0,m,Tue Mar 03 2026 11:11:27 GMT-0600 (Central Standard Time),288626.60000002384,139_m_f_d_a.png,O,m,1498,4,1,2511.2999999523163,286115.3000000715,7762,VNB,A,3
2,test,2,0.0,1-Back,0.0,z,Tue Mar 03 2026 11:11:27 GMT-0600 (Central Standard Time),291459.7000000477,165_m_m_d_a.png,O,m,1805,5,1,2829.100000023842,288630.60000002384,7762,VNB,A,4
3,test,2,0.0,1-Back,1.0,m,Tue Mar 03 2026 11:11:27 GMT-0600 (Central Standard Time),293908.60000002384,109_y_m_h_a.png,O,m,1429,6,1,2444.600000023842,291464.0,7762,VNB,A,5
4,test,2,1.0,1-Back,1.0,z,Tue Mar 03 2026 11:11:27 GMT-0600 (Central Standard Time),295841.10000002384,124_o_f_h_a.png,O,z,916,7,1,1928.2999999523163,293912.8000000715,7762,VNB,A,6
5,test,2,0.0,1-Back,1.0,m,Tue Mar 03 2026 11:11:27 GMT-0600 (Central Standard Time),297757.3000000715,139_m_f_n_a.png,O,m,894,8,1,1912.2000000476837,295845.10000002384,7762,VNB,A,7
5,test,2,0.0,1-Back,0.0,m,Tue Mar 03 2026 11:11:27 GMT-0600 (Central Standard Time),300789.89999997616,071_y_f_d_a.png,O,None,2016,9,1,3027.7999999523163,297762.10000002384,7762,VNB,A,8
5,test,2,0.0,1-Back,0.0,m,Tue Mar 03 2026 11:11:27 GMT-0600 (Central Standard Time),303339.0,165_m_m_n_a.png,O,z,1523,10,1,2545.5,300793.5,7762,VNB,A,9
5,test,2,1.0,1-Back,0.0,m,Tue Mar 03 2026 11:11:27 GMT-0600 (Central Standard Time),306371.60000002384,139_m_f_h_a.png,O,None,2014,11,1,3027.899999976158,303343.7000000477,7762,VNB,A,10
6,test,2,0.0,1-Back,1.0,z,Tue Mar 03 2026 11:11:27 GMT-0600 (Central Standard Time),309004.2000000477,039_o_m_h_a.png,O,z,1606,12,1,2628.5,306375.7000000477,7762,VNB,A,11
7,test,2,0.0,1-Back,1.0,m,Tue Mar 03 2026 11:11:27 GMT-0600 (Central Standard Time),311736.39999997616,109_y_m_d_a.png,O,m,1708,13,1,2728.7999999523163,309007.60000002384,7762,VNB,A,12
8,test,2,0.0,1-Back,1.0,m,Tue Mar 03 2026 11:11:27 GMT-0600 (Central Standard Time),314618.89999997616,124_o_f_n_a.png,O,m,1856,14,1,2878.899999976158,311740.0,7762,VNB,A,13
9,test,2,0.0,1-Back,1.0,z,Tue Mar 03 2026 11:11:27 GMT-0600 (Central Standard Time),316984.8000000715,071_y_f_n_a.png,O,z,1341,15,1,2361.8000000715256,314623.0,7762,VNB,A,14
10,test,2,1.0,1-Back,1.0,m,Tue Mar 03 2026 11:11:27 GMT-0600 (Central Standard Time),319351.0,165_m_m_h_a.png,O,m,1337,16,1,2362.5,316988.5,7762,VNB,A,15
10,test,2,0.0,1-Back,0.0,m,Tue Mar 03 2026 11:11:27 GMT-0600 (Central Standard Time),321949.89999997616,124_o_f_d_a.png,O,z,1570,17,1,2594.5999999046326,319355.3000000715,7762,VNB,A,16
10,test,2,1.0,1-Back,0.0,z,Tue Mar 03 2026 11:11:27 GMT-0600 (Central Standard Time),324582.3000000715,039_o_m_d_a.png,O,m,1611,18,1,2628.3000000715256,321954.0,7762,VNB,A,17
0,test,3,1.0,1-Back,,,Tue Mar 03 2026 11:11:27 GMT-0600 (Central Standard Time),324582.3000000715,124_o_f_h_a.png,O,space,4747,1,1,2628.3000000715256,321954.0,7762,VNB,A,0
1,test,3,0.0,1-Back,1.0,m,Tue Mar 03 2026 11:11:27 GMT-0600 (Central Standard Time),333979.39999997616,139_m_f_d_a.png,O,m,1581,2,1,2595.0,331384.39999997616,7762,VNB,A,1
2,test,3,1.0,1-Back,1.0,m,Tue Mar 03 2026 11:11:27 GMT-0600 (Central Standard Time),336678.7000000477,165_m_m_n_a.png,O,m,1678,3,1,2695.7000000476837,333983.0,7762,VNB,A,2
3,test,3,0.0,1-Back,1.0,z,Tue Mar 03 2026 11:11:27 GMT-0600 (Central Standard Time),339111.2000000477,124_o_f_n_a.png,O,z,1411,4,1,2428.0,336683.2000000477,7762,VNB,A,3
4,test,3,1.0,1-Back,1.0,m,Tue Mar 03 2026 11:11:27 GMT-0600 (Central Standard Time),341260.60000002384,039_o_m_d_a.png,O,m,1130,5,1,2145.2999999523163,339115.3000000715,7762,VNB,A,4
5,test,3,0.0,1-Back,1.0,m,Tue Mar 03 2026 11:11:27 GMT-0600 (Central Standard Time),343393.39999997616,071_y_f_h_a.png,O,m,1116,6,1,2128.5,341264.89999997616,7762,VNB,A,5
6,test,3,0.0,1-Back,1.0,z,Tue Mar 03 2026 11:11:27 GMT-0600 (Central Standard Time),345659.10000002384,109_y_m_h_a.png,O,z,1240,7,1,2261.2999999523163,343397.8000000715,7762,VNB,A,6
7,test,3,0.0,1-Back,1.0,m,Tue Mar 03 2026 11:11:27 GMT-0600 (Central Standard Time),347843.10000002384,139_m_f_n_a.png,O,m,1157,8,1,2180.5,345662.60000002384,7762,VNB,A,7
8,test,3,0.0,1-Back,1.0,m,Tue Mar 03 2026 11:11:27 GMT-0600 (Central Standard Time),350407.8000000715,071_y_f_d_a.png,O,m,1535,9,1,2560.4000000953674,347847.39999997616,7762,VNB,A,8
9,test,3,1.0,1-Back,1.0,m,Tue Mar 03 2026 11:11:27 GMT-0600 (Central Standard Time),352540.10000002384,039_o_m_n_a.png,O,m,1113,10,1,2128.899999976158,350411.2000000477,7762,VNB,A,9
10,test,3,0.0,1-Back,1.0,m,Tue Mar 03 2026 11:11:27 GMT-0600 (Central Standard Time),354656.5,165_m_m_h_a.png,O,m,1093,11,1,2111.2999999523163,352545.2000000477,7762,VNB,A,10
11,test,3,0.0,1-Back,1.0,z,Tue Mar 03 2026 11:11:27 GMT-0600 (Central Standard Time),356822.3000000715,139_m_f_h_a.png,O,z,1136,12,1,2162.3000000715256,354660.0,7762,VNB,A,11
12,test,3,1.0,1-Back,1.0,m,Tue Mar 03 2026 11:11:27 GMT-0600 (Central Standard Time),358688.0,124_o_f_d_a.png,O,m,842,13,1,1862.0,356826.0,7762,VNB,A,12
13,test,3,0.0,1-Back,1.0,z,Tue Mar 03 2026 11:11:27 GMT-0600 (Central Standard Time),361420.7000000477,165_m_m_d_a.png,O,z,1713,14,1,2728.899999976158,358691.8000000715,7762,VNB,A,13
14,test,3,0.0,1-Back,1.0,m,Tue Mar 03 2026 11:11:27 GMT-0600 (Central Standard Time),363736.89999997616,109_y_m_n_a.png,O,m,1292,15,1,2311.6999999284744,361425.2000000477,7762,VNB,A,14
15,test,3,1.0,1-Back,1.0,m,Tue Mar 03 2026 11:11:27 GMT-0600 (Central Standard Time),366103.2000000477,039_o_m_h_a.png,O,m,1345,16,1,2362.2000000476837,363741.0,7762,VNB,A,15
16,test,3,0.0,1-Back,1.0,m,Tue Mar 03 2026 11:11:27 GMT-0600 (Central Standard Time),368268.60000002384,109_y_m_d_a.png,O,m,1138,17,1,2161.5,366107.10000002384,7762,VNB,A,16
17,test,3,1.0,1-Back,1.0,m,Tue Mar 03 2026 11:11:27 GMT-0600 (Central Standard Time),371200.89999997616,071_y_f_n_a.png,O,m,1909,18,1,2928.6999999284744,368272.2000000477,7762,VNB,A,17
0,test,4,1.0,1-Back,,,Tue Mar 03 2026 11:11:27 GMT-0600 (Central Standard Time),371200.89999997616,165_m_m_d_a.png,O,space,4271,1,1,2928.6999999284744,368272.2000000477,7762,VNB,A,0
1,test,4,0.0,1-Back,1.0,z,Tue Mar 03 2026 11:11:27 GMT-0600 (Central Standard Time),379399.7000000477,039_o_m_d_a.png,O,z,869,2,1,1896.3000000715256,377503.39999997616,7762,VNB,A,1
2,test,4,0.0,1-Back,1.0,m,Tue Mar 03 2026 11:11:27 GMT-0600 (Central Standard Time),381281.3000000715,109_y_m_h_a.png,O,m,859,3,1,1878.0,379403.3000000715,7762,VNB,A,2
3,test,4,0.0,1-Back,1.0,m,Tue Mar 03 2026 11:11:27 GMT-0600 (Central Standard Time),383697.0,139_m_f_n_a.png,O,m,1391,4,1,2411.6999999284744,381285.3000000715,7762,VNB,A,3
4,test,4,1.0,1-Back,1.0,m,Tue Mar 03 2026 11:11:27 GMT-0600 (Central Standard Time),385946.2000000477,124_o_f_h_a.png,O,m,1231,5,1,2245.2000000476837,383701.0,7762,VNB,A,4
5,test,4,0.0,1-Back,1.0,m,Tue Mar 03 2026 11:11:27 GMT-0600 (Central Standard Time),388395.60000002384,165_m_m_n_a.png,O,m,1422,6,1,2445.2999999523163,385950.3000000715,7762,VNB,A,5
6,test,4,0.0,1-Back,1.0,m,Tue Mar 03 2026 11:11:27 GMT-0600 (Central Standard Time),390561.5,109_y_m_d_a.png,O,m,1148,7,1,2161.899999976158,388399.60000002384,7762,VNB,A,6
7,test,4,1.0,1-Back,1.0,z,Tue Mar 03 2026 11:11:27 GMT-0600 (Central Standard Time),393044.10000002384,071_y_f_d_a.png,O,z,1455,8,1,2479.100000023842,390565.0,7762,VNB,A,7
8,test,4,0.0,1-Back,1.0,m,Tue Mar 03 2026 11:11:27 GMT-0600 (Central Standard Time),395226.7000000477,139_m_f_h_a.png,O,m,1165,9,1,2178.100000023842,393048.60000002384,7762,VNB,A,8
9,test,4,0.0,1-Back,1.0,z,Tue Mar 03 2026 11:11:27 GMT-0600 (Central Standard Time),397559.60000002384,039_o_m_h_a.png,O,z,1302,10,1,2327.7999999523163,395231.8000000715,7762,VNB,A,9
10,test,4,1.0,1-Back,1.0,m,Tue Mar 03 2026 11:11:27 GMT-0600 (Central Standard Time),399375.3000000715,124_o_f_n_a.png,O,m,786,11,1,1810.1000000238419,397565.2000000477,7762,VNB,A,10
11,test,4,0.0,1-Back,1.0,m,Tue Mar 03 2026 11:11:27 GMT-0600 (Central Standard Time),401541.8000000715,139_m_f_d_a.png,O,m,1145,12,1,2162.7000000476837,399379.10000002384,7762,VNB,A,11
12,test,4,0.0,1-Back,1.0,m,Tue Mar 03 2026 11:11:27 GMT-0600 (Central Standard Time),404024.3000000715,071_y_f_n_a.png,O,m,1459,13,1,2478.9000000953674,401545.39999997616,7762,VNB,A,12
13,test,4,0.0,1-Back,1.0,m,Tue Mar 03 2026 11:11:27 GMT-0600 (Central Standard Time),406223.60000002384,124_o_f_d_a.png,O,m,1168,14,1,2196.100000023842,404027.5,7762,VNB,A,13
14,test,4,0.0,1-Back,1.0,m,Tue Mar 03 2026 11:11:27 GMT-0600 (Central Standard Time),408356.2000000477,071_y_f_h_a.png,O,m,1103,15,1,2129.2000000476837,406227.0,7762,VNB,A,14
15,test,4,1.0,1-Back,1.0,z,Tue Mar 03 2026 11:11:27 GMT-0600 (Central Standard Time),410772.2000000477,165_m_m_h_a.png,O,z,1388,16,1,2411.5,408360.7000000477,7762,VNB,A,15
16,test,4,0.0,1-Back,1.0,m,Tue Mar 03 2026 11:11:27 GMT-0600 (Central Standard Time),412706.0,039_o_m_n_a.png,O,m,909,17,1,1929.5,410776.5,7762,VNB,A,16
17,test,4,1.0,1-Back,1.0,z,Tue Mar 03 2026 11:11:27 GMT-0600 (Central Standard Time),415070.5,109_y_m_n_a.png,O,z,1337,18,1,2360.5,412710.0,7762,VNB,A,17
0,test,5,1.0,1-Back,,,Tue Mar 03 2026 11:11:27 GMT-0600 (Central Standard Time),415070.5,039_o_m_n_a.png,O,space,2595,1,1,2360.5,412710.0,7762,VNB,A,0
1,test,5,1.0,1-Back,1.0,m,Tue Mar 03 2026 11:11:27 GMT-0600 (Central Standard Time),422034.89999997616,124_o_f_h_a.png,O,m,1331,2,1,2341.7999999523163,419693.10000002384,7762,VNB,A,1
2,test,5,0.0,1-Back,1.0,m,Tue Mar 03 2026 11:11:27 GMT-0600 (Central Standard Time),425001.10000002384,109_y_m_d_a.png,O,m,1815,3,1,2962.600000023842,422038.5,7762,VNB,A,2
3,test,5,0.0,1-Back,1.0,z,Tue Mar 03 2026 11:11:27 GMT-0600 (Central Standard Time),427083.5,039_o_m_d_a.png,O,z,1055,4,1,2078.1999999284744,425005.3000000715,7762,VNB,A,3
4,test,5,0.0,1-Back,1.0,m,Tue Mar 03 2026 11:11:27 GMT-0600 (Central Standard Time),429366.10000002384,139_m_f_h_a.png,O,m,1253,5,1,2277.5,427088.60000002384,7762,VNB,A,4
5,test,5,0.0,1-Back,1.0,m,Tue Mar 03 2026 11:11:27 GMT-0600 (Central Standard Time),431248.89999997616,071_y_f_n_a.png,O,m,858,6,1,1879.5999999046326,429369.3000000715,7762,VNB,A,5
6,test,5,1.0,1-Back,1.0,z,Tue Mar 03 2026 11:11:27 GMT-0600 (Central Standard Time),433465.10000002384,124_o_f_n_a.png,O,z,1192,7,1,2212.100000023842,431253.0,7762,VNB,A,6
7,test,5,0.0,1-Back,1.0,m,Tue Mar 03 2026 11:11:27 GMT-0600 (Central Standard Time),435497.7000000477,139_m_f_d_a.png,O,m,1007,8,1,2028.7000000476837,433469.0,7762,VNB,A,7
8,test,5,0.0,1-Back,1.0,m,Tue Mar 03 2026 11:11:27 GMT-0600 (Central Standard Time),437646.8000000715,109_y_m_h_a.png,O,m,1118,9,1,2145.0,435501.8000000715,7762,VNB,A,8
9,test,5,0.0,1-Back,1.0,m,Tue Mar 03 2026 11:11:27 GMT-0600 (Central Standard Time),440046.3000000715,071_y_f_d_a.png,O,m,1371,10,1,2395.3000000715256,437651.0,7762,VNB,A,9
10,test,5,0.0,1-Back,1.0,m,Tue Mar 03 2026 11:11:27 GMT-0600 (Central Standard Time),442728.7000000477,165_m_m_n_a.png,O,m,1650,11,1,2679.0,440049.7000000477,7762,VNB,A,10
11,test,5,1.0,1-Back,1.0,z,Tue Mar 03 2026 11:11:27 GMT-0600 (Central Standard Time),444862.3000000715,139_m_f_n_a.png,O,z,1112,12,1,2129.5,442732.8000000715,7762,VNB,A,11
12,test,5,0.0,1-Back,1.0,m,Tue Mar 03 2026 11:11:27 GMT-0600 (Central Standard Time),446775.5,039_o_m_h_a.png,O,m,897,13,1,1908.8999999761581,444866.60000002384,7762,VNB,A,12
13,test,5,0.0,1-Back,1.0,z,Tue Mar 03 2026 11:11:27 GMT-0600 (Central Standard Time),449043.5,165_m_m_h_a.png,O,z,1239,14,1,2264.0,446779.5,7762,VNB,A,13
14,test,5,1.0,1-Back,1.0,m,Tue Mar 03 2026 11:11:27 GMT-0600 (Central Standard Time),450892.5,124_o_f_d_a.png,O,m,830,15,1,1845.6000000238419,449046.89999997616,7762,VNB,A,14
15,test,5,0.0,1-Back,1.0,m,Tue Mar 03 2026 11:11:27 GMT-0600 (Central Standard Time),452958.5,109_y_m_n_a.png,O,m,1036,16,1,2062.2999999523163,450896.2000000477,7762,VNB,A,15
16,test,5,0.0,1-Back,1.0,m,Tue Mar 03 2026 11:11:27 GMT-0600 (Central Standard Time),455374.7000000477,071_y_f_h_a.png,O,m,1394,17,1,2412.899999976158,452961.8000000715,7762,VNB,A,16
17,test,5,0.0,1-Back,1.0,m,Tue Mar 03 2026 11:11:27 GMT-0600 (Central Standard Time),457374.2000000477,165_m_m_d_a.png,O,m,979,18,1,1995.3000000715256,455378.89999997616,7762,VNB,A,17
0,prac,1,0.0,2-Back,,,Tue Mar 03 2026 11:11:27 GMT-0600 (Central Standard Time),457374.2000000477,139_m_f_n_a.png,O,space,9015,1,1,1995.3000000715256,455378.89999997616,7762,VNB,A,0
0,prac,1,0.0,2-Back,,,Tue Mar 03 2026 11:11:27 GMT-0600 (Central Standard Time),457374.2000000477,124_o_f_h_a.png,O,space,9015,2,1,1995.3000000715256,455378.89999997616,7762,VNB,A,0
1,prac,1,0.0,2-Back,1.0,m,Tue Mar 03 2026 11:11:27 GMT-0600 (Central Standard Time),630819.8000000715,039_o_m_d_a.png,O,m,1656,3,1,2457.600000023842,628362.2000000477,7762,VNB,A,1
2,prac,1,1.0,2-Back,1.0,z,Tue Mar 03 2026 11:11:27 GMT-0600 (Central Standard Time),633385.8999999762,165_m_m_h_a.png,O,z,1765,4,1,2560.899999976158,630825.0,7762,VNB,A,2
3,prac,1,0.0,2-Back,1.0,m,Tue Mar 03 2026 11:11:27 GMT-0600 (Central Standard Time),635702.8999999762,071_y_f_n_a.png,O,m,1502,5,1,2311.1999999284744,633391.7000000477,7762,VNB,A,3
4,prac,1,1.0,2-Back,1.0,z,Tue Mar 03 2026 11:11:27 GMT-0600 (Central Standard Time),637951.1000000238,039_o_m_h_a.png,O,z,1434,6,1,2242.600000023842,635708.5,7762,VNB,A,4
5,prac,1,1.0,2-Back,1.0,z,Tue Mar 03 2026 11:11:27 GMT-0600 (Central Standard Time),640383.8000000715,109_y_m_n_a.png,O,z,1619,7,1,2426.2000000476837,637957.6000000238,7762,VNB,A,5
6,prac,1,0.0,2-Back,1.0,m,Tue Mar 03 2026 11:11:27 GMT-0600 (Central Standard Time),642799.6000000238,139_m_f_d_a.png,O,m,1611,8,1,2410.7999999523163,640388.8000000715,7762,VNB,A,6
6,prac,1,0.0,2-Back,0.0,m,Tue Mar 03 2026 11:11:27 GMT-0600 (Central Standard Time),645631.8999999762,124_o_f_d_a.png,O,None,2003,9,1,2826.5999999046326,642805.3000000715,7762,VNB,A,7
7,prac,1,0.0,2-Back,1.0,m,Tue Mar 03 2026 11:11:27 GMT-0600 (Central Standard Time),648281.3000000715,165_m_m_h_a.png,O,m,1868,10,1,2643.7000000476837,645637.6000000238,7762,VNB,A,8
7,prac,1,1.0,2-Back,0.0,z,Tue Mar 03 2026 11:11:27 GMT-0600 (Central Standard Time),651063.7000000477,071_y_f_d_a.png,O,m,1978,11,1,2776.3000000715256,648287.3999999762,7762,VNB,A,9
7,prac,1,0.0,2-Back,0.0,m,Tue Mar 03 2026 11:11:27 GMT-0600 (Central Standard Time),653862.8000000715,039_o_m_n_a.png,O,None,2001,12,1,2792.9000000953674,651069.8999999762,7762,VNB,A,10
0,test,1,0.0,2-Back,,,Tue Mar 03 2026 11:11:27 GMT-0600 (Central Standard Time),653862.8000000715,109_y_m_h_a.png,O,space,8902,1,1,2792.9000000953674,651069.8999999762,7762,VNB,A,0
0,test,1,0.0,2-Back,,,Tue Mar 03 2026 11:11:27 GMT-0600 (Central Standard Time),653862.8000000715,124_o_f_n_a.png,O,space,8902,2,1,2792.9000000953674,651069.8999999762,7762,VNB,A,0
0,test,1,0.0,2-Back,0.0,z,Tue Mar 03 2026 11:11:27 GMT-0600 (Central Standard Time),689251.7000000477,039_o_m_h_a.png,O,m,1063,3,1,2078.5,687173.2000000477,7762,VNB,A,1
0,test,1,0.0,2-Back,0.0,m,Tue Mar 03 2026 11:11:27 GMT-0600 (Central Standard Time),692284.1000000238,139_m_f_d_a.png,O,None,2016,4,1,3029.100000023842,689255.0,7762,VNB,A,2
0,test,1,1.0,2-Back,0.0,m,Tue Mar 03 2026 11:11:27 GMT-0600 (Central Standard Time),695316.2000000477,109_y_m_n_a.png,O,None,2015,5,1,3028.8000000715256,692287.3999999762,7762,VNB,A,3
0,test,1,0.0,2-Back,0.0,z,Tue Mar 03 2026 11:11:27 GMT-0600 (Central Standard Time),697682.3000000715,071_y_f_d_a.png,O,m,1348,6,1,2361.9000000953674,695320.3999999762,7762,VNB,A,4
0,test,1,0.0,2-Back,0.0,m,Tue Mar 03 2026 11:11:27 GMT-0600 (Central Standard Time),700114.6000000238,165_m_m_h_a.png,O,z,1415,7,1,2428.5,697686.1000000238,7762,VNB,A,5
0,test,1,1.0,2-Back,0.0,m,Tue Mar 03 2026 11:11:27 GMT-0600 (Central Standard Time),703147.1000000238,071_y_f_n_a.png,O,None,2016,8,1,3028.7999999523163,700118.3000000715,7762,VNB,A,6
0,test,1,0.0,2-Back,0.0,z,Tue Mar 03 2026 11:11:27 GMT-0600 (Central Standard Time),705579.8999999762,124_o_f_h_a.png,O,m,1414,9,1,2429.0999999046326,703150.8000000715,7762,VNB,A,7
1,test,1,0.0,2-Back,1.0,m,Tue Mar 03 2026 11:11:27 GMT-0600 (Central Standard Time),708545.3999999762,039_o_m_d_a.png,O,m,1941,10,1,2962.0,705583.3999999762,7762,VNB,A,8
1,test,1,1.0,2-Back,0.0,m,Tue Mar 03 2026 11:11:27 GMT-0600 (Central Standard Time),711577.8999999762,165_m_m_d_a.png,O,None,2016,11,1,3028.7999999523163,708549.1000000238,7762,VNB,A,9
2,test,1,0.0,2-Back,1.0,m,Tue Mar 03 2026 11:11:27 GMT-0600 (Central Standard Time),714527.2000000477,139_m_f_n_a.png,O,m,1927,12,1,2945.399999976158,711581.8000000715,7762,VNB,A,10
3,test,1,0.0,2-Back,1.0,m,Tue Mar 03 2026 11:11:27 GMT-0600 (Central Standard Time),717193.3000000715,071_y_f_h_a.png,O,m,1634,13,1,2662.7000000476837,714530.6000000238,7762,VNB,A,11
4,test,1,0.0,2-Back,1.0,z,Tue Mar 03 2026 11:11:27 GMT-0600 (Central Standard Time),719442.8000000715,165_m_m_n_a.png,O,z,1225,14,1,2245.2000000476837,717197.6000000238,7762,VNB,A,12
5,test,1,0.0,2-Back,1.0,m,Tue Mar 03 2026 11:11:27 GMT-0600 (Central Standard Time),722191.3000000715,109_y_m_d_a.png,O,m,1727,15,1,2744.600000023842,719446.7000000477,7762,VNB,A,13
6,test,1,1.0,2-Back,1.0,m,Tue Mar 03 2026 11:11:27 GMT-0600 (Central Standard Time),725007.2000000477,139_m_f_h_a.png,O,m,1793,16,1,2812.0,722195.2000000477,7762,VNB,A,14
7,test,1,0.0,2-Back,1.0,z,Tue Mar 03 2026 11:11:27 GMT-0600 (Central Standard Time),727639.6000000238,124_o_f_d_a.png,O,z,1601,17,1,2628.5,725011.1000000238,7762,VNB,A,15
8,test,1,0.0,2-Back,1.0,m,Tue Mar 03 2026 11:11:27 GMT-0600 (Central Standard Time),729969.1000000238,039_o_m_n_a.png,O,m,1313,18,1,2325.5,727643.6000000238,7762,VNB,A,16
0,test,2,0.0,2-Back,,,Tue Mar 03 2026 11:11:27 GMT-0600 (Central Standard Time),729969.1000000238,165_m_m_h_a.png,O,space,13336,1,1,2325.5,727643.6000000238,7762,VNB,A,0
0,test,2,0.0,2-Back,,,Tue Mar 03 2026 11:11:27 GMT-0600 (Central Standard Time),729969.1000000238,071_y_f_n_a.png,O,space,13336,2,1,2325.5,727643.6000000238,7762,VNB,A,0
1,test,2,1.0,2-Back,1.0,z,Tue Mar 03 2026 11:11:27 GMT-0600 (Central Standard Time),750699.2000000477,124_o_f_h_a.png,O,z,1281,3,1,2295.2000000476837,748404.0,7762,VNB,A,1
1,test,2,0.0,2-Back,0.0,m,Tue Mar 03 2026 11:11:27 GMT-0600 (Central Standard Time),753731.6000000238,039_o_m_d_a.png,O,None,2015,4,1,3028.899999976158,750702.7000000477,7762,VNB,A,2
2,test,2,0.0,2-Back,1.0,m,Tue Mar 03 2026 11:11:27 GMT-0600 (Central Standard Time),756680.7000000477,139_m_f_d_a.png,O,m,1917,5,1,2945.399999976158,753735.3000000715,7762,VNB,A,3
2,test,2,0.0,2-Back,0.0,m,Tue Mar 03 2026 11:11:27 GMT-0600 (Central Standard Time),759196.3000000715,109_y_m_h_a.png,O,z,1494,6,1,2511.5,756684.8000000715,7762,VNB,A,4
3,test,2,0.0,2-Back,1.0,m,Tue Mar 03 2026 11:11:27 GMT-0600 (Central Standard Time),761595.7000000477,124_o_f_n_a.png,O,m,1380,7,1,2395.3000000715256,759200.3999999762,7762,VNB,A,5
4,test,2,1.0,2-Back,1.0,z,Tue Mar 03 2026 11:11:27 GMT-0600 (Central Standard Time),763894.8999999762,039_o_m_h_a.png,O,z,1277,8,1,2295.399999976158,761599.5,7762,VNB,A,6
5,test,2,0.0,2-Back,1.0,m,Tue Mar 03 2026 11:11:27 GMT-0600 (Central Standard Time),766127.3999999762,071_y_f_d_a.png,O,m,1209,9,1,2228.2999999523163,763899.1000000238,7762,VNB,A,7
6,test,2,0.0,2-Back,1.0,m,Tue Mar 03 2026 11:11:27 GMT-0600 (Central Standard Time),768793.5,109_y_m_d_a.png,O,m,1649,10,1,2662.399999976158,766131.1000000238,7762,VNB,A,8
7,test,2,0.0,2-Back,1.0,m,Tue Mar 03 2026 11:11:27 GMT-0600 (Central Standard Time),771509.3000000715,165_m_m_n_a.png,O,m,1694,11,1,2712.100000023842,768797.2000000477,7762,VNB,A,9
8,test,2,0.0,2-Back,1.0,m,Tue Mar 03 2026 11:11:27 GMT-0600 (Central Standard Time),774341.7000000477,139_m_f_h_a.png,O,m,1811,12,1,2828.2000000476837,771513.5,7762,VNB,A,10
9,test,2,1.0,2-Back,1.0,z,Tue Mar 03 2026 11:11:27 GMT-0600 (Central Standard Time),776952.8999999762,039_o_m_n_a.png,O,z,1595,13,1,2607.0,774345.8999999762,7762,VNB,A,11
10,test,2,0.0,2-Back,1.0,m,Tue Mar 03 2026 11:11:27 GMT-0600 (Central Standard Time),779440.1000000238,124_o_f_d_a.png,O,m,1466,14,1,2483.5,776956.6000000238,7762,VNB,A,12
10,test,2,0.0,2-Back,0.0,m,Tue Mar 03 2026 11:11:27 GMT-0600 (Central Standard Time),781806.1000000238,071_y_f_h_a.png,O,z,1346,15,1,2362.0,779444.1000000238,7762,VNB,A,13
10,test,2,0.0,2-Back,0.0,z,Tue Mar 03 2026 11:11:27 GMT-0600 (Central Standard Time),784338.7000000477,165_m_m_d_a.png,O,m,1506,16,1,2529.2000000476837,781809.5,7762,VNB,A,14
11,test,2,0.0,2-Back,1.0,m,Tue Mar 03 2026 11:11:27 GMT-0600 (Central Standard Time),786737.8000000715,109_y_m_n_a.png,O,m,1383,17,1,2395.600000023842,784342.2000000477,7762,VNB,A,15
12,test,2,1.0,2-Back,1.0,m,Tue Mar 03 2026 11:11:27 GMT-0600 (Central Standard Time),789236.8999999762,139_m_f_n_a.png,O,m,1472,18,1,2495.2999999523163,786741.6000000238,7762,VNB,A,16
0,test,3,1.0,2-Back,,,Tue Mar 03 2026 11:11:27 GMT-0600 (Central Standard Time),789236.8999999762,039_o_m_n_a.png,O,space,2773,1,1,2495.2999999523163,786741.6000000238,7762,VNB,A,0
0,test,3,1.0,2-Back,,,Tue Mar 03 2026 11:11:27 GMT-0600 (Central Standard Time),789236.8999999762,124_o_f_d_a.png,O,space,2773,2,1,2495.2999999523163,786741.6000000238,7762,VNB,A,0
1,test,3,0.0,2-Back,1.0,m,Tue Mar 03 2026 11:11:27 GMT-0600 (Central Standard Time),799183.8999999762,071_y_f_h_a.png,O,m,1093,3,1,2108.7999999523163,797075.1000000238,7762,VNB,A,1
2,test,3,0.0,2-Back,1.0,z,Tue Mar 03 2026 11:11:27 GMT-0600 (Central Standard Time),801817.1000000238,139_m_f_d_a.png,O,z,1616,4,1,2629.399999976158,799187.7000000477,7762,VNB,A,2
3,test,3,1.0,2-Back,1.0,m,Tue Mar 03 2026 11:11:27 GMT-0600 (Central Standard Time),804515.3999999762,109_y_m_n_a.png,O,m,1680,5,1,2694.7999999523163,801820.6000000238,7762,VNB,A,3
3,test,3,0.0,2-Back,0.0,m,Tue Mar 03 2026 11:11:27 GMT-0600 (Central Standard Time),806531.5,039_o_m_h_a.png,O,z,997,6,1,2012.6999999284744,804518.8000000715,7762,VNB,A,4
4,test,3,0.0,2-Back,1.0,z,Tue Mar 03 2026 11:11:27 GMT-0600 (Central Standard Time),809014.1000000238,071_y_f_n_a.png,O,z,1461,7,1,2477.899999976158,806536.2000000477,7762,VNB,A,5
5,test,3,1.0,2-Back,1.0,m,Tue Mar 03 2026 11:11:27 GMT-0600 (Central Standard Time),811313.3999999762,165_m_m_d_a.png,O,m,1282,8,1,2295.6999999284744,809017.7000000477,7762,VNB,A,6
6,test,3,0.0,2-Back,1.0,m,Tue Mar 03 2026 11:11:27 GMT-0600 (Central Standard Time),813579.5,109_y_m_d_a.png,O,m,1246,9,1,2262.1999999284744,811317.3000000715,7762,VNB,A,7
7,test,3,0.0,2-Back,1.0,m,Tue Mar 03 2026 11:11:27 GMT-0600 (Central Standard Time),816511.6000000238,124_o_f_h_a.png,O,m,1910,10,1,2928.7000000476837,813582.8999999762,7762,VNB,A,8
7,test,3,1.0,2-Back,0.0,m,Tue Mar 03 2026 11:11:27 GMT-0600 (Central Standard Time),818861.2000000477,139_m_f_n_a.png,O,z,1322,11,1,2346.0,816515.2000000477,7762,VNB,A,9
8,test,3,1.0,2-Back,1.0,z,Tue Mar 03 2026 11:11:27 GMT-0600 (Central Standard Time),821693.3999999762,165_m_m_h_a.png,O,z,1811,12,1,2827.7999999523163,818865.6000000238,7762,VNB,A,10
9,test,3,0.0,2-Back,1.0,m,Tue Mar 03 2026 11:11:27 GMT-0600 (Central Standard Time),823928.0,071_y_f_d_a.png,O,m,1211,13,1,2231.1999999284744,821696.8000000715,7762,VNB,A,11
10,test,3,0.0,2-Back,1.0,m,Tue Mar 03 2026 11:11:27 GMT-0600 (Central Standard Time),826642.1000000238,124_o_f_n_a.png,O,m,1691,14,1,2710.399999976158,823931.7000000477,7762,VNB,A,12
11,test,3,0.0,2-Back,1.0,z,Tue Mar 03 2026 11:11:27 GMT-0600 (Central Standard Time),828624.8999999762,039_o_m_d_a.png,O,z,958,15,1,1979.3999999761581,826645.5,7762,VNB,A,13
12,test,3,1.0,2-Back,1.0,m,Tue Mar 03 2026 11:11:27 GMT-0600 (Central Standard Time),830940.6000000238,139_m_f_h_a.png,O,m,1297,16,1,2312.2999999523163,828628.3000000715,7762,VNB,A,14
12,test,3,0.0,2-Back,0.0,m,Tue Mar 03 2026 11:11:27 GMT-0600 (Central Standard Time),833973.2000000477,165_m_m_n_a.png,O,None,2016,17,1,3028.600000023842,830944.6000000238,7762,VNB,A,15
12,test,3,0.0,2-Back,0.0,z,Tue Mar 03 2026 11:11:27 GMT-0600 (Central Standard Time),836189.1000000238,109_y_m_h_a.png,O,m,1196,18,1,2212.2999999523163,833976.8000000715,7762,VNB,A,16
0,test,4,0.0,2-Back,,,Tue Mar 03 2026 11:11:27 GMT-0600 (Central Standard Time),836189.1000000238,139_m_f_n_a.png,O,space,2443,1,1,2212.2999999523163,833976.8000000715,7762,VNB,A,0
0,test,4,0.0,2-Back,,,Tue Mar 03 2026 11:11:27 GMT-0600 (Central Standard Time),836189.1000000238,039_o_m_n_a.png,O,space,2443,2,1,2212.2999999523163,833976.8000000715,7762,VNB,A,0
1,test,4,1.0,2-Back,1.0,m,Tue Mar 03 2026 11:11:27 GMT-0600 (Central Standard Time),846219.0,109_y_m_h_a.png,O,m,1498,3,1,2512.600000023842,843706.3999999762,7762,VNB,A,1
2,test,4,1.0,2-Back,1.0,m,Tue Mar 03 2026 11:11:27 GMT-0600 (Central Standard Time),848685.1000000238,124_o_f_d_a.png,O,m,1437,4,1,2462.7000000476837,846222.3999999762,7762,VNB,A,2
3,test,4,0.0,2-Back,1.0,z,Tue Mar 03 2026 11:11:27 GMT-0600 (Central Standard Time),851550.8999999762,039_o_m_h_a.png,O,z,1843,5,1,2861.6999999284744,848689.2000000477,7762,VNB,A,3
3,test,4,0.0,2-Back,0.0,m,Tue Mar 03 2026 11:11:27 GMT-0600 (Central Standard Time),854149.8000000715,165_m_m_n_a.png,O,z,1577,6,1,2594.7000000476837,851555.1000000238,7762,VNB,A,4
4,test,4,0.0,2-Back,1.0,m,Tue Mar 03 2026 11:11:27 GMT-0600 (Central Standard Time),856682.5,139_m_f_d_a.png,O,m,1506,7,1,2528.899999976158,854153.6000000238,7762,VNB,A,5
5,test,4,0.0,2-Back,1.0,z,Tue Mar 03 2026 11:11:27 GMT-0600 (Central Standard Time),859265.1000000238,071_y_f_n_a.png,O,z,1550,8,1,2579.0,856686.1000000238,7762,VNB,A,6
6,test,4,1.0,2-Back,1.0,m,Tue Mar 03 2026 11:11:27 GMT-0600 (Central Standard Time),861581.3000000715,124_o_f_h_a.png,O,m,1295,9,1,2312.7000000476837,859268.6000000238,7762,VNB,A,7
7,test,4,0.0,2-Back,1.0,m,Tue Mar 03 2026 11:11:27 GMT-0600 (Central Standard Time),864130.2000000477,165_m_m_h_a.png,O,m,1523,10,1,2545.0,861585.2000000477,7762,VNB,A,8
7,test,4,0.0,2-Back,0.0,m,Tue Mar 03 2026 11:11:27 GMT-0600 (Central Standard Time),866462.7000000477,071_y_f_d_a.png,O,z,1311,11,1,2328.8000000715256,864133.8999999762,7762,VNB,A,9
8,test,4,0.0,2-Back,1.0,m,Tue Mar 03 2026 11:11:27 GMT-0600 (Central Standard Time),868912.0,109_y_m_n_a.png,O,m,1426,12,1,2445.5,866466.5,7762,VNB,A,10
8,test,4,0.0,2-Back,0.0,z,Tue Mar 03 2026 11:11:27 GMT-0600 (Central Standard Time),871561.5,039_o_m_d_a.png,O,m,1616,13,1,2645.100000023842,868916.3999999762,7762,VNB,A,11
9,test,4,1.0,2-Back,1.0,m,Tue Mar 03 2026 11:11:27 GMT-0600 (Central Standard Time),874193.8000000715,139_m_f_h_a.png,O,m,1608,14,1,2629.100000023842,871564.7000000477,7762,VNB,A,12
9,test,4,1.0,2-Back,0.0,m,Tue Mar 03 2026 11:11:27 GMT-0600 (Central Standard Time),876893.0,071_y_f_h_a.png,O,z,1672,15,1,2695.0,874198.0,7762,VNB,A,13
10,test,4,0.0,2-Back,1.0,m,Tue Mar 03 2026 11:11:27 GMT-0600 (Central Standard Time),879592.0,124_o_f_n_a.png,O,m,1677,16,1,2695.5,876896.5,7762,VNB,A,14
11,test,4,0.0,2-Back,1.0,m,Tue Mar 03 2026 11:11:27 GMT-0600 (Central Standard Time),882141.3000000715,109_y_m_d_a.png,O,m,1529,17,1,2544.8000000715256,879596.5,7762,VNB,A,15
12,test,4,1.0,2-Back,1.0,m,Tue Mar 03 2026 11:11:27 GMT-0600 (Central Standard Time),884906.7000000477,165_m_m_d_a.png,O,m,1739,18,1,2760.7000000476837,882146.0,7762,VNB,A,16
0,test,5,1.0,2-Back,,,Tue Mar 03 2026 11:11:27 GMT-0600 (Central Standard Time),884906.7000000477,071_y_f_d_a.png,O,space,2231,1,1,2760.7000000476837,882146.0,7762,VNB,A,0
0,test,5,1.0,2-Back,,,Tue Mar 03 2026 11:11:27 GMT-0600 (Central Standard Time),884906.7000000477,124_o_f_h_a.png,O,space,2231,2,1,2760.7000000476837,882146.0,7762,VNB,A,0
1,test,5,1.0,2-Back,1.0,z,Tue Mar 03 2026 11:11:27 GMT-0600 (Central Standard Time),895040.3999999762,039_o_m_d_a.png,O,z,1782,3,1,2813.6999999284744,892226.7000000477,7762,VNB,A,1
2,test,5,1.0,2-Back,1.0,m,Tue Mar 03 2026 11:11:27 GMT-0600 (Central Standard Time),897553.0,139_m_f_n_a.png,O,m,1484,4,1,2508.2999999523163,895044.7000000477,7762,VNB,A,2
2,test,5,0.0,2-Back,0.0,m,Tue Mar 03 2026 11:11:27 GMT-0600 (Central Standard Time),900352.2000000477,165_m_m_h_a.png,O,z,1775,5,1,2795.8000000715256,897556.3999999762,7762,VNB,A,3
2,test,5,0.0,2-Back,0.0,z,Tue Mar 03 2026 11:11:27 GMT-0600 (Central Standard Time),902784.8000000715,071_y_f_n_a.png,O,m,1409,6,1,2428.9000000953674,900355.8999999762,7762,VNB,A,4
3,test,5,0.0,2-Back,1.0,m,Tue Mar 03 2026 11:11:27 GMT-0600 (Central Standard Time),905633.8999999762,124_o_f_d_a.png,O,m,1832,7,1,2845.6999999284744,902788.2000000477,7762,VNB,A,5
3,test,5,0.0,2-Back,0.0,m,Tue Mar 03 2026 11:11:27 GMT-0600 (Central Standard Time),908666.5,039_o_m_h_a.png,O,None,2015,8,1,3029.1999999284744,905637.3000000715,7762,VNB,A,6
4,test,5,1.0,2-Back,1.0,z,Tue Mar 03 2026 11:11:27 GMT-0600 (Central Standard Time),910982.3000000715,139_m_f_d_a.png,O,z,1295,9,1,2312.4000000953674,908669.8999999762,7762,VNB,A,7
5,test,5,0.0,2-Back,1.0,m,Tue Mar 03 2026 11:11:27 GMT-0600 (Central Standard Time),913514.3999999762,109_y_m_n_a.png,O,m,1512,10,1,2528.399999976158,910986.0,7762,VNB,A,8
6,test,5,0.0,2-Back,1.0,m,Tue Mar 03 2026 11:11:27 GMT-0600 (Central Standard Time),915897.3000000715,165_m_m_n_a.png,O,m,1359,11,1,2379.7000000476837,913517.6000000238,7762,VNB,A,9
7,test,5,0.0,2-Back,1.0,m,Tue Mar 03 2026 11:11:27 GMT-0600 (Central Standard Time),918422.7000000477,071_y_f_h_a.png,O,m,1508,12,1,2521.399999976158,915901.3000000715,7762,VNB,A,10
8,test,5,0.0,2-Back,1.0,m,Tue Mar 03 2026 11:11:27 GMT-0600 (Central Standard Time),920779.0,109_y_m_d_a.png,O,m,1348,13,1,2352.2999999523163,918426.7000000477,7762,VNB,A,11
8,test,5,1.0,2-Back,0.0,z,Tue Mar 03 2026 11:11:27 GMT-0600 (Central Standard Time),923661.7000000477,139_m_f_h_a.png,O,m,1854,14,1,2879.399999976158,920782.3000000715,7762,VNB,A,12
8,test,5,0.0,2-Back,0.0,m,Tue Mar 03 2026 11:11:27 GMT-0600 (Central Standard Time),926694.0,039_o_m_n_a.png,O,None,2016,15,1,3028.7999999523163,923665.2000000477,7762,VNB,A,13
9,test,5,0.0,2-Back,1.0,m,Tue Mar 03 2026 11:11:27 GMT-0600 (Central Standard Time),929243.3000000715,165_m_m_d_a.png,O,m,1523,16,1,2545.100000023842,926698.2000000477,7762,VNB,A,14
9,test,5,0.0,2-Back,0.0,z,Tue Mar 03 2026 11:11:27 GMT-0600 (Central Standard Time),932192.5,124_o_f_n_a.png,O,m,1925,17,1,2945.2999999523163,929247.2000000477,7762,VNB,A,15
9,test,5,1.0,2-Back,0.0,m,Tue Mar 03 2026 11:11:27 GMT-0600 (Central Standard Time),934824.8999999762,109_y_m_h_a.png,O,z,1608,18,1,2629.0,932195.8999999762,7762,VNB,A,16
