block_c,block_dur,condition,countdown,datetime,endtime,list,multichar_response,project,response,response_time,session_number,start_end,starttime,subject_id,task,task_vers,trial
,,,,Tue Mar 17 2026 15:20:23 GMT-0500 (Central Daylight Time),,,,O,space,537,1,,,7780,WL,A,
prac,,0,,Tue Mar 17 2026 15:20:23 GMT-0500 (Central Daylight Time),,NA,b,O,b,1433,1,,,7780,WL,A,1.0
prac,,0,,Tue Mar 17 2026 15:20:23 GMT-0500 (Central Daylight Time),,NA,bo,O,o,200,1,,,7780,WL,A,1.0
prac,,0,,Tue Mar 17 2026 15:20:23 GMT-0500 (Central Daylight Time),,NA,boo,O,o,150,1,,,7780,WL,A,1.0
prac,,0,,Tue Mar 17 2026 15:20:23 GMT-0500 (Central Daylight Time),,NA,boos,O,s,825,1,,,7780,WL,A,1.0
prac,,0,,Tue Mar 17 2026 15:20:23 GMT-0500 (Central Daylight Time),,NA,boost,O,t,526,1,,,7780,WL,A,1.0
prac,,0,,Tue Mar 17 2026 15:20:23 GMT-0500 (Central Daylight Time),,NA,boostenter,O,enter,1848,1,,,7780,WL,A,1.0
1,1.3350000381469727,learn,58664.99996185303,Tue Mar 17 2026 15:20:23 GMT-0500 (Central Daylight Time),195928.10000002384,A,r,O,r,1328,1,1334.3999999761581,194593.70000004768,7780,WL,A,1.0
1,1.5509998798370361,learn,58449.000120162964,Tue Mar 17 2026 15:20:23 GMT-0500 (Central Daylight Time),196144.0,A,ra,O,a,205,1,1550.2999999523163,194593.70000004768,7780,WL,A,1.0
1,1.750999927520752,learn,58249.00007247925,Tue Mar 17 2026 15:20:23 GMT-0500 (Central Daylight Time),196344.0,A,rat,O,t,186,1,1750.2999999523163,194593.70000004768,7780,WL,A,1.0
1,1.9179999828338623,learn,58082.00001716614,Tue Mar 17 2026 15:20:23 GMT-0500 (Central Daylight Time),196511.20000004768,A,ratt,O,t,155,1,1917.5,194593.70000004768,7780,WL,A,1.0
1,2.134000062942505,learn,57865.999937057495,Tue Mar 17 2026 15:20:23 GMT-0500 (Central Daylight Time),196726.90000009537,A,rattl,O,l,194,1,2133.2000000476837,194593.70000004768,7780,WL,A,1.0
1,2.2839999198913574,learn,57716.00008010864,Tue Mar 17 2026 15:20:23 GMT-0500 (Central Daylight Time),196876.80000007153,A,rattle,O,e,139,1,2283.100000023842,194593.70000004768,7780,WL,A,1.0
1,3.634000062942505,learn,56365.999937057495,Tue Mar 17 2026 15:20:23 GMT-0500 (Central Daylight Time),198226.80000007153,A,rattleenter,O,enter,1334,1,3633.100000023842,194593.70000004768,7780,WL,A,1.0
1,4.33299994468689,learn,55667.00005531311,Tue Mar 17 2026 15:20:23 GMT-0500 (Central Daylight Time),198926.20000004768,A,g,O,g,679,1,698.8999999761581,198227.30000007153,7780,WL,A,2.0
1,4.483000040054321,learn,55516.99995994568,Tue Mar 17 2026 15:20:23 GMT-0500 (Central Daylight Time),199075.90000009537,A,go,O,o,132,1,848.6000000238419,198227.30000007153,7780,WL,A,2.0
1,4.634000062942505,learn,55365.999937057495,Tue Mar 17 2026 15:20:23 GMT-0500 (Central Daylight Time),199227.30000007153,A,gol,O,l,135,1,1000.0,198227.30000007153,7780,WL,A,2.0
1,4.783999919891357,learn,55216.00008010864,Tue Mar 17 2026 15:20:23 GMT-0500 (Central Daylight Time),199376.60000002384,A,gold,O,d,135,1,1149.2999999523163,198227.30000007153,7780,WL,A,2.0
1,5.650000095367432,learn,54349.99990463257,Tue Mar 17 2026 15:20:23 GMT-0500 (Central Daylight Time),200242.60000002384,A,goldenter,O,enter,849,1,2015.2999999523163,198227.30000007153,7780,WL,A,2.0
1,6.099999904632568,learn,53900.00009536743,Tue Mar 17 2026 15:20:23 GMT-0500 (Central Daylight Time),200693.10000002384,A,c,O,c,444,1,450.10000002384186,200243.0,7780,WL,A,3.0
1,6.233999967575073,learn,53766.00003242493,Tue Mar 17 2026 15:20:23 GMT-0500 (Central Daylight Time),200826.60000002384,A,ch,O,h,125,1,583.6000000238419,200243.0,7780,WL,A,3.0
1,6.365999937057495,learn,53634.000062942505,Tue Mar 17 2026 15:20:23 GMT-0500 (Central Daylight Time),200959.20000004768,A,chi,O,i,112,1,716.2000000476837,200243.0,7780,WL,A,3.0
1,6.549999952316284,learn,53450.000047683716,Tue Mar 17 2026 15:20:23 GMT-0500 (Central Daylight Time),201143.0,A,chim,O,m,161,1,900.0,200243.0,7780,WL,A,3.0
1,7.096999883651733,learn,52903.00011634827,Tue Mar 17 2026 15:20:23 GMT-0500 (Central Daylight Time),201690.20000004768,A,chimn,O,n,533,1,1447.2000000476837,200243.0,7780,WL,A,3.0
1,7.23199987411499,learn,52768.00012588501,Tue Mar 17 2026 15:20:23 GMT-0500 (Central Daylight Time),201824.90000009537,A,chimne,O,e,121,1,1581.9000000953674,200243.0,7780,WL,A,3.0
1,7.38100004196167,learn,52618.99995803833,Tue Mar 17 2026 15:20:23 GMT-0500 (Central Daylight Time),201973.90000009537,A,chimney,O,y,128,1,1730.9000000953674,200243.0,7780,WL,A,3.0
1,8.200000047683716,learn,51799.999952316284,Tue Mar 17 2026 15:20:23 GMT-0500 (Central Daylight Time),202793.0,A,chimneyenter,O,enter,816,1,2550.0,200243.0,7780,WL,A,3.0
1,8.8989999294281,learn,51101.0000705719,Tue Mar 17 2026 15:20:23 GMT-0500 (Central Daylight Time),203491.80000007153,A,k,O,k,681,1,698.3999999761581,202793.40000009537,7780,WL,A,4.0
1,9.030999898910522,learn,50969.00010108948,Tue Mar 17 2026 15:20:23 GMT-0500 (Central Daylight Time),203624.10000002384,A,ke,O,e,110,1,830.6999999284744,202793.40000009537,7780,WL,A,4.0
1,9.216000080108643,learn,50783.99991989136,Tue Mar 17 2026 15:20:23 GMT-0500 (Central Daylight Time),203808.70000004768,A,key,O,y,171,1,1015.2999999523163,202793.40000009537,7780,WL,A,4.0
1,10.164000034332275,learn,49835.999965667725,Tue Mar 17 2026 15:20:23 GMT-0500 (Central Daylight Time),204757.30000007153,A,keyenter,O,enter,937,1,1963.8999999761581,202793.40000009537,7780,WL,A,4.0
1,11.096999883651733,learn,48903.00011634827,Tue Mar 17 2026 15:20:23 GMT-0500 (Central Daylight Time),205690.10000002384,A,l,O,l,916,1,932.5,204757.60000002384,7780,WL,A,5.0
1,11.497999906539917,learn,48502.00009346008,Tue Mar 17 2026 15:20:23 GMT-0500 (Central Daylight Time),206090.60000002384,A,lo,O,o,387,1,1333.0,204757.60000002384,7780,WL,A,5.0
1,11.648000001907349,learn,48351.99999809265,Tue Mar 17 2026 15:20:23 GMT-0500 (Central Daylight Time),206240.40000009537,A,log,O,g,135,1,1482.8000000715256,204757.60000002384,7780,WL,A,5.0
1,12.346999883651733,learn,47653.00011634827,Tue Mar 17 2026 15:20:23 GMT-0500 (Central Daylight Time),206939.90000009537,A,logenter,O,enter,682,1,2182.3000000715256,204757.60000002384,7780,WL,A,5.0
1,12.897000074386597,learn,47102.9999256134,Tue Mar 17 2026 15:20:23 GMT-0500 (Central Daylight Time),207489.90000009537,A,s,O,s,541,1,549.7000000476837,206940.20000004768,7780,WL,A,6.0
1,13.062999963760376,learn,46937.000036239624,Tue Mar 17 2026 15:20:23 GMT-0500 (Central Daylight Time),207655.80000007153,A,sa,O,a,153,1,715.6000000238419,206940.20000004768,7780,WL,A,6.0
1,13.313999891281128,learn,46686.00010871887,Tue Mar 17 2026 15:20:23 GMT-0500 (Central Daylight Time),207906.90000009537,A,sal,O,l,237,1,966.7000000476837,206940.20000004768,7780,WL,A,6.0
1,13.513000011444092,learn,46486.99998855591,Tue Mar 17 2026 15:20:23 GMT-0500 (Central Daylight Time),208106.0,A,salt,O,t,193,1,1165.7999999523163,206940.20000004768,7780,WL,A,6.0
1,13.996999979019165,learn,46003.000020980835,Tue Mar 17 2026 15:20:23 GMT-0500 (Central Daylight Time),208589.90000009537,A,saltenter,O,enter,474,1,1649.7000000476837,206940.20000004768,7780,WL,A,6.0
1,14.364000082015991,learn,45635.99991798401,Tue Mar 17 2026 15:20:23 GMT-0500 (Central Daylight Time),208956.70000004768,A,f,O,f,344,1,366.60000002384186,208590.10000002384,7780,WL,A,7.0
1,14.513000011444092,learn,45486.99998855591,Tue Mar 17 2026 15:20:23 GMT-0500 (Central Daylight Time),209106.0,A,fi,O,i,132,1,515.8999999761581,208590.10000002384,7780,WL,A,7.0
1,14.598000049591064,learn,45401.999950408936,Tue Mar 17 2026 15:20:23 GMT-0500 (Central Daylight Time),209190.30000007153,A,fin,O,n,73,1,600.2000000476837,208590.10000002384,7780,WL,A,7.0
1,14.69700002670288,learn,45302.99997329712,Tue Mar 17 2026 15:20:23 GMT-0500 (Central Daylight Time),209290.0,A,fing,O,g,75,1,699.8999999761581,208590.10000002384,7780,WL,A,7.0
1,14.864000082015991,learn,45135.99991798401,Tue Mar 17 2026 15:20:23 GMT-0500 (Central Daylight Time),209456.5,A,finge,O,e,153,1,866.3999999761581,208590.10000002384,7780,WL,A,7.0
1,14.94700002670288,learn,45052.99997329712,Tue Mar 17 2026 15:20:23 GMT-0500 (Central Daylight Time),209539.30000007153,A,finger,O,r,78,1,949.2000000476837,208590.10000002384,7780,WL,A,7.0
1,15.397000074386597,learn,44602.9999256134,Tue Mar 17 2026 15:20:23 GMT-0500 (Central Daylight Time),209989.90000009537,A,fingerenter,O,enter,431,1,1399.8000000715256,208590.10000002384,7780,WL,A,7.0
1,15.746999979019165,learn,44253.000020980835,Tue Mar 17 2026 15:20:23 GMT-0500 (Central Daylight Time),210339.90000009537,A,b,O,b,341,1,349.7000000476837,209990.20000004768,7780,WL,A,8.0
1,15.913000106811523,learn,44086.99989318848,Tue Mar 17 2026 15:20:23 GMT-0500 (Central Daylight Time),210506.30000007153,A,bu,O,u,151,1,516.1000000238419,209990.20000004768,7780,WL,A,8.0
1,16.046000003814697,learn,43953.9999961853,Tue Mar 17 2026 15:20:23 GMT-0500 (Central Daylight Time),210639.20000004768,A,but,O,t,112,1,649.0,209990.20000004768,7780,WL,A,8.0
1,16.19600009918213,learn,43803.99990081787,Tue Mar 17 2026 15:20:23 GMT-0500 (Central Daylight Time),210789.0,A,butt,O,t,132,1,798.7999999523163,209990.20000004768,7780,WL,A,8.0
1,16.329999923706055,learn,43670.000076293945,Tue Mar 17 2026 15:20:23 GMT-0500 (Central Daylight Time),210922.5,A,butto,O,o,118,1,932.2999999523163,209990.20000004768,7780,WL,A,8.0
1,16.44600009918213,learn,43553.99990081787,Tue Mar 17 2026 15:20:23 GMT-0500 (Central Daylight Time),211039.30000007153,A,button,O,n,96,1,1049.1000000238419,209990.20000004768,7780,WL,A,8.0
1,17.09599995613098,learn,42904.00004386902,Tue Mar 17 2026 15:20:23 GMT-0500 (Central Daylight Time),211689.20000004768,A,buttonenter,O,enter,637,1,1699.0,209990.20000004768,7780,WL,A,8.0
1,18.328999996185303,learn,41671.0000038147,Tue Mar 17 2026 15:20:23 GMT-0500 (Central Daylight Time),212921.70000004768,A,r,O,r,1218,1,1232.2000000476837,211689.5,7780,WL,A,9.0
1,18.913000106811523,learn,41086.99989318848,Tue Mar 17 2026 15:20:23 GMT-0500 (Central Daylight Time),213505.70000004768,A,,O,backspace,572,1,1816.2000000476837,211689.5,7780,WL,A,9.0
1,19.111999988555908,learn,40888.00001144409,Tue Mar 17 2026 15:20:23 GMT-0500 (Central Daylight Time),213704.90000009537,A,b,O,b,179,1,2015.4000000953674,211689.5,7780,WL,A,9.0
1,19.29699993133545,learn,40703.00006866455,Tue Mar 17 2026 15:20:23 GMT-0500 (Central Daylight Time),213889.30000007153,A,bp,O,p,163,1,2199.8000000715256,211689.5,7780,WL,A,9.0
1,20.01200008392334,learn,39987.99991607666,Tue Mar 17 2026 15:20:23 GMT-0500 (Central Daylight Time),214604.70000004768,A,b,O,backspace,705,1,2915.2000000476837,211689.5,7780,WL,A,9.0
1,20.479000091552734,learn,39520.999908447266,Tue Mar 17 2026 15:20:23 GMT-0500 (Central Daylight Time),215071.80000007153,A,bo,O,o,444,1,3382.3000000715256,211689.5,7780,WL,A,9.0
1,20.594000101089478,learn,39405.99989891052,Tue Mar 17 2026 15:20:23 GMT-0500 (Central Daylight Time),215187.30000007153,A,boo,O,o,107,1,3497.8000000715256,211689.5,7780,WL,A,9.0
1,20.92899990081787,learn,39071.00009918213,Tue Mar 17 2026 15:20:23 GMT-0500 (Central Daylight Time),215521.60000002384,A,book,O,k,321,1,3832.100000023842,211689.5,7780,WL,A,9.0
1,21.82800006866455,learn,38171.99993133545,Tue Mar 17 2026 15:20:23 GMT-0500 (Central Daylight Time),216420.70000004768,A,bookenter,O,enter,882,1,4731.200000047684,211689.5,7780,WL,A,9.0
1,23.210000038146973,learn,36789.99996185303,Tue Mar 17 2026 15:20:23 GMT-0500 (Central Daylight Time),217802.90000009537,A,t,O,t,1365,1,1382.0,216420.90000009537,7780,WL,A,10.0
1,23.42799997329712,learn,36572.00002670288,Tue Mar 17 2026 15:20:23 GMT-0500 (Central Daylight Time),218020.80000007153,A,tr,O,r,207,1,1599.8999999761581,216420.90000009537,7780,WL,A,10.0
1,23.627000093460083,learn,36372.99990653992,Tue Mar 17 2026 15:20:23 GMT-0500 (Central Daylight Time),218219.80000007153,A,tra,O,a,182,1,1798.8999999761581,216420.90000009537,7780,WL,A,10.0
1,23.76099991798401,learn,36239.00008201599,Tue Mar 17 2026 15:20:23 GMT-0500 (Central Daylight Time),218353.5,A,trai,O,i,119,1,1932.5999999046326,216420.90000009537,7780,WL,A,10.0
1,23.844000101089478,learn,36155.99989891052,Tue Mar 17 2026 15:20:23 GMT-0500 (Central Daylight Time),218437.20000004768,A,train,O,n,65,1,2016.2999999523163,216420.90000009537,7780,WL,A,10.0
1,24.328999996185303,learn,35671.0000038147,Tue Mar 17 2026 15:20:23 GMT-0500 (Central Daylight Time),218921.80000007153,A,trainenter,O,enter,478,1,2500.899999976158,216420.90000009537,7780,WL,A,10.0
1,24.72699999809265,learn,35273.00000190735,Tue Mar 17 2026 15:20:23 GMT-0500 (Central Daylight Time),219320.10000002384,A,r,O,r,387,1,398.10000002384186,218922.0,7780,WL,A,11.0
1,24.877000093460083,learn,35122.99990653992,Tue Mar 17 2026 15:20:23 GMT-0500 (Central Daylight Time),219469.80000007153,A,ru,O,u,139,1,547.8000000715256,218922.0,7780,WL,A,11.0
1,25.01099991798401,learn,34989.00008201599,Tue Mar 17 2026 15:20:23 GMT-0500 (Central Daylight Time),219603.60000002384,A,rug,O,g,126,1,681.6000000238419,218922.0,7780,WL,A,11.0
1,26.80999994277954,learn,33190.00005722046,Tue Mar 17 2026 15:20:23 GMT-0500 (Central Daylight Time),221403.20000004768,A,rugenter,O,enter,1791,1,2481.2000000476837,218922.0,7780,WL,A,11.0
1,27.627000093460083,learn,32372.999906539917,Tue Mar 17 2026 15:20:23 GMT-0500 (Central Daylight Time),222219.60000002384,A,h,O,h,811,1,816.1999999284744,221403.40000009537,7780,WL,A,12.0
1,27.7260000705719,learn,32273.9999294281,Tue Mar 17 2026 15:20:23 GMT-0500 (Central Daylight Time),222318.70000004768,A,ha,O,a,78,1,915.2999999523163,221403.40000009537,7780,WL,A,12.0
1,27.842999935150146,learn,32157.000064849854,Tue Mar 17 2026 15:20:23 GMT-0500 (Central Daylight Time),222435.90000009537,A,har,O,r,108,1,1032.5,221403.40000009537,7780,WL,A,12.0
1,28.30999994277954,learn,31690.00005722046,Tue Mar 17 2026 15:20:23 GMT-0500 (Central Daylight Time),222903.20000004768,A,harp,O,p,456,1,1499.7999999523163,221403.40000009537,7780,WL,A,12.0
1,31.641000032424927,learn,28358.999967575073,Tue Mar 17 2026 15:20:23 GMT-0500 (Central Daylight Time),226234.10000002384,A,harpenter,O,enter,3315,1,4830.699999928474,221403.40000009537,7780,WL,A,12.0
1,60.01699995994568,learn,-16.99995994567871,Tue Mar 17 2026 15:20:23 GMT-0500 (Central Daylight Time),254610.10000002384,A,None,O,None,28371,1,28375.799999952316,226234.30000007153,7780,WL,A,13.0
2,1.25,learn,58750.0,Tue Mar 17 2026 15:20:23 GMT-0500 (Central Daylight Time),332834.2000000477,A,l,O,l,1237,1,1250.3999999761581,331583.8000000715,7780,WL,A,1.0
2,1.8320000171661377,learn,58167.99998283386,Tue Mar 17 2026 15:20:23 GMT-0500 (Central Daylight Time),333416.10000002384,A,lo,O,o,570,1,1832.2999999523163,331583.8000000715,7780,WL,A,1.0
2,1.9830000400543213,learn,58016.99995994568,Tue Mar 17 2026 15:20:23 GMT-0500 (Central Daylight Time),333566.8000000715,A,log,O,g,131,1,1983.0,331583.8000000715,7780,WL,A,1.0
2,2.815999984741211,learn,57184.00001525879,Tue Mar 17 2026 15:20:23 GMT-0500 (Central Daylight Time),334399.5,A,logenter,O,enter,813,1,2815.6999999284744,331583.8000000715,7780,WL,A,1.0
2,3.365999937057495,learn,56634.000062942505,Tue Mar 17 2026 15:20:23 GMT-0500 (Central Daylight Time),334949.40000009537,A,k,O,k,532,1,549.6000000238419,334399.8000000715,7780,WL,A,2.0
2,3.5,learn,56500.0,Tue Mar 17 2026 15:20:23 GMT-0500 (Central Daylight Time),335083.40000009537,A,ke,O,e,127,1,683.6000000238419,334399.8000000715,7780,WL,A,2.0
2,3.865000009536743,learn,56134.99999046326,Tue Mar 17 2026 15:20:23 GMT-0500 (Central Daylight Time),335448.90000009537,A,key,O,y,352,1,1049.1000000238419,334399.8000000715,7780,WL,A,2.0
2,4.514999866485596,learn,55485.000133514404,Tue Mar 17 2026 15:20:23 GMT-0500 (Central Daylight Time),336098.90000009537,A,keyenter,O,enter,634,1,1699.1000000238419,334399.8000000715,7780,WL,A,2.0
2,5.2829999923706055,learn,54717.000007629395,Tue Mar 17 2026 15:20:23 GMT-0500 (Central Daylight Time),336866.90000009537,A,c,O,c,762,1,767.7000000476837,336099.2000000477,7780,WL,A,3.0
2,5.450000047683716,learn,54549.999952316284,Tue Mar 17 2026 15:20:23 GMT-0500 (Central Daylight Time),337034.10000002384,A,ch,O,h,162,1,934.8999999761581,336099.2000000477,7780,WL,A,3.0
2,5.615000009536743,learn,54384.99999046326,Tue Mar 17 2026 15:20:23 GMT-0500 (Central Daylight Time),337198.7000000477,A,chi,O,i,154,1,1099.5,336099.2000000477,7780,WL,A,3.0
2,5.799999952316284,learn,54200.000047683716,Tue Mar 17 2026 15:20:23 GMT-0500 (Central Daylight Time),337383.7000000477,A,chim,O,m,162,1,1284.5,336099.2000000477,7780,WL,A,3.0
2,6.066999912261963,learn,53933.00008773804,Tue Mar 17 2026 15:20:23 GMT-0500 (Central Daylight Time),337650.3000000715,A,chimn,O,n,261,1,1551.1000000238419,336099.2000000477,7780,WL,A,3.0
2,6.2149999141693115,learn,53785.00008583069,Tue Mar 17 2026 15:20:23 GMT-0500 (Central Daylight Time),337799.0,A,chimne,O,e,127,1,1699.7999999523163,336099.2000000477,7780,WL,A,3.0
2,6.332000017166138,learn,53667.99998283386,Tue Mar 17 2026 15:20:23 GMT-0500 (Central Daylight Time),337916.0,A,chimney,O,y,99,1,1816.7999999523163,336099.2000000477,7780,WL,A,3.0
2,6.897000074386597,learn,53102.9999256134,Tue Mar 17 2026 15:20:23 GMT-0500 (Central Daylight Time),338481.10000002384,A,chimneyenter,O,enter,550,1,2381.899999976158,336099.2000000477,7780,WL,A,3.0
2,7.716000080108643,learn,52283.99991989136,Tue Mar 17 2026 15:20:23 GMT-0500 (Central Daylight Time),339299.5,A,r,O,r,811,1,818.2999999523163,338481.2000000477,7780,WL,A,4.0
2,7.948999881744385,learn,52051.000118255615,Tue Mar 17 2026 15:20:23 GMT-0500 (Central Daylight Time),339532.90000009537,A,ra,O,a,226,1,1051.7000000476837,338481.2000000477,7780,WL,A,4.0
2,8.148000001907349,learn,51851.99999809265,Tue Mar 17 2026 15:20:23 GMT-0500 (Central Daylight Time),339731.40000009537,A,rat,O,t,190,1,1250.2000000476837,338481.2000000477,7780,WL,A,4.0
2,8.282000064849854,learn,51717.99993515015,Tue Mar 17 2026 15:20:23 GMT-0500 (Central Daylight Time),339866.10000002384,A,ratt,O,t,129,1,1384.8999999761581,338481.2000000477,7780,WL,A,4.0
2,8.48199987411499,learn,51518.00012588501,Tue Mar 17 2026 15:20:23 GMT-0500 (Central Daylight Time),340065.40000009537,A,rattl,O,l,184,1,1584.2000000476837,338481.2000000477,7780,WL,A,4.0
2,8.697999954223633,learn,51302.00004577637,Tue Mar 17 2026 15:20:23 GMT-0500 (Central Daylight Time),340281.8000000715,A,rattle,O,e,203,1,1800.6000000238419,338481.2000000477,7780,WL,A,4.0
2,9.230000019073486,learn,50769.999980926514,Tue Mar 17 2026 15:20:23 GMT-0500 (Central Daylight Time),340813.5,A,rattleenter,O,enter,513,1,2332.2999999523163,338481.2000000477,7780,WL,A,4.0
2,9.846999883651733,learn,50153.00011634827,Tue Mar 17 2026 15:20:23 GMT-0500 (Central Daylight Time),341431.0,A,g,O,g,607,1,617.1999999284744,340813.8000000715,7780,WL,A,5.0
2,10.030999898910522,learn,49969.00010108948,Tue Mar 17 2026 15:20:23 GMT-0500 (Central Daylight Time),341614.5,A,go,O,o,172,1,800.6999999284744,340813.8000000715,7780,WL,A,5.0
2,10.246999979019165,learn,49753.000020980835,Tue Mar 17 2026 15:20:23 GMT-0500 (Central Daylight Time),341830.7000000477,A,gol,O,l,203,1,1016.8999999761581,340813.8000000715,7780,WL,A,5.0
2,10.430999994277954,learn,49569.000005722046,Tue Mar 17 2026 15:20:23 GMT-0500 (Central Daylight Time),342014.5,A,gold,O,d,164,1,1200.6999999284744,340813.8000000715,7780,WL,A,5.0
2,10.930999994277954,learn,49069.000005722046,Tue Mar 17 2026 15:20:23 GMT-0500 (Central Daylight Time),342515.2000000477,A,goldenter,O,enter,478,1,1701.3999999761581,340813.8000000715,7780,WL,A,5.0
2,11.736000061035156,learn,48263.999938964844,Tue Mar 17 2026 15:20:23 GMT-0500 (Central Daylight Time),343319.5,A,b,O,b,792,1,804.0999999046326,342515.40000009537,7780,WL,A,6.0
2,11.897000074386597,learn,48102.9999256134,Tue Mar 17 2026 15:20:23 GMT-0500 (Central Daylight Time),343480.5,A,bo,O,o,157,1,965.0999999046326,342515.40000009537,7780,WL,A,6.0
2,12.04699993133545,learn,47953.00006866455,Tue Mar 17 2026 15:20:23 GMT-0500 (Central Daylight Time),343630.3000000715,A,boo,O,o,138,1,1114.8999999761581,342515.40000009537,7780,WL,A,6.0
2,12.315000057220459,learn,47684.99994277954,Tue Mar 17 2026 15:20:23 GMT-0500 (Central Daylight Time),343898.40000009537,A,book,O,k,261,1,1383.0,342515.40000009537,7780,WL,A,6.0
2,13.013000011444092,learn,46986.99998855591,Tue Mar 17 2026 15:20:23 GMT-0500 (Central Daylight Time),344596.7000000477,A,bookenter,O,enter,683,1,2081.2999999523163,342515.40000009537,7780,WL,A,6.0
2,13.46399998664856,learn,46536.00001335144,Tue Mar 17 2026 15:20:23 GMT-0500 (Central Daylight Time),345047.60000002384,A,t,O,t,440,1,450.60000002384186,344597.0,7780,WL,A,7.0
2,13.611999988555908,learn,46388.00001144409,Tue Mar 17 2026 15:20:23 GMT-0500 (Central Daylight Time),345195.60000002384,A,tr,O,r,140,1,598.6000000238419,344597.0,7780,WL,A,7.0
2,13.763000011444092,learn,46236.99998855591,Tue Mar 17 2026 15:20:23 GMT-0500 (Central Daylight Time),345346.90000009537,A,tra,O,a,144,1,749.9000000953674,344597.0,7780,WL,A,7.0
2,13.894999980926514,learn,46105.000019073486,Tue Mar 17 2026 15:20:23 GMT-0500 (Central Daylight Time),345479.0,A,trai,O,i,119,1,882.0,344597.0,7780,WL,A,7.0
2,13.961999893188477,learn,46038.00010681152,Tue Mar 17 2026 15:20:23 GMT-0500 (Central Daylight Time),345545.5,A,train,O,n,51,1,948.5,344597.0,7780,WL,A,7.0
2,14.464999914169312,learn,45535.00008583069,Tue Mar 17 2026 15:20:23 GMT-0500 (Central Daylight Time),346048.40000009537,A,trainenter,O,enter,491,1,1451.4000000953674,344597.0,7780,WL,A,7.0
2,15.062000036239624,learn,44937.999963760376,Tue Mar 17 2026 15:20:23 GMT-0500 (Central Daylight Time),346646.10000002384,A,m,O,m,588,1,597.5,346048.60000002384,7780,WL,A,8.0
2,15.16100001335144,learn,44838.99998664856,Tue Mar 17 2026 15:20:23 GMT-0500 (Central Daylight Time),346744.7000000477,A,me,O,e,92,1,696.1000000238419,346048.60000002384,7780,WL,A,8.0
2,15.345999956130981,learn,44654.00004386902,Tue Mar 17 2026 15:20:23 GMT-0500 (Central Daylight Time),346929.3000000715,A,mea,O,a,173,1,880.7000000476837,346048.60000002384,7780,WL,A,8.0
2,15.51200008392334,learn,44487.99991607666,Tue Mar 17 2026 15:20:23 GMT-0500 (Central Daylight Time),347096.0,A,mead,O,d,154,1,1047.3999999761581,346048.60000002384,7780,WL,A,8.0
2,15.796000003814697,learn,44203.9999961853,Tue Mar 17 2026 15:20:23 GMT-0500 (Central Daylight Time),347379.5,A,meado,O,o,275,1,1330.8999999761581,346048.60000002384,7780,WL,A,8.0
2,15.994999885559082,learn,44005.00011444092,Tue Mar 17 2026 15:20:23 GMT-0500 (Central Daylight Time),347578.60000002384,A,meadow,O,w,193,1,1530.0,346048.60000002384,7780,WL,A,8.0
2,16.677000045776367,learn,43322.99995422363,Tue Mar 17 2026 15:20:23 GMT-0500 (Central Daylight Time),348261.10000002384,A,meadowenter,O,enter,669,1,2212.5,346048.60000002384,7780,WL,A,8.0
2,18.91100001335144,learn,41088.99998664856,Tue Mar 17 2026 15:20:23 GMT-0500 (Central Daylight Time),350494.5,A,f,O,f,2216,1,2233.2999999523163,348261.2000000477,7780,WL,A,9.0
2,19.111000061035156,learn,40888.999938964844,Tue Mar 17 2026 15:20:23 GMT-0500 (Central Daylight Time),350694.90000009537,A,fl,O,l,181,1,2433.7000000476837,348261.2000000477,7780,WL,A,9.0
2,19.312000036239624,learn,40687.999963760376,Tue Mar 17 2026 15:20:23 GMT-0500 (Central Daylight Time),350896.10000002384,A,flo,O,o,179,1,2634.899999976158,348261.2000000477,7780,WL,A,9.0
2,19.461999893188477,learn,40538.00010681152,Tue Mar 17 2026 15:20:23 GMT-0500 (Central Daylight Time),351045.40000009537,A,flow,O,w,129,1,2784.2000000476837,348261.2000000477,7780,WL,A,9.0
2,19.57800006866455,learn,40421.99993133545,Tue Mar 17 2026 15:20:23 GMT-0500 (Central Daylight Time),351161.90000009537,A,flowe,O,e,95,1,2900.7000000476837,348261.2000000477,7780,WL,A,9.0
2,19.677000045776367,learn,40322.99995422363,Tue Mar 17 2026 15:20:23 GMT-0500 (Central Daylight Time),351260.90000009537,A,flower,O,r,87,1,2999.7000000476837,348261.2000000477,7780,WL,A,9.0
2,20.691999912261963,learn,39308.00008773804,Tue Mar 17 2026 15:20:23 GMT-0500 (Central Daylight Time),352276.2000000477,A,flowerenter,O,enter,998,1,4015.0,348261.2000000477,7780,WL,A,9.0
2,22.075999975204468,learn,37924.00002479553,Tue Mar 17 2026 15:20:23 GMT-0500 (Central Daylight Time),353659.90000009537,A,r,O,r,1366,1,1383.4000000953674,352276.5,7780,WL,A,10.0
2,22.20899987220764,learn,37791.00012779236,Tue Mar 17 2026 15:20:23 GMT-0500 (Central Daylight Time),353792.8000000715,A,ru,O,u,128,1,1516.3000000715256,352276.5,7780,WL,A,10.0
2,22.377000093460083,learn,37622.99990653992,Tue Mar 17 2026 15:20:23 GMT-0500 (Central Daylight Time),353960.40000009537,A,rug,O,g,147,1,1683.9000000953674,352276.5,7780,WL,A,10.0
2,23.443000078201294,learn,36556.999921798706,Tue Mar 17 2026 15:20:23 GMT-0500 (Central Daylight Time),355026.60000002384,A,rugenter,O,enter,1058,1,2750.100000023842,352276.5,7780,WL,A,10.0
2,27.757999897003174,learn,32242.000102996826,Tue Mar 17 2026 15:20:23 GMT-0500 (Central Daylight Time),359342.0,A,b,O,b,4296,1,4315.099999904633,355026.90000009537,7780,WL,A,11.0
2,27.92300009727478,learn,32076.99990272522,Tue Mar 17 2026 15:20:23 GMT-0500 (Central Daylight Time),359507.60000002384,A,bu,O,u,147,1,4480.699999928474,355026.90000009537,7780,WL,A,11.0
2,28.04099988937378,learn,31959.00011062622,Tue Mar 17 2026 15:20:23 GMT-0500 (Central Daylight Time),359625.60000002384,A,but,O,t,98,1,4598.699999928474,355026.90000009537,7780,WL,A,11.0
2,28.174000024795532,learn,31825.999975204468,Tue Mar 17 2026 15:20:23 GMT-0500 (Central Daylight Time),359758.2000000477,A,butt,O,t,122,1,4731.299999952316,355026.90000009537,7780,WL,A,11.0
2,28.342000007629395,learn,31657.999992370605,Tue Mar 17 2026 15:20:23 GMT-0500 (Central Daylight Time),359926.0,A,butto,O,o,157,1,4899.099999904633,355026.90000009537,7780,WL,A,11.0
2,28.42300009727478,learn,31576.99990272522,Tue Mar 17 2026 15:20:23 GMT-0500 (Central Daylight Time),360007.5,A,button,O,n,69,1,4980.599999904633,355026.90000009537,7780,WL,A,11.0
2,29.026000022888184,learn,30973.999977111816,Tue Mar 17 2026 15:20:23 GMT-0500 (Central Daylight Time),360609.60000002384,A,buttonenter,O,enter,597,1,5582.699999928474,355026.90000009537,7780,WL,A,11.0
2,29.625,learn,30375.0,Tue Mar 17 2026 15:20:23 GMT-0500 (Central Daylight Time),361209.0,A,f,O,f,577,1,599.0999999046326,360609.90000009537,7780,WL,A,12.0
2,29.740999937057495,learn,30259.000062942505,Tue Mar 17 2026 15:20:23 GMT-0500 (Central Daylight Time),361325.60000002384,A,fi,O,i,106,1,715.6999999284744,360609.90000009537,7780,WL,A,12.0
2,29.842000007629395,learn,30157.999992370605,Tue Mar 17 2026 15:20:23 GMT-0500 (Central Daylight Time),361426.10000002384,A,fin,O,n,75,1,816.1999999284744,360609.90000009537,7780,WL,A,12.0
2,29.94000005722046,learn,30059.99994277954,Tue Mar 17 2026 15:20:23 GMT-0500 (Central Daylight Time),361523.7000000477,A,fing,O,g,78,1,913.7999999523163,360609.90000009537,7780,WL,A,12.0
2,30.10699987411499,learn,29893.00012588501,Tue Mar 17 2026 15:20:23 GMT-0500 (Central Daylight Time),361691.0,A,finge,O,e,151,1,1081.0999999046326,360609.90000009537,7780,WL,A,12.0
2,30.20799994468689,learn,29792.00005531311,Tue Mar 17 2026 15:20:23 GMT-0500 (Central Daylight Time),361791.7000000477,A,finger,O,r,87,1,1181.7999999523163,360609.90000009537,7780,WL,A,12.0
2,30.624000072479248,learn,29375.999927520752,Tue Mar 17 2026 15:20:23 GMT-0500 (Central Daylight Time),362207.90000009537,A,fingerenter,O,enter,402,1,1598.0,360609.90000009537,7780,WL,A,12.0
2,30.957000017166138,learn,29042.999982833862,Tue Mar 17 2026 15:20:23 GMT-0500 (Central Daylight Time),362540.90000009537,A,s,O,s,315,1,332.7000000476837,362208.2000000477,7780,WL,A,13.0
2,31.10699987411499,learn,28893.00012588501,Tue Mar 17 2026 15:20:23 GMT-0500 (Central Daylight Time),362690.7000000477,A,sa,O,a,127,1,482.5,362208.2000000477,7780,WL,A,13.0
2,31.841000080108643,learn,28158.999919891357,Tue Mar 17 2026 15:20:23 GMT-0500 (Central Daylight Time),363424.90000009537,A,sal,O,l,714,1,1216.7000000476837,362208.2000000477,7780,WL,A,13.0
2,31.937999963760376,learn,28062.000036239624,Tue Mar 17 2026 15:20:23 GMT-0500 (Central Daylight Time),363522.3000000715,A,salt,O,t,80,1,1314.1000000238419,362208.2000000477,7780,WL,A,13.0
2,32.33999991416931,learn,27660.00008583069,Tue Mar 17 2026 15:20:23 GMT-0500 (Central Daylight Time),363923.8000000715,A,saltenter,O,enter,395,1,1715.6000000238419,362208.2000000477,7780,WL,A,13.0
2,38.937000036239624,learn,21062.999963760376,Tue Mar 17 2026 15:20:23 GMT-0500 (Central Daylight Time),370521.2000000477,A,h,O,h,6592,1,6597.200000047684,363924.0,7780,WL,A,14.0
2,39.0550000667572,learn,20944.999933242798,Tue Mar 17 2026 15:20:23 GMT-0500 (Central Daylight Time),370639.10000002384,A,ha,O,a,107,1,6715.100000023842,363924.0,7780,WL,A,14.0
2,39.187999963760376,learn,20812.000036239624,Tue Mar 17 2026 15:20:23 GMT-0500 (Central Daylight Time),370772.5,A,har,O,r,127,1,6848.5,363924.0,7780,WL,A,14.0
2,39.38800001144409,learn,20611.99998855591,Tue Mar 17 2026 15:20:23 GMT-0500 (Central Daylight Time),370972.2000000477,A,harp,O,p,183,1,7048.200000047684,363924.0,7780,WL,A,14.0
2,39.88800001144409,learn,20111.99998855591,Tue Mar 17 2026 15:20:23 GMT-0500 (Central Daylight Time),371471.7000000477,A,harpenter,O,enter,487,1,7547.700000047684,363924.0,7780,WL,A,14.0
2,60.013999938964844,learn,-13.99993896484375,Tue Mar 17 2026 15:20:23 GMT-0500 (Central Daylight Time),391597.7000000477,A,None,O,None,20120,1,20125.700000047684,371472.0,7780,WL,A,15.0
3,1.3320000171661377,learn,58667.99998283386,Tue Mar 17 2026 15:20:23 GMT-0500 (Central Daylight Time),462859.0,A,l,O,l,1317,1,1332.2999999523163,461526.7000000477,7780,WL,A,1.0
3,1.565999984741211,learn,58434.00001525879,Tue Mar 17 2026 15:20:23 GMT-0500 (Central Daylight Time),463092.2000000477,A,lo,O,o,216,1,1565.5,461526.7000000477,7780,WL,A,1.0
3,1.7160000801086426,learn,58283.99991989136,Tue Mar 17 2026 15:20:23 GMT-0500 (Central Daylight Time),463242.5,A,log,O,g,136,1,1715.7999999523163,461526.7000000477,7780,WL,A,1.0
3,3.0980000495910645,learn,56901.999950408936,Tue Mar 17 2026 15:20:23 GMT-0500 (Central Daylight Time),464624.60000002384,A,logenter,O,enter,1368,1,3097.899999976158,461526.7000000477,7780,WL,A,1.0
3,3.7150001525878906,learn,56284.99984741211,Tue Mar 17 2026 15:20:23 GMT-0500 (Central Daylight Time),465242.0,A,k,O,k,603,1,617.1999999284744,464624.8000000715,7780,WL,A,2.0
3,3.8320000171661377,learn,56167.99998283386,Tue Mar 17 2026 15:20:23 GMT-0500 (Central Daylight Time),465358.7000000477,A,ke,O,e,96,1,733.8999999761581,464624.8000000715,7780,WL,A,2.0
3,4.14900016784668,learn,55850.99983215332,Tue Mar 17 2026 15:20:23 GMT-0500 (Central Daylight Time),465675.40000009537,A,key,O,y,307,1,1050.6000000238419,464624.8000000715,7780,WL,A,2.0
3,4.664999961853027,learn,55335.00003814697,Tue Mar 17 2026 15:20:23 GMT-0500 (Central Daylight Time),466191.3000000715,A,keyenter,O,enter,503,1,1566.5,464624.8000000715,7780,WL,A,2.0
3,5.116000175476074,learn,54883.999824523926,Tue Mar 17 2026 15:20:23 GMT-0500 (Central Daylight Time),466642.3000000715,A,r,O,r,428,1,450.7000000476837,466191.60000002384,7780,WL,A,3.0
3,5.2820000648498535,learn,54717.99993515015,Tue Mar 17 2026 15:20:23 GMT-0500 (Central Daylight Time),466808.2000000477,A,ra,O,a,151,1,616.6000000238419,466191.60000002384,7780,WL,A,3.0
3,5.414999961853027,learn,54585.00003814697,Tue Mar 17 2026 15:20:23 GMT-0500 (Central Daylight Time),466941.2000000477,A,rat,O,t,113,1,749.6000000238419,466191.60000002384,7780,WL,A,3.0
3,5.54800009727478,learn,54451.99990272522,Tue Mar 17 2026 15:20:23 GMT-0500 (Central Daylight Time),467074.60000002384,A,ratt,O,t,124,1,883.0,466191.60000002384,7780,WL,A,3.0
3,5.732000112533569,learn,54267.99988746643,Tue Mar 17 2026 15:20:23 GMT-0500 (Central Daylight Time),467258.10000002384,A,rattl,O,l,167,1,1066.5,466191.60000002384,7780,WL,A,3.0
3,5.88100004196167,learn,54118.99995803833,Tue Mar 17 2026 15:20:23 GMT-0500 (Central Daylight Time),467407.40000009537,A,rattle,O,e,137,1,1215.8000000715256,466191.60000002384,7780,WL,A,3.0
3,6.480000019073486,learn,53519.999980926514,Tue Mar 17 2026 15:20:23 GMT-0500 (Central Daylight Time),468006.2000000477,A,rattleenter,O,enter,579,1,1814.6000000238419,466191.60000002384,7780,WL,A,3.0
3,7.014000177383423,learn,52985.99982261658,Tue Mar 17 2026 15:20:23 GMT-0500 (Central Daylight Time),468540.5,A,g,O,g,517,1,534.0,468006.5,7780,WL,A,4.0
3,7.14900016784668,learn,52850.99983215332,Tue Mar 17 2026 15:20:23 GMT-0500 (Central Daylight Time),468675.3000000715,A,go,O,o,129,1,668.8000000715256,468006.5,7780,WL,A,4.0
3,7.328999996185303,learn,52671.0000038147,Tue Mar 17 2026 15:20:23 GMT-0500 (Central Daylight Time),468856.0,A,gol,O,l,175,1,849.5,468006.5,7780,WL,A,4.0
3,7.463000059127808,learn,52536.99994087219,Tue Mar 17 2026 15:20:23 GMT-0500 (Central Daylight Time),468989.3000000715,A,gold,O,d,124,1,982.8000000715256,468006.5,7780,WL,A,4.0
3,8.147000074386597,learn,51852.9999256134,Tue Mar 17 2026 15:20:23 GMT-0500 (Central Daylight Time),469673.3000000715,A,goldenter,O,enter,672,1,1666.8000000715256,468006.5,7780,WL,A,4.0
3,10.963000059127808,learn,49036.99994087219,Tue Mar 17 2026 15:20:23 GMT-0500 (Central Daylight Time),472489.8000000715,A,c,O,c,2804,1,2816.2000000476837,469673.60000002384,7780,WL,A,5.0
3,11.062999963760376,learn,48937.000036239624,Tue Mar 17 2026 15:20:23 GMT-0500 (Central Daylight Time),472589.10000002384,A,ch,O,h,89,1,2915.5,469673.60000002384,7780,WL,A,5.0
3,11.196000099182129,learn,48803.99990081787,Tue Mar 17 2026 15:20:23 GMT-0500 (Central Daylight Time),472723.10000002384,A,chi,O,i,128,1,3049.5,469673.60000002384,7780,WL,A,5.0
3,11.38100004196167,learn,48618.99995803833,Tue Mar 17 2026 15:20:23 GMT-0500 (Central Daylight Time),472907.2000000477,A,chim,O,m,179,1,3233.600000023842,469673.60000002384,7780,WL,A,5.0
3,11.913000106811523,learn,48086.99989318848,Tue Mar 17 2026 15:20:23 GMT-0500 (Central Daylight Time),473439.10000002384,A,chimn,O,n,519,1,3765.5,469673.60000002384,7780,WL,A,5.0
3,12.062000036239624,learn,47937.999963760376,Tue Mar 17 2026 15:20:23 GMT-0500 (Central Daylight Time),473588.8000000715,A,chimne,O,e,131,1,3915.2000000476837,469673.60000002384,7780,WL,A,5.0
3,12.213000059127808,learn,47786.99994087219,Tue Mar 17 2026 15:20:23 GMT-0500 (Central Daylight Time),473739.2000000477,A,chimney,O,y,133,1,4065.600000023842,469673.60000002384,7780,WL,A,5.0
3,12.914000034332275,learn,47085.999965667725,Tue Mar 17 2026 15:20:23 GMT-0500 (Central Daylight Time),474440.10000002384,A,chimneyenter,O,enter,681,1,4766.5,469673.60000002384,7780,WL,A,5.0
3,13.462000131607056,learn,46537.999868392944,Tue Mar 17 2026 15:20:23 GMT-0500 (Central Daylight Time),474988.3000000715,A,a,O,a,539,1,547.8000000715256,474440.5,7780,WL,A,6.0
3,13.662000179290771,learn,46337.99982070923,Tue Mar 17 2026 15:20:23 GMT-0500 (Central Daylight Time),475188.8000000715,A,ap,O,p,180,1,748.3000000715256,474440.5,7780,WL,A,6.0
3,13.795000076293945,learn,46204.999923706055,Tue Mar 17 2026 15:20:23 GMT-0500 (Central Daylight Time),475322.0,A,app,O,p,117,1,881.5,474440.5,7780,WL,A,6.0
3,14.212000131607056,learn,45787.999868392944,Tue Mar 17 2026 15:20:23 GMT-0500 (Central Daylight Time),475738.7000000477,A,appe,O,e,410,1,1298.2000000476837,474440.5,7780,WL,A,6.0
3,14.763000011444092,learn,45236.99998855591,Tue Mar 17 2026 15:20:23 GMT-0500 (Central Daylight Time),476289.3000000715,A,app,O,backspace,543,1,1848.8000000715256,474440.5,7780,WL,A,6.0
3,15.344000101089478,learn,44655.99989891052,Tue Mar 17 2026 15:20:23 GMT-0500 (Central Daylight Time),476870.2000000477,A,appl,O,l,562,1,2429.7000000476837,474440.5,7780,WL,A,6.0
3,15.460000038146973,learn,44539.99996185303,Tue Mar 17 2026 15:20:23 GMT-0500 (Central Daylight Time),476986.7000000477,A,apple,O,e,111,1,2546.2000000476837,474440.5,7780,WL,A,6.0
3,16.062000036239624,learn,43937.999963760376,Tue Mar 17 2026 15:20:23 GMT-0500 (Central Daylight Time),477588.60000002384,A,appleenter,O,enter,595,1,3148.100000023842,474440.5,7780,WL,A,6.0
3,18.860000133514404,learn,41139.999866485596,Tue Mar 17 2026 15:20:23 GMT-0500 (Central Daylight Time),480386.90000009537,A,b,O,b,2783,1,2798.100000023842,477588.8000000715,7780,WL,A,7.0
3,19.011000156402588,learn,40988.99984359741,Tue Mar 17 2026 15:20:23 GMT-0500 (Central Daylight Time),480538.2000000477,A,bo,O,o,146,1,2949.399999976158,477588.8000000715,7780,WL,A,7.0
3,19.16000008583069,learn,40839.99991416931,Tue Mar 17 2026 15:20:23 GMT-0500 (Central Daylight Time),480687.2000000477,A,boo,O,o,124,1,3098.399999976158,477588.8000000715,7780,WL,A,7.0
3,19.360000133514404,learn,40639.999866485596,Tue Mar 17 2026 15:20:23 GMT-0500 (Central Daylight Time),480887.2000000477,A,book,O,k,181,1,3298.399999976158,477588.8000000715,7780,WL,A,7.0
3,20.042999982833862,learn,39957.00001716614,Tue Mar 17 2026 15:20:23 GMT-0500 (Central Daylight Time),481569.60000002384,A,bookenter,O,enter,676,1,3980.7999999523163,477588.8000000715,7780,WL,A,7.0
3,20.460000038146973,learn,39539.99996185303,Tue Mar 17 2026 15:20:23 GMT-0500 (Central Daylight Time),481987.5,A,t,O,t,412,1,417.6999999284744,481569.8000000715,7780,WL,A,8.0
3,20.610000133514404,learn,39389.999866485596,Tue Mar 17 2026 15:20:23 GMT-0500 (Central Daylight Time),482137.10000002384,A,tr,O,r,144,1,567.2999999523163,481569.8000000715,7780,WL,A,8.0
3,20.742000102996826,learn,39257.999897003174,Tue Mar 17 2026 15:20:23 GMT-0500 (Central Daylight Time),482269.5,A,tra,O,a,122,1,699.6999999284744,481569.8000000715,7780,WL,A,8.0
3,20.89300012588501,learn,39106.99987411499,Tue Mar 17 2026 15:20:23 GMT-0500 (Central Daylight Time),482420.2000000477,A,trai,O,i,127,1,850.3999999761581,481569.8000000715,7780,WL,A,8.0
3,20.942000150680542,learn,39057.99984931946,Tue Mar 17 2026 15:20:23 GMT-0500 (Central Daylight Time),482468.5,A,train,O,n,35,1,898.6999999284744,481569.8000000715,7780,WL,A,8.0
3,22.258000135421753,learn,37741.99986457825,Tue Mar 17 2026 15:20:23 GMT-0500 (Central Daylight Time),483784.90000009537,A,trainenter,O,enter,1303,1,2215.100000023842,481569.8000000715,7780,WL,A,8.0
3,23.776000022888184,learn,36223.99997711182,Tue Mar 17 2026 15:20:23 GMT-0500 (Central Daylight Time),485302.8000000715,A,f,O,f,1508,1,1517.7000000476837,483785.10000002384,7780,WL,A,9.0
3,23.909000158309937,learn,36090.99984169006,Tue Mar 17 2026 15:20:23 GMT-0500 (Central Daylight Time),485435.7000000477,A,fl,O,l,116,1,1650.6000000238419,483785.10000002384,7780,WL,A,9.0
3,24.092000007629395,learn,35907.999992370605,Tue Mar 17 2026 15:20:23 GMT-0500 (Central Daylight Time),485619.3000000715,A,flo,O,o,167,1,1834.2000000476837,483785.10000002384,7780,WL,A,9.0
3,24.2260000705719,learn,35773.9999294281,Tue Mar 17 2026 15:20:23 GMT-0500 (Central Daylight Time),485753.2000000477,A,flow,O,w,127,1,1968.1000000238419,483785.10000002384,7780,WL,A,9.0
3,24.322999954223633,learn,35677.00004577637,Tue Mar 17 2026 15:20:23 GMT-0500 (Central Daylight Time),485850.3000000715,A,flowe,O,e,88,1,2065.2000000476837,483785.10000002384,7780,WL,A,9.0
3,24.44000005722046,learn,35559.99994277954,Tue Mar 17 2026 15:20:23 GMT-0500 (Central Daylight Time),485967.40000009537,A,flower,O,r,107,1,2182.3000000715256,483785.10000002384,7780,WL,A,9.0
3,25.093000173568726,learn,34906.999826431274,Tue Mar 17 2026 15:20:23 GMT-0500 (Central Daylight Time),486620.0,A,flowerenter,O,enter,645,1,2834.899999976158,483785.10000002384,7780,WL,A,9.0
3,25.54100012779236,learn,34458.99987220764,Tue Mar 17 2026 15:20:23 GMT-0500 (Central Daylight Time),487067.90000009537,A,r,O,r,431,1,447.60000002384186,486620.3000000715,7780,WL,A,10.0
3,25.69099998474121,learn,34309.00001525879,Tue Mar 17 2026 15:20:23 GMT-0500 (Central Daylight Time),487218.3000000715,A,ru,O,u,143,1,598.0,486620.3000000715,7780,WL,A,10.0
3,25.824000120162964,learn,34175.999879837036,Tue Mar 17 2026 15:20:23 GMT-0500 (Central Daylight Time),487351.10000002384,A,rug,O,g,122,1,730.7999999523163,486620.3000000715,7780,WL,A,10.0
3,26.27400016784668,learn,33725.99983215332,Tue Mar 17 2026 15:20:23 GMT-0500 (Central Daylight Time),487801.40000009537,A,rugenter,O,enter,435,1,1181.1000000238419,486620.3000000715,7780,WL,A,10.0
3,26.807000160217285,learn,33192.999839782715,Tue Mar 17 2026 15:20:23 GMT-0500 (Central Daylight Time),488333.8000000715,A,m,O,m,514,1,532.3000000715256,487801.5,7780,WL,A,11.0
3,26.891000032424927,learn,33108.99996757507,Tue Mar 17 2026 15:20:23 GMT-0500 (Central Daylight Time),488418.0,A,me,O,e,63,1,616.5,487801.5,7780,WL,A,11.0
3,27.058000087738037,learn,32941.99991226196,Tue Mar 17 2026 15:20:23 GMT-0500 (Central Daylight Time),488585.0,A,mea,O,a,143,1,783.5,487801.5,7780,WL,A,11.0
3,27.19000005722046,learn,32809.99994277954,Tue Mar 17 2026 15:20:23 GMT-0500 (Central Daylight Time),488717.40000009537,A,mead,O,d,112,1,915.9000000953674,487801.5,7780,WL,A,11.0
3,27.407999992370605,learn,32592.000007629395,Tue Mar 17 2026 15:20:23 GMT-0500 (Central Daylight Time),488935.10000002384,A,meado,O,o,197,1,1133.6000000238419,487801.5,7780,WL,A,11.0
3,27.591000080108643,learn,32408.999919891357,Tue Mar 17 2026 15:20:23 GMT-0500 (Central Daylight Time),489118.5,A,meadow,O,w,172,1,1317.0,487801.5,7780,WL,A,11.0
3,27.924000024795532,learn,32075.999975204468,Tue Mar 17 2026 15:20:23 GMT-0500 (Central Daylight Time),489451.3000000715,A,meadowenter,O,enter,317,1,1649.8000000715256,487801.5,7780,WL,A,11.0
3,28.4060001373291,learn,31593.9998626709,Tue Mar 17 2026 15:20:23 GMT-0500 (Central Daylight Time),489933.10000002384,A,b,O,b,472,1,481.60000002384186,489451.5,7780,WL,A,12.0
3,28.574000120162964,learn,31425.999879837036,Tue Mar 17 2026 15:20:23 GMT-0500 (Central Daylight Time),490101.3000000715,A,bu,O,u,150,1,649.8000000715256,489451.5,7780,WL,A,12.0
3,28.69000005722046,learn,31309.99994277954,Tue Mar 17 2026 15:20:23 GMT-0500 (Central Daylight Time),490216.90000009537,A,but,O,t,101,1,765.4000000953674,489451.5,7780,WL,A,12.0
3,28.84000015258789,learn,31159.99984741211,Tue Mar 17 2026 15:20:23 GMT-0500 (Central Daylight Time),490366.5,A,butt,O,t,137,1,915.0,489451.5,7780,WL,A,12.0
3,29.307000160217285,learn,30692.999839782715,Tue Mar 17 2026 15:20:23 GMT-0500 (Central Daylight Time),490833.8000000715,A,butto,O,o,454,1,1382.3000000715256,489451.5,7780,WL,A,12.0
3,29.44000005722046,learn,30559.99994277954,Tue Mar 17 2026 15:20:23 GMT-0500 (Central Daylight Time),490966.90000009537,A,button,O,n,123,1,1515.4000000953674,489451.5,7780,WL,A,12.0
3,30.305999994277954,learn,29694.000005722046,Tue Mar 17 2026 15:20:23 GMT-0500 (Central Daylight Time),491833.3000000715,A,buttonenter,O,enter,852,1,2381.8000000715256,489451.5,7780,WL,A,12.0
3,30.69099998474121,learn,29309.00001525879,Tue Mar 17 2026 15:20:23 GMT-0500 (Central Daylight Time),492217.60000002384,A,s,O,s,363,1,384.10000002384186,491833.5,7780,WL,A,13.0
3,30.84000015258789,learn,29159.99984741211,Tue Mar 17 2026 15:20:23 GMT-0500 (Central Daylight Time),492366.90000009537,A,sa,O,a,137,1,533.4000000953674,491833.5,7780,WL,A,13.0
3,31.00600004196167,learn,28993.99995803833,Tue Mar 17 2026 15:20:23 GMT-0500 (Central Daylight Time),492532.7000000477,A,sal,O,l,156,1,699.2000000476837,491833.5,7780,WL,A,13.0
3,31.17300009727478,learn,28826.99990272522,Tue Mar 17 2026 15:20:23 GMT-0500 (Central Daylight Time),492699.90000009537,A,salt,O,t,145,1,866.4000000953674,491833.5,7780,WL,A,13.0
3,31.956000089645386,learn,28043.999910354614,Tue Mar 17 2026 15:20:23 GMT-0500 (Central Daylight Time),493482.8000000715,A,saltenter,O,enter,774,1,1649.3000000715256,491833.5,7780,WL,A,13.0
3,32.38800001144409,learn,27611.99998855591,Tue Mar 17 2026 15:20:23 GMT-0500 (Central Daylight Time),493915.40000009537,A,f,O,f,416,1,432.3000000715256,493483.10000002384,7780,WL,A,14.0
3,32.539000034332275,learn,27460.999965667725,Tue Mar 17 2026 15:20:23 GMT-0500 (Central Daylight Time),494066.2000000477,A,fi,O,i,138,1,583.1000000238419,493483.10000002384,7780,WL,A,14.0
3,32.621999979019165,learn,27378.000020980835,Tue Mar 17 2026 15:20:23 GMT-0500 (Central Daylight Time),494148.7000000477,A,fin,O,n,63,1,665.6000000238419,493483.10000002384,7780,WL,A,14.0
3,32.706000089645386,learn,27293.999910354614,Tue Mar 17 2026 15:20:23 GMT-0500 (Central Daylight Time),494232.90000009537,A,fing,O,g,68,1,749.8000000715256,493483.10000002384,7780,WL,A,14.0
3,32.9060001373291,learn,27093.9998626709,Tue Mar 17 2026 15:20:23 GMT-0500 (Central Daylight Time),494432.7000000477,A,finge,O,e,177,1,949.6000000238419,493483.10000002384,7780,WL,A,14.0
3,32.97099995613098,learn,27029.00004386902,Tue Mar 17 2026 15:20:23 GMT-0500 (Central Daylight Time),494498.0,A,finger,O,r,58,1,1014.8999999761581,493483.10000002384,7780,WL,A,14.0
3,33.77300000190735,learn,26226.99999809265,Tue Mar 17 2026 15:20:23 GMT-0500 (Central Daylight Time),495299.90000009537,A,fingerenter,O,enter,785,1,1816.8000000715256,493483.10000002384,7780,WL,A,14.0
3,34.27300000190735,learn,25726.99999809265,Tue Mar 17 2026 15:20:23 GMT-0500 (Central Daylight Time),495799.7000000477,A,h,O,h,487,1,499.60000002384186,495300.10000002384,7780,WL,A,15.0
3,34.33800005912781,learn,25661.999940872192,Tue Mar 17 2026 15:20:23 GMT-0500 (Central Daylight Time),495864.8000000715,A,ha,O,a,43,1,564.7000000476837,495300.10000002384,7780,WL,A,15.0
3,34.47099995613098,learn,25529.00004386902,Tue Mar 17 2026 15:20:23 GMT-0500 (Central Daylight Time),495998.2000000477,A,har,O,r,114,1,698.1000000238419,495300.10000002384,7780,WL,A,15.0
3,34.67300009727478,learn,25326.99990272522,Tue Mar 17 2026 15:20:23 GMT-0500 (Central Daylight Time),496200.0,A,harp,O,p,180,1,899.8999999761581,495300.10000002384,7780,WL,A,15.0
3,35.187000036239624,learn,24812.999963760376,Tue Mar 17 2026 15:20:23 GMT-0500 (Central Daylight Time),496713.8000000715,A,harpenter,O,enter,499,1,1413.7000000476837,495300.10000002384,7780,WL,A,15.0
4,1.2339999675750732,learn,58766.00003242493,Tue Mar 17 2026 15:20:23 GMT-0500 (Central Daylight Time),566260.5,A,b,O,b,1227,1,1233.5999999046326,565026.9000000954,7780,WL,A,1.0
4,1.4000000953674316,learn,58599.99990463257,Tue Mar 17 2026 15:20:23 GMT-0500 (Central Daylight Time),566426.5,A,bu,O,u,149,1,1399.5999999046326,565026.9000000954,7780,WL,A,1.0
4,1.566999912261963,learn,58433.00008773804,Tue Mar 17 2026 15:20:23 GMT-0500 (Central Daylight Time),566593.0,A,but,O,t,150,1,1566.0999999046326,565026.9000000954,7780,WL,A,1.0
4,1.7170000076293945,learn,58282.999992370605,Tue Mar 17 2026 15:20:23 GMT-0500 (Central Daylight Time),566743.3000000715,A,butt,O,t,138,1,1716.3999999761581,565026.9000000954,7780,WL,A,1.0
4,1.8840000629425049,learn,58115.999937057495,Tue Mar 17 2026 15:20:23 GMT-0500 (Central Daylight Time),566910.5,A,butto,O,o,147,1,1883.5999999046326,565026.9000000954,7780,WL,A,1.0
4,2.0160000324249268,learn,57983.99996757507,Tue Mar 17 2026 15:20:23 GMT-0500 (Central Daylight Time),567042.3000000715,A,button,O,n,124,1,2015.3999999761581,565026.9000000954,7780,WL,A,1.0
4,2.749000072479248,learn,57250.99992752075,Tue Mar 17 2026 15:20:23 GMT-0500 (Central Daylight Time),567775.5,A,buttonenter,O,enter,713,1,2748.5999999046326,565026.9000000954,7780,WL,A,1.0
4,3.1659998893737793,learn,56834.00011062622,Tue Mar 17 2026 15:20:23 GMT-0500 (Central Daylight Time),568192.2000000477,A,l,O,l,396,1,416.5,567775.7000000477,7780,WL,A,2.0
4,3.3489999771118164,learn,56651.00002288818,Tue Mar 17 2026 15:20:23 GMT-0500 (Central Daylight Time),568375.5,A,lo,O,o,170,1,599.7999999523163,567775.7000000477,7780,WL,A,2.0
4,3.515000104904175,learn,56484.999895095825,Tue Mar 17 2026 15:20:23 GMT-0500 (Central Daylight Time),568541.5,A,log,O,g,155,1,765.7999999523163,567775.7000000477,7780,WL,A,2.0
4,3.933000087738037,learn,56066.99991226196,Tue Mar 17 2026 15:20:23 GMT-0500 (Central Daylight Time),568959.1000000238,A,logenter,O,enter,406,1,1183.3999999761581,567775.7000000477,7780,WL,A,2.0
4,4.433000087738037,learn,55566.99991226196,Tue Mar 17 2026 15:20:23 GMT-0500 (Central Daylight Time),569459.0,A,k,O,k,484,1,499.6999999284744,568959.3000000715,7780,WL,A,3.0
4,4.5309998989105225,learn,55469.00010108948,Tue Mar 17 2026 15:20:23 GMT-0500 (Central Daylight Time),569557.2000000477,A,ke,O,e,79,1,597.8999999761581,568959.3000000715,7780,WL,A,3.0
4,4.730999946594238,learn,55269.00005340576,Tue Mar 17 2026 15:20:23 GMT-0500 (Central Daylight Time),569757.4000000954,A,key,O,y,191,1,798.1000000238419,568959.3000000715,7780,WL,A,3.0
4,5.200000047683716,learn,54799.999952316284,Tue Mar 17 2026 15:20:23 GMT-0500 (Central Daylight Time),570225.9000000954,A,keyenter,O,enter,454,1,1266.6000000238419,568959.3000000715,7780,WL,A,3.0
4,5.615999937057495,learn,54384.000062942505,Tue Mar 17 2026 15:20:23 GMT-0500 (Central Daylight Time),570642.9000000954,A,r,O,r,410,1,416.8000000715256,570226.1000000238,7780,WL,A,4.0
4,5.765000104904175,learn,54234.999895095825,Tue Mar 17 2026 15:20:23 GMT-0500 (Central Daylight Time),570791.2000000477,A,ra,O,a,137,1,565.1000000238419,570226.1000000238,7780,WL,A,4.0
4,5.898000001907349,learn,54101.99999809265,Tue Mar 17 2026 15:20:23 GMT-0500 (Central Daylight Time),570924.6000000238,A,rat,O,t,117,1,698.5,570226.1000000238,7780,WL,A,4.0
4,6.0309998989105225,learn,53969.00010108948,Tue Mar 17 2026 15:20:23 GMT-0500 (Central Daylight Time),571057.7000000477,A,ratt,O,t,119,1,831.6000000238419,570226.1000000238,7780,WL,A,4.0
4,6.183000087738037,learn,53816.99991226196,Tue Mar 17 2026 15:20:23 GMT-0500 (Central Daylight Time),571209.4000000954,A,rattl,O,l,146,1,983.3000000715256,570226.1000000238,7780,WL,A,4.0
4,6.448999881744385,learn,53551.000118255615,Tue Mar 17 2026 15:20:23 GMT-0500 (Central Daylight Time),571475.4000000954,A,rattle,O,e,249,1,1249.3000000715256,570226.1000000238,7780,WL,A,4.0
4,6.815999984741211,learn,53184.00001525879,Tue Mar 17 2026 15:20:23 GMT-0500 (Central Daylight Time),571842.0,A,rattleenter,O,enter,348,1,1615.8999999761581,570226.1000000238,7780,WL,A,4.0
4,7.29800009727478,learn,52701.99990272522,Tue Mar 17 2026 15:20:23 GMT-0500 (Central Daylight Time),572324.4000000954,A,g,O,g,474,1,482.10000002384186,571842.3000000715,7780,WL,A,5.0
4,7.430999994277954,learn,52569.000005722046,Tue Mar 17 2026 15:20:23 GMT-0500 (Central Daylight Time),572457.5,A,go,O,o,126,1,615.1999999284744,571842.3000000715,7780,WL,A,5.0
4,7.71399998664856,learn,52286.00001335144,Tue Mar 17 2026 15:20:23 GMT-0500 (Central Daylight Time),572740.3000000715,A,gol,O,l,274,1,898.0,571842.3000000715,7780,WL,A,5.0
4,8.414999961853027,learn,51585.00003814697,Tue Mar 17 2026 15:20:23 GMT-0500 (Central Daylight Time),573441.3000000715,A,golenter,O,enter,687,1,1599.0,571842.3000000715,7780,WL,A,5.0
4,8.563999891281128,learn,51436.00010871887,Tue Mar 17 2026 15:20:23 GMT-0500 (Central Daylight Time),573590.6000000238,A,d,O,d,138,1,149.10000002384186,573441.5,7780,WL,A,6.0
4,9.364000082015991,learn,50635.99991798401,Tue Mar 17 2026 15:20:23 GMT-0500 (Central Daylight Time),574390.7000000477,A,,O,backspace,780,1,949.2000000476837,573441.5,7780,WL,A,6.0
4,9.513999938964844,learn,50486.000061035156,Tue Mar 17 2026 15:20:23 GMT-0500 (Central Daylight Time),574539.9000000954,A,,O,backspace,134,1,1098.4000000953674,573441.5,7780,WL,A,6.0
4,9.71399998664856,learn,50286.00001335144,Tue Mar 17 2026 15:20:23 GMT-0500 (Central Daylight Time),574740.3000000715,A,,O,backspace,180,1,1298.8000000715256,573441.5,7780,WL,A,6.0
4,10.29699993133545,learn,49703.00006866455,Tue Mar 17 2026 15:20:23 GMT-0500 (Central Daylight Time),575323.5,A,g,O,g,567,1,1882.0,573441.5,7780,WL,A,6.0
4,10.480000019073486,learn,49519.999980926514,Tue Mar 17 2026 15:20:23 GMT-0500 (Central Daylight Time),575506.6000000238,A,go,O,o,178,1,2065.100000023842,573441.5,7780,WL,A,6.0
4,10.648000001907349,learn,49351.99999809265,Tue Mar 17 2026 15:20:23 GMT-0500 (Central Daylight Time),575674.0,A,gol,O,l,159,1,2232.5,573441.5,7780,WL,A,6.0
4,10.79699993133545,learn,49203.00006866455,Tue Mar 17 2026 15:20:23 GMT-0500 (Central Daylight Time),575823.1000000238,A,gold,O,d,127,1,2381.600000023842,573441.5,7780,WL,A,6.0
4,11.19700002670288,learn,48802.99997329712,Tue Mar 17 2026 15:20:23 GMT-0500 (Central Daylight Time),576223.3000000715,A,goldenter,O,enter,379,1,2781.8000000715256,573441.5,7780,WL,A,6.0
4,16.744999885559082,learn,43255.00011444092,Tue Mar 17 2026 15:20:23 GMT-0500 (Central Daylight Time),581771.4000000954,A,b,O,b,5527,1,5547.900000095367,576223.5,7780,WL,A,7.0
4,16.92799997329712,learn,43072.00002670288,Tue Mar 17 2026 15:20:23 GMT-0500 (Central Daylight Time),581954.7000000477,A,bo,O,o,169,1,5731.200000047684,576223.5,7780,WL,A,7.0
4,17.061000108718872,learn,42938.99989128113,Tue Mar 17 2026 15:20:23 GMT-0500 (Central Daylight Time),582087.3000000715,A,boo,O,o,112,1,5863.800000071526,576223.5,7780,WL,A,7.0
4,17.26099991798401,learn,42739.00008201599,Tue Mar 17 2026 15:20:23 GMT-0500 (Central Daylight Time),582287.4000000954,A,book,O,k,187,1,6063.900000095367,576223.5,7780,WL,A,7.0
4,17.811000108718872,learn,42188.99989128113,Tue Mar 17 2026 15:20:23 GMT-0500 (Central Daylight Time),582837.6000000238,A,bookenter,O,enter,539,1,6614.100000023842,576223.5,7780,WL,A,7.0
4,18.210999965667725,learn,41789.000034332275,Tue Mar 17 2026 15:20:23 GMT-0500 (Central Daylight Time),583237.1000000238,A,t,O,t,392,1,399.2999999523163,582837.8000000715,7780,WL,A,8.0
4,18.378000020980835,learn,41621.999979019165,Tue Mar 17 2026 15:20:23 GMT-0500 (Central Daylight Time),583404.3000000715,A,tr,O,r,158,1,566.5,582837.8000000715,7780,WL,A,8.0
4,18.51099991798401,learn,41489.00008201599,Tue Mar 17 2026 15:20:23 GMT-0500 (Central Daylight Time),583537.4000000954,A,tra,O,a,117,1,699.6000000238419,582837.8000000715,7780,WL,A,8.0
4,18.628000020980835,learn,41371.999979019165,Tue Mar 17 2026 15:20:23 GMT-0500 (Central Daylight Time),583654.1000000238,A,trai,O,i,105,1,816.2999999523163,582837.8000000715,7780,WL,A,8.0
4,18.727999925613403,learn,41272.0000743866,Tue Mar 17 2026 15:20:23 GMT-0500 (Central Daylight Time),583754.3000000715,A,train,O,n,77,1,916.5,582837.8000000715,7780,WL,A,8.0
4,19.877000093460083,learn,40122.99990653992,Tue Mar 17 2026 15:20:23 GMT-0500 (Central Daylight Time),584903.5,A,trainenter,O,enter,1135,1,2065.6999999284744,582837.8000000715,7780,WL,A,8.0
4,22.925999879837036,learn,37074.000120162964,Tue Mar 17 2026 15:20:23 GMT-0500 (Central Daylight Time),587952.8000000715,A,g,O,g,3029,1,3049.100000023842,584903.7000000477,7780,WL,A,9.0
4,23.658999919891357,learn,36341.00008010864,Tue Mar 17 2026 15:20:23 GMT-0500 (Central Daylight Time),588685.5,A,,O,backspace,723,1,3781.7999999523163,584903.7000000477,7780,WL,A,9.0
4,24.325999975204468,learn,35674.00002479553,Tue Mar 17 2026 15:20:23 GMT-0500 (Central Daylight Time),589352.7000000477,A,f,O,f,646,1,4449.0,584903.7000000477,7780,WL,A,9.0
4,24.527999877929688,learn,35472.00012207031,Tue Mar 17 2026 15:20:23 GMT-0500 (Central Daylight Time),589554.0,A,fl,O,l,195,1,4650.299999952316,584903.7000000477,7780,WL,A,9.0
4,24.743000030517578,learn,35256.99996948242,Tue Mar 17 2026 15:20:23 GMT-0500 (Central Daylight Time),589769.4000000954,A,flo,O,o,211,1,4865.700000047684,584903.7000000477,7780,WL,A,9.0
4,24.907999992370605,learn,35092.000007629395,Tue Mar 17 2026 15:20:23 GMT-0500 (Central Daylight Time),589934.3000000715,A,flow,O,w,143,1,5030.600000023842,584903.7000000477,7780,WL,A,9.0
4,24.973999977111816,learn,35026.00002288818,Tue Mar 17 2026 15:20:23 GMT-0500 (Central Daylight Time),590000.7000000477,A,flowe,O,e,63,1,5097.0,584903.7000000477,7780,WL,A,9.0
4,25.091000080108643,learn,34908.99991989136,Tue Mar 17 2026 15:20:23 GMT-0500 (Central Daylight Time),590117.5,A,flower,O,r,99,1,5213.799999952316,584903.7000000477,7780,WL,A,9.0
4,25.70799994468689,learn,34292.00005531311,Tue Mar 17 2026 15:20:23 GMT-0500 (Central Daylight Time),590734.1000000238,A,flowerenter,O,enter,599,1,5830.399999976158,584903.7000000477,7780,WL,A,9.0
4,27.674999952316284,learn,32325.000047683716,Tue Mar 17 2026 15:20:23 GMT-0500 (Central Daylight Time),592701.3000000715,A,g,O,g,1950,1,1967.0,590734.3000000715,7780,WL,A,10.0
4,27.825000047683716,learn,32174.999952316284,Tue Mar 17 2026 15:20:23 GMT-0500 (Central Daylight Time),592851.5,A,gu,O,u,144,1,2117.1999999284744,590734.3000000715,7780,WL,A,10.0
4,28.007999897003174,learn,31992.000102996826,Tue Mar 17 2026 15:20:23 GMT-0500 (Central Daylight Time),593034.5,A,gut,O,t,167,1,2300.1999999284744,590734.3000000715,7780,WL,A,10.0
4,28.54099988937378,learn,31459.00011062622,Tue Mar 17 2026 15:20:23 GMT-0500 (Central Daylight Time),593567.6000000238,A,gu,O,backspace,522,1,2833.2999999523163,590734.3000000715,7780,WL,A,10.0
4,28.69099998474121,learn,31309.00001525879,Tue Mar 17 2026 15:20:23 GMT-0500 (Central Daylight Time),593717.3000000715,A,g,O,backspace,140,1,2983.0,590734.3000000715,7780,WL,A,10.0
4,28.825000047683716,learn,31174.999952316284,Tue Mar 17 2026 15:20:23 GMT-0500 (Central Daylight Time),593851.2000000477,A,,O,backspace,125,1,3116.899999976158,590734.3000000715,7780,WL,A,10.0
4,29.506999969482422,learn,30493.000030517578,Tue Mar 17 2026 15:20:23 GMT-0500 (Central Daylight Time),594533.6000000238,A,r,O,r,672,1,3799.2999999523163,590734.3000000715,7780,WL,A,10.0
4,30.02500009536743,learn,29974.99990463257,Tue Mar 17 2026 15:20:23 GMT-0500 (Central Daylight Time),595051.7000000477,A,ru,O,u,512,1,4317.399999976158,590734.3000000715,7780,WL,A,10.0
4,30.157999992370605,learn,29842.000007629395,Tue Mar 17 2026 15:20:23 GMT-0500 (Central Daylight Time),595184.6000000238,A,rug,O,g,111,1,4450.299999952316,590734.3000000715,7780,WL,A,10.0
4,30.5239999294281,learn,29476.0000705719,Tue Mar 17 2026 15:20:23 GMT-0500 (Central Daylight Time),595550.2000000477,A,rugenter,O,enter,353,1,4815.899999976158,590734.3000000715,7780,WL,A,10.0
4,31.058000087738037,learn,28941.999912261963,Tue Mar 17 2026 15:20:23 GMT-0500 (Central Daylight Time),596084.1000000238,A,m,O,m,526,1,533.6999999284744,595550.4000000954,7780,WL,A,11.0
4,31.174000024795532,learn,28825.999975204468,Tue Mar 17 2026 15:20:23 GMT-0500 (Central Daylight Time),596200.0,A,me,O,e,102,1,649.5999999046326,595550.4000000954,7780,WL,A,11.0
4,31.341000080108643,learn,28658.999919891357,Tue Mar 17 2026 15:20:23 GMT-0500 (Central Daylight Time),596367.7000000477,A,mea,O,a,146,1,817.2999999523163,595550.4000000954,7780,WL,A,11.0
4,31.42300009727478,learn,28576.99990272522,Tue Mar 17 2026 15:20:23 GMT-0500 (Central Daylight Time),596449.5,A,mead,O,d,68,1,899.0999999046326,595550.4000000954,7780,WL,A,11.0
4,31.691999912261963,learn,28308.000087738037,Tue Mar 17 2026 15:20:23 GMT-0500 (Central Daylight Time),596718.3000000715,A,meado,O,o,249,1,1167.8999999761581,595550.4000000954,7780,WL,A,11.0
4,31.890000104904175,learn,28109.999895095825,Tue Mar 17 2026 15:20:23 GMT-0500 (Central Daylight Time),596916.0,A,meadow,O,w,190,1,1365.5999999046326,595550.4000000954,7780,WL,A,11.0
4,32.39100003242493,learn,27608.999967575073,Tue Mar 17 2026 15:20:23 GMT-0500 (Central Daylight Time),597417.6000000238,A,meadowenter,O,enter,497,1,1867.1999999284744,595550.4000000954,7780,WL,A,11.0
4,33.08999991416931,learn,26910.00008583069,Tue Mar 17 2026 15:20:23 GMT-0500 (Central Daylight Time),598116.4000000954,A,s,O,s,691,1,698.6000000238419,597417.8000000715,7780,WL,A,12.0
4,33.25699996948242,learn,26743.000030517578,Tue Mar 17 2026 15:20:23 GMT-0500 (Central Daylight Time),598283.6000000238,A,sa,O,a,162,1,865.7999999523163,597417.8000000715,7780,WL,A,12.0
4,33.456000089645386,learn,26543.999910354614,Tue Mar 17 2026 15:20:23 GMT-0500 (Central Daylight Time),598482.9000000954,A,sal,O,l,185,1,1065.1000000238419,597417.8000000715,7780,WL,A,12.0
4,33.60800004005432,learn,26391.99995994568,Tue Mar 17 2026 15:20:23 GMT-0500 (Central Daylight Time),598634.4000000954,A,salt,O,t,129,1,1216.6000000238419,597417.8000000715,7780,WL,A,12.0
4,34.121999979019165,learn,25878.000020980835,Tue Mar 17 2026 15:20:23 GMT-0500 (Central Daylight Time),599149.0,A,saltenter,O,enter,504,1,1731.1999999284744,597417.8000000715,7780,WL,A,12.0
4,34.60599994659424,learn,25394.00005340576,Tue Mar 17 2026 15:20:23 GMT-0500 (Central Daylight Time),599632.9000000954,A,f,O,f,479,1,483.7000000476837,599149.2000000477,7780,WL,A,13.0
4,35.390000104904175,learn,24609.999895095825,Tue Mar 17 2026 15:20:23 GMT-0500 (Central Daylight Time),600416.6000000238,A,fi,O,i,762,1,1267.3999999761581,599149.2000000477,7780,WL,A,13.0
4,35.47199988365173,learn,24528.000116348267,Tue Mar 17 2026 15:20:23 GMT-0500 (Central Daylight Time),600499.1000000238,A,fin,O,n,75,1,1349.8999999761581,599149.2000000477,7780,WL,A,13.0
4,35.60599994659424,learn,24394.00005340576,Tue Mar 17 2026 15:20:23 GMT-0500 (Central Daylight Time),600632.5,A,fing,O,g,111,1,1483.2999999523163,599149.2000000477,7780,WL,A,13.0
4,35.7720000743866,learn,24227.999925613403,Tue Mar 17 2026 15:20:23 GMT-0500 (Central Daylight Time),600798.6000000238,A,finge,O,e,145,1,1649.3999999761581,599149.2000000477,7780,WL,A,13.0
4,35.83699989318848,learn,24163.000106811523,Tue Mar 17 2026 15:20:23 GMT-0500 (Central Daylight Time),600864.1000000238,A,finger,O,r,59,1,1714.8999999761581,599149.2000000477,7780,WL,A,13.0
4,36.23699998855591,learn,23763.00001144409,Tue Mar 17 2026 15:20:23 GMT-0500 (Central Daylight Time),601263.7000000477,A,fingerenter,O,enter,381,1,2114.5,599149.2000000477,7780,WL,A,13.0
4,36.75399994850159,learn,23246.000051498413,Tue Mar 17 2026 15:20:23 GMT-0500 (Central Daylight Time),601780.9000000954,A,h,O,h,507,1,516.9000000953674,601264.0,7780,WL,A,14.0
4,36.855000019073486,learn,23144.999980926514,Tue Mar 17 2026 15:20:23 GMT-0500 (Central Daylight Time),601881.7000000477,A,ha,O,a,92,1,617.7000000476837,601264.0,7780,WL,A,14.0
4,36.98799991607666,learn,23012.00008392334,Tue Mar 17 2026 15:20:23 GMT-0500 (Central Daylight Time),602014.4000000954,A,har,O,r,113,1,750.4000000953674,601264.0,7780,WL,A,14.0
4,37.7720000743866,learn,22227.999925613403,Tue Mar 17 2026 15:20:23 GMT-0500 (Central Daylight Time),602798.5,A,harp,O,p,765,1,1534.5,601264.0,7780,WL,A,14.0
4,38.50499987602234,learn,21495.00012397766,Tue Mar 17 2026 15:20:23 GMT-0500 (Central Daylight Time),603531.2000000477,A,harpenter,O,enter,716,1,2267.2000000476837,601264.0,7780,WL,A,14.0
4,39.3529999256134,learn,20647.000074386597,Tue Mar 17 2026 15:20:23 GMT-0500 (Central Daylight Time),604379.9000000954,A,c,O,c,832,1,848.5,603531.4000000954,7780,WL,A,15.0
4,39.47099995613098,learn,20529.00004386902,Tue Mar 17 2026 15:20:23 GMT-0500 (Central Daylight Time),604497.3000000715,A,ch,O,h,112,1,965.8999999761581,603531.4000000954,7780,WL,A,15.0
4,39.871999979019165,learn,20128.000020980835,Tue Mar 17 2026 15:20:23 GMT-0500 (Central Daylight Time),604898.9000000954,A,chi,O,i,393,1,1367.5,603531.4000000954,7780,WL,A,15.0
4,40.1029999256134,learn,19897.000074386597,Tue Mar 17 2026 15:20:23 GMT-0500 (Central Daylight Time),605130.1000000238,A,chim,O,m,224,1,1598.6999999284744,603531.4000000954,7780,WL,A,15.0
4,40.47000002861023,learn,19529.99997138977,Tue Mar 17 2026 15:20:23 GMT-0500 (Central Daylight Time),605496.7000000477,A,chimn,O,n,362,1,1965.2999999523163,603531.4000000954,7780,WL,A,15.0
4,40.668999910354614,learn,19331.000089645386,Tue Mar 17 2026 15:20:23 GMT-0500 (Central Daylight Time),605695.6000000238,A,chimne,O,e,187,1,2164.1999999284744,603531.4000000954,7780,WL,A,15.0
4,40.819000005722046,learn,19180.999994277954,Tue Mar 17 2026 15:20:23 GMT-0500 (Central Daylight Time),605845.9000000954,A,chimney,O,y,140,1,2314.5,603531.4000000954,7780,WL,A,15.0
4,41.47000002861023,learn,18529.99997138977,Tue Mar 17 2026 15:20:23 GMT-0500 (Central Daylight Time),606497.1000000238,A,chimneyenter,O,enter,636,1,2965.6999999284744,603531.4000000954,7780,WL,A,15.0
5,1.6000001430511475,learn,60000.0,Tue Mar 17 2026 15:20:23 GMT-0500 (Central Daylight Time),679658.2000000477,A,c,O,c,1593,1,1600.1000000238419,678058.1000000238,7780,WL,A,1.0
5,1.8330001831054688,learn,60000.0,Tue Mar 17 2026 15:20:23 GMT-0500 (Central Daylight Time),679891.3000000715,A,ch,O,h,225,1,1833.2000000476837,678058.1000000238,7780,WL,A,1.0
5,2.0490000247955322,learn,60000.0,Tue Mar 17 2026 15:20:23 GMT-0500 (Central Daylight Time),680106.9000000954,A,chi,O,i,199,1,2048.8000000715256,678058.1000000238,7780,WL,A,1.0
5,2.2800002098083496,learn,60000.0,Tue Mar 17 2026 15:20:23 GMT-0500 (Central Daylight Time),680338.3000000715,A,chim,O,m,223,1,2280.2000000476837,678058.1000000238,7780,WL,A,1.0
5,2.5820000171661377,learn,60000.0,Tue Mar 17 2026 15:20:23 GMT-0500 (Central Daylight Time),680640.3000000715,A,chimn,O,n,280,1,2582.2000000476837,678058.1000000238,7780,WL,A,1.0
5,2.7150001525878906,learn,60000.0,Tue Mar 17 2026 15:20:23 GMT-0500 (Central Daylight Time),680773.3000000715,A,chimne,O,e,113,1,2715.2000000476837,678058.1000000238,7780,WL,A,1.0
5,2.882000207901001,learn,60000.0,Tue Mar 17 2026 15:20:23 GMT-0500 (Central Daylight Time),680940.1000000238,A,chimney,O,y,158,1,2882.0,678058.1000000238,7780,WL,A,1.0
5,3.514000177383423,learn,60000.0,Tue Mar 17 2026 15:20:23 GMT-0500 (Central Daylight Time),681572.3000000715,A,chimneyenter,O,enter,614,1,3514.2000000476837,678058.1000000238,7780,WL,A,1.0
5,4.182000160217285,learn,60000.0,Tue Mar 17 2026 15:20:23 GMT-0500 (Central Daylight Time),682240.4000000954,A,b,O,b,647,1,667.8000000715256,681572.6000000238,7780,WL,A,2.0
5,4.365000009536743,learn,60000.0,Tue Mar 17 2026 15:20:23 GMT-0500 (Central Daylight Time),682422.9000000954,A,bu,O,u,171,1,850.3000000715256,681572.6000000238,7780,WL,A,2.0
5,4.565000057220459,learn,60000.0,Tue Mar 17 2026 15:20:23 GMT-0500 (Central Daylight Time),682623.2000000477,A,but,O,t,188,1,1050.6000000238419,681572.6000000238,7780,WL,A,2.0
5,4.764000177383423,learn,60000.0,Tue Mar 17 2026 15:20:23 GMT-0500 (Central Daylight Time),682821.7000000477,A,butt,O,t,187,1,1249.1000000238419,681572.6000000238,7780,WL,A,2.0
5,4.9150002002716064,learn,60000.0,Tue Mar 17 2026 15:20:23 GMT-0500 (Central Daylight Time),682972.9000000954,A,butto,O,o,141,1,1400.3000000715256,681572.6000000238,7780,WL,A,2.0
5,5.067000150680542,learn,60000.0,Tue Mar 17 2026 15:20:23 GMT-0500 (Central Daylight Time),683124.5,A,button,O,n,137,1,1551.8999999761581,681572.6000000238,7780,WL,A,2.0
5,5.680999994277954,learn,60000.0,Tue Mar 17 2026 15:20:23 GMT-0500 (Central Daylight Time),683739.0,A,buttonenter,O,enter,599,1,2166.399999976158,681572.6000000238,7780,WL,A,2.0
5,6.78000020980835,learn,60000.0,Tue Mar 17 2026 15:20:23 GMT-0500 (Central Daylight Time),684837.9000000954,A,l,O,l,1088,1,1098.6000000238419,683739.3000000715,7780,WL,A,3.0
5,6.998000144958496,learn,60000.0,Tue Mar 17 2026 15:20:23 GMT-0500 (Central Daylight Time),685056.4000000954,A,lo,O,o,198,1,1317.1000000238419,683739.3000000715,7780,WL,A,3.0
5,7.148000001907349,learn,60000.0,Tue Mar 17 2026 15:20:23 GMT-0500 (Central Daylight Time),685205.8000000715,A,log,O,g,130,1,1466.5,683739.3000000715,7780,WL,A,3.0
5,7.88100004196167,learn,60000.0,Tue Mar 17 2026 15:20:23 GMT-0500 (Central Daylight Time),685938.9000000954,A,logenter,O,enter,729,1,2199.600000023842,683739.3000000715,7780,WL,A,3.0
5,8.828999996185303,learn,60000.0,Tue Mar 17 2026 15:20:23 GMT-0500 (Central Daylight Time),686887.2000000477,A,r,O,r,931,1,948.1000000238419,685939.1000000238,7780,WL,A,4.0
5,9.013000011444092,learn,60000.0,Tue Mar 17 2026 15:20:23 GMT-0500 (Central Daylight Time),687071.3000000715,A,ra,O,a,173,1,1132.2000000476837,685939.1000000238,7780,WL,A,4.0
5,9.212000131607056,learn,60000.0,Tue Mar 17 2026 15:20:23 GMT-0500 (Central Daylight Time),687270.0,A,rat,O,t,185,1,1330.8999999761581,685939.1000000238,7780,WL,A,4.0
5,9.396000146865845,learn,60000.0,Tue Mar 17 2026 15:20:23 GMT-0500 (Central Daylight Time),687453.8000000715,A,ratt,O,t,165,1,1514.7000000476837,685939.1000000238,7780,WL,A,4.0
5,9.629000186920166,learn,60000.0,Tue Mar 17 2026 15:20:23 GMT-0500 (Central Daylight Time),687687.2000000477,A,rattl,O,l,220,1,1748.1000000238419,685939.1000000238,7780,WL,A,4.0
5,9.847000122070312,learn,60000.0,Tue Mar 17 2026 15:20:23 GMT-0500 (Central Daylight Time),687905.1000000238,A,rattle,O,e,196,1,1966.0,685939.1000000238,7780,WL,A,4.0
5,10.979000091552734,learn,60000.0,Tue Mar 17 2026 15:20:23 GMT-0500 (Central Daylight Time),689037.2000000477,A,rattleenter,O,enter,1120,1,3098.100000023842,685939.1000000238,7780,WL,A,4.0
5,11.796000003814697,learn,60000.0,Tue Mar 17 2026 15:20:23 GMT-0500 (Central Daylight Time),689853.9000000954,A,g,O,g,798,1,816.5,689037.4000000954,7780,WL,A,5.0
5,11.92900013923645,learn,60000.0,Tue Mar 17 2026 15:20:23 GMT-0500 (Central Daylight Time),689987.3000000715,A,go,O,o,126,1,949.8999999761581,689037.4000000954,7780,WL,A,5.0
5,12.111999988555908,learn,60000.0,Tue Mar 17 2026 15:20:23 GMT-0500 (Central Daylight Time),690169.9000000954,A,gol,O,l,174,1,1132.5,689037.4000000954,7780,WL,A,5.0
5,12.82800006866455,learn,60000.0,Tue Mar 17 2026 15:20:23 GMT-0500 (Central Daylight Time),690886.2000000477,A,gold,O,d,697,1,1848.7999999523163,689037.4000000954,7780,WL,A,5.0
5,13.496000051498413,learn,60000.0,Tue Mar 17 2026 15:20:23 GMT-0500 (Central Daylight Time),691553.7000000477,A,goldenter,O,enter,662,1,2516.2999999523163,689037.4000000954,7780,WL,A,5.0
5,16.761000156402588,learn,60000.0,Tue Mar 17 2026 15:20:23 GMT-0500 (Central Daylight Time),694819.1000000238,A,b,O,b,3261,1,3265.100000023842,691554.0,7780,WL,A,6.0
5,17.261000156402588,learn,60000.0,Tue Mar 17 2026 15:20:23 GMT-0500 (Central Daylight Time),695319.1000000238,A,bo,O,o,480,1,3765.100000023842,691554.0,7780,WL,A,6.0
5,17.39300012588501,learn,60000.0,Tue Mar 17 2026 15:20:23 GMT-0500 (Central Daylight Time),695451.1000000238,A,boo,O,o,113,1,3897.100000023842,691554.0,7780,WL,A,6.0
5,17.57800006866455,learn,60000.0,Tue Mar 17 2026 15:20:23 GMT-0500 (Central Daylight Time),695636.3000000715,A,book,O,k,178,1,4082.3000000715256,691554.0,7780,WL,A,6.0
5,18.0770001411438,learn,60000.0,Tue Mar 17 2026 15:20:23 GMT-0500 (Central Daylight Time),696135.1000000238,A,bookenter,O,enter,488,1,4581.100000023842,691554.0,7780,WL,A,6.0
5,18.511000156402588,learn,60000.0,Tue Mar 17 2026 15:20:23 GMT-0500 (Central Daylight Time),696569.3000000715,A,t,O,t,413,1,434.10000002384186,696135.2000000477,7780,WL,A,7.0
5,18.66200017929077,learn,60000.0,Tue Mar 17 2026 15:20:23 GMT-0500 (Central Daylight Time),696720.0,A,tr,O,r,138,1,584.7999999523163,696135.2000000477,7780,WL,A,7.0
5,18.825000047683716,learn,60000.0,Tue Mar 17 2026 15:20:23 GMT-0500 (Central Daylight Time),696883.2000000477,A,tra,O,a,143,1,748.0,696135.2000000477,7780,WL,A,7.0
5,18.95800018310547,learn,60000.0,Tue Mar 17 2026 15:20:23 GMT-0500 (Central Daylight Time),697016.3000000715,A,trai,O,i,118,1,881.1000000238419,696135.2000000477,7780,WL,A,7.0
5,19.076000213623047,learn,60000.0,Tue Mar 17 2026 15:20:23 GMT-0500 (Central Daylight Time),697133.9000000954,A,train,O,n,99,1,998.7000000476837,696135.2000000477,7780,WL,A,7.0
5,19.694000005722046,learn,60000.0,Tue Mar 17 2026 15:20:23 GMT-0500 (Central Daylight Time),697752.1000000238,A,trainenter,O,enter,597,1,1616.8999999761581,696135.2000000477,7780,WL,A,7.0
5,22.259999990463257,learn,60000.0,Tue Mar 17 2026 15:20:23 GMT-0500 (Central Daylight Time),700317.7000000477,A,f,O,f,2548,1,2565.399999976158,697752.3000000715,7780,WL,A,8.0
5,22.426000118255615,learn,60000.0,Tue Mar 17 2026 15:20:23 GMT-0500 (Central Daylight Time),700483.6000000238,A,fl,O,l,158,1,2731.2999999523163,697752.3000000715,7780,WL,A,8.0
5,22.62600016593933,learn,60000.0,Tue Mar 17 2026 15:20:23 GMT-0500 (Central Daylight Time),700683.7000000477,A,flo,O,o,184,1,2931.399999976158,697752.3000000715,7780,WL,A,8.0
5,22.77500009536743,learn,60000.0,Tue Mar 17 2026 15:20:23 GMT-0500 (Central Daylight Time),700832.8000000715,A,flow,O,w,137,1,3080.5,697752.3000000715,7780,WL,A,8.0
5,22.85800004005432,learn,60000.0,Tue Mar 17 2026 15:20:23 GMT-0500 (Central Daylight Time),700916.2000000477,A,flowe,O,e,67,1,3163.899999976158,697752.3000000715,7780,WL,A,8.0
5,22.95800018310547,learn,60000.0,Tue Mar 17 2026 15:20:23 GMT-0500 (Central Daylight Time),701016.0,A,flower,O,r,88,1,3263.6999999284744,697752.3000000715,7780,WL,A,8.0
5,23.528000116348267,learn,60000.0,Tue Mar 17 2026 15:20:23 GMT-0500 (Central Daylight Time),701585.7000000477,A,flowerenter,O,enter,555,1,3833.399999976158,697752.3000000715,7780,WL,A,8.0
5,26.124000072479248,learn,60000.0,Tue Mar 17 2026 15:20:23 GMT-0500 (Central Daylight Time),704182.1000000238,A,m,O,m,2577,1,2596.100000023842,701586.0,7780,WL,A,9.0
5,26.27400016784668,learn,60000.0,Tue Mar 17 2026 15:20:23 GMT-0500 (Central Daylight Time),704332.4000000954,A,me,O,e,133,1,2746.4000000953674,701586.0,7780,WL,A,9.0
5,26.456000089645386,learn,60000.0,Tue Mar 17 2026 15:20:23 GMT-0500 (Central Daylight Time),704514.1000000238,A,mea,O,a,166,1,2928.100000023842,701586.0,7780,WL,A,9.0
5,26.609000205993652,learn,60000.0,Tue Mar 17 2026 15:20:23 GMT-0500 (Central Daylight Time),704667.2000000477,A,mead,O,d,138,1,3081.2000000476837,701586.0,7780,WL,A,9.0
5,26.80900001525879,learn,60000.0,Tue Mar 17 2026 15:20:23 GMT-0500 (Central Daylight Time),704866.6000000238,A,meado,O,o,184,1,3280.600000023842,701586.0,7780,WL,A,9.0
5,26.95800018310547,learn,60000.0,Tue Mar 17 2026 15:20:23 GMT-0500 (Central Daylight Time),705016.1000000238,A,meadow,O,w,138,1,3430.100000023842,701586.0,7780,WL,A,9.0
5,27.290000200271606,learn,60000.0,Tue Mar 17 2026 15:20:23 GMT-0500 (Central Daylight Time),705348.0,A,meadowenter,O,enter,326,1,3762.0,701586.0,7780,WL,A,9.0
5,27.706000089645386,learn,60000.0,Tue Mar 17 2026 15:20:23 GMT-0500 (Central Daylight Time),705764.5,A,r,O,r,412,1,416.1999999284744,705348.3000000715,7780,WL,A,10.0
5,27.873000144958496,learn,60000.0,Tue Mar 17 2026 15:20:23 GMT-0500 (Central Daylight Time),705931.3000000715,A,ru,O,u,161,1,583.0,705348.3000000715,7780,WL,A,10.0
5,28.008000135421753,learn,60000.0,Tue Mar 17 2026 15:20:23 GMT-0500 (Central Daylight Time),706066.1000000238,A,rug,O,g,120,1,717.7999999523163,705348.3000000715,7780,WL,A,10.0
5,28.624000072479248,learn,60000.0,Tue Mar 17 2026 15:20:23 GMT-0500 (Central Daylight Time),706682.4000000954,A,rugenter,O,enter,601,1,1334.1000000238419,705348.3000000715,7780,WL,A,10.0
5,29.807000160217285,learn,60000.0,Tue Mar 17 2026 15:20:23 GMT-0500 (Central Daylight Time),707865.2000000477,A,s,O,s,1169,1,1182.6000000238419,706682.6000000238,7780,WL,A,11.0
5,30.17200016975403,learn,60000.0,Tue Mar 17 2026 15:20:23 GMT-0500 (Central Daylight Time),708230.4000000954,A,sa,O,a,354,1,1547.8000000715256,706682.6000000238,7780,WL,A,11.0
5,30.33899998664856,learn,60000.0,Tue Mar 17 2026 15:20:23 GMT-0500 (Central Daylight Time),708396.6000000238,A,sal,O,l,156,1,1714.0,706682.6000000238,7780,WL,A,11.0
5,30.473000049591064,learn,60000.0,Tue Mar 17 2026 15:20:23 GMT-0500 (Central Daylight Time),708531.3000000715,A,salt,O,t,119,1,1848.7000000476837,706682.6000000238,7780,WL,A,11.0
5,31.121999979019165,learn,60000.0,Tue Mar 17 2026 15:20:23 GMT-0500 (Central Daylight Time),709179.9000000954,A,saltenter,O,enter,640,1,2497.3000000715256,706682.6000000238,7780,WL,A,11.0
5,31.57200002670288,learn,60000.0,Tue Mar 17 2026 15:20:23 GMT-0500 (Central Daylight Time),709629.9000000954,A,f,O,f,440,1,449.8000000715256,709180.1000000238,7780,WL,A,12.0
5,31.723000049591064,learn,60000.0,Tue Mar 17 2026 15:20:23 GMT-0500 (Central Daylight Time),709780.8000000715,A,fi,O,i,142,1,600.7000000476837,709180.1000000238,7780,WL,A,12.0
5,31.805999994277954,learn,60000.0,Tue Mar 17 2026 15:20:23 GMT-0500 (Central Daylight Time),709864.4000000954,A,fin,O,n,64,1,684.3000000715256,709180.1000000238,7780,WL,A,12.0
5,31.889000177383423,learn,60000.0,Tue Mar 17 2026 15:20:23 GMT-0500 (Central Daylight Time),709946.6000000238,A,fing,O,g,66,1,766.5,709180.1000000238,7780,WL,A,12.0
5,32.057000160217285,learn,60000.0,Tue Mar 17 2026 15:20:23 GMT-0500 (Central Daylight Time),710115.2000000477,A,finge,O,e,161,1,935.1000000238419,709180.1000000238,7780,WL,A,12.0
5,32.140000104904175,learn,60000.0,Tue Mar 17 2026 15:20:23 GMT-0500 (Central Daylight Time),710197.7000000477,A,finger,O,r,71,1,1017.6000000238419,709180.1000000238,7780,WL,A,12.0
5,32.98800015449524,learn,60000.0,Tue Mar 17 2026 15:20:23 GMT-0500 (Central Daylight Time),711046.1000000238,A,fingerenter,O,enter,837,1,1866.0,709180.1000000238,7780,WL,A,12.0
5,35.420000076293945,learn,60000.0,Tue Mar 17 2026 15:20:23 GMT-0500 (Central Daylight Time),713478.4000000954,A,b,O,b,2412,1,2432.100000023842,711046.3000000715,7780,WL,A,13.0
5,35.58800005912781,learn,60000.0,Tue Mar 17 2026 15:20:23 GMT-0500 (Central Daylight Time),713645.9000000954,A,bu,O,u,149,1,2599.600000023842,711046.3000000715,7780,WL,A,13.0
5,35.706000089645386,learn,60000.0,Tue Mar 17 2026 15:20:23 GMT-0500 (Central Daylight Time),713764.2000000477,A,but,O,t,114,1,2717.899999976158,711046.3000000715,7780,WL,A,13.0
5,35.854000091552734,learn,60000.0,Tue Mar 17 2026 15:20:23 GMT-0500 (Central Daylight Time),713911.8000000715,A,butt,O,t,127,1,2865.5,711046.3000000715,7780,WL,A,13.0
5,36.019999980926514,learn,60000.0,Tue Mar 17 2026 15:20:23 GMT-0500 (Central Daylight Time),714078.6000000238,A,butto,O,o,148,1,3032.2999999523163,711046.3000000715,7780,WL,A,13.0
5,36.08800005912781,learn,60000.0,Tue Mar 17 2026 15:20:23 GMT-0500 (Central Daylight Time),714146.0,A,button,O,n,60,1,3099.6999999284744,711046.3000000715,7780,WL,A,13.0
5,36.6560001373291,learn,60000.0,Tue Mar 17 2026 15:20:23 GMT-0500 (Central Daylight Time),714714.0,A,buttonenter,O,enter,562,1,3667.6999999284744,711046.3000000715,7780,WL,A,13.0
5,41.58500003814697,learn,60000.0,Tue Mar 17 2026 15:20:23 GMT-0500 (Central Daylight Time),719643.6000000238,A,h,O,h,4913,1,4929.299999952316,714714.3000000715,7780,WL,A,14.0
5,41.68600010871887,learn,60000.0,Tue Mar 17 2026 15:20:23 GMT-0500 (Central Daylight Time),719744.2000000477,A,ha,O,a,87,1,5029.899999976158,714714.3000000715,7780,WL,A,14.0
5,41.818000078201294,learn,60000.0,Tue Mar 17 2026 15:20:23 GMT-0500 (Central Daylight Time),719876.7000000477,A,har,O,r,123,1,5162.399999976158,714714.3000000715,7780,WL,A,14.0
5,42.03500008583069,learn,60000.0,Tue Mar 17 2026 15:20:23 GMT-0500 (Central Daylight Time),720093.5,A,harp,O,p,198,1,5379.199999928474,714714.3000000715,7780,WL,A,14.0
5,42.7020001411438,learn,60000.0,Tue Mar 17 2026 15:20:23 GMT-0500 (Central Daylight Time),720760.5,A,harpenter,O,enter,652,1,6046.199999928474,714714.3000000715,7780,WL,A,14.0
5,42.85199999809265,learn,60000.0,Tue Mar 17 2026 15:20:23 GMT-0500 (Central Daylight Time),720910.2000000477,A,enter,O,enter,140,1,149.5,720760.7000000477,7780,WL,A,15.0
6,1.3320000171661377,distr,58667.99998283386,Tue Mar 17 2026 15:20:23 GMT-0500 (Central Daylight Time),803867.6000000238,B,s,O,s,1325,1,1331.6999999284744,802535.9000000954,7780,WL,A,1.0
6,1.680999994277954,distr,58319.000005722046,Tue Mar 17 2026 15:20:23 GMT-0500 (Central Daylight Time),804216.6000000238,B,se,O,e,336,1,1680.6999999284744,802535.9000000954,7780,WL,A,1.0
6,1.9320001602172852,distr,58067.999839782715,Tue Mar 17 2026 15:20:23 GMT-0500 (Central Daylight Time),804468.0,B,see,O,e,236,1,1932.0999999046326,802535.9000000954,7780,WL,A,1.0
6,2.249000072479248,distr,57750.99992752075,Tue Mar 17 2026 15:20:23 GMT-0500 (Central Daylight Time),804784.4000000954,B,seed,O,d,295,1,2248.5,802535.9000000954,7780,WL,A,1.0
6,3.630000114440918,distr,56369.99988555908,Tue Mar 17 2026 15:20:23 GMT-0500 (Central Daylight Time),806165.8000000715,B,seedenter,O,enter,1371,1,3629.899999976158,802535.9000000954,7780,WL,A,1.0
6,4.432000160217285,distr,55567.999839782715,Tue Mar 17 2026 15:20:23 GMT-0500 (Central Daylight Time),806967.3000000715,B,s,O,s,783,1,801.3000000715256,806166.0,7780,WL,A,2.0
6,4.614000082015991,distr,55385.99991798401,Tue Mar 17 2026 15:20:23 GMT-0500 (Central Daylight Time),807149.4000000954,B,sh,O,h,165,1,983.4000000953674,806166.0,7780,WL,A,2.0
6,4.7790000438690186,distr,55220.99995613098,Tue Mar 17 2026 15:20:23 GMT-0500 (Central Daylight Time),807315.1000000238,B,she,O,e,158,1,1149.1000000238419,806166.0,7780,WL,A,2.0
6,4.946000099182129,distr,55053.99990081787,Tue Mar 17 2026 15:20:23 GMT-0500 (Central Daylight Time),807481.3000000715,B,shee,O,e,161,1,1315.3000000715256,806166.0,7780,WL,A,2.0
6,5.129000186920166,distr,54870.999813079834,Tue Mar 17 2026 15:20:23 GMT-0500 (Central Daylight Time),807665.1000000238,B,sheep,O,p,179,1,1499.1000000238419,806166.0,7780,WL,A,2.0
6,6.114000082015991,distr,53885.99991798401,Tue Mar 17 2026 15:20:23 GMT-0500 (Central Daylight Time),808649.9000000954,B,sheepenter,O,enter,972,1,2483.9000000953674,806166.0,7780,WL,A,2.0
6,7.880000114440918,distr,52119.99988555908,Tue Mar 17 2026 15:20:23 GMT-0500 (Central Daylight Time),810415.7000000477,B,p,O,p,1754,1,1765.5,808650.2000000477,7780,WL,A,3.0
6,8.080000162124634,distr,51919.999837875366,Tue Mar 17 2026 15:20:23 GMT-0500 (Central Daylight Time),810616.2000000477,B,pl,O,l,189,1,1966.0,808650.2000000477,7780,WL,A,3.0
6,8.213000059127808,distr,51786.99994087219,Tue Mar 17 2026 15:20:23 GMT-0500 (Central Daylight Time),810748.7000000477,B,pla,O,a,122,1,2098.5,808650.2000000477,7780,WL,A,3.0
6,8.36300015449524,distr,51636.99984550476,Tue Mar 17 2026 15:20:23 GMT-0500 (Central Daylight Time),810899.0,B,plan,O,n,132,1,2248.7999999523163,808650.2000000477,7780,WL,A,3.0
6,8.496999979019165,distr,51503.000020980835,Tue Mar 17 2026 15:20:23 GMT-0500 (Central Daylight Time),811032.2000000477,B,plane,O,e,120,1,2382.0,808650.2000000477,7780,WL,A,3.0
6,9.081000089645386,distr,50918.999910354614,Tue Mar 17 2026 15:20:23 GMT-0500 (Central Daylight Time),811616.9000000954,B,planeenter,O,enter,565,1,2966.7000000476837,808650.2000000477,7780,WL,A,3.0
6,9.562000036239624,distr,50437.999963760376,Tue Mar 17 2026 15:20:23 GMT-0500 (Central Daylight Time),812097.3000000715,B,j,O,j,466,1,480.2000000476837,811617.1000000238,7780,WL,A,4.0
6,9.69700002670288,distr,50302.99997329712,Tue Mar 17 2026 15:20:23 GMT-0500 (Central Daylight Time),812233.2000000477,B,ju,O,u,123,1,616.1000000238419,811617.1000000238,7780,WL,A,4.0
6,9.84600019454956,distr,50153.99980545044,Tue Mar 17 2026 15:20:23 GMT-0500 (Central Daylight Time),812381.3000000715,B,jud,O,d,129,1,764.2000000476837,811617.1000000238,7780,WL,A,4.0
6,10.129000186920166,distr,49870.999813079834,Tue Mar 17 2026 15:20:23 GMT-0500 (Central Daylight Time),812664.6000000238,B,judg,O,g,261,1,1047.5,811617.1000000238,7780,WL,A,4.0
6,10.379000186920166,distr,49620.999813079834,Tue Mar 17 2026 15:20:23 GMT-0500 (Central Daylight Time),812914.5,B,judge,O,e,245,1,1297.3999999761581,811617.1000000238,7780,WL,A,4.0
6,10.812000036239624,distr,49187.999963760376,Tue Mar 17 2026 15:20:23 GMT-0500 (Central Daylight Time),813347.9000000954,B,judgeenter,O,enter,416,1,1730.8000000715256,811617.1000000238,7780,WL,A,4.0
6,11.36300015449524,distr,48636.99984550476,Tue Mar 17 2026 15:20:23 GMT-0500 (Central Daylight Time),813898.8000000715,B,b,O,b,545,1,550.8000000715256,813348.0,7780,WL,A,5.0
6,11.53000020980835,distr,48469.99979019165,Tue Mar 17 2026 15:20:23 GMT-0500 (Central Daylight Time),814065.2000000477,B,bo,O,o,161,1,717.2000000476837,813348.0,7780,WL,A,5.0
6,11.712000131607056,distr,48287.999868392944,Tue Mar 17 2026 15:20:23 GMT-0500 (Central Daylight Time),814248.0,B,bow,O,w,162,1,900.0,813348.0,7780,WL,A,5.0
6,11.82800006866455,distr,48171.99993133545,Tue Mar 17 2026 15:20:23 GMT-0500 (Central Daylight Time),814364.2000000477,B,bowl,O,l,105,1,1016.2000000476837,813348.0,7780,WL,A,5.0
6,12.860000133514404,distr,47139.999866485596,Tue Mar 17 2026 15:20:23 GMT-0500 (Central Daylight Time),815395.9000000954,B,bowlenter,O,enter,1014,1,2047.9000000953674,813348.0,7780,WL,A,5.0
6,13.428000211715698,distr,46571.9997882843,Tue Mar 17 2026 15:20:23 GMT-0500 (Central Daylight Time),815963.7000000477,B,i,O,i,565,1,567.6000000238419,815396.1000000238,7780,WL,A,6.0
6,13.509999990463257,distr,46490.00000953674,Tue Mar 17 2026 15:20:23 GMT-0500 (Central Daylight Time),816046.0,B,in,O,n,71,1,649.8999999761581,815396.1000000238,7780,WL,A,6.0
6,13.660000085830688,distr,46339.99991416931,Tue Mar 17 2026 15:20:23 GMT-0500 (Central Daylight Time),816195.4000000954,B,ins,O,s,132,1,799.3000000715256,815396.1000000238,7780,WL,A,6.0
6,13.812000036239624,distr,46187.999963760376,Tue Mar 17 2026 15:20:23 GMT-0500 (Central Daylight Time),816347.8000000715,B,inse,O,e,146,1,951.7000000476837,815396.1000000238,7780,WL,A,6.0
6,14.09600019454956,distr,45903.99980545044,Tue Mar 17 2026 15:20:23 GMT-0500 (Central Daylight Time),816632.2000000477,B,insec,O,c,271,1,1236.1000000238419,815396.1000000238,7780,WL,A,6.0
6,14.794000148773193,distr,45205.99985122681,Tue Mar 17 2026 15:20:23 GMT-0500 (Central Daylight Time),817329.9000000954,B,insect,O,t,693,1,1933.8000000715256,815396.1000000238,7780,WL,A,6.0
6,16.527000188827515,distr,43472.999811172485,Tue Mar 17 2026 15:20:23 GMT-0500 (Central Daylight Time),819062.6000000238,B,insectenter,O,enter,1713,1,3666.5,815396.1000000238,7780,WL,A,6.0
6,17.027000188827515,distr,42972.999811172485,Tue Mar 17 2026 15:20:23 GMT-0500 (Central Daylight Time),819562.4000000954,B,d,O,d,485,1,499.60000002384186,819062.8000000715,7780,WL,A,7.0
6,17.361999988555908,distr,42638.00001144409,Tue Mar 17 2026 15:20:23 GMT-0500 (Central Daylight Time),819897.2000000477,B,da,O,a,319,1,834.3999999761581,819062.8000000715,7780,WL,A,7.0
6,17.676000118255615,distr,42323.999881744385,Tue Mar 17 2026 15:20:23 GMT-0500 (Central Daylight Time),820212.1000000238,B,daw,O,w,299,1,1149.2999999523163,819062.8000000715,7780,WL,A,7.0
6,17.97699999809265,distr,42023.00000190735,Tue Mar 17 2026 15:20:23 GMT-0500 (Central Daylight Time),820512.2000000477,B,dawn,O,n,289,1,1449.3999999761581,819062.8000000715,7780,WL,A,7.0
6,18.99400019645691,distr,41005.99980354309,Tue Mar 17 2026 15:20:23 GMT-0500 (Central Daylight Time),821529.5,B,dawnenter,O,enter,1012,1,2466.6999999284744,819062.8000000715,7780,WL,A,7.0
6,22.925000190734863,distr,37074.99980926514,Tue Mar 17 2026 15:20:23 GMT-0500 (Central Daylight Time),825460.5,B,c,O,c,3915,1,3930.6999999284744,821529.8000000715,7780,WL,A,8.0
6,23.04200005531311,distr,36957.99994468689,Tue Mar 17 2026 15:20:23 GMT-0500 (Central Daylight Time),825577.3000000715,B,co,O,o,102,1,4047.5,821529.8000000715,7780,WL,A,8.0
6,23.10700011253357,distr,36892.99988746643,Tue Mar 17 2026 15:20:23 GMT-0500 (Central Daylight Time),825642.6000000238,B,cou,O,u,57,1,4112.799999952316,821529.8000000715,7780,WL,A,8.0
6,23.324000120162964,distr,36675.999879837036,Tue Mar 17 2026 15:20:23 GMT-0500 (Central Daylight Time),825860.2000000477,B,coun,O,n,209,1,4330.399999976158,821529.8000000715,7780,WL,A,8.0
6,23.45800018310547,distr,36541.99981689453,Tue Mar 17 2026 15:20:23 GMT-0500 (Central Daylight Time),825994.1000000238,B,count,O,t,119,1,4464.299999952316,821529.8000000715,7780,WL,A,8.0
6,23.592000007629395,distr,36407.999992370605,Tue Mar 17 2026 15:20:23 GMT-0500 (Central Daylight Time),826127.2000000477,B,county,O,y,111,1,4597.399999976158,821529.8000000715,7780,WL,A,8.0
6,24.075000047683716,distr,35924.999952316284,Tue Mar 17 2026 15:20:23 GMT-0500 (Central Daylight Time),826610.8000000715,B,countyenter,O,enter,474,1,5081.0,821529.8000000715,7780,WL,A,8.0
6,48.301000118255615,distr,11698.999881744385,Tue Mar 17 2026 15:20:23 GMT-0500 (Central Daylight Time),850837.1000000238,B,c,O,c,24210,1,24226.0,826611.1000000238,7780,WL,A,9.0
6,48.50100016593933,distr,11498.999834060669,Tue Mar 17 2026 15:20:23 GMT-0500 (Central Daylight Time),851036.7000000477,B,co,O,o,184,1,24425.600000023842,826611.1000000238,7780,WL,A,9.0
6,48.74900007247925,distr,11250.999927520752,Tue Mar 17 2026 15:20:23 GMT-0500 (Central Daylight Time),851285.0,B,coa,O,a,229,1,24673.899999976158,826611.1000000238,7780,WL,A,9.0
6,49.116000175476074,distr,10883.999824523926,Tue Mar 17 2026 15:20:23 GMT-0500 (Central Daylight Time),851652.4000000954,B,coat,O,t,352,1,25041.300000071526,826611.1000000238,7780,WL,A,9.0
6,49.43300008773804,distr,10566.999912261963,Tue Mar 17 2026 15:20:23 GMT-0500 (Central Daylight Time),851969.3000000715,B,coatenter,O,enter,311,1,25358.200000047684,826611.1000000238,7780,WL,A,9.0
6,55.71500015258789,distr,4284.999847412109,Tue Mar 17 2026 15:20:23 GMT-0500 (Central Daylight Time),858251.2000000477,B,p,O,p,6277,1,6281.700000047684,851969.5,7780,WL,A,10.0
6,55.96399998664856,distr,4036.0000133514404,Tue Mar 17 2026 15:20:23 GMT-0500 (Central Daylight Time),858499.8000000715,B,po,O,o,238,1,6530.300000071526,851969.5,7780,WL,A,10.0
6,56.132000207901,distr,3867.999792098999,Tue Mar 17 2026 15:20:23 GMT-0500 (Central Daylight Time),858667.8000000715,B,poo,O,o,161,1,6698.300000071526,851969.5,7780,WL,A,10.0
6,56.348000049591064,distr,3651.9999504089355,Tue Mar 17 2026 15:20:23 GMT-0500 (Central Daylight Time),858883.8000000715,B,pool,O,l,206,1,6914.300000071526,851969.5,7780,WL,A,10.0
6,56.88100004196167,distr,3118.99995803833,Tue Mar 17 2026 15:20:23 GMT-0500 (Central Daylight Time),859416.5,B,poolenter,O,enter,521,1,7447.0,851969.5,7780,WL,A,10.0
6,60.01400017738342,distr,-14.000177383422852,Tue Mar 17 2026 15:20:23 GMT-0500 (Central Daylight Time),862549.7000000477,B,None,O,None,3129,1,3133.0,859416.7000000477,7780,WL,A,11.0
7,2.25,immed,57750.0,Tue Mar 17 2026 15:20:23 GMT-0500 (Central Daylight Time),880793.2000000477,A,b,O,b,2226,1,2249.399999976158,878543.8000000715,7780,WL,A,1.0
7,2.43399977684021,immed,57566.00022315979,Tue Mar 17 2026 15:20:23 GMT-0500 (Central Daylight Time),880977.4000000954,A,bo,O,o,178,1,2433.600000023842,878543.8000000715,7780,WL,A,1.0
7,2.5989999771118164,immed,57401.00002288818,Tue Mar 17 2026 15:20:23 GMT-0500 (Central Daylight Time),881142.3000000715,A,boo,O,o,147,1,2598.5,878543.8000000715,7780,WL,A,1.0
7,2.7839999198913574,immed,57216.00008010864,Tue Mar 17 2026 15:20:23 GMT-0500 (Central Daylight Time),881326.7000000477,A,book,O,k,161,1,2782.899999976158,878543.8000000715,7780,WL,A,1.0
7,3.5989999771118164,immed,56401.00002288818,Tue Mar 17 2026 15:20:23 GMT-0500 (Central Daylight Time),882142.1000000238,A,bookenter,O,enter,803,1,3598.2999999523163,878543.8000000715,7780,WL,A,1.0
7,4.2149999141693115,immed,55785.00008583069,Tue Mar 17 2026 15:20:23 GMT-0500 (Central Daylight Time),882758.5,A,t,O,t,605,1,616.1999999284744,882142.3000000715,7780,WL,A,2.0
7,4.632999897003174,immed,55367.000102996826,Tue Mar 17 2026 15:20:23 GMT-0500 (Central Daylight Time),883175.9000000954,A,tr,O,r,405,1,1033.6000000238419,882142.3000000715,7780,WL,A,2.0
7,5.331999778747559,immed,54668.00022125244,Tue Mar 17 2026 15:20:23 GMT-0500 (Central Daylight Time),883874.9000000954,A,tra,O,a,682,1,1732.6000000238419,882142.3000000715,7780,WL,A,2.0
7,5.517999887466431,immed,54482.00011253357,Tue Mar 17 2026 15:20:23 GMT-0500 (Central Daylight Time),884061.2000000477,A,trai,O,i,178,1,1918.8999999761581,882142.3000000715,7780,WL,A,2.0
7,5.633999824523926,immed,54366.000175476074,Tue Mar 17 2026 15:20:23 GMT-0500 (Central Daylight Time),884177.3000000715,A,train,O,n,101,1,2035.0,882142.3000000715,7780,WL,A,2.0
7,6.2149999141693115,immed,53785.00008583069,Tue Mar 17 2026 15:20:23 GMT-0500 (Central Daylight Time),884757.9000000954,A,trainenter,O,enter,566,1,2615.600000023842,882142.3000000715,7780,WL,A,2.0
7,7.580999851226807,immed,52419.00014877319,Tue Mar 17 2026 15:20:23 GMT-0500 (Central Daylight Time),886124.1000000238,A,m,O,m,1350,1,1366.0,884758.1000000238,7780,WL,A,3.0
7,7.732999801635742,immed,52267.00019836426,Tue Mar 17 2026 15:20:23 GMT-0500 (Central Daylight Time),886276.1000000238,A,me,O,e,142,1,1518.0,884758.1000000238,7780,WL,A,3.0
7,7.898000001907349,immed,52101.99999809265,Tue Mar 17 2026 15:20:23 GMT-0500 (Central Daylight Time),886440.8000000715,A,mea,O,a,149,1,1682.7000000476837,884758.1000000238,7780,WL,A,3.0
7,8.048999786376953,immed,51951.00021362305,Tue Mar 17 2026 15:20:23 GMT-0500 (Central Daylight Time),886592.2000000477,A,mead,O,d,130,1,1834.1000000238419,884758.1000000238,7780,WL,A,3.0
7,8.21399998664856,immed,51786.00001335144,Tue Mar 17 2026 15:20:23 GMT-0500 (Central Daylight Time),886757.4000000954,A,meado,O,o,146,1,1999.3000000715256,884758.1000000238,7780,WL,A,3.0
7,8.432999849319458,immed,51567.00015068054,Tue Mar 17 2026 15:20:23 GMT-0500 (Central Daylight Time),886976.1000000238,A,meadow,O,w,196,1,2218.0,884758.1000000238,7780,WL,A,3.0
7,8.997999906539917,immed,51002.00009346008,Tue Mar 17 2026 15:20:23 GMT-0500 (Central Daylight Time),887540.9000000954,A,meadowenter,O,enter,556,1,2782.8000000715256,884758.1000000238,7780,WL,A,3.0
7,9.597999811172485,immed,50402.000188827515,Tue Mar 17 2026 15:20:23 GMT-0500 (Central Daylight Time),888140.9000000954,A,r,O,r,591,1,599.8000000715256,887541.1000000238,7780,WL,A,4.0
7,9.77999997138977,immed,50220.00002861023,Tue Mar 17 2026 15:20:23 GMT-0500 (Central Daylight Time),888323.2000000477,A,ru,O,u,175,1,782.1000000238419,887541.1000000238,7780,WL,A,4.0
7,9.980999946594238,immed,50019.00005340576,Tue Mar 17 2026 15:20:23 GMT-0500 (Central Daylight Time),888523.9000000954,A,rug,O,g,182,1,982.8000000715256,887541.1000000238,7780,WL,A,4.0
7,10.729999780654907,immed,49270.00021934509,Tue Mar 17 2026 15:20:23 GMT-0500 (Central Daylight Time),889273.4000000954,A,rugenter,O,enter,733,1,1732.3000000715256,887541.1000000238,7780,WL,A,4.0
7,11.163999795913696,immed,48836.000204086304,Tue Mar 17 2026 15:20:23 GMT-0500 (Central Daylight Time),889707.2000000477,A,f,O,f,426,1,433.7000000476837,889273.5,7780,WL,A,5.0
7,11.312999963760376,immed,48687.000036239624,Tue Mar 17 2026 15:20:23 GMT-0500 (Central Daylight Time),889856.1000000238,A,fl,O,l,134,1,582.6000000238419,889273.5,7780,WL,A,5.0
7,11.496999979019165,immed,48503.000020980835,Tue Mar 17 2026 15:20:23 GMT-0500 (Central Daylight Time),890040.4000000954,A,flo,O,o,168,1,766.9000000953674,889273.5,7780,WL,A,5.0
7,11.645999908447266,immed,48354.000091552734,Tue Mar 17 2026 15:20:23 GMT-0500 (Central Daylight Time),890189.3000000715,A,flow,O,w,138,1,915.8000000715256,889273.5,7780,WL,A,5.0
7,11.712999820709229,immed,48287.00017929077,Tue Mar 17 2026 15:20:23 GMT-0500 (Central Daylight Time),890256.3000000715,A,flowe,O,e,52,1,982.8000000715256,889273.5,7780,WL,A,5.0
7,11.811999797821045,immed,48188.000202178955,Tue Mar 17 2026 15:20:23 GMT-0500 (Central Daylight Time),890355.3000000715,A,flower,O,r,91,1,1081.8000000715256,889273.5,7780,WL,A,5.0
7,12.595999956130981,immed,47404.00004386902,Tue Mar 17 2026 15:20:23 GMT-0500 (Central Daylight Time),891139.3000000715,A,flowerenter,O,enter,777,1,1865.8000000715256,889273.5,7780,WL,A,5.0
7,14.394999980926514,immed,45605.000019073486,Tue Mar 17 2026 15:20:23 GMT-0500 (Central Daylight Time),892938.4000000954,A,c,O,c,1784,1,1798.9000000953674,891139.5,7780,WL,A,6.0
7,14.563999891281128,immed,45436.00010871887,Tue Mar 17 2026 15:20:23 GMT-0500 (Central Daylight Time),893106.5,A,ch,O,h,160,1,1967.0,891139.5,7780,WL,A,6.0
7,15.01199984550476,immed,44988.00015449524,Tue Mar 17 2026 15:20:23 GMT-0500 (Central Daylight Time),893555.1000000238,A,chi,O,i,430,1,2415.600000023842,891139.5,7780,WL,A,6.0
7,15.228999853134155,immed,44771.000146865845,Tue Mar 17 2026 15:20:23 GMT-0500 (Central Daylight Time),893771.6000000238,A,chim,O,m,207,1,2632.100000023842,891139.5,7780,WL,A,6.0
7,15.728999853134155,immed,44271.000146865845,Tue Mar 17 2026 15:20:23 GMT-0500 (Central Daylight Time),894271.6000000238,A,chimn,O,n,487,1,3132.100000023842,891139.5,7780,WL,A,6.0
7,15.94599986076355,immed,44054.00013923645,Tue Mar 17 2026 15:20:23 GMT-0500 (Central Daylight Time),894489.0,A,chimne,O,e,193,1,3349.5,891139.5,7780,WL,A,6.0
7,16.09499979019165,immed,43905.00020980835,Tue Mar 17 2026 15:20:23 GMT-0500 (Central Daylight Time),894638.2000000477,A,chimney,O,y,129,1,3498.7000000476837,891139.5,7780,WL,A,6.0
7,16.59499979019165,immed,43405.00020980835,Tue Mar 17 2026 15:20:23 GMT-0500 (Central Daylight Time),895137.7000000477,A,chimneyenter,O,enter,483,1,3998.2000000476837,891139.5,7780,WL,A,6.0
7,17.111999988555908,immed,42888.00001144409,Tue Mar 17 2026 15:20:23 GMT-0500 (Central Daylight Time),895655.2000000477,A,l,O,l,498,1,517.2999999523163,895137.9000000954,7780,WL,A,7.0
7,17.27899980545044,immed,42721.00019454956,Tue Mar 17 2026 15:20:23 GMT-0500 (Central Daylight Time),895821.5,A,lo,O,o,156,1,683.5999999046326,895137.9000000954,7780,WL,A,7.0
7,17.44599986076355,immed,42554.00013923645,Tue Mar 17 2026 15:20:23 GMT-0500 (Central Daylight Time),895988.8000000715,A,log,O,g,148,1,850.8999999761581,895137.9000000954,7780,WL,A,7.0
7,18.477999925613403,immed,41522.0000743866,Tue Mar 17 2026 15:20:23 GMT-0500 (Central Daylight Time),897020.6000000238,A,logenter,O,enter,1013,1,1882.6999999284744,895137.9000000954,7780,WL,A,7.0
7,19.76099991798401,immed,40239.00008201599,Tue Mar 17 2026 15:20:23 GMT-0500 (Central Daylight Time),898303.8000000715,A,g,O,g,1263,1,1282.8999999761581,897020.9000000954,7780,WL,A,8.0
7,19.926999807357788,immed,40073.00019264221,Tue Mar 17 2026 15:20:23 GMT-0500 (Central Daylight Time),898470.0,A,go,O,o,146,1,1449.0999999046326,897020.9000000954,7780,WL,A,8.0
7,20.07699990272522,immed,39923.00009727478,Tue Mar 17 2026 15:20:23 GMT-0500 (Central Daylight Time),898620.2000000477,A,gol,O,l,140,1,1599.2999999523163,897020.9000000954,7780,WL,A,8.0
7,20.277999877929688,immed,39722.00012207031,Tue Mar 17 2026 15:20:23 GMT-0500 (Central Daylight Time),898821.0,A,gold,O,d,190,1,1800.0999999046326,897020.9000000954,7780,WL,A,8.0
7,21.176999807357788,immed,38823.00019264221,Tue Mar 17 2026 15:20:23 GMT-0500 (Central Daylight Time),899719.9000000954,A,goldenter,O,enter,877,1,2699.0,897020.9000000954,7780,WL,A,8.0
7,23.026999950408936,immed,36973.000049591064,Tue Mar 17 2026 15:20:23 GMT-0500 (Central Daylight Time),901570.3000000715,A,h,O,h,1838,1,1850.2000000476837,899720.1000000238,7780,WL,A,9.0
7,23.175999879837036,immed,36824.000120162964,Tue Mar 17 2026 15:20:23 GMT-0500 (Central Daylight Time),901719.5,A,ha,O,a,137,1,1999.3999999761581,899720.1000000238,7780,WL,A,9.0
7,23.357999801635742,immed,36642.00019836426,Tue Mar 17 2026 15:20:23 GMT-0500 (Central Daylight Time),901901.2000000477,A,har,O,r,162,1,2181.100000023842,899720.1000000238,7780,WL,A,9.0
7,23.758999824523926,immed,36241.000175476074,Tue Mar 17 2026 15:20:23 GMT-0500 (Central Daylight Time),902302.4000000954,A,harp,O,p,383,1,2582.3000000715256,899720.1000000238,7780,WL,A,9.0
7,25.22499990463257,immed,34775.00009536743,Tue Mar 17 2026 15:20:23 GMT-0500 (Central Daylight Time),903768.3000000715,A,harpenter,O,enter,1451,1,4048.2000000476837,899720.1000000238,7780,WL,A,9.0
7,28.824999809265137,immed,31175.000190734863,Tue Mar 17 2026 15:20:23 GMT-0500 (Central Daylight Time),907367.9000000954,A,f,O,f,3589,1,3599.4000000953674,903768.5,7780,WL,A,10.0
7,28.97699999809265,immed,31023.00000190735,Tue Mar 17 2026 15:20:23 GMT-0500 (Central Daylight Time),907519.8000000715,A,fi,O,i,133,1,3751.3000000715256,903768.5,7780,WL,A,10.0
7,29.056999921798706,immed,30943.000078201294,Tue Mar 17 2026 15:20:23 GMT-0500 (Central Daylight Time),907600.6000000238,A,fin,O,n,66,1,3832.100000023842,903768.5,7780,WL,A,10.0
7,29.173999786376953,immed,30826.000213623047,Tue Mar 17 2026 15:20:23 GMT-0500 (Central Daylight Time),907717.0,A,fing,O,g,97,1,3948.5,903768.5,7780,WL,A,10.0
7,29.37399983406067,immed,30626.00016593933,Tue Mar 17 2026 15:20:23 GMT-0500 (Central Daylight Time),907917.2000000477,A,finge,O,e,192,1,4148.700000047684,903768.5,7780,WL,A,10.0
7,29.473999977111816,immed,30526.000022888184,Tue Mar 17 2026 15:20:23 GMT-0500 (Central Daylight Time),908017.3000000715,A,finger,O,r,80,1,4248.800000071526,903768.5,7780,WL,A,10.0
7,29.825999975204468,immed,30174.000024795532,Tue Mar 17 2026 15:20:23 GMT-0500 (Central Daylight Time),908369.4000000954,A,fingerenter,O,enter,345,1,4600.900000095367,903768.5,7780,WL,A,10.0
7,30.20699977874756,immed,29793.00022125244,Tue Mar 17 2026 15:20:23 GMT-0500 (Central Daylight Time),908750.6000000238,A,s,O,s,370,1,380.89999997615814,908369.7000000477,7780,WL,A,11.0
7,30.372999906539917,immed,29627.000093460083,Tue Mar 17 2026 15:20:23 GMT-0500 (Central Daylight Time),908916.0,A,sa,O,a,155,1,546.2999999523163,908369.7000000477,7780,WL,A,11.0
