block_c,block_dur,condition,countdown,datetime,endtime,list,multichar_response,project,response,response_time,session_number,start_end,starttime,subject_id,task,task_vers,trial
,,,,Wed Apr 08 2026 16:11:15 GMT-0400 (Eastern Daylight Time),,,,I,space,315,1,,,9062,WL,B,
prac,,0,,Wed Apr 08 2026 16:11:15 GMT-0400 (Eastern Daylight Time),,NA,b,I,b,6139,1,,,9062,WL,B,1.0
prac,,0,,Wed Apr 08 2026 16:11:15 GMT-0400 (Eastern Daylight Time),,NA,bo,I,o,851,1,,,9062,WL,B,1.0
prac,,0,,Wed Apr 08 2026 16:11:15 GMT-0400 (Eastern Daylight Time),,NA,boo,I,o,139,1,,,9062,WL,B,1.0
prac,,0,,Wed Apr 08 2026 16:11:15 GMT-0400 (Eastern Daylight Time),,NA,bood,I,d,621,1,,,9062,WL,B,1.0
prac,,0,,Wed Apr 08 2026 16:11:15 GMT-0400 (Eastern Daylight Time),,NA,boo,I,backspace,881,1,,,9062,WL,B,1.0
prac,,0,,Wed Apr 08 2026 16:11:15 GMT-0400 (Eastern Daylight Time),,NA,boos,I,s,288,1,,,9062,WL,B,1.0
prac,,0,,Wed Apr 08 2026 16:11:15 GMT-0400 (Eastern Daylight Time),,NA,boost,I,t,204,1,,,9062,WL,B,1.0
prac,,0,,Wed Apr 08 2026 16:11:15 GMT-0400 (Eastern Daylight Time),,NA,boostenter,I,enter,3474,1,,,9062,WL,B,1.0
1,2.1500000953674316,learn,57849.99990463257,Wed Apr 08 2026 16:11:15 GMT-0400 (Eastern Daylight Time),133537.20000000112,A,f,I,f,2120,1,2149.300000000745,131387.90000000037,9062,WL,B,1.0
1,2.5,learn,57500.0,Wed Apr 08 2026 16:11:15 GMT-0400 (Eastern Daylight Time),133887.1000000015,A,fi,I,i,323,1,2499.2000000011176,131387.90000000037,9062,WL,B,1.0
1,2.615999937057495,learn,57384.000062942505,Wed Apr 08 2026 16:11:15 GMT-0400 (Eastern Daylight Time),134003.20000000112,A,fir,I,r,100,1,2615.300000000745,131387.90000000037,9062,WL,B,1.0
1,2.749000072479248,learn,57250.99992752075,Wed Apr 08 2026 16:11:15 GMT-0400 (Eastern Daylight Time),134136.30000000075,A,fire,I,e,123,1,2748.4000000003725,131387.90000000037,9062,WL,B,1.0
1,3.799999952316284,learn,56200.000047683716,Wed Apr 08 2026 16:11:15 GMT-0400 (Eastern Daylight Time),135186.5,A,fireenter,I,enter,1037,1,3798.5999999996275,131387.90000000037,9062,WL,B,1.0
1,4.733000040054321,learn,55266.99995994568,Wed Apr 08 2026 16:11:15 GMT-0400 (Eastern Daylight Time),136120.0,A,s,I,s,914,1,932.7999999988824,135187.20000000112,9062,WL,B,2.0
1,5.049999952316284,learn,54950.000047683716,Wed Apr 08 2026 16:11:15 GMT-0400 (Eastern Daylight Time),136436.90000000037,A,st,I,t,293,1,1249.699999999255,135187.20000000112,9062,WL,B,2.0
1,5.266999959945679,learn,54733.00004005432,Wed Apr 08 2026 16:11:15 GMT-0400 (Eastern Daylight Time),136653.6000000015,A,sta,I,a,190,1,1466.4000000003725,135187.20000000112,9062,WL,B,2.0
1,5.450000047683716,learn,54549.999952316284,Wed Apr 08 2026 16:11:15 GMT-0400 (Eastern Daylight Time),136836.80000000075,A,star,I,r,157,1,1649.5999999996275,135187.20000000112,9062,WL,B,2.0
1,5.75,learn,54250.0,Wed Apr 08 2026 16:11:15 GMT-0400 (Eastern Daylight Time),137137.1000000015,A,starenter,I,enter,286,1,1949.9000000003725,135187.20000000112,9062,WL,B,2.0
1,6.867000102996826,learn,53132.999897003174,Wed Apr 08 2026 16:11:15 GMT-0400 (Eastern Daylight Time),138253.5,A,p,I,p,1093,1,1115.5999999996275,137137.90000000037,9062,WL,B,3.0
1,7.067000150680542,learn,52932.99984931946,Wed Apr 08 2026 16:11:15 GMT-0400 (Eastern Daylight Time),138453.5,A,pi,I,i,182,1,1315.5999999996275,137137.90000000037,9062,WL,B,3.0
1,7.2829999923706055,learn,52717.000007629395,Wed Apr 08 2026 16:11:15 GMT-0400 (Eastern Daylight Time),138670.1000000015,A,pip,I,p,191,1,1532.2000000011176,137137.90000000037,9062,WL,B,3.0
1,7.75,learn,52250.0,Wed Apr 08 2026 16:11:15 GMT-0400 (Eastern Daylight Time),139136.90000000037,A,pipe,I,e,447,1,1999.0,137137.90000000037,9062,WL,B,3.0
1,8.08299994468689,learn,51917.00005531311,Wed Apr 08 2026 16:11:15 GMT-0400 (Eastern Daylight Time),139469.90000000037,A,pipeenter,I,enter,313,1,2332.0,137137.90000000037,9062,WL,B,3.0
1,9.150000095367432,learn,50849.99990463257,Wed Apr 08 2026 16:11:15 GMT-0400 (Eastern Daylight Time),140537.0,A,w,I,w,1057,1,1066.5,139470.5,9062,WL,B,4.0
1,9.400000095367432,learn,50599.99990463257,Wed Apr 08 2026 16:11:15 GMT-0400 (Eastern Daylight Time),140787.1000000015,A,wi,I,i,225,1,1316.6000000014901,139470.5,9062,WL,B,4.0
1,9.967000007629395,learn,50032.999992370605,Wed Apr 08 2026 16:11:15 GMT-0400 (Eastern Daylight Time),141353.5,A,wif,I,f,545,1,1883.0,139470.5,9062,WL,B,4.0
1,10.200000047683716,learn,49799.999952316284,Wed Apr 08 2026 16:11:15 GMT-0400 (Eastern Daylight Time),141587.0,A,wife,I,e,219,1,2116.5,139470.5,9062,WL,B,4.0
1,10.532999992370605,learn,49467.000007629395,Wed Apr 08 2026 16:11:15 GMT-0400 (Eastern Daylight Time),141919.90000000037,A,wifeenter,I,enter,313,1,2449.4000000003725,139470.5,9062,WL,B,4.0
1,16.549999952316284,learn,43450.000047683716,Wed Apr 08 2026 16:11:15 GMT-0400 (Eastern Daylight Time),147936.90000000037,A,g,I,g,6007,1,6016.5999999996275,141920.30000000075,9062,WL,B,5.0
1,16.700999975204468,learn,43299.00002479553,Wed Apr 08 2026 16:11:15 GMT-0400 (Eastern Daylight Time),148088.0,A,gr,I,r,137,1,6167.699999999255,141920.30000000075,9062,WL,B,5.0
1,17.032999992370605,learn,42967.000007629395,Wed Apr 08 2026 16:11:15 GMT-0400 (Eastern Daylight Time),148419.90000000037,A,gra,I,a,313,1,6499.5999999996275,141920.30000000075,9062,WL,B,5.0
1,17.383000135421753,learn,42616.99986457825,Wed Apr 08 2026 16:11:15 GMT-0400 (Eastern Daylight Time),148770.20000000112,A,gras,I,s,338,1,6849.9000000003725,141920.30000000075,9062,WL,B,5.0
1,17.5,learn,42500.0,Wed Apr 08 2026 16:11:15 GMT-0400 (Eastern Daylight Time),148886.6000000015,A,grass,I,s,104,1,6966.300000000745,141920.30000000075,9062,WL,B,5.0
1,17.90000009536743,learn,42099.99990463257,Wed Apr 08 2026 16:11:15 GMT-0400 (Eastern Daylight Time),149286.6000000015,A,grassenter,I,enter,381,1,7366.300000000745,141920.30000000075,9062,WL,B,5.0
1,19.65000009536743,learn,40349.99990463257,Wed Apr 08 2026 16:11:15 GMT-0400 (Eastern Daylight Time),151037.0,A,a,I,a,1727,1,1750.0999999996275,149286.90000000037,9062,WL,B,6.0
1,19.933000087738037,learn,40066.99991226196,Wed Apr 08 2026 16:11:15 GMT-0400 (Eastern Daylight Time),151320.40000000037,A,ar,I,r,263,1,2033.5,149286.90000000037,9062,WL,B,6.0
1,20.15000009536743,learn,39849.99990463257,Wed Apr 08 2026 16:11:15 GMT-0400 (Eastern Daylight Time),151537.0,A,arm,I,m,203,1,2250.0999999996275,149286.90000000037,9062,WL,B,6.0
1,20.516000032424927,learn,39483.99996757507,Wed Apr 08 2026 16:11:15 GMT-0400 (Eastern Daylight Time),151903.20000000112,A,armenter,I,enter,339,1,2616.300000000745,149286.90000000037,9062,WL,B,6.0
1,23.26699995994568,learn,36733.00004005432,Wed Apr 08 2026 16:11:15 GMT-0400 (Eastern Daylight Time),154653.40000000037,A,d,I,d,2736,1,2749.5999999996275,151903.80000000075,9062,WL,B,7.0
1,23.567000150680542,learn,36432.99984931946,Wed Apr 08 2026 16:11:15 GMT-0400 (Eastern Daylight Time),154953.40000000037,A,do,I,o,285,1,3049.5999999996275,151903.80000000075,9062,WL,B,7.0
1,23.683000087738037,learn,36316.99991226196,Wed Apr 08 2026 16:11:15 GMT-0400 (Eastern Daylight Time),155070.1000000015,A,doo,I,o,90,1,3166.300000000745,151903.80000000075,9062,WL,B,7.0
1,23.950000047683716,learn,36049.999952316284,Wed Apr 08 2026 16:11:15 GMT-0400 (Eastern Daylight Time),155336.5,A,door,I,r,234,1,3432.699999999255,151903.80000000075,9062,WL,B,7.0
1,24.23300004005432,learn,35766.99995994568,Wed Apr 08 2026 16:11:15 GMT-0400 (Eastern Daylight Time),155619.90000000037,A,doorenter,I,enter,267,1,3716.0999999996275,151903.80000000075,9062,WL,B,7.0
1,28.58299994468689,learn,31417.00005531311,Wed Apr 08 2026 16:11:15 GMT-0400 (Eastern Daylight Time),159969.90000000037,A,c,I,c,4330,1,4349.5999999996275,155620.30000000075,9062,WL,B,8.0
1,28.782999992370605,learn,31217.000007629395,Wed Apr 08 2026 16:11:15 GMT-0400 (Eastern Daylight Time),160170.30000000075,A,ca,I,a,188,1,4550.0,155620.30000000075,9062,WL,B,8.0
1,28.91700005531311,learn,31082.99994468689,Wed Apr 08 2026 16:11:15 GMT-0400 (Eastern Daylight Time),160303.5,A,cab,I,b,122,1,4683.199999999255,155620.30000000075,9062,WL,B,8.0
1,29.117000102996826,learn,30882.999897003174,Wed Apr 08 2026 16:11:15 GMT-0400 (Eastern Daylight Time),160503.40000000037,A,cabi,I,i,180,1,4883.0999999996275,155620.30000000075,9062,WL,B,8.0
1,29.317000150680542,learn,30682.999849319458,Wed Apr 08 2026 16:11:15 GMT-0400 (Eastern Daylight Time),160703.5,A,cabin,I,n,180,1,5083.199999999255,155620.30000000075,9062,WL,B,8.0
1,29.633000135421753,learn,30366.999864578247,Wed Apr 08 2026 16:11:15 GMT-0400 (Eastern Daylight Time),161019.80000000075,A,cabinenter,I,enter,300,1,5399.5,155620.30000000075,9062,WL,B,8.0
1,32.06700015068054,learn,27932.999849319458,Wed Apr 08 2026 16:11:15 GMT-0400 (Eastern Daylight Time),163453.5,A,l,I,l,2411,1,2433.2999999988824,161020.20000000112,9062,WL,B,9.0
1,32.532999992370605,learn,27467.000007629395,Wed Apr 08 2026 16:11:15 GMT-0400 (Eastern Daylight Time),163920.20000000112,A,la,I,a,447,1,2900.0,161020.20000000112,9062,WL,B,9.0
1,32.68300008773804,learn,27316.999912261963,Wed Apr 08 2026 16:11:15 GMT-0400 (Eastern Daylight Time),164069.70000000112,A,lak,I,k,140,1,3049.5,161020.20000000112,9062,WL,B,9.0
1,32.90000009536743,learn,27099.99990463257,Wed Apr 08 2026 16:11:15 GMT-0400 (Eastern Daylight Time),164287.0,A,lake,I,e,201,1,3266.7999999988824,161020.20000000112,9062,WL,B,9.0
1,33.13300013542175,learn,26866.999864578247,Wed Apr 08 2026 16:11:15 GMT-0400 (Eastern Daylight Time),164519.90000000037,A,lakeenter,I,enter,213,1,3499.699999999255,161020.20000000112,9062,WL,B,9.0
1,37.06700015068054,learn,22932.999849319458,Wed Apr 08 2026 16:11:15 GMT-0400 (Eastern Daylight Time),168453.5,A,s,I,s,3912,1,3933.199999999255,164520.30000000075,9062,WL,B,10.0
1,37.450000047683716,learn,22549.999952316284,Wed Apr 08 2026 16:11:15 GMT-0400 (Eastern Daylight Time),168837.0,A,st,I,t,359,1,4316.699999999255,164520.30000000075,9062,WL,B,10.0
1,37.65000009536743,learn,22349.99990463257,Wed Apr 08 2026 16:11:15 GMT-0400 (Eastern Daylight Time),169036.90000000037,A,str,I,r,183,1,4516.5999999996275,164520.30000000075,9062,WL,B,10.0
1,37.867000102996826,learn,22132.999897003174,Wed Apr 08 2026 16:11:15 GMT-0400 (Eastern Daylight Time),169253.40000000037,A,stre,I,e,206,1,4733.0999999996275,164520.30000000075,9062,WL,B,10.0
1,37.98399996757507,learn,22016.000032424927,Wed Apr 08 2026 16:11:15 GMT-0400 (Eastern Daylight Time),169370.40000000037,A,stree,I,e,103,1,4850.0999999996275,164520.30000000075,9062,WL,B,10.0
1,38.18300008773804,learn,21816.999912261963,Wed Apr 08 2026 16:11:15 GMT-0400 (Eastern Daylight Time),169570.20000000112,A,street,I,t,179,1,5049.9000000003725,164520.30000000075,9062,WL,B,10.0
1,38.46600008010864,learn,21533.999919891357,Wed Apr 08 2026 16:11:15 GMT-0400 (Eastern Daylight Time),169853.20000000112,A,streetenter,I,enter,265,1,5332.9000000003725,164520.30000000075,9062,WL,B,10.0
1,60.01699995994568,learn,-16.99995994567871,Wed Apr 08 2026 16:11:15 GMT-0400 (Eastern Daylight Time),191403.70000000112,A,None,I,None,21544,1,21550.099999999627,169853.6000000015,9062,WL,B,11.0
2,1.0339999198913574,learn,58966.00008010864,Wed Apr 08 2026 16:11:15 GMT-0400 (Eastern Daylight Time),276553.5,A,s,I,s,1013,1,1032.7999999988824,275520.7000000011,9062,WL,B,1.0
2,1.4670000076293945,learn,58532.999992370605,Wed Apr 08 2026 16:11:15 GMT-0400 (Eastern Daylight Time),276986.7000000011,A,st,I,t,411,1,1466.0,275520.7000000011,9062,WL,B,1.0
2,1.6669998168945312,learn,58333.00018310547,Wed Apr 08 2026 16:11:15 GMT-0400 (Eastern Daylight Time),277186.9000000004,A,str,I,r,184,1,1666.199999999255,275520.7000000011,9062,WL,B,1.0
2,1.9499998092651367,learn,58050.00019073486,Wed Apr 08 2026 16:11:15 GMT-0400 (Eastern Daylight Time),277470.2000000011,A,stre,I,e,256,1,1949.5,275520.7000000011,9062,WL,B,1.0
2,2.0839998722076416,learn,57916.00012779236,Wed Apr 08 2026 16:11:15 GMT-0400 (Eastern Daylight Time),277603.4000000004,A,stree,I,e,103,1,2082.699999999255,275520.7000000011,9062,WL,B,1.0
2,2.2839999198913574,learn,57716.00008010864,Wed Apr 08 2026 16:11:15 GMT-0400 (Eastern Daylight Time),277803.5,A,street,I,t,169,1,2282.7999999988824,275520.7000000011,9062,WL,B,1.0
2,3.1499998569488525,learn,56850.00014305115,Wed Apr 08 2026 16:11:15 GMT-0400 (Eastern Daylight Time),278669.7000000011,A,streetenter,I,enter,856,1,3149.0,275520.7000000011,9062,WL,B,1.0
2,4.116999864578247,learn,55883.00013542175,Wed Apr 08 2026 16:11:15 GMT-0400 (Eastern Daylight Time),279636.80000000075,A,g,I,g,954,1,966.8000000007451,278670.0,9062,WL,B,2.0
2,4.383999824523926,learn,55616.000175476074,Wed Apr 08 2026 16:11:15 GMT-0400 (Eastern Daylight Time),279903.6000000015,A,gr,I,r,248,1,1233.6000000014901,278670.0,9062,WL,B,2.0
2,4.699999809265137,learn,55300.00019073486,Wed Apr 08 2026 16:11:15 GMT-0400 (Eastern Daylight Time),280220.2000000011,A,gra,I,a,301,1,1550.2000000011176,278670.0,9062,WL,B,2.0
2,5.033999919891357,learn,54966.00008010864,Wed Apr 08 2026 16:11:15 GMT-0400 (Eastern Daylight Time),280553.5,A,gras,I,s,320,1,1883.5,278670.0,9062,WL,B,2.0
2,5.166999816894531,learn,54833.00018310547,Wed Apr 08 2026 16:11:15 GMT-0400 (Eastern Daylight Time),280686.7000000011,A,grass,I,s,123,1,2016.7000000011176,278670.0,9062,WL,B,2.0
2,5.482999801635742,learn,54517.00019836426,Wed Apr 08 2026 16:11:15 GMT-0400 (Eastern Daylight Time),281003.1000000015,A,grassenter,I,enter,301,1,2333.10000000149,278670.0,9062,WL,B,2.0
2,6.099999904632568,learn,53900.00009536743,Wed Apr 08 2026 16:11:15 GMT-0400 (Eastern Daylight Time),281620.2000000011,A,d,I,d,596,1,616.8000000007451,281003.4000000004,9062,WL,B,3.0
2,6.5,learn,53500.0,Wed Apr 08 2026 16:11:15 GMT-0400 (Eastern Daylight Time),282020.30000000075,A,do,I,o,373,1,1016.9000000003725,281003.4000000004,9062,WL,B,3.0
2,6.633999824523926,learn,53366.000175476074,Wed Apr 08 2026 16:11:15 GMT-0400 (Eastern Daylight Time),282153.6000000015,A,doo,I,o,112,1,1150.2000000011176,281003.4000000004,9062,WL,B,3.0
2,7.0,learn,53000.0,Wed Apr 08 2026 16:11:15 GMT-0400 (Eastern Daylight Time),282520.2000000011,A,door,I,r,354,1,1516.800000000745,281003.4000000004,9062,WL,B,3.0
2,7.3999998569488525,learn,52600.00014305115,Wed Apr 08 2026 16:11:15 GMT-0400 (Eastern Daylight Time),282919.80000000075,A,doorenter,I,enter,379,1,1916.4000000003725,281003.4000000004,9062,WL,B,3.0
2,7.684000015258789,learn,52315.99998474121,Wed Apr 08 2026 16:11:15 GMT-0400 (Eastern Daylight Time),283203.6000000015,A,a,I,a,272,1,283.40000000037253,282920.2000000011,9062,WL,B,4.0
2,8.016999959945679,learn,51983.00004005432,Wed Apr 08 2026 16:11:15 GMT-0400 (Eastern Daylight Time),283536.80000000075,A,ar,I,r,312,1,616.5999999996275,282920.2000000011,9062,WL,B,4.0
2,8.266999959945679,learn,51733.00004005432,Wed Apr 08 2026 16:11:15 GMT-0400 (Eastern Daylight Time),283786.9000000004,A,arm,I,m,238,1,866.6999999992549,282920.2000000011,9062,WL,B,4.0
2,8.616999864578247,learn,51383.00013542175,Wed Apr 08 2026 16:11:15 GMT-0400 (Eastern Daylight Time),284136.6000000015,A,armenter,I,enter,325,1,1216.4000000003725,282920.2000000011,9062,WL,B,4.0
2,9.833999872207642,learn,50166.00012779236,Wed Apr 08 2026 16:11:15 GMT-0400 (Eastern Daylight Time),285353.5,A,s,I,s,1199,1,1216.5,284137.0,9062,WL,B,5.0
2,10.133999824523926,learn,49866.000175476074,Wed Apr 08 2026 16:11:15 GMT-0400 (Eastern Daylight Time),285653.6000000015,A,st,I,t,283,1,1516.6000000014901,284137.0,9062,WL,B,5.0
2,10.383999824523926,learn,49616.000175476074,Wed Apr 08 2026 16:11:15 GMT-0400 (Eastern Daylight Time),285903.5,A,sta,I,a,239,1,1766.5,284137.0,9062,WL,B,5.0
2,10.816999912261963,learn,49183.00008773804,Wed Apr 08 2026 16:11:15 GMT-0400 (Eastern Daylight Time),286336.9000000004,A,star,I,r,422,1,2199.9000000003725,284137.0,9062,WL,B,5.0
2,11.682999849319458,learn,48317.00015068054,Wed Apr 08 2026 16:11:15 GMT-0400 (Eastern Daylight Time),287203.30000000075,A,starenter,I,enter,843,1,3066.300000000745,284137.0,9062,WL,B,5.0
2,13.033999919891357,learn,46966.00008010864,Wed Apr 08 2026 16:11:15 GMT-0400 (Eastern Daylight Time),288553.6000000015,A,w,I,w,1340,1,1350.0,287203.6000000015,9062,WL,B,6.0
2,13.299999952316284,learn,46700.000047683716,Wed Apr 08 2026 16:11:15 GMT-0400 (Eastern Daylight Time),288820.2000000011,A,wi,I,i,251,1,1616.5999999996275,287203.6000000015,9062,WL,B,6.0
2,13.583999872207642,learn,46416.00012779236,Wed Apr 08 2026 16:11:15 GMT-0400 (Eastern Daylight Time),289103.5,A,wif,I,f,274,1,1899.8999999985099,287203.6000000015,9062,WL,B,6.0
2,13.816999912261963,learn,46183.00008773804,Wed Apr 08 2026 16:11:15 GMT-0400 (Eastern Daylight Time),289337.0,A,wife,I,e,220,1,2133.39999999851,287203.6000000015,9062,WL,B,6.0
2,14.066999912261963,learn,45933.00008773804,Wed Apr 08 2026 16:11:15 GMT-0400 (Eastern Daylight Time),289586.6000000015,A,wifeenter,I,enter,228,1,2383.0,287203.6000000015,9062,WL,B,6.0
2,14.483999967575073,learn,45516.00003242493,Wed Apr 08 2026 16:11:15 GMT-0400 (Eastern Daylight Time),290003.4000000004,A,w,I,w,397,1,416.40000000037253,289587.0,9062,WL,B,7.0
2,14.682999849319458,learn,45317.00015068054,Wed Apr 08 2026 16:11:15 GMT-0400 (Eastern Daylight Time),290203.1000000015,A,wi,I,i,183,1,616.1000000014901,289587.0,9062,WL,B,7.0
2,14.849999904632568,learn,45150.00009536743,Wed Apr 08 2026 16:11:15 GMT-0400 (Eastern Daylight Time),290370.30000000075,A,win,I,n,148,1,783.3000000007451,289587.0,9062,WL,B,7.0
2,15.016999959945679,learn,44983.00004005432,Wed Apr 08 2026 16:11:15 GMT-0400 (Eastern Daylight Time),290537.0,A,wind,I,d,152,1,950.0,289587.0,9062,WL,B,7.0
2,15.166999816894531,learn,44833.00018310547,Wed Apr 08 2026 16:11:15 GMT-0400 (Eastern Daylight Time),290686.9000000004,A,windo,I,o,131,1,1099.9000000003725,289587.0,9062,WL,B,7.0
2,15.434000015258789,learn,44565.99998474121,Wed Apr 08 2026 16:11:15 GMT-0400 (Eastern Daylight Time),290953.7000000011,A,window,I,w,246,1,1366.7000000011176,289587.0,9062,WL,B,7.0
2,15.732999801635742,learn,44267.00019836426,Wed Apr 08 2026 16:11:15 GMT-0400 (Eastern Daylight Time),291253.2000000011,A,windowenter,I,enter,282,1,1666.2000000011176,289587.0,9062,WL,B,7.0
2,19.149999856948853,learn,40850.00014305115,Wed Apr 08 2026 16:11:15 GMT-0400 (Eastern Daylight Time),294670.2000000011,A,p,I,p,3411,1,3416.7000000011176,291253.5,9062,WL,B,8.0
2,19.432999849319458,learn,40567.00015068054,Wed Apr 08 2026 16:11:15 GMT-0400 (Eastern Daylight Time),294953.4000000004,A,pu,I,u,262,1,3699.9000000003725,291253.5,9062,WL,B,8.0
2,19.699999809265137,learn,40300.00019073486,Wed Apr 08 2026 16:11:15 GMT-0400 (Eastern Daylight Time),295220.2000000011,A,pup,I,p,243,1,3966.7000000011176,291253.5,9062,WL,B,8.0
2,19.91699981689453,learn,40083.00018310547,Wed Apr 08 2026 16:11:15 GMT-0400 (Eastern Daylight Time),295437.0,A,pupi,I,i,199,1,4183.5,291253.5,9062,WL,B,8.0
2,20.10199999809265,learn,39898.00000190735,Wed Apr 08 2026 16:11:15 GMT-0400 (Eastern Daylight Time),295621.4000000004,A,pupil,I,l,163,1,4367.9000000003725,291253.5,9062,WL,B,8.0
2,20.382999897003174,learn,39617.000102996826,Wed Apr 08 2026 16:11:15 GMT-0400 (Eastern Daylight Time),295903.0,A,pupilenter,I,enter,266,1,4649.5,291253.5,9062,WL,B,8.0
2,20.799999952316284,learn,39200.000047683716,Wed Apr 08 2026 16:11:15 GMT-0400 (Eastern Daylight Time),296320.30000000075,A,c,I,c,401,1,417.0,295903.30000000075,9062,WL,B,9.0
2,21.000999927520752,learn,38999.00007247925,Wed Apr 08 2026 16:11:15 GMT-0400 (Eastern Daylight Time),296521.1000000015,A,ci,I,i,188,1,617.8000000007451,295903.30000000075,9062,WL,B,9.0
2,21.33399987220764,learn,38666.00012779236,Wed Apr 08 2026 16:11:15 GMT-0400 (Eastern Daylight Time),296853.6000000015,A,cit,I,t,301,1,950.3000000007451,295903.30000000075,9062,WL,B,9.0
2,21.549999952316284,learn,38450.000047683716,Wed Apr 08 2026 16:11:15 GMT-0400 (Eastern Daylight Time),297069.9000000004,A,city,I,y,198,1,1166.5999999996275,295903.30000000075,9062,WL,B,9.0
2,22.566999912261963,learn,37433.00008773804,Wed Apr 08 2026 16:11:15 GMT-0400 (Eastern Daylight Time),298086.5,A,cityenter,I,enter,997,1,2183.199999999255,295903.30000000075,9062,WL,B,9.0
2,24.149999856948853,learn,35850.00014305115,Wed Apr 08 2026 16:11:15 GMT-0400 (Eastern Daylight Time),299670.1000000015,A,c,I,c,1569,1,1583.2000000011176,298086.9000000004,9062,WL,B,10.0
2,24.366999864578247,learn,35633.00013542175,Wed Apr 08 2026 16:11:15 GMT-0400 (Eastern Daylight Time),299886.6000000015,A,ca,I,a,207,1,1799.7000000011176,298086.9000000004,9062,WL,B,10.0
2,24.533999919891357,learn,35466.00008010864,Wed Apr 08 2026 16:11:15 GMT-0400 (Eastern Daylight Time),300053.9000000004,A,cab,I,b,134,1,1967.0,298086.9000000004,9062,WL,B,10.0
2,24.717000007629395,learn,35282.999992370605,Wed Apr 08 2026 16:11:15 GMT-0400 (Eastern Daylight Time),300237.0,A,cabi,I,i,168,1,2150.0999999996275,298086.9000000004,9062,WL,B,10.0
2,24.93400001525879,learn,35065.99998474121,Wed Apr 08 2026 16:11:15 GMT-0400 (Eastern Daylight Time),300453.5,A,cabin,I,n,184,1,2366.5999999996275,298086.9000000004,9062,WL,B,10.0
2,25.26699995994568,learn,34733.00004005432,Wed Apr 08 2026 16:11:15 GMT-0400 (Eastern Daylight Time),300786.5,A,cabinenter,I,enter,318,1,2699.5999999996275,298086.9000000004,9062,WL,B,10.0
2,26.217000007629395,learn,33782.999992370605,Wed Apr 08 2026 16:11:15 GMT-0400 (Eastern Daylight Time),301736.80000000075,A,l,I,l,933,1,949.9000000003725,300786.9000000004,9062,WL,B,11.0
2,26.43400001525879,learn,33565.99998474121,Wed Apr 08 2026 16:11:15 GMT-0400 (Eastern Daylight Time),301953.6000000015,A,la,I,a,203,1,1166.7000000011176,300786.9000000004,9062,WL,B,11.0
2,26.616999864578247,learn,33383.00013542175,Wed Apr 08 2026 16:11:15 GMT-0400 (Eastern Daylight Time),302136.9000000004,A,lak,I,k,156,1,1350.0,300786.9000000004,9062,WL,B,11.0
2,26.799999952316284,learn,33200.000047683716,Wed Apr 08 2026 16:11:15 GMT-0400 (Eastern Daylight Time),302320.2000000011,A,lake,I,e,171,1,1533.300000000745,300786.9000000004,9062,WL,B,11.0
2,27.566999912261963,learn,32433.000087738037,Wed Apr 08 2026 16:11:15 GMT-0400 (Eastern Daylight Time),303086.4000000004,A,lakeenter,I,enter,756,1,2299.5,300786.9000000004,9062,WL,B,11.0
2,28.51699995994568,learn,31483.00004005432,Wed Apr 08 2026 16:11:15 GMT-0400 (Eastern Daylight Time),304036.9000000004,A,f,I,f,937,1,950.1999999992549,303086.7000000011,9062,WL,B,12.0
2,28.68400001525879,learn,31315.99998474121,Wed Apr 08 2026 16:11:15 GMT-0400 (Eastern Daylight Time),304203.5,A,fi,I,i,143,1,1116.7999999988824,303086.7000000011,9062,WL,B,12.0
2,28.949999809265137,learn,31050.000190734863,Wed Apr 08 2026 16:11:15 GMT-0400 (Eastern Daylight Time),304470.30000000075,A,fir,I,r,236,1,1383.5999999996275,303086.7000000011,9062,WL,B,12.0
2,29.16699981689453,learn,30833.00018310547,Wed Apr 08 2026 16:11:15 GMT-0400 (Eastern Daylight Time),304686.9000000004,A,fire,I,e,198,1,1600.199999999255,303086.7000000011,9062,WL,B,12.0
2,30.09999990463257,learn,29900.00009536743,Wed Apr 08 2026 16:11:15 GMT-0400 (Eastern Daylight Time),305619.9000000004,A,fireenter,I,enter,909,1,2533.199999999255,303086.7000000011,9062,WL,B,12.0
2,38.75,learn,21250.0,Wed Apr 08 2026 16:11:15 GMT-0400 (Eastern Daylight Time),314270.30000000075,A,p,I,p,8636,1,8650.099999999627,305620.2000000011,9062,WL,B,13.0
2,38.967000007629395,learn,21032.999992370605,Wed Apr 08 2026 16:11:15 GMT-0400 (Eastern Daylight Time),314486.9000000004,A,pi,I,i,199,1,8866.699999999255,305620.2000000011,9062,WL,B,13.0
2,39.14999985694885,learn,20850.000143051147,Wed Apr 08 2026 16:11:15 GMT-0400 (Eastern Daylight Time),314670.30000000075,A,pip,I,p,151,1,9050.099999999627,305620.2000000011,9062,WL,B,13.0
2,39.33399987220764,learn,20666.00012779236,Wed Apr 08 2026 16:11:15 GMT-0400 (Eastern Daylight Time),314853.7000000011,A,pipe,I,e,158,1,9233.5,305620.2000000011,9062,WL,B,13.0
2,39.89999985694885,learn,20100.000143051147,Wed Apr 08 2026 16:11:15 GMT-0400 (Eastern Daylight Time),315419.80000000075,A,pipeenter,I,enter,542,1,9799.599999999627,305620.2000000011,9062,WL,B,13.0
2,60.01699995994568,learn,-16.99995994567871,Wed Apr 08 2026 16:11:15 GMT-0400 (Eastern Daylight Time),335537.1000000015,A,None,I,None,20111,1,20116.900000000373,315420.2000000011,9062,WL,B,14.0
3,1.2999999523162842,learn,58700.000047683716,Wed Apr 08 2026 16:11:15 GMT-0400 (Eastern Daylight Time),408054.1000000015,A,s,I,s,1291,1,1300.1000000014901,406754.0,9062,WL,B,1.0
3,1.7159998416900635,learn,58284.00015830994,Wed Apr 08 2026 16:11:15 GMT-0400 (Eastern Daylight Time),408470.2000000011,A,st,I,t,397,1,1716.2000000011176,406754.0,9062,WL,B,1.0
3,1.9500000476837158,learn,58049.999952316284,Wed Apr 08 2026 16:11:15 GMT-0400 (Eastern Daylight Time),408703.6000000015,A,str,I,r,224,1,1949.6000000014901,406754.0,9062,WL,B,1.0
3,2.200000047683716,learn,57799.999952316284,Wed Apr 08 2026 16:11:15 GMT-0400 (Eastern Daylight Time),408953.5,A,stre,I,e,230,1,2199.5,406754.0,9062,WL,B,1.0
3,2.3329999446868896,learn,57667.00005531311,Wed Apr 08 2026 16:11:15 GMT-0400 (Eastern Daylight Time),409086.7000000011,A,stree,I,e,122,1,2332.7000000011176,406754.0,9062,WL,B,1.0
3,2.4830000400543213,learn,57516.99995994568,Wed Apr 08 2026 16:11:15 GMT-0400 (Eastern Daylight Time),409236.7000000011,A,street,I,t,133,1,2482.7000000011176,406754.0,9062,WL,B,1.0
3,3.2330000400543213,learn,56766.99995994568,Wed Apr 08 2026 16:11:15 GMT-0400 (Eastern Daylight Time),409986.6000000015,A,streetenter,I,enter,736,1,3232.60000000149,406754.0,9062,WL,B,1.0
3,4.0329999923706055,learn,55967.000007629395,Wed Apr 08 2026 16:11:15 GMT-0400 (Eastern Daylight Time),410786.9000000004,A,g,I,g,788,1,800.0,409986.9000000004,9062,WL,B,2.0
3,4.382999897003174,learn,55617.000102996826,Wed Apr 08 2026 16:11:15 GMT-0400 (Eastern Daylight Time),411136.7000000011,A,gr,I,r,336,1,1149.800000000745,409986.9000000004,9062,WL,B,2.0
3,4.599999904632568,learn,55400.00009536743,Wed Apr 08 2026 16:11:15 GMT-0400 (Eastern Daylight Time),411353.4000000004,A,gra,I,a,206,1,1366.5,409986.9000000004,9062,WL,B,2.0
3,4.83299994468689,learn,55167.00005531311,Wed Apr 08 2026 16:11:15 GMT-0400 (Eastern Daylight Time),411586.9000000004,A,gras,I,s,219,1,1600.0,409986.9000000004,9062,WL,B,2.0
3,4.9659998416900635,learn,55034.00015830994,Wed Apr 08 2026 16:11:15 GMT-0400 (Eastern Daylight Time),411719.7000000011,A,grass,I,s,111,1,1732.800000000745,409986.9000000004,9062,WL,B,2.0
3,5.598999977111816,learn,54401.00002288818,Wed Apr 08 2026 16:11:15 GMT-0400 (Eastern Daylight Time),412353.30000000075,A,grassenter,I,enter,615,1,2366.4000000003725,409986.9000000004,9062,WL,B,2.0
3,5.915999889373779,learn,54084.00011062622,Wed Apr 08 2026 16:11:15 GMT-0400 (Eastern Daylight Time),412670.1000000015,A,d,I,d,294,1,316.5,412353.6000000015,9062,WL,B,3.0
3,6.133999824523926,learn,53866.000175476074,Wed Apr 08 2026 16:11:15 GMT-0400 (Eastern Daylight Time),412888.0,A,do,I,o,204,1,534.3999999985099,412353.6000000015,9062,WL,B,3.0
3,6.349999904632568,learn,53650.00009536743,Wed Apr 08 2026 16:11:15 GMT-0400 (Eastern Daylight Time),413103.5,A,doo,I,o,197,1,749.8999999985099,412353.6000000015,9062,WL,B,3.0
3,6.5329999923706055,learn,53467.000007629395,Wed Apr 08 2026 16:11:15 GMT-0400 (Eastern Daylight Time),413286.5,A,door,I,r,165,1,932.8999999985099,412353.6000000015,9062,WL,B,3.0
3,7.432999849319458,learn,52567.00015068054,Wed Apr 08 2026 16:11:15 GMT-0400 (Eastern Daylight Time),414186.4000000004,A,doorenter,I,enter,888,1,1832.7999999988824,412353.6000000015,9062,WL,B,3.0
3,8.0,learn,52000.0,Wed Apr 08 2026 16:11:15 GMT-0400 (Eastern Daylight Time),414753.6000000015,A,a,I,a,557,1,566.8000000007451,414186.80000000075,9062,WL,B,4.0
3,8.33299994468689,learn,51667.00005531311,Wed Apr 08 2026 16:11:15 GMT-0400 (Eastern Daylight Time),415086.9000000004,A,ar,I,r,315,1,900.0999999996275,414186.80000000075,9062,WL,B,4.0
3,8.533999919891357,learn,51466.00008010864,Wed Apr 08 2026 16:11:15 GMT-0400 (Eastern Daylight Time),415287.7000000011,A,arm,I,m,189,1,1100.9000000003725,414186.80000000075,9062,WL,B,4.0
3,9.782999992370605,learn,50217.000007629395,Wed Apr 08 2026 16:11:15 GMT-0400 (Eastern Daylight Time),416536.5,A,armenter,I,enter,1229,1,2349.699999999255,414186.80000000075,9062,WL,B,4.0
3,10.682999849319458,learn,49317.00015068054,Wed Apr 08 2026 16:11:15 GMT-0400 (Eastern Daylight Time),417436.9000000004,A,s,I,s,894,1,900.0999999996275,416536.80000000075,9062,WL,B,5.0
3,11.032999992370605,learn,48967.000007629395,Wed Apr 08 2026 16:11:15 GMT-0400 (Eastern Daylight Time),417787.1000000015,A,st,I,t,328,1,1250.300000000745,416536.80000000075,9062,WL,B,5.0
3,11.233000040054321,learn,48766.99995994568,Wed Apr 08 2026 16:11:15 GMT-0400 (Eastern Daylight Time),417986.9000000004,A,sta,I,a,176,1,1450.0999999996275,416536.80000000075,9062,WL,B,5.0
3,11.399999856948853,learn,48600.00014305115,Wed Apr 08 2026 16:11:15 GMT-0400 (Eastern Daylight Time),418153.5,A,star,I,r,155,1,1616.699999999255,416536.80000000075,9062,WL,B,5.0
3,11.998999834060669,learn,48001.00016593933,Wed Apr 08 2026 16:11:15 GMT-0400 (Eastern Daylight Time),418753.2000000011,A,starenter,I,enter,578,1,2216.4000000003725,416536.80000000075,9062,WL,B,5.0
3,12.382999897003174,learn,47617.000102996826,Wed Apr 08 2026 16:11:15 GMT-0400 (Eastern Daylight Time),419136.9000000004,A,w,I,w,365,1,383.2999999988824,418753.6000000015,9062,WL,B,6.0
3,12.599999904632568,learn,47400.00009536743,Wed Apr 08 2026 16:11:15 GMT-0400 (Eastern Daylight Time),419353.6000000015,A,wi,I,i,201,1,600.0,418753.6000000015,9062,WL,B,6.0
3,12.950000047683716,learn,47049.999952316284,Wed Apr 08 2026 16:11:15 GMT-0400 (Eastern Daylight Time),419703.6000000015,A,wif,I,f,331,1,950.0,418753.6000000015,9062,WL,B,6.0
3,13.299000024795532,learn,46700.99997520447,Wed Apr 08 2026 16:11:15 GMT-0400 (Eastern Daylight Time),420053.30000000075,A,wife,I,e,333,1,1299.699999999255,418753.6000000015,9062,WL,B,6.0
3,13.948999881744385,learn,46051.000118255615,Wed Apr 08 2026 16:11:15 GMT-0400 (Eastern Daylight Time),420703.2000000011,A,wifeenter,I,enter,639,1,1949.5999999996275,418753.6000000015,9062,WL,B,6.0
3,14.33299994468689,learn,45667.00005531311,Wed Apr 08 2026 16:11:15 GMT-0400 (Eastern Daylight Time),421086.6000000015,A,w,I,w,375,1,383.1000000014901,420703.5,9062,WL,B,7.0
3,14.483000040054321,learn,45516.99995994568,Wed Apr 08 2026 16:11:15 GMT-0400 (Eastern Daylight Time),421237.0,A,wi,I,i,134,1,533.5,420703.5,9062,WL,B,7.0
3,14.649999856948853,learn,45350.00014305115,Wed Apr 08 2026 16:11:15 GMT-0400 (Eastern Daylight Time),421403.7000000011,A,win,I,n,138,1,700.2000000011176,420703.5,9062,WL,B,7.0
3,14.782999992370605,learn,45217.000007629395,Wed Apr 08 2026 16:11:15 GMT-0400 (Eastern Daylight Time),421536.9000000004,A,wind,I,d,121,1,833.4000000003725,420703.5,9062,WL,B,7.0
3,14.899999856948853,learn,45100.00014305115,Wed Apr 08 2026 16:11:15 GMT-0400 (Eastern Daylight Time),421653.6000000015,A,windo,I,o,93,1,950.1000000014901,420703.5,9062,WL,B,7.0
3,15.08299994468689,learn,44917.00005531311,Wed Apr 08 2026 16:11:15 GMT-0400 (Eastern Daylight Time),421836.80000000075,A,window,I,w,151,1,1133.300000000745,420703.5,9062,WL,B,7.0
3,17.032999992370605,learn,42967.000007629395,Wed Apr 08 2026 16:11:15 GMT-0400 (Eastern Daylight Time),423786.6000000015,A,windowenter,I,enter,1935,1,3083.10000000149,420703.5,9062,WL,B,7.0
3,18.465999841690063,learn,41534.00015830994,Wed Apr 08 2026 16:11:15 GMT-0400 (Eastern Daylight Time),425219.80000000075,A,c,I,c,1412,1,1432.9000000003725,423786.9000000004,9062,WL,B,8.0
3,18.649999856948853,learn,41350.00014305115,Wed Apr 08 2026 16:11:15 GMT-0400 (Eastern Daylight Time),425403.7000000011,A,ci,I,i,163,1,1616.800000000745,423786.9000000004,9062,WL,B,8.0
3,18.899999856948853,learn,41100.00014305115,Wed Apr 08 2026 16:11:15 GMT-0400 (Eastern Daylight Time),425653.7000000011,A,cit,I,t,225,1,1866.800000000745,423786.9000000004,9062,WL,B,8.0
3,19.032999992370605,learn,40967.000007629395,Wed Apr 08 2026 16:11:15 GMT-0400 (Eastern Daylight Time),425786.9000000004,A,city,I,y,116,1,2000.0,423786.9000000004,9062,WL,B,8.0
3,19.948999881744385,learn,40051.000118255615,Wed Apr 08 2026 16:11:15 GMT-0400 (Eastern Daylight Time),426703.2000000011,A,cityenter,I,enter,904,1,2916.300000000745,423786.9000000004,9062,WL,B,8.0
3,22.83299994468689,learn,37167.00005531311,Wed Apr 08 2026 16:11:15 GMT-0400 (Eastern Daylight Time),429587.0,A,p,I,p,2871,1,2883.39999999851,426703.6000000015,9062,WL,B,9.0
3,23.16599988937378,learn,36834.00011062622,Wed Apr 08 2026 16:11:15 GMT-0400 (Eastern Daylight Time),429920.0,A,pu,I,u,311,1,3216.39999999851,426703.6000000015,9062,WL,B,9.0
3,23.450000047683716,learn,36549.999952316284,Wed Apr 08 2026 16:11:15 GMT-0400 (Eastern Daylight Time),430203.5,A,pup,I,p,255,1,3499.89999999851,426703.6000000015,9062,WL,B,9.0
3,23.682999849319458,learn,36317.00015068054,Wed Apr 08 2026 16:11:15 GMT-0400 (Eastern Daylight Time),430437.2000000011,A,pupi,I,i,207,1,3733.5999999996275,426703.6000000015,9062,WL,B,9.0
3,23.882999897003174,learn,36117.000102996826,Wed Apr 08 2026 16:11:15 GMT-0400 (Eastern Daylight Time),430637.1000000015,A,pupil,I,l,167,1,3933.5,426703.6000000015,9062,WL,B,9.0
3,25.08299994468689,learn,34917.00005531311,Wed Apr 08 2026 16:11:15 GMT-0400 (Eastern Daylight Time),431836.6000000015,A,pupilenter,I,enter,1175,1,5133.0,426703.6000000015,9062,WL,B,9.0
3,26.58299994468689,learn,33417.00005531311,Wed Apr 08 2026 16:11:15 GMT-0400 (Eastern Daylight Time),433336.9000000004,A,c,I,c,1483,1,1500.0999999996275,431836.80000000075,9062,WL,B,10.0
3,26.782999992370605,learn,33217.000007629395,Wed Apr 08 2026 16:11:15 GMT-0400 (Eastern Daylight Time),433536.7000000011,A,ca,I,a,185,1,1699.9000000003725,431836.80000000075,9062,WL,B,10.0
3,26.98300004005432,learn,33016.99995994568,Wed Apr 08 2026 16:11:15 GMT-0400 (Eastern Daylight Time),433736.9000000004,A,cab,I,b,179,1,1900.0999999996275,431836.80000000075,9062,WL,B,10.0
3,27.149999856948853,learn,32850.00014305115,Wed Apr 08 2026 16:11:15 GMT-0400 (Eastern Daylight Time),433903.6000000015,A,cabi,I,i,147,1,2066.800000000745,431836.80000000075,9062,WL,B,10.0
3,27.34999990463257,learn,32650.00009536743,Wed Apr 08 2026 16:11:15 GMT-0400 (Eastern Daylight Time),434103.5,A,cabin,I,n,189,1,2266.699999999255,431836.80000000075,9062,WL,B,10.0
3,28.08299994468689,learn,31917.00005531311,Wed Apr 08 2026 16:11:15 GMT-0400 (Eastern Daylight Time),434836.6000000015,A,cabinenter,I,enter,709,1,2999.800000000745,431836.80000000075,9062,WL,B,10.0
3,28.467000007629395,learn,31532.999992370605,Wed Apr 08 2026 16:11:15 GMT-0400 (Eastern Daylight Time),435221.0,A,l,I,l,371,1,384.09999999962747,434836.9000000004,9062,WL,B,11.0
3,28.649999856948853,learn,31350.000143051147,Wed Apr 08 2026 16:11:15 GMT-0400 (Eastern Daylight Time),435403.6000000015,A,la,I,a,158,1,566.7000000011176,434836.9000000004,9062,WL,B,11.0
3,28.782999992370605,learn,31217.000007629395,Wed Apr 08 2026 16:11:15 GMT-0400 (Eastern Daylight Time),435536.80000000075,A,lak,I,k,105,1,699.9000000003725,434836.9000000004,9062,WL,B,11.0
3,29.016000032424927,learn,30983.999967575073,Wed Apr 08 2026 16:11:15 GMT-0400 (Eastern Daylight Time),435770.2000000011,A,lake,I,e,218,1,933.3000000007451,434836.9000000004,9062,WL,B,11.0
3,32.098999977111816,learn,27901.000022888184,Wed Apr 08 2026 16:11:15 GMT-0400 (Eastern Daylight Time),438853.2000000011,A,lakeenter,I,enter,3049,1,4016.300000000745,434836.9000000004,9062,WL,B,11.0
3,33.06599998474121,learn,26934.00001525879,Wed Apr 08 2026 16:11:15 GMT-0400 (Eastern Daylight Time),439820.1000000015,A,p,I,p,954,1,966.6000000014901,438853.5,9062,WL,B,12.0
3,33.31599998474121,learn,26684.00001525879,Wed Apr 08 2026 16:11:15 GMT-0400 (Eastern Daylight Time),440070.2000000011,A,pi,I,i,230,1,1216.7000000011176,438853.5,9062,WL,B,12.0
3,33.51600003242493,learn,26483.999967575073,Wed Apr 08 2026 16:11:15 GMT-0400 (Eastern Daylight Time),440270.2000000011,A,pip,I,p,181,1,1416.7000000011176,438853.5,9062,WL,B,12.0
3,33.700000047683716,learn,26299.999952316284,Wed Apr 08 2026 16:11:15 GMT-0400 (Eastern Daylight Time),440453.6000000015,A,pipe,I,e,158,1,1600.1000000014901,438853.5,9062,WL,B,12.0
3,34.282999992370605,learn,25717.000007629395,Wed Apr 08 2026 16:11:15 GMT-0400 (Eastern Daylight Time),441036.5,A,pipeenter,I,enter,559,1,2183.0,438853.5,9062,WL,B,12.0
3,34.615999937057495,learn,25384.000062942505,Wed Apr 08 2026 16:11:15 GMT-0400 (Eastern Daylight Time),441370.1000000015,A,s,I,s,314,1,333.30000000074506,441036.80000000075,9062,WL,B,13.0
3,34.782999992370605,learn,25217.000007629395,Wed Apr 08 2026 16:11:15 GMT-0400 (Eastern Daylight Time),441536.80000000075,A,sk,I,k,153,1,500.0,441036.80000000075,9062,WL,B,13.0
3,34.950000047683716,learn,25049.999952316284,Wed Apr 08 2026 16:11:15 GMT-0400 (Eastern Daylight Time),441703.7000000011,A,ski,I,i,146,1,666.9000000003725,441036.80000000075,9062,WL,B,13.0
3,35.14999985694885,learn,24850.000143051147,Wed Apr 08 2026 16:11:15 GMT-0400 (Eastern Daylight Time),441903.6000000015,A,skin,I,n,188,1,866.8000000007451,441036.80000000075,9062,WL,B,13.0
3,35.848999977111816,learn,24151.000022888184,Wed Apr 08 2026 16:11:15 GMT-0400 (Eastern Daylight Time),442603.2000000011,A,skinenter,I,enter,670,1,1566.4000000003725,441036.80000000075,9062,WL,B,13.0
3,36.51699995994568,learn,23483.00004005432,Wed Apr 08 2026 16:11:15 GMT-0400 (Eastern Daylight Time),443270.5,A,f,I,f,644,1,667.0,442603.5,9062,WL,B,14.0
3,36.73300004005432,learn,23266.99995994568,Wed Apr 08 2026 16:11:15 GMT-0400 (Eastern Daylight Time),443487.0,A,fi,I,i,199,1,883.5,442603.5,9062,WL,B,14.0
3,36.89999985694885,learn,23100.000143051147,Wed Apr 08 2026 16:11:15 GMT-0400 (Eastern Daylight Time),443653.7000000011,A,fir,I,r,142,1,1050.2000000011176,442603.5,9062,WL,B,14.0
3,36.98300004005432,learn,23016.99995994568,Wed Apr 08 2026 16:11:15 GMT-0400 (Eastern Daylight Time),443736.80000000075,A,fire,I,e,67,1,1133.300000000745,442603.5,9062,WL,B,14.0
3,37.698999881744385,learn,22301.000118255615,Wed Apr 08 2026 16:11:15 GMT-0400 (Eastern Daylight Time),444453.1000000015,A,fireenter,I,enter,707,1,1849.6000000014901,442603.5,9062,WL,B,14.0
3,39.51699995994568,learn,20483.00004005432,Wed Apr 08 2026 16:11:15 GMT-0400 (Eastern Daylight Time),446270.30000000075,A,c,I,c,1795,1,1816.9000000003725,444453.4000000004,9062,WL,B,15.0
3,39.66599988937378,learn,20334.00011062622,Wed Apr 08 2026 16:11:15 GMT-0400 (Eastern Daylight Time),446419.7000000011,A,cl,I,l,133,1,1966.300000000745,444453.4000000004,9062,WL,B,15.0
3,39.83299994468689,learn,20167.00005531311,Wed Apr 08 2026 16:11:15 GMT-0400 (Eastern Daylight Time),446587.0,A,clo,I,o,156,1,2133.5999999996275,444453.4000000004,9062,WL,B,15.0
3,40.09999990463257,learn,19900.00009536743,Wed Apr 08 2026 16:11:15 GMT-0400 (Eastern Daylight Time),446854.0,A,cloc,I,c,250,1,2400.5999999996275,444453.4000000004,9062,WL,B,15.0
3,40.282999992370605,learn,19717.000007629395,Wed Apr 08 2026 16:11:15 GMT-0400 (Eastern Daylight Time),447036.80000000075,A,clock,I,k,157,1,2583.4000000003725,444453.4000000004,9062,WL,B,15.0
3,41.532999992370605,learn,18467.000007629395,Wed Apr 08 2026 16:11:15 GMT-0400 (Eastern Daylight Time),448286.5,A,clockenter,I,enter,1239,1,3833.0999999996275,444453.4000000004,9062,WL,B,15.0
4,2.184000015258789,learn,57815.99998474121,Wed Apr 08 2026 16:11:15 GMT-0400 (Eastern Daylight Time),522820.5,A,s,I,s,2160,1,2182.7999999988824,520637.7000000011,9062,WL,B,1.0
4,3.049999952316284,learn,56950.000047683716,Wed Apr 08 2026 16:11:15 GMT-0400 (Eastern Daylight Time),523686.9000000004,A,st,I,t,854,1,3049.199999999255,520637.7000000011,9062,WL,B,1.0
4,3.299999952316284,learn,56700.000047683716,Wed Apr 08 2026 16:11:15 GMT-0400 (Eastern Daylight Time),523936.6000000015,A,str,I,r,236,1,3298.9000000003725,520637.7000000011,9062,WL,B,1.0
4,3.6500000953674316,learn,56349.99990463257,Wed Apr 08 2026 16:11:15 GMT-0400 (Eastern Daylight Time),524286.9000000004,A,stre,I,e,333,1,3649.199999999255,520637.7000000011,9062,WL,B,1.0
4,4.0329999923706055,learn,55967.000007629395,Wed Apr 08 2026 16:11:15 GMT-0400 (Eastern Daylight Time),524670.1000000015,A,stree,I,e,371,1,4032.4000000003725,520637.7000000011,9062,WL,B,1.0
4,4.317000150680542,learn,55682.99984931946,Wed Apr 08 2026 16:11:15 GMT-0400 (Eastern Daylight Time),524953.4000000004,A,street,I,t,270,1,4315.699999999255,520637.7000000011,9062,WL,B,1.0
4,5.0,learn,55000.0,Wed Apr 08 2026 16:11:15 GMT-0400 (Eastern Daylight Time),525636.5,A,streetenter,I,enter,670,1,4998.799999998882,520637.7000000011,9062,WL,B,1.0
4,5.733000040054321,learn,54266.99995994568,Wed Apr 08 2026 16:11:15 GMT-0400 (Eastern Daylight Time),526370.1000000015,A,g,I,g,722,1,733.2000000011176,525636.9000000004,9062,WL,B,2.0
4,5.9670000076293945,learn,54032.999992370605,Wed Apr 08 2026 16:11:15 GMT-0400 (Eastern Daylight Time),526603.7000000011,A,gr,I,r,217,1,966.8000000007451,525636.9000000004,9062,WL,B,2.0
4,6.16700005531311,learn,53832.99994468689,Wed Apr 08 2026 16:11:15 GMT-0400 (Eastern Daylight Time),526804.0,A,gra,I,a,172,1,1167.0999999996275,525636.9000000004,9062,WL,B,2.0
4,6.400000095367432,learn,53599.99990463257,Wed Apr 08 2026 16:11:15 GMT-0400 (Eastern Daylight Time),527036.5,A,gras,I,s,212,1,1399.5999999996275,525636.9000000004,9062,WL,B,2.0
4,6.567000150680542,learn,53432.99984931946,Wed Apr 08 2026 16:11:15 GMT-0400 (Eastern Daylight Time),527203.6000000015,A,grass,I,s,146,1,1566.7000000011176,525636.9000000004,9062,WL,B,2.0
4,7.25,learn,52750.0,Wed Apr 08 2026 16:11:15 GMT-0400 (Eastern Daylight Time),527886.6000000015,A,grassenter,I,enter,665,1,2249.7000000011176,525636.9000000004,9062,WL,B,2.0
4,7.66700005531311,learn,52332.99994468689,Wed Apr 08 2026 16:11:15 GMT-0400 (Eastern Daylight Time),528303.6000000015,A,d,I,d,400,1,416.6000000014901,527887.0,9062,WL,B,3.0
4,8.016999959945679,learn,51983.00004005432,Wed Apr 08 2026 16:11:15 GMT-0400 (Eastern Daylight Time),528653.5,A,do,I,o,329,1,766.5,527887.0,9062,WL,B,3.0
4,8.233000040054321,learn,51766.99995994568,Wed Apr 08 2026 16:11:15 GMT-0400 (Eastern Daylight Time),528870.2000000011,A,doo,I,o,201,1,983.2000000011176,527887.0,9062,WL,B,3.0
4,8.433000087738037,learn,51566.99991226196,Wed Apr 08 2026 16:11:15 GMT-0400 (Eastern Daylight Time),529070.2000000011,A,door,I,r,189,1,1183.2000000011176,527887.0,9062,WL,B,3.0
4,9.115999937057495,learn,50884.000062942505,Wed Apr 08 2026 16:11:15 GMT-0400 (Eastern Daylight Time),529753.2000000011,A,doorenter,I,enter,661,1,1866.2000000011176,527887.0,9062,WL,B,3.0
4,9.83299994468689,learn,50167.00005531311,Wed Apr 08 2026 16:11:15 GMT-0400 (Eastern Daylight Time),530470.1000000015,A,a,I,a,702,1,716.5,529753.6000000015,9062,WL,B,4.0
4,10.08299994468689,learn,49917.00005531311,Wed Apr 08 2026 16:11:15 GMT-0400 (Eastern Daylight Time),530720.1000000015,A,ar,I,r,230,1,966.5,529753.6000000015,9062,WL,B,4.0
4,10.25,learn,49750.0,Wed Apr 08 2026 16:11:15 GMT-0400 (Eastern Daylight Time),530886.7000000011,A,arm,I,m,156,1,1133.0999999996275,529753.6000000015,9062,WL,B,4.0
4,10.966000080108643,learn,49033.99991989136,Wed Apr 08 2026 16:11:15 GMT-0400 (Eastern Daylight Time),531603.2000000011,A,armenter,I,enter,701,1,1849.5999999996275,529753.6000000015,9062,WL,B,4.0
4,11.717000007629395,learn,48282.999992370605,Wed Apr 08 2026 16:11:15 GMT-0400 (Eastern Daylight Time),532353.6000000015,A,s,I,s,733,1,750.0,531603.6000000015,9062,WL,B,5.0
4,12.016999959945679,learn,47983.00004005432,Wed Apr 08 2026 16:11:15 GMT-0400 (Eastern Daylight Time),532653.6000000015,A,st,I,t,272,1,1050.0,531603.6000000015,9062,WL,B,5.0
4,12.184000015258789,learn,47815.99998474121,Wed Apr 08 2026 16:11:15 GMT-0400 (Eastern Daylight Time),532820.4000000004,A,sta,I,a,142,1,1216.7999999988824,531603.6000000015,9062,WL,B,5.0
4,12.350000143051147,learn,47649.99985694885,Wed Apr 08 2026 16:11:15 GMT-0400 (Eastern Daylight Time),532986.9000000004,A,star,I,r,146,1,1383.2999999988824,531603.6000000015,9062,WL,B,5.0
4,13.466000080108643,learn,46533.99991989136,Wed Apr 08 2026 16:11:15 GMT-0400 (Eastern Daylight Time),534103.3000000007,A,starenter,I,enter,1096,1,2499.699999999255,531603.6000000015,9062,WL,B,5.0
4,14.183000087738037,learn,45816.99991226196,Wed Apr 08 2026 16:11:15 GMT-0400 (Eastern Daylight Time),534819.7000000011,A,w,I,w,703,1,716.0999999996275,534103.6000000015,9062,WL,B,6.0
4,14.433000087738037,learn,45566.99991226196,Wed Apr 08 2026 16:11:15 GMT-0400 (Eastern Daylight Time),535070.2000000011,A,wi,I,i,244,1,966.5999999996275,534103.6000000015,9062,WL,B,6.0
4,14.633000135421753,learn,45366.99986457825,Wed Apr 08 2026 16:11:15 GMT-0400 (Eastern Daylight Time),535270.2000000011,A,wif,I,f,190,1,1166.5999999996275,534103.6000000015,9062,WL,B,6.0
4,14.75,learn,45250.0,Wed Apr 08 2026 16:11:15 GMT-0400 (Eastern Daylight Time),535386.8000000007,A,wife,I,e,86,1,1283.199999999255,534103.6000000015,9062,WL,B,6.0
4,15.433000087738037,learn,44566.99991226196,Wed Apr 08 2026 16:11:15 GMT-0400 (Eastern Daylight Time),536069.9000000004,A,wifeenter,I,enter,666,1,1966.2999999988824,534103.6000000015,9062,WL,B,6.0
4,15.650000095367432,learn,44349.99990463257,Wed Apr 08 2026 16:11:15 GMT-0400 (Eastern Daylight Time),536286.9000000004,A,w,I,w,201,1,216.69999999925494,536070.2000000011,9062,WL,B,7.0
4,15.867000102996826,learn,44132.999897003174,Wed Apr 08 2026 16:11:15 GMT-0400 (Eastern Daylight Time),536503.6000000015,A,wi,I,i,197,1,433.40000000037253,536070.2000000011,9062,WL,B,7.0
4,15.967000007629395,learn,44032.999992370605,Wed Apr 08 2026 16:11:15 GMT-0400 (Eastern Daylight Time),536603.6000000015,A,win,I,n,83,1,533.4000000003725,536070.2000000011,9062,WL,B,7.0
4,16.15000009536743,learn,43849.99990463257,Wed Apr 08 2026 16:11:15 GMT-0400 (Eastern Daylight Time),536787.0,A,wind,I,d,160,1,716.7999999988824,536070.2000000011,9062,WL,B,7.0
4,16.23300004005432,learn,43766.99995994568,Wed Apr 08 2026 16:11:15 GMT-0400 (Eastern Daylight Time),536870.1000000015,A,windo,I,o,64,1,799.9000000003725,536070.2000000011,9062,WL,B,7.0
4,16.383000135421753,learn,43616.99986457825,Wed Apr 08 2026 16:11:15 GMT-0400 (Eastern Daylight Time),537020.2000000011,A,window,I,w,128,1,950.0,536070.2000000011,9062,WL,B,7.0
4,17.933000087738037,learn,42066.99991226196,Wed Apr 08 2026 16:11:15 GMT-0400 (Eastern Daylight Time),538569.8000000007,A,windowenter,I,enter,1527,1,2499.5999999996275,536070.2000000011,9062,WL,B,7.0
4,18.75,learn,41250.0,Wed Apr 08 2026 16:11:15 GMT-0400 (Eastern Daylight Time),539386.9000000004,A,c,I,c,805,1,816.7999999988824,538570.1000000015,9062,WL,B,8.0
4,18.93400001525879,learn,41065.99998474121,Wed Apr 08 2026 16:11:15 GMT-0400 (Eastern Daylight Time),539570.5,A,ci,I,i,160,1,1000.3999999985099,538570.1000000015,9062,WL,B,8.0
4,19.183000087738037,learn,40816.99991226196,Wed Apr 08 2026 16:11:15 GMT-0400 (Eastern Daylight Time),539820.1000000015,A,cit,I,t,226,1,1250.0,538570.1000000015,9062,WL,B,8.0
4,19.317000150680542,learn,40682.99984931946,Wed Apr 08 2026 16:11:15 GMT-0400 (Eastern Daylight Time),539953.6000000015,A,city,I,y,111,1,1383.5,538570.1000000015,9062,WL,B,8.0
4,20.01699995994568,learn,39983.00004005432,Wed Apr 08 2026 16:11:15 GMT-0400 (Eastern Daylight Time),540653.3000000007,A,cityenter,I,enter,674,1,2083.199999999255,538570.1000000015,9062,WL,B,8.0
4,20.383000135421753,learn,39616.99986457825,Wed Apr 08 2026 16:11:15 GMT-0400 (Eastern Daylight Time),541019.9000000004,A,p,I,p,354,1,366.19999999925494,540653.7000000011,9062,WL,B,9.0
4,20.683000087738037,learn,39316.99991226196,Wed Apr 08 2026 16:11:15 GMT-0400 (Eastern Daylight Time),541320.2000000011,A,pu,I,u,283,1,666.5,540653.7000000011,9062,WL,B,9.0
4,21.217000007629395,learn,38782.999992370605,Wed Apr 08 2026 16:11:15 GMT-0400 (Eastern Daylight Time),541853.5,A,pup,I,p,515,1,1199.7999999988824,540653.7000000011,9062,WL,B,9.0
4,21.433000087738037,learn,38566.99991226196,Wed Apr 08 2026 16:11:15 GMT-0400 (Eastern Daylight Time),542070.0,A,pupi,I,i,198,1,1416.2999999988824,540653.7000000011,9062,WL,B,9.0
4,21.634000062942505,learn,38365.999937057495,Wed Apr 08 2026 16:11:15 GMT-0400 (Eastern Daylight Time),542270.3000000007,A,pupil,I,l,175,1,1616.5999999996275,540653.7000000011,9062,WL,B,9.0
4,23.0,learn,37000.0,Wed Apr 08 2026 16:11:15 GMT-0400 (Eastern Daylight Time),543636.3000000007,A,pupilenter,I,enter,1341,1,2982.5999999996275,540653.7000000011,9062,WL,B,9.0
4,23.533999919891357,learn,36466.00008010864,Wed Apr 08 2026 16:11:15 GMT-0400 (Eastern Daylight Time),544170.7000000011,A,c,I,c,515,1,534.0999999996275,543636.6000000015,9062,WL,B,10.0
4,23.73300004005432,learn,36266.99995994568,Wed Apr 08 2026 16:11:15 GMT-0400 (Eastern Daylight Time),544370.1000000015,A,ca,I,a,180,1,733.5,543636.6000000015,9062,WL,B,10.0
4,23.950000047683716,learn,36049.999952316284,Wed Apr 08 2026 16:11:15 GMT-0400 (Eastern Daylight Time),544587.0,A,cab,I,b,193,1,950.3999999985099,543636.6000000015,9062,WL,B,10.0
4,24.100000143051147,learn,35899.99985694885,Wed Apr 08 2026 16:11:15 GMT-0400 (Eastern Daylight Time),544737.0,A,cabi,I,i,129,1,1100.3999999985099,543636.6000000015,9062,WL,B,10.0
4,24.317000150680542,learn,35682.99984931946,Wed Apr 08 2026 16:11:15 GMT-0400 (Eastern Daylight Time),544953.6000000015,A,cabin,I,n,193,1,1317.0,543636.6000000015,9062,WL,B,10.0
4,25.200000047683716,learn,34799.999952316284,Wed Apr 08 2026 16:11:15 GMT-0400 (Eastern Daylight Time),545836.6000000015,A,cabinenter,I,enter,858,1,2200.0,543636.6000000015,9062,WL,B,10.0
4,25.567000150680542,learn,34432.99984931946,Wed Apr 08 2026 16:11:15 GMT-0400 (Eastern Daylight Time),546203.5,A,l,I,l,346,1,366.59999999962747,545836.9000000004,9062,WL,B,11.0
4,25.700000047683716,learn,34299.999952316284,Wed Apr 08 2026 16:11:15 GMT-0400 (Eastern Daylight Time),546336.8000000007,A,la,I,a,112,1,499.90000000037253,545836.9000000004,9062,WL,B,11.0
4,25.817000150680542,learn,34182.99984931946,Wed Apr 08 2026 16:11:15 GMT-0400 (Eastern Daylight Time),546453.5,A,lak,I,k,91,1,616.5999999996275,545836.9000000004,9062,WL,B,11.0
4,26.0,learn,34000.0,Wed Apr 08 2026 16:11:15 GMT-0400 (Eastern Daylight Time),546636.9000000004,A,lake,I,e,152,1,800.0,545836.9000000004,9062,WL,B,11.0
4,27.58299994468689,learn,32417.00005531311,Wed Apr 08 2026 16:11:15 GMT-0400 (Eastern Daylight Time),548219.8000000007,A,lakeenter,I,enter,1558,1,2382.9000000003725,545836.9000000004,9062,WL,B,11.0
4,31.299999952316284,learn,28700.000047683716,Wed Apr 08 2026 16:11:15 GMT-0400 (Eastern Daylight Time),551936.6000000015,A,p,I,p,3699,1,3716.5,548220.1000000015,9062,WL,B,12.0
4,31.532999992370605,learn,28467.000007629395,Wed Apr 08 2026 16:11:15 GMT-0400 (Eastern Daylight Time),552170.2000000011,A,pi,I,i,213,1,3950.0999999996275,548220.1000000015,9062,WL,B,12.0
4,31.799999952316284,learn,28200.000047683716,Wed Apr 08 2026 16:11:15 GMT-0400 (Eastern Daylight Time),552436.7000000011,A,pip,I,p,249,1,4216.5999999996275,548220.1000000015,9062,WL,B,12.0
4,32.782999992370605,learn,27217.000007629395,Wed Apr 08 2026 16:11:15 GMT-0400 (Eastern Daylight Time),553420.3000000007,A,pipe,I,e,962,1,5200.199999999255,548220.1000000015,9062,WL,B,12.0
4,33.60000014305115,learn,26399.999856948853,Wed Apr 08 2026 16:11:15 GMT-0400 (Eastern Daylight Time),554236.5,A,pipeenter,I,enter,800,1,6016.39999999851,548220.1000000015,9062,WL,B,12.0
4,34.16700005531311,learn,25832.99994468689,Wed Apr 08 2026 16:11:15 GMT-0400 (Eastern Daylight Time),554803.5,A,s,I,s,546,1,566.6999999992549,554236.8000000007,9062,WL,B,13.0
4,34.33299994468689,learn,25667.00005531311,Wed Apr 08 2026 16:11:15 GMT-0400 (Eastern Daylight Time),554970.2000000011,A,sk,I,k,145,1,733.4000000003725,554236.8000000007,9062,WL,B,13.0
4,34.5,learn,25500.0,Wed Apr 08 2026 16:11:15 GMT-0400 (Eastern Daylight Time),555137.0,A,ski,I,i,146,1,900.1999999992549,554236.8000000007,9062,WL,B,13.0
4,34.66700005531311,learn,25332.99994468689,Wed Apr 08 2026 16:11:15 GMT-0400 (Eastern Daylight Time),555303.7000000011,A,skin,I,n,140,1,1066.9000000003725,554236.8000000007,9062,WL,B,13.0
4,36.5,learn,23500.0,Wed Apr 08 2026 16:11:15 GMT-0400 (Eastern Daylight Time),557136.6000000015,A,skinenter,I,enter,1812,1,2899.800000000745,554236.8000000007,9062,WL,B,13.0
4,37.18300008773804,learn,22816.999912261963,Wed Apr 08 2026 16:11:15 GMT-0400 (Eastern Daylight Time),557820.2000000011,A,f,I,f,670,1,683.4000000003725,557136.8000000007,9062,WL,B,14.0
4,37.41700005531311,learn,22582.99994468689,Wed Apr 08 2026 16:11:15 GMT-0400 (Eastern Daylight Time),558053.7000000011,A,fi,I,i,200,1,916.9000000003725,557136.8000000007,9062,WL,B,14.0
4,37.63300013542175,learn,22366.999864578247,Wed Apr 08 2026 16:11:15 GMT-0400 (Eastern Daylight Time),558270.0,A,fir,I,r,197,1,1133.199999999255,557136.8000000007,9062,WL,B,14.0
4,37.75,learn,22250.0,Wed Apr 08 2026 16:11:15 GMT-0400 (Eastern Daylight Time),558386.9000000004,A,fire,I,e,102,1,1250.0999999996275,557136.8000000007,9062,WL,B,14.0
4,38.75,learn,21250.0,Wed Apr 08 2026 16:11:15 GMT-0400 (Eastern Daylight Time),559386.6000000015,A,fireenter,I,enter,984,1,2249.800000000745,557136.8000000007,9062,WL,B,14.0
4,38.98399996757507,learn,21016.000032424927,Wed Apr 08 2026 16:11:15 GMT-0400 (Eastern Daylight Time),559620.4000000004,A,c,I,c,212,1,233.5,559386.9000000004,9062,WL,B,15.0
4,39.15000009536743,learn,20849.99990463257,Wed Apr 08 2026 16:11:15 GMT-0400 (Eastern Daylight Time),559787.0,A,cl,I,l,142,1,400.09999999962747,559386.9000000004,9062,WL,B,15.0
4,39.282999992370605,learn,20717.000007629395,Wed Apr 08 2026 16:11:15 GMT-0400 (Eastern Daylight Time),559920.1000000015,A,clo,I,o,113,1,533.2000000011176,559386.9000000004,9062,WL,B,15.0
4,39.41700005531311,learn,20582.99994468689,Wed Apr 08 2026 16:11:15 GMT-0400 (Eastern Daylight Time),560053.7000000011,A,cloc,I,c,123,1,666.8000000007451,559386.9000000004,9062,WL,B,15.0
4,39.549999952316284,learn,20450.000047683716,Wed Apr 08 2026 16:11:15 GMT-0400 (Eastern Daylight Time),560186.8000000007,A,clock,I,k,119,1,799.9000000003725,559386.9000000004,9062,WL,B,15.0
4,40.18400001525879,learn,19815.99998474121,Wed Apr 08 2026 16:11:15 GMT-0400 (Eastern Daylight Time),560820.6000000015,A,clockenter,I,enter,617,1,1433.7000000011176,559386.9000000004,9062,WL,B,15.0
5,0.8499999046325684,learn,60000.0,Wed Apr 08 2026 16:11:15 GMT-0400 (Eastern Daylight Time),627436.9000000004,A,s,I,s,842,1,849.4000000003725,626587.5,9062,WL,B,1.0
5,1.2669999599456787,learn,60000.0,Wed Apr 08 2026 16:11:15 GMT-0400 (Eastern Daylight Time),627853.6000000015,A,st,I,t,393,1,1266.1000000014901,626587.5,9062,WL,B,1.0
5,1.4830000400543213,learn,60000.0,Wed Apr 08 2026 16:11:15 GMT-0400 (Eastern Daylight Time),628070.0,A,str,I,r,206,1,1482.5,626587.5,9062,WL,B,1.0
5,1.75,learn,60000.0,Wed Apr 08 2026 16:11:15 GMT-0400 (Eastern Daylight Time),628336.8000000007,A,stre,I,e,248,1,1749.300000000745,626587.5,9062,WL,B,1.0
5,1.8840000629425049,learn,60000.0,Wed Apr 08 2026 16:11:15 GMT-0400 (Eastern Daylight Time),628470.4000000004,A,stree,I,e,123,1,1882.9000000003725,626587.5,9062,WL,B,1.0
5,2.049999952316284,learn,60000.0,Wed Apr 08 2026 16:11:15 GMT-0400 (Eastern Daylight Time),628637.1000000015,A,street,I,t,144,1,2049.60000000149,626587.5,9062,WL,B,1.0
5,2.617000102996826,learn,60000.0,Wed Apr 08 2026 16:11:15 GMT-0400 (Eastern Daylight Time),629203.3000000007,A,streetenter,I,enter,551,1,2615.800000000745,626587.5,9062,WL,B,1.0
5,3.5,learn,60000.0,Wed Apr 08 2026 16:11:15 GMT-0400 (Eastern Daylight Time),630086.9000000004,A,g,I,g,875,1,883.2999999988824,629203.6000000015,9062,WL,B,2.0
5,3.684999942779541,learn,60000.0,Wed Apr 08 2026 16:11:15 GMT-0400 (Eastern Daylight Time),630271.6000000015,A,gr,I,r,156,1,1068.0,629203.6000000015,9062,WL,B,2.0
5,3.8329999446868896,learn,60000.0,Wed Apr 08 2026 16:11:15 GMT-0400 (Eastern Daylight Time),630419.7000000011,A,gra,I,a,125,1,1216.0999999996275,629203.6000000015,9062,WL,B,2.0
5,4.233000040054321,learn,60000.0,Wed Apr 08 2026 16:11:15 GMT-0400 (Eastern Daylight Time),630819.7000000011,A,gras,I,s,378,1,1616.0999999996275,629203.6000000015,9062,WL,B,2.0
5,4.41700005531311,learn,60000.0,Wed Apr 08 2026 16:11:15 GMT-0400 (Eastern Daylight Time),631003.5,A,grass,I,s,163,1,1799.8999999985099,629203.6000000015,9062,WL,B,2.0
5,5.0329999923706055,learn,60000.0,Wed Apr 08 2026 16:11:15 GMT-0400 (Eastern Daylight Time),631619.8000000007,A,grassenter,I,enter,592,1,2416.199999999255,629203.6000000015,9062,WL,B,2.0
5,5.299999952316284,learn,60000.0,Wed Apr 08 2026 16:11:15 GMT-0400 (Eastern Daylight Time),631886.9000000004,A,f,I,f,251,1,266.90000000037253,631620.0,9062,WL,B,3.0
5,6.367000102996826,learn,60000.0,Wed Apr 08 2026 16:11:15 GMT-0400 (Eastern Daylight Time),632953.7000000011,A,,I,backspace,1053,1,1333.7000000011176,631620.0,9062,WL,B,3.0
5,6.634000062942505,learn,60000.0,Wed Apr 08 2026 16:11:15 GMT-0400 (Eastern Daylight Time),633220.4000000004,A,d,I,d,251,1,1600.4000000003725,631620.0,9062,WL,B,3.0
5,6.900000095367432,learn,60000.0,Wed Apr 08 2026 16:11:15 GMT-0400 (Eastern Daylight Time),633486.9000000004,A,do,I,o,242,1,1866.9000000003725,631620.0,9062,WL,B,3.0
5,7.0329999923706055,learn,60000.0,Wed Apr 08 2026 16:11:15 GMT-0400 (Eastern Daylight Time),633620.0,A,doo,I,o,109,1,2000.0,631620.0,9062,WL,B,3.0
5,7.200000047683716,learn,60000.0,Wed Apr 08 2026 16:11:15 GMT-0400 (Eastern Daylight Time),633786.9000000004,A,door,I,r,147,1,2166.9000000003725,631620.0,9062,WL,B,3.0
5,7.950000047683716,learn,60000.0,Wed Apr 08 2026 16:11:15 GMT-0400 (Eastern Daylight Time),634536.5,A,doorenter,I,enter,721,1,2916.5,631620.0,9062,WL,B,3.0
5,8.467000007629395,learn,60000.0,Wed Apr 08 2026 16:11:15 GMT-0400 (Eastern Daylight Time),635053.6000000015,A,a,I,a,502,1,516.7000000011176,634536.9000000004,9062,WL,B,4.0
5,8.733000040054321,learn,60000.0,Wed Apr 08 2026 16:11:15 GMT-0400 (Eastern Daylight Time),635320.2000000011,A,ar,I,r,245,1,783.3000000007451,634536.9000000004,9062,WL,B,4.0
5,8.867000102996826,learn,60000.0,Wed Apr 08 2026 16:11:15 GMT-0400 (Eastern Daylight Time),635453.7000000011,A,arm,I,m,125,1,916.8000000007451,634536.9000000004,9062,WL,B,4.0
5,9.91700005531311,learn,60000.0,Wed Apr 08 2026 16:11:15 GMT-0400 (Eastern Daylight Time),636503.3000000007,A,armenter,I,enter,1024,1,1966.4000000003725,634536.9000000004,9062,WL,B,4.0
5,10.349999904632568,learn,60000.0,Wed Apr 08 2026 16:11:15 GMT-0400 (Eastern Daylight Time),636936.9000000004,A,s,I,s,424,1,433.19999999925494,636503.7000000011,9062,WL,B,5.0
5,10.733000040054321,learn,60000.0,Wed Apr 08 2026 16:11:15 GMT-0400 (Eastern Daylight Time),637320.2000000011,A,st,I,t,362,1,816.5,636503.7000000011,9062,WL,B,5.0
5,10.867000102996826,learn,60000.0,Wed Apr 08 2026 16:11:15 GMT-0400 (Eastern Daylight Time),637453.7000000011,A,sta,I,a,124,1,950.0,636503.7000000011,9062,WL,B,5.0
5,11.0,learn,60000.0,Wed Apr 08 2026 16:11:15 GMT-0400 (Eastern Daylight Time),637586.8000000007,A,star,I,r,103,1,1083.0999999996275,636503.7000000011,9062,WL,B,5.0
5,11.683000087738037,learn,60000.0,Wed Apr 08 2026 16:11:15 GMT-0400 (Eastern Daylight Time),638270.0,A,starenter,I,enter,658,1,1766.2999999988824,636503.7000000011,9062,WL,B,5.0
5,12.283999919891357,learn,60000.0,Wed Apr 08 2026 16:11:15 GMT-0400 (Eastern Daylight Time),638870.4000000004,A,w,I,w,586,1,600.0,638270.4000000004,9062,WL,B,6.0
5,12.5,learn,60000.0,Wed Apr 08 2026 16:11:15 GMT-0400 (Eastern Daylight Time),639087.0,A,wi,I,i,197,1,816.5999999996275,638270.4000000004,9062,WL,B,6.0
5,12.733000040054321,learn,60000.0,Wed Apr 08 2026 16:11:15 GMT-0400 (Eastern Daylight Time),639320.2000000011,A,wif,I,f,212,1,1049.800000000745,638270.4000000004,9062,WL,B,6.0
5,12.816999912261963,learn,60000.0,Wed Apr 08 2026 16:11:15 GMT-0400 (Eastern Daylight Time),639403.6000000015,A,wife,I,e,69,1,1133.2000000011176,638270.4000000004,9062,WL,B,6.0
5,13.41599988937378,learn,60000.0,Wed Apr 08 2026 16:11:15 GMT-0400 (Eastern Daylight Time),640003.2000000011,A,wifeenter,I,enter,580,1,1732.800000000745,638270.4000000004,9062,WL,B,6.0
5,13.632999897003174,learn,60000.0,Wed Apr 08 2026 16:11:15 GMT-0400 (Eastern Daylight Time),640220.1000000015,A,w,I,w,203,1,216.5,640003.6000000015,9062,WL,B,7.0
5,13.867000102996826,learn,60000.0,Wed Apr 08 2026 16:11:15 GMT-0400 (Eastern Daylight Time),640453.4000000004,A,wi,I,i,206,1,449.7999999988824,640003.6000000015,9062,WL,B,7.0
5,13.950000047683716,learn,60000.0,Wed Apr 08 2026 16:11:15 GMT-0400 (Eastern Daylight Time),640536.7000000011,A,win,I,n,63,1,533.0999999996275,640003.6000000015,9062,WL,B,7.0
5,14.117000102996826,learn,60000.0,Wed Apr 08 2026 16:11:15 GMT-0400 (Eastern Daylight Time),640703.6000000015,A,wind,I,d,149,1,700.0,640003.6000000015,9062,WL,B,7.0
5,14.200000047683716,learn,60000.0,Wed Apr 08 2026 16:11:15 GMT-0400 (Eastern Daylight Time),640787.1000000015,A,windo,I,o,68,1,783.5,640003.6000000015,9062,WL,B,7.0
5,14.382999897003174,learn,60000.0,Wed Apr 08 2026 16:11:15 GMT-0400 (Eastern Daylight Time),640970.3000000007,A,window,I,w,154,1,966.6999999992549,640003.6000000015,9062,WL,B,7.0
5,15.049999952316284,learn,60000.0,Wed Apr 08 2026 16:11:15 GMT-0400 (Eastern Daylight Time),641636.5,A,windowenter,I,enter,633,1,1632.8999999985099,640003.6000000015,9062,WL,B,7.0
5,15.450000047683716,learn,60000.0,Wed Apr 08 2026 16:11:15 GMT-0400 (Eastern Daylight Time),642036.9000000004,A,c,I,c,387,1,400.0,641636.9000000004,9062,WL,B,8.0
5,15.683000087738037,learn,60000.0,Wed Apr 08 2026 16:11:15 GMT-0400 (Eastern Daylight Time),642270.0,A,ci,I,i,221,1,633.0999999996275,641636.9000000004,9062,WL,B,8.0
5,15.950000047683716,learn,60000.0,Wed Apr 08 2026 16:11:15 GMT-0400 (Eastern Daylight Time),642536.9000000004,A,cit,I,t,246,1,900.0,641636.9000000004,9062,WL,B,8.0
5,16.066999912261963,learn,60000.0,Wed Apr 08 2026 16:11:15 GMT-0400 (Eastern Daylight Time),642653.8000000007,A,city,I,y,83,1,1016.9000000003725,641636.9000000004,9062,WL,B,8.0
5,16.700000047683716,learn,60000.0,Wed Apr 08 2026 16:11:15 GMT-0400 (Eastern Daylight Time),643286.6000000015,A,cityenter,I,enter,622,1,1649.7000000011176,641636.9000000004,9062,WL,B,8.0
5,17.15000009536743,learn,60000.0,Wed Apr 08 2026 16:11:15 GMT-0400 (Eastern Daylight Time),643736.9000000004,A,p,I,p,432,1,450.09999999962747,643286.8000000007,9062,WL,B,9.0
5,17.48300004005432,learn,60000.0,Wed Apr 08 2026 16:11:15 GMT-0400 (Eastern Daylight Time),644070.4000000004,A,pu,I,u,315,1,783.5999999996275,643286.8000000007,9062,WL,B,9.0
5,17.90000009536743,learn,60000.0,Wed Apr 08 2026 16:11:15 GMT-0400 (Eastern Daylight Time),644486.8000000007,A,pup,I,p,398,1,1200.0,643286.8000000007,9062,WL,B,9.0
5,18.51699995994568,learn,60000.0,Wed Apr 08 2026 16:11:15 GMT-0400 (Eastern Daylight Time),645103.6000000015,A,pupi,I,i,605,1,1816.800000000745,643286.8000000007,9062,WL,B,9.0
5,18.700000047683716,learn,60000.0,Wed Apr 08 2026 16:11:15 GMT-0400 (Eastern Daylight Time),645287.0,A,pupil,I,l,170,1,2000.199999999255,643286.8000000007,9062,WL,B,9.0
5,19.26699995994568,learn,60000.0,Wed Apr 08 2026 16:11:15 GMT-0400 (Eastern Daylight Time),645853.4000000004,A,pupilenter,I,enter,558,1,2566.5999999996275,643286.8000000007,9062,WL,B,9.0
5,20.75,learn,60000.0,Wed Apr 08 2026 16:11:15 GMT-0400 (Eastern Daylight Time),647337.0,A,c,I,c,1467,1,1483.3999999985099,645853.6000000015,9062,WL,B,10.0
5,20.950000047683716,learn,60000.0,Wed Apr 08 2026 16:11:15 GMT-0400 (Eastern Daylight Time),647536.9000000004,A,ca,I,a,187,1,1683.2999999988824,645853.6000000015,9062,WL,B,10.0
5,21.117000102996826,learn,60000.0,Wed Apr 08 2026 16:11:15 GMT-0400 (Eastern Daylight Time),647703.7000000011,A,cab,I,b,141,1,1850.0999999996275,645853.6000000015,9062,WL,B,10.0
5,21.26699995994568,learn,60000.0,Wed Apr 08 2026 16:11:15 GMT-0400 (Eastern Daylight Time),647853.8000000007,A,cabi,I,i,140,1,2000.199999999255,645853.6000000015,9062,WL,B,10.0
5,21.43400001525879,learn,60000.0,Wed Apr 08 2026 16:11:15 GMT-0400 (Eastern Daylight Time),648020.3000000007,A,cabin,I,n,143,1,2166.699999999255,645853.6000000015,9062,WL,B,10.0
5,22.115999937057495,learn,60000.0,Wed Apr 08 2026 16:11:15 GMT-0400 (Eastern Daylight Time),648703.3000000007,A,cabinenter,I,enter,664,1,2849.699999999255,645853.6000000015,9062,WL,B,10.0
5,24.882999897003174,learn,60000.0,Wed Apr 08 2026 16:11:15 GMT-0400 (Eastern Daylight Time),651470.1000000015,A,l,I,l,2760,1,2766.5,648703.6000000015,9062,WL,B,11.0
5,25.032999992370605,learn,60000.0,Wed Apr 08 2026 16:11:15 GMT-0400 (Eastern Daylight Time),651620.2000000011,A,la,I,a,125,1,2916.5999999996275,648703.6000000015,9062,WL,B,11.0
5,25.15000009536743,learn,60000.0,Wed Apr 08 2026 16:11:15 GMT-0400 (Eastern Daylight Time),651737.0,A,lak,I,k,95,1,3033.39999999851,648703.6000000015,9062,WL,B,11.0
5,25.316999912261963,learn,60000.0,Wed Apr 08 2026 16:11:15 GMT-0400 (Eastern Daylight Time),651903.6000000015,A,lake,I,e,141,1,3200.0,648703.6000000015,9062,WL,B,11.0
5,26.09999990463257,learn,60000.0,Wed Apr 08 2026 16:11:15 GMT-0400 (Eastern Daylight Time),652686.5,A,lakeenter,I,enter,757,1,3982.89999999851,648703.6000000015,9062,WL,B,11.0
5,26.98300004005432,learn,60000.0,Wed Apr 08 2026 16:11:15 GMT-0400 (Eastern Daylight Time),653570.3000000007,A,p,I,p,864,1,883.3000000007451,652687.0,9062,WL,B,12.0
5,27.25,learn,60000.0,Wed Apr 08 2026 16:11:15 GMT-0400 (Eastern Daylight Time),653836.7000000011,A,pi,I,i,241,1,1149.7000000011176,652687.0,9062,WL,B,12.0
5,27.41700005531311,learn,60000.0,Wed Apr 08 2026 16:11:15 GMT-0400 (Eastern Daylight Time),654003.5,A,pip,I,p,144,1,1316.5,652687.0,9062,WL,B,12.0
5,27.59999990463257,learn,60000.0,Wed Apr 08 2026 16:11:15 GMT-0400 (Eastern Daylight Time),654186.7000000011,A,pipe,I,e,161,1,1499.7000000011176,652687.0,9062,WL,B,12.0
5,28.216000080108643,learn,60000.0,Wed Apr 08 2026 16:11:15 GMT-0400 (Eastern Daylight Time),654803.3000000007,A,pipeenter,I,enter,601,1,2116.300000000745,652687.0,9062,WL,B,12.0
5,28.617000102996826,learn,60000.0,Wed Apr 08 2026 16:11:15 GMT-0400 (Eastern Daylight Time),655203.6000000015,A,s,I,s,380,1,400.0,654803.6000000015,9062,WL,B,13.0
5,28.73300004005432,learn,60000.0,Wed Apr 08 2026 16:11:15 GMT-0400 (Eastern Daylight Time),655320.3000000007,A,sk,I,k,101,1,516.6999999992549,654803.6000000015,9062,WL,B,13.0
5,28.90000009536743,learn,60000.0,Wed Apr 08 2026 16:11:15 GMT-0400 (Eastern Daylight Time),655486.9000000004,A,ski,I,i,141,1,683.2999999988824,654803.6000000015,9062,WL,B,13.0
5,29.08299994468689,learn,60000.0,Wed Apr 08 2026 16:11:15 GMT-0400 (Eastern Daylight Time),655670.3000000007,A,skin,I,n,158,1,866.6999999992549,654803.6000000015,9062,WL,B,13.0
5,29.882999897003174,learn,60000.0,Wed Apr 08 2026 16:11:15 GMT-0400 (Eastern Daylight Time),656469.9000000004,A,skinenter,I,enter,782,1,1666.2999999988824,654803.6000000015,9062,WL,B,13.0
5,31.01699995994568,learn,60000.0,Wed Apr 08 2026 16:11:15 GMT-0400 (Eastern Daylight Time),657603.5,A,f,I,f,1113,1,1133.199999999255,656470.3000000007,9062,WL,B,14.0
5,31.367000102996826,learn,60000.0,Wed Apr 08 2026 16:11:15 GMT-0400 (Eastern Daylight Time),657953.3000000007,A,fi,I,i,336,1,1483.0,656470.3000000007,9062,WL,B,14.0
5,31.549999952316284,learn,60000.0,Wed Apr 08 2026 16:11:15 GMT-0400 (Eastern Daylight Time),658136.9000000004,A,fir,I,r,173,1,1666.5999999996275,656470.3000000007,9062,WL,B,14.0
5,31.66700005531311,learn,60000.0,Wed Apr 08 2026 16:11:15 GMT-0400 (Eastern Daylight Time),658253.6000000015,A,fire,I,e,91,1,1783.300000000745,656470.3000000007,9062,WL,B,14.0
5,32.200000047683716,learn,60000.0,Wed Apr 08 2026 16:11:15 GMT-0400 (Eastern Daylight Time),658786.7000000011,A,fireenter,I,enter,518,1,2316.4000000003725,656470.3000000007,9062,WL,B,14.0
5,32.467000007629395,learn,60000.0,Wed Apr 08 2026 16:11:15 GMT-0400 (Eastern Daylight Time),659053.8000000007,A,c,I,c,260,1,266.90000000037253,658786.9000000004,9062,WL,B,15.0
5,32.634000062942505,learn,60000.0,Wed Apr 08 2026 16:11:15 GMT-0400 (Eastern Daylight Time),659220.4000000004,A,cl,I,l,143,1,433.5,658786.9000000004,9062,WL,B,15.0
5,32.78399991989136,learn,60000.0,Wed Apr 08 2026 16:11:15 GMT-0400 (Eastern Daylight Time),659370.4000000004,A,clo,I,o,126,1,583.5,658786.9000000004,9062,WL,B,15.0
5,32.90000009536743,learn,60000.0,Wed Apr 08 2026 16:11:15 GMT-0400 (Eastern Daylight Time),659486.7000000011,A,cloc,I,c,98,1,699.8000000007451,658786.9000000004,9062,WL,B,15.0
5,33.01699995994568,learn,60000.0,Wed Apr 08 2026 16:11:15 GMT-0400 (Eastern Daylight Time),659603.7000000011,A,clock,I,k,101,1,816.8000000007451,658786.9000000004,9062,WL,B,15.0
5,33.58299994468689,learn,60000.0,Wed Apr 08 2026 16:11:15 GMT-0400 (Eastern Daylight Time),660170.0,A,clockenter,I,enter,553,1,1383.0999999996275,658786.9000000004,9062,WL,B,15.0
6,0.9340000152587891,distr,59065.99998474121,Wed Apr 08 2026 16:11:15 GMT-0400 (Eastern Daylight Time),730353.6000000015,B,c,I,c,913,1,932.9000000003725,729420.7000000011,9062,WL,B,1.0
6,1.0510001182556152,distr,58948.999881744385,Wed Apr 08 2026 16:11:15 GMT-0400 (Eastern Daylight Time),730470.3000000007,B,ce,I,e,96,1,1049.5999999996275,729420.7000000011,9062,WL,B,1.0
6,1.2009999752044678,distr,58799.00002479553,Wed Apr 08 2026 16:11:15 GMT-0400 (Eastern Daylight Time),730620.3000000007,B,cel,I,l,134,1,1199.5999999996275,729420.7000000011,9062,WL,B,1.0
6,1.317000150680542,distr,58682.99984931946,Wed Apr 08 2026 16:11:15 GMT-0400 (Eastern Daylight Time),730737.0,B,cell,I,l,97,1,1316.2999999988824,729420.7000000011,9062,WL,B,1.0
6,1.883000135421753,distr,58116.99986457825,Wed Apr 08 2026 16:11:15 GMT-0400 (Eastern Daylight Time),731303.2000000011,B,cellenter,I,enter,542,1,1882.5,729420.7000000011,9062,WL,B,1.0
6,2.1670000553131104,distr,57832.99994468689,Wed Apr 08 2026 16:11:15 GMT-0400 (Eastern Daylight Time),731587.0,B,v,I,v,264,1,283.5,731303.5,9062,WL,B,2.0
6,2.367000102996826,distr,57632.999897003174,Wed Apr 08 2026 16:11:15 GMT-0400 (Eastern Daylight Time),731786.9000000004,B,vi,I,i,182,1,483.40000000037253,731303.5,9062,WL,B,2.0
6,2.567000150680542,distr,57432.99984931946,Wed Apr 08 2026 16:11:15 GMT-0400 (Eastern Daylight Time),731986.8000000007,B,vil,I,l,178,1,683.3000000007451,731303.5,9062,WL,B,2.0
6,2.684000015258789,distr,57315.99998474121,Wed Apr 08 2026 16:11:15 GMT-0400 (Eastern Daylight Time),732103.6000000015,B,vill,I,l,91,1,800.1000000014901,731303.5,9062,WL,B,2.0
6,3.067000150680542,distr,56932.99984931946,Wed Apr 08 2026 16:11:15 GMT-0400 (Eastern Daylight Time),732487.0,B,villa,I,a,364,1,1183.5,731303.5,9062,WL,B,2.0
6,3.184000015258789,distr,56815.99998474121,Wed Apr 08 2026 16:11:15 GMT-0400 (Eastern Daylight Time),732603.4000000004,B,villag,I,g,85,1,1299.9000000003725,731303.5,9062,WL,B,2.0
6,3.317000150680542,distr,56682.99984931946,Wed Apr 08 2026 16:11:15 GMT-0400 (Eastern Daylight Time),732736.9000000004,B,village,I,e,111,1,1433.4000000003725,731303.5,9062,WL,B,2.0
6,3.9170000553131104,distr,56082.99994468689,Wed Apr 08 2026 16:11:15 GMT-0400 (Eastern Daylight Time),733336.7000000011,B,villageenter,I,enter,586,1,2033.2000000011176,731303.5,9062,WL,B,2.0
6,4.233999967575073,distr,55766.00003242493,Wed Apr 08 2026 16:11:15 GMT-0400 (Eastern Daylight Time),733653.6000000015,B,a,I,a,302,1,316.6000000014901,733337.0,9062,WL,B,3.0
6,4.549999952316284,distr,55450.000047683716,Wed Apr 08 2026 16:11:15 GMT-0400 (Eastern Daylight Time),733969.9000000004,B,ar,I,r,303,1,632.9000000003725,733337.0,9062,WL,B,3.0
6,4.684000015258789,distr,55315.99998474121,Wed Apr 08 2026 16:11:15 GMT-0400 (Eastern Daylight Time),734103.7000000011,B,arm,I,m,116,1,766.7000000011176,733337.0,9062,WL,B,3.0
6,4.884000062942505,distr,55115.999937057495,Wed Apr 08 2026 16:11:15 GMT-0400 (Eastern Daylight Time),734303.3000000007,B,army,I,y,180,1,966.3000000007451,733337.0,9062,WL,B,3.0
6,5.16700005531311,distr,54832.99994468689,Wed Apr 08 2026 16:11:15 GMT-0400 (Eastern Daylight Time),734586.6000000015,B,armyenter,I,enter,271,1,1249.6000000014901,733337.0,9062,WL,B,3.0
6,6.134000062942505,distr,53865.999937057495,Wed Apr 08 2026 16:11:15 GMT-0400 (Eastern Daylight Time),735553.6000000015,B,s,I,s,948,1,966.6000000014901,734587.0,9062,WL,B,4.0
6,6.434000015258789,distr,53565.99998474121,Wed Apr 08 2026 16:11:15 GMT-0400 (Eastern Daylight Time),735853.6000000015,B,st,I,t,274,1,1266.6000000014901,734587.0,9062,WL,B,4.0
6,6.568000078201294,distr,53431.999921798706,Wed Apr 08 2026 16:11:15 GMT-0400 (Eastern Daylight Time),735988.1000000015,B,ste,I,e,111,1,1401.1000000014901,734587.0,9062,WL,B,4.0
6,6.901000022888184,distr,53098.99997711182,Wed Apr 08 2026 16:11:15 GMT-0400 (Eastern Daylight Time),736320.4000000004,B,stea,I,a,323,1,1733.4000000003725,734587.0,9062,WL,B,4.0
6,7.067000150680542,distr,52932.99984931946,Wed Apr 08 2026 16:11:15 GMT-0400 (Eastern Daylight Time),736486.8000000007,B,steam,I,m,155,1,1899.800000000745,734587.0,9062,WL,B,4.0
6,7.567000150680542,distr,52432.99984931946,Wed Apr 08 2026 16:11:15 GMT-0400 (Eastern Daylight Time),736986.6000000015,B,steamenter,I,enter,477,1,2399.60000000149,734587.0,9062,WL,B,4.0
6,7.867000102996826,distr,52132.999897003174,Wed Apr 08 2026 16:11:15 GMT-0400 (Eastern Daylight Time),737286.8000000007,B,d,I,d,285,1,299.90000000037253,736986.9000000004,9062,WL,B,5.0
6,8.184000015258789,distr,51815.99998474121,Wed Apr 08 2026 16:11:15 GMT-0400 (Eastern Daylight Time),737603.5,B,dr,I,r,300,1,616.5999999996275,736986.9000000004,9062,WL,B,5.0
6,8.299999952316284,distr,51700.000047683716,Wed Apr 08 2026 16:11:15 GMT-0400 (Eastern Daylight Time),737720.3000000007,B,dre,I,e,106,1,733.4000000003725,736986.9000000004,9062,WL,B,5.0
6,8.733999967575073,distr,51266.00003242493,Wed Apr 08 2026 16:11:15 GMT-0400 (Eastern Daylight Time),738153.5,B,dres,I,s,412,1,1166.5999999996275,736986.9000000004,9062,WL,B,5.0
6,8.850000143051147,distr,51149.99985694885,Wed Apr 08 2026 16:11:15 GMT-0400 (Eastern Daylight Time),738270.1000000015,B,dress,I,s,104,1,1283.2000000011176,736986.9000000004,9062,WL,B,5.0
6,10.100000143051147,distr,49899.99985694885,Wed Apr 08 2026 16:11:15 GMT-0400 (Eastern Daylight Time),739520.0,B,dressenter,I,enter,1222,1,2533.0999999996275,736986.9000000004,9062,WL,B,5.0
6,10.91700005531311,distr,49082.99994468689,Wed Apr 08 2026 16:11:15 GMT-0400 (Eastern Daylight Time),740336.9000000004,B,b,I,b,807,1,816.5999999996275,739520.3000000007,9062,WL,B,6.0
6,11.284000158309937,distr,48715.99984169006,Wed Apr 08 2026 16:11:15 GMT-0400 (Eastern Daylight Time),740703.3000000007,B,ba,I,a,348,1,1183.0,739520.3000000007,9062,WL,B,6.0
6,11.483999967575073,distr,48516.00003242493,Wed Apr 08 2026 16:11:15 GMT-0400 (Eastern Daylight Time),740903.6000000015,B,bab,I,b,181,1,1383.300000000745,739520.3000000007,9062,WL,B,6.0
6,11.733999967575073,distr,48266.00003242493,Wed Apr 08 2026 16:11:15 GMT-0400 (Eastern Daylight Time),741153.5,B,baby,I,y,222,1,1633.199999999255,739520.3000000007,9062,WL,B,6.0
6,12.299999952316284,distr,47700.000047683716,Wed Apr 08 2026 16:11:15 GMT-0400 (Eastern Daylight Time),741719.9000000004,B,babyenter,I,enter,546,1,2199.5999999996275,739520.3000000007,9062,WL,B,6.0
6,12.684000015258789,distr,47315.99998474121,Wed Apr 08 2026 16:11:15 GMT-0400 (Eastern Daylight Time),742103.6000000015,B,b,I,b,367,1,383.5,741720.1000000015,9062,WL,B,7.0
6,12.799999952316284,distr,47200.000047683716,Wed Apr 08 2026 16:11:15 GMT-0400 (Eastern Daylight Time),742220.0,B,ba,I,a,100,1,499.8999999985099,741720.1000000015,9062,WL,B,7.0
6,13.034000158309937,distr,46965.99984169006,Wed Apr 08 2026 16:11:15 GMT-0400 (Eastern Daylight Time),742453.8000000007,B,bar,I,r,225,1,733.6999999992549,741720.1000000015,9062,WL,B,7.0
6,13.266999959945679,distr,46733.00004005432,Wed Apr 08 2026 16:11:15 GMT-0400 (Eastern Daylight Time),742686.6000000015,B,barenter,I,enter,222,1,966.5,741720.1000000015,9062,WL,B,7.0
6,22.18400001525879,distr,37815.99998474121,Wed Apr 08 2026 16:11:15 GMT-0400 (Eastern Daylight Time),751603.7000000011,B,r,I,r,8905,1,8916.800000000745,742686.9000000004,9062,WL,B,8.0
6,22.41700005531311,distr,37582.99994468689,Wed Apr 08 2026 16:11:15 GMT-0400 (Eastern Daylight Time),751837.0,B,ro,I,o,208,1,9150.099999999627,742686.9000000004,9062,WL,B,8.0
6,23.067000150680542,distr,36932.99984931946,Wed Apr 08 2026 16:11:15 GMT-0400 (Eastern Daylight Time),752486.9000000004,B,roc,I,c,631,1,9800.0,742686.9000000004,9062,WL,B,8.0
6,23.233999967575073,distr,36766.00003242493,Wed Apr 08 2026 16:11:15 GMT-0400 (Eastern Daylight Time),752653.7000000011,B,rock,I,k,141,1,9966.800000000745,742686.9000000004,9062,WL,B,8.0
6,23.83299994468689,distr,36167.00005531311,Wed Apr 08 2026 16:11:15 GMT-0400 (Eastern Daylight Time),753253.0,B,rockenter,I,enter,583,1,10566.099999999627,742686.9000000004,9062,WL,B,8.0
6,29.733999967575073,distr,30266.000032424927,Wed Apr 08 2026 16:11:15 GMT-0400 (Eastern Daylight Time),759153.7000000011,B,d,I,d,5890,1,5900.4000000003725,753253.3000000007,9062,WL,B,9.0
6,29.983999967575073,distr,30016.000032424927,Wed Apr 08 2026 16:11:15 GMT-0400 (Eastern Daylight Time),759403.6000000015,B,dr,I,r,231,1,6150.300000000745,753253.3000000007,9062,WL,B,9.0
6,30.08400011062622,distr,29915.99988937378,Wed Apr 08 2026 16:11:15 GMT-0400 (Eastern Daylight Time),759503.7000000011,B,dre,I,e,79,1,6250.4000000003725,753253.3000000007,9062,WL,B,9.0
6,30.350000143051147,distr,29649.999856948853,Wed Apr 08 2026 16:11:15 GMT-0400 (Eastern Daylight Time),759770.0,B,dres,I,s,244,1,6516.699999999255,753253.3000000007,9062,WL,B,9.0
6,30.483999967575073,distr,29516.000032424927,Wed Apr 08 2026 16:11:15 GMT-0400 (Eastern Daylight Time),759903.6000000015,B,dress,I,s,125,1,6650.300000000745,753253.3000000007,9062,WL,B,9.0
6,31.25,distr,28750.0,Wed Apr 08 2026 16:11:15 GMT-0400 (Eastern Daylight Time),760670.0,B,dressenter,I,enter,747,1,7416.699999999255,753253.3000000007,9062,WL,B,9.0
6,35.801000118255615,distr,24198.999881744385,Wed Apr 08 2026 16:11:15 GMT-0400 (Eastern Daylight Time),765220.4000000004,B,c,I,c,4529,1,4550.0999999996275,760670.3000000007,9062,WL,B,10.0
6,36.03400015830994,distr,23965.999841690063,Wed Apr 08 2026 16:11:15 GMT-0400 (Eastern Daylight Time),765453.8000000007,B,co,I,o,223,1,4783.5,760670.3000000007,9062,WL,B,10.0
6,36.117000102996826,distr,23882.999897003174,Wed Apr 08 2026 16:11:15 GMT-0400 (Eastern Daylight Time),765536.9000000004,B,coi,I,i,61,1,4866.5999999996275,760670.3000000007,9062,WL,B,10.0
6,36.367000102996826,distr,23632.999897003174,Wed Apr 08 2026 16:11:15 GMT-0400 (Eastern Daylight Time),765786.5,B,coin,I,n,219,1,5116.199999999255,760670.3000000007,9062,WL,B,10.0
6,37.032999992370605,distr,22967.000007629395,Wed Apr 08 2026 16:11:15 GMT-0400 (Eastern Daylight Time),766453.3000000007,B,coinenter,I,enter,661,1,5783.0,760670.3000000007,9062,WL,B,10.0
6,60.01699995994568,distr,-16.99995994567871,Wed Apr 08 2026 16:11:15 GMT-0400 (Eastern Daylight Time),789437.1000000015,B,None,I,None,22977,1,22983.5,766453.6000000015,9062,WL,B,11.0
7,1.6670000553131104,immed,58332.99994468689,Wed Apr 08 2026 16:11:15 GMT-0400 (Eastern Daylight Time),803136.9000000004,A,s,I,s,1647,1,1666.199999999255,801470.7000000011,9062,WL,B,1.0
7,2.1510000228881836,immed,57848.99997711182,Wed Apr 08 2026 16:11:15 GMT-0400 (Eastern Daylight Time),803620.4000000004,A,st,I,t,456,1,2149.699999999255,801470.7000000011,9062,WL,B,1.0
7,2.3010001182556152,immed,57698.999881744385,Wed Apr 08 2026 16:11:15 GMT-0400 (Eastern Daylight Time),803770.4000000004,A,str,I,r,127,1,2299.699999999255,801470.7000000011,9062,WL,B,1.0
7,2.684000015258789,immed,57315.99998474121,Wed Apr 08 2026 16:11:15 GMT-0400 (Eastern Daylight Time),804153.4000000004,A,stre,I,e,360,1,2682.699999999255,801470.7000000011,9062,WL,B,1.0
7,2.8500001430511475,immed,57149.99985694885,Wed Apr 08 2026 16:11:15 GMT-0400 (Eastern Daylight Time),804320.3000000007,A,stree,I,e,155,1,2849.5999999996275,801470.7000000011,9062,WL,B,1.0
7,2.9840002059936523,immed,57015.99979400635,Wed Apr 08 2026 16:11:15 GMT-0400 (Eastern Daylight Time),804453.8000000007,A,street,I,t,109,1,2983.0999999996275,801470.7000000011,9062,WL,B,1.0
7,4.117000102996826,immed,55882.999897003174,Wed Apr 08 2026 16:11:15 GMT-0400 (Eastern Daylight Time),805586.7000000011,A,streetenter,I,enter,1109,1,4116.0,801470.7000000011,9062,WL,B,1.0
7,5.0,immed,55000.0,Wed Apr 08 2026 16:11:15 GMT-0400 (Eastern Daylight Time),806470.0,A,g,I,g,876,1,883.0,805587.0,9062,WL,B,2.0
7,5.267000198364258,immed,54732.99980163574,Wed Apr 08 2026 16:11:15 GMT-0400 (Eastern Daylight Time),806737.0,A,gr,I,r,252,1,1150.0,805587.0,9062,WL,B,2.0
7,5.551000118255615,immed,54448.999881744385,Wed Apr 08 2026 16:11:15 GMT-0400 (Eastern Daylight Time),807020.3000000007,A,gra,I,a,259,1,1433.300000000745,805587.0,9062,WL,B,2.0
7,5.817000150680542,immed,54182.99984931946,Wed Apr 08 2026 16:11:15 GMT-0400 (Eastern Daylight Time),807286.9000000004,A,gras,I,s,248,1,1699.9000000003725,805587.0,9062,WL,B,2.0
7,5.950999975204468,immed,54049.00002479553,Wed Apr 08 2026 16:11:15 GMT-0400 (Eastern Daylight Time),807420.4000000004,A,grass,I,s,117,1,1833.4000000003725,805587.0,9062,WL,B,2.0
7,6.567000150680542,immed,53432.99984931946,Wed Apr 08 2026 16:11:15 GMT-0400 (Eastern Daylight Time),808036.6000000015,A,grassenter,I,enter,585,1,2449.60000000149,805587.0,9062,WL,B,2.0
7,8.08400011062622,immed,51915.99988937378,Wed Apr 08 2026 16:11:15 GMT-0400 (Eastern Daylight Time),809553.5,A,d,I,d,1498,1,1516.5999999996275,808036.9000000004,9062,WL,B,3.0
7,8.41700005531311,immed,51582.99994468689,Wed Apr 08 2026 16:11:15 GMT-0400 (Eastern Daylight Time),809887.0,A,do,I,o,313,1,1850.0999999996275,808036.9000000004,9062,WL,B,3.0
7,8.517000198364258,immed,51482.99980163574,Wed Apr 08 2026 16:11:15 GMT-0400 (Eastern Daylight Time),809987.0,A,doo,I,o,84,1,1950.0999999996275,808036.9000000004,9062,WL,B,3.0
7,8.767000198364258,immed,51232.99980163574,Wed Apr 08 2026 16:11:15 GMT-0400 (Eastern Daylight Time),810236.4000000004,A,door,I,r,225,1,2199.5,808036.9000000004,9062,WL,B,3.0
7,9.317000150680542,immed,50682.99984931946,Wed Apr 08 2026 16:11:15 GMT-0400 (Eastern Daylight Time),810786.8000000007,A,doorenter,I,enter,529,1,2749.9000000003725,808036.9000000004,9062,WL,B,3.0
7,9.534000158309937,immed,50465.99984169006,Wed Apr 08 2026 16:11:15 GMT-0400 (Eastern Daylight Time),811003.5,A,a,I,a,196,1,216.39999999850988,810787.1000000015,9062,WL,B,4.0
7,9.734000205993652,immed,50265.99979400635,Wed Apr 08 2026 16:11:15 GMT-0400 (Eastern Daylight Time),811203.4000000004,A,ar,I,r,181,1,416.2999999988824,810787.1000000015,9062,WL,B,4.0
7,9.91700005531311,immed,50082.99994468689,Wed Apr 08 2026 16:11:15 GMT-0400 (Eastern Daylight Time),811386.9000000004,A,arm,I,m,162,1,599.7999999988824,810787.1000000015,9062,WL,B,4.0
7,10.650000095367432,immed,49349.99990463257,Wed Apr 08 2026 16:11:15 GMT-0400 (Eastern Daylight Time),812120.0,A,armenter,I,enter,721,1,1332.8999999985099,810787.1000000015,9062,WL,B,4.0
7,13.267000198364258,immed,46732.99980163574,Wed Apr 08 2026 16:11:15 GMT-0400 (Eastern Daylight Time),814737.1000000015,A,s,I,s,2607,1,2616.800000000745,812120.3000000007,9062,WL,B,5.0
7,13.58400011062622,immed,46415.99988937378,Wed Apr 08 2026 16:11:15 GMT-0400 (Eastern Daylight Time),815053.7000000011,A,st,I,t,291,1,2933.4000000003725,812120.3000000007,9062,WL,B,5.0
7,13.684000015258789,immed,46315.99998474121,Wed Apr 08 2026 16:11:15 GMT-0400 (Eastern Daylight Time),815153.4000000004,A,sta,I,a,85,1,3033.0999999996275,812120.3000000007,9062,WL,B,5.0
7,13.801000118255615,immed,46198.999881744385,Wed Apr 08 2026 16:11:15 GMT-0400 (Eastern Daylight Time),815270.5,A,star,I,r,101,1,3150.199999999255,812120.3000000007,9062,WL,B,5.0
7,14.483000040054321,immed,45516.99995994568,Wed Apr 08 2026 16:11:15 GMT-0400 (Eastern Daylight Time),815953.2000000011,A,starenter,I,enter,661,1,3832.9000000003725,812120.3000000007,9062,WL,B,5.0
7,15.067000150680542,immed,44932.99984931946,Wed Apr 08 2026 16:11:15 GMT-0400 (Eastern Daylight Time),816536.9000000004,A,w,I,w,574,1,583.4000000003725,815953.5,9062,WL,B,6.0
7,15.217000007629395,immed,44782.999992370605,Wed Apr 08 2026 16:11:15 GMT-0400 (Eastern Daylight Time),816686.8000000007,A,wi,I,i,138,1,733.3000000007451,815953.5,9062,WL,B,6.0
7,15.401000022888184,immed,44598.99997711182,Wed Apr 08 2026 16:11:15 GMT-0400 (Eastern Daylight Time),816870.4000000004,A,wif,I,f,162,1,916.9000000003725,815953.5,9062,WL,B,6.0
7,15.534000158309937,immed,44465.99984169006,Wed Apr 08 2026 16:11:15 GMT-0400 (Eastern Daylight Time),817003.5,A,wife,I,e,110,1,1050.0,815953.5,9062,WL,B,6.0
7,16.18400001525879,immed,43815.99998474121,Wed Apr 08 2026 16:11:15 GMT-0400 (Eastern Daylight Time),817653.6000000015,A,wifeenter,I,enter,640,1,1700.1000000014901,815953.5,9062,WL,B,6.0
7,17.017000198364258,immed,42982.99980163574,Wed Apr 08 2026 16:11:15 GMT-0400 (Eastern Daylight Time),818486.9000000004,A,w,I,w,825,1,833.0,817653.9000000004,9062,WL,B,7.0
7,17.18400001525879,immed,42815.99998474121,Wed Apr 08 2026 16:11:15 GMT-0400 (Eastern Daylight Time),818653.7000000011,A,wi,I,i,147,1,999.8000000007451,817653.9000000004,9062,WL,B,7.0
7,17.367000102996826,immed,42632.999897003174,Wed Apr 08 2026 16:11:15 GMT-0400 (Eastern Daylight Time),818836.8000000007,A,win,I,n,166,1,1182.9000000003725,817653.9000000004,9062,WL,B,7.0
7,17.567000150680542,immed,42432.99984931946,Wed Apr 08 2026 16:11:15 GMT-0400 (Eastern Daylight Time),819036.9000000004,A,wind,I,d,184,1,1383.0,817653.9000000004,9062,WL,B,7.0
7,17.700999975204468,immed,42299.00002479553,Wed Apr 08 2026 16:11:15 GMT-0400 (Eastern Daylight Time),819170.4000000004,A,windo,I,o,109,1,1516.5,817653.9000000004,9062,WL,B,7.0
7,17.784000158309937,immed,42215.99984169006,Wed Apr 08 2026 16:11:15 GMT-0400 (Eastern Daylight Time),819253.8000000007,A,window,I,w,74,1,1599.9000000003725,817653.9000000004,9062,WL,B,7.0
7,18.468000173568726,immed,41531.999826431274,Wed Apr 08 2026 16:11:15 GMT-0400 (Eastern Daylight Time),819937.3000000007,A,windowenter,I,enter,663,1,2283.4000000003725,817653.9000000004,9062,WL,B,7.0
7,19.450000047683716,immed,40549.999952316284,Wed Apr 08 2026 16:11:15 GMT-0400 (Eastern Daylight Time),820920.0,A,c,I,c,972,1,982.2999999988824,819937.7000000011,9062,WL,B,8.0
7,19.767000198364258,immed,40232.99980163574,Wed Apr 08 2026 16:11:15 GMT-0400 (Eastern Daylight Time),821237.0,A,ci,I,i,301,1,1299.2999999988824,819937.7000000011,9062,WL,B,8.0
7,19.933000087738037,immed,40066.99991226196,Wed Apr 08 2026 16:11:15 GMT-0400 (Eastern Daylight Time),821403.2000000011,A,cit,I,t,141,1,1465.5,819937.7000000011,9062,WL,B,8.0
7,20.067000150680542,immed,39932.99984931946,Wed Apr 08 2026 16:11:15 GMT-0400 (Eastern Daylight Time),821537.0,A,city,I,y,115,1,1599.2999999988824,819937.7000000011,9062,WL,B,8.0
7,20.734000205993652,immed,39265.99979400635,Wed Apr 08 2026 16:11:15 GMT-0400 (Eastern Daylight Time),822203.4000000004,A,cityenter,I,enter,642,1,2265.699999999255,819937.7000000011,9062,WL,B,8.0
7,21.550000190734863,immed,38449.99980926514,Wed Apr 08 2026 16:11:15 GMT-0400 (Eastern Daylight Time),823020.2000000011,A,p,I,p,796,1,816.5999999996275,822203.6000000015,9062,WL,B,9.0
7,21.83400011062622,immed,38165.99988937378,Wed Apr 08 2026 16:11:15 GMT-0400 (Eastern Daylight Time),823303.6000000015,A,pu,I,u,264,1,1100.0,822203.6000000015,9062,WL,B,9.0
7,22.050000190734863,immed,37949.99980926514,Wed Apr 08 2026 16:11:15 GMT-0400 (Eastern Daylight Time),823519.9000000004,A,pup,I,p,203,1,1316.2999999988824,822203.6000000015,9062,WL,B,9.0
7,22.25,immed,37750.0,Wed Apr 08 2026 16:11:15 GMT-0400 (Eastern Daylight Time),823719.8000000007,A,pupi,I,i,181,1,1516.199999999255,822203.6000000015,9062,WL,B,9.0
7,22.41700005531311,immed,37582.99994468689,Wed Apr 08 2026 16:11:15 GMT-0400 (Eastern Daylight Time),823886.4000000004,A,pupil,I,l,158,1,1682.7999999988824,822203.6000000015,9062,WL,B,9.0
7,22.984000205993652,immed,37015.99979400635,Wed Apr 08 2026 16:11:15 GMT-0400 (Eastern Daylight Time),824453.7000000011,A,pupilenter,I,enter,559,1,2250.0999999996275,822203.6000000015,9062,WL,B,9.0
7,23.5,immed,36500.0,Wed Apr 08 2026 16:11:15 GMT-0400 (Eastern Daylight Time),824970.4000000004,A,c,I,c,497,1,516.4000000003725,824454.0,9062,WL,B,10.0
7,23.617000102996826,immed,36382.999897003174,Wed Apr 08 2026 16:11:15 GMT-0400 (Eastern Daylight Time),825086.9000000004,A,ca,I,a,105,1,632.9000000003725,824454.0,9062,WL,B,10.0
7,23.767000198364258,immed,36232.99980163574,Wed Apr 08 2026 16:11:15 GMT-0400 (Eastern Daylight Time),825237.0,A,cab,I,b,130,1,783.0,824454.0,9062,WL,B,10.0
7,23.817000150680542,immed,36182.99984931946,Wed Apr 08 2026 16:11:15 GMT-0400 (Eastern Daylight Time),825286.8000000007,A,cabi,I,i,30,1,832.8000000007451,824454.0,9062,WL,B,10.0
7,24.03500008583069,immed,35964.99991416931,Wed Apr 08 2026 16:11:15 GMT-0400 (Eastern Daylight Time),825504.5,A,cabin,I,n,205,1,1050.5,824454.0,9062,WL,B,10.0
7,24.700000047683716,immed,35299.999952316284,Wed Apr 08 2026 16:11:15 GMT-0400 (Eastern Daylight Time),826170.0,A,cabinenter,I,enter,645,1,1716.0,824454.0,9062,WL,B,10.0
7,27.18400001525879,immed,32815.99998474121,Wed Apr 08 2026 16:11:15 GMT-0400 (Eastern Daylight Time),828653.7000000011,A,l,I,l,2469,1,2483.4000000003725,826170.3000000007,9062,WL,B,11.0
7,27.367000102996826,immed,32632.999897003174,Wed Apr 08 2026 16:11:15 GMT-0400 (Eastern Daylight Time),828836.3000000007,A,la,I,a,151,1,2666.0,826170.3000000007,9062,WL,B,11.0
7,27.450000047683716,immed,32549.999952316284,Wed Apr 08 2026 16:11:15 GMT-0400 (Eastern Daylight Time),828919.9000000004,A,lak,I,k,74,1,2749.5999999996275,826170.3000000007,9062,WL,B,11.0
7,27.617000102996826,immed,32382.999897003174,Wed Apr 08 2026 16:11:15 GMT-0400 (Eastern Daylight Time),829087.0,A,lake,I,e,151,1,2916.699999999255,826170.3000000007,9062,WL,B,11.0
7,27.850000143051147,immed,32149.999856948853,Wed Apr 08 2026 16:11:15 GMT-0400 (Eastern Daylight Time),829319.9000000004,A,lakeenter,I,enter,213,1,3149.5999999996275,826170.3000000007,9062,WL,B,11.0
7,31.25100016593933,immed,28748.99983406067,Wed Apr 08 2026 16:11:15 GMT-0400 (Eastern Daylight Time),832720.5,A,p,I,p,3384,1,3400.199999999255,829320.3000000007,9062,WL,B,12.0
7,31.43400001525879,immed,28565.99998474121,Wed Apr 08 2026 16:11:15 GMT-0400 (Eastern Daylight Time),832903.5,A,pi,I,i,171,1,3583.199999999255,829320.3000000007,9062,WL,B,12.0
7,31.60199999809265,immed,28398.00000190735,Wed Apr 08 2026 16:11:15 GMT-0400 (Eastern Daylight Time),833071.4000000004,A,pip,I,p,156,1,3751.0999999996275,829320.3000000007,9062,WL,B,12.0
7,31.767000198364258,immed,28232.999801635742,Wed Apr 08 2026 16:11:15 GMT-0400 (Eastern Daylight Time),833237.0,A,pipe,I,e,140,1,3916.699999999255,829320.3000000007,9062,WL,B,12.0
7,32.08400011062622,immed,27915.99988937378,Wed Apr 08 2026 16:11:15 GMT-0400 (Eastern Daylight Time),833553.3000000007,A,pipeenter,I,enter,294,1,4233.0,829320.3000000007,9062,WL,B,12.0
7,33.15000009536743,immed,26849.99990463257,Wed Apr 08 2026 16:11:15 GMT-0400 (Eastern Daylight Time),834620.2000000011,A,s,I,s,1054,1,1066.5,833553.7000000011,9062,WL,B,13.0
7,33.33400011062622,immed,26665.99988937378,Wed Apr 08 2026 16:11:15 GMT-0400 (Eastern Daylight Time),834803.7000000011,A,sk,I,k,160,1,1250.0,833553.7000000011,9062,WL,B,13.0
7,33.467000007629395,immed,26532.999992370605,Wed Apr 08 2026 16:11:15 GMT-0400 (Eastern Daylight Time),834937.0,A,ski,I,i,112,1,1383.2999999988824,833553.7000000011,9062,WL,B,13.0
7,33.617000102996826,immed,26382.999897003174,Wed Apr 08 2026 16:11:15 GMT-0400 (Eastern Daylight Time),835087.1000000015,A,skin,I,n,130,1,1533.4000000003725,833553.7000000011,9062,WL,B,13.0
7,33.91799998283386,immed,26082.000017166138,Wed Apr 08 2026 16:11:15 GMT-0400 (Eastern Daylight Time),835387.5,A,skinenter,I,enter,276,1,1833.7999999988824,833553.7000000011,9062,WL,B,13.0
7,34.78400015830994,immed,25215.999841690063,Wed Apr 08 2026 16:11:15 GMT-0400 (Eastern Daylight Time),836253.6000000015,A,f,I,f,860,1,865.8000000007451,835387.8000000007,9062,WL,B,14.0
7,34.93300008773804,immed,25066.999912261963,Wed Apr 08 2026 16:11:15 GMT-0400 (Eastern Daylight Time),836403.3000000007,A,fi,I,i,133,1,1015.5,835387.8000000007,9062,WL,B,14.0
7,35.217000007629395,immed,24782.999992370605,Wed Apr 08 2026 16:11:15 GMT-0400 (Eastern Daylight Time),836686.9000000004,A,fir,I,r,268,1,1299.0999999996275,835387.8000000007,9062,WL,B,14.0
7,35.31700015068054,immed,24682.999849319458,Wed Apr 08 2026 16:11:15 GMT-0400 (Eastern Daylight Time),836787.1000000015,A,fire,I,e,84,1,1399.300000000745,835387.8000000007,9062,WL,B,14.0
7,35.85000014305115,immed,24149.999856948853,Wed Apr 08 2026 16:11:15 GMT-0400 (Eastern Daylight Time),837320.0,A,fireenter,I,enter,519,1,1932.199999999255,835387.8000000007,9062,WL,B,14.0
7,37.01700019836426,immed,22982.999801635742,Wed Apr 08 2026 16:11:15 GMT-0400 (Eastern Daylight Time),838486.6000000015,A,c,I,c,1157,1,1166.300000000745,837320.3000000007,9062,WL,B,15.0
7,37.18400001525879,immed,22815.99998474121,Wed Apr 08 2026 16:11:15 GMT-0400 (Eastern Daylight Time),838653.6000000015,A,cl,I,l,152,1,1333.300000000745,837320.3000000007,9062,WL,B,15.0
7,37.33400011062622,immed,22665.99988937378,Wed Apr 08 2026 16:11:15 GMT-0400 (Eastern Daylight Time),838803.6000000015,A,clo,I,o,134,1,1483.300000000745,837320.3000000007,9062,WL,B,15.0
7,37.5,immed,22500.0,Wed Apr 08 2026 16:11:15 GMT-0400 (Eastern Daylight Time),838970.0,A,cloc,I,c,144,1,1649.699999999255,837320.3000000007,9062,WL,B,15.0
7,37.6010000705719,immed,22398.9999294281,Wed Apr 08 2026 16:11:15 GMT-0400 (Eastern Daylight Time),839070.5,A,clock,I,k,85,1,1750.199999999255,837320.3000000007,9062,WL,B,15.0
7,38.16700005531311,immed,21832.99994468689,Wed Apr 08 2026 16:11:15 GMT-0400 (Eastern Daylight Time),839636.6000000015,A,clockenter,I,enter,534,1,2316.300000000745,837320.3000000007,9062,WL,B,15.0
