Number,acc_sum,block,block_c,block_cond,con_img,correct,correct_response,datetime,endtime,jitter,project,response,response_time,row_sel,session_number,start_end,starttime,subject_id,task,task_vers,trial
1,1,prac,1,A,circle.png,1,z,Mon Mar 30 2026 15:39:03 GMT-0500 (Central Daylight Time),66295.09999990463,1000,O,z,1057,1,1,2841.7999999523163,63453.299999952316,7791,NTS,A,1
8,2,prac,1,A,circle.png,1,m,Mon Mar 30 2026 15:39:03 GMT-0500 (Central Daylight Time),69943.59999990463,1600,O,m,1256,7,1,3639.5999999046326,66304.0,7791,NTS,A,2
4,3,prac,1,A,circle.png,1,z,Mon Mar 30 2026 15:39:03 GMT-0500 (Central Daylight Time),73475.69999980927,1400,O,z,1344,4,1,3527.2999999523163,69948.39999985695,7791,NTS,A,3
3,4,prac,1,A,circle.png,1,z,Mon Mar 30 2026 15:39:03 GMT-0500 (Central Daylight Time),76175.39999985695,1200,O,z,698,3,1,2692.0,73483.39999985695,7791,NTS,A,4
2,5,prac,1,A,circle.png,1,z,Mon Mar 30 2026 15:39:03 GMT-0500 (Central Daylight Time),79563.5,2000,O,z,582,2,1,3380.7000000476837,76182.79999995232,7791,NTS,A,5
7,6,prac,1,A,circle.png,1,m,Mon Mar 30 2026 15:39:03 GMT-0500 (Central Daylight Time),82771.79999995232,1700,O,m,727,6,1,3202.7999999523163,79569.0,7791,NTS,A,6
9,7,prac,1,A,circle.png,1,m,Mon Mar 30 2026 15:39:03 GMT-0500 (Central Daylight Time),85854.89999985695,1500,O,m,799,8,1,3078.2000000476837,82776.69999980927,7791,NTS,A,7
3,8,prac,1,A,circle.png,1,z,Mon Mar 30 2026 15:39:03 GMT-0500 (Central Daylight Time),88338.19999980927,1200,O,z,499,3,1,2477.5,85860.69999980927,7791,NTS,A,8
7,9,prac,1,A,circle.png,1,m,Mon Mar 30 2026 15:39:03 GMT-0500 (Central Daylight Time),91320.89999985695,1700,O,m,500,6,1,2975.7999999523163,88345.09999990463,7791,NTS,A,9
6,10,prac,1,A,circle.png,1,m,Mon Mar 30 2026 15:39:03 GMT-0500 (Central Daylight Time),94651.5,1900,O,m,644,5,1,3323.300000190735,91328.19999980927,7791,NTS,A,10
2,11,prac,1,A,circle.png,1,z,Mon Mar 30 2026 15:39:03 GMT-0500 (Central Daylight Time),98068.09999990463,2000,O,z,617,2,1,3411.4000000953674,94656.69999980927,7791,NTS,A,11
4,12,prac,1,A,circle.png,1,z,Mon Mar 30 2026 15:39:03 GMT-0500 (Central Daylight Time),100984.09999990463,1400,O,z,731,4,1,2909.7000000476837,98074.39999985695,7791,NTS,A,12
1,1,prac,1,B,triangle.png,1,z,Mon Mar 30 2026 15:39:03 GMT-0500 (Central Daylight Time),149503.59999990463,1900,O,z,1084,1,1,3760.7999999523163,145742.79999995232,7791,NTS,A,1
7,1,prac,1,B,triangle.png,0,z,Mon Mar 30 2026 15:39:03 GMT-0500 (Central Daylight Time),153800.29999995232,2000,O,None,1514,6,1,4288.600000143051,149511.69999980927,7791,NTS,A,2
9,2,prac,1,B,triangle.png,1,z,Mon Mar 30 2026 15:39:03 GMT-0500 (Central Daylight Time),156731.19999980927,1400,O,z,733,8,1,2925.0,153806.19999980927,7791,NTS,A,3
9,3,prac,1,B,triangle.png,1,z,Mon Mar 30 2026 15:39:03 GMT-0500 (Central Daylight Time),159415.79999995232,1400,O,z,499,8,1,2680.600000143051,156735.19999980927,7791,NTS,A,4
3,4,prac,1,B,triangle.png,1,z,Mon Mar 30 2026 15:39:03 GMT-0500 (Central Daylight Time),162350.79999995232,1600,O,z,537,3,1,2928.5,159422.29999995232,7791,NTS,A,5
2,5,prac,1,B,triangle.png,1,m,Mon Mar 30 2026 15:39:03 GMT-0500 (Central Daylight Time),165513.09999990463,1700,O,m,672,2,1,3158.5,162354.59999990463,7791,NTS,A,6
2,6,prac,1,B,triangle.png,1,m,Mon Mar 30 2026 15:39:03 GMT-0500 (Central Daylight Time),169095.39999985695,1700,O,m,1091,2,1,3573.7000000476837,165521.69999980927,7791,NTS,A,7
6,7,prac,1,B,triangle.png,1,m,Mon Mar 30 2026 15:39:03 GMT-0500 (Central Daylight Time),171545.5,1000,O,m,667,5,1,2444.300000190735,169101.19999980927,7791,NTS,A,8
4,8,prac,1,B,triangle.png,1,m,Mon Mar 30 2026 15:39:03 GMT-0500 (Central Daylight Time),174960.0,1500,O,m,1132,4,1,3407.600000143051,171552.39999985695,7791,NTS,A,9
8,9,prac,1,B,triangle.png,1,m,Mon Mar 30 2026 15:39:03 GMT-0500 (Central Daylight Time),177625.79999995232,1200,O,m,680,7,1,2661.100000143051,174964.69999980927,7791,NTS,A,10
8,10,prac,1,B,triangle.png,1,m,Mon Mar 30 2026 15:39:03 GMT-0500 (Central Daylight Time),180190.0,1200,O,m,565,7,1,2558.100000143051,177631.89999985695,7791,NTS,A,11
3,11,prac,1,B,triangle.png,1,z,Mon Mar 30 2026 15:39:03 GMT-0500 (Central Daylight Time),183240.29999995232,1600,O,z,667,3,1,3046.5,180193.79999995232,7791,NTS,A,12
3,1,test,1,A,circle.png,1,z,Mon Mar 30 2026 15:39:03 GMT-0500 (Central Daylight Time),211365.0,1200,O,z,618,3,1,1844.3000001907349,209520.69999980927,7791,NTS,A,1
1,2,test,1,A,circle.png,1,z,Mon Mar 30 2026 15:39:03 GMT-0500 (Central Daylight Time),212997.09999990463,1000,O,z,603,1,1,1626.4000000953674,211370.69999980927,7791,NTS,A,2
3,3,test,1,A,circle.png,1,z,Mon Mar 30 2026 15:39:03 GMT-0500 (Central Daylight Time),214798.39999985695,1200,O,z,569,3,1,1797.2000000476837,213001.19999980927,7791,NTS,A,3
2,3,test,1,A,circle.png,0,z,Mon Mar 30 2026 15:39:03 GMT-0500 (Central Daylight Time),217596.29999995232,2000,O,m,769,2,1,2793.0,214803.29999995232,7791,NTS,A,4
6,4,test,1,A,circle.png,1,m,Mon Mar 30 2026 15:39:03 GMT-0500 (Central Daylight Time),220594.89999985695,1900,O,m,1080,5,1,2992.5,217602.39999985695,7791,NTS,A,5
4,5,test,1,A,circle.png,1,z,Mon Mar 30 2026 15:39:03 GMT-0500 (Central Daylight Time),223046.09999990463,1400,O,z,1018,4,1,2447.0,220599.09999990463,7791,NTS,A,6
7,6,test,1,A,circle.png,1,m,Mon Mar 30 2026 15:39:03 GMT-0500 (Central Daylight Time),225392.5,1700,O,m,631,6,1,2341.100000143051,223051.39999985695,7791,NTS,A,7
9,7,test,1,A,circle.png,1,m,Mon Mar 30 2026 15:39:03 GMT-0500 (Central Daylight Time),227559.69999980927,1500,O,m,632,8,1,2164.5,225395.19999980927,7791,NTS,A,8
6,8,test,1,A,circle.png,1,m,Mon Mar 30 2026 15:39:03 GMT-0500 (Central Daylight Time),230273.59999990463,1900,O,m,784,5,1,2706.5,227567.09999990463,7791,NTS,A,9
1,9,test,1,A,circle.png,1,z,Mon Mar 30 2026 15:39:03 GMT-0500 (Central Daylight Time),231991.09999990463,1000,O,z,682,1,1,1715.0,230276.09999990463,7791,NTS,A,10
4,10,test,1,A,circle.png,1,z,Mon Mar 30 2026 15:39:03 GMT-0500 (Central Daylight Time),234407.0,1400,O,z,991,4,1,2410.2000000476837,231996.79999995232,7791,NTS,A,11
3,11,test,1,A,circle.png,1,z,Mon Mar 30 2026 15:39:03 GMT-0500 (Central Daylight Time),236223.09999990463,1200,O,z,582,3,1,1809.5,234413.59999990463,7791,NTS,A,12
7,12,test,1,A,circle.png,1,m,Mon Mar 30 2026 15:39:03 GMT-0500 (Central Daylight Time),238771.5,1700,O,m,826,6,1,2542.800000190735,236228.69999980927,7791,NTS,A,13
7,13,test,1,A,circle.png,1,m,Mon Mar 30 2026 15:39:03 GMT-0500 (Central Daylight Time),241256.29999995232,1700,O,m,750,6,1,2478.9000000953674,238777.39999985695,7791,NTS,A,14
4,14,test,1,A,circle.png,1,z,Mon Mar 30 2026 15:39:03 GMT-0500 (Central Daylight Time),243421.39999985695,1400,O,z,744,4,1,2161.0999999046326,241260.29999995232,7791,NTS,A,15
8,15,test,1,A,circle.png,1,m,Mon Mar 30 2026 15:39:03 GMT-0500 (Central Daylight Time),245887.09999990463,1600,O,m,840,7,1,2459.9000000953674,243427.19999980927,7791,NTS,A,16
1,16,test,1,A,circle.png,1,z,Mon Mar 30 2026 15:39:03 GMT-0500 (Central Daylight Time),247653.89999985695,1000,O,z,742,1,1,1761.2000000476837,245892.69999980927,7791,NTS,A,17
6,17,test,1,A,circle.png,1,m,Mon Mar 30 2026 15:39:03 GMT-0500 (Central Daylight Time),250236.09999990463,1900,O,m,660,5,1,2575.9000000953674,247660.19999980927,7791,NTS,A,18
8,18,test,1,A,circle.png,1,m,Mon Mar 30 2026 15:39:03 GMT-0500 (Central Daylight Time),252318.09999990463,1600,O,m,459,7,1,2077.9000000953674,250240.19999980927,7791,NTS,A,19
6,19,test,1,A,circle.png,1,m,Mon Mar 30 2026 15:39:03 GMT-0500 (Central Daylight Time),254866.59999990463,1900,O,m,614,5,1,2545.7999999523163,252320.79999995232,7791,NTS,A,20
9,20,test,1,A,circle.png,1,m,Mon Mar 30 2026 15:39:03 GMT-0500 (Central Daylight Time),256953.59999990463,1500,O,m,552,8,1,2082.2000000476837,254871.39999985695,7791,NTS,A,21
2,21,test,1,A,circle.png,1,z,Mon Mar 30 2026 15:39:03 GMT-0500 (Central Daylight Time),259467.29999995232,2000,O,z,498,2,1,2508.7999999523163,256958.5,7791,NTS,A,22
2,22,test,1,A,circle.png,1,z,Mon Mar 30 2026 15:39:03 GMT-0500 (Central Daylight Time),261998.5,2000,O,z,509,2,1,2526.300000190735,259472.19999980927,7791,NTS,A,23
8,23,test,1,A,circle.png,1,m,Mon Mar 30 2026 15:39:03 GMT-0500 (Central Daylight Time),264348.2999999523,1600,O,m,720,7,1,2345.5,262002.79999995232,7791,NTS,A,24
8,1,test,1,B,triangle.png,1,m,Mon Mar 30 2026 15:39:03 GMT-0500 (Central Daylight Time),277309.69999980927,1200,O,m,799,7,1,2027.5999999046326,275282.09999990463,7791,NTS,A,1
6,2,test,1,B,triangle.png,1,m,Mon Mar 30 2026 15:39:03 GMT-0500 (Central Daylight Time),279476.59999990463,1500,O,m,649,13,1,2161.7000000476837,277314.89999985695,7791,NTS,A,2
2,3,test,1,B,triangle.png,1,m,Mon Mar 30 2026 15:39:03 GMT-0500 (Central Daylight Time),282142.69999980927,1700,O,m,942,2,1,2661.0,279481.69999980927,7791,NTS,A,3
8,4,test,1,B,triangle.png,1,m,Mon Mar 30 2026 15:39:03 GMT-0500 (Central Daylight Time),284058.2999999523,1200,O,m,684,7,1,1910.9000000953674,282147.39999985695,7791,NTS,A,4
6,5,test,1,B,triangle.png,1,m,Mon Mar 30 2026 15:39:03 GMT-0500 (Central Daylight Time),285690.2999999523,1000,O,m,613,5,1,1626.7999999523163,284063.5,7791,NTS,A,5
2,6,test,1,B,triangle.png,1,m,Mon Mar 30 2026 15:39:03 GMT-0500 (Central Daylight Time),287641.19999980927,1200,O,m,724,10,1,1946.7999999523163,285694.39999985695,7791,NTS,A,6
1,7,test,1,B,triangle.png,1,z,Mon Mar 30 2026 15:39:03 GMT-0500 (Central Daylight Time),290273.89999985695,1900,O,z,716,1,1,2628.2999999523163,287645.59999990463,7791,NTS,A,7
4,8,test,1,B,triangle.png,1,m,Mon Mar 30 2026 15:39:03 GMT-0500 (Central Daylight Time),292053.59999990463,1000,O,m,756,12,1,1776.2000000476837,290277.39999985695,7791,NTS,A,8
4,9,test,1,B,triangle.png,1,m,Mon Mar 30 2026 15:39:03 GMT-0500 (Central Daylight Time),294338.5,1500,O,m,753,4,1,2282.0,292056.5,7791,NTS,A,9
1,10,test,1,B,triangle.png,1,z,Mon Mar 30 2026 15:39:03 GMT-0500 (Central Daylight Time),296456.2999999523,1400,O,z,686,9,1,2114.2000000476837,294342.09999990463,7791,NTS,A,10
3,11,test,1,B,triangle.png,1,z,Mon Mar 30 2026 15:39:03 GMT-0500 (Central Daylight Time),298937.89999985695,1600,O,z,857,3,1,2477.2000000476837,296460.69999980927,7791,NTS,A,11
8,12,test,1,B,triangle.png,1,m,Mon Mar 30 2026 15:39:03 GMT-0500 (Central Daylight Time),301302.7999999523,1700,O,m,643,15,1,2361.100000143051,298941.69999980927,7791,NTS,A,12
9,13,test,1,B,triangle.png,1,z,Mon Mar 30 2026 15:39:03 GMT-0500 (Central Daylight Time),304401.0,1900,O,z,1173,16,1,3094.600000143051,301306.39999985695,7791,NTS,A,13
7,14,test,1,B,triangle.png,1,z,Mon Mar 30 2026 15:39:03 GMT-0500 (Central Daylight Time),306935.89999985695,1600,O,z,900,14,1,2531.7999999523163,304404.09999990463,7791,NTS,A,14
1,15,test,1,B,triangle.png,1,z,Mon Mar 30 2026 15:39:03 GMT-0500 (Central Daylight Time),309499.69999980927,1900,O,z,637,1,1,2559.5999999046326,306940.09999990463,7791,NTS,A,15
1,16,test,1,B,triangle.png,1,z,Mon Mar 30 2026 15:39:03 GMT-0500 (Central Daylight Time),311633.89999985695,1400,O,z,716,9,1,2129.2000000476837,309504.69999980927,7791,NTS,A,16
9,17,test,1,B,triangle.png,1,z,Mon Mar 30 2026 15:39:03 GMT-0500 (Central Daylight Time),313850.0,1400,O,z,799,8,1,2210.9000000953674,311639.09999990463,7791,NTS,A,17
7,18,test,1,B,triangle.png,1,z,Mon Mar 30 2026 15:39:03 GMT-0500 (Central Daylight Time),316564.19999980927,2000,O,z,687,6,1,2709.399999856949,313854.7999999523,7791,NTS,A,18
3,19,test,1,B,triangle.png,1,z,Mon Mar 30 2026 15:39:03 GMT-0500 (Central Daylight Time),319332.59999990463,2000,O,z,739,11,1,2764.7999999523163,316567.7999999523,7791,NTS,A,19
7,20,test,1,B,triangle.png,1,z,Mon Mar 30 2026 15:39:03 GMT-0500 (Central Daylight Time),322062.5,2000,O,z,711,6,1,2725.800000190735,319336.69999980927,7791,NTS,A,20
9,21,test,1,B,triangle.png,1,z,Mon Mar 30 2026 15:39:03 GMT-0500 (Central Daylight Time),324079.59999990463,1400,O,z,599,8,1,2013.0999999046326,322066.5,7791,NTS,A,21
2,22,test,1,B,triangle.png,1,m,Mon Mar 30 2026 15:39:03 GMT-0500 (Central Daylight Time),326244.19999980927,1200,O,m,944,10,1,2161.199999809265,324083.0,7791,NTS,A,22
4,23,test,1,B,triangle.png,1,m,Mon Mar 30 2026 15:39:03 GMT-0500 (Central Daylight Time),327927.2999999523,1000,O,m,650,12,1,1678.5,326248.7999999523,7791,NTS,A,23
4,24,test,1,B,triangle.png,1,m,Mon Mar 30 2026 15:39:03 GMT-0500 (Central Daylight Time),329995.59999990463,1500,O,m,549,4,1,2064.2999999523163,327931.2999999523,7791,NTS,A,24
7,1,prac,1,C,triangle.png,1,z,Mon Mar 30 2026 15:39:03 GMT-0500 (Central Daylight Time),413100.69999980927,1200,O,z,1477,6,1,3457.7999999523163,409642.89999985695,7791,NTS,A,1
7,2,prac,1,C,triangle.png,1,z,Mon Mar 30 2026 15:39:03 GMT-0500 (Central Daylight Time),416000.89999985695,1200,O,z,908,6,1,2892.0999999046326,413108.7999999523,7791,NTS,A,2
3,3,prac,1,C,triangle.png,1,z,Mon Mar 30 2026 15:39:03 GMT-0500 (Central Daylight Time),419049.39999985695,1500,O,z,767,3,1,3042.7999999523163,416006.59999990463,7791,NTS,A,3
2,3,prac,1,C,triangle.png,0,m,Mon Mar 30 2026 15:39:03 GMT-0500 (Central Daylight Time),422115.0,1600,O,z,671,2,1,3058.800000190735,419056.19999980927,7791,NTS,A,4
6,3,prac,1,C,circle.png,0,m,Mon Mar 30 2026 15:39:03 GMT-0500 (Central Daylight Time),426412.7999999523,2000,O,None,1517,5,1,4291.100000143051,422121.69999980927,7791,NTS,A,5
9,4,prac,1,C,circle.png,1,m,Mon Mar 30 2026 15:39:03 GMT-0500 (Central Daylight Time),430362.09999990463,1900,O,m,1249,8,1,3943.5999999046326,426418.5,7791,NTS,A,6
6,5,prac,1,C,circle.png,1,m,Mon Mar 30 2026 15:39:03 GMT-0500 (Central Daylight Time),434327.39999985695,2000,O,m,1175,5,1,3958.2000000476837,430369.19999980927,7791,NTS,A,7
8,6,prac,1,C,triangle.png,1,m,Mon Mar 30 2026 15:39:03 GMT-0500 (Central Daylight Time),437743.19999980927,1400,O,m,1217,7,1,3408.0,434335.19999980927,7791,NTS,A,8
4,7,prac,1,C,circle.png,1,z,Mon Mar 30 2026 15:39:03 GMT-0500 (Central Daylight Time),440358.39999985695,1000,O,z,823,4,1,2608.7000000476837,437749.69999980927,7791,NTS,A,9
8,8,prac,1,C,triangle.png,1,m,Mon Mar 30 2026 15:39:03 GMT-0500 (Central Daylight Time),444024.7999999523,1400,O,m,1483,7,1,3661.600000143051,440363.19999980927,7791,NTS,A,10
1,9,prac,1,C,circle.png,1,z,Mon Mar 30 2026 15:39:03 GMT-0500 (Central Daylight Time),447473.19999980927,1700,O,z,950,1,1,3439.699999809265,444033.5,7791,NTS,A,11
1,10,prac,1,C,circle.png,1,z,Mon Mar 30 2026 15:39:03 GMT-0500 (Central Daylight Time),451389.39999985695,1700,O,z,1434,1,1,3909.7999999523163,447479.59999990463,7791,NTS,A,12
7,0,test,1,C,triangle.png,0,z,Mon Mar 30 2026 15:39:03 GMT-0500 (Central Daylight Time),469633.89999985695,1700,O,None,1517,6,1,3227.2000000476837,466406.69999980927,7791,NTS,A,1
7,1,test,1,C,triangle.png,1,z,Mon Mar 30 2026 15:39:03 GMT-0500 (Central Daylight Time),472530.7999999523,1700,O,z,1172,22,1,2889.9000000953674,469640.89999985695,7791,NTS,A,2
6,2,test,1,C,circle.png,1,m,Mon Mar 30 2026 15:39:03 GMT-0500 (Central Daylight Time),475513.39999985695,1900,O,m,1065,21,1,2975.899999856949,472537.5,7791,NTS,A,3
9,3,test,1,C,circle.png,1,m,Mon Mar 30 2026 15:39:03 GMT-0500 (Central Daylight Time),477680.09999990463,1500,O,m,633,24,1,2163.2000000476837,475516.89999985695,7791,NTS,A,4
1,3,test,1,C,triangle.png,0,z,Mon Mar 30 2026 15:39:03 GMT-0500 (Central Daylight Time),481111.59999990463,1900,O,None,1515,9,1,3425.7999999523163,477685.7999999523,7791,NTS,A,5
3,3,test,1,C,triangle.png,0,z,Mon Mar 30 2026 15:39:03 GMT-0500 (Central Daylight Time),483843.59999990463,1200,O,None,1515,3,1,2725.4000000953674,481118.19999980927,7791,NTS,A,6
4,4,test,1,C,circle.png,1,z,Mon Mar 30 2026 15:39:03 GMT-0500 (Central Daylight Time),486277.5,1400,O,z,1010,4,1,2427.7000000476837,483849.7999999523,7791,NTS,A,7
8,5,test,1,C,triangle.png,1,m,Mon Mar 30 2026 15:39:03 GMT-0500 (Central Daylight Time),489241.7999999523,1600,O,m,1346,7,1,2959.100000143051,486282.69999980927,7791,NTS,A,8
8,6,test,1,C,triangle.png,1,m,Mon Mar 30 2026 15:39:03 GMT-0500 (Central Daylight Time),491559.2999999523,1600,O,m,685,23,1,2311.2999999523163,489248.0,7791,NTS,A,9
4,7,test,1,C,triangle.png,1,m,Mon Mar 30 2026 15:39:03 GMT-0500 (Central Daylight Time),493857.2999999523,1500,O,m,771,20,1,2291.7999999523163,491565.5,7791,NTS,A,10
7,8,test,1,C,circle.png,1,m,Mon Mar 30 2026 15:39:03 GMT-0500 (Central Daylight Time),496873.39999985695,2000,O,m,991,14,1,3012.0,493861.39999985695,7791,NTS,A,11
4,8,test,1,C,triangle.png,0,m,Mon Mar 30 2026 15:39:03 GMT-0500 (Central Daylight Time),499906.69999980927,1500,O,None,1516,12,1,3028.699999809265,496878.0,7791,NTS,A,12
1,9,test,1,C,circle.png,1,z,Mon Mar 30 2026 15:39:03 GMT-0500 (Central Daylight Time),501871.89999985695,1000,O,z,948,1,1,1959.2999999523163,499912.59999990463,7791,NTS,A,13
2,9,test,1,C,triangle.png,0,m,Mon Mar 30 2026 15:39:03 GMT-0500 (Central Daylight Time),505403.89999985695,2000,O,None,1518,2,1,3527.5999999046326,501876.2999999523,7791,NTS,A,14
2,10,test,1,C,circle.png,1,z,Mon Mar 30 2026 15:39:03 GMT-0500 (Central Daylight Time),508203.39999985695,1700,O,z,1071,10,1,2794.2000000476837,505409.19999980927,7791,NTS,A,15
9,10,test,1,C,triangle.png,0,z,Mon Mar 30 2026 15:39:03 GMT-0500 (Central Daylight Time),510687.09999990463,1400,O,m,1059,16,1,2480.0999999046326,508207.0,7791,NTS,A,16
8,11,test,1,C,circle.png,1,m,Mon Mar 30 2026 15:39:03 GMT-0500 (Central Daylight Time),513186.0,1200,O,m,1273,15,1,2492.2000000476837,510693.7999999523,7791,NTS,A,17
9,11,test,1,C,circle.png,0,m,Mon Mar 30 2026 15:39:03 GMT-0500 (Central Daylight Time),516217.19999980927,1500,O,None,1515,8,1,3027.699999809265,513189.5,7791,NTS,A,18
6,12,test,1,C,triangle.png,1,m,Mon Mar 30 2026 15:39:03 GMT-0500 (Central Daylight Time),518601.0,1000,O,m,1365,13,1,2376.9000000953674,516224.09999990463,7791,NTS,A,19
3,13,test,1,C,circle.png,1,z,Mon Mar 30 2026 15:39:03 GMT-0500 (Central Daylight Time),521148.7999999523,1600,O,z,920,11,1,2542.9000000953674,518605.89999985695,7791,NTS,A,20
6,14,test,1,C,circle.png,1,m,Mon Mar 30 2026 15:39:03 GMT-0500 (Central Daylight Time),524049.0,1900,O,m,973,5,1,2896.100000143051,521152.89999985695,7791,NTS,A,21
1,14,test,1,C,triangle.png,0,z,Mon Mar 30 2026 15:39:03 GMT-0500 (Central Daylight Time),527478.899999857,1900,O,None,1514,17,1,3424.899999856949,524054.0,7791,NTS,A,22
2,15,test,1,C,circle.png,1,z,Mon Mar 30 2026 15:39:03 GMT-0500 (Central Daylight Time),530097.5,1700,O,z,891,18,1,2616.0,527481.5,7791,NTS,A,23
3,16,test,1,C,circle.png,1,z,Mon Mar 30 2026 15:39:03 GMT-0500 (Central Daylight Time),532693.899999857,1600,O,z,966,19,1,2593.2999999523163,530100.5999999046,7791,NTS,A,24
9,0,test,2,C,triangle.png,0,z,Mon Mar 30 2026 15:39:03 GMT-0500 (Central Daylight Time),556955.6999998093,1400,O,m,1381,24,1,2796.2999999523163,554159.399999857,7791,NTS,A,1
8,1,test,2,C,circle.png,1,m,Mon Mar 30 2026 15:39:03 GMT-0500 (Central Daylight Time),559520.0999999046,1200,O,m,1341,15,1,2559.0,556961.0999999046,7791,NTS,A,2
7,2,test,2,C,circle.png,1,m,Mon Mar 30 2026 15:39:03 GMT-0500 (Central Daylight Time),562568.2999999523,2000,O,m,1032,22,1,3044.2000000476837,559524.0999999046,7791,NTS,A,3
3,3,test,2,C,triangle.png,1,z,Mon Mar 30 2026 15:39:03 GMT-0500 (Central Daylight Time),565051.0999999046,1200,O,z,1252,3,1,2479.5999999046326,562571.5,7791,NTS,A,4
6,4,test,2,C,triangle.png,1,m,Mon Mar 30 2026 15:39:03 GMT-0500 (Central Daylight Time),567001.7999999523,1000,O,m,930,13,1,1945.7999999523163,565056.0,7791,NTS,A,5
3,5,test,2,C,circle.png,1,z,Mon Mar 30 2026 15:39:03 GMT-0500 (Central Daylight Time),569784.0,1600,O,z,1149,19,1,2778.4000000953674,567005.5999999046,7791,NTS,A,6
8,6,test,2,C,triangle.png,1,m,Mon Mar 30 2026 15:39:03 GMT-0500 (Central Daylight Time),572617.1999998093,1600,O,m,1216,7,1,2828.7999999523163,569788.399999857,7791,NTS,A,7
2,7,test,2,C,triangle.png,1,m,Mon Mar 30 2026 15:39:03 GMT-0500 (Central Daylight Time),575499.5999999046,2000,O,m,850,2,1,2876.2000000476837,572623.399999857,7791,NTS,A,8
4,8,test,2,C,circle.png,1,z,Mon Mar 30 2026 15:39:03 GMT-0500 (Central Daylight Time),577749.7999999523,1400,O,z,820,4,1,2243.7000000476837,575506.0999999046,7791,NTS,A,9
8,8,test,2,C,circle.png,0,m,Mon Mar 30 2026 15:39:03 GMT-0500 (Central Daylight Time),580481.7999999523,1200,O,None,1517,23,1,2726.2999999523163,577755.5,7791,NTS,A,10
1,8,test,2,C,triangle.png,0,z,Mon Mar 30 2026 15:39:03 GMT-0500 (Central Daylight Time),583912.899999857,1900,O,None,1516,9,1,3424.7999999523163,580488.0999999046,7791,NTS,A,11
4,8,test,2,C,triangle.png,0,m,Mon Mar 30 2026 15:39:03 GMT-0500 (Central Daylight Time),586945.7999999523,1500,O,None,1518,12,1,3025.2000000476837,583920.5999999046,7791,NTS,A,12
3,9,test,2,C,circle.png,1,z,Mon Mar 30 2026 15:39:03 GMT-0500 (Central Daylight Time),589512.6999998093,1600,O,z,951,11,1,2558.0,586954.6999998093,7791,NTS,A,13
9,9,test,2,C,triangle.png,0,z,Mon Mar 30 2026 15:39:03 GMT-0500 (Central Daylight Time),592442.6999998093,1400,O,None,1517,16,1,2925.2999999523163,589517.399999857,7791,NTS,A,14
7,10,test,2,C,circle.png,1,m,Mon Mar 30 2026 15:39:03 GMT-0500 (Central Daylight Time),595676.6999998093,2000,O,m,1200,14,1,3225.0,592451.6999998093,7791,NTS,A,15
9,11,test,2,C,circle.png,1,m,Mon Mar 30 2026 15:39:03 GMT-0500 (Central Daylight Time),597960.5,1500,O,m,758,8,1,2277.800000190735,595682.6999998093,7791,NTS,A,16
4,12,test,2,C,triangle.png,1,m,Mon Mar 30 2026 15:39:03 GMT-0500 (Central Daylight Time),600925.899999857,1500,O,m,1443,20,1,2962.5999999046326,597963.2999999523,7791,NTS,A,17
6,13,test,2,C,circle.png,1,m,Mon Mar 30 2026 15:39:03 GMT-0500 (Central Daylight Time),604022.5999999046,1900,O,m,1174,5,1,3092.5,600930.0999999046,7791,NTS,A,18
7,14,test,2,C,triangle.png,1,z,Mon Mar 30 2026 15:39:03 GMT-0500 (Central Daylight Time),607172.1999998093,1700,O,z,1419,6,1,3145.899999856949,604026.2999999523,7791,NTS,A,19
1,15,test,2,C,circle.png,1,z,Mon Mar 30 2026 15:39:03 GMT-0500 (Central Daylight Time),609287.5999999046,1000,O,z,1082,1,1,2110.7000000476837,607176.899999857,7791,NTS,A,20
1,15,test,2,C,triangle.png,0,z,Mon Mar 30 2026 15:39:03 GMT-0500 (Central Daylight Time),612721.0999999046,1900,O,None,1516,17,1,3426.7000000476837,609294.399999857,7791,NTS,A,21
2,15,test,2,C,circle.png,0,z,Mon Mar 30 2026 15:39:03 GMT-0500 (Central Daylight Time),615953.2999999523,1700,O,None,1515,18,1,3226.0,612727.2999999523,7791,NTS,A,22
6,15,test,2,C,triangle.png,0,m,Mon Mar 30 2026 15:39:03 GMT-0500 (Central Daylight Time),618485.7999999523,1000,O,None,1515,21,1,2526.7999999523163,615959.0,7791,NTS,A,23
2,16,test,2,C,circle.png,1,z,Mon Mar 30 2026 15:39:03 GMT-0500 (Central Daylight Time),621167.0,1700,O,z,951,10,1,2675.0,618492.0,7791,NTS,A,24
2,0,test,3,C,triangle.png,0,m,Mon Mar 30 2026 15:39:03 GMT-0500 (Central Daylight Time),634496.899999857,2000,O,z,941,2,1,2961.0999999046326,631535.7999999523,7791,NTS,A,1
6,1,test,3,C,circle.png,1,m,Mon Mar 30 2026 15:39:03 GMT-0500 (Central Daylight Time),637429.0999999046,1900,O,m,1004,21,1,2927.2000000476837,634501.899999857,7791,NTS,A,2
3,2,test,3,C,circle.png,1,z,Mon Mar 30 2026 15:39:03 GMT-0500 (Central Daylight Time),639728.5999999046,1600,O,z,673,11,1,2294.9000000953674,637433.6999998093,7791,NTS,A,3
1,3,test,3,C,triangle.png,1,z,Mon Mar 30 2026 15:39:03 GMT-0500 (Central Daylight Time),642943.899999857,1900,O,z,1283,9,1,3211.2999999523163,639732.5999999046,7791,NTS,A,4
7,4,test,3,C,circle.png,1,m,Mon Mar 30 2026 15:39:03 GMT-0500 (Central Daylight Time),645876.7999999523,2000,O,m,904,14,1,2928.5,642948.2999999523,7791,NTS,A,5
3,4,test,3,C,triangle.png,0,z,Mon Mar 30 2026 15:39:03 GMT-0500 (Central Daylight Time),648592.899999857,1200,O,None,1501,19,1,2711.899999856949,645881.0,7791,NTS,A,6
4,5,test,3,C,circle.png,1,z,Mon Mar 30 2026 15:39:03 GMT-0500 (Central Daylight Time),651056.899999857,1400,O,z,1037,4,1,2458.2999999523163,648598.5999999046,7791,NTS,A,7
8,6,test,3,C,triangle.png,1,m,Mon Mar 30 2026 15:39:03 GMT-0500 (Central Daylight Time),653639.5,1600,O,m,949,23,1,2580.0,651059.5,7791,NTS,A,8
6,7,test,3,C,triangle.png,1,m,Mon Mar 30 2026 15:39:03 GMT-0500 (Central Daylight Time),655674.5,1000,O,m,1016,13,1,2032.4000000953674,653642.0999999046,7791,NTS,A,9
6,8,test,3,C,circle.png,1,m,Mon Mar 30 2026 15:39:03 GMT-0500 (Central Daylight Time),658888.5,1900,O,m,1292,5,1,3210.2000000476837,655678.2999999523,7791,NTS,A,10
8,9,test,3,C,circle.png,1,m,Mon Mar 30 2026 15:39:03 GMT-0500 (Central Daylight Time),661403.7999999523,1200,O,m,1293,15,1,2511.5,658892.2999999523,7791,NTS,A,11
4,10,test,3,C,circle.png,1,z,Mon Mar 30 2026 15:39:03 GMT-0500 (Central Daylight Time),664054.899999857,1400,O,z,1228,20,1,2645.899999856949,661409.0,7791,NTS,A,12
3,11,test,3,C,triangle.png,1,z,Mon Mar 30 2026 15:39:03 GMT-0500 (Central Daylight Time),666319.0999999046,1200,O,z,1049,3,1,2260.2999999523163,664058.7999999523,7791,NTS,A,13
1,12,test,3,C,circle.png,1,z,Mon Mar 30 2026 15:39:03 GMT-0500 (Central Daylight Time),668403.5999999046,1000,O,z,1054,1,1,2080.5999999046326,666323.0,7791,NTS,A,14
9,13,test,3,C,circle.png,1,m,Mon Mar 30 2026 15:39:03 GMT-0500 (Central Daylight Time),671252.6999998093,1500,O,m,1320,8,1,2845.5,668407.1999998093,7791,NTS,A,15
7,14,test,3,C,triangle.png,1,z,Mon Mar 30 2026 15:39:03 GMT-0500 (Central Daylight Time),674217.2999999523,1700,O,z,1234,6,1,2960.5,671256.7999999523,7791,NTS,A,16
9,15,test,3,C,triangle.png,1,z,Mon Mar 30 2026 15:39:03 GMT-0500 (Central Daylight Time),676400.2999999523,1400,O,z,766,16,1,2177.2000000476837,674223.0999999046,7791,NTS,A,17
2,16,test,3,C,triangle.png,1,m,Mon Mar 30 2026 15:39:03 GMT-0500 (Central Daylight Time),679515.399999857,2000,O,m,1096,18,1,3110.0999999046326,676405.2999999523,7791,NTS,A,18
7,17,test,3,C,triangle.png,1,z,Mon Mar 30 2026 15:39:03 GMT-0500 (Central Daylight Time),682197.2999999523,1700,O,z,950,22,1,2677.0,679520.2999999523,7791,NTS,A,19
2,18,test,3,C,circle.png,1,z,Mon Mar 30 2026 15:39:03 GMT-0500 (Central Daylight Time),684982.0,1700,O,z,1051,10,1,2778.9000000953674,682203.0999999046,7791,NTS,A,20
9,18,test,3,C,circle.png,0,m,Mon Mar 30 2026 15:39:03 GMT-0500 (Central Daylight Time),688013.5,1500,O,None,1515,24,1,3026.800000190735,684986.6999998093,7791,NTS,A,21
8,19,test,3,C,triangle.png,1,m,Mon Mar 30 2026 15:39:03 GMT-0500 (Central Daylight Time),690811.2999999523,1600,O,m,1166,7,1,2794.7999999523163,688016.5,7791,NTS,A,22
4,20,test,3,C,triangle.png,1,m,Mon Mar 30 2026 15:39:03 GMT-0500 (Central Daylight Time),693061.5999999046,1500,O,m,730,12,1,2245.0,690816.5999999046,7791,NTS,A,23
1,21,test,3,C,circle.png,1,z,Mon Mar 30 2026 15:39:03 GMT-0500 (Central Daylight Time),695077.0999999046,1000,O,z,986,17,1,2011.7000000476837,693065.399999857,7791,NTS,A,24
9,1,test,4,C,circle.png,1,m,Mon Mar 30 2026 15:39:03 GMT-0500 (Central Daylight Time),702392.0,1500,O,m,1250,24,1,2777.5,699614.5,7791,NTS,A,1
8,2,test,4,C,triangle.png,1,m,Mon Mar 30 2026 15:39:03 GMT-0500 (Central Daylight Time),705107.0,1600,O,m,1088,23,1,2708.9000000953674,702398.0999999046,7791,NTS,A,2
1,3,test,4,C,circle.png,1,z,Mon Mar 30 2026 15:39:03 GMT-0500 (Central Daylight Time),706923.0,1000,O,z,787,17,1,1813.0,705110.0,7791,NTS,A,3
7,4,test,4,C,triangle.png,1,z,Mon Mar 30 2026 15:39:03 GMT-0500 (Central Daylight Time),709688.899999857,1700,O,z,1040,22,1,2762.0999999046326,706926.7999999523,7791,NTS,A,4
2,4,test,4,C,triangle.png,0,m,Mon Mar 30 2026 15:39:03 GMT-0500 (Central Daylight Time),712488.7999999523,2000,O,z,782,18,1,2793.9000000953674,709694.899999857,7791,NTS,A,5
9,5,test,4,C,circle.png,1,m,Mon Mar 30 2026 15:39:03 GMT-0500 (Central Daylight Time),715154.7999999523,1500,O,m,1149,8,1,2658.9000000953674,712495.899999857,7791,NTS,A,6
6,6,test,4,C,circle.png,1,m,Mon Mar 30 2026 15:39:03 GMT-0500 (Central Daylight Time),718253.399999857,1900,O,m,1178,5,1,3093.2999999523163,715160.0999999046,7791,NTS,A,7
2,7,test,4,C,circle.png,1,z,Mon Mar 30 2026 15:39:03 GMT-0500 (Central Daylight Time),720936.399999857,1700,O,z,967,10,1,2678.2000000476837,718258.1999998093,7791,NTS,A,8
8,8,test,4,C,circle.png,1,m,Mon Mar 30 2026 15:39:03 GMT-0500 (Central Daylight Time),723200.899999857,1200,O,m,1040,15,1,2258.7000000476837,720942.1999998093,7791,NTS,A,9
7,9,test,4,C,circle.png,1,m,Mon Mar 30 2026 15:39:03 GMT-0500 (Central Daylight Time),726116.6999998093,2000,O,m,894,14,1,2908.0,723208.6999998093,7791,NTS,A,10
1,10,test,4,C,circle.png,1,z,Mon Mar 30 2026 15:39:03 GMT-0500 (Central Daylight Time),728066.6999998093,1000,O,z,931,1,1,1942.0999999046326,726124.5999999046,7791,NTS,A,11
7,11,test,4,C,triangle.png,1,z,Mon Mar 30 2026 15:39:03 GMT-0500 (Central Daylight Time),730781.399999857,1700,O,z,984,6,1,2707.0,728074.399999857,7791,NTS,A,12
8,12,test,4,C,triangle.png,1,m,Mon Mar 30 2026 15:39:03 GMT-0500 (Central Daylight Time),733132.2999999523,1600,O,m,720,7,1,2346.600000143051,730785.6999998093,7791,NTS,A,13
3,13,test,4,C,circle.png,1,z,Mon Mar 30 2026 15:39:03 GMT-0500 (Central Daylight Time),736080.399999857,1600,O,z,1321,11,1,2943.399999856949,733137.0,7791,NTS,A,14
3,14,test,4,C,triangle.png,1,z,Mon Mar 30 2026 15:39:03 GMT-0500 (Central Daylight Time),738496.5,1200,O,z,1197,3,1,2411.5,736085.0,7791,NTS,A,15
4,15,test,4,C,circle.png,1,z,Mon Mar 30 2026 15:39:03 GMT-0500 (Central Daylight Time),740962.0,1400,O,z,1044,4,1,2461.7000000476837,738500.2999999523,7791,NTS,A,16
6,16,test,4,C,circle.png,1,m,Mon Mar 30 2026 15:39:03 GMT-0500 (Central Daylight Time),744211.899999857,1900,O,m,1322,21,1,3246.899999856949,740965.0,7791,NTS,A,17
3,16,test,4,C,triangle.png,0,z,Mon Mar 30 2026 15:39:03 GMT-0500 (Central Daylight Time),746526.7999999523,1200,O,m,1091,19,1,2309.9000000953674,744216.899999857,7791,NTS,A,18
4,17,test,4,C,circle.png,1,z,Mon Mar 30 2026 15:39:03 GMT-0500 (Central Daylight Time),749110.0,1400,O,z,1151,20,1,2580.2000000476837,746529.7999999523,7791,NTS,A,19
4,18,test,4,C,triangle.png,1,m,Mon Mar 30 2026 15:39:03 GMT-0500 (Central Daylight Time),751758.899999857,1500,O,m,1125,12,1,2644.0,749114.899999857,7791,NTS,A,20
2,19,test,4,C,triangle.png,1,m,Mon Mar 30 2026 15:39:03 GMT-0500 (Central Daylight Time),754342.5999999046,2000,O,m,549,2,1,2580.9000000953674,751761.6999998093,7791,NTS,A,21
9,20,test,4,C,triangle.png,1,z,Mon Mar 30 2026 15:39:03 GMT-0500 (Central Daylight Time),756591.399999857,1400,O,z,818,16,1,2244.2999999523163,754347.0999999046,7791,NTS,A,22
1,21,test,4,C,triangle.png,1,z,Mon Mar 30 2026 15:39:03 GMT-0500 (Central Daylight Time),759523.6999998093,1900,O,z,1016,9,1,2926.5999999046326,756597.0999999046,7791,NTS,A,23
6,22,test,4,C,triangle.png,1,m,Mon Mar 30 2026 15:39:03 GMT-0500 (Central Daylight Time),761606.5,1000,O,m,1051,13,1,2078.800000190735,759527.6999998093,7791,NTS,A,24
