acc_sum,block,block_c,condition,correct,correct_response,datetime,endtime,flanker,jitter,project,response,response_test_buffer_response,response_test_target_response,response_time,response_time_test_buffer_response,response_time_test_target_response,row_sel,session_number,start_end,starttime,subject_id,target,task,task_vers,time_test_buffer,time_test_buffer_response,time_test_constants,time_test_flanker,time_test_jitter,time_test_logger,time_test_target,time_test_target_response,time_test_variables,trial
1,prac,1,con,1,m,Tue Apr 21 2026 09:29:35 GMT-0500 (Central Daylight Time),112049.20000004768,bell,1000,O,m,,,671,,,3,1,2961.0,109088.20000004768,7792,bell,AF,A,,,,,,,,,,1
2,prac,1,inc,1,m,Tue Apr 21 2026 09:29:35 GMT-0500 (Central Daylight Time),115014.10000002384,elated,900,O,m,,,750,,,6,1,2958.2999999523163,112055.80000007153,7792,napkin,AF,A,,,,,,,,,,2
3,prac,1,con,1,z,Tue Apr 21 2026 09:29:35 GMT-0500 (Central Daylight Time),117645.5,elated,800,O,z,,,539,,,9,1,2626.600000023842,115018.89999997616,7792,elated,AF,A,,,,,,,,,,3
3,prac,1,inc,0,z,Tue Apr 21 2026 09:29:35 GMT-0500 (Central Daylight Time),120912.80000007153,window,1100,O,m,,,863,,,16,1,3258.9000000953674,117653.89999997616,7792,temper,AF,A,,,,,,,,,,4
4,prac,1,con,1,m,Tue Apr 21 2026 09:29:35 GMT-0500 (Central Daylight Time),123710.70000004768,step,800,O,m,,,712,,,1,1,2792.100000023842,120918.60000002384,7792,step,AF,A,,,,,,,,,,5
5,prac,1,con,1,z,Tue Apr 21 2026 09:29:35 GMT-0500 (Central Daylight Time),126378.80000007153,brutal,800,O,z,,,586,,,13,1,2661.0,123717.80000007153,7792,brutal,AF,A,,,,,,,,,,6
6,prac,1,inc,1,z,Tue Apr 21 2026 09:29:35 GMT-0500 (Central Daylight Time),129223.5,rock,900,O,z,,,652,,,10,1,2838.6999999284744,126384.80000007153,7792,kind,AF,A,,,,,,,,,,7
7,prac,1,con,1,m,Tue Apr 21 2026 09:29:35 GMT-0500 (Central Daylight Time),132010.5,jacket,800,O,m,,,667,,,5,1,2783.6999999284744,129226.80000007153,7792,jacket,AF,A,,,,,,,,,,8
8,prac,1,con,1,m,Tue Apr 21 2026 09:29:35 GMT-0500 (Central Daylight Time),134990.80000007153,remote,1000,O,m,,,667,,,7,1,2972.0,132018.80000007153,7792,remote,AF,A,,,,,,,,,,9
9,prac,1,con,1,z,Tue Apr 21 2026 09:29:35 GMT-0500 (Central Daylight Time),137905.80000007153,rage,1000,O,z,,,611,,,15,1,2910.3000000715256,134995.5,7792,rage,AF,A,,,,,,,,,,10
10,prac,1,con,1,z,Tue Apr 21 2026 09:29:35 GMT-0500 (Central Daylight Time),140777.20000004768,love,1000,O,z,,,558,,,11,1,2865.3000000715256,137911.89999997616,7792,love,AF,A,,,,,,,,,,11
11,prac,1,inc,1,m,Tue Apr 21 2026 09:29:35 GMT-0500 (Central Daylight Time),143637.60000002384,kind,900,O,m,,,658,,,2,1,2856.0,140781.60000002384,7792,rock,AF,A,,,,,,,,,,12
12,prac,1,inc,1,z,Tue Apr 21 2026 09:29:35 GMT-0500 (Central Daylight Time),146653.60000002384,napkin,1100,O,z,,,614,,,12,1,3008.100000023842,143645.5,7792,friend,AF,A,,,,,,,,,,13
13,prac,1,inc,1,m,Tue Apr 21 2026 09:29:35 GMT-0500 (Central Daylight Time),149635.39999997616,hate,1100,O,m,,,567,,,4,1,2975.0,146660.39999997616,7792,film,AF,A,,,,,,,,,,14
14,prac,1,inc,1,z,Tue Apr 21 2026 09:29:35 GMT-0500 (Central Daylight Time),152518.0,film,900,O,z,,,674,,,14,1,2878.399999976158,149639.60000002384,7792,hate,AF,A,,,,,,,,,,15
15,prac,1,inc,1,m,Tue Apr 21 2026 09:29:35 GMT-0500 (Central Daylight Time),155682.89999997616,brutal,1100,O,m,,,766,,,8,1,3158.0999999046326,152524.80000007153,7792,window,AF,A,,,,,,,,,,16
1,test,1,inc,1,m,Tue Apr 21 2026 09:29:35 GMT-0500 (Central Daylight Time),167261.80000007153,elated,800,O,m,m,None,601,400.0,201.0,101,1,1943.6000000238419,165318.20000004768,7792,jacket,AF,A,164596,164596,163068,163879,163069,165012,164395,164395,165012,1
2,test,1,con,1,m,Tue Apr 21 2026 09:29:35 GMT-0500 (Central Daylight Time),169477.39999997616,film,900,O,m,m,None,774,575.0,199.0,90,1,2212.1999999284744,167265.20000004768,7792,film,AF,A,166645,166645,165015,165930,165016,167227,166446,166446,167227,2
3,test,1,con,1,m,Tue Apr 21 2026 09:29:35 GMT-0500 (Central Daylight Time),171676.5,remote,900,O,m,m,None,760,559.0,201.0,114,1,2195.6999999284744,169480.80000007153,7792,remote,AF,A,168861,168861,167231,168144,167231,169427,168660,168660,169427,3
4,test,1,inc,1,z,Tue Apr 21 2026 09:29:35 GMT-0500 (Central Daylight Time),173593.39999997616,jacket,800,O,z,z,None,578,379.0,199.0,29,1,1913.0999999046326,171680.30000007153,7792,friend,AF,A,170961,170961,169430,170244,169431,171343,170761,170761,171343,4
5,test,1,inc,1,m,Tue Apr 21 2026 09:29:35 GMT-0500 (Central Daylight Time),175543.30000007153,elated,800,O,m,m,None,606,407.0,199.0,117,1,1946.9000000953674,173596.39999997616,7792,remote,AF,A,172877,172877,171346,172160,171347,173293,172677,172677,173293,5
6,test,1,inc,1,m,Tue Apr 21 2026 09:29:35 GMT-0500 (Central Daylight Time),177658.10000002384,kind,900,O,m,m,None,669,454.0,215.0,70,1,2111.600000023842,175546.5,7792,step,AF,A,174942,174942,173297,174210,173297,175408,174727,174727,175408,6
7,test,1,con,1,m,Tue Apr 21 2026 09:29:35 GMT-0500 (Central Daylight Time),179974.20000004768,step,1100,O,m,m,None,698,483.0,215.0,68,1,2313.0,177661.20000004768,7792,step,AF,A,177241,177241,175411,176524,175411,177724,177026,177026,177724,7
8,test,1,inc,1,m,Tue Apr 21 2026 09:29:35 GMT-0500 (Central Daylight Time),182274.0,hate,1100,O,m,m,None,668,453.0,215.0,72,1,2296.6999999284744,179977.30000007153,7792,step,AF,A,179559,179559,177727,178841,177728,180024,179344,179344,180024,8
9,test,1,inc,1,z,Tue Apr 21 2026 09:29:35 GMT-0500 (Central Daylight Time),184257.5,napkin,900,O,z,z,None,536,321.0,215.0,6,1,1980.2999999523163,182277.20000004768,7792,elated,AF,A,181675,181675,180027,180943,180027,182008,181460,181460,182008,9
10,test,1,inc,1,m,Tue Apr 21 2026 09:29:35 GMT-0500 (Central Daylight Time),186390.10000002384,temper,1000,O,m,m,None,585,383.0,202.0,103,1,2129.399999976158,184260.70000004768,7792,jacket,AF,A,183741,183741,182011,183024,182011,184140,183539,183539,184140,10
11,test,1,inc,1,z,Tue Apr 21 2026 09:29:35 GMT-0500 (Central Daylight Time),188439.70000004768,jacket,800,O,z,z,None,709,501.0,208.0,37,1,2045.0,186394.70000004768,7792,brutal,AF,A,185688,185688,184145,184956,184145,186190,185480,185480,186190,11
12,test,1,inc,1,m,Tue Apr 21 2026 09:29:35 GMT-0500 (Central Daylight Time),190407.10000002384,rage,800,O,m,m,None,615,399.0,216.0,93,1,1963.2999999523163,188443.80000007153,7792,film,AF,A,187741,187741,186194,187007,186194,188157,187525,187525,188157,12
13,test,1,inc,1,z,Tue Apr 21 2026 09:29:35 GMT-0500 (Central Daylight Time),192437.39999997616,napkin,900,O,z,z,None,606,407.0,199.0,62,1,2026.6999999284744,190410.70000004768,7792,temper,AF,A,189773,189773,188161,189072,188161,190187,189573,189573,190187,13
14,test,1,con,1,m,Tue Apr 21 2026 09:29:35 GMT-0500 (Central Daylight Time),194521.70000004768,window,900,O,m,m,None,640,437.0,203.0,122,1,2080.600000023842,192441.10000002384,7792,window,AF,A,191824,191824,190191,191106,190192,192272,191620,191620,192272,14
15,test,1,inc,1,z,Tue Apr 21 2026 09:29:35 GMT-0500 (Central Daylight Time),196753.0,bell,1000,O,z,z,None,711,512.0,199.0,47,1,2226.2999999523163,194526.70000004768,7792,hate,AF,A,193988,193988,192277,193287,192277,194503,193789,193789,194503,15
16,test,1,con,1,z,Tue Apr 21 2026 09:29:35 GMT-0500 (Central Daylight Time),199169.80000007153,rage,1100,O,z,z,None,773,572.0,201.0,52,1,2411.3000000715256,196758.5,7792,rage,AF,A,196337,196337,194509,195621,194509,196920,196136,196136,196920,16
17,test,1,inc,1,z,Tue Apr 21 2026 09:29:35 GMT-0500 (Central Daylight Time),201235.0,rock,900,O,z,z,None,627,412.0,215.0,14,1,2060.399999976158,199174.60000002384,7792,kind,AF,A,198569,198569,196925,197838,196925,198985,198353,198353,198985,17
18,test,1,inc,1,z,Tue Apr 21 2026 09:29:35 GMT-0500 (Central Daylight Time),203318.30000007153,napkin,900,O,z,z,None,649,448.0,201.0,38,1,2078.2000000476837,201240.10000002384,7792,brutal,AF,A,200620,200620,198990,199903,198990,201068,200419,200419,201068,18
19,test,1,inc,1,z,Tue Apr 21 2026 09:29:35 GMT-0500 (Central Daylight Time),205401.60000002384,step,800,O,z,z,None,765,566.0,199.0,21,1,2079.7999999523163,203321.80000007153,7792,love,AF,A,202585,202585,201072,201884,201072,203152,202386,202386,203152,19
20,test,1,inc,1,z,Tue Apr 21 2026 09:29:35 GMT-0500 (Central Daylight Time),207366.10000002384,jacket,800,O,z,z,None,631,432.0,199.0,5,1,1958.3999999761581,205407.70000004768,7792,elated,AF,A,204668,204668,203158,203967,203158,205116,204469,204469,205116,20
21,test,1,inc,1,z,Tue Apr 21 2026 09:29:35 GMT-0500 (Central Daylight Time),209517.39999997616,rock,900,O,z,z,None,701,499.0,202.0,54,1,2147.2999999523163,207370.10000002384,7792,rage,AF,A,206753,206753,205120,206034,205120,207267,206550,206550,207267,21
22,test,1,inc,1,z,Tue Apr 21 2026 09:29:35 GMT-0500 (Central Daylight Time),211433.80000007153,step,800,O,z,z,None,573,372.0,201.0,53,1,1910.8000000715256,209523.0,7792,rage,AF,A,208800,208800,207273,208083,207273,209184,208599,208599,209184,22
23,test,1,inc,1,m,Tue Apr 21 2026 09:29:35 GMT-0500 (Central Daylight Time),213498.5,brutal,900,O,m,m,None,623,423.0,200.0,126,1,2059.2999999523163,211439.20000004768,7792,window,AF,A,210814,210814,209189,210100,209189,211249,210614,210614,211249,23
24,test,1,con,1,m,Tue Apr 21 2026 09:29:35 GMT-0500 (Central Daylight Time),215481.70000004768,napkin,900,O,m,m,None,546,331.0,215.0,106,1,1978.7000000476837,213503.0,7792,napkin,AF,A,212900,212900,211253,212167,211253,213232,212684,212684,213232,24
25,test,1,inc,1,m,Tue Apr 21 2026 09:29:35 GMT-0500 (Central Daylight Time),217481.20000004768,rage,800,O,m,m,None,657,456.0,201.0,69,1,1992.8999999761581,215488.30000007153,7792,step,AF,A,214765,214765,213238,214048,213239,215231,214564,214564,215231,25
26,test,1,con,1,z,Tue Apr 21 2026 09:29:35 GMT-0500 (Central Daylight Time),219347.39999997616,elated,800,O,z,z,None,520,321.0,199.0,1,1,1861.8999999761581,217485.5,7792,elated,AF,A,216764,216764,215236,216048,215236,217097,216564,216564,217097,26
27,test,1,con,1,m,Tue Apr 21 2026 09:29:35 GMT-0500 (Central Daylight Time),221264.5,window,800,O,m,m,None,569,368.0,201.0,121,1,1913.1000000238419,219351.39999997616,7792,window,AF,A,218629,218629,217101,217914,217102,219015,218428,218428,219015,27
28,test,1,con,1,z,Tue Apr 21 2026 09:29:35 GMT-0500 (Central Daylight Time),223478.20000004768,brutal,1100,O,z,z,None,567,367.0,200.0,36,1,2208.5,221269.70000004768,7792,brutal,AF,A,220846,220846,219020,220129,219020,221228,220645,220646,221228,28
29,test,1,inc,1,m,Tue Apr 21 2026 09:29:35 GMT-0500 (Central Daylight Time),225628.60000002384,temper,1000,O,m,m,None,603,403.0,200.0,111,1,2145.2999999523163,223483.30000007153,7792,napkin,AF,A,222963,222963,221233,222245,221234,223379,222762,222762,223378,29
29,test,1,con,0,m,Tue Apr 21 2026 09:29:35 GMT-0500 (Central Daylight Time),227527.30000007153,bell,800,O,z,z,None,565,366.0,199.0,81,1,1894.2000000476837,225633.10000002384,7792,bell,AF,A,224911,224911,223383,224194,223383,225277,224711,224711,225277,30
30,test,1,con,1,m,Tue Apr 21 2026 09:29:35 GMT-0500 (Central Daylight Time),229709.70000004768,napkin,1100,O,m,m,None,542,342.0,200.0,108,1,2176.2000000476837,227533.5,7792,napkin,AF,A,227110,227110,225284,226393,225284,227460,226910,226910,227460,31
31,test,1,inc,1,m,Tue Apr 21 2026 09:29:35 GMT-0500 (Central Daylight Time),232042.0,friend,1100,O,m,m,None,688,488.0,200.0,128,1,2328.399999976158,229713.60000002384,7792,window,AF,A,229293,229293,227464,228576,227464,229792,229093,229093,229792,32
32,test,1,con,1,m,Tue Apr 21 2026 09:29:35 GMT-0500 (Central Daylight Time),233976.0,jacket,800,O,m,m,None,599,399.0,200.0,97,1,1923.1999999284744,232052.80000007153,7792,jacket,AF,A,231326,231326,229803,230609,229803,231726,231125,231125,231726,33
33,test,1,con,1,m,Tue Apr 21 2026 09:29:35 GMT-0500 (Central Daylight Time),236441.80000007153,remote,800,O,m,m,None,1138,939.0,199.0,113,1,2459.0,233982.80000007153,7792,remote,AF,A,233241,233241,231733,232541,231733,234192,233042,233042,234192,34
34,test,1,con,1,z,Tue Apr 21 2026 09:29:35 GMT-0500 (Central Daylight Time),238624.10000002384,elated,1100,O,z,z,None,531,315.0,216.0,4,1,2176.2999999523163,236447.80000007153,7792,elated,AF,A,236042,236042,234198,235307,234198,236374,235825,235825,236374,35
35,test,1,inc,1,m,Tue Apr 21 2026 09:29:35 GMT-0500 (Central Daylight Time),240823.20000004768,friend,1100,O,m,m,None,557,356.0,201.0,104,1,2193.5,238629.70000004768,7792,jacket,AF,A,238209,238209,236380,237491,236380,238573,238007,238007,238573,36
36,test,1,inc,1,m,Tue Apr 21 2026 09:29:35 GMT-0500 (Central Daylight Time),243171.39999997616,love,1000,O,m,m,None,802,603.0,199.0,87,1,2342.1999999284744,240829.20000004768,7792,bell,AF,A,240306,240306,238579,239589,238579,240921,240106,240106,240921,37
37,test,1,con,1,m,Tue Apr 21 2026 09:29:35 GMT-0500 (Central Daylight Time),245287.89999997616,bell,1100,O,m,m,None,496,282.0,214.0,84,1,2110.399999976158,243177.5,7792,bell,AF,A,242755,242755,240927,242038,240928,243038,242540,242540,243038,38
38,test,1,inc,1,z,Tue Apr 21 2026 09:29:35 GMT-0500 (Central Daylight Time),247620.20000004768,window,1100,O,z,z,None,686,486.0,200.0,32,1,2325.399999976158,245294.80000007153,7792,friend,AF,A,244871,244871,243045,244155,243045,245370,244671,244671,245370,39
39,test,1,con,1,z,Tue Apr 21 2026 09:29:35 GMT-0500 (Central Daylight Time),249835.10000002384,love,1100,O,z,z,None,568,368.0,200.0,20,1,2209.0,247626.10000002384,7792,love,AF,A,247204,247204,245376,246487,245376,247585,247004,247004,247585,40
40,test,1,con,1,z,Tue Apr 21 2026 09:29:35 GMT-0500 (Central Daylight Time),252085.60000002384,hate,1100,O,z,z,None,600,401.0,199.0,44,1,2247.399999976158,249838.20000004768,7792,hate,AF,A,249420,249420,247588,248703,247588,249836,249221,249221,249836,41
41,test,1,con,1,m,Tue Apr 21 2026 09:29:35 GMT-0500 (Central Daylight Time),254118.30000007153,step,800,O,m,m,None,691,475.0,216.0,65,1,2026.8000000715256,252091.5,7792,step,AF,A,251386,251386,249842,250654,249842,251868,251170,251170,251868,42
42,test,1,inc,1,z,Tue Apr 21 2026 09:29:35 GMT-0500 (Central Daylight Time),256200.10000002384,remote,1000,O,z,z,None,546,347.0,199.0,7,1,2075.7999999523163,254124.30000007153,7792,elated,AF,A,253602,253602,251874,252886,251875,253950,253402,253402,253950,43
43,test,1,con,1,z,Tue Apr 21 2026 09:29:35 GMT-0500 (Central Daylight Time),258504.39999997616,rage,1000,O,z,z,None,766,553.0,213.0,51,1,2301.6999999284744,256202.70000004768,7792,rage,AF,A,255685,255685,253953,254968,253953,256255,255472,255472,256254,44
44,test,1,inc,1,m,Tue Apr 21 2026 09:29:35 GMT-0500 (Central Daylight Time),260482.80000007153,brutal,900,O,m,m,None,544,344.0,200.0,110,1,1973.9000000953674,258508.89999997616,7792,napkin,AF,A,257885,257885,256259,257167,256259,258233,257684,257684,258233,45
45,test,1,con,1,z,Tue Apr 21 2026 09:29:35 GMT-0500 (Central Daylight Time),262749.39999997616,friend,1000,O,z,z,None,725,526.0,199.0,27,1,2262.899999976158,260486.5,7792,friend,AF,A,259967,259967,258237,259250,258237,260499,259767,259767,260499,46
46,test,1,inc,1,z,Tue Apr 21 2026 09:29:35 GMT-0500 (Central Daylight Time),265116.2000000477,window,1100,O,z,z,None,728,528.0,200.0,40,1,2361.3000000715256,262754.89999997616,7792,brutal,AF,A,262333,262333,260505,261616,260505,262866,262133,262133,262866,47
47,test,1,inc,1,z,Tue Apr 21 2026 09:29:35 GMT-0500 (Central Daylight Time),267714.2000000477,remote,1000,O,z,z,None,1049,849.0,200.0,63,1,2594.5,265119.7000000477,7792,temper,AF,A,264599,264599,262870,263882,262870,265464,264398,264398,265464,48
48,test,1,con,1,z,Tue Apr 21 2026 09:29:35 GMT-0500 (Central Daylight Time),269847.10000002384,brutal,1000,O,z,z,None,598,399.0,199.0,35,1,2128.0,267719.10000002384,7792,brutal,AF,A,267198,267198,265469,266481,265469,267597,266998,266998,267597,49
49,test,1,con,1,z,Tue Apr 21 2026 09:29:35 GMT-0500 (Central Daylight Time),271963.10000002384,kind,1000,O,z,z,None,570,353.0,217.0,11,1,2111.100000023842,269852.0,7792,kind,AF,A,269348,269348,267602,268615,267602,269713,269131,269131,269713,50
50,test,1,con,1,z,Tue Apr 21 2026 09:29:35 GMT-0500 (Central Daylight Time),273979.8000000715,rage,900,O,z,z,None,570,369.0,201.0,50,1,2012.2000000476837,271967.60000002384,7792,rage,AF,A,271347,271348,269718,270630,269718,271730,271146,271146,271730,51
51,test,1,con,1,m,Tue Apr 21 2026 09:29:35 GMT-0500 (Central Daylight Time),276328.7000000477,remote,1000,O,m,m,None,806,607.0,199.0,115,1,2344.2000000476837,273984.5,7792,remote,AF,A,273463,273463,271735,272746,271735,274079,273263,273263,274079,52
52,test,1,inc,1,m,Tue Apr 21 2026 09:29:35 GMT-0500 (Central Daylight Time),278512.3000000715,kind,900,O,m,m,None,740,540.0,200.0,78,1,2178.0,276334.3000000715,7792,rock,AF,A,275713,275713,274084,274996,274085,276262,275512,275512,276262,53
53,test,1,inc,1,m,Tue Apr 21 2026 09:29:35 GMT-0500 (Central Daylight Time),280744.0,kind,900,O,m,m,None,783,582.0,201.0,94,1,2228.5,278515.5,7792,film,AF,A,277895,277895,276265,277178,276266,278494,277694,277694,278494,54
54,test,1,con,1,z,Tue Apr 21 2026 09:29:35 GMT-0500 (Central Daylight Time),282810.3000000715,kind,900,O,z,z,None,624,412.0,212.0,10,1,2061.600000023842,280748.7000000477,7792,kind,AF,A,280145,280145,278499,279410,278499,280560,279929,279933,280560,55
55,test,1,con,1,m,Tue Apr 21 2026 09:29:35 GMT-0500 (Central Daylight Time),285292.10000002384,window,1100,O,m,m,None,834,634.0,200.0,124,1,2478.2000000476837,282813.89999997616,7792,window,AF,A,282394,282394,280564,281677,280564,283042,282193,282193,283042,56
56,test,1,inc,1,m,Tue Apr 21 2026 09:29:35 GMT-0500 (Central Daylight Time),287541.5,hate,1100,O,m,m,None,610,411.0,199.0,88,1,2244.399999976158,285297.10000002384,7792,bell,AF,A,284875,284875,283047,284159,283047,285292,284676,284676,285291,57
57,test,1,inc,1,z,Tue Apr 21 2026 09:29:35 GMT-0500 (Central Daylight Time),289690.60000002384,remote,1000,O,z,z,None,611,412.0,199.0,31,1,2145.2999999523163,287545.3000000715,7792,friend,AF,A,287024,287025,285295,286309,285296,287441,286825,286825,287441,58
58,test,1,inc,1,m,Tue Apr 21 2026 09:29:35 GMT-0500 (Central Daylight Time),291606.3000000715,elated,800,O,m,m,None,582,382.0,200.0,125,1,1910.5,289695.8000000715,7792,window,AF,A,288958,288958,287446,288256,287446,289356,288757,288757,289356,59
59,test,1,inc,1,m,Tue Apr 21 2026 09:29:35 GMT-0500 (Central Daylight Time),293572.0,rage,800,O,m,m,None,616,417.0,199.0,77,1,1959.7999999523163,291612.2000000477,7792,rock,AF,A,290891,290891,289362,290175,289362,291322,290691,290691,291322,60
60,test,1,inc,1,z,Tue Apr 21 2026 09:29:35 GMT-0500 (Central Daylight Time),295904.7000000477,film,1100,O,z,z,None,687,487.0,200.0,16,1,2326.100000023842,293578.60000002384,7792,kind,AF,A,293157,293158,291329,292440,291329,293655,292957,292957,293655,61
61,test,1,inc,1,z,Tue Apr 21 2026 09:29:35 GMT-0500 (Central Daylight Time),298004.3000000715,rock,900,O,z,z,None,659,459.0,200.0,46,1,2096.100000023842,295908.2000000477,7792,hate,AF,A,295289,295289,293658,294573,293659,295754,295088,295088,295754,62
62,test,1,inc,1,m,Tue Apr 21 2026 09:29:35 GMT-0500 (Central Daylight Time),300253.5,friend,1100,O,m,m,None,623,424.0,199.0,112,1,2246.0,298007.5,7792,napkin,AF,A,297572,297572,295758,296871,295758,298004,297372,297372,298004,63
63,test,1,con,1,m,Tue Apr 21 2026 09:29:35 GMT-0500 (Central Daylight Time),302587.8000000715,step,1000,O,m,m,None,794,595.0,199.0,67,1,2330.9000000953674,300256.89999997616,7792,step,AF,A,299737,299737,298007,299022,298007,300338,299537,299537,300338,64
64,test,1,inc,1,z,Tue Apr 21 2026 09:29:35 GMT-0500 (Central Daylight Time),304469.60000002384,step,800,O,z,z,None,559,360.0,199.0,13,1,1879.1000000238419,302590.5,7792,kind,AF,A,301853,301853,300341,301153,300341,302220,301654,301654,302220,65
65,test,1,inc,1,z,Tue Apr 21 2026 09:29:35 GMT-0500 (Central Daylight Time),306769.39999997616,jacket,800,O,z,z,None,977,767.0,210.0,61,1,2295.0999999046326,304474.3000000715,7792,temper,AF,A,303752,303752,302224,303036,302225,304519,303542,303542,304519,66
66,test,1,con,1,m,Tue Apr 21 2026 09:29:35 GMT-0500 (Central Daylight Time),308736.0,napkin,800,O,m,m,None,618,419.0,199.0,105,1,1960.8999999761581,306775.10000002384,7792,napkin,AF,A,306052,306052,304525,305337,304525,306486,305852,305852,306486,67
67,test,1,inc,1,m,Tue Apr 21 2026 09:29:35 GMT-0500 (Central Daylight Time),310934.60000002384,love,1000,O,m,m,None,661,462.0,199.0,95,1,2192.5,308742.10000002384,7792,film,AF,A,308216,308216,306492,307501,306492,308685,308017,308017,308685,68
68,test,1,con,1,z,Tue Apr 21 2026 09:29:35 GMT-0500 (Central Daylight Time),312900.3000000715,rage,800,O,z,z,None,619,418.0,201.0,49,1,1959.3000000715256,310941.0,7792,rage,AF,A,310219,310219,308691,309502,308691,310651,310017,310017,310650,69
69,test,1,con,1,z,Tue Apr 21 2026 09:29:35 GMT-0500 (Central Daylight Time),315115.3000000715,kind,1100,O,z,z,None,569,354.0,215.0,12,1,2210.4000000953674,312904.89999997616,7792,kind,AF,A,312500,312500,310655,311766,310655,312865,312284,312285,312865,70
70,test,1,con,1,m,Tue Apr 21 2026 09:29:35 GMT-0500 (Central Daylight Time),317315.7000000477,rock,1100,O,m,m,None,561,362.0,199.0,76,1,2196.8000000715256,315118.89999997616,7792,rock,AF,A,314699,314699,312869,313983,312869,315066,314499,314499,315066,71
71,test,1,inc,1,z,Tue Apr 21 2026 09:29:35 GMT-0500 (Central Daylight Time),319348.10000002384,napkin,900,O,z,z,None,594,393.0,201.0,30,1,2028.7000000476837,317319.39999997616,7792,friend,AF,A,316699,316699,315069,315983,315070,317098,316498,316498,317098,72
72,test,1,con,1,z,Tue Apr 21 2026 09:29:35 GMT-0500 (Central Daylight Time),321730.7000000477,temper,1000,O,z,z,None,838,622.0,216.0,59,1,2379.899999976158,319350.8000000715,7792,temper,AF,A,318848,318848,317101,318116,317101,319481,318632,318632,319481,73
73,test,1,con,1,m,Tue Apr 21 2026 09:29:35 GMT-0500 (Central Daylight Time),323680.0,step,900,O,m,m,None,506,290.0,216.0,66,1,1944.7999999523163,321735.2000000477,7792,step,AF,A,321131,321131,319485,320398,319486,321430,320915,320915,321430,74
74,test,1,con,1,m,Tue Apr 21 2026 09:29:35 GMT-0500 (Central Daylight Time),325745.10000002384,film,1000,O,m,m,None,528,311.0,217.0,91,1,2061.2999999523163,323683.8000000715,7792,film,AF,A,323181,323181,321434,322448,321434,323495,322964,322964,323495,75
75,test,1,inc,1,z,Tue Apr 21 2026 09:29:35 GMT-0500 (Central Daylight Time),328079.39999997616,window,1100,O,z,z,None,682,483.0,199.0,8,1,2331.399999976158,325748.0,7792,elated,AF,A,325329,325329,323498,324614,323498,325829,325130,325130,325829,76
76,test,1,con,1,m,Tue Apr 21 2026 09:29:35 GMT-0500 (Central Daylight Time),330460.3000000715,remote,1100,O,m,m,None,733,533.0,200.0,116,1,2374.7000000476837,328085.60000002384,7792,remote,AF,A,327662,327663,325836,326953,325836,328210,327462,327462,328210,77
77,test,1,inc,1,m,Tue Apr 21 2026 09:29:35 GMT-0500 (Central Daylight Time),332610.7000000477,temper,1000,O,m,m,None,614,415.0,199.0,119,1,2145.7000000476837,330465.0,7792,remote,AF,A,329943,329943,328215,329228,328215,330361,329744,329744,330361,78
78,test,1,inc,1,m,Tue Apr 21 2026 09:29:35 GMT-0500 (Central Daylight Time),334893.89999997616,hate,1100,O,m,m,None,633,434.0,199.0,96,1,2279.0,332614.89999997616,7792,film,AF,A,332194,332194,330365,331478,330365,332644,331995,331995,332644,79
79,test,1,con,1,m,Tue Apr 21 2026 09:29:35 GMT-0500 (Central Daylight Time),337160.10000002384,film,1100,O,m,m,None,648,448.0,200.0,92,1,2261.5,334898.60000002384,7792,film,AF,A,334460,334460,332649,333759,332649,334910,334260,334260,334910,80
80,test,1,con,1,z,Tue Apr 21 2026 09:29:35 GMT-0500 (Central Daylight Time),339159.89999997616,hate,900,O,z,z,None,567,366.0,201.0,42,1,1996.8999999761581,337163.0,7792,hate,AF,A,336543,336544,334913,335826,334913,336910,336342,336342,336910,81
81,test,1,con,1,m,Tue Apr 21 2026 09:29:35 GMT-0500 (Central Daylight Time),341341.89999997616,rock,1000,O,m,m,None,635,434.0,201.0,75,1,2177.1999999284744,339164.7000000477,7792,rock,AF,A,338642,338642,336915,337927,336915,339092,338441,338441,339092,82
82,test,1,inc,1,m,Tue Apr 21 2026 09:29:35 GMT-0500 (Central Daylight Time),343490.60000002384,love,1000,O,m,m,None,612,397.0,215.0,79,1,2144.2999999523163,341346.3000000715,7792,rock,AF,A,340840,340840,339096,340108,339097,341241,340624,340625,341241,83
83,test,1,con,1,m,Tue Apr 21 2026 09:29:35 GMT-0500 (Central Daylight Time),345605.8000000715,jacket,1000,O,m,m,None,589,374.0,215.0,99,1,2109.8000000715256,343496.0,7792,jacket,AF,A,342974,342975,341246,342257,341246,343356,342759,342759,343356,84
84,test,1,con,1,z,Tue Apr 21 2026 09:29:35 GMT-0500 (Central Daylight Time),347687.60000002384,friend,800,O,z,z,None,732,532.0,200.0,25,1,2075.2999999523163,345612.3000000715,7792,friend,AF,A,344889,344889,343362,344172,343363,345438,344689,344689,345438,85
85,test,1,con,1,m,Tue Apr 21 2026 09:29:35 GMT-0500 (Central Daylight Time),349804.60000002384,bell,900,O,m,m,None,665,452.0,213.0,82,1,2114.100000023842,347690.5,7792,bell,AF,A,347089,347089,345441,346356,345441,347555,346874,346875,347555,86
86,test,1,con,1,m,Tue Apr 21 2026 09:29:35 GMT-0500 (Central Daylight Time),351853.3000000715,rock,900,O,m,m,None,614,399.0,215.0,74,1,2041.9000000953674,349811.39999997616,7792,rock,AF,A,349189,349189,347561,348470,347562,349603,348973,348973,349603,87
87,test,1,inc,1,m,Tue Apr 21 2026 09:29:35 GMT-0500 (Central Daylight Time),353819.89999997616,elated,800,O,m,m,None,627,427.0,200.0,109,1,1961.3999999761581,351858.5,7792,napkin,AF,A,351138,351138,349609,350426,349609,351570,350937,350937,351570,88
88,test,1,inc,1,z,Tue Apr 21 2026 09:29:35 GMT-0500 (Central Daylight Time),355969.3000000715,bell,1000,O,z,z,None,600,400.0,200.0,15,1,2143.0,353826.3000000715,7792,kind,AF,A,353303,353303,351576,352587,351577,353719,353103,353103,353719,89
89,test,1,inc,1,m,Tue Apr 21 2026 09:29:35 GMT-0500 (Central Daylight Time),357936.39999997616,rage,800,O,m,m,None,618,418.0,200.0,85,1,1960.5999999046326,355975.8000000715,7792,bell,AF,A,355252,355253,353726,354536,353726,355686,355052,355052,355686,90
90,test,1,inc,1,m,Tue Apr 21 2026 09:29:35 GMT-0500 (Central Daylight Time),360067.8000000715,brutal,900,O,m,m,None,686,484.0,202.0,102,1,2125.2000000476837,357942.60000002384,7792,jacket,AF,A,357321,357321,355693,356602,355693,357818,357119,357119,357818,91
91,test,1,con,1,z,Tue Apr 21 2026 09:29:35 GMT-0500 (Central Daylight Time),362067.5,hate,800,O,z,z,None,661,460.0,201.0,41,1,1992.1999999284744,360075.3000000715,7792,hate,AF,A,359352,359352,357825,358636,357826,359818,359151,359151,359817,92
92,test,1,inc,1,z,Tue Apr 21 2026 09:29:35 GMT-0500 (Central Daylight Time),364052.3000000715,step,800,O,z,z,None,647,447.0,200.0,45,1,1978.6000000238419,362073.7000000477,7792,hate,AF,A,361351,361351,359824,360634,359824,361802,361151,361151,361802,93
93,test,1,con,1,m,Tue Apr 21 2026 09:29:35 GMT-0500 (Central Daylight Time),366132.2000000477,window,1000,O,m,m,None,531,318.0,213.0,123,1,2075.100000023842,364057.10000002384,7792,window,AF,A,363550,363550,361807,362818,361807,363882,363336,363336,363882,94
94,test,1,inc,1,z,Tue Apr 21 2026 09:29:35 GMT-0500 (Central Daylight Time),368365.2000000477,bell,1000,O,z,z,None,684,484.0,200.0,23,1,2229.100000023842,366136.10000002384,7792,love,AF,A,365617,365617,363886,364899,363886,366115,365416,365416,366115,95
95,test,1,inc,1,m,Tue Apr 21 2026 09:29:35 GMT-0500 (Central Daylight Time),370630.2000000477,hate,1100,O,m,m,None,631,431.0,200.0,80,1,2259.2000000476837,368371.0,7792,rock,AF,A,367948,367949,366121,367232,366121,368380,367748,367748,368380,96
96,test,1,inc,1,m,Tue Apr 21 2026 09:29:35 GMT-0500 (Central Daylight Time),372764.60000002384,brutal,900,O,m,m,None,693,494.0,199.0,118,1,2131.7999999523163,370632.8000000715,7792,remote,AF,A,370015,370015,368383,369298,368383,370515,369816,369816,370515,97
97,test,1,inc,1,z,Tue Apr 21 2026 09:29:35 GMT-0500 (Central Daylight Time),375014.2000000477,film,1100,O,z,z,None,617,417.0,200.0,48,1,2245.5,372768.7000000477,7792,hate,AF,A,372332,372332,370519,371631,370519,372764,372132,372132,372764,98
98,test,1,inc,1,z,Tue Apr 21 2026 09:29:35 GMT-0500 (Central Daylight Time),377280.60000002384,rock,900,O,z,z,None,831,631.0,200.0,22,1,2259.0,375021.60000002384,7792,love,AF,A,374397,374397,372772,373681,372772,375031,374196,374196,375031,99
99,test,1,con,1,z,Tue Apr 21 2026 09:29:35 GMT-0500 (Central Daylight Time),379096.10000002384,love,800,O,z,z,None,481,282.0,199.0,17,1,1812.5,377283.60000002384,7792,love,AF,A,376563,376563,375034,375847,375034,376846,376363,376363,376846,100
100,test,1,inc,1,z,Tue Apr 21 2026 09:29:35 GMT-0500 (Central Daylight Time),381462.2000000477,window,1100,O,z,z,None,716,517.0,199.0,64,1,2362.5,379099.7000000477,7792,temper,AF,A,378680,378680,376850,377963,376850,379212,378480,378480,379212,101
101,test,1,con,1,m,Tue Apr 21 2026 09:29:35 GMT-0500 (Central Daylight Time),383460.3000000715,napkin,1000,O,m,m,None,467,250.0,217.0,107,1,1993.5,381466.8000000715,7792,napkin,AF,A,380947,380947,379217,380229,379217,381210,380730,380730,381210,102
102,test,1,con,1,m,Tue Apr 21 2026 09:29:35 GMT-0500 (Central Daylight Time),385393.39999997616,rock,800,O,m,m,None,589,389.0,200.0,73,1,1928.0999999046326,383465.3000000715,7792,rock,AF,A,382745,382745,381215,382028,381216,383144,382544,382544,383143,103
103,test,1,con,1,m,Tue Apr 21 2026 09:29:35 GMT-0500 (Central Daylight Time),387327.60000002384,jacket,900,O,m,m,None,499,299.0,200.0,98,1,1930.2999999523163,385397.3000000715,7792,jacket,AF,A,384778,384778,383147,384060,383148,385078,384577,384577,385078,104
104,test,1,con,1,z,Tue Apr 21 2026 09:29:35 GMT-0500 (Central Daylight Time),389442.2000000477,friend,1100,O,z,z,None,472,272.0,200.0,28,1,2109.2000000476837,387333.0,7792,friend,AF,A,386910,386910,385083,386194,385083,387192,386710,386710,387192,105
105,test,1,con,1,z,Tue Apr 21 2026 09:29:35 GMT-0500 (Central Daylight Time),391392.0,friend,900,O,z,z,None,523,324.0,199.0,26,1,1945.8999999761581,389446.10000002384,7792,friend,AF,A,388809,388810,387196,388109,387196,389142,388610,388610,389142,106
106,test,1,con,1,z,Tue Apr 21 2026 09:29:35 GMT-0500 (Central Daylight Time),393408.0,love,900,O,z,z,None,590,375.0,215.0,18,1,2012.0,391396.0,7792,love,AF,A,390774,390774,389146,390058,389146,391158,390559,390559,391158,107
107,test,1,con,1,m,Tue Apr 21 2026 09:29:35 GMT-0500 (Central Daylight Time),395590.7000000477,jacket,1100,O,m,m,None,542,343.0,199.0,100,1,2179.399999976158,393411.3000000715,7792,jacket,AF,A,392991,392991,391161,392275,391162,393341,392792,392792,393341,108
108,test,1,con,1,z,Tue Apr 21 2026 09:29:35 GMT-0500 (Central Daylight Time),397972.60000002384,hate,1000,O,z,z,None,844,644.0,200.0,43,1,2377.399999976158,395595.2000000477,7792,hate,AF,A,395074,395074,393345,394358,393345,395723,394873,394873,395723,109
108,test,1,con,0,z,Tue Apr 21 2026 09:29:35 GMT-0500 (Central Daylight Time),400092.5,brutal,900,O,m,m,None,682,483.0,199.0,34,1,2114.6999999284744,397977.8000000715,7792,brutal,AF,A,397341,397341,395728,396639,395728,397843,397141,397141,397843,110
109,test,1,con,1,z,Tue Apr 21 2026 09:29:35 GMT-0500 (Central Daylight Time),402055.7000000477,temper,800,O,z,z,None,631,432.0,199.0,57,1,1960.2000000476837,400095.5,7792,temper,AF,A,399373,399373,397846,398658,397846,399806,399173,399173,399806,111
110,test,1,con,1,m,Tue Apr 21 2026 09:29:35 GMT-0500 (Central Daylight Time),403904.5,film,800,O,m,m,None,505,305.0,200.0,89,1,1844.0,402060.5,7792,film,AF,A,401339,401340,399811,400622,399811,401655,401139,401139,401654,112
111,test,1,inc,1,m,Tue Apr 21 2026 09:29:35 GMT-0500 (Central Daylight Time),406152.7000000477,friend,1100,O,m,m,None,603,403.0,200.0,120,1,2244.399999976158,403908.3000000715,7792,remote,AF,A,403489,403489,401658,402772,401659,403903,403288,403288,403903,113
112,test,1,con,1,z,Tue Apr 21 2026 09:29:35 GMT-0500 (Central Daylight Time),408202.0,elated,900,O,z,z,None,602,402.0,200.0,2,1,2046.5,406155.5,7792,elated,AF,A,405538,405538,403906,404822,403906,405952,405337,405337,405952,114
113,test,1,inc,1,m,Tue Apr 21 2026 09:29:35 GMT-0500 (Central Daylight Time),410420.60000002384,temper,1000,O,m,m,None,668,469.0,199.0,127,1,2215.100000023842,408205.5,7792,window,AF,A,407687,407687,405956,406971,405956,408171,407487,407487,408171,115
114,test,1,con,1,m,Tue Apr 21 2026 09:29:35 GMT-0500 (Central Daylight Time),412785.39999997616,bell,1000,O,m,m,None,830,631.0,199.0,83,1,2360.1999999284744,410425.2000000477,7792,bell,AF,A,409902,409902,408175,409187,408175,410535,409703,409703,410535,116
115,test,1,inc,1,m,Tue Apr 21 2026 09:29:35 GMT-0500 (Central Daylight Time),415017.89999997616,love,1000,O,m,m,None,683,483.0,200.0,71,1,2226.399999976158,412791.5,7792,step,AF,A,412268,412268,410542,411552,410542,412768,412068,412068,412768,117
116,test,1,con,1,z,Tue Apr 21 2026 09:29:35 GMT-0500 (Central Daylight Time),416818.0,brutal,800,O,z,z,None,466,266.0,200.0,33,1,1795.1999999284744,415022.8000000715,7792,brutal,AF,A,414302,414302,412773,413585,412773,414568,414102,414102,414568,118
117,test,1,inc,1,z,Tue Apr 21 2026 09:29:35 GMT-0500 (Central Daylight Time),419181.8000000715,film,1100,O,z,z,None,740,540.0,200.0,56,1,2359.100000023842,416822.7000000477,7792,rage,AF,A,416384,416384,414573,415683,414573,416932,416184,416184,416932,119
118,test,1,con,1,z,Tue Apr 21 2026 09:29:35 GMT-0500 (Central Daylight Time),421298.89999997616,kind,800,O,z,z,None,795,596.0,199.0,9,1,2114.5,419184.39999997616,7792,kind,AF,A,418449,418449,416934,417749,416935,419049,418250,418250,419049,120
119,test,1,con,1,z,Tue Apr 21 2026 09:29:35 GMT-0500 (Central Daylight Time),423432.0,temper,900,O,z,z,None,701,501.0,200.0,58,1,2129.0,421303.0,7792,temper,AF,A,420681,420681,419053,419967,419053,421182,420481,420481,421182,121
120,test,1,con,1,z,Tue Apr 21 2026 09:29:35 GMT-0500 (Central Daylight Time),425681.10000002384,love,1000,O,z,z,None,699,484.0,215.0,19,1,2244.600000023842,423436.5,7792,love,AF,A,422931,422931,421187,422198,421187,423431,422716,422716,423431,122
121,test,1,inc,1,z,Tue Apr 21 2026 09:29:35 GMT-0500 (Central Daylight Time),427847.60000002384,bell,1000,O,z,z,None,626,426.0,200.0,55,1,2160.7999999523163,425686.8000000715,7792,rage,AF,A,425163,425163,423437,424447,423437,425598,424963,424963,425598,123
122,test,1,con,1,z,Tue Apr 21 2026 09:29:35 GMT-0500 (Central Daylight Time),429963.3000000715,elated,1000,O,z,z,None,571,370.0,201.0,3,1,2110.100000023842,427853.2000000477,7792,elated,AF,A,427331,427331,425603,426614,425604,427713,427129,427129,427713,124
123,test,1,inc,1,z,Tue Apr 21 2026 09:29:35 GMT-0500 (Central Daylight Time),432162.2000000477,remote,1000,O,z,z,None,656,454.0,202.0,39,1,2191.899999976158,429970.3000000715,7792,brutal,AF,A,429447,429447,427720,428729,427720,429912,429244,429244,429912,125
124,test,1,inc,1,z,Tue Apr 21 2026 09:29:35 GMT-0500 (Central Daylight Time),434412.5,film,1100,O,z,z,None,603,404.0,199.0,24,1,2246.7999999523163,432165.7000000477,7792,love,AF,A,431745,431745,429916,431029,429916,432163,431546,431546,432163,126
125,test,1,inc,1,m,Tue Apr 21 2026 09:29:35 GMT-0500 (Central Daylight Time),436611.2000000477,kind,900,O,m,m,None,754,555.0,199.0,86,1,2192.5,434418.7000000477,7792,bell,AF,A,433795,433795,432169,433079,432169,434361,433596,433596,434361,127
126,test,1,con,1,z,Tue Apr 21 2026 09:29:35 GMT-0500 (Central Daylight Time),438893.89999997616,temper,1100,O,z,z,None,635,436.0,199.0,60,1,2277.399999976158,436616.5,7792,temper,AF,A,436193,436193,434367,435478,434367,436644,435994,435994,436644,128
