acc_sum,block,block_c,condition,correct,correct_response,datetime,endtime,flanker,jitter,project,response,response_test_buffer_response,response_test_target_response,response_time,response_time_test_buffer_response,response_time_test_target_response,row_sel,session_number,start_end,starttime,subject_id,target,task,task_vers,time_test_buffer,time_test_buffer_response,time_test_constants,time_test_flanker,time_test_jitter,time_test_logger,time_test_target,time_test_target_response,time_test_variables,trial
0,prac,1,inc,0,z,Fri Mar 20 2026 10:39:41 GMT-0500 (Central Daylight Time),158179.39999997616,iron,900,I,m,,,1756,,,6,1,3962.2000000476837,154217.19999992847,7774,pear,NF,C,,,,,,,,,,1
0,prac,1,inc,0,z,Fri Mar 20 2026 10:39:41 GMT-0500 (Central Daylight Time),163342.19999992847,lead,1100,I,None,,,1808,,,8,1,5157.600000023842,158184.59999990463,7774,plum,NF,C,,,,,,,,,,2
0,prac,1,inc,0,z,Fri Mar 20 2026 10:39:41 GMT-0500 (Central Daylight Time),166158.69999992847,cobalt,1100,I,m,,,418,,,4,1,2811.5,163347.19999992847,7774,raisin,NF,C,,,,,,,,,,3
1,prac,1,con,1,m,Fri Mar 20 2026 10:39:41 GMT-0500 (Central Daylight Time),168575.19999992847,gold,800,I,m,,,309,,,13,1,2409.100000023842,166166.09999990463,7774,gold,NF,C,,,,,,,,,,4
2,prac,1,con,1,z,Fri Mar 20 2026 10:39:41 GMT-0500 (Central Daylight Time),171141.0,lime,800,I,z,,,463,,,5,1,2558.8000000715256,168582.19999992847,7774,lime,NF,C,,,,,,,,,,5
2,prac,1,inc,0,z,Fri Mar 20 2026 10:39:41 GMT-0500 (Central Daylight Time),173489.79999995232,copper,900,I,m,,,149,,,2,1,2341.2000000476837,171148.59999990463,7774,cherry,NF,C,,,,,,,,,,6
3,prac,1,inc,1,m,Fri Mar 20 2026 10:39:41 GMT-0500 (Central Daylight Time),176504.09999990463,raisin,1100,I,m,,,607,,,12,1,3007.7999999523163,173496.29999995232,7774,cobalt,NF,C,,,,,,,,,,7
4,prac,1,inc,1,m,Fri Mar 20 2026 10:39:41 GMT-0500 (Central Daylight Time),179304.39999997616,cherry,900,I,m,,,591,,,10,1,2795.3000000715256,176509.09999990463,7774,copper,NF,C,,,,,,,,,,8
5,prac,1,con,1,m,Fri Mar 20 2026 10:39:41 GMT-0500 (Central Daylight Time),182137.29999995232,zinc,1000,I,m,,,534,,,15,1,2827.7000000476837,179309.59999990463,7774,zinc,NF,C,,,,,,,,,,9
6,prac,1,con,1,m,Fri Mar 20 2026 10:39:41 GMT-0500 (Central Daylight Time),184653.19999992847,silver,1000,I,m,,,227,,,11,1,2508.0,182145.19999992847,7774,silver,NF,C,,,,,,,,,,10
7,prac,1,con,1,m,Fri Mar 20 2026 10:39:41 GMT-0500 (Central Daylight Time),187383.59999990463,bronze,800,I,m,,,624,,,9,1,2722.899999976158,184660.69999992847,7774,bronze,NF,C,,,,,,,,,,11
8,prac,1,inc,1,m,Fri Mar 20 2026 10:39:41 GMT-0500 (Central Daylight Time),191284.39999997616,plum,1100,I,m,,,1514,,,16,1,3897.5,187386.89999997616,7774,lead,NF,C,,,,,,,,,,12
9,prac,1,con,1,z,Fri Mar 20 2026 10:39:41 GMT-0500 (Central Daylight Time),194099.89999997616,orange,1000,I,z,,,528,,,3,1,2808.399999976158,191291.5,7774,orange,NF,C,,,,,,,,,,13
9,prac,1,inc,0,m,Fri Mar 20 2026 10:39:41 GMT-0500 (Central Daylight Time),196398.89999997616,pear,900,I,z,,,86,,,14,1,2291.399999976158,194107.5,7774,iron,NF,C,,,,,,,,,,14
9,prac,1,con,0,z,Fri Mar 20 2026 10:39:41 GMT-0500 (Central Daylight Time),199064.5,kiwi,1000,I,m,,,373,,,7,1,2658.3000000715256,196406.19999992847,7774,kiwi,NF,C,,,,,,,,,,15
10,prac,1,con,1,z,Fri Mar 20 2026 10:39:41 GMT-0500 (Central Daylight Time),201780.29999995232,banana,800,I,z,,,612,,,1,1,2708.399999976158,199071.89999997616,7774,banana,NF,C,,,,,,,,,,16
1,test,1,inc,1,z,Fri Mar 20 2026 10:39:41 GMT-0500 (Central Daylight Time),228403.79999995232,copper,900,I,z,z,None,1143,929.0,214.0,14,1,2574.899999976158,225828.89999997616,7774,cherry,NF,C,220500,220500,218857,219768,218857,221432,220286,220286,221432,1
2,test,1,inc,1,z,Fri Mar 20 2026 10:39:41 GMT-0500 (Central Daylight Time),230271.29999995232,bronze,800,I,z,z,None,543,344.0,199.0,13,1,1864.2000000476837,228407.09999990463,7774,cherry,NF,C,222951,222951,221435,222237,221435,223299,222751,222751,223299,2
3,test,1,con,1,z,Fri Mar 20 2026 10:39:41 GMT-0500 (Central Daylight Time),232388.39999997616,raisin,1000,I,z,z,None,583,383.0,200.0,27,1,2111.3000000715256,230277.09999990463,7774,raisin,NF,C,225033,225033,223305,224318,223305,225416,224833,224833,225416,3
4,test,1,con,1,z,Fri Mar 20 2026 10:39:41 GMT-0500 (Central Daylight Time),234437.59999990463,cherry,1000,I,z,z,None,514,315.0,199.0,11,1,2042.2999999523163,232395.29999995232,7774,cherry,NF,C,227149,227150,225423,226432,225424,227466,226950,226950,227466,4
5,test,1,con,1,z,Fri Mar 20 2026 10:39:41 GMT-0500 (Central Daylight Time),236253.0,plum,800,I,z,z,None,480,281.0,199.0,57,1,1808.7000000476837,234444.29999995232,7774,plum,NF,C,228999,228999,227472,228282,227473,229281,228799,228799,229281,5
5,test,1,con,0,m,Fri Mar 20 2026 10:39:41 GMT-0500 (Central Daylight Time),238185.79999995232,gold,800,I,z,z,None,584,383.0,201.0,97,1,1926.1000000238419,236259.69999992847,7774,gold,NF,C,230815,230815,229288,230098,229288,231214,230613,230613,231214,6
6,test,1,inc,1,m,Fri Mar 20 2026 10:39:41 GMT-0500 (Central Daylight Time),240334.69999992847,plum,1100,I,m,m,None,501,302.0,199.0,120,1,2143.399999976158,238191.29999995232,7774,zinc,NF,C,233048,233048,231219,232331,231220,233363,232849,232849,233363,7
7,test,1,inc,1,m,Fri Mar 20 2026 10:39:41 GMT-0500 (Central Daylight Time),242268.0,cherry,900,I,m,m,None,491,292.0,199.0,70,1,1928.0,240340.0,7774,bronze,NF,C,234995,234995,233368,234281,233368,235296,234796,234796,235296,8
8,test,1,inc,1,m,Fri Mar 20 2026 10:39:41 GMT-0500 (Central Daylight Time),244233.29999995232,cherry,900,I,m,m,None,523,324.0,199.0,94,1,1958.5,242274.79999995232,7774,cobalt,NF,C,236930,236930,235303,236213,235303,237261,236730,236730,237261,9
9,test,1,con,1,z,Fri Mar 20 2026 10:39:41 GMT-0500 (Central Daylight Time),246383.0,cherry,1100,I,z,z,None,512,313.0,199.0,12,1,2146.8000000715256,244236.19999992847,7774,cherry,NF,C,239096,239096,237264,238379,237264,239411,238897,238897,239411,10
10,test,1,inc,1,z,Fri Mar 20 2026 10:39:41 GMT-0500 (Central Daylight Time),248616.29999995232,silver,1000,I,z,z,None,687,487.0,200.0,23,1,2226.899999976158,246389.39999997616,7774,orange,NF,C,241145,241145,239417,240428,239418,241644,240945,240945,241644,11
11,test,1,inc,1,m,Fri Mar 20 2026 10:39:41 GMT-0500 (Central Daylight Time),250682.89999997616,orange,1000,I,m,m,None,535,334.0,201.0,71,1,2062.899999976158,248620.0,7774,bronze,NF,C,243377,243377,241648,242660,241648,243711,243176,243176,243711,12
12,test,1,con,1,m,Fri Mar 20 2026 10:39:41 GMT-0500 (Central Daylight Time),252465.29999995232,iron,800,I,m,m,None,434,232.0,202.0,105,1,1777.0,250688.29999995232,7774,iron,NF,C,245246,245246,243716,244528,243717,245493,245044,245044,245493,13
13,test,1,con,1,z,Fri Mar 20 2026 10:39:41 GMT-0500 (Central Daylight Time),254278.89999997616,banana,900,I,z,z,None,375,161.0,214.0,2,1,1808.2000000476837,252470.69999992847,7774,banana,NF,C,247141,247141,245499,246410,245499,247307,246927,246927,247307,14
14,test,1,inc,1,m,Fri Mar 20 2026 10:39:41 GMT-0500 (Central Daylight Time),256313.0,lime,800,I,m,m,None,699,485.0,214.0,125,1,2030.7000000476837,254282.29999995232,7774,lead,NF,C,248842,248842,247310,248125,247311,249341,248627,248627,249341,15
15,test,1,inc,1,z,Fri Mar 20 2026 10:39:41 GMT-0500 (Central Daylight Time),258395.39999997616,zinc,1000,I,z,z,None,539,324.0,215.0,47,1,2078.7000000476837,256316.69999992847,7774,pear,NF,C,251091,251091,249345,250359,249345,251423,250876,250876,251423,16
16,test,1,inc,1,z,Fri Mar 20 2026 10:39:41 GMT-0500 (Central Daylight Time),260611.29999995232,lead,1100,I,z,z,None,574,359.0,215.0,48,1,2211.600000023842,258399.69999992847,7774,pear,NF,C,253273,253273,251428,252541,251428,253639,253058,253058,253639,17
17,test,1,con,1,z,Fri Mar 20 2026 10:39:41 GMT-0500 (Central Daylight Time),262545.0,kiwi,1000,I,z,z,None,384,180.0,204.0,51,1,1929.2000000476837,260615.79999995232,7774,kiwi,NF,C,255378,255378,253644,254657,253644,255573,255172,255173,255573,18
18,test,1,con,1,m,Fri Mar 20 2026 10:39:41 GMT-0500 (Central Daylight Time),264428.39999997616,zinc,800,I,m,m,None,548,349.0,199.0,113,1,1879.8000000715256,262548.59999990463,7774,zinc,NF,C,257106,257106,255577,256389,255577,257457,256907,256907,257456,19
19,test,1,con,1,z,Fri Mar 20 2026 10:39:41 GMT-0500 (Central Daylight Time),266344.89999997616,orange,800,I,z,z,None,595,378.0,217.0,17,1,1910.6000000238419,264434.2999999523,7774,orange,NF,C,258991,258991,257462,258272,257463,259373,258774,258774,259373,20
20,test,1,con,1,m,Fri Mar 20 2026 10:39:41 GMT-0500 (Central Daylight Time),268244.2999999523,bronze,1000,I,m,m,None,382,183.0,199.0,67,1,1894.7999999523163,266349.5,7774,bronze,NF,C,261089,261089,259378,260388,259378,261272,260889,260889,261272,21
21,test,1,con,1,m,Fri Mar 20 2026 10:39:41 GMT-0500 (Central Daylight Time),270294.2999999523,cobalt,1000,I,m,m,None,516,317.0,199.0,91,1,2045.5,268248.7999999523,7774,cobalt,NF,C,263005,263005,261277,262288,261277,263322,262806,262806,263322,22
22,test,1,inc,1,m,Fri Mar 20 2026 10:39:41 GMT-0500 (Central Daylight Time),272490.1999999285,plum,1100,I,m,m,None,547,333.0,214.0,128,1,2191.5,270298.6999999285,7774,lead,NF,C,265169,265169,263327,264438,263327,265518,264955,264955,265518,23
22,test,1,con,0,z,Fri Mar 20 2026 10:39:41 GMT-0500 (Central Daylight Time),274258.6999999285,banana,800,I,m,m,None,426,211.0,215.0,1,1,1765.3999999761581,272493.2999999523,7774,banana,NF,C,267069,267069,265521,266338,265522,267287,266854,266854,267287,24
23,test,1,inc,1,m,Fri Mar 20 2026 10:39:41 GMT-0500 (Central Daylight Time),276407.39999997616,pear,900,I,m,m,None,725,525.0,200.0,102,1,2145.5,274261.89999997616,7774,gold,NF,C,268905,268905,267290,268203,267290,269435,268704,268704,269435,25
24,test,1,con,1,m,Fri Mar 20 2026 10:39:41 GMT-0500 (Central Daylight Time),278558.39999997616,silver,1100,I,m,m,None,516,301.0,215.0,84,1,2147.0,276411.39999997616,7774,silver,NF,C,271285,271285,269439,270550,269440,271587,271069,271069,271586,26
25,test,1,con,1,z,Fri Mar 20 2026 10:39:41 GMT-0500 (Central Daylight Time),280488.7999999523,plum,1000,I,z,z,None,383,184.0,199.0,59,1,1925.6000000238419,278563.1999999285,7774,plum,NF,C,273318,273319,271591,272601,271591,273517,273119,273119,273517,27
26,test,1,con,1,m,Fri Mar 20 2026 10:39:41 GMT-0500 (Central Daylight Time),282355.39999997616,cobalt,800,I,m,m,None,525,324.0,201.0,89,1,1861.7000000476837,280493.6999999285,7774,cobalt,NF,C,275052,275052,273522,274334,273522,275384,274851,274851,275383,28
27,test,1,inc,1,z,Fri Mar 20 2026 10:39:41 GMT-0500 (Central Daylight Time),284438.2999999523,cobalt,1100,I,z,z,None,453,238.0,215.0,24,1,2079.2000000476837,282359.09999990463,7774,orange,NF,C,277217,277217,275387,276499,275387,277466,277001,277001,277466,29
28,test,1,inc,1,z,Fri Mar 20 2026 10:39:41 GMT-0500 (Central Daylight Time),286620.89999997616,lead,1100,I,z,z,None,540,341.0,199.0,64,1,2178.2000000476837,284442.6999999285,7774,plum,NF,C,279299,279299,277471,278583,277471,279649,279099,279099,279649,30
29,test,1,con,1,m,Fri Mar 20 2026 10:39:41 GMT-0500 (Central Daylight Time),288684.59999990463,lead,900,I,m,m,None,627,412.0,215.0,122,1,2058.899999976158,286625.6999999285,7774,lead,NF,C,281298,281298,279654,280566,279654,281713,281082,281082,281713,31
30,test,1,inc,1,z,Fri Mar 20 2026 10:39:41 GMT-0500 (Central Daylight Time),290735.09999990463,iron,900,I,z,z,None,612,412.0,200.0,38,1,2047.6999999284744,288687.39999997616,7774,lime,NF,C,283348,283348,281715,282631,281716,283763,283148,283148,283763,32
31,test,1,inc,1,z,Fri Mar 20 2026 10:39:41 GMT-0500 (Central Daylight Time),292717.1999999285,gold,800,I,z,z,None,635,436.0,199.0,61,1,1978.6000000238419,290738.59999990463,7774,plum,NF,C,285297,285297,283767,284581,283767,285745,285098,285098,285745,33
32,test,1,con,1,m,Fri Mar 20 2026 10:39:41 GMT-0500 (Central Daylight Time),294634.2999999523,bronze,800,I,m,m,None,575,375.0,200.0,65,1,1914.2999999523163,292720.0,7774,bronze,NF,C,287280,287280,285748,286563,285748,287662,287079,287079,287662,34
32,test,1,inc,0,m,Fri Mar 20 2026 10:39:41 GMT-0500 (Central Daylight Time),296685.39999997616,raisin,1100,I,z,z,None,416,216.0,200.0,80,1,2046.1000000238419,294639.2999999523,7774,copper,NF,C,289497,289497,287667,288779,287668,289713,289296,289296,289713,35
33,test,1,con,1,m,Fri Mar 20 2026 10:39:41 GMT-0500 (Central Daylight Time),298699.6999999285,copper,1100,I,m,m,None,374,175.0,199.0,76,1,2008.6999999284744,296691.0,7774,copper,NF,C,291545,291545,289719,290829,289719,291728,291346,291346,291728,36
34,test,1,con,1,m,Fri Mar 20 2026 10:39:41 GMT-0500 (Central Daylight Time),300465.5,silver,800,I,m,m,None,425,225.0,200.0,81,1,1761.4000000953674,298704.09999990463,7774,silver,NF,C,293262,293262,291732,292545,291732,293494,293062,293062,293494,37
35,test,1,con,1,z,Fri Mar 20 2026 10:39:41 GMT-0500 (Central Daylight Time),302415.09999990463,pear,1000,I,z,z,None,411,212.0,199.0,43,1,1944.7999999523163,300470.2999999523,7774,pear,NF,C,295227,295227,293498,294511,293499,295443,295027,295027,295443,38
36,test,1,con,1,m,Fri Mar 20 2026 10:39:41 GMT-0500 (Central Daylight Time),304614.5,iron,1100,I,m,m,None,569,369.0,200.0,108,1,2194.8000000715256,302419.6999999285,7774,iron,NF,C,297261,297262,295448,296560,295448,297643,297061,297061,297643,39
37,test,1,con,1,z,Fri Mar 20 2026 10:39:41 GMT-0500 (Central Daylight Time),306596.5,lime,1100,I,z,z,None,362,148.0,214.0,36,1,1977.5,304619.0,7774,lime,NF,C,299476,299476,297647,298759,297647,299625,299261,299261,299625,40
38,test,1,inc,1,z,Fri Mar 20 2026 10:39:41 GMT-0500 (Central Daylight Time),308412.6999999285,gold,800,I,z,z,None,473,272.0,201.0,53,1,1810.3999999761581,306602.2999999523,7774,kiwi,NF,C,301160,301160,299630,300442,299631,301441,300959,300959,301441,41
39,test,1,inc,1,m,Fri Mar 20 2026 10:39:41 GMT-0500 (Central Daylight Time),310412.7999999523,cherry,900,I,m,m,None,557,356.0,201.0,78,1,1995.3999999761581,308417.39999997616,7774,copper,NF,C,303075,303075,301445,302359,301446,303441,302874,302874,303441,42
40,test,1,con,1,m,Fri Mar 20 2026 10:39:41 GMT-0500 (Central Daylight Time),312378.89999997616,silver,900,I,m,m,None,525,325.0,200.0,82,1,1962.6000000238419,310416.2999999523,7774,silver,NF,C,305075,305075,303444,304357,303445,305407,304875,304875,305407,43
41,test,1,inc,1,m,Fri Mar 20 2026 10:39:41 GMT-0500 (Central Daylight Time),314544.1999999285,raisin,1100,I,m,m,None,527,326.0,201.0,72,1,2160.899999976158,312383.2999999523,7774,bronze,NF,C,307241,307241,305411,306524,305412,307572,307040,307040,307572,44
42,test,1,inc,1,m,Fri Mar 20 2026 10:39:41 GMT-0500 (Central Daylight Time),316777.39999997616,raisin,1100,I,m,m,None,583,384.0,199.0,96,1,2225.5,314551.89999997616,7774,cobalt,NF,C,309406,309406,307580,308688,307580,309805,309206,309206,309805,45
43,test,1,con,1,m,Fri Mar 20 2026 10:39:41 GMT-0500 (Central Daylight Time),318559.59999990463,lead,800,I,m,m,None,434,219.0,215.0,121,1,1777.0,316782.59999990463,7774,lead,NF,C,311355,311355,309811,310622,309811,311588,311139,311139,311587,46
44,test,1,con,1,m,Fri Mar 20 2026 10:39:41 GMT-0500 (Central Daylight Time),320625.6999999285,zinc,1000,I,m,m,None,526,326.0,200.0,115,1,2054.7999999523163,318570.89999997616,7774,zinc,NF,C,313321,313321,311599,312604,311599,313654,313121,313121,313654,47
44,test,1,con,0,z,Fri Mar 20 2026 10:39:41 GMT-0500 (Central Daylight Time),322675.0,raisin,1100,I,m,m,None,399,198.0,201.0,28,1,2039.3000000715256,320635.6999999285,7774,raisin,NF,C,315489,315489,313664,314771,313664,315703,315287,315287,315703,48
45,test,1,inc,1,z,Fri Mar 20 2026 10:39:41 GMT-0500 (Central Daylight Time),324897.0,zinc,1000,I,z,z,None,672,458.0,214.0,55,1,2214.8000000715256,322682.1999999285,7774,kiwi,NF,C,317453,317453,315710,316720,315711,317925,317238,317238,317925,49
46,test,1,con,1,z,Fri Mar 20 2026 10:39:41 GMT-0500 (Central Daylight Time),326641.39999997616,lime,800,I,z,z,None,408,208.0,200.0,33,1,1741.8000000715256,324899.59999990463,7774,lime,NF,C,319455,319455,317928,318737,317928,319669,319253,319254,319669,50
47,test,1,inc,1,z,Fri Mar 20 2026 10:39:41 GMT-0500 (Central Daylight Time),328557.39999997616,gold,800,I,z,z,None,581,382.0,199.0,37,1,1911.6000000238419,326645.7999999523,7774,lime,NF,C,321201,321201,319674,320485,319674,321585,321002,321002,321585,51
48,test,1,con,1,z,Fri Mar 20 2026 10:39:41 GMT-0500 (Central Daylight Time),330605.89999997616,banana,1100,I,z,z,None,403,204.0,199.0,4,1,2042.8999999761581,328563.0,7774,banana,NF,C,323418,323418,321591,322703,321591,323634,323218,323218,323634,52
49,test,1,con,1,m,Fri Mar 20 2026 10:39:41 GMT-0500 (Central Daylight Time),332605.1999999285,gold,1100,I,m,m,None,356,156.0,200.0,100,1,1992.2999999523163,330612.89999997616,7774,gold,NF,C,325467,325467,323641,324752,323641,325633,325267,325267,325633,53
49,test,1,inc,0,m,Fri Mar 20 2026 10:39:41 GMT-0500 (Central Daylight Time),334355.1999999285,pear,900,I,z,z,None,300,100.0,200.0,126,1,1743.8999999761581,332611.2999999523,7774,lead,NF,C,327268,327268,325639,326551,325639,327383,327067,327067,327383,54
50,test,1,inc,1,m,Fri Mar 20 2026 10:39:41 GMT-0500 (Central Daylight Time),336504.5,orange,1000,I,m,m,None,603,403.0,200.0,79,1,2142.3000000715256,334362.1999999285,7774,copper,NF,C,329116,329116,327390,328400,327390,329533,328916,328916,329533,55
51,test,1,con,1,m,Fri Mar 20 2026 10:39:41 GMT-0500 (Central Daylight Time),338587.39999997616,cobalt,1100,I,m,m,None,442,243.0,199.0,92,1,2074.3000000715256,336513.09999990463,7774,cobalt,NF,C,331365,331365,329541,330650,329541,331615,331166,331166,331615,56
51,test,1,inc,0,m,Fri Mar 20 2026 10:39:41 GMT-0500 (Central Daylight Time),340386.39999997616,orange,1000,I,z,z,None,275,76.0,199.0,95,1,1792.3999999761581,338594.0,7774,cobalt,NF,C,333332,333332,331622,332630,331622,333415,333132,333132,333414,57
52,test,1,con,1,m,Fri Mar 20 2026 10:39:41 GMT-0500 (Central Daylight Time),342502.09999990463,copper,800,I,m,m,None,771,572.0,199.0,73,1,2108.6999999284744,340393.39999997616,7774,copper,NF,C,334947,334947,333421,334232,333422,335530,334748,334748,335530,58
53,test,1,con,1,m,Fri Mar 20 2026 10:39:41 GMT-0500 (Central Daylight Time),344518.5,cobalt,900,I,m,m,None,579,364.0,215.0,90,1,2008.6000000238419,342509.89999997616,7774,cobalt,NF,C,337179,337179,335538,336447,335538,337547,336964,336964,337546,59
54,test,1,inc,1,m,Fri Mar 20 2026 10:39:41 GMT-0500 (Central Daylight Time),346534.6999999285,pear,900,I,m,m,None,570,371.0,199.0,118,1,2011.0,344523.6999999285,7774,zinc,NF,C,339179,339180,337552,338464,337552,339563,338980,338980,339563,60
55,test,1,con,1,z,Fri Mar 20 2026 10:39:41 GMT-0500 (Central Daylight Time),348499.39999997616,lime,900,I,z,z,None,521,307.0,214.0,34,1,1961.2000000476837,346538.1999999285,7774,lime,NF,C,341211,341211,339566,340480,339566,341528,340996,340996,341527,61
56,test,1,inc,1,z,Fri Mar 20 2026 10:39:41 GMT-0500 (Central Daylight Time),350501.1999999285,copper,900,I,z,z,None,567,365.0,202.0,30,1,1999.1000000238419,348502.09999990463,7774,raisin,NF,C,343162,343162,341530,342445,341530,343529,342960,342960,343529,62
57,test,1,con,1,m,Fri Mar 20 2026 10:39:41 GMT-0500 (Central Daylight Time),352633.2999999523,iron,1000,I,m,m,None,594,395.0,199.0,107,1,2126.7000000476837,350506.59999990463,7774,iron,NF,C,345261,345261,343535,344545,343535,345661,345062,345062,345661,63
58,test,1,con,1,m,Fri Mar 20 2026 10:39:41 GMT-0500 (Central Daylight Time),354582.1999999285,copper,900,I,m,m,None,522,323.0,199.0,74,1,1944.2999999523163,352637.89999997616,7774,copper,NF,C,347276,347276,345666,346575,345666,347610,347077,347077,347610,64
59,test,1,con,1,z,Fri Mar 20 2026 10:39:41 GMT-0500 (Central Daylight Time),356631.39999997616,kiwi,1100,I,z,z,None,412,198.0,214.0,52,1,2044.3999999761581,354587.0,7774,kiwi,NF,C,349457,349457,347615,348727,347615,349659,349243,349243,349659,65
60,test,1,inc,1,m,Fri Mar 20 2026 10:39:41 GMT-0500 (Central Daylight Time),358797.09999990463,orange,1000,I,m,m,None,622,422.0,200.0,87,1,2161.2999999523163,356635.7999999523,7774,silver,NF,C,351394,351394,349664,350677,349664,351825,351193,351193,351825,66
61,test,1,inc,1,z,Fri Mar 20 2026 10:39:41 GMT-0500 (Central Daylight Time),360564.1999999285,gold,800,I,z,z,None,431,216.0,215.0,45,1,1760.7999999523163,358803.39999997616,7774,pear,NF,C,353360,353360,351831,352642,351832,353592,353144,353144,353592,67
62,test,1,con,1,m,Fri Mar 20 2026 10:39:41 GMT-0500 (Central Daylight Time),362662.2999999523,bronze,900,I,m,m,None,654,454.0,200.0,66,1,2093.0,360569.2999999523,7774,bronze,NF,C,355225,355225,353597,354509,353598,355690,355025,355025,355690,68
63,test,1,inc,1,z,Fri Mar 20 2026 10:39:41 GMT-0500 (Central Daylight Time),364644.6999999285,zinc,1000,I,z,z,None,436,237.0,199.0,63,1,1976.1999999284744,362668.5,7774,plum,NF,C,357425,357425,355697,356708,355697,357673,357225,357225,357673,69
64,test,1,con,1,z,Fri Mar 20 2026 10:39:41 GMT-0500 (Central Daylight Time),366579.2999999523,lime,1000,I,z,z,None,385,184.0,201.0,35,1,1928.2000000476837,364651.09999990463,7774,lime,NF,C,359407,359407,357679,358691,357679,359607,359206,359206,359607,70
65,test,1,con,1,z,Fri Mar 20 2026 10:39:41 GMT-0500 (Central Daylight Time),368460.59999990463,orange,900,I,z,z,None,448,246.0,202.0,18,1,1876.0,366584.59999990463,7774,orange,NF,C,361241,361241,359613,360523,359613,361489,361039,361039,361489,71
66,test,1,inc,1,z,Fri Mar 20 2026 10:39:41 GMT-0500 (Central Daylight Time),370510.6999999285,iron,900,I,z,z,None,615,416.0,199.0,54,1,2045.1999999284744,368465.5,7774,kiwi,NF,C,363122,363122,361494,362406,361494,363539,362923,362923,363539,72
67,test,1,inc,1,m,Fri Mar 20 2026 10:39:41 GMT-0500 (Central Daylight Time),372360.2999999523,banana,800,I,m,m,None,513,309.0,204.0,93,1,1844.2999999523163,370516.0,7774,cobalt,NF,C,365075,365075,363544,364355,363544,365388,364871,364871,365388,73
68,test,1,inc,1,m,Fri Mar 20 2026 10:39:41 GMT-0500 (Central Daylight Time),374408.89999997616,kiwi,1000,I,m,m,None,501,302.0,199.0,103,1,2043.0,372365.89999997616,7774,gold,NF,C,367120,367120,365394,366405,365394,367437,366921,366921,367437,74
68,test,1,con,0,z,Fri Mar 20 2026 10:39:41 GMT-0500 (Central Daylight Time),376276.89999997616,banana,1000,I,m,m,None,334,135.0,199.0,3,1,1862.3000000715256,374414.59999990463,7774,banana,NF,C,369170,369170,367443,368454,367443,369305,368971,368971,369305,75
69,test,1,inc,1,m,Fri Mar 20 2026 10:39:41 GMT-0500 (Central Daylight Time),378241.09999990463,lime,800,I,m,m,None,617,418.0,199.0,101,1,1960.5999999046326,376280.5,7774,gold,NF,C,370836,370836,369309,370119,369309,371269,370637,370637,371269,76
70,test,1,inc,1,m,Fri Mar 20 2026 10:39:41 GMT-0500 (Central Daylight Time),380373.09999990463,plum,1100,I,m,m,None,494,294.0,200.0,104,1,2127.0999999046326,378246.0,7774,gold,NF,C,373104,373104,371274,372386,371274,373401,372903,372903,373401,77
71,test,1,inc,1,z,Fri Mar 20 2026 10:39:41 GMT-0500 (Central Daylight Time),382122.5,bronze,800,I,z,z,None,423,206.0,217.0,5,1,1745.8000000715256,380376.6999999285,7774,banana,NF,C,374936,374936,373405,374217,373405,375151,374719,374719,375151,78
72,test,1,con,1,z,Fri Mar 20 2026 10:39:41 GMT-0500 (Central Daylight Time),384222.59999990463,plum,1100,I,z,z,None,452,238.0,214.0,60,1,2097.2999999523163,382125.2999999523,7774,plum,NF,C,377000,377000,375153,376270,375154,377251,376786,376786,377251,79
73,test,1,con,1,m,Fri Mar 20 2026 10:39:41 GMT-0500 (Central Daylight Time),386306.59999990463,copper,1000,I,m,m,None,534,335.0,199.0,75,1,2080.7999999523163,384225.7999999523,7774,copper,NF,C,378984,378984,377254,378268,377254,379335,378785,378785,379335,80
74,test,1,con,1,z,Fri Mar 20 2026 10:39:41 GMT-0500 (Central Daylight Time),388338.89999997616,orange,1100,I,z,z,None,393,193.0,200.0,20,1,2027.6000000238419,386311.2999999523,7774,orange,NF,C,381167,381167,379339,380450,379339,381367,380967,380967,381367,81
75,test,1,inc,1,z,Fri Mar 20 2026 10:39:41 GMT-0500 (Central Daylight Time),390388.6999999285,silver,1000,I,z,z,None,517,316.0,201.0,7,1,2046.1999999284744,388342.5,7774,banana,NF,C,383100,383100,381371,382384,381371,383417,382898,382898,383417,82
76,test,1,inc,1,z,Fri Mar 20 2026 10:39:41 GMT-0500 (Central Daylight Time),392151.89999997616,bronze,800,I,z,z,None,424,225.0,199.0,21,1,1758.5,390393.39999997616,7774,orange,NF,C,384949,384949,383421,384233,383422,385180,384749,384749,385180,83
77,test,1,inc,1,m,Fri Mar 20 2026 10:39:41 GMT-0500 (Central Daylight Time),394220.5,kiwi,1000,I,m,m,None,523,323.0,200.0,127,1,2065.9000000953674,392154.59999990463,7774,lead,NF,C,386915,386915,385183,386198,385183,387249,386715,386715,387249,84
78,test,1,inc,1,z,Fri Mar 20 2026 10:39:41 GMT-0500 (Central Daylight Time),396401.89999997616,lead,1100,I,z,z,None,533,334.0,199.0,56,1,2176.3000000715256,394225.59999990463,7774,kiwi,NF,C,389081,389081,387254,388365,387254,389430,388882,388882,389430,85
79,test,1,con,1,z,Fri Mar 20 2026 10:39:41 GMT-0500 (Central Daylight Time),398317.7999999523,cherry,900,I,z,z,None,477,262.0,215.0,10,1,1911.3999999761581,396406.39999997616,7774,cherry,NF,C,391081,391081,389434,390347,389435,391346,390865,390865,391346,86
79,test,1,inc,0,z,Fri Mar 20 2026 10:39:41 GMT-0500 (Central Daylight Time),400434.0,cobalt,1100,I,m,m,None,474,275.0,199.0,8,1,2111.8000000715256,398322.1999999285,7774,banana,NF,C,393180,393180,391350,392462,391350,393462,392980,392980,393462,87
80,test,1,inc,1,z,Fri Mar 20 2026 10:39:41 GMT-0500 (Central Daylight Time),402700.89999997616,lead,1100,I,z,z,None,648,449.0,199.0,40,1,2262.100000023842,400438.7999999523,7774,lime,NF,C,395280,395280,393467,394578,393467,395729,395080,395080,395729,88
81,test,1,con,1,m,Fri Mar 20 2026 10:39:41 GMT-0500 (Central Daylight Time),404949.39999997616,lead,1100,I,m,m,None,616,416.0,200.0,124,1,2243.0,402706.39999997616,7774,lead,NF,C,397561,397561,395734,396845,395735,397978,397361,397361,397977,89
82,test,1,inc,1,z,Fri Mar 20 2026 10:39:41 GMT-0500 (Central Daylight Time),407016.09999990463,cobalt,1100,I,z,z,None,428,229.0,199.0,16,1,2060.2999999523163,404955.7999999523,7774,cherry,NF,C,399810,399810,397984,399094,397984,400044,399611,399611,400044,90
83,test,1,con,1,m,Fri Mar 20 2026 10:39:41 GMT-0500 (Central Daylight Time),409115.89999997616,lead,1000,I,m,m,None,566,366.0,200.0,123,1,2095.399999976158,407020.5,7774,lead,NF,C,401778,401778,400049,401060,400049,402144,401577,401577,402144,91
84,test,1,con,1,m,Fri Mar 20 2026 10:39:41 GMT-0500 (Central Daylight Time),411280.7999999523,bronze,1100,I,m,m,None,542,343.0,199.0,68,1,2160.2999999523163,409120.5,7774,bronze,NF,C,403960,403960,402149,403259,402149,404309,403760,403760,404309,92
85,test,1,con,1,z,Fri Mar 20 2026 10:39:41 GMT-0500 (Central Daylight Time),413131.59999990463,raisin,900,I,z,z,None,432,233.0,199.0,26,1,1847.0,411284.59999990463,7774,raisin,NF,C,405925,405926,404313,405225,404313,406160,405726,405726,406160,93
86,test,1,inc,1,z,Fri Mar 20 2026 10:39:41 GMT-0500 (Central Daylight Time),414996.09999990463,copper,900,I,z,z,None,424,224.0,200.0,6,1,1860.0,413136.09999990463,7774,banana,NF,C,407792,407792,406164,407075,406164,408024,407590,407591,408024,94
87,test,1,inc,1,m,Fri Mar 20 2026 10:39:41 GMT-0500 (Central Daylight Time),417045.59999990463,kiwi,1000,I,m,m,None,514,315.0,199.0,111,1,2046.0999999046326,414999.5,7774,iron,NF,C,409757,409758,408028,409042,408028,410074,409558,409558,410074,95
88,test,1,inc,1,z,Fri Mar 20 2026 10:39:41 GMT-0500 (Central Daylight Time),419060.1999999285,cobalt,1100,I,z,z,None,380,180.0,200.0,32,1,2010.6000000238419,417049.59999990463,7774,raisin,NF,C,411907,411907,410078,411190,410078,412088,411706,411706,412088,96
89,test,1,inc,1,z,Fri Mar 20 2026 10:39:41 GMT-0500 (Central Daylight Time),421042.5,zinc,1000,I,z,z,None,440,241.0,199.0,39,1,1979.7000000476837,419062.7999999523,7774,lime,NF,C,413821,413821,412091,413107,412091,414071,413622,413622,414071,97
90,test,1,inc,1,z,Fri Mar 20 2026 10:39:41 GMT-0500 (Central Daylight Time),422925.0,iron,900,I,z,z,None,447,246.0,201.0,62,1,1879.2000000476837,421045.7999999523,7774,plum,NF,C,415704,415704,414074,414987,414074,415953,415503,415503,415953,98
91,test,1,con,1,m,Fri Mar 20 2026 10:39:41 GMT-0500 (Central Daylight Time),425008.09999990463,silver,1000,I,m,m,None,543,344.0,199.0,83,1,2080.5,422927.59999990463,7774,silver,NF,C,417686,417686,415956,416970,415956,418036,417486,417486,418036,99
92,test,1,inc,1,m,Fri Mar 20 2026 10:39:41 GMT-0500 (Central Daylight Time),427275.5,plum,1100,I,m,m,None,617,417.0,200.0,112,1,2264.7000000476837,425010.7999999523,7774,iron,NF,C,419869,419869,418039,419153,418039,420304,419669,419669,420303,100
92,test,1,inc,0,m,Fri Mar 20 2026 10:39:41 GMT-0500 (Central Daylight Time),429190.6999999285,lime,800,I,z,z,None,577,377.0,200.0,117,1,1910.1999999284744,427280.5,7774,zinc,NF,C,421838,421838,420309,421120,420309,422219,421638,421638,422219,101
93,test,1,con,1,z,Fri Mar 20 2026 10:39:41 GMT-0500 (Central Daylight Time),431042.39999997616,kiwi,900,I,z,z,None,416,217.0,199.0,50,1,1846.2000000476837,429196.1999999285,7774,kiwi,NF,C,423853,423853,422224,423137,422224,424071,423653,423653,424070,102
94,test,1,con,1,z,Fri Mar 20 2026 10:39:41 GMT-0500 (Central Daylight Time),432790.7999999523,pear,800,I,z,z,None,405,206.0,199.0,41,1,1742.8999999761581,431047.89999997616,7774,pear,NF,C,425602,425602,424076,424887,424076,425819,425402,425402,425819,103
95,test,1,con,1,m,Fri Mar 20 2026 10:39:41 GMT-0500 (Central Daylight Time),434806.09999990463,gold,1000,I,m,m,None,480,280.0,200.0,99,1,2010.3999999761581,432795.6999999285,7774,gold,NF,C,427551,427551,425824,426834,425824,427834,427350,427350,427834,104
96,test,1,inc,1,m,Fri Mar 20 2026 10:39:41 GMT-0500 (Central Daylight Time),436738.1999999285,cherry,900,I,m,m,None,508,308.0,200.0,86,1,1929.1999999284744,434809.0,7774,silver,NF,C,429450,429450,427837,428749,427837,429766,429250,429250,429766,105
97,test,1,con,1,m,Fri Mar 20 2026 10:39:41 GMT-0500 (Central Daylight Time),438904.39999997616,zinc,900,I,m,m,None,719,518.0,201.0,114,1,2162.899999976158,436741.5,7774,zinc,NF,C,431400,431400,429770,430683,429770,431932,431199,431199,431932,106
98,test,1,con,1,m,Fri Mar 20 2026 10:39:41 GMT-0500 (Central Daylight Time),441004.0,zinc,1100,I,m,m,None,464,264.0,200.0,116,1,2095.9000000953674,438908.09999990463,7774,zinc,NF,C,433766,433766,431936,433049,431936,434032,433565,433565,434032,107
98,test,1,inc,0,z,Fri Mar 20 2026 10:39:41 GMT-0500 (Central Daylight Time),443036.59999990463,silver,1000,I,m,m,None,501,300.0,201.0,15,1,2029.8999999761581,441006.6999999285,7774,cherry,NF,C,435754,435754,434035,435048,434035,436065,435549,435549,436065,108
99,test,1,con,1,m,Fri Mar 20 2026 10:39:41 GMT-0500 (Central Daylight Time),445251.89999997616,iron,900,I,m,m,None,781,581.0,200.0,106,1,2212.5,443039.39999997616,7774,iron,NF,C,437697,437697,436067,436981,436068,438280,437497,437497,438280,109
100,test,1,inc,1,z,Fri Mar 20 2026 10:39:41 GMT-0500 (Central Daylight Time),447384.6999999285,silver,1000,I,z,z,None,593,394.0,199.0,31,1,2129.2999999523163,445255.39999997616,7774,raisin,NF,C,440013,440013,438283,439297,438284,440413,439814,439814,440413,110
101,test,1,con,1,z,Fri Mar 20 2026 10:39:41 GMT-0500 (Central Daylight Time),449100.5,kiwi,800,I,z,z,None,380,165.0,215.0,49,1,1712.7000000476837,447387.7999999523,7774,kiwi,NF,C,441962,441962,440416,441230,440416,442129,441747,441747,442129,111
102,test,1,inc,1,z,Fri Mar 20 2026 10:39:41 GMT-0500 (Central Daylight Time),451150.0,iron,900,I,z,z,None,604,404.0,200.0,46,1,2046.8000000715256,449103.1999999285,7774,pear,NF,C,443762,443762,442131,443045,442132,444178,443562,443562,444178,112
103,test,1,con,1,z,Fri Mar 20 2026 10:39:41 GMT-0500 (Central Daylight Time),453049.5,pear,900,I,z,z,None,458,258.0,200.0,42,1,1897.0,451152.5,7774,pear,NF,C,445812,445812,444181,445095,444181,446078,445612,445612,446078,113
104,test,1,inc,1,m,Fri Mar 20 2026 10:39:41 GMT-0500 (Central Daylight Time),454949.39999997616,banana,800,I,m,m,None,562,346.0,216.0,69,1,1896.5,453052.89999997616,7774,bronze,NF,C,447628,447628,446081,446894,446081,447978,447412,447412,447977,114
105,test,1,con,1,z,Fri Mar 20 2026 10:39:41 GMT-0500 (Central Daylight Time),456865.0,plum,900,I,z,z,None,467,267.0,200.0,58,1,1912.8000000715256,454952.1999999285,7774,plum,NF,C,449611,449611,447980,448894,447980,449893,449411,449411,449893,115
106,test,1,inc,1,m,Fri Mar 20 2026 10:39:41 GMT-0500 (Central Daylight Time),459063.89999997616,raisin,1100,I,m,m,None,553,350.0,203.0,88,1,2196.0,456867.89999997616,7774,silver,NF,C,451728,451728,449896,451009,449896,452092,451525,451525,452092,116
107,test,1,inc,1,z,Fri Mar 20 2026 10:39:41 GMT-0500 (Central Daylight Time),460814.1999999285,bronze,800,I,z,z,None,420,205.0,215.0,29,1,1747.6999999284744,459066.5,7774,raisin,NF,C,453625,453625,452095,452908,452095,453842,453410,453410,453842,117
107,test,1,inc,0,m,Fri Mar 20 2026 10:39:41 GMT-0500 (Central Daylight Time),462979.5,kiwi,1000,I,z,z,None,622,422.0,200.0,119,1,2162.9000000953674,460816.59999990463,7774,zinc,NF,C,455576,455576,453845,454859,453845,456008,455375,455375,456008,118
108,test,1,con,1,z,Fri Mar 20 2026 10:39:41 GMT-0500 (Central Daylight Time),464879.39999997616,orange,1000,I,z,z,None,353,138.0,215.0,19,1,1896.6000000238419,462982.7999999523,7774,orange,NF,C,457757,457757,456011,457025,456011,457907,457542,457542,457907,119
108,test,1,con,0,z,Fri Mar 20 2026 10:39:41 GMT-0500 (Central Daylight Time),466612.5,cherry,800,I,m,m,None,403,204.0,199.0,9,1,1730.4000000953674,464882.09999990463,7774,cherry,NF,C,459426,459426,457910,458724,457910,459641,459226,459226,459641,120
109,test,1,con,1,z,Fri Mar 20 2026 10:39:41 GMT-0500 (Central Daylight Time),468994.59999990463,raisin,800,I,z,z,None,1050,849.0,201.0,25,1,2379.399999976158,466615.1999999285,7774,raisin,NF,C,461173,461173,459643,460456,459643,462023,460972,460972,462023,121
110,test,1,inc,1,m,Fri Mar 20 2026 10:39:41 GMT-0500 (Central Daylight Time),470927.1999999285,banana,800,I,m,m,None,585,386.0,199.0,77,1,1930.0,468997.1999999285,7774,copper,NF,C,463556,463556,462025,462839,462025,463955,463356,463356,463955,122
111,test,1,con,1,m,Fri Mar 20 2026 10:39:41 GMT-0500 (Central Daylight Time),472860.6999999285,gold,900,I,m,m,None,490,289.0,201.0,98,1,1930.5,470930.1999999285,7774,gold,NF,C,465589,465589,463958,464873,463958,465889,465388,465388,465889,123
112,test,1,inc,1,m,Fri Mar 20 2026 10:39:41 GMT-0500 (Central Daylight Time),474842.59999990463,pear,900,I,m,m,None,541,341.0,200.0,110,1,1979.3999999761581,472863.1999999285,7774,iron,NF,C,467521,467521,465891,466805,465891,467871,467321,467321,467871,124
113,test,1,inc,1,m,Fri Mar 20 2026 10:39:41 GMT-0500 (Central Daylight Time),476842.09999990463,lime,800,I,m,m,None,650,450.0,200.0,109,1,1996.7999999523163,474845.2999999523,7774,iron,NF,C,469404,469404,467873,468688,467874,469870,469204,469204,469870,125
114,test,1,inc,1,z,Fri Mar 20 2026 10:39:41 GMT-0500 (Central Daylight Time),478724.6999999285,copper,900,I,z,z,None,438,238.0,200.0,22,1,1879.6000000238419,476845.09999990463,7774,orange,NF,C,471504,471504,469873,470787,469873,471753,471304,471304,471753,126
115,test,1,inc,1,m,Fri Mar 20 2026 10:39:41 GMT-0500 (Central Daylight Time),480591.09999990463,banana,800,I,m,m,None,528,328.0,200.0,85,1,1863.0999999046326,478728.0,7774,silver,NF,C,473286,473286,471756,472569,471756,473619,473086,473086,473619,127
116,test,1,con,1,z,Fri Mar 20 2026 10:39:41 GMT-0500 (Central Daylight Time),482640.09999990463,pear,1100,I,z,z,None,403,202.0,201.0,44,1,2046.3999999761581,480593.6999999285,7774,pear,NF,C,475452,475452,473622,474735,473622,475668,475251,475251,475668,128
