block_c,block_dur,condition,countdown,datetime,endtime,list,multichar_response,project,response,response_time,session_number,start_end,starttime,subject_id,task,task_vers,trial
,,,,Thu Nov 13 2025 12:48:03 GMT-0600 (Central Standard Time),,,,O,space,1154,1,,,7229,WL,B,
prac,,0,,Thu Nov 13 2025 12:48:03 GMT-0600 (Central Standard Time),,NA,b,O,b,4385,1,,,7229,WL,B,1.0
prac,,0,,Thu Nov 13 2025 12:48:03 GMT-0600 (Central Standard Time),,NA,bo,O,o,602,1,,,7229,WL,B,1.0
prac,,0,,Thu Nov 13 2025 12:48:03 GMT-0600 (Central Standard Time),,NA,boo,O,o,162,1,,,7229,WL,B,1.0
prac,,0,,Thu Nov 13 2025 12:48:03 GMT-0600 (Central Standard Time),,NA,boos,O,s,123,1,,,7229,WL,B,1.0
prac,,0,,Thu Nov 13 2025 12:48:03 GMT-0600 (Central Standard Time),,NA,boost,O,t,174,1,,,7229,WL,B,1.0
prac,,0,,Thu Nov 13 2025 12:48:03 GMT-0600 (Central Standard Time),,NA,boostenter,O,enter,1606,1,,,7229,WL,B,1.0
1,5.48199987411499,learn,54518.00012588501,Thu Nov 13 2025 12:48:03 GMT-0600 (Central Standard Time),162230.19999992847,A,d,O,d,5467,1,5482.399999976158,156747.79999995232,7229,WL,B,1.0
1,5.730999946594238,learn,54269.00005340576,Thu Nov 13 2025 12:48:03 GMT-0600 (Central Standard Time),162478.69999992847,A,do,O,o,241,1,5730.899999976158,156747.79999995232,7229,WL,B,1.0
1,5.913999795913696,learn,54086.000204086304,Thu Nov 13 2025 12:48:03 GMT-0600 (Central Standard Time),162661.79999995232,A,doo,O,o,176,1,5914.0,156747.79999995232,7229,WL,B,1.0
1,6.097999811172485,learn,53902.000188827515,Thu Nov 13 2025 12:48:03 GMT-0600 (Central Standard Time),162846.19999992847,A,door,O,r,168,1,6098.399999976158,156747.79999995232,7229,WL,B,1.0
1,6.96399998664856,learn,53036.00001335144,Thu Nov 13 2025 12:48:03 GMT-0600 (Central Standard Time),163712.09999990463,A,doorenter,O,enter,848,1,6964.299999952316,156747.79999995232,7229,WL,B,1.0
1,7.497999906539917,learn,52502.00009346008,Thu Nov 13 2025 12:48:03 GMT-0600 (Central Standard Time),164245.79999995232,A,g,O,g,527,1,533.3999999761581,163712.39999997616,7229,WL,B,2.0
1,7.830999851226807,learn,52169.00014877319,Thu Nov 13 2025 12:48:03 GMT-0600 (Central Standard Time),164578.5,A,gr,O,r,321,1,866.1000000238419,163712.39999997616,7229,WL,B,2.0
1,8.030999898910522,learn,51969.00010108948,Thu Nov 13 2025 12:48:03 GMT-0600 (Central Standard Time),164778.59999990463,A,gra,O,a,189,1,1066.1999999284744,163712.39999997616,7229,WL,B,2.0
1,8.247999906539917,learn,51752.00009346008,Thu Nov 13 2025 12:48:03 GMT-0600 (Central Standard Time),164995.79999995232,A,gras,O,s,196,1,1283.3999999761581,163712.39999997616,7229,WL,B,2.0
1,8.413999795913696,learn,51586.000204086304,Thu Nov 13 2025 12:48:03 GMT-0600 (Central Standard Time),165161.69999992847,A,grass,O,s,147,1,1449.2999999523163,163712.39999997616,7229,WL,B,2.0
1,9.398000001907349,learn,50601.99999809265,Thu Nov 13 2025 12:48:03 GMT-0600 (Central Standard Time),166145.39999997616,A,grassenter,O,enter,973,1,2433.0,163712.39999997616,7229,WL,B,2.0
1,10.080999851226807,learn,49919.00014877319,Thu Nov 13 2025 12:48:03 GMT-0600 (Central Standard Time),166828.79999995232,A,a,O,a,670,1,683.1000000238419,166145.69999992847,7229,WL,B,3.0
1,10.280999898910522,learn,49719.00010108948,Thu Nov 13 2025 12:48:03 GMT-0600 (Central Standard Time),167028.59999990463,A,ar,O,r,194,1,882.8999999761581,166145.69999992847,7229,WL,B,3.0
1,10.495999813079834,learn,49504.000186920166,Thu Nov 13 2025 12:48:03 GMT-0600 (Central Standard Time),167244.0,A,arm,O,m,211,1,1098.3000000715256,166145.69999992847,7229,WL,B,3.0
1,10.979999780654907,learn,49020.00021934509,Thu Nov 13 2025 12:48:03 GMT-0600 (Central Standard Time),167727.39999997616,A,armenter,O,enter,475,1,1581.7000000476837,166145.69999992847,7229,WL,B,3.0
1,11.413999795913696,learn,48586.000204086304,Thu Nov 13 2025 12:48:03 GMT-0600 (Central Standard Time),168161.39999997616,A,s,O,s,424,1,433.7000000476837,167727.69999992847,7229,WL,B,4.0
1,11.629999876022339,learn,48370.00012397766,Thu Nov 13 2025 12:48:03 GMT-0600 (Central Standard Time),168377.29999995232,A,st,O,t,198,1,649.6000000238419,167727.69999992847,7229,WL,B,4.0
1,11.846999883651733,learn,48153.00011634827,Thu Nov 13 2025 12:48:03 GMT-0600 (Central Standard Time),168594.59999990463,A,sta,O,a,198,1,866.8999999761581,167727.69999992847,7229,WL,B,4.0
1,11.978999853134155,learn,48021.000146865845,Thu Nov 13 2025 12:48:03 GMT-0600 (Central Standard Time),168727.09999990463,A,star,O,r,116,1,999.3999999761581,167727.69999992847,7229,WL,B,4.0
1,12.578999996185303,learn,47421.0000038147,Thu Nov 13 2025 12:48:03 GMT-0600 (Central Standard Time),169327.0,A,starenter,O,enter,584,1,1599.3000000715256,167727.69999992847,7229,WL,B,4.0
1,15.911999940872192,learn,44088.00005912781,Thu Nov 13 2025 12:48:03 GMT-0600 (Central Standard Time),172659.39999997616,A,p,O,p,3328,1,3332.100000023842,169327.29999995232,7229,WL,B,5.0
1,16.110999822616577,learn,43889.00017738342,Thu Nov 13 2025 12:48:03 GMT-0600 (Central Standard Time),172858.69999992847,A,pi,O,i,196,1,3531.399999976158,169327.29999995232,7229,WL,B,5.0
1,16.328999996185303,learn,43671.0000038147,Thu Nov 13 2025 12:48:03 GMT-0600 (Central Standard Time),173076.59999990463,A,pip,O,p,205,1,3749.2999999523163,169327.29999995232,7229,WL,B,5.0
1,16.526999950408936,learn,43473.000049591064,Thu Nov 13 2025 12:48:03 GMT-0600 (Central Standard Time),173275.0,A,pipe,O,e,187,1,3947.7000000476837,169327.29999995232,7229,WL,B,5.0
1,17.22699999809265,learn,42773.00000190735,Thu Nov 13 2025 12:48:03 GMT-0600 (Central Standard Time),173974.89999997616,A,pipeenter,O,enter,684,1,4647.600000023842,169327.29999995232,7229,WL,B,5.0
1,17.59499979019165,learn,42405.00020980835,Thu Nov 13 2025 12:48:03 GMT-0600 (Central Standard Time),174343.09999990463,A,s,O,s,360,1,368.0,173975.09999990463,7229,WL,B,6.0
1,17.860999822616577,learn,42139.00017738342,Thu Nov 13 2025 12:48:03 GMT-0600 (Central Standard Time),174608.79999995232,A,st,O,t,248,1,633.7000000476837,173975.09999990463,7229,WL,B,6.0
1,18.110999822616577,learn,41889.00017738342,Thu Nov 13 2025 12:48:03 GMT-0600 (Central Standard Time),174858.79999995232,A,str,O,r,231,1,883.7000000476837,173975.09999990463,7229,WL,B,6.0
1,18.359999895095825,learn,41640.000104904175,Thu Nov 13 2025 12:48:03 GMT-0600 (Central Standard Time),175108.0,A,stre,O,e,245,1,1132.9000000953674,173975.09999990463,7229,WL,B,6.0
1,18.543999910354614,learn,41456.000089645386,Thu Nov 13 2025 12:48:03 GMT-0600 (Central Standard Time),175292.0,A,stree,O,e,179,1,1316.9000000953674,173975.09999990463,7229,WL,B,6.0
1,18.74399995803833,learn,41256.00004196167,Thu Nov 13 2025 12:48:03 GMT-0600 (Central Standard Time),175491.29999995232,A,street,O,t,180,1,1516.2000000476837,173975.09999990463,7229,WL,B,6.0
1,20.209999799728394,learn,39790.00020027161,Thu Nov 13 2025 12:48:03 GMT-0600 (Central Standard Time),176957.89999997616,A,streetenter,O,enter,1460,1,2982.8000000715256,173975.09999990463,7229,WL,B,6.0
1,27.372999906539917,learn,32627.000093460083,Thu Nov 13 2025 12:48:03 GMT-0600 (Central Standard Time),184122.39999997616,A,enter,O,enter,7146,1,7164.300000071526,176958.09999990463,7229,WL,B,7.0
1,27.806999921798706,learn,32193.000078201294,Thu Nov 13 2025 12:48:03 GMT-0600 (Central Standard Time),184555.89999997616,A,enter,O,enter,429,1,433.3000000715256,184122.59999990463,7229,WL,B,8.0
1,28.788999795913696,learn,31211.000204086304,Thu Nov 13 2025 12:48:03 GMT-0600 (Central Standard Time),185538.0,A,enter,O,enter,971,1,981.9000000953674,184556.09999990463,7229,WL,B,9.0
1,29.721999883651733,learn,30278.000116348267,Thu Nov 13 2025 12:48:03 GMT-0600 (Central Standard Time),186471.09999990463,A,enter,O,enter,926,1,932.8999999761581,185538.19999992847,7229,WL,B,10.0
1,30.10599994659424,learn,29894.00005340576,Thu Nov 13 2025 12:48:03 GMT-0600 (Central Standard Time),186854.89999997616,A,enter,O,enter,376,1,383.5,186471.39999997616,7229,WL,B,11.0
1,30.488999843597412,learn,29511.000156402588,Thu Nov 13 2025 12:48:03 GMT-0600 (Central Standard Time),187237.69999992847,A,enter,O,enter,369,1,382.5,186855.19999992847,7229,WL,B,12.0
1,30.871999979019165,learn,29128.000020980835,Thu Nov 13 2025 12:48:03 GMT-0600 (Central Standard Time),187621.09999990463,A,enter,O,enter,370,1,383.1999999284744,187237.89999997616,7229,WL,B,13.0
1,31.372999906539917,learn,28627.000093460083,Thu Nov 13 2025 12:48:03 GMT-0600 (Central Standard Time),188121.89999997616,A,enter,O,enter,482,1,500.5,187621.39999997616,7229,WL,B,14.0
1,31.92199993133545,learn,28078.00006866455,Thu Nov 13 2025 12:48:03 GMT-0600 (Central Standard Time),188671.0,A,enter,O,enter,542,1,548.9000000953674,188122.09999990463,7229,WL,B,15.0
2,0.6319999694824219,learn,59368.00003051758,Thu Nov 13 2025 12:48:03 GMT-0600 (Central Standard Time),264396.7999999523,A,s,O,s,619,1,632.2000000476837,263764.59999990463,7229,WL,B,1.0
2,0.9819998741149902,learn,59018.00012588501,Thu Nov 13 2025 12:48:03 GMT-0600 (Central Standard Time),264746.5,A,st,O,t,339,1,981.9000000953674,263764.59999990463,7229,WL,B,1.0
2,1.2660000324249268,learn,58733.99996757507,Thu Nov 13 2025 12:48:03 GMT-0600 (Central Standard Time),265030.6999999285,A,str,O,r,269,1,1266.1000000238419,263764.59999990463,7229,WL,B,1.0
2,1.5,learn,58500.0,Thu Nov 13 2025 12:48:03 GMT-0600 (Central Standard Time),265264.1999999285,A,stre,O,e,219,1,1499.6000000238419,263764.59999990463,7229,WL,B,1.0
2,1.6659998893737793,learn,58334.00011062622,Thu Nov 13 2025 12:48:03 GMT-0600 (Central Standard Time),265430.09999990463,A,stree,O,e,157,1,1665.5,263764.59999990463,7229,WL,B,1.0
2,1.8819999694824219,learn,58118.00003051758,Thu Nov 13 2025 12:48:03 GMT-0600 (Central Standard Time),265646.89999997616,A,street,O,t,201,1,1882.3000000715256,263764.59999990463,7229,WL,B,1.0
2,3.0490000247955322,learn,56950.99997520447,Thu Nov 13 2025 12:48:03 GMT-0600 (Central Standard Time),266813.59999990463,A,streetenter,O,enter,1161,1,3049.0,263764.59999990463,7229,WL,B,1.0
2,6.2809998989105225,learn,53719.00010108948,Thu Nov 13 2025 12:48:03 GMT-0600 (Central Standard Time),270045.2999999523,A,d,O,d,3218,1,3231.399999976158,266813.89999997616,7229,WL,B,2.0
2,6.430999994277954,learn,53569.000005722046,Thu Nov 13 2025 12:48:03 GMT-0600 (Central Standard Time),270195.7999999523,A,do,O,o,138,1,3381.899999976158,266813.89999997616,7229,WL,B,2.0
2,6.613999843597412,learn,53386.00015640259,Thu Nov 13 2025 12:48:03 GMT-0600 (Central Standard Time),270378.39999997616,A,doo,O,o,172,1,3564.5,266813.89999997616,7229,WL,B,2.0
2,6.796999931335449,learn,53203.00006866455,Thu Nov 13 2025 12:48:03 GMT-0600 (Central Standard Time),270561.89999997616,A,door,O,r,165,1,3748.0,266813.89999997616,7229,WL,B,2.0
2,7.246999979019165,learn,52753.000020980835,Thu Nov 13 2025 12:48:03 GMT-0600 (Central Standard Time),271011.89999997616,A,doorenter,O,enter,438,1,4198.0,266813.89999997616,7229,WL,B,2.0
2,7.829999923706055,learn,52170.000076293945,Thu Nov 13 2025 12:48:03 GMT-0600 (Central Standard Time),271594.6999999285,A,s,O,s,572,1,582.5,271012.1999999285,7229,WL,B,3.0
2,8.079999923706055,learn,51920.000076293945,Thu Nov 13 2025 12:48:03 GMT-0600 (Central Standard Time),271844.39999997616,A,st,O,t,246,1,832.2000000476837,271012.1999999285,7229,WL,B,3.0
2,8.27999997138977,learn,51720.00002861023,Thu Nov 13 2025 12:48:03 GMT-0600 (Central Standard Time),272044.89999997616,A,sta,O,a,188,1,1032.7000000476837,271012.1999999285,7229,WL,B,3.0
2,8.414000034332275,learn,51585.999965667725,Thu Nov 13 2025 12:48:03 GMT-0600 (Central Standard Time),272178.39999997616,A,star,O,r,123,1,1166.2000000476837,271012.1999999285,7229,WL,B,3.0
2,8.713000059127808,learn,51286.99994087219,Thu Nov 13 2025 12:48:03 GMT-0600 (Central Standard Time),272477.39999997616,A,starenter,O,enter,293,1,1465.2000000476837,271012.1999999285,7229,WL,B,3.0
2,8.94599986076355,learn,51054.00013923645,Thu Nov 13 2025 12:48:03 GMT-0600 (Central Standard Time),272710.39999997616,A,a,O,a,226,1,232.80000007152557,272477.59999990463,7229,WL,B,4.0
2,9.096999883651733,learn,50903.00011634827,Thu Nov 13 2025 12:48:03 GMT-0600 (Central Standard Time),272861.39999997616,A,ar,O,r,145,1,383.8000000715256,272477.59999990463,7229,WL,B,4.0
2,9.246000051498413,learn,50753.99994850159,Thu Nov 13 2025 12:48:03 GMT-0600 (Central Standard Time),273011.0,A,arm,O,m,146,1,533.4000000953674,272477.59999990463,7229,WL,B,4.0
2,10.912999868392944,learn,49087.000131607056,Thu Nov 13 2025 12:48:03 GMT-0600 (Central Standard Time),274677.09999990463,A,armenter,O,enter,1653,1,2199.5,272477.59999990463,7229,WL,B,4.0
2,12.161999940872192,learn,47838.00005912781,Thu Nov 13 2025 12:48:03 GMT-0600 (Central Standard Time),275926.39999997616,A,c,O,c,1235,1,1249.2000000476837,274677.1999999285,7229,WL,B,5.0
2,12.361999988555908,learn,47638.00001144409,Thu Nov 13 2025 12:48:03 GMT-0600 (Central Standard Time),276126.59999990463,A,ca,O,a,193,1,1449.3999999761581,274677.1999999285,7229,WL,B,5.0
2,12.994999885559082,learn,47005.00011444092,Thu Nov 13 2025 12:48:03 GMT-0600 (Central Standard Time),276759.39999997616,A,cab,O,b,625,1,2082.2000000476837,274677.1999999285,7229,WL,B,5.0
2,13.244999885559082,learn,46755.00011444092,Thu Nov 13 2025 12:48:03 GMT-0600 (Central Standard Time),277010.0,A,cabi,O,i,240,1,2332.8000000715256,274677.1999999285,7229,WL,B,5.0
2,13.411999940872192,learn,46588.00005912781,Thu Nov 13 2025 12:48:03 GMT-0600 (Central Standard Time),277176.39999997616,A,cabin,O,n,158,1,2499.2000000476837,274677.1999999285,7229,WL,B,5.0
2,13.777999877929688,learn,46222.00012207031,Thu Nov 13 2025 12:48:03 GMT-0600 (Central Standard Time),277542.6999999285,A,cabinenter,O,enter,351,1,2865.5,274677.1999999285,7229,WL,B,5.0
2,14.111999988555908,learn,45888.00001144409,Thu Nov 13 2025 12:48:03 GMT-0600 (Central Standard Time),277876.09999990463,A,l,O,l,329,1,333.2999999523163,277542.7999999523,7229,WL,B,6.0
2,14.279000043869019,learn,45720.99995613098,Thu Nov 13 2025 12:48:03 GMT-0600 (Central Standard Time),278043.2999999523,A,la,O,a,148,1,500.5,277542.7999999523,7229,WL,B,6.0
2,14.41100001335144,learn,45588.99998664856,Thu Nov 13 2025 12:48:03 GMT-0600 (Central Standard Time),278175.7999999523,A,lak,O,k,116,1,633.0,277542.7999999523,7229,WL,B,6.0
2,14.562000036239624,learn,45437.999963760376,Thu Nov 13 2025 12:48:03 GMT-0600 (Central Standard Time),278326.2999999523,A,lake,O,e,136,1,783.5,277542.7999999523,7229,WL,B,6.0
2,15.128000020980835,learn,44871.999979019165,Thu Nov 13 2025 12:48:03 GMT-0600 (Central Standard Time),278892.59999990463,A,lakeenter,O,enter,553,1,1349.7999999523163,277542.7999999523,7229,WL,B,6.0
2,15.32800006866455,learn,44671.99993133545,Thu Nov 13 2025 12:48:03 GMT-0600 (Central Standard Time),279092.7999999523,A,f,O,f,195,1,200.10000002384186,278892.6999999285,7229,WL,B,7.0
2,15.478999853134155,learn,44521.000146865845,Thu Nov 13 2025 12:48:03 GMT-0600 (Central Standard Time),279243.0,A,fi,O,i,139,1,350.3000000715256,278892.6999999285,7229,WL,B,7.0
2,15.644999980926514,learn,44355.000019073486,Thu Nov 13 2025 12:48:03 GMT-0600 (Central Standard Time),279409.5,A,fir,O,r,156,1,516.8000000715256,278892.6999999285,7229,WL,B,7.0
2,16.227999925613403,learn,43772.0000743866,Thu Nov 13 2025 12:48:03 GMT-0600 (Central Standard Time),279992.1999999285,A,fire,O,e,574,1,1099.5,278892.6999999285,7229,WL,B,7.0
2,16.977999925613403,learn,43022.0000743866,Thu Nov 13 2025 12:48:03 GMT-0600 (Central Standard Time),280742.0,A,fireenter,O,enter,744,1,1849.3000000715256,278892.6999999285,7229,WL,B,7.0
2,17.3439998626709,learn,42656.0001373291,Thu Nov 13 2025 12:48:03 GMT-0600 (Central Standard Time),281108.59999990463,A,p,O,p,354,1,366.2999999523163,280742.2999999523,7229,WL,B,8.0
2,17.560999870300293,learn,42439.00012969971,Thu Nov 13 2025 12:48:03 GMT-0600 (Central Standard Time),281325.39999997616,A,pu,O,u,211,1,583.1000000238419,280742.2999999523,7229,WL,B,8.0
2,17.759999990463257,learn,42240.00000953674,Thu Nov 13 2025 12:48:03 GMT-0600 (Central Standard Time),281524.6999999285,A,pup,O,p,186,1,782.3999999761581,280742.2999999523,7229,WL,B,8.0
2,17.97699999809265,learn,42023.00000190735,Thu Nov 13 2025 12:48:03 GMT-0600 (Central Standard Time),281741.1999999285,A,pupi,O,i,203,1,998.8999999761581,280742.2999999523,7229,WL,B,8.0
2,18.39299988746643,learn,41607.00011253357,Thu Nov 13 2025 12:48:03 GMT-0600 (Central Standard Time),282157.7999999523,A,pupil,O,l,411,1,1415.5,280742.2999999523,7229,WL,B,8.0
2,20.293999910354614,learn,39706.000089645386,Thu Nov 13 2025 12:48:03 GMT-0600 (Central Standard Time),284058.09999990463,A,pupilenter,O,enter,1882,1,3315.7999999523163,280742.2999999523,7229,WL,B,8.0
2,21.358999967575073,learn,38641.00003242493,Thu Nov 13 2025 12:48:03 GMT-0600 (Central Standard Time),285123.2999999523,A,a,O,a,1062,1,1065.0,284058.2999999523,7229,WL,B,9.0
2,21.608999967575073,learn,38391.00003242493,Thu Nov 13 2025 12:48:03 GMT-0600 (Central Standard Time),285373.5,A,ar,O,r,244,1,1315.2000000476837,284058.2999999523,7229,WL,B,9.0
2,21.907999992370605,learn,38092.000007629395,Thu Nov 13 2025 12:48:03 GMT-0600 (Central Standard Time),285672.89999997616,A,arm,O,m,290,1,1614.6000000238419,284058.2999999523,7229,WL,B,9.0
2,22.241999864578247,learn,37758.00013542175,Thu Nov 13 2025 12:48:03 GMT-0600 (Central Standard Time),286006.1999999285,A,armenter,O,enter,319,1,1947.8999999761581,284058.2999999523,7229,WL,B,9.0
2,26.473999977111816,learn,33526.00002288818,Thu Nov 13 2025 12:48:03 GMT-0600 (Central Standard Time),290238.6999999285,A,g,O,g,4226,1,4232.299999952316,286006.39999997616,7229,WL,B,10.0
2,26.740000009536743,learn,33259.99999046326,Thu Nov 13 2025 12:48:03 GMT-0600 (Central Standard Time),290504.89999997616,A,gr,O,r,249,1,4498.5,286006.39999997616,7229,WL,B,10.0
2,26.924999952316284,learn,33075.000047683716,Thu Nov 13 2025 12:48:03 GMT-0600 (Central Standard Time),290689.39999997616,A,gra,O,a,175,1,4683.0,286006.39999997616,7229,WL,B,10.0
2,27.157000064849854,learn,32842.99993515015,Thu Nov 13 2025 12:48:03 GMT-0600 (Central Standard Time),290921.1999999285,A,gras,O,s,214,1,4914.799999952316,286006.39999997616,7229,WL,B,10.0
2,27.325000047683716,learn,32674.999952316284,Thu Nov 13 2025 12:48:03 GMT-0600 (Central Standard Time),291089.1999999285,A,grass,O,s,159,1,5082.799999952316,286006.39999997616,7229,WL,B,10.0
2,27.806999921798706,learn,32193.000078201294,Thu Nov 13 2025 12:48:03 GMT-0600 (Central Standard Time),291571.6999999285,A,grassenter,O,enter,470,1,5565.299999952316,286006.39999997616,7229,WL,B,10.0
2,29.305999994277954,learn,30694.000005722046,Thu Nov 13 2025 12:48:03 GMT-0600 (Central Standard Time),293070.6999999285,A,c,O,c,1492,1,1498.7999999523163,291571.89999997616,7229,WL,B,11.0
2,29.455999851226807,learn,30544.000148773193,Thu Nov 13 2025 12:48:03 GMT-0600 (Central Standard Time),293220.89999997616,A,cl,O,l,137,1,1649.0,291571.89999997616,7229,WL,B,11.0
2,29.655999898910522,learn,30344.000101089478,Thu Nov 13 2025 12:48:03 GMT-0600 (Central Standard Time),293420.5,A,clo,O,o,195,1,1848.6000000238419,291571.89999997616,7229,WL,B,11.0
2,30.155999898910522,learn,29844.000101089478,Thu Nov 13 2025 12:48:03 GMT-0600 (Central Standard Time),293920.1999999285,A,cloc,O,c,490,1,2348.2999999523163,291571.89999997616,7229,WL,B,11.0
2,30.33899998664856,learn,29661.00001335144,Thu Nov 13 2025 12:48:03 GMT-0600 (Central Standard Time),294103.7999999523,A,clock,O,k,176,1,2531.899999976158,291571.89999997616,7229,WL,B,11.0
2,31.021999835968018,learn,28978.000164031982,Thu Nov 13 2025 12:48:03 GMT-0600 (Central Standard Time),294787.0,A,clockenter,O,enter,680,1,3215.100000023842,291571.89999997616,7229,WL,B,11.0
2,31.50600004196167,learn,28493.99995803833,Thu Nov 13 2025 12:48:03 GMT-0600 (Central Standard Time),295270.39999997616,A,p,O,p,477,1,483.2000000476837,294787.1999999285,7229,WL,B,12.0
2,31.705999851226807,learn,28294.000148773193,Thu Nov 13 2025 12:48:03 GMT-0600 (Central Standard Time),295469.89999997616,A,pi,O,i,193,1,682.7000000476837,294787.1999999285,7229,WL,B,12.0
2,31.905999898910522,learn,28094.000101089478,Thu Nov 13 2025 12:48:03 GMT-0600 (Central Standard Time),295670.1999999285,A,pip,O,p,194,1,883.0,294787.1999999285,7229,WL,B,12.0
2,32.22199988365173,learn,27778.000116348267,Thu Nov 13 2025 12:48:03 GMT-0600 (Central Standard Time),295986.5,A,pipe,O,e,305,1,1199.3000000715256,294787.1999999285,7229,WL,B,12.0
2,32.954999923706055,learn,27045.000076293945,Thu Nov 13 2025 12:48:03 GMT-0600 (Central Standard Time),296719.89999997616,A,pipeenter,O,enter,717,1,1932.7000000476837,294787.1999999285,7229,WL,B,12.0
2,37.72000002861023,learn,22279.99997138977,Thu Nov 13 2025 12:48:03 GMT-0600 (Central Standard Time),301485.6999999285,A,c,O,c,4760,1,4765.600000023842,296720.09999990463,7229,WL,B,13.0
2,37.88599991798401,learn,22114.00008201599,Thu Nov 13 2025 12:48:03 GMT-0600 (Central Standard Time),301651.6999999285,A,ci,O,i,145,1,4931.600000023842,296720.09999990463,7229,WL,B,13.0
2,38.03600001335144,learn,21963.99998664856,Thu Nov 13 2025 12:48:03 GMT-0600 (Central Standard Time),301801.5,A,cit,O,t,140,1,5081.400000095367,296720.09999990463,7229,WL,B,13.0
2,38.251999855041504,learn,21748.000144958496,Thu Nov 13 2025 12:48:03 GMT-0600 (Central Standard Time),302017.7999999523,A,city,O,y,198,1,5297.700000047684,296720.09999990463,7229,WL,B,13.0
2,39.51900005340576,learn,20480.99994659424,Thu Nov 13 2025 12:48:03 GMT-0600 (Central Standard Time),303284.59999990463,A,cityenter,O,enter,1254,1,6564.5,296720.09999990463,7229,WL,B,13.0
2,48.88199996948242,learn,11118.000030517578,Thu Nov 13 2025 12:48:03 GMT-0600 (Central Standard Time),312648.0,A,enter,O,enter,9347,1,9363.300000071526,303284.6999999285,7229,WL,B,14.0
2,49.81599998474121,learn,10184.000015258789,Thu Nov 13 2025 12:48:03 GMT-0600 (Central Standard Time),313582.09999990463,A,enter,O,enter,928,1,933.8999999761581,312648.1999999285,7229,WL,B,15.0
3,0.46700000762939453,learn,59532.999992370605,Thu Nov 13 2025 12:48:03 GMT-0600 (Central Standard Time),381276.39999997616,A,s,O,s,462,1,466.60000002384186,380809.7999999523,7229,WL,B,1.0
3,0.8999998569488525,learn,59100.00014305115,Thu Nov 13 2025 12:48:03 GMT-0600 (Central Standard Time),381709.5,A,st,O,t,419,1,899.7000000476837,380809.7999999523,7229,WL,B,1.0
3,1.1349999904632568,learn,58865.00000953674,Thu Nov 13 2025 12:48:03 GMT-0600 (Central Standard Time),381943.7999999523,A,str,O,r,226,1,1134.0,380809.7999999523,7229,WL,B,1.0
3,1.3509998321533203,learn,58649.00016784668,Thu Nov 13 2025 12:48:03 GMT-0600 (Central Standard Time),382160.0,A,stre,O,e,208,1,1350.2000000476837,380809.7999999523,7229,WL,B,1.0
3,1.5499999523162842,learn,58450.000047683716,Thu Nov 13 2025 12:48:03 GMT-0600 (Central Standard Time),382359.0,A,stree,O,e,191,1,1549.2000000476837,380809.7999999523,7229,WL,B,1.0
3,1.75,learn,58250.0,Thu Nov 13 2025 12:48:03 GMT-0600 (Central Standard Time),382559.39999997616,A,street,O,t,192,1,1749.6000000238419,380809.7999999523,7229,WL,B,1.0
3,2.682999849319458,learn,57317.00015068054,Thu Nov 13 2025 12:48:03 GMT-0600 (Central Standard Time),383492.1999999285,A,streetenter,O,enter,920,1,2682.399999976158,380809.7999999523,7229,WL,B,1.0
3,3.0989999771118164,learn,56901.00002288818,Thu Nov 13 2025 12:48:03 GMT-0600 (Central Standard Time),383908.59999990463,A,g,O,g,412,1,416.09999990463257,383492.5,7229,WL,B,2.0
3,3.382999897003174,learn,56617.000102996826,Thu Nov 13 2025 12:48:03 GMT-0600 (Central Standard Time),384192.1999999285,A,gr,O,r,267,1,699.6999999284744,383492.5,7229,WL,B,2.0
3,3.616999864578247,learn,56383.00013542175,Thu Nov 13 2025 12:48:03 GMT-0600 (Central Standard Time),384426.2999999523,A,gra,O,a,216,1,933.7999999523163,383492.5,7229,WL,B,2.0
3,3.8320000171661377,learn,56167.99998283386,Thu Nov 13 2025 12:48:03 GMT-0600 (Central Standard Time),384641.5,A,gras,O,s,197,1,1149.0,383492.5,7229,WL,B,2.0
3,3.998999834060669,learn,56001.00016593933,Thu Nov 13 2025 12:48:03 GMT-0600 (Central Standard Time),384808.09999990463,A,grass,O,s,150,1,1315.5999999046326,383492.5,7229,WL,B,2.0
3,4.414999961853027,learn,55585.00003814697,Thu Nov 13 2025 12:48:03 GMT-0600 (Central Standard Time),385224.59999990463,A,grassenter,O,enter,399,1,1732.0999999046326,383492.5,7229,WL,B,2.0
3,4.75,learn,55250.0,Thu Nov 13 2025 12:48:03 GMT-0600 (Central Standard Time),385558.89999997616,A,d,O,d,319,1,334.10000002384186,385224.7999999523,7229,WL,B,3.0
3,4.9659998416900635,learn,55034.00015830994,Thu Nov 13 2025 12:48:03 GMT-0600 (Central Standard Time),385774.89999997616,A,do,O,o,201,1,550.1000000238419,385224.7999999523,7229,WL,B,3.0
3,5.1499998569488525,learn,54850.00014305115,Thu Nov 13 2025 12:48:03 GMT-0600 (Central Standard Time),385959.0,A,doo,O,o,177,1,734.2000000476837,385224.7999999523,7229,WL,B,3.0
3,5.315999984741211,learn,54684.00001525879,Thu Nov 13 2025 12:48:03 GMT-0600 (Central Standard Time),386125.39999997616,A,door,O,r,146,1,900.6000000238419,385224.7999999523,7229,WL,B,3.0
3,5.914999961853027,learn,54085.00003814697,Thu Nov 13 2025 12:48:03 GMT-0600 (Central Standard Time),386724.1999999285,A,doorenter,O,enter,586,1,1499.3999999761581,385224.7999999523,7229,WL,B,3.0
3,7.297999858856201,learn,52702.0001411438,Thu Nov 13 2025 12:48:03 GMT-0600 (Central Standard Time),388107.09999990463,A,a,O,a,1371,1,1382.6999999284744,386724.39999997616,7229,WL,B,4.0
3,7.613999843597412,learn,52386.00015640259,Thu Nov 13 2025 12:48:03 GMT-0600 (Central Standard Time),388423.59999990463,A,ar,O,r,309,1,1699.1999999284744,386724.39999997616,7229,WL,B,4.0
3,7.764999866485596,learn,52235.000133514404,Thu Nov 13 2025 12:48:03 GMT-0600 (Central Standard Time),388573.6999999285,A,arm,O,m,144,1,1849.2999999523163,386724.39999997616,7229,WL,B,4.0
3,8.21399998664856,learn,51786.00001335144,Thu Nov 13 2025 12:48:03 GMT-0600 (Central Standard Time),389023.2999999523,A,armenter,O,enter,442,1,2298.899999976158,386724.39999997616,7229,WL,B,4.0
3,8.413999795913696,learn,51586.000204086304,Thu Nov 13 2025 12:48:03 GMT-0600 (Central Standard Time),389223.2999999523,A,s,O,s,185,1,199.70000004768372,389023.59999990463,7229,WL,B,5.0
3,8.63099980354309,learn,51369.00019645691,Thu Nov 13 2025 12:48:03 GMT-0600 (Central Standard Time),389440.1999999285,A,st,O,t,207,1,416.60000002384186,389023.59999990463,7229,WL,B,5.0
3,8.830999851226807,learn,51169.00014877319,Thu Nov 13 2025 12:48:03 GMT-0600 (Central Standard Time),389639.7999999523,A,sta,O,a,192,1,616.2000000476837,389023.59999990463,7229,WL,B,5.0
3,8.980999946594238,learn,51019.00005340576,Thu Nov 13 2025 12:48:03 GMT-0600 (Central Standard Time),389790.1999999285,A,star,O,r,143,1,766.6000000238419,389023.59999990463,7229,WL,B,5.0
3,10.54699993133545,learn,49453.00006866455,Thu Nov 13 2025 12:48:03 GMT-0600 (Central Standard Time),391356.2999999523,A,starenter,O,enter,1554,1,2332.7000000476837,389023.59999990463,7229,WL,B,5.0
3,11.079999923706055,learn,48920.000076293945,Thu Nov 13 2025 12:48:03 GMT-0600 (Central Standard Time),391889.0,A,w,O,w,516,1,532.5,391356.5,7229,WL,B,6.0
3,11.312999963760376,learn,48687.000036239624,Thu Nov 13 2025 12:48:03 GMT-0600 (Central Standard Time),392122.5,A,wi,O,i,222,1,766.0,391356.5,7229,WL,B,6.0
3,11.52999997138977,learn,48470.00002861023,Thu Nov 13 2025 12:48:03 GMT-0600 (Central Standard Time),392339.59999990463,A,wif,O,f,205,1,983.0999999046326,391356.5,7229,WL,B,6.0
3,12.29699993133545,learn,47703.00006866455,Thu Nov 13 2025 12:48:03 GMT-0600 (Central Standard Time),393105.89999997616,A,wife,O,e,756,1,1749.3999999761581,391356.5,7229,WL,B,6.0
3,12.595999956130981,learn,47404.00004386902,Thu Nov 13 2025 12:48:03 GMT-0600 (Central Standard Time),393405.5,A,wifeenter,O,enter,294,1,2049.0,391356.5,7229,WL,B,6.0
3,12.879999876022339,learn,47120.00012397766,Thu Nov 13 2025 12:48:03 GMT-0600 (Central Standard Time),393689.0,A,w,O,w,275,1,283.40000009536743,393405.59999990463,7229,WL,B,7.0
3,13.02999997138977,learn,46970.00002861023,Thu Nov 13 2025 12:48:03 GMT-0600 (Central Standard Time),393839.1999999285,A,wi,O,i,143,1,433.60000002384186,393405.59999990463,7229,WL,B,7.0
3,13.21399998664856,learn,46786.00001335144,Thu Nov 13 2025 12:48:03 GMT-0600 (Central Standard Time),394022.89999997616,A,win,O,n,176,1,617.3000000715256,393405.59999990463,7229,WL,B,7.0
3,13.428999900817871,learn,46571.00009918213,Thu Nov 13 2025 12:48:03 GMT-0600 (Central Standard Time),394238.59999990463,A,wind,O,d,209,1,833.0,393405.59999990463,7229,WL,B,7.0
3,13.563999891281128,learn,46436.00010871887,Thu Nov 13 2025 12:48:03 GMT-0600 (Central Standard Time),394372.7999999523,A,windo,O,o,121,1,967.2000000476837,393405.59999990463,7229,WL,B,7.0
3,13.995999813079834,learn,46004.000186920166,Thu Nov 13 2025 12:48:03 GMT-0600 (Central Standard Time),394804.89999997616,A,window,O,w,419,1,1399.3000000715256,393405.59999990463,7229,WL,B,7.0
3,16.727999925613403,learn,43272.0000743866,Thu Nov 13 2025 12:48:03 GMT-0600 (Central Standard Time),397537.59999990463,A,windowenter,O,enter,2715,1,4132.0,393405.59999990463,7229,WL,B,7.0
3,18.194000005722046,learn,41805.999994277954,Thu Nov 13 2025 12:48:03 GMT-0600 (Central Standard Time),399003.59999990463,A,p,O,p,1462,1,1465.7999999523163,397537.7999999523,7229,WL,B,8.0
3,18.42799997329712,learn,41572.00002670288,Thu Nov 13 2025 12:48:03 GMT-0600 (Central Standard Time),399237.1999999285,A,pu,O,u,219,1,1699.3999999761581,397537.7999999523,7229,WL,B,8.0
3,18.561999797821045,learn,41438.000202178955,Thu Nov 13 2025 12:48:03 GMT-0600 (Central Standard Time),399370.89999997616,A,pup,O,p,131,1,1833.1000000238419,397537.7999999523,7229,WL,B,8.0
3,18.8439998626709,learn,41156.0001373291,Thu Nov 13 2025 12:48:03 GMT-0600 (Central Standard Time),399653.1999999285,A,pupl,O,l,269,1,2115.399999976158,397537.7999999523,7229,WL,B,8.0
3,19.393999814987183,learn,40606.00018501282,Thu Nov 13 2025 12:48:03 GMT-0600 (Central Standard Time),400203.59999990463,A,pup,O,backspace,539,1,2665.7999999523163,397537.7999999523,7229,WL,B,8.0
3,19.74399995803833,learn,40256.00004196167,Thu Nov 13 2025 12:48:03 GMT-0600 (Central Standard Time),400553.39999997616,A,pupi,O,i,340,1,3015.600000023842,397537.7999999523,7229,WL,B,8.0
3,19.99399995803833,learn,40006.00004196167,Thu Nov 13 2025 12:48:03 GMT-0600 (Central Standard Time),400803.59999990463,A,pupil,O,l,238,1,3265.7999999523163,397537.7999999523,7229,WL,B,8.0
3,20.82699990272522,learn,39173.00009727478,Thu Nov 13 2025 12:48:03 GMT-0600 (Central Standard Time),401636.5,A,pupilenter,O,enter,820,1,4098.700000047684,397537.7999999523,7229,WL,B,8.0
3,21.459999799728394,learn,38540.00020027161,Thu Nov 13 2025 12:48:03 GMT-0600 (Central Standard Time),402269.59999990463,A,c,O,c,627,1,632.8999999761581,401636.6999999285,7229,WL,B,9.0
3,21.744999885559082,learn,38255.00011444092,Thu Nov 13 2025 12:48:03 GMT-0600 (Central Standard Time),402553.89999997616,A,ca,O,a,273,1,917.2000000476837,401636.6999999285,7229,WL,B,9.0
3,21.959999799728394,learn,38040.00020027161,Thu Nov 13 2025 12:48:03 GMT-0600 (Central Standard Time),402769.39999997616,A,cab,O,b,206,1,1132.7000000476837,401636.6999999285,7229,WL,B,9.0
3,22.175999879837036,learn,37824.000120162964,Thu Nov 13 2025 12:48:03 GMT-0600 (Central Standard Time),402985.5,A,cabi,O,i,198,1,1348.8000000715256,401636.6999999285,7229,WL,B,9.0
3,22.325999975204468,learn,37674.00002479553,Thu Nov 13 2025 12:48:03 GMT-0600 (Central Standard Time),403135.5,A,cabin,O,n,134,1,1498.8000000715256,401636.6999999285,7229,WL,B,9.0
3,22.64299988746643,learn,37357.00011253357,Thu Nov 13 2025 12:48:03 GMT-0600 (Central Standard Time),403452.39999997616,A,cabinenter,O,enter,312,1,1815.7000000476837,401636.6999999285,7229,WL,B,9.0
3,22.959999799728394,learn,37040.00020027161,Thu Nov 13 2025 12:48:03 GMT-0600 (Central Standard Time),403769.0,A,l,O,l,300,1,316.5,403452.5,7229,WL,B,10.0
3,23.05999994277954,learn,36940.00005722046,Thu Nov 13 2025 12:48:03 GMT-0600 (Central Standard Time),403868.89999997616,A,la,O,a,95,1,416.39999997615814,403452.5,7229,WL,B,10.0
3,23.242999792099,learn,36757.000207901,Thu Nov 13 2025 12:48:03 GMT-0600 (Central Standard Time),404052.39999997616,A,lak,O,k,171,1,599.8999999761581,403452.5,7229,WL,B,10.0
3,23.425999879837036,learn,36574.000120162964,Thu Nov 13 2025 12:48:03 GMT-0600 (Central Standard Time),404235.6999999285,A,lake,O,e,172,1,783.1999999284744,403452.5,7229,WL,B,10.0
3,23.875999927520752,learn,36124.00007247925,Thu Nov 13 2025 12:48:03 GMT-0600 (Central Standard Time),404685.59999990463,A,lakeenter,O,enter,436,1,1233.0999999046326,403452.5,7229,WL,B,10.0
3,24.425999879837036,learn,35574.000120162964,Thu Nov 13 2025 12:48:03 GMT-0600 (Central Standard Time),405235.2999999523,A,f,O,f,538,1,549.6000000238419,404685.6999999285,7229,WL,B,11.0
3,24.55900001525879,learn,35440.99998474121,Thu Nov 13 2025 12:48:03 GMT-0600 (Central Standard Time),405368.59999990463,A,fi,O,i,124,1,682.8999999761581,404685.6999999285,7229,WL,B,11.0
3,24.70899987220764,learn,35291.00012779236,Thu Nov 13 2025 12:48:03 GMT-0600 (Central Standard Time),405518.59999990463,A,fir,O,r,135,1,832.8999999761581,404685.6999999285,7229,WL,B,11.0
3,24.80999994277954,learn,35190.00005722046,Thu Nov 13 2025 12:48:03 GMT-0600 (Central Standard Time),405619.09999990463,A,fire,O,e,97,1,933.3999999761581,404685.6999999285,7229,WL,B,11.0
3,25.525999784469604,learn,34474.000215530396,Thu Nov 13 2025 12:48:03 GMT-0600 (Central Standard Time),406335.1999999285,A,fireenter,O,enter,708,1,1649.5,404685.6999999285,7229,WL,B,11.0
3,26.292999982833862,learn,33707.00001716614,Thu Nov 13 2025 12:48:03 GMT-0600 (Central Standard Time),407102.5,A,c,O,c,761,1,767.1000000238419,406335.39999997616,7229,WL,B,12.0
3,26.424999952316284,learn,33575.000047683716,Thu Nov 13 2025 12:48:03 GMT-0600 (Central Standard Time),407234.39999997616,A,cl,O,l,121,1,899.0,406335.39999997616,7229,WL,B,12.0
3,26.64299988746643,learn,33357.00011253357,Thu Nov 13 2025 12:48:03 GMT-0600 (Central Standard Time),407452.1999999285,A,clo,O,o,197,1,1116.7999999523163,406335.39999997616,7229,WL,B,12.0
3,26.80900001525879,learn,33190.99998474121,Thu Nov 13 2025 12:48:03 GMT-0600 (Central Standard Time),407618.0,A,cloc,O,c,155,1,1282.6000000238419,406335.39999997616,7229,WL,B,12.0
3,26.941999912261963,learn,33058.00008773804,Thu Nov 13 2025 12:48:03 GMT-0600 (Central Standard Time),407751.0,A,clock,O,k,126,1,1415.6000000238419,406335.39999997616,7229,WL,B,12.0
3,28.875,learn,31125.0,Thu Nov 13 2025 12:48:03 GMT-0600 (Central Standard Time),409683.89999997616,A,clockenter,O,enter,1921,1,3348.5,406335.39999997616,7229,WL,B,12.0
3,32.84099984169006,learn,27159.000158309937,Thu Nov 13 2025 12:48:03 GMT-0600 (Central Standard Time),413650.2999999523,A,s,O,s,3948,1,3966.2000000476837,409684.09999990463,7229,WL,B,13.0
3,32.99000000953674,learn,27009.999990463257,Thu Nov 13 2025 12:48:03 GMT-0600 (Central Standard Time),413798.6999999285,A,sk,O,k,141,1,4114.600000023842,409684.09999990463,7229,WL,B,13.0
3,33.222999811172485,learn,26777.000188827515,Thu Nov 13 2025 12:48:03 GMT-0600 (Central Standard Time),414032.6999999285,A,ski,O,i,217,1,4348.600000023842,409684.09999990463,7229,WL,B,13.0
3,33.33999991416931,learn,26660.00008583069,Thu Nov 13 2025 12:48:03 GMT-0600 (Central Standard Time),414149.1999999285,A,skin,O,n,111,1,4465.100000023842,409684.09999990463,7229,WL,B,13.0
3,35.67199993133545,learn,24328.00006866455,Thu Nov 13 2025 12:48:03 GMT-0600 (Central Standard Time),416481.59999990463,A,skinenter,O,enter,2315,1,6797.5,409684.09999990463,7229,WL,B,13.0
3,48.383999824523926,learn,11616.000175476074,Thu Nov 13 2025 12:48:03 GMT-0600 (Central Standard Time),429194.09999990463,A,enter,O,enter,12702,1,12712.299999952316,416481.7999999523,7229,WL,B,14.0
3,49.18400001525879,learn,10815.999984741211,Thu Nov 13 2025 12:48:03 GMT-0600 (Central Standard Time),429994.09999990463,A,enter,O,enter,790,1,799.6999999284744,429194.39999997616,7229,WL,B,15.0
4,0.5,learn,59500.0,Thu Nov 13 2025 12:48:03 GMT-0600 (Central Standard Time),497988.7999999523,A,s,O,s,495,1,499.60000002384186,497489.1999999285,7229,WL,B,1.0
4,1.067000150680542,learn,58932.99984931946,Thu Nov 13 2025 12:48:03 GMT-0600 (Central Standard Time),498555.6999999285,A,st,O,t,555,1,1066.5,497489.1999999285,7229,WL,B,1.0
4,1.3000001907348633,learn,58699.99980926514,Thu Nov 13 2025 12:48:03 GMT-0600 (Central Standard Time),498788.6999999285,A,str,O,r,228,1,1299.5,497489.1999999285,7229,WL,B,1.0
4,1.4670000076293945,learn,58532.999992370605,Thu Nov 13 2025 12:48:03 GMT-0600 (Central Standard Time),498955.59999990463,A,stre,O,e,155,1,1466.3999999761581,497489.1999999285,7229,WL,B,1.0
4,1.6660001277923584,learn,58333.99987220764,Thu Nov 13 2025 12:48:03 GMT-0600 (Central Standard Time),499155.2999999523,A,stree,O,e,188,1,1666.1000000238419,497489.1999999285,7229,WL,B,1.0
4,1.8660001754760742,learn,58133.999824523926,Thu Nov 13 2025 12:48:03 GMT-0600 (Central Standard Time),499355.1999999285,A,street,O,t,189,1,1866.0,497489.1999999285,7229,WL,B,1.0
4,2.499000072479248,learn,57500.99992752075,Thu Nov 13 2025 12:48:03 GMT-0600 (Central Standard Time),499988.39999997616,A,streetenter,O,enter,629,1,2499.2000000476837,497489.1999999285,7229,WL,B,1.0
4,2.884999990463257,learn,57115.00000953674,Thu Nov 13 2025 12:48:03 GMT-0600 (Central Standard Time),500373.7999999523,A,g,O,g,371,1,385.2999999523163,499988.5,7229,WL,B,2.0
4,3.117000102996826,learn,56882.999897003174,Thu Nov 13 2025 12:48:03 GMT-0600 (Central Standard Time),500605.7999999523,A,gr,O,r,223,1,617.2999999523163,499988.5,7229,WL,B,2.0
4,3.3489999771118164,learn,56651.00002288818,Thu Nov 13 2025 12:48:03 GMT-0600 (Central Standard Time),500838.0,A,gra,O,a,218,1,849.5,499988.5,7229,WL,B,2.0
4,3.5320000648498535,learn,56467.99993515015,Thu Nov 13 2025 12:48:03 GMT-0600 (Central Standard Time),501021.2999999523,A,gras,O,s,170,1,1032.7999999523163,499988.5,7229,WL,B,2.0
4,3.683000087738037,learn,56316.99991226196,Thu Nov 13 2025 12:48:03 GMT-0600 (Central Standard Time),501172.39999997616,A,grass,O,s,146,1,1183.8999999761581,499988.5,7229,WL,B,2.0
4,4.182000160217285,learn,55817.999839782715,Thu Nov 13 2025 12:48:03 GMT-0600 (Central Standard Time),501671.39999997616,A,grassenter,O,enter,483,1,1682.8999999761581,499988.5,7229,WL,B,2.0
4,4.549000024795532,learn,55450.99997520447,Thu Nov 13 2025 12:48:03 GMT-0600 (Central Standard Time),502037.89999997616,A,d,O,d,353,1,366.3000000715256,501671.59999990463,7229,WL,B,3.0
4,4.716000080108643,learn,55283.99991989136,Thu Nov 13 2025 12:48:03 GMT-0600 (Central Standard Time),502204.6999999285,A,do,O,o,154,1,533.1000000238419,501671.59999990463,7229,WL,B,3.0
4,4.89900016784668,learn,55100.99983215332,Thu Nov 13 2025 12:48:03 GMT-0600 (Central Standard Time),502387.59999990463,A,doo,O,o,179,1,716.0,501671.59999990463,7229,WL,B,3.0
4,5.016000032424927,learn,54983.99996757507,Thu Nov 13 2025 12:48:03 GMT-0600 (Central Standard Time),502504.5,A,door,O,r,108,1,832.9000000953674,501671.59999990463,7229,WL,B,3.0
4,5.565999984741211,learn,54434.00001525879,Thu Nov 13 2025 12:48:03 GMT-0600 (Central Standard Time),503055.0,A,doorenter,O,enter,535,1,1383.4000000953674,501671.59999990463,7229,WL,B,3.0
4,6.0980000495910645,learn,53901.999950408936,Thu Nov 13 2025 12:48:03 GMT-0600 (Central Standard Time),503587.39999997616,A,a,O,a,513,1,532.2000000476837,503055.1999999285,7229,WL,B,4.0
4,6.2820000648498535,learn,53717.99993515015,Thu Nov 13 2025 12:48:03 GMT-0600 (Central Standard Time),503770.6999999285,A,ar,O,r,164,1,715.5,503055.1999999285,7229,WL,B,4.0
4,6.430999994277954,learn,53569.000005722046,Thu Nov 13 2025 12:48:03 GMT-0600 (Central Standard Time),503920.39999997616,A,arm,O,m,133,1,865.2000000476837,503055.1999999285,7229,WL,B,4.0
4,6.9150002002716064,learn,53084.99979972839,Thu Nov 13 2025 12:48:03 GMT-0600 (Central Standard Time),504403.7999999523,A,armenter,O,enter,471,1,1348.6000000238419,503055.1999999285,7229,WL,B,4.0
4,7.198000192642212,learn,52801.99980735779,Thu Nov 13 2025 12:48:03 GMT-0600 (Central Standard Time),504686.59999990463,A,s,O,s,268,1,282.6999999284744,504403.89999997616,7229,WL,B,5.0
4,7.365000009536743,learn,52634.99999046326,Thu Nov 13 2025 12:48:03 GMT-0600 (Central Standard Time),504853.6999999285,A,st,O,t,161,1,449.7999999523163,504403.89999997616,7229,WL,B,5.0
4,7.515000104904175,learn,52484.999895095825,Thu Nov 13 2025 12:48:03 GMT-0600 (Central Standard Time),505003.5,A,sta,O,a,138,1,599.6000000238419,504403.89999997616,7229,WL,B,5.0
4,7.664000034332275,learn,52335.999965667725,Thu Nov 13 2025 12:48:03 GMT-0600 (Central Standard Time),505153.1999999285,A,star,O,r,132,1,749.2999999523163,504403.89999997616,7229,WL,B,5.0
4,8.264000177383423,learn,51735.99982261658,Thu Nov 13 2025 12:48:03 GMT-0600 (Central Standard Time),505753.09999990463,A,starenter,O,enter,583,1,1349.1999999284744,504403.89999997616,7229,WL,B,5.0
4,8.531000137329102,learn,51468.9998626709,Thu Nov 13 2025 12:48:03 GMT-0600 (Central Standard Time),506019.6999999285,A,w,O,w,255,1,266.39999997615814,505753.2999999523,7229,WL,B,6.0
4,8.63100004196167,learn,51368.99995803833,Thu Nov 13 2025 12:48:03 GMT-0600 (Central Standard Time),506119.5,A,wi,O,i,91,1,366.2000000476837,505753.2999999523,7229,WL,B,6.0
4,8.748000144958496,learn,51251.999855041504,Thu Nov 13 2025 12:48:03 GMT-0600 (Central Standard Time),506236.6999999285,A,wif,O,f,112,1,483.39999997615814,505753.2999999523,7229,WL,B,6.0
4,8.930999994277954,learn,51069.000005722046,Thu Nov 13 2025 12:48:03 GMT-0600 (Central Standard Time),506420.2999999523,A,wife,O,e,171,1,667.0,505753.2999999523,7229,WL,B,6.0
4,9.448000192642212,learn,50551.99980735779,Thu Nov 13 2025 12:48:03 GMT-0600 (Central Standard Time),506936.6999999285,A,wifeenter,O,enter,499,1,1183.3999999761581,505753.2999999523,7229,WL,B,6.0
4,9.664000034332275,learn,50335.999965667725,Thu Nov 13 2025 12:48:03 GMT-0600 (Central Standard Time),507152.59999990463,A,w,O,w,199,1,215.69999992847443,506936.89999997616,7229,WL,B,7.0
4,9.79800009727478,learn,50201.99990272522,Thu Nov 13 2025 12:48:03 GMT-0600 (Central Standard Time),507286.6999999285,A,wi,O,i,119,1,349.7999999523163,506936.89999997616,7229,WL,B,7.0
4,9.948000192642212,learn,50051.99980735779,Thu Nov 13 2025 12:48:03 GMT-0600 (Central Standard Time),507436.6999999285,A,win,O,n,147,1,499.7999999523163,506936.89999997616,7229,WL,B,7.0
4,10.164000034332275,learn,49835.999965667725,Thu Nov 13 2025 12:48:03 GMT-0600 (Central Standard Time),507652.7999999523,A,wind,O,d,203,1,715.8999999761581,506936.89999997616,7229,WL,B,7.0
4,10.29800009727478,learn,49701.99990272522,Thu Nov 13 2025 12:48:03 GMT-0600 (Central Standard Time),507786.7999999523,A,windo,O,o,115,1,849.8999999761581,506936.89999997616,7229,WL,B,7.0
4,10.44700002670288,learn,49552.99997329712,Thu Nov 13 2025 12:48:03 GMT-0600 (Central Standard Time),507935.6999999285,A,window,O,w,133,1,998.7999999523163,506936.89999997616,7229,WL,B,7.0
4,11.813000202178955,learn,48186.999797821045,Thu Nov 13 2025 12:48:03 GMT-0600 (Central Standard Time),509302.1999999285,A,windowenter,O,enter,1360,1,2365.2999999523163,506936.89999997616,7229,WL,B,7.0
4,13.013000011444092,learn,46986.99998855591,Thu Nov 13 2025 12:48:03 GMT-0600 (Central Standard Time),510502.09999990463,A,c,O,c,1194,1,1199.6999999284744,509302.39999997616,7229,WL,B,8.0
4,13.213000059127808,learn,46786.99994087219,Thu Nov 13 2025 12:48:03 GMT-0600 (Central Standard Time),510701.89999997616,A,ci,O,i,194,1,1399.5,509302.39999997616,7229,WL,B,8.0
4,13.347000122070312,learn,46652.99987792969,Thu Nov 13 2025 12:48:03 GMT-0600 (Central Standard Time),510835.6999999285,A,cit,O,t,114,1,1533.2999999523163,509302.39999997616,7229,WL,B,8.0
4,13.480000019073486,learn,46519.999980926514,Thu Nov 13 2025 12:48:03 GMT-0600 (Central Standard Time),510968.7999999523,A,city,O,y,124,1,1666.3999999761581,509302.39999997616,7229,WL,B,8.0
4,14.09600019454956,learn,45903.99980545044,Thu Nov 13 2025 12:48:03 GMT-0600 (Central Standard Time),511585.1999999285,A,cityenter,O,enter,599,1,2282.7999999523163,509302.39999997616,7229,WL,B,8.0
4,15.797000169754028,learn,44202.99983024597,Thu Nov 13 2025 12:48:03 GMT-0600 (Central Standard Time),513285.5,A,s,O,s,1695,1,1700.1000000238419,511585.39999997616,7229,WL,B,9.0
4,15.92900013923645,learn,44070.99986076355,Thu Nov 13 2025 12:48:03 GMT-0600 (Central Standard Time),513417.89999997616,A,sk,O,k,122,1,1832.5,511585.39999997616,7229,WL,B,9.0
4,16.128000020980835,learn,43871.999979019165,Thu Nov 13 2025 12:48:03 GMT-0600 (Central Standard Time),513617.5,A,ski,O,i,182,1,2032.1000000238419,511585.39999997616,7229,WL,B,9.0
4,16.246000051498413,learn,43753.99994850159,Thu Nov 13 2025 12:48:03 GMT-0600 (Central Standard Time),513735.09999990463,A,skin,O,n,110,1,2149.6999999284744,511585.39999997616,7229,WL,B,9.0
4,16.894999980926514,learn,43105.000019073486,Thu Nov 13 2025 12:48:03 GMT-0600 (Central Standard Time),514384.0,A,skinenter,O,enter,641,1,2798.600000023842,511585.39999997616,7229,WL,B,9.0
4,18.49400019645691,learn,41505.99980354309,Thu Nov 13 2025 12:48:03 GMT-0600 (Central Standard Time),515983.0,A,p,O,p,1584,1,1598.8000000715256,514384.1999999285,7229,WL,B,10.0
4,18.66100001335144,learn,41338.99998664856,Thu Nov 13 2025 12:48:03 GMT-0600 (Central Standard Time),516150.0,A,pi,O,i,153,1,1765.8000000715256,514384.1999999285,7229,WL,B,10.0
4,18.8270001411438,learn,41172.9998588562,Thu Nov 13 2025 12:48:03 GMT-0600 (Central Standard Time),516316.2999999523,A,pip,O,p,154,1,1932.1000000238419,514384.1999999285,7229,WL,B,10.0
4,19.312000036239624,learn,40687.999963760376,Thu Nov 13 2025 12:48:03 GMT-0600 (Central Standard Time),516800.5,A,pipe,O,e,468,1,2416.3000000715256,514384.1999999285,7229,WL,B,10.0
4,19.694000005722046,learn,40305.999994277954,Thu Nov 13 2025 12:48:03 GMT-0600 (Central Standard Time),517183.1999999285,A,pipeenter,O,enter,375,1,2799.0,514384.1999999285,7229,WL,B,10.0
4,20.361999988555908,learn,39638.00001144409,Thu Nov 13 2025 12:48:03 GMT-0600 (Central Standard Time),517850.59999990463,A,c,O,c,649,1,667.2999999523163,517183.2999999523,7229,WL,B,11.0
4,20.49400019645691,learn,39505.99980354309,Thu Nov 13 2025 12:48:03 GMT-0600 (Central Standard Time),517982.6999999285,A,cl,O,l,125,1,799.3999999761581,517183.2999999523,7229,WL,B,11.0
4,20.8270001411438,learn,39172.9998588562,Thu Nov 13 2025 12:48:03 GMT-0600 (Central Standard Time),518315.89999997616,A,clo,O,o,321,1,1132.6000000238419,517183.2999999523,7229,WL,B,11.0
4,20.993000030517578,learn,39006.99996948242,Thu Nov 13 2025 12:48:03 GMT-0600 (Central Standard Time),518482.2999999523,A,cloc,O,c,148,1,1299.0,517183.2999999523,7229,WL,B,11.0
4,21.110000133514404,learn,38889.999866485596,Thu Nov 13 2025 12:48:03 GMT-0600 (Central Standard Time),518599.2999999523,A,clock,O,k,101,1,1416.0,517183.2999999523,7229,WL,B,11.0
4,21.460000038146973,learn,38539.99996185303,Thu Nov 13 2025 12:48:03 GMT-0600 (Central Standard Time),518948.7999999523,A,clockenter,O,enter,336,1,1765.5,517183.2999999523,7229,WL,B,11.0
4,22.06000018119812,learn,37939.99981880188,Thu Nov 13 2025 12:48:03 GMT-0600 (Central Standard Time),519548.6999999285,A,f,O,f,595,1,599.6999999284744,518949.0,7229,WL,B,12.0
4,22.194000005722046,learn,37805.999994277954,Thu Nov 13 2025 12:48:03 GMT-0600 (Central Standard Time),519683.09999990463,A,fi,O,i,115,1,734.0999999046326,518949.0,7229,WL,B,12.0
4,22.30900001525879,learn,37690.99998474121,Thu Nov 13 2025 12:48:03 GMT-0600 (Central Standard Time),519798.39999997616,A,fir,O,r,109,1,849.3999999761581,518949.0,7229,WL,B,12.0
4,22.4760000705719,learn,37523.9999294281,Thu Nov 13 2025 12:48:03 GMT-0600 (Central Standard Time),519965.0,A,fire,O,e,154,1,1016.0,518949.0,7229,WL,B,12.0
4,24.026000022888184,learn,35973.99997711182,Thu Nov 13 2025 12:48:03 GMT-0600 (Central Standard Time),521515.09999990463,A,fireenter,O,enter,1547,1,2566.0999999046326,518949.0,7229,WL,B,12.0
4,24.359000205993652,learn,35640.99979400635,Thu Nov 13 2025 12:48:03 GMT-0600 (Central Standard Time),521848.0,A,p,O,p,317,1,332.7000000476837,521515.2999999523,7229,WL,B,13.0
4,24.575999975204468,learn,35424.00002479553,Thu Nov 13 2025 12:48:03 GMT-0600 (Central Standard Time),522065.39999997616,A,pu,O,u,200,1,550.1000000238419,521515.2999999523,7229,WL,B,13.0
4,24.743000030517578,learn,35256.99996948242,Thu Nov 13 2025 12:48:03 GMT-0600 (Central Standard Time),522232.09999990463,A,pup,O,p,158,1,716.7999999523163,521515.2999999523,7229,WL,B,13.0
4,25.027000188827515,learn,34972.999811172485,Thu Nov 13 2025 12:48:03 GMT-0600 (Central Standard Time),522515.59999990463,A,pupi,O,i,264,1,1000.2999999523163,521515.2999999523,7229,WL,B,13.0
4,25.259999990463257,learn,34740.00000953674,Thu Nov 13 2025 12:48:03 GMT-0600 (Central Standard Time),522748.59999990463,A,pupil,O,l,228,1,1233.2999999523163,521515.2999999523,7229,WL,B,13.0
4,25.842000007629395,learn,34157.999992370605,Thu Nov 13 2025 12:48:03 GMT-0600 (Central Standard Time),523331.1999999285,A,pupilenter,O,enter,563,1,1815.8999999761581,521515.2999999523,7229,WL,B,13.0
4,45.51700019836426,learn,14482.999801635742,Thu Nov 13 2025 12:48:03 GMT-0600 (Central Standard Time),543007.5999999046,A,s,O,s,19661,1,19676.199999928474,523331.39999997616,7229,WL,B,14.0
4,45.70099997520447,learn,14299.000024795532,Thu Nov 13 2025 12:48:03 GMT-0600 (Central Standard Time),543190.8999999762,A,sk,O,k,168,1,19859.5,523331.39999997616,7229,WL,B,14.0
4,45.93400001525879,learn,14065.999984741211,Thu Nov 13 2025 12:48:03 GMT-0600 (Central Standard Time),543424.5,A,ski,O,i,225,1,20093.100000023842,523331.39999997616,7229,WL,B,14.0
4,46.10000014305115,learn,13899.999856948853,Thu Nov 13 2025 12:48:03 GMT-0600 (Central Standard Time),543590.7999999523,A,skin,O,n,159,1,20259.399999976158,523331.39999997616,7229,WL,B,14.0
4,46.4520001411438,learn,13547.999858856201,Thu Nov 13 2025 12:48:03 GMT-0600 (Central Standard Time),543941.8999999762,A,skinenter,O,enter,337,1,20610.5,523331.39999997616,7229,WL,B,14.0
4,52.28200006484985,learn,7717.9999351501465,Thu Nov 13 2025 12:48:03 GMT-0600 (Central Standard Time),549772.2999999523,A,c,O,c,5818,1,5830.200000047684,543942.0999999046,7229,WL,B,15.0
4,52.64900016784668,learn,7350.99983215332,Thu Nov 13 2025 12:48:03 GMT-0600 (Central Standard Time),550139.1999999285,A,ca,O,a,363,1,6197.100000023842,543942.0999999046,7229,WL,B,15.0
4,52.949000120162964,learn,7050.999879837036,Thu Nov 13 2025 12:48:03 GMT-0600 (Central Standard Time),550439.0,A,cab,O,b,285,1,6496.900000095367,543942.0999999046,7229,WL,B,15.0
4,53.15000009536743,learn,6849.999904632568,Thu Nov 13 2025 12:48:03 GMT-0600 (Central Standard Time),550640.0,A,cabi,O,i,185,1,6697.900000095367,543942.0999999046,7229,WL,B,15.0
4,53.33200001716614,learn,6667.999982833862,Thu Nov 13 2025 12:48:03 GMT-0600 (Central Standard Time),550822.3999999762,A,cabin,O,n,167,1,6880.300000071526,543942.0999999046,7229,WL,B,15.0
4,54.116000175476074,learn,5883.999824523926,Thu Nov 13 2025 12:48:03 GMT-0600 (Central Standard Time),551606.2999999523,A,cabinenter,O,enter,777,1,7664.200000047684,543942.0999999046,7229,WL,B,15.0
5,0.432999849319458,learn,60000.0,Thu Nov 13 2025 12:48:03 GMT-0600 (Central Standard Time),619817.0999999046,A,s,O,s,425,1,433.39999997615814,619383.6999999285,7229,WL,B,1.0
5,0.8499999046325684,learn,60000.0,Thu Nov 13 2025 12:48:03 GMT-0600 (Central Standard Time),620233.1999999285,A,st,O,t,399,1,849.5,619383.6999999285,7229,WL,B,1.0
5,1.1159999370574951,learn,60000.0,Thu Nov 13 2025 12:48:03 GMT-0600 (Central Standard Time),620499.7999999523,A,str,O,r,262,1,1116.1000000238419,619383.6999999285,7229,WL,B,1.0
5,1.3499999046325684,learn,60000.0,Thu Nov 13 2025 12:48:03 GMT-0600 (Central Standard Time),620733.7999999523,A,stre,O,e,228,1,1350.1000000238419,619383.6999999285,7229,WL,B,1.0
5,1.5829999446868896,learn,60000.0,Thu Nov 13 2025 12:48:03 GMT-0600 (Central Standard Time),620966.5,A,stree,O,e,218,1,1582.8000000715256,619383.6999999285,7229,WL,B,1.0
5,1.815999984741211,learn,60000.0,Thu Nov 13 2025 12:48:03 GMT-0600 (Central Standard Time),621199.7999999523,A,street,O,t,217,1,1816.1000000238419,619383.6999999285,7229,WL,B,1.0
5,2.182999849319458,learn,60000.0,Thu Nov 13 2025 12:48:03 GMT-0600 (Central Standard Time),621566.5999999046,A,streetenter,O,enter,360,1,2182.899999976158,619383.6999999285,7229,WL,B,1.0
5,2.5,learn,60000.0,Thu Nov 13 2025 12:48:03 GMT-0600 (Central Standard Time),621883.6999999285,A,g,O,g,297,1,317.0,621566.6999999285,7229,WL,B,2.0
5,2.7819998264312744,learn,60000.0,Thu Nov 13 2025 12:48:03 GMT-0600 (Central Standard Time),622165.6999999285,A,gr,O,r,276,1,599.0,621566.6999999285,7229,WL,B,2.0
5,2.998999834060669,learn,60000.0,Thu Nov 13 2025 12:48:03 GMT-0600 (Central Standard Time),622382.6999999285,A,gra,O,a,210,1,816.0,621566.6999999285,7229,WL,B,2.0
5,3.2149999141693115,learn,60000.0,Thu Nov 13 2025 12:48:03 GMT-0600 (Central Standard Time),622599.0,A,gras,O,s,209,1,1032.3000000715256,621566.6999999285,7229,WL,B,2.0
5,3.432999849319458,learn,60000.0,Thu Nov 13 2025 12:48:03 GMT-0600 (Central Standard Time),622816.7999999523,A,grass,O,s,209,1,1250.1000000238419,621566.6999999285,7229,WL,B,2.0
5,3.815999984741211,learn,60000.0,Thu Nov 13 2025 12:48:03 GMT-0600 (Central Standard Time),623199.8999999762,A,grassenter,O,enter,367,1,1633.2000000476837,621566.6999999285,7229,WL,B,2.0
5,4.115000009536743,learn,60000.0,Thu Nov 13 2025 12:48:03 GMT-0600 (Central Standard Time),623498.5999999046,A,r,O,r,288,1,298.5,623200.0999999046,7229,WL,B,3.0
5,4.915999889373779,learn,60000.0,Thu Nov 13 2025 12:48:03 GMT-0600 (Central Standard Time),624299.2999999523,A,,O,backspace,797,1,1099.2000000476837,623200.0999999046,7229,WL,B,3.0
5,5.081999778747559,learn,60000.0,Thu Nov 13 2025 12:48:03 GMT-0600 (Central Standard Time),624465.7999999523,A,d,O,d,157,1,1265.7000000476837,623200.0999999046,7229,WL,B,3.0
5,5.2149999141693115,learn,60000.0,Thu Nov 13 2025 12:48:03 GMT-0600 (Central Standard Time),624598.7999999523,A,do,O,o,126,1,1398.7000000476837,623200.0999999046,7229,WL,B,3.0
5,5.431999921798706,learn,60000.0,Thu Nov 13 2025 12:48:03 GMT-0600 (Central Standard Time),624815.8999999762,A,doo,O,o,201,1,1615.8000000715256,623200.0999999046,7229,WL,B,3.0
5,5.597999811172485,learn,60000.0,Thu Nov 13 2025 12:48:03 GMT-0600 (Central Standard Time),624981.6999999285,A,door,O,r,160,1,1781.6000000238419,623200.0999999046,7229,WL,B,3.0
5,7.097999811172485,learn,60000.0,Thu Nov 13 2025 12:48:03 GMT-0600 (Central Standard Time),626481.3999999762,A,doorenter,O,enter,1482,1,3281.3000000715256,623200.0999999046,7229,WL,B,3.0
5,7.5309998989105225,learn,60000.0,Thu Nov 13 2025 12:48:03 GMT-0600 (Central Standard Time),626914.3999999762,A,a,O,a,423,1,432.8000000715256,626481.5999999046,7229,WL,B,4.0
5,7.913999795913696,learn,60000.0,Thu Nov 13 2025 12:48:03 GMT-0600 (Central Standard Time),627297.3999999762,A,ar,O,r,374,1,815.8000000715256,626481.5999999046,7229,WL,B,4.0
5,8.047999858856201,learn,60000.0,Thu Nov 13 2025 12:48:03 GMT-0600 (Central Standard Time),627431.6999999285,A,arm,O,m,127,1,950.1000000238419,626481.5999999046,7229,WL,B,4.0
5,8.763999938964844,learn,60000.0,Thu Nov 13 2025 12:48:03 GMT-0600 (Central Standard Time),628147.2999999523,A,armenter,O,enter,712,1,1665.7000000476837,626481.5999999046,7229,WL,B,4.0
5,8.930999994277954,learn,60000.0,Thu Nov 13 2025 12:48:03 GMT-0600 (Central Standard Time),628314.7999999523,A,s,O,s,157,1,167.29999995231628,628147.5,7229,WL,B,5.0
5,9.180999994277954,learn,60000.0,Thu Nov 13 2025 12:48:03 GMT-0600 (Central Standard Time),628564.5999999046,A,st,O,t,245,1,417.09999990463257,628147.5,7229,WL,B,5.0
5,9.396999835968018,learn,60000.0,Thu Nov 13 2025 12:48:03 GMT-0600 (Central Standard Time),628780.8999999762,A,sta,O,a,203,1,633.3999999761581,628147.5,7229,WL,B,5.0
5,9.54699993133545,learn,60000.0,Thu Nov 13 2025 12:48:03 GMT-0600 (Central Standard Time),628930.3999999762,A,star,O,r,131,1,782.8999999761581,628147.5,7229,WL,B,5.0
5,10.046000003814697,learn,60000.0,Thu Nov 13 2025 12:48:03 GMT-0600 (Central Standard Time),629430.0999999046,A,starenter,O,enter,493,1,1282.5999999046326,628147.5,7229,WL,B,5.0
5,10.329999923706055,learn,60000.0,Thu Nov 13 2025 12:48:03 GMT-0600 (Central Standard Time),629713.3999999762,A,w,O,w,266,1,283.10000002384186,629430.2999999523,7229,WL,B,6.0
5,10.562999963760376,learn,60000.0,Thu Nov 13 2025 12:48:03 GMT-0600 (Central Standard Time),629947.1999999285,A,wi,O,i,230,1,516.8999999761581,629430.2999999523,7229,WL,B,6.0
5,10.746999979019165,learn,60000.0,Thu Nov 13 2025 12:48:03 GMT-0600 (Central Standard Time),630130.8999999762,A,wif,O,f,181,1,700.6000000238419,629430.2999999523,7229,WL,B,6.0
5,10.962999820709229,learn,60000.0,Thu Nov 13 2025 12:48:03 GMT-0600 (Central Standard Time),630346.3999999762,A,wife,O,e,205,1,916.1000000238419,629430.2999999523,7229,WL,B,6.0
5,11.462999820709229,learn,60000.0,Thu Nov 13 2025 12:48:03 GMT-0600 (Central Standard Time),630846.6999999285,A,wifeenter,O,enter,493,1,1416.3999999761581,629430.2999999523,7229,WL,B,6.0
5,11.812999963760376,learn,60000.0,Thu Nov 13 2025 12:48:03 GMT-0600 (Central Standard Time),631196.7999999523,A,w,O,w,337,1,349.7999999523163,630847.0,7229,WL,B,7.0
5,11.996999979019165,learn,60000.0,Thu Nov 13 2025 12:48:03 GMT-0600 (Central Standard Time),631380.5999999046,A,wi,O,i,179,1,533.5999999046326,630847.0,7229,WL,B,7.0
5,12.162999868392944,learn,60000.0,Thu Nov 13 2025 12:48:03 GMT-0600 (Central Standard Time),631547.0999999046,A,win,O,n,155,1,700.0999999046326,630847.0,7229,WL,B,7.0
5,12.412999868392944,learn,60000.0,Thu Nov 13 2025 12:48:03 GMT-0600 (Central Standard Time),631797.0,A,wind,O,d,237,1,950.0,630847.0,7229,WL,B,7.0
5,12.52899980545044,learn,60000.0,Thu Nov 13 2025 12:48:03 GMT-0600 (Central Standard Time),631912.6999999285,A,windo,O,o,99,1,1065.6999999284744,630847.0,7229,WL,B,7.0
5,12.696999788284302,learn,60000.0,Thu Nov 13 2025 12:48:03 GMT-0600 (Central Standard Time),632081.0999999046,A,window,O,w,159,1,1234.0999999046326,630847.0,7229,WL,B,7.0
5,13.562999963760376,learn,60000.0,Thu Nov 13 2025 12:48:03 GMT-0600 (Central Standard Time),632946.6999999285,A,windowenter,O,enter,847,1,2099.6999999284744,630847.0,7229,WL,B,7.0
5,13.878999948501587,learn,60000.0,Thu Nov 13 2025 12:48:03 GMT-0600 (Central Standard Time),633262.3999999762,A,c,O,c,301,1,315.5,632946.8999999762,7229,WL,B,8.0
5,13.995999813079834,learn,60000.0,Thu Nov 13 2025 12:48:03 GMT-0600 (Central Standard Time),633380.0999999046,A,ci,O,i,105,1,433.1999999284744,632946.8999999762,7229,WL,B,8.0
5,14.145999908447266,learn,60000.0,Thu Nov 13 2025 12:48:03 GMT-0600 (Central Standard Time),633529.3999999762,A,cit,O,t,132,1,582.5,632946.8999999762,7229,WL,B,8.0
5,14.312999963760376,learn,60000.0,Thu Nov 13 2025 12:48:03 GMT-0600 (Central Standard Time),633696.1999999285,A,city,O,y,150,1,749.2999999523163,632946.8999999762,7229,WL,B,8.0
5,15.161999940872192,learn,60000.0,Thu Nov 13 2025 12:48:03 GMT-0600 (Central Standard Time),634546.0999999046,A,cityenter,O,enter,840,1,1599.1999999284744,632946.8999999762,7229,WL,B,8.0
5,15.578999996185303,learn,60000.0,Thu Nov 13 2025 12:48:03 GMT-0600 (Central Standard Time),634962.6999999285,A,p,O,p,406,1,416.5,634546.1999999285,7229,WL,B,9.0
5,15.84499979019165,learn,60000.0,Thu Nov 13 2025 12:48:03 GMT-0600 (Central Standard Time),635229.0999999046,A,pu,O,u,253,1,682.8999999761581,634546.1999999285,7229,WL,B,9.0
5,16.046000003814697,learn,60000.0,Thu Nov 13 2025 12:48:03 GMT-0600 (Central Standard Time),635429.7999999523,A,pup,O,p,187,1,883.6000000238419,634546.1999999285,7229,WL,B,9.0
5,16.34499979019165,learn,60000.0,Thu Nov 13 2025 12:48:03 GMT-0600 (Central Standard Time),635728.5,A,pupi,O,i,282,1,1182.3000000715256,634546.1999999285,7229,WL,B,9.0
5,16.57799983024597,learn,60000.0,Thu Nov 13 2025 12:48:03 GMT-0600 (Central Standard Time),635961.5,A,pupil,O,l,223,1,1415.3000000715256,634546.1999999285,7229,WL,B,9.0
5,20.3439998626709,learn,60000.0,Thu Nov 13 2025 12:48:03 GMT-0600 (Central Standard Time),639727.2999999523,A,pupilenter,O,enter,3750,1,5181.100000023842,634546.1999999285,7229,WL,B,9.0
5,26.22499990463257,learn,60000.0,Thu Nov 13 2025 12:48:03 GMT-0600 (Central Standard Time),645608.2999999523,A,c,O,c,5873,1,5880.899999976158,639727.3999999762,7229,WL,B,10.0
5,26.424999952316284,learn,60000.0,Thu Nov 13 2025 12:48:03 GMT-0600 (Central Standard Time),645808.6999999285,A,ca,O,a,191,1,6081.299999952316,639727.3999999762,7229,WL,B,10.0
5,26.69099998474121,learn,60000.0,Thu Nov 13 2025 12:48:03 GMT-0600 (Central Standard Time),646075.0999999046,A,cab,O,b,247,1,6347.699999928474,639727.3999999762,7229,WL,B,10.0
5,26.875,learn,60000.0,Thu Nov 13 2025 12:48:03 GMT-0600 (Central Standard Time),646258.3999999762,A,cabi,O,i,173,1,6531.0,639727.3999999762,7229,WL,B,10.0
5,27.007999897003174,learn,60000.0,Thu Nov 13 2025 12:48:03 GMT-0600 (Central Standard Time),646391.5999999046,A,cabin,O,n,125,1,6664.199999928474,639727.3999999762,7229,WL,B,10.0
5,27.45799994468689,learn,60000.0,Thu Nov 13 2025 12:48:03 GMT-0600 (Central Standard Time),646842.0,A,cabinenter,O,enter,432,1,7114.600000023842,639727.3999999762,7229,WL,B,10.0
5,27.973999977111816,learn,60000.0,Thu Nov 13 2025 12:48:03 GMT-0600 (Central Standard Time),647358.0999999046,A,l,O,l,510,1,515.8999999761581,646842.1999999285,7229,WL,B,11.0
5,28.14199995994568,learn,60000.0,Thu Nov 13 2025 12:48:03 GMT-0600 (Central Standard Time),647525.5999999046,A,la,O,a,162,1,683.3999999761581,646842.1999999285,7229,WL,B,11.0
5,28.30899977684021,learn,60000.0,Thu Nov 13 2025 12:48:03 GMT-0600 (Central Standard Time),647692.5,A,lak,O,k,146,1,850.3000000715256,646842.1999999285,7229,WL,B,11.0
5,28.507999897003174,learn,60000.0,Thu Nov 13 2025 12:48:03 GMT-0600 (Central Standard Time),647891.1999999285,A,lake,O,e,195,1,1049.0,646842.1999999285,7229,WL,B,11.0
5,29.090999841690063,learn,60000.0,Thu Nov 13 2025 12:48:03 GMT-0600 (Central Standard Time),648474.3999999762,A,lakeenter,O,enter,573,1,1632.2000000476837,646842.1999999285,7229,WL,B,11.0
5,29.37399983406067,learn,60000.0,Thu Nov 13 2025 12:48:03 GMT-0600 (Central Standard Time),648757.7999999523,A,s,O,s,270,1,283.2999999523163,648474.5,7229,WL,B,12.0
5,29.5239999294281,learn,60000.0,Thu Nov 13 2025 12:48:03 GMT-0600 (Central Standard Time),648907.6999999285,A,sk,O,k,129,1,433.1999999284744,648474.5,7229,WL,B,12.0
5,29.740000009536743,learn,60000.0,Thu Nov 13 2025 12:48:03 GMT-0600 (Central Standard Time),649124.0999999046,A,ski,O,i,204,1,649.5999999046326,648474.5,7229,WL,B,12.0
5,30.024999856948853,learn,60000.0,Thu Nov 13 2025 12:48:03 GMT-0600 (Central Standard Time),649408.5999999046,A,skin,O,n,276,1,934.0999999046326,648474.5,7229,WL,B,12.0
5,33.43899989128113,learn,60000.0,Thu Nov 13 2025 12:48:03 GMT-0600 (Central Standard Time),652823.0,A,skinenter,O,enter,3407,1,4348.5,648474.5,7229,WL,B,12.0
5,35.02199983596802,learn,60000.0,Thu Nov 13 2025 12:48:03 GMT-0600 (Central Standard Time),654406.0,A,f,O,f,1577,1,1582.9000000953674,652823.0999999046,7229,WL,B,13.0
5,35.15499997138977,learn,60000.0,Thu Nov 13 2025 12:48:03 GMT-0600 (Central Standard Time),654539.0,A,fi,O,i,122,1,1715.9000000953674,652823.0999999046,7229,WL,B,13.0
5,35.28999996185303,learn,60000.0,Thu Nov 13 2025 12:48:03 GMT-0600 (Central Standard Time),654673.3999999762,A,fir,O,r,117,1,1850.3000000715256,652823.0999999046,7229,WL,B,13.0
5,35.42199993133545,learn,60000.0,Thu Nov 13 2025 12:48:03 GMT-0600 (Central Standard Time),654805.6999999285,A,fire,O,e,119,1,1982.6000000238419,652823.0999999046,7229,WL,B,13.0
5,35.83899998664856,learn,60000.0,Thu Nov 13 2025 12:48:03 GMT-0600 (Central Standard Time),655223.0999999046,A,fireenter,O,enter,402,1,2400.0,652823.0999999046,7229,WL,B,13.0
5,36.15499997138977,learn,60000.0,Thu Nov 13 2025 12:48:03 GMT-0600 (Central Standard Time),655539.0,A,c,O,c,313,1,315.7000000476837,655223.2999999523,7229,WL,B,14.0
5,36.25499987602234,learn,60000.0,Thu Nov 13 2025 12:48:03 GMT-0600 (Central Standard Time),655639.0,A,cl,O,l,92,1,415.7000000476837,655223.2999999523,7229,WL,B,14.0
5,36.48899984359741,learn,60000.0,Thu Nov 13 2025 12:48:03 GMT-0600 (Central Standard Time),655872.8999999762,A,clo,O,o,217,1,649.6000000238419,655223.2999999523,7229,WL,B,14.0
5,36.65499997138977,learn,60000.0,Thu Nov 13 2025 12:48:03 GMT-0600 (Central Standard Time),656038.5999999046,A,cloc,O,c,151,1,815.2999999523163,655223.2999999523,7229,WL,B,14.0
5,36.77199983596802,learn,60000.0,Thu Nov 13 2025 12:48:03 GMT-0600 (Central Standard Time),656155.3999999762,A,clock,O,k,105,1,932.1000000238419,655223.2999999523,7229,WL,B,14.0
5,37.15499997138977,learn,60000.0,Thu Nov 13 2025 12:48:03 GMT-0600 (Central Standard Time),656539.0999999046,A,clockenter,O,enter,364,1,1315.7999999523163,655223.2999999523,7229,WL,B,14.0
5,57.64699983596802,learn,60000.0,Thu Nov 13 2025 12:48:03 GMT-0600 (Central Standard Time),677031.8999999762,A,enter,O,enter,20486,1,20492.600000023842,656539.2999999523,7229,WL,B,15.0
6,0.568000078201294,distr,59431.999921798706,Thu Nov 13 2025 12:48:03 GMT-0600 (Central Standard Time),761972.0,B,s,O,s,555,1,567.3000000715256,761404.6999999285,7229,WL,B,1.0
6,0.9000000953674316,distr,59099.99990463257,Thu Nov 13 2025 12:48:03 GMT-0600 (Central Standard Time),762304.1999999285,B,st,O,t,324,1,899.5,761404.6999999285,7229,WL,B,1.0
6,1.0499999523162842,distr,58950.000047683716,Thu Nov 13 2025 12:48:03 GMT-0600 (Central Standard Time),762454.1999999285,B,sto,O,o,136,1,1049.5,761404.6999999285,7229,WL,B,1.0
6,1.2009999752044678,distr,58799.00002479553,Thu Nov 13 2025 12:48:03 GMT-0600 (Central Standard Time),762605.1999999285,B,stor,O,r,131,1,1200.5,761404.6999999285,7229,WL,B,1.0
6,1.2999999523162842,distr,58700.000047683716,Thu Nov 13 2025 12:48:03 GMT-0600 (Central Standard Time),762704.0999999046,B,storm,O,m,81,1,1299.3999999761581,761404.6999999285,7229,WL,B,1.0
6,2.632999897003174,distr,57367.000102996826,Thu Nov 13 2025 12:48:03 GMT-0600 (Central Standard Time),764037.1999999285,B,stormenter,O,enter,1327,1,2632.5,761404.6999999285,7229,WL,B,1.0
6,3.1659998893737793,distr,56834.00011062622,Thu Nov 13 2025 12:48:03 GMT-0600 (Central Standard Time),764570.3999999762,B,b,O,b,523,1,533.0,764037.3999999762,7229,WL,B,2.0
6,3.3499999046325684,distr,56650.00009536743,Thu Nov 13 2025 12:48:03 GMT-0600 (Central Standard Time),764754.6999999285,B,bu,O,u,173,1,717.2999999523163,764037.3999999762,7229,WL,B,2.0
6,3.5490000247955322,distr,56450.99997520447,Thu Nov 13 2025 12:48:03 GMT-0600 (Central Standard Time),764953.5999999046,B,bui,O,i,189,1,916.1999999284744,764037.3999999762,7229,WL,B,2.0
6,3.700000047683716,distr,56299.999952316284,Thu Nov 13 2025 12:48:03 GMT-0600 (Central Standard Time),765104.0999999046,B,buil,O,l,134,1,1066.6999999284744,764037.3999999762,7229,WL,B,2.0
6,4.084000110626221,distr,55915.99988937378,Thu Nov 13 2025 12:48:03 GMT-0600 (Central Standard Time),765487.8999999762,B,build,O,d,375,1,1450.5,764037.3999999762,7229,WL,B,2.0
6,4.249000072479248,distr,55750.99992752075,Thu Nov 13 2025 12:48:03 GMT-0600 (Central Standard Time),765653.5999999046,B,buildi,O,i,159,1,1616.1999999284744,764037.3999999762,7229,WL,B,2.0
6,4.381999969482422,distr,55618.00003051758,Thu Nov 13 2025 12:48:03 GMT-0600 (Central Standard Time),765786.6999999285,B,buildin,O,n,122,1,1749.2999999523163,764037.3999999762,7229,WL,B,2.0
6,4.549000024795532,distr,55450.99997520447,Thu Nov 13 2025 12:48:03 GMT-0600 (Central Standard Time),765953.2999999523,B,building,O,g,157,1,1915.8999999761581,764037.3999999762,7229,WL,B,2.0
6,5.016999959945679,distr,54983.00004005432,Thu Nov 13 2025 12:48:03 GMT-0600 (Central Standard Time),766421.3999999762,B,buildingenter,O,enter,463,1,2384.0,764037.3999999762,7229,WL,B,2.0
6,5.41700005531311,distr,54582.99994468689,Thu Nov 13 2025 12:48:03 GMT-0600 (Central Standard Time),766821.0,B,o,O,o,387,1,399.40000009536743,766421.5999999046,7229,WL,B,3.0
6,5.983000040054321,distr,54016.99995994568,Thu Nov 13 2025 12:48:03 GMT-0600 (Central Standard Time),767387.3999999762,B,oc,O,c,555,1,965.8000000715256,766421.5999999046,7229,WL,B,3.0
6,6.25,distr,53750.0,Thu Nov 13 2025 12:48:03 GMT-0600 (Central Standard Time),767654.0,B,oce,O,e,252,1,1232.4000000953674,766421.5999999046,7229,WL,B,3.0
6,6.398000001907349,distr,53601.99999809265,Thu Nov 13 2025 12:48:03 GMT-0600 (Central Standard Time),767802.7999999523,B,ocea,O,a,138,1,1381.2000000476837,766421.5999999046,7229,WL,B,3.0
6,6.747999906539917,distr,53252.00009346008,Thu Nov 13 2025 12:48:03 GMT-0600 (Central Standard Time),768152.5,B,oceaenter,O,enter,341,1,1730.9000000953674,766421.5999999046,7229,WL,B,3.0
6,9.164000034332275,distr,50835.999965667725,Thu Nov 13 2025 12:48:03 GMT-0600 (Central Standard Time),770568.5999999046,B,b,O,b,2400,1,2415.899999976158,768152.6999999285,7229,WL,B,4.0
6,9.313999891281128,distr,50686.00010871887,Thu Nov 13 2025 12:48:03 GMT-0600 (Central Standard Time),770718.2999999523,B,ba,O,a,135,1,2565.600000023842,768152.6999999285,7229,WL,B,4.0
6,9.414999961853027,distr,50585.00003814697,Thu Nov 13 2025 12:48:03 GMT-0600 (Central Standard Time),770819.1999999285,B,bab,O,b,82,1,2666.5,768152.6999999285,7229,WL,B,4.0
6,9.714999914169312,distr,50285.00008583069,Thu Nov 13 2025 12:48:03 GMT-0600 (Central Standard Time),771119.0,B,baby,O,y,292,1,2966.3000000715256,768152.6999999285,7229,WL,B,4.0
6,10.680000066757202,distr,49319.9999332428,Thu Nov 13 2025 12:48:03 GMT-0600 (Central Standard Time),772084.6999999285,B,babyenter,O,enter,960,1,3932.0,768152.6999999285,7229,WL,B,4.0
6,11.11299991607666,distr,48887.00008392334,Thu Nov 13 2025 12:48:03 GMT-0600 (Central Standard Time),772517.7999999523,B,p,O,p,419,1,433.0,772084.7999999523,7229,WL,B,5.0
6,11.29699993133545,distr,48703.00006866455,Thu Nov 13 2025 12:48:03 GMT-0600 (Central Standard Time),772701.0,B,pa,O,a,178,1,616.2000000476837,772084.7999999523,7229,WL,B,5.0
6,11.44700002670288,distr,48552.99997329712,Thu Nov 13 2025 12:48:03 GMT-0600 (Central Standard Time),772851.7999999523,B,pal,O,l,131,1,767.0,772084.7999999523,7229,WL,B,5.0
6,11.614000082015991,distr,48385.99991798401,Thu Nov 13 2025 12:48:03 GMT-0600 (Central Standard Time),773017.8999999762,B,pala,O,a,156,1,933.1000000238419,772084.7999999523,7229,WL,B,5.0
6,11.864000082015991,distr,48135.99991798401,Thu Nov 13 2025 12:48:03 GMT-0600 (Central Standard Time),773268.0999999046,B,palac,O,c,246,1,1183.2999999523163,772084.7999999523,7229,WL,B,5.0
6,12.164000034332275,distr,47835.999965667725,Thu Nov 13 2025 12:48:03 GMT-0600 (Central Standard Time),773567.8999999762,B,palace,O,e,283,1,1483.1000000238419,772084.7999999523,7229,WL,B,5.0
6,14.546000003814697,distr,45453.9999961853,Thu Nov 13 2025 12:48:03 GMT-0600 (Central Standard Time),775949.7999999523,B,palaceenter,O,enter,2368,1,3865.0,772084.7999999523,7229,WL,B,5.0
6,16.128000020980835,distr,43871.999979019165,Thu Nov 13 2025 12:48:03 GMT-0600 (Central Standard Time),777532.7999999523,B,s,O,s,1578,1,1582.7999999523163,775950.0,7229,WL,B,6.0
6,17.128999948501587,distr,42871.00005149841,Thu Nov 13 2025 12:48:03 GMT-0600 (Central Standard Time),778532.8999999762,B,,O,backspace,995,1,2582.899999976158,775950.0,7229,WL,B,6.0
6,20.677000045776367,distr,39322.99995422363,Thu Nov 13 2025 12:48:03 GMT-0600 (Central Standard Time),782082.1999999285,B,p,O,p,3539,1,6132.199999928474,775950.0,7229,WL,B,6.0
6,21.14199995994568,distr,38858.00004005432,Thu Nov 13 2025 12:48:03 GMT-0600 (Central Standard Time),782548.0,B,,O,backspace,454,1,6598.0,775950.0,7229,WL,B,6.0
6,21.39299988746643,distr,38607.00011253357,Thu Nov 13 2025 12:48:03 GMT-0600 (Central Standard Time),782798.5,B,l,O,l,244,1,6848.5,775950.0,7229,WL,B,6.0
6,21.55999994277954,distr,38440.00005722046,Thu Nov 13 2025 12:48:03 GMT-0600 (Central Standard Time),782965.7999999523,B,li,O,i,161,1,7015.799999952316,775950.0,7229,WL,B,6.0
6,21.89299988746643,distr,38107.00011253357,Thu Nov 13 2025 12:48:03 GMT-0600 (Central Standard Time),783298.7999999523,B,lip,O,p,309,1,7348.799999952316,775950.0,7229,WL,B,6.0
6,22.276000022888184,distr,37723.99997711182,Thu Nov 13 2025 12:48:03 GMT-0600 (Central Standard Time),783682.0999999046,B,lipenter,O,enter,365,1,7732.099999904633,775950.0,7229,WL,B,6.0
6,22.625999927520752,distr,37374.00007247925,Thu Nov 13 2025 12:48:03 GMT-0600 (Central Standard Time),784031.5999999046,B,b,O,b,342,1,349.39999997615814,783682.1999999285,7229,WL,B,7.0
6,22.825000047683716,distr,37174.999952316284,Thu Nov 13 2025 12:48:03 GMT-0600 (Central Standard Time),784230.7999999523,B,ba,O,a,192,1,548.6000000238419,783682.1999999285,7229,WL,B,7.0
6,23.04200005531311,distr,36957.99994468689,Thu Nov 13 2025 12:48:03 GMT-0600 (Central Standard Time),784447.6999999285,B,bar,O,r,209,1,765.5,783682.1999999285,7229,WL,B,7.0
6,24.825000047683716,distr,35174.999952316284,Thu Nov 13 2025 12:48:03 GMT-0600 (Central Standard Time),786230.6999999285,B,barenter,O,enter,1768,1,2548.5,783682.1999999285,7229,WL,B,7.0
6,27.47499990463257,distr,32525.00009536743,Thu Nov 13 2025 12:48:03 GMT-0600 (Central Standard Time),788880.3999999762,B,enter,O,enter,2633,1,2649.399999976158,786231.0,7229,WL,B,8.0
6,27.85700011253357,distr,32142.99988746643,Thu Nov 13 2025 12:48:03 GMT-0600 (Central Standard Time),789262.3999999762,B,enter,O,enter,375,1,381.7000000476837,788880.6999999285,7229,WL,B,9.0
6,28.19099998474121,distr,31809.00001525879,Thu Nov 13 2025 12:48:03 GMT-0600 (Central Standard Time),789596.2999999523,B,enter,O,enter,330,1,333.60000002384186,789262.6999999285,7229,WL,B,10.0
6,28.539999961853027,distr,31460.000038146973,Thu Nov 13 2025 12:48:03 GMT-0600 (Central Standard Time),789945.8999999762,B,enter,O,enter,332,1,349.39999997615814,789596.5,7229,WL,B,11.0
6,28.890000104904175,distr,31109.999895095825,Thu Nov 13 2025 12:48:03 GMT-0600 (Central Standard Time),790295.6999999285,B,enter,O,enter,342,1,349.5,789946.1999999285,7229,WL,B,12.0
6,29.289999961853027,distr,30710.000038146973,Thu Nov 13 2025 12:48:03 GMT-0600 (Central Standard Time),790695.8999999762,B,enter,O,enter,392,1,399.89999997615814,790296.0,7229,WL,B,13.0
6,29.7739999294281,distr,30226.0000705719,Thu Nov 13 2025 12:48:03 GMT-0600 (Central Standard Time),791179.1999999285,B,enter,O,enter,464,1,483.0,790696.1999999285,7229,WL,B,14.0
6,30.240999937057495,distr,29759.000062942505,Thu Nov 13 2025 12:48:03 GMT-0600 (Central Standard Time),791646.3999999762,B,enter,O,enter,452,1,467.0,791179.3999999762,7229,WL,B,15.0
7,6.230999946594238,immed,53769.00005340576,Thu Nov 13 2025 12:48:03 GMT-0600 (Central Standard Time),829916.5,A,s,O,s,6227,1,6231.0,823685.5,7229,WL,B,1.0
7,6.71399998664856,immed,53286.00001335144,Thu Nov 13 2025 12:48:03 GMT-0600 (Central Standard Time),830400.0,A,st,O,t,475,1,6714.5,823685.5,7229,WL,B,1.0
7,6.947999954223633,immed,53052.00004577637,Thu Nov 13 2025 12:48:03 GMT-0600 (Central Standard Time),830633.1999999285,A,str,O,r,216,1,6947.699999928474,823685.5,7229,WL,B,1.0
7,7.147000074386597,immed,52852.9999256134,Thu Nov 13 2025 12:48:03 GMT-0600 (Central Standard Time),830832.7999999523,A,stre,O,e,183,1,7147.299999952316,823685.5,7229,WL,B,1.0
7,7.314000129699707,immed,52685.99987030029,Thu Nov 13 2025 12:48:03 GMT-0600 (Central Standard Time),830999.8999999762,A,stree,O,e,159,1,7314.399999976158,823685.5,7229,WL,B,1.0
7,7.54800009727478,immed,52451.99990272522,Thu Nov 13 2025 12:48:03 GMT-0600 (Central Standard Time),831233.6999999285,A,street,O,t,216,1,7548.199999928474,823685.5,7229,WL,B,1.0
7,8.27999997138977,immed,51720.00002861023,Thu Nov 13 2025 12:48:03 GMT-0600 (Central Standard Time),831965.7999999523,A,streetenter,O,enter,718,1,8280.299999952316,823685.5,7229,WL,B,1.0
7,8.69700002670288,immed,51302.99997329712,Thu Nov 13 2025 12:48:03 GMT-0600 (Central Standard Time),832382.3999999762,A,g,O,g,402,1,416.5,831965.8999999762,7229,WL,B,2.0
7,8.998000144958496,immed,51001.999855041504,Thu Nov 13 2025 12:48:03 GMT-0600 (Central Standard Time),832683.3999999762,A,gr,O,r,289,1,717.5,831965.8999999762,7229,WL,B,2.0
7,9.312999963760376,immed,50687.000036239624,Thu Nov 13 2025 12:48:03 GMT-0600 (Central Standard Time),832998.6999999285,A,gra,O,a,300,1,1032.7999999523163,831965.8999999762,7229,WL,B,2.0
7,9.564000129699707,immed,50435.99987030029,Thu Nov 13 2025 12:48:03 GMT-0600 (Central Standard Time),833249.7999999523,A,gras,O,s,233,1,1283.8999999761581,831965.8999999762,7229,WL,B,2.0
7,9.746999979019165,immed,50253.000020980835,Thu Nov 13 2025 12:48:03 GMT-0600 (Central Standard Time),833433.0,A,grass,O,s,166,1,1467.1000000238419,831965.8999999762,7229,WL,B,2.0
7,10.44700002670288,immed,49552.99997329712,Thu Nov 13 2025 12:48:03 GMT-0600 (Central Standard Time),834132.1999999285,A,grassenter,O,enter,694,1,2166.2999999523163,831965.8999999762,7229,WL,B,2.0
7,10.996999979019165,immed,49003.000020980835,Thu Nov 13 2025 12:48:03 GMT-0600 (Central Standard Time),834682.6999999285,A,d,O,d,540,1,550.2999999523163,834132.3999999762,7229,WL,B,3.0
7,11.263999938964844,immed,48736.000061035156,Thu Nov 13 2025 12:48:03 GMT-0600 (Central Standard Time),834949.1999999285,A,do,O,o,261,1,816.7999999523163,834132.3999999762,7229,WL,B,3.0
7,11.44700002670288,immed,48552.99997329712,Thu Nov 13 2025 12:48:03 GMT-0600 (Central Standard Time),835132.3999999762,A,doo,O,o,179,1,1000.0,834132.3999999762,7229,WL,B,3.0
7,11.611999988555908,immed,48388.00001144409,Thu Nov 13 2025 12:48:03 GMT-0600 (Central Standard Time),835297.6999999285,A,door,O,r,148,1,1165.2999999523163,834132.3999999762,7229,WL,B,3.0
7,13.444999933242798,immed,46555.0000667572,Thu Nov 13 2025 12:48:03 GMT-0600 (Central Standard Time),837130.7999999523,A,doorenter,O,enter,1822,1,2998.399999976158,834132.3999999762,7229,WL,B,3.0
7,14.42900013923645,immed,45570.99986076355,Thu Nov 13 2025 12:48:03 GMT-0600 (Central Standard Time),838114.5,A,a,O,a,965,1,983.5,837131.0,7229,WL,B,4.0
7,15.32800006866455,immed,44671.99993133545,Thu Nov 13 2025 12:48:03 GMT-0600 (Central Standard Time),839013.7999999523,A,ar,O,r,885,1,1882.7999999523163,837131.0,7229,WL,B,4.0
7,15.495000123977661,immed,44504.99987602234,Thu Nov 13 2025 12:48:03 GMT-0600 (Central Standard Time),839180.5,A,arm,O,m,162,1,2049.5,837131.0,7229,WL,B,4.0
7,15.91100001335144,immed,44088.99998664856,Thu Nov 13 2025 12:48:03 GMT-0600 (Central Standard Time),839596.8999999762,A,armenter,O,enter,411,1,2465.899999976158,837131.0,7229,WL,B,4.0
7,16.361999988555908,immed,43638.00001144409,Thu Nov 13 2025 12:48:03 GMT-0600 (Central Standard Time),840047.8999999762,A,s,O,s,435,1,450.8000000715256,839597.0999999046,7229,WL,B,5.0
7,16.592999935150146,immed,43407.00006484985,Thu Nov 13 2025 12:48:03 GMT-0600 (Central Standard Time),840280.3999999762,A,st,O,t,224,1,683.3000000715256,839597.0999999046,7229,WL,B,5.0
7,16.792999982833862,immed,43207.00001716614,Thu Nov 13 2025 12:48:03 GMT-0600 (Central Standard Time),840479.7999999523,A,sta,O,a,183,1,882.7000000476837,839597.0999999046,7229,WL,B,5.0
7,16.926000118255615,immed,43073.999881744385,Thu Nov 13 2025 12:48:03 GMT-0600 (Central Standard Time),840613.0,A,star,O,r,120,1,1015.9000000953674,839597.0999999046,7229,WL,B,5.0
7,17.375999927520752,immed,42624.00007247925,Thu Nov 13 2025 12:48:03 GMT-0600 (Central Standard Time),841063.0999999046,A,starenter,O,enter,435,1,1466.0,839597.0999999046,7229,WL,B,5.0
7,17.7260000705719,immed,42273.9999294281,Thu Nov 13 2025 12:48:03 GMT-0600 (Central Standard Time),841412.7999999523,A,s,O,s,337,1,349.5,841063.2999999523,7229,WL,B,6.0
7,18.192000150680542,immed,41807.99984931946,Thu Nov 13 2025 12:48:03 GMT-0600 (Central Standard Time),841879.2999999523,A,,O,backspace,451,1,816.0,841063.2999999523,7229,WL,B,6.0
7,18.45900011062622,immed,41540.99988937378,Thu Nov 13 2025 12:48:03 GMT-0600 (Central Standard Time),842145.6999999285,A,w,O,w,257,1,1082.3999999761581,841063.2999999523,7229,WL,B,6.0
7,18.66000008583069,immed,41339.99991416931,Thu Nov 13 2025 12:48:03 GMT-0600 (Central Standard Time),842346.6999999285,A,wi,O,i,182,1,1283.3999999761581,841063.2999999523,7229,WL,B,6.0
7,18.811000108718872,immed,41188.99989128113,Thu Nov 13 2025 12:48:03 GMT-0600 (Central Standard Time),842497.5999999046,A,wif,O,f,133,1,1434.2999999523163,841063.2999999523,7229,WL,B,6.0
7,19.01099991798401,immed,40989.00008201599,Thu Nov 13 2025 12:48:03 GMT-0600 (Central Standard Time),842697.6999999285,A,wife,O,e,190,1,1634.3999999761581,841063.2999999523,7229,WL,B,6.0
7,19.243000030517578,immed,40756.99996948242,Thu Nov 13 2025 12:48:03 GMT-0600 (Central Standard Time),842930.3999999762,A,wifeenter,O,enter,222,1,1867.1000000238419,841063.2999999523,7229,WL,B,6.0
7,19.493000030517578,immed,40506.99996948242,Thu Nov 13 2025 12:48:03 GMT-0600 (Central Standard Time),843179.6999999285,A,w,O,w,230,1,249.19999992847443,842930.5,7229,WL,B,7.0
7,19.592000007629395,immed,40407.999992370605,Thu Nov 13 2025 12:48:03 GMT-0600 (Central Standard Time),843278.8999999762,A,wi,O,i,92,1,348.39999997615814,842930.5,7229,WL,B,7.0
7,19.758000135421753,immed,40241.99986457825,Thu Nov 13 2025 12:48:03 GMT-0600 (Central Standard Time),843445.3999999762,A,win,O,n,153,1,514.8999999761581,842930.5,7229,WL,B,7.0
7,19.95799994468689,immed,40042.00005531311,Thu Nov 13 2025 12:48:03 GMT-0600 (Central Standard Time),843645.2999999523,A,wind,O,d,187,1,714.7999999523163,842930.5,7229,WL,B,7.0
7,20.125999927520752,immed,39874.00007247925,Thu Nov 13 2025 12:48:03 GMT-0600 (Central Standard Time),843813.0999999046,A,windo,O,o,164,1,882.5999999046326,842930.5,7229,WL,B,7.0
7,20.27500009536743,immed,39724.99990463257,Thu Nov 13 2025 12:48:03 GMT-0600 (Central Standard Time),843961.8999999762,A,window,O,w,139,1,1031.3999999761581,842930.5,7229,WL,B,7.0
7,20.625,immed,39375.0,Thu Nov 13 2025 12:48:03 GMT-0600 (Central Standard Time),844311.7999999523,A,windowenter,O,enter,342,1,1381.2999999523163,842930.5,7229,WL,B,7.0
7,23.85800004005432,immed,36141.99995994568,Thu Nov 13 2025 12:48:03 GMT-0600 (Central Standard Time),847545.1999999285,A,c,O,c,3216,1,3233.1999999284744,844312.0,7229,WL,B,8.0
7,23.990999937057495,immed,36009.000062942505,Thu Nov 13 2025 12:48:03 GMT-0600 (Central Standard Time),847677.5999999046,A,ci,O,i,118,1,3365.5999999046326,844312.0,7229,WL,B,8.0
7,24.141000032424927,immed,35858.99996757507,Thu Nov 13 2025 12:48:03 GMT-0600 (Central Standard Time),847828.1999999285,A,cit,O,t,131,1,3516.1999999284744,844312.0,7229,WL,B,8.0
7,24.289999961853027,immed,35710.00003814697,Thu Nov 13 2025 12:48:03 GMT-0600 (Central Standard Time),847977.0999999046,A,city,O,y,131,1,3665.0999999046326,844312.0,7229,WL,B,8.0
7,24.84000015258789,immed,35159.99984741211,Thu Nov 13 2025 12:48:03 GMT-0600 (Central Standard Time),848527.3999999762,A,cityenter,O,enter,543,1,4215.399999976158,844312.0,7229,WL,B,8.0
7,25.207000017166138,immed,34792.99998283386,Thu Nov 13 2025 12:48:03 GMT-0600 (Central Standard Time),848893.5999999046,A,p,O,p,353,1,366.09999990463257,848527.5,7229,WL,B,9.0
7,25.407000064849854,immed,34592.99993515015,Thu Nov 13 2025 12:48:03 GMT-0600 (Central Standard Time),849093.5999999046,A,pu,O,u,194,1,566.0999999046326,848527.5,7229,WL,B,9.0
7,25.624000072479248,immed,34375.99992752075,Thu Nov 13 2025 12:48:03 GMT-0600 (Central Standard Time),849310.7999999523,A,pup,O,p,202,1,783.2999999523163,848527.5,7229,WL,B,9.0
7,26.125,immed,33875.0,Thu Nov 13 2025 12:48:03 GMT-0600 (Central Standard Time),849811.5,A,pupi,O,i,481,1,1284.0,848527.5,7229,WL,B,9.0
7,26.35599994659424,immed,33644.00005340576,Thu Nov 13 2025 12:48:03 GMT-0600 (Central Standard Time),850043.2999999523,A,pupil,O,l,212,1,1515.7999999523163,848527.5,7229,WL,B,9.0
7,26.706000089645386,immed,33293.999910354614,Thu Nov 13 2025 12:48:03 GMT-0600 (Central Standard Time),850393.0,A,pupilenter,O,enter,340,1,1865.5,848527.5,7229,WL,B,9.0
7,29.272000074386597,immed,30727.999925613403,Thu Nov 13 2025 12:48:03 GMT-0600 (Central Standard Time),852959.0,A,s,O,s,2559,1,2565.9000000953674,850393.0999999046,7229,WL,B,10.0
7,29.439000129699707,immed,30560.999870300293,Thu Nov 13 2025 12:48:03 GMT-0600 (Central Standard Time),853126.1999999285,A,sk,O,k,161,1,2733.100000023842,850393.0999999046,7229,WL,B,10.0
7,29.623000144958496,immed,30376.999855041504,Thu Nov 13 2025 12:48:03 GMT-0600 (Central Standard Time),853310.1999999285,A,ski,O,i,178,1,2917.100000023842,850393.0999999046,7229,WL,B,10.0
7,29.748000144958496,immed,30251.999855041504,Thu Nov 13 2025 12:48:03 GMT-0600 (Central Standard Time),853435.0999999046,A,skin,O,n,121,1,3042.0,850393.0999999046,7229,WL,B,10.0
7,30.022000074386597,immed,29977.999925613403,Thu Nov 13 2025 12:48:03 GMT-0600 (Central Standard Time),853709.1999999285,A,skinenter,O,enter,269,1,3316.100000023842,850393.0999999046,7229,WL,B,10.0
7,30.539000034332275,immed,29460.999965667725,Thu Nov 13 2025 12:48:03 GMT-0600 (Central Standard Time),854225.5999999046,A,f,O,f,499,1,516.1999999284744,853709.3999999762,7229,WL,B,11.0
7,30.687999963760376,immed,29312.000036239624,Thu Nov 13 2025 12:48:03 GMT-0600 (Central Standard Time),854375.1999999285,A,fi,O,i,142,1,665.7999999523163,853709.3999999762,7229,WL,B,11.0
7,30.82200002670288,immed,29177.99997329712,Thu Nov 13 2025 12:48:03 GMT-0600 (Central Standard Time),854508.6999999285,A,fir,O,r,121,1,799.2999999523163,853709.3999999762,7229,WL,B,11.0
7,30.954999923706055,immed,29045.000076293945,Thu Nov 13 2025 12:48:03 GMT-0600 (Central Standard Time),854642.0,A,fire,O,e,123,1,932.6000000238419,853709.3999999762,7229,WL,B,11.0
7,31.505000114440918,immed,28494.999885559082,Thu Nov 13 2025 12:48:03 GMT-0600 (Central Standard Time),855191.7999999523,A,fireenter,O,enter,534,1,1482.3999999761581,853709.3999999762,7229,WL,B,11.0
7,31.805999994277954,immed,28194.000005722046,Thu Nov 13 2025 12:48:03 GMT-0600 (Central Standard Time),855493.0,A,c,O,c,288,1,301.10000002384186,855191.8999999762,7229,WL,B,12.0
7,31.921000003814697,immed,28078.999996185303,Thu Nov 13 2025 12:48:03 GMT-0600 (Central Standard Time),855608.0999999046,A,cl,O,l,99,1,416.1999999284744,855191.8999999762,7229,WL,B,12.0
7,32.12100005149841,immed,27878.999948501587,Thu Nov 13 2025 12:48:03 GMT-0600 (Central Standard Time),855808.1999999285,A,clo,O,o,192,1,616.2999999523163,855191.8999999762,7229,WL,B,12.0
7,32.53999996185303,immed,27460.000038146973,Thu Nov 13 2025 12:48:03 GMT-0600 (Central Standard Time),856227.1999999285,A,cloc,O,c,415,1,1035.2999999523163,855191.8999999762,7229,WL,B,12.0
7,32.704999923706055,immed,27295.000076293945,Thu Nov 13 2025 12:48:03 GMT-0600 (Central Standard Time),856391.5,A,clock,O,k,148,1,1199.6000000238419,855191.8999999762,7229,WL,B,12.0
7,33.13800001144409,immed,26861.99998855591,Thu Nov 13 2025 12:48:03 GMT-0600 (Central Standard Time),856824.5,A,clockenter,O,enter,416,1,1632.6000000238419,855191.8999999762,7229,WL,B,12.0
7,40.05200004577637,immed,19947.999954223633,Thu Nov 13 2025 12:48:03 GMT-0600 (Central Standard Time),863739.3999999762,A,enter,O,enter,6895,1,6914.600000023842,856824.7999999523,7229,WL,B,13.0
7,40.503000020980835,immed,19496.999979019165,Thu Nov 13 2025 12:48:03 GMT-0600 (Central Standard Time),864190.0999999046,A,enter,O,enter,444,1,450.39999997615814,863739.6999999285,7229,WL,B,14.0
7,41.63499999046326,immed,18365.000009536743,Thu Nov 13 2025 12:48:03 GMT-0600 (Central Standard Time),865322.2999999523,A,enter,O,enter,1122,1,1132.1000000238419,864190.1999999285,7229,WL,B,15.0
