block_c,block_dur,condition,countdown,datetime,endtime,list,multichar_response,project,response,response_time,session_number,start_end,starttime,subject_id,task,task_vers,trial
,,,,Wed May 13 2026 16:28:06 GMT-0400 (Eastern Daylight Time),,,,I,space,3587,1,,,9060,WL,B,
prac,,0,,Wed May 13 2026 16:28:06 GMT-0400 (Eastern Daylight Time),,NA,b,I,b,6317,1,,,9060,WL,B,1.0
prac,,0,,Wed May 13 2026 16:28:06 GMT-0400 (Eastern Daylight Time),,NA,bo,I,o,340,1,,,9060,WL,B,1.0
prac,,0,,Wed May 13 2026 16:28:06 GMT-0400 (Eastern Daylight Time),,NA,boo,I,o,134,1,,,9060,WL,B,1.0
prac,,0,,Wed May 13 2026 16:28:06 GMT-0400 (Eastern Daylight Time),,NA,boos,I,s,103,1,,,9060,WL,B,1.0
prac,,0,,Wed May 13 2026 16:28:06 GMT-0400 (Eastern Daylight Time),,NA,boost,I,t,327,1,,,9060,WL,B,1.0
prac,,0,,Wed May 13 2026 16:28:06 GMT-0400 (Eastern Daylight Time),,NA,boostenter,I,enter,868,1,,,9060,WL,B,1.0
1,2.2839999198913574,learn,57716.00008010864,Wed May 13 2026 16:28:06 GMT-0400 (Eastern Daylight Time),155838.80000000075,A,d,I,d,2265,1,2282.60000000149,153556.19999999925,9060,WL,B,1.0
1,2.432999849319458,learn,57567.00015068054,Wed May 13 2026 16:28:06 GMT-0400 (Eastern Daylight Time),155988.5,A,dp,I,p,132,1,2432.300000000745,153556.19999999925,9060,WL,B,1.0
1,2.7159998416900635,learn,57284.00015830994,Wed May 13 2026 16:28:06 GMT-0400 (Eastern Daylight Time),156271.59999999776,A,d,I,backspace,272,1,2715.39999999851,153556.19999999925,9060,WL,B,1.0
1,3.132999897003174,learn,56867.000102996826,Wed May 13 2026 16:28:06 GMT-0400 (Eastern Daylight Time),156688.3999999985,A,do,I,o,404,1,3132.199999999255,153556.19999999925,9060,WL,B,1.0
1,3.2829999923706055,learn,56717.000007629395,Wed May 13 2026 16:28:06 GMT-0400 (Eastern Daylight Time),156838.5,A,doo,I,o,123,1,3282.300000000745,153556.19999999925,9060,WL,B,1.0
1,3.4499998092651367,learn,56550.00019073486,Wed May 13 2026 16:28:06 GMT-0400 (Eastern Daylight Time),157005.19999999925,A,door,I,r,142,1,3449.0,153556.19999999925,9060,WL,B,1.0
1,4.1499998569488525,learn,55850.00014305115,Wed May 13 2026 16:28:06 GMT-0400 (Eastern Daylight Time),157704.69999999925,A,doorenter,I,enter,667,1,4148.5,153556.19999999925,9060,WL,B,1.0
1,5.448999881744385,learn,54551.000118255615,Wed May 13 2026 16:28:06 GMT-0400 (Eastern Daylight Time),159004.5,A,s,I,s,1284,1,1299.1000000014901,157705.3999999985,9060,WL,B,2.0
1,5.665999889373779,learn,54334.00011062622,Wed May 13 2026 16:28:06 GMT-0400 (Eastern Daylight Time),159221.59999999776,A,st,I,t,202,1,1516.199999999255,157705.3999999985,9060,WL,B,2.0
1,5.866999864578247,learn,54133.00013542175,Wed May 13 2026 16:28:06 GMT-0400 (Eastern Daylight Time),159421.69999999925,A,str,I,r,167,1,1716.300000000745,157705.3999999985,9060,WL,B,2.0
1,6.066999912261963,learn,53933.00008773804,Wed May 13 2026 16:28:06 GMT-0400 (Eastern Daylight Time),159621.69999999925,A,stre,I,e,180,1,1916.300000000745,157705.3999999985,9060,WL,B,2.0
1,6.2170000076293945,learn,53782.999992370605,Wed May 13 2026 16:28:06 GMT-0400 (Eastern Daylight Time),159771.69999999925,A,stree,I,e,135,1,2066.300000000745,157705.3999999985,9060,WL,B,2.0
1,6.3999998569488525,learn,53600.00014305115,Wed May 13 2026 16:28:06 GMT-0400 (Eastern Daylight Time),159955.0,A,street,I,t,168,1,2249.60000000149,157705.3999999985,9060,WL,B,2.0
1,6.60099983215332,learn,53399.00016784668,Wed May 13 2026 16:28:06 GMT-0400 (Eastern Daylight Time),160156.19999999925,A,streetenter,I,enter,181,1,2450.800000000745,157705.3999999985,9060,WL,B,2.0
1,7.682999849319458,learn,52317.00015068054,Wed May 13 2026 16:28:06 GMT-0400 (Eastern Daylight Time),161237.80000000075,A,g,I,g,1074,1,1081.2000000029802,160156.59999999776,9060,WL,B,3.0
1,7.8999998569488525,learn,52100.00014305115,Wed May 13 2026 16:28:06 GMT-0400 (Eastern Daylight Time),161455.09999999776,A,gr,I,r,199,1,1298.5,160156.59999999776,9060,WL,B,3.0
1,8.132999897003174,learn,51867.000102996826,Wed May 13 2026 16:28:06 GMT-0400 (Eastern Daylight Time),161688.59999999776,A,gra,I,a,212,1,1532.0,160156.59999999776,9060,WL,B,3.0
1,8.316999912261963,learn,51683.00008773804,Wed May 13 2026 16:28:06 GMT-0400 (Eastern Daylight Time),161871.80000000075,A,gras,I,s,172,1,1715.2000000029802,160156.59999999776,9060,WL,B,3.0
1,8.482999801635742,learn,51517.00019836426,Wed May 13 2026 16:28:06 GMT-0400 (Eastern Daylight Time),162038.5,A,grass,I,s,139,1,1881.9000000022352,160156.59999999776,9060,WL,B,3.0
1,8.900999784469604,learn,51099.000215530396,Wed May 13 2026 16:28:06 GMT-0400 (Eastern Daylight Time),162455.59999999776,A,grassenter,I,enter,398,1,2299.0,160156.59999999776,9060,WL,B,3.0
1,9.432999849319458,learn,50567.00015068054,Wed May 13 2026 16:28:06 GMT-0400 (Eastern Daylight Time),162988.3999999985,A,a,I,a,511,1,532.0999999977648,162456.30000000075,9060,WL,B,4.0
1,9.682999849319458,learn,50317.00015068054,Wed May 13 2026 16:28:06 GMT-0400 (Eastern Daylight Time),163238.3999999985,A,ar,I,r,223,1,782.0999999977648,162456.30000000075,9060,WL,B,4.0
1,10.166999816894531,learn,49833.00018310547,Wed May 13 2026 16:28:06 GMT-0400 (Eastern Daylight Time),163721.80000000075,A,arm,I,m,462,1,1265.5,162456.30000000075,9060,WL,B,4.0
1,10.532999992370605,learn,49467.000007629395,Wed May 13 2026 16:28:06 GMT-0400 (Eastern Daylight Time),164088.0,A,armenter,I,enter,355,1,1631.699999999255,162456.30000000075,9060,WL,B,4.0
1,11.299999952316284,learn,48700.000047683716,Wed May 13 2026 16:28:06 GMT-0400 (Eastern Daylight Time),164855.0,A,s,I,s,759,1,766.5,164088.5,9060,WL,B,5.0
1,11.866999864578247,learn,48133.00013542175,Wed May 13 2026 16:28:06 GMT-0400 (Eastern Daylight Time),165421.80000000075,A,sk,I,k,542,1,1333.300000000745,164088.5,9060,WL,B,5.0
1,12.08299994468689,learn,47917.00005531311,Wed May 13 2026 16:28:06 GMT-0400 (Eastern Daylight Time),165638.5,A,ski,I,i,190,1,1550.0,164088.5,9060,WL,B,5.0
1,12.566999912261963,learn,47433.00008773804,Wed May 13 2026 16:28:06 GMT-0400 (Eastern Daylight Time),166121.69999999925,A,skin,I,n,468,1,2033.199999999255,164088.5,9060,WL,B,5.0
1,12.91599988937378,learn,47084.00011062622,Wed May 13 2026 16:28:06 GMT-0400 (Eastern Daylight Time),166471.30000000075,A,skinenter,I,enter,337,1,2382.800000000745,164088.5,9060,WL,B,5.0
1,13.699999809265137,learn,46300.00019073486,Wed May 13 2026 16:28:06 GMT-0400 (Eastern Daylight Time),167254.80000000075,A,l,I,l,776,1,782.9000000022352,166471.8999999985,9060,WL,B,6.0
1,13.882999897003174,learn,46117.000102996826,Wed May 13 2026 16:28:06 GMT-0400 (Eastern Daylight Time),167438.5,A,la,I,a,157,1,966.6000000014901,166471.8999999985,9060,WL,B,6.0
1,14.065999984741211,learn,45934.00001525879,Wed May 13 2026 16:28:06 GMT-0400 (Eastern Daylight Time),167621.59999999776,A,lak,I,k,156,1,1149.699999999255,166471.8999999985,9060,WL,B,6.0
1,14.467000007629395,learn,45532.999992370605,Wed May 13 2026 16:28:06 GMT-0400 (Eastern Daylight Time),168021.69999999925,A,lake,I,e,366,1,1549.800000000745,166471.8999999985,9060,WL,B,6.0
1,14.715999841690063,learn,45284.00015830994,Wed May 13 2026 16:28:06 GMT-0400 (Eastern Daylight Time),168271.30000000075,A,lakeenter,I,enter,239,1,1799.4000000022352,166471.8999999985,9060,WL,B,6.0
1,15.166999816894531,learn,44833.00018310547,Wed May 13 2026 16:28:06 GMT-0400 (Eastern Daylight Time),168721.69999999925,A,p,I,p,438,1,449.8999999985099,168271.80000000075,9060,WL,B,7.0
1,15.382999897003174,learn,44617.000102996826,Wed May 13 2026 16:28:06 GMT-0400 (Eastern Daylight Time),168938.3999999985,A,pi,I,i,195,1,666.5999999977648,168271.80000000075,9060,WL,B,7.0
1,15.599999904632568,learn,44400.00009536743,Wed May 13 2026 16:28:06 GMT-0400 (Eastern Daylight Time),169155.5,A,pip,I,p,200,1,883.6999999992549,168271.80000000075,9060,WL,B,7.0
1,15.816999912261963,learn,44183.00008773804,Wed May 13 2026 16:28:06 GMT-0400 (Eastern Daylight Time),169371.69999999925,A,pipe,I,e,201,1,1099.8999999985099,168271.80000000075,9060,WL,B,7.0
1,16.5,learn,43500.0,Wed May 13 2026 16:28:06 GMT-0400 (Eastern Daylight Time),170054.69999999925,A,pipeenter,I,enter,664,1,1782.8999999985099,168271.80000000075,9060,WL,B,7.0
1,22.649999856948853,learn,37350.00014305115,Wed May 13 2026 16:28:06 GMT-0400 (Eastern Daylight Time),176205.19999999925,A,d,I,d,6128,1,6150.0,170055.19999999925,9060,WL,B,8.0
1,22.76699995994568,learn,37233.00004005432,Wed May 13 2026 16:28:06 GMT-0400 (Eastern Daylight Time),176321.69999999925,A,do,I,o,102,1,6266.5,170055.19999999925,9060,WL,B,8.0
1,22.899999856948853,learn,37100.00014305115,Wed May 13 2026 16:28:06 GMT-0400 (Eastern Daylight Time),176454.8999999985,A,doo,I,o,123,1,6399.699999999255,170055.19999999925,9060,WL,B,8.0
1,23.116999864578247,learn,36883.00013542175,Wed May 13 2026 16:28:06 GMT-0400 (Eastern Daylight Time),176671.69999999925,A,door,I,r,198,1,6616.5,170055.19999999925,9060,WL,B,8.0
1,23.432999849319458,learn,36567.00015068054,Wed May 13 2026 16:28:06 GMT-0400 (Eastern Daylight Time),176988.09999999776,A,doorenter,I,enter,291,1,6932.89999999851,170055.19999999925,9060,WL,B,8.0
1,25.532999992370605,learn,34467.000007629395,Wed May 13 2026 16:28:06 GMT-0400 (Eastern Daylight Time),179088.19999999925,A,w,I,w,2083,1,2099.60000000149,176988.59999999776,9060,WL,B,9.0
1,25.649999856948853,learn,34350.00014305115,Wed May 13 2026 16:28:06 GMT-0400 (Eastern Daylight Time),179205.0,A,wi,I,i,103,1,2216.400000002235,176988.59999999776,9060,WL,B,9.0
1,25.866999864578247,learn,34133.00013542175,Wed May 13 2026 16:28:06 GMT-0400 (Eastern Daylight Time),179421.80000000075,A,win,I,n,185,1,2433.2000000029802,176988.59999999776,9060,WL,B,9.0
1,26.217000007629395,learn,33782.999992370605,Wed May 13 2026 16:28:06 GMT-0400 (Eastern Daylight Time),179771.80000000075,A,wind,I,d,326,1,2783.2000000029802,176988.59999999776,9060,WL,B,9.0
1,26.33299994468689,learn,33667.00005531311,Wed May 13 2026 16:28:06 GMT-0400 (Eastern Daylight Time),179888.3999999985,A,windo,I,o,97,1,2899.800000000745,176988.59999999776,9060,WL,B,9.0
1,26.449999809265137,learn,33550.00019073486,Wed May 13 2026 16:28:06 GMT-0400 (Eastern Daylight Time),180005.19999999925,A,window,I,w,85,1,3016.60000000149,176988.59999999776,9060,WL,B,9.0
1,27.649999856948853,learn,32350.000143051147,Wed May 13 2026 16:28:06 GMT-0400 (Eastern Daylight Time),181204.80000000075,A,windowenter,I,enter,1183,1,4216.20000000298,176988.59999999776,9060,WL,B,9.0
1,44.799999952316284,learn,15200.000047683716,Wed May 13 2026 16:28:06 GMT-0400 (Eastern Daylight Time),198355.30000000075,A,c,I,c,17131,1,17150.10000000149,181205.19999999925,9060,WL,B,10.0
1,45.06699991226196,learn,14933.000087738037,Wed May 13 2026 16:28:06 GMT-0400 (Eastern Daylight Time),198622.0,A,ci,I,i,240,1,17416.800000000745,181205.19999999925,9060,WL,B,10.0
1,45.48399996757507,learn,14516.000032424927,Wed May 13 2026 16:28:06 GMT-0400 (Eastern Daylight Time),199038.69999999925,A,cit,I,t,407,1,17833.5,181205.19999999925,9060,WL,B,10.0
1,45.76699995994568,learn,14233.000040054321,Wed May 13 2026 16:28:06 GMT-0400 (Eastern Daylight Time),199321.80000000075,A,city,I,y,268,1,18116.60000000149,181205.19999999925,9060,WL,B,10.0
1,46.68299984931946,learn,13317.000150680542,Wed May 13 2026 16:28:06 GMT-0400 (Eastern Daylight Time),200238.0,A,cityenter,I,enter,897,1,19032.800000000745,181205.19999999925,9060,WL,B,10.0
1,60.01699995994568,learn,-16.99995994567871,Wed May 13 2026 16:28:06 GMT-0400 (Eastern Daylight Time),213572.0,A,None,I,None,13327,1,13333.5,200238.5,9060,WL,B,11.0
2,0.9659998416900635,learn,59034.00015830994,Wed May 13 2026 16:28:06 GMT-0400 (Eastern Daylight Time),299288.5,A,s,I,s,948,1,966.1000000014901,298322.3999999985,9060,WL,B,1.0
2,1.2170000076293945,learn,58782.999992370605,Wed May 13 2026 16:28:06 GMT-0400 (Eastern Daylight Time),299538.80000000075,A,st,I,t,230,1,1216.4000000022352,298322.3999999985,9060,WL,B,1.0
2,1.5499999523162842,learn,58450.000047683716,Wed May 13 2026 16:28:06 GMT-0400 (Eastern Daylight Time),299872.0,A,sta,I,a,314,1,1549.6000000014901,298322.3999999985,9060,WL,B,1.0
2,1.816999912261963,learn,58183.00008773804,Wed May 13 2026 16:28:06 GMT-0400 (Eastern Daylight Time),300138.69999999925,A,star,I,r,252,1,1816.300000000745,298322.3999999985,9060,WL,B,1.0
2,2.700000047683716,learn,57299.999952316284,Wed May 13 2026 16:28:06 GMT-0400 (Eastern Daylight Time),301022.0,A,starenter,I,enter,874,1,2699.60000000149,298322.3999999985,9060,WL,B,1.0
2,3.2829999923706055,learn,56717.000007629395,Wed May 13 2026 16:28:06 GMT-0400 (Eastern Daylight Time),301605.3999999985,A,p,I,p,569,1,583.1999999992549,301022.19999999925,9060,WL,B,2.0
2,3.632999897003174,learn,56367.000102996826,Wed May 13 2026 16:28:06 GMT-0400 (Eastern Daylight Time),301955.3999999985,A,pu,I,u,327,1,933.1999999992549,301022.19999999925,9060,WL,B,2.0
2,3.9170000553131104,learn,56082.99994468689,Wed May 13 2026 16:28:06 GMT-0400 (Eastern Daylight Time),302238.8999999985,A,pup,I,p,272,1,1216.699999999255,301022.19999999925,9060,WL,B,2.0
2,4.316999912261963,learn,55683.00008773804,Wed May 13 2026 16:28:06 GMT-0400 (Eastern Daylight Time),302638.69999999925,A,pupi,I,i,383,1,1616.5,301022.19999999925,9060,WL,B,2.0
2,4.5,learn,55500.0,Wed May 13 2026 16:28:06 GMT-0400 (Eastern Daylight Time),302822.19999999925,A,pupil,I,l,158,1,1800.0,301022.19999999925,9060,WL,B,2.0
2,5.700000047683716,learn,54299.999952316284,Wed May 13 2026 16:28:06 GMT-0400 (Eastern Daylight Time),304021.69999999925,A,pupilenter,I,enter,1174,1,2999.5,301022.19999999925,9060,WL,B,2.0
2,6.016999959945679,learn,53983.00004005432,Wed May 13 2026 16:28:06 GMT-0400 (Eastern Daylight Time),304338.69999999925,A,c,I,c,298,1,316.5,304022.19999999925,9060,WL,B,3.0
2,6.2829999923706055,learn,53717.000007629395,Wed May 13 2026 16:28:06 GMT-0400 (Eastern Daylight Time),304605.5,A,ca,I,a,242,1,583.3000000007451,304022.19999999925,9060,WL,B,3.0
2,6.58299994468689,learn,53417.00005531311,Wed May 13 2026 16:28:06 GMT-0400 (Eastern Daylight Time),304905.5,A,cab,I,b,287,1,883.3000000007451,304022.19999999925,9060,WL,B,3.0
2,6.700000047683716,learn,53299.999952316284,Wed May 13 2026 16:28:06 GMT-0400 (Eastern Daylight Time),305021.8999999985,A,cabi,I,i,99,1,999.6999999992549,304022.19999999925,9060,WL,B,3.0
2,6.75,learn,53250.0,Wed May 13 2026 16:28:06 GMT-0400 (Eastern Daylight Time),305071.59999999776,A,cabin,I,n,31,1,1049.3999999985099,304022.19999999925,9060,WL,B,3.0
2,7.766000032424927,learn,52233.99996757507,Wed May 13 2026 16:28:06 GMT-0400 (Eastern Daylight Time),306088.30000000075,A,cabinenter,I,enter,1000,1,2066.10000000149,304022.19999999925,9060,WL,B,3.0
2,8.16700005531311,learn,51832.99994468689,Wed May 13 2026 16:28:06 GMT-0400 (Eastern Daylight Time),306488.69999999925,A,l,I,l,383,1,399.8999999985099,306088.80000000075,9060,WL,B,4.0
2,8.382999897003174,learn,51617.000102996826,Wed May 13 2026 16:28:06 GMT-0400 (Eastern Daylight Time),306705.3999999985,A,la,I,a,203,1,616.5999999977648,306088.80000000075,9060,WL,B,4.0
2,8.549999952316284,learn,51450.000047683716,Wed May 13 2026 16:28:06 GMT-0400 (Eastern Daylight Time),306872.09999999776,A,lak,I,k,139,1,783.2999999970198,306088.80000000075,9060,WL,B,4.0
2,8.700000047683716,learn,51299.999952316284,Wed May 13 2026 16:28:06 GMT-0400 (Eastern Daylight Time),307022.0,A,lake,I,e,125,1,933.1999999992549,306088.80000000075,9060,WL,B,4.0
2,9.200000047683716,learn,50799.999952316284,Wed May 13 2026 16:28:06 GMT-0400 (Eastern Daylight Time),307521.69999999925,A,lakeenter,I,enter,475,1,1432.8999999985099,306088.80000000075,9060,WL,B,4.0
2,9.782999992370605,learn,50217.000007629395,Wed May 13 2026 16:28:06 GMT-0400 (Eastern Daylight Time),308105.5,A,f,I,f,565,1,583.4000000022352,307522.09999999776,9060,WL,B,5.0
2,9.950000047683716,learn,50049.999952316284,Wed May 13 2026 16:28:06 GMT-0400 (Eastern Daylight Time),308271.8999999985,A,fi,I,i,146,1,749.8000000007451,307522.09999999776,9060,WL,B,5.0
2,10.08299994468689,learn,49917.00005531311,Wed May 13 2026 16:28:06 GMT-0400 (Eastern Daylight Time),308405.5,A,fir,I,r,109,1,883.4000000022352,307522.09999999776,9060,WL,B,5.0
2,10.282999992370605,learn,49717.000007629395,Wed May 13 2026 16:28:06 GMT-0400 (Eastern Daylight Time),308605.3999999985,A,fire,I,e,184,1,1083.300000000745,307522.09999999776,9060,WL,B,5.0
2,10.950000047683716,learn,49049.999952316284,Wed May 13 2026 16:28:06 GMT-0400 (Eastern Daylight Time),309271.59999999776,A,fireenter,I,enter,653,1,1749.5,307522.09999999776,9060,WL,B,5.0
2,13.849999904632568,learn,46150.00009536743,Wed May 13 2026 16:28:06 GMT-0400 (Eastern Daylight Time),312171.8999999985,A,s,I,s,2888,1,2899.89999999851,309272.0,9060,WL,B,6.0
2,14.116999864578247,learn,45883.00013542175,Wed May 13 2026 16:28:06 GMT-0400 (Eastern Daylight Time),312438.80000000075,A,st,I,t,254,1,3166.800000000745,309272.0,9060,WL,B,6.0
2,14.33299994468689,learn,45667.00005531311,Wed May 13 2026 16:28:06 GMT-0400 (Eastern Daylight Time),312655.5,A,str,I,r,195,1,3383.5,309272.0,9060,WL,B,6.0
2,14.516999959945679,learn,45483.00004005432,Wed May 13 2026 16:28:06 GMT-0400 (Eastern Daylight Time),312838.80000000075,A,stre,I,e,165,1,3566.800000000745,309272.0,9060,WL,B,6.0
2,14.682999849319458,learn,45317.00015068054,Wed May 13 2026 16:28:06 GMT-0400 (Eastern Daylight Time),313005.5,A,stree,I,e,150,1,3733.5,309272.0,9060,WL,B,6.0
2,14.91700005531311,learn,45082.99994468689,Wed May 13 2026 16:28:06 GMT-0400 (Eastern Daylight Time),313238.69999999925,A,street,I,t,199,1,3966.699999999255,309272.0,9060,WL,B,6.0
2,15.115999937057495,learn,44884.000062942505,Wed May 13 2026 16:28:06 GMT-0400 (Eastern Daylight Time),313438.5,A,streetenter,I,enter,183,1,4166.5,309272.0,9060,WL,B,6.0
2,15.899999856948853,learn,44100.00014305115,Wed May 13 2026 16:28:06 GMT-0400 (Eastern Daylight Time),314222.30000000075,A,a,I,a,761,1,783.5,313438.80000000075,9060,WL,B,7.0
2,16.132999897003174,learn,43867.000102996826,Wed May 13 2026 16:28:06 GMT-0400 (Eastern Daylight Time),314455.19999999925,A,ar,I,r,223,1,1016.3999999985099,313438.80000000075,9060,WL,B,7.0
2,16.682999849319458,learn,43317.00015068054,Wed May 13 2026 16:28:06 GMT-0400 (Eastern Daylight Time),315005.5,A,arm,I,m,528,1,1566.699999999255,313438.80000000075,9060,WL,B,7.0
2,16.967000007629395,learn,43032.999992370605,Wed May 13 2026 16:28:06 GMT-0400 (Eastern Daylight Time),315289.19999999925,A,armenter,I,enter,264,1,1850.3999999985099,313438.80000000075,9060,WL,B,7.0
2,17.566999912261963,learn,42433.00008773804,Wed May 13 2026 16:28:06 GMT-0400 (Eastern Daylight Time),315888.59999999776,A,s,I,s,583,1,599.0,315289.59999999776,9060,WL,B,8.0
2,17.682999849319458,learn,42317.00015068054,Wed May 13 2026 16:28:06 GMT-0400 (Eastern Daylight Time),316005.5,A,sk,I,k,91,1,715.9000000022352,315289.59999999776,9060,WL,B,8.0
2,17.83299994468689,learn,42167.00005531311,Wed May 13 2026 16:28:06 GMT-0400 (Eastern Daylight Time),316155.5,A,ski,I,i,134,1,865.9000000022352,315289.59999999776,9060,WL,B,8.0
2,18.049999952316284,learn,41950.000047683716,Wed May 13 2026 16:28:06 GMT-0400 (Eastern Daylight Time),316372.0,A,skin,I,n,194,1,1082.4000000022352,315289.59999999776,9060,WL,B,8.0
2,18.382999897003174,learn,41617.000102996826,Wed May 13 2026 16:28:06 GMT-0400 (Eastern Daylight Time),316705.09999999776,A,skinenter,I,enter,320,1,1415.5,315289.59999999776,9060,WL,B,8.0
2,18.93400001525879,learn,41065.99998474121,Wed May 13 2026 16:28:06 GMT-0400 (Eastern Daylight Time),317256.5,A,s,I,s,542,1,551.1000000014901,316705.3999999985,9060,WL,B,9.0
2,19.132999897003174,learn,40867.000102996826,Wed May 13 2026 16:28:06 GMT-0400 (Eastern Daylight Time),317455.5,A,st,I,t,188,1,750.1000000014901,316705.3999999985,9060,WL,B,9.0
2,19.33299994468689,learn,40667.00005531311,Wed May 13 2026 16:28:06 GMT-0400 (Eastern Daylight Time),317655.09999999776,A,str,I,r,188,1,949.6999999992549,316705.3999999985,9060,WL,B,9.0
2,19.532999992370605,learn,40467.000007629395,Wed May 13 2026 16:28:06 GMT-0400 (Eastern Daylight Time),317855.5,A,stre,I,e,172,1,1150.1000000014901,316705.3999999985,9060,WL,B,9.0
2,19.700000047683716,learn,40299.999952316284,Wed May 13 2026 16:28:06 GMT-0400 (Eastern Daylight Time),318022.19999999925,A,stree,I,e,133,1,1316.800000000745,316705.3999999985,9060,WL,B,9.0
2,19.899999856948853,learn,40100.00014305115,Wed May 13 2026 16:28:06 GMT-0400 (Eastern Daylight Time),318221.8999999985,A,street,I,t,182,1,1516.5,316705.3999999985,9060,WL,B,9.0
2,20.200000047683716,learn,39799.999952316284,Wed May 13 2026 16:28:06 GMT-0400 (Eastern Daylight Time),318521.59999999776,A,streetenter,I,enter,279,1,1816.199999999255,316705.3999999985,9060,WL,B,9.0
2,22.782999992370605,learn,37217.000007629395,Wed May 13 2026 16:28:06 GMT-0400 (Eastern Daylight Time),321105.5,A,d,I,d,2574,1,2583.400000002235,318522.09999999776,9060,WL,B,10.0
2,22.882999897003174,learn,37117.000102996826,Wed May 13 2026 16:28:06 GMT-0400 (Eastern Daylight Time),321205.30000000075,A,do,I,o,73,1,2683.2000000029802,318522.09999999776,9060,WL,B,10.0
2,23.01699995994568,learn,36983.00004005432,Wed May 13 2026 16:28:06 GMT-0400 (Eastern Daylight Time),321338.8999999985,A,doo,I,o,112,1,2816.800000000745,318522.09999999776,9060,WL,B,10.0
2,23.16700005531311,learn,36832.99994468689,Wed May 13 2026 16:28:06 GMT-0400 (Eastern Daylight Time),321488.80000000075,A,door,I,r,122,1,2966.7000000029802,318522.09999999776,9060,WL,B,10.0
2,23.399999856948853,learn,36600.00014305115,Wed May 13 2026 16:28:06 GMT-0400 (Eastern Daylight Time),321721.69999999925,A,doorenter,I,enter,205,1,3199.60000000149,318522.09999999776,9060,WL,B,10.0
2,24.049999952316284,learn,35950.000047683716,Wed May 13 2026 16:28:06 GMT-0400 (Eastern Daylight Time),322372.0,A,w,I,w,629,1,650.0,321722.0,9060,WL,B,11.0
2,24.16700005531311,learn,35832.99994468689,Wed May 13 2026 16:28:06 GMT-0400 (Eastern Daylight Time),322488.80000000075,A,wi,I,i,94,1,766.8000000007451,321722.0,9060,WL,B,11.0
2,24.215999841690063,learn,35784.00015830994,Wed May 13 2026 16:28:06 GMT-0400 (Eastern Daylight Time),322538.5,A,win,I,n,36,1,816.5,321722.0,9060,WL,B,11.0
2,24.366999864578247,learn,35633.00013542175,Wed May 13 2026 16:28:06 GMT-0400 (Eastern Daylight Time),322688.8999999985,A,wind,I,d,132,1,966.8999999985099,321722.0,9060,WL,B,11.0
2,24.5,learn,35500.0,Wed May 13 2026 16:28:06 GMT-0400 (Eastern Daylight Time),322822.09999999776,A,windo,I,o,107,1,1100.0999999977648,321722.0,9060,WL,B,11.0
2,24.59999990463257,learn,35400.00009536743,Wed May 13 2026 16:28:06 GMT-0400 (Eastern Daylight Time),322922.0,A,window,I,w,80,1,1200.0,321722.0,9060,WL,B,11.0
2,25.34999990463257,learn,34650.00009536743,Wed May 13 2026 16:28:06 GMT-0400 (Eastern Daylight Time),323671.80000000075,A,windowenter,I,enter,730,1,1949.800000000745,321722.0,9060,WL,B,11.0
2,25.73300004005432,learn,34266.99995994568,Wed May 13 2026 16:28:06 GMT-0400 (Eastern Daylight Time),324055.09999999776,A,c,I,c,376,1,383.0,323672.09999999776,9060,WL,B,12.0
2,25.932999849319458,learn,34067.00015068054,Wed May 13 2026 16:28:06 GMT-0400 (Eastern Daylight Time),324255.09999999776,A,ci,I,i,190,1,583.0,323672.09999999776,9060,WL,B,12.0
2,26.200000047683716,learn,33799.999952316284,Wed May 13 2026 16:28:06 GMT-0400 (Eastern Daylight Time),324522.09999999776,A,cit,I,t,246,1,850.0,323672.09999999776,9060,WL,B,12.0
2,26.382999897003174,learn,33617.000102996826,Wed May 13 2026 16:28:06 GMT-0400 (Eastern Daylight Time),324705.5,A,city,I,y,171,1,1033.4000000022352,323672.09999999776,9060,WL,B,12.0
2,26.715999841690063,learn,33284.00015830994,Wed May 13 2026 16:28:06 GMT-0400 (Eastern Daylight Time),325038.3999999985,A,cityenter,I,enter,300,1,1366.300000000745,323672.09999999776,9060,WL,B,12.0
2,34.43299984931946,learn,25567.000150680542,Wed May 13 2026 16:28:06 GMT-0400 (Eastern Daylight Time),332755.5,A,p,I,p,7698,1,7716.800000000745,325038.69999999925,9060,WL,B,13.0
2,34.632999897003174,learn,25367.000102996826,Wed May 13 2026 16:28:06 GMT-0400 (Eastern Daylight Time),332955.5,A,pi,I,i,184,1,7916.800000000745,325038.69999999925,9060,WL,B,13.0
2,34.799999952316284,learn,25200.000047683716,Wed May 13 2026 16:28:06 GMT-0400 (Eastern Daylight Time),333122.09999999776,A,pip,I,p,139,1,8083.39999999851,325038.69999999925,9060,WL,B,13.0
2,35.16700005531311,learn,24832.99994468689,Wed May 13 2026 16:28:06 GMT-0400 (Eastern Daylight Time),333488.80000000075,A,pipe,I,e,355,1,8450.10000000149,325038.69999999925,9060,WL,B,13.0
2,35.615999937057495,learn,24384.000062942505,Wed May 13 2026 16:28:06 GMT-0400 (Eastern Daylight Time),333938.3999999985,A,pipeenter,I,enter,427,1,8899.699999999255,325038.69999999925,9060,WL,B,13.0
2,39.08299994468689,learn,20917.00005531311,Wed May 13 2026 16:28:06 GMT-0400 (Eastern Daylight Time),337405.3999999985,A,f,I,f,3453,1,3466.5,333938.8999999985,9060,WL,B,14.0
2,39.26699995994568,learn,20733.00004005432,Wed May 13 2026 16:28:06 GMT-0400 (Eastern Daylight Time),337588.80000000075,A,fi,I,i,166,1,3649.900000002235,333938.8999999985,9060,WL,B,14.0
2,39.450000047683716,learn,20549.999952316284,Wed May 13 2026 16:28:06 GMT-0400 (Eastern Daylight Time),337772.09999999776,A,fir,I,r,160,1,3833.199999999255,333938.8999999985,9060,WL,B,14.0
2,39.632999897003174,learn,20367.000102996826,Wed May 13 2026 16:28:06 GMT-0400 (Eastern Daylight Time),337955.3999999985,A,fire,I,e,160,1,4016.5,333938.8999999985,9060,WL,B,14.0
2,39.76600003242493,learn,20233.999967575073,Wed May 13 2026 16:28:06 GMT-0400 (Eastern Daylight Time),338088.30000000075,A,fireenter,I,enter,115,1,4149.400000002235,333938.8999999985,9060,WL,B,14.0
2,56.132999897003174,learn,3867.000102996826,Wed May 13 2026 16:28:06 GMT-0400 (Eastern Daylight Time),354455.5,A,g,I,g,16353,1,16366.800000000745,338088.69999999925,9060,WL,B,15.0
2,56.31699991226196,learn,3683.000087738037,Wed May 13 2026 16:28:06 GMT-0400 (Eastern Daylight Time),354638.8999999985,A,gr,I,r,171,1,16550.199999999255,338088.69999999925,9060,WL,B,15.0
2,56.59999990463257,learn,3400.0000953674316,Wed May 13 2026 16:28:06 GMT-0400 (Eastern Daylight Time),354922.09999999776,A,gra,I,a,257,1,16833.39999999851,338088.69999999925,9060,WL,B,15.0
2,56.782999992370605,learn,3217.0000076293945,Wed May 13 2026 16:28:06 GMT-0400 (Eastern Daylight Time),355105.5,A,gras,I,s,171,1,17016.800000000745,338088.69999999925,9060,WL,B,15.0
2,56.91700005531311,learn,3082.9999446868896,Wed May 13 2026 16:28:06 GMT-0400 (Eastern Daylight Time),355239.0,A,grass,I,s,124,1,17150.300000000745,338088.69999999925,9060,WL,B,15.0
2,57.049999952316284,learn,2950.000047683716,Wed May 13 2026 16:28:06 GMT-0400 (Eastern Daylight Time),355371.69999999925,A,grassenter,I,enter,116,1,17283.0,338088.69999999925,9060,WL,B,15.0
3,1.7159998416900635,learn,58284.00015830994,Wed May 13 2026 16:28:06 GMT-0400 (Eastern Daylight Time),425988.3999999985,A,s,I,s,1703,1,1716.3999999985099,424272.0,9060,WL,B,1.0
3,1.9829998016357422,learn,58017.00019836426,Wed May 13 2026 16:28:06 GMT-0400 (Eastern Daylight Time),426255.3999999985,A,st,I,t,258,1,1983.3999999985099,424272.0,9060,WL,B,1.0
3,2.2170000076293945,learn,57782.999992370605,Wed May 13 2026 16:28:06 GMT-0400 (Eastern Daylight Time),426488.8999999985,A,str,I,r,214,1,2216.89999999851,424272.0,9060,WL,B,1.0
3,2.4169998168945312,learn,57583.00018310547,Wed May 13 2026 16:28:06 GMT-0400 (Eastern Daylight Time),426689.0,A,stre,I,e,188,1,2417.0,424272.0,9060,WL,B,1.0
3,2.5839998722076416,learn,57416.00012779236,Wed May 13 2026 16:28:06 GMT-0400 (Eastern Daylight Time),426855.80000000075,A,stree,I,e,146,1,2583.800000000745,424272.0,9060,WL,B,1.0
3,2.816999912261963,learn,57183.00008773804,Wed May 13 2026 16:28:06 GMT-0400 (Eastern Daylight Time),427089.0,A,street,I,t,213,1,2817.0,424272.0,9060,WL,B,1.0
3,3.299999952316284,learn,56700.000047683716,Wed May 13 2026 16:28:06 GMT-0400 (Eastern Daylight Time),427572.59999999776,A,streetenter,I,enter,453,1,3300.599999997765,424272.0,9060,WL,B,1.0
3,4.799999952316284,learn,55200.000047683716,Wed May 13 2026 16:28:06 GMT-0400 (Eastern Daylight Time),429072.30000000075,A,d,I,d,1491,1,1499.5,427572.80000000075,9060,WL,B,2.0
3,4.93399977684021,learn,55066.00022315979,Wed May 13 2026 16:28:06 GMT-0400 (Eastern Daylight Time),429205.59999999776,A,do,I,o,109,1,1632.7999999970198,427572.80000000075,9060,WL,B,2.0
3,5.08299994468689,learn,54917.00005531311,Wed May 13 2026 16:28:06 GMT-0400 (Eastern Daylight Time),429355.5,A,doo,I,o,126,1,1782.699999999255,427572.80000000075,9060,WL,B,2.0
3,5.3999998569488525,learn,54600.00014305115,Wed May 13 2026 16:28:06 GMT-0400 (Eastern Daylight Time),429672.3999999985,A,door,I,r,298,1,2099.599999997765,427572.80000000075,9060,WL,B,2.0
3,5.565999984741211,learn,54434.00001525879,Wed May 13 2026 16:28:06 GMT-0400 (Eastern Daylight Time),429838.3999999985,A,doorenter,I,enter,157,1,2265.599999997765,427572.80000000075,9060,WL,B,2.0
3,6.066999912261963,learn,53933.00008773804,Wed May 13 2026 16:28:06 GMT-0400 (Eastern Daylight Time),430339.09999999776,A,g,I,g,489,1,500.5,429838.59999999776,9060,WL,B,3.0
3,6.283999919891357,learn,53716.00008010864,Wed May 13 2026 16:28:06 GMT-0400 (Eastern Daylight Time),430555.69999999925,A,gr,I,r,191,1,717.1000000014901,429838.59999999776,9060,WL,B,3.0
3,6.516999959945679,learn,53483.00004005432,Wed May 13 2026 16:28:06 GMT-0400 (Eastern Daylight Time),430789.0,A,gra,I,a,218,1,950.4000000022352,429838.59999999776,9060,WL,B,3.0
3,6.733999967575073,learn,53266.00003242493,Wed May 13 2026 16:28:06 GMT-0400 (Eastern Daylight Time),431005.80000000075,A,gras,I,s,198,1,1167.2000000029802,429838.59999999776,9060,WL,B,3.0
3,6.8999998569488525,learn,53100.00014305115,Wed May 13 2026 16:28:06 GMT-0400 (Eastern Daylight Time),431172.19999999925,A,grass,I,s,143,1,1333.6000000014901,429838.59999999776,9060,WL,B,3.0
3,7.166999816894531,learn,52833.00018310547,Wed May 13 2026 16:28:06 GMT-0400 (Eastern Daylight Time),431439.0,A,gras,I,backspace,251,1,1600.4000000022352,429838.59999999776,9060,WL,B,3.0
3,7.816999912261963,learn,52183.00008773804,Wed May 13 2026 16:28:06 GMT-0400 (Eastern Daylight Time),432088.8999999985,A,grass,I,s,637,1,2250.300000000745,429838.59999999776,9060,WL,B,3.0
3,8.282999992370605,learn,51717.000007629395,Wed May 13 2026 16:28:06 GMT-0400 (Eastern Daylight Time),432555.3999999985,A,grassenter,I,enter,452,1,2716.800000000745,429838.59999999776,9060,WL,B,3.0
3,8.533999919891357,learn,51466.00008010864,Wed May 13 2026 16:28:06 GMT-0400 (Eastern Daylight Time),432805.80000000075,A,a,I,a,229,1,250.10000000149012,432555.69999999925,9060,WL,B,4.0
3,8.766999959945679,learn,51233.00004005432,Wed May 13 2026 16:28:06 GMT-0400 (Eastern Daylight Time),433039.0,A,ar,I,r,206,1,483.30000000074506,432555.69999999925,9060,WL,B,4.0
3,9.233999967575073,learn,50766.00003242493,Wed May 13 2026 16:28:06 GMT-0400 (Eastern Daylight Time),433505.69999999925,A,arm,I,m,454,1,950.0,432555.69999999925,9060,WL,B,4.0
3,10.416999816894531,learn,49583.00018310547,Wed May 13 2026 16:28:06 GMT-0400 (Eastern Daylight Time),434688.69999999925,A,armenter,I,enter,1171,1,2133.0,432555.69999999925,9060,WL,B,4.0
3,10.799999952316284,learn,49200.000047683716,Wed May 13 2026 16:28:06 GMT-0400 (Eastern Daylight Time),435072.3999999985,A,p,I,p,367,1,383.3999999985099,434689.0,9060,WL,B,5.0
3,11.0,learn,49000.0,Wed May 13 2026 16:28:06 GMT-0400 (Eastern Daylight Time),435272.5,A,pi,I,i,187,1,583.5,434689.0,9060,WL,B,5.0
3,11.166999816894531,learn,48833.00018310547,Wed May 13 2026 16:28:06 GMT-0400 (Eastern Daylight Time),435439.09999999776,A,pip,I,p,134,1,750.0999999977648,434689.0,9060,WL,B,5.0
3,11.316999912261963,learn,48683.00008773804,Wed May 13 2026 16:28:06 GMT-0400 (Eastern Daylight Time),435589.0,A,pipe,I,e,126,1,900.0,434689.0,9060,WL,B,5.0
3,11.766999959945679,learn,48233.00004005432,Wed May 13 2026 16:28:06 GMT-0400 (Eastern Daylight Time),436038.69999999925,A,pipeenter,I,enter,424,1,1349.699999999255,434689.0,9060,WL,B,5.0
3,12.399999856948853,learn,47600.00014305115,Wed May 13 2026 16:28:06 GMT-0400 (Eastern Daylight Time),436672.30000000075,A,s,I,s,625,1,633.2000000029802,436039.09999999776,9060,WL,B,6.0
3,12.633999824523926,learn,47366.000175476074,Wed May 13 2026 16:28:06 GMT-0400 (Eastern Daylight Time),436905.59999999776,A,st,I,t,221,1,866.5,436039.09999999776,9060,WL,B,6.0
3,12.93399977684021,learn,47066.00022315979,Wed May 13 2026 16:28:06 GMT-0400 (Eastern Daylight Time),437205.69999999925,A,sta,I,a,274,1,1166.6000000014901,436039.09999999776,9060,WL,B,6.0
3,13.217000007629395,learn,46782.999992370605,Wed May 13 2026 16:28:06 GMT-0400 (Eastern Daylight Time),437489.0,A,star,I,r,262,1,1449.9000000022352,436039.09999999776,9060,WL,B,6.0
3,13.482999801635742,learn,46517.00019836426,Wed May 13 2026 16:28:06 GMT-0400 (Eastern Daylight Time),437755.19999999925,A,starenter,I,enter,245,1,1716.1000000014901,436039.09999999776,9060,WL,B,6.0
3,13.75,learn,46250.0,Wed May 13 2026 16:28:06 GMT-0400 (Eastern Daylight Time),438022.30000000075,A,w,I,w,244,1,266.70000000298023,437755.59999999776,9060,WL,B,7.0
3,13.967000007629395,learn,46032.999992370605,Wed May 13 2026 16:28:06 GMT-0400 (Eastern Daylight Time),438239.0,A,wi,I,i,192,1,483.4000000022352,437755.59999999776,9060,WL,B,7.0
3,14.217000007629395,learn,45782.999992370605,Wed May 13 2026 16:28:06 GMT-0400 (Eastern Daylight Time),438489.0,A,wif,I,f,222,1,733.4000000022352,437755.59999999776,9060,WL,B,7.0
3,14.43399977684021,learn,45566.00022315979,Wed May 13 2026 16:28:06 GMT-0400 (Eastern Daylight Time),438705.80000000075,A,wife,I,e,195,1,950.2000000029802,437755.59999999776,9060,WL,B,7.0
3,15.149999856948853,learn,44850.00014305115,Wed May 13 2026 16:28:06 GMT-0400 (Eastern Daylight Time),439421.8999999985,A,wifeenter,I,enter,684,1,1666.300000000745,437755.59999999776,9060,WL,B,7.0
3,15.549999952316284,learn,44450.000047683716,Wed May 13 2026 16:28:06 GMT-0400 (Eastern Daylight Time),439822.30000000075,A,p,I,p,386,1,400.1000000014901,439422.19999999925,9060,WL,B,8.0
3,15.899999856948853,learn,44100.00014305115,Wed May 13 2026 16:28:06 GMT-0400 (Eastern Daylight Time),440172.5,A,pu,I,u,335,1,750.3000000007451,439422.19999999925,9060,WL,B,8.0
3,16.116999864578247,learn,43883.00013542175,Wed May 13 2026 16:28:06 GMT-0400 (Eastern Daylight Time),440388.8999999985,A,pup,I,p,193,1,966.6999999992549,439422.19999999925,9060,WL,B,8.0
3,16.41699981689453,learn,43583.00018310547,Wed May 13 2026 16:28:06 GMT-0400 (Eastern Daylight Time),440689.0,A,pupi,I,i,287,1,1266.800000000745,439422.19999999925,9060,WL,B,8.0
3,16.59999990463257,learn,43400.00009536743,Wed May 13 2026 16:28:06 GMT-0400 (Eastern Daylight Time),440872.30000000075,A,pupil,I,l,164,1,1450.1000000014901,439422.19999999925,9060,WL,B,8.0
3,17.033999919891357,learn,42966.00008010864,Wed May 13 2026 16:28:06 GMT-0400 (Eastern Daylight Time),441306.19999999925,A,pupilenter,I,enter,411,1,1884.0,439422.19999999925,9060,WL,B,8.0
3,18.899999856948853,learn,41100.00014305115,Wed May 13 2026 16:28:06 GMT-0400 (Eastern Daylight Time),443172.19999999925,A,c,I,c,1853,1,1865.800000000745,441306.3999999985,9060,WL,B,9.0
3,19.149999856948853,learn,40850.00014305115,Wed May 13 2026 16:28:06 GMT-0400 (Eastern Daylight Time),443422.3999999985,A,ca,I,a,224,1,2116.0,441306.3999999985,9060,WL,B,9.0
3,19.43399977684021,learn,40566.00022315979,Wed May 13 2026 16:28:06 GMT-0400 (Eastern Daylight Time),443705.59999999776,A,cab,I,b,271,1,2399.199999999255,441306.3999999985,9060,WL,B,9.0
3,19.66699981689453,learn,40333.00018310547,Wed May 13 2026 16:28:06 GMT-0400 (Eastern Daylight Time),443939.09999999776,A,cabi,I,i,211,1,2632.699999999255,441306.3999999985,9060,WL,B,9.0
3,19.717000007629395,learn,40282.999992370605,Wed May 13 2026 16:28:06 GMT-0400 (Eastern Daylight Time),443988.8999999985,A,cabin,I,n,26,1,2682.5,441306.3999999985,9060,WL,B,9.0
3,20.066999912261963,learn,39933.00008773804,Wed May 13 2026 16:28:06 GMT-0400 (Eastern Daylight Time),444338.69999999925,A,cabinenter,I,enter,334,1,3032.300000000745,441306.3999999985,9060,WL,B,9.0
3,20.699999809265137,learn,39300.00019073486,Wed May 13 2026 16:28:06 GMT-0400 (Eastern Daylight Time),444972.30000000075,A,l,I,l,614,1,633.2000000029802,444339.09999999776,9060,WL,B,10.0
3,20.866999864578247,learn,39133.00013542175,Wed May 13 2026 16:28:06 GMT-0400 (Eastern Daylight Time),445139.09999999776,A,la,I,a,144,1,800.0,444339.09999999776,9060,WL,B,10.0
3,21.0,learn,39000.0,Wed May 13 2026 16:28:06 GMT-0400 (Eastern Daylight Time),445272.3999999985,A,lak,I,k,121,1,933.3000000007451,444339.09999999776,9060,WL,B,10.0
3,21.16699981689453,learn,38833.00018310547,Wed May 13 2026 16:28:06 GMT-0400 (Eastern Daylight Time),445439.09999999776,A,lake,I,e,157,1,1100.0,444339.09999999776,9060,WL,B,10.0
3,21.482999801635742,learn,38517.00019836426,Wed May 13 2026 16:28:06 GMT-0400 (Eastern Daylight Time),445755.3999999985,A,lakeenter,I,enter,301,1,1416.300000000745,444339.09999999776,9060,WL,B,10.0
3,21.717000007629395,learn,38282.999992370605,Wed May 13 2026 16:28:06 GMT-0400 (Eastern Daylight Time),445989.0,A,c,I,c,213,1,233.19999999925494,445755.80000000075,9060,WL,B,11.0
3,21.84999990463257,learn,38150.00009536743,Wed May 13 2026 16:28:06 GMT-0400 (Eastern Daylight Time),446122.5,A,cl,I,l,112,1,366.69999999925494,445755.80000000075,9060,WL,B,11.0
3,22.033999919891357,learn,37966.00008010864,Wed May 13 2026 16:28:06 GMT-0400 (Eastern Daylight Time),446305.69999999925,A,clo,I,o,161,1,549.8999999985099,445755.80000000075,9060,WL,B,11.0
3,22.283999919891357,learn,37716.00008010864,Wed May 13 2026 16:28:06 GMT-0400 (Eastern Daylight Time),446555.80000000075,A,cloc,I,c,230,1,800.0,445755.80000000075,9060,WL,B,11.0
3,22.66699981689453,learn,37333.00018310547,Wed May 13 2026 16:28:06 GMT-0400 (Eastern Daylight Time),446939.09999999776,A,clock,I,k,361,1,1183.2999999970198,445755.80000000075,9060,WL,B,11.0
3,23.449999809265137,learn,36550.00019073486,Wed May 13 2026 16:28:06 GMT-0400 (Eastern Daylight Time),447722.09999999776,A,clockenter,I,enter,769,1,1966.2999999970198,445755.80000000075,9060,WL,B,11.0
3,25.633999824523926,learn,34366.000175476074,Wed May 13 2026 16:28:06 GMT-0400 (Eastern Daylight Time),449905.80000000075,A,p,I,p,2173,1,2183.300000000745,447722.5,9060,WL,B,12.0
3,25.799999952316284,learn,34200.000047683716,Wed May 13 2026 16:28:06 GMT-0400 (Eastern Daylight Time),450072.30000000075,A,pi,I,i,147,1,2349.800000000745,447722.5,9060,WL,B,12.0
3,25.949999809265137,learn,34050.00019073486,Wed May 13 2026 16:28:06 GMT-0400 (Eastern Daylight Time),450222.5,A,pip,I,p,125,1,2500.0,447722.5,9060,WL,B,12.0
3,26.049999952316284,learn,33950.000047683716,Wed May 13 2026 16:28:06 GMT-0400 (Eastern Daylight Time),450322.09999999776,A,pipe,I,e,79,1,2599.599999997765,447722.5,9060,WL,B,12.0
3,26.782999992370605,learn,33217.000007629395,Wed May 13 2026 16:28:06 GMT-0400 (Eastern Daylight Time),451055.30000000075,A,pipeenter,I,enter,724,1,3332.800000000745,447722.5,9060,WL,B,12.0
3,30.09999990463257,learn,29900.00009536743,Wed May 13 2026 16:28:06 GMT-0400 (Eastern Daylight Time),454372.3999999985,A,f,I,f,3297,1,3316.699999999255,451055.69999999925,9060,WL,B,13.0
3,30.283999919891357,learn,29716.000080108643,Wed May 13 2026 16:28:06 GMT-0400 (Eastern Daylight Time),454555.80000000075,A,fi,I,i,158,1,3500.10000000149,451055.69999999925,9060,WL,B,13.0
3,30.533999919891357,learn,29466.000080108643,Wed May 13 2026 16:28:06 GMT-0400 (Eastern Daylight Time),454805.69999999925,A,fir,I,r,216,1,3750.0,451055.69999999925,9060,WL,B,13.0
3,30.983999967575073,learn,29016.000032424927,Wed May 13 2026 16:28:06 GMT-0400 (Eastern Daylight Time),455255.80000000075,A,fire,I,e,433,1,4200.10000000149,451055.69999999925,9060,WL,B,13.0
3,31.282999992370605,learn,28717.000007629395,Wed May 13 2026 16:28:06 GMT-0400 (Eastern Daylight Time),455555.3999999985,A,fireenter,I,enter,284,1,4499.699999999255,451055.69999999925,9060,WL,B,13.0
3,31.900999784469604,learn,28099.000215530396,Wed May 13 2026 16:28:06 GMT-0400 (Eastern Daylight Time),456172.69999999925,A,c,I,c,596,1,617.0,455555.69999999925,9060,WL,B,14.0
3,32.049999952316284,learn,27950.000047683716,Wed May 13 2026 16:28:06 GMT-0400 (Eastern Daylight Time),456322.3999999985,A,ci,I,i,134,1,766.6999999992549,455555.69999999925,9060,WL,B,14.0
3,32.383999824523926,learn,27616.000175476074,Wed May 13 2026 16:28:06 GMT-0400 (Eastern Daylight Time),456655.80000000075,A,cit,I,t,307,1,1100.1000000014901,455555.69999999925,9060,WL,B,14.0
3,32.59999990463257,learn,27400.00009536743,Wed May 13 2026 16:28:06 GMT-0400 (Eastern Daylight Time),456872.0,A,city,I,y,197,1,1316.300000000745,455555.69999999925,9060,WL,B,14.0
3,32.86699986457825,learn,27133.000135421753,Wed May 13 2026 16:28:06 GMT-0400 (Eastern Daylight Time),457138.69999999925,A,cityenter,I,enter,248,1,1583.0,455555.69999999925,9060,WL,B,14.0
3,57.717000007629395,learn,2282.9999923706055,Wed May 13 2026 16:28:06 GMT-0400 (Eastern Daylight Time),481989.19999999925,A,w,I,w,24838,1,24850.10000000149,457139.09999999776,9060,WL,B,15.0
3,57.967000007629395,learn,2032.9999923706055,Wed May 13 2026 16:28:06 GMT-0400 (Eastern Daylight Time),482239.0,A,wi,I,i,231,1,25099.900000002235,457139.09999999776,9060,WL,B,15.0
3,58.217000007629395,learn,1782.9999923706055,Wed May 13 2026 16:28:06 GMT-0400 (Eastern Daylight Time),482489.09999999776,A,wif,I,f,230,1,25350.0,457139.09999999776,9060,WL,B,15.0
3,58.41699981689453,learn,1583.0001831054688,Wed May 13 2026 16:28:06 GMT-0400 (Eastern Daylight Time),482689.0,A,wife,I,e,179,1,25549.900000002235,457139.09999999776,9060,WL,B,15.0
3,58.549999952316284,learn,1450.0000476837158,Wed May 13 2026 16:28:06 GMT-0400 (Eastern Daylight Time),482822.09999999776,A,wifeenter,I,enter,123,1,25683.0,457139.09999999776,9060,WL,B,15.0
4,0.48399996757507324,learn,59516.00003242493,Wed May 13 2026 16:28:06 GMT-0400 (Eastern Daylight Time),553722.5999999978,A,c,I,c,472,1,482.69999999925494,553239.8999999985,9060,WL,B,1.0
4,0.7839999198913574,learn,59216.00008010864,Wed May 13 2026 16:28:06 GMT-0400 (Eastern Daylight Time),554022.6999999993,A,cl,I,l,274,1,782.8000000007451,553239.8999999985,9060,WL,B,1.0
4,0.9669997692108154,learn,59033.000230789185,Wed May 13 2026 16:28:06 GMT-0400 (Eastern Daylight Time),554205.8999999985,A,clo,I,o,167,1,966.0,553239.8999999985,9060,WL,B,1.0
4,1.1669998168945312,learn,58833.00018310547,Wed May 13 2026 16:28:06 GMT-0400 (Eastern Daylight Time),554406.0999999978,A,cloc,I,c,175,1,1166.199999999255,553239.8999999985,9060,WL,B,1.0
4,1.4169998168945312,learn,58583.00018310547,Wed May 13 2026 16:28:06 GMT-0400 (Eastern Daylight Time),554656.0,A,clock,I,k,230,1,1416.1000000014901,553239.8999999985,9060,WL,B,1.0
4,2.4499998092651367,learn,57550.00019073486,Wed May 13 2026 16:28:06 GMT-0400 (Eastern Daylight Time),555689.0,A,clockenter,I,enter,1011,1,2449.10000000149,553239.8999999985,9060,WL,B,1.0
4,3.2339999675750732,learn,56766.00003242493,Wed May 13 2026 16:28:06 GMT-0400 (Eastern Daylight Time),556472.5999999978,A,s,I,s,767,1,783.2999999970198,555689.3000000007,9060,WL,B,2.0
4,3.4669997692108154,learn,56533.000230789185,Wed May 13 2026 16:28:06 GMT-0400 (Eastern Daylight Time),556705.8000000007,A,st,I,t,213,1,1016.5,555689.3000000007,9060,WL,B,2.0
4,3.6499998569488525,learn,56350.00014305115,Wed May 13 2026 16:28:06 GMT-0400 (Eastern Daylight Time),556889.0999999978,A,str,I,r,165,1,1199.7999999970198,555689.3000000007,9060,WL,B,2.0
4,3.8499999046325684,learn,56150.00009536743,Wed May 13 2026 16:28:06 GMT-0400 (Eastern Daylight Time),557089.1999999993,A,stre,I,e,173,1,1399.8999999985099,555689.3000000007,9060,WL,B,2.0
4,4.0,learn,56000.0,Wed May 13 2026 16:28:06 GMT-0400 (Eastern Daylight Time),557239.1999999993,A,stree,I,e,133,1,1549.8999999985099,555689.3000000007,9060,WL,B,2.0
4,4.216999769210815,learn,55783.000230789185,Wed May 13 2026 16:28:06 GMT-0400 (Eastern Daylight Time),557456.0,A,street,I,t,198,1,1766.699999999255,555689.3000000007,9060,WL,B,2.0
4,4.432999849319458,learn,55567.00015068054,Wed May 13 2026 16:28:06 GMT-0400 (Eastern Daylight Time),557672.0999999978,A,streetenter,I,enter,196,1,1982.7999999970198,555689.3000000007,9060,WL,B,2.0
4,4.616999864578247,learn,55383.00013542175,Wed May 13 2026 16:28:06 GMT-0400 (Eastern Daylight Time),557856.0999999978,A,g,I,g,168,1,183.59999999776483,557672.5,9060,WL,B,3.0
4,4.816999912261963,learn,55183.00008773804,Wed May 13 2026 16:28:06 GMT-0400 (Eastern Daylight Time),558055.5999999978,A,gr,I,r,181,1,383.0999999977648,557672.5,9060,WL,B,3.0
4,5.099999904632568,learn,54900.00009536743,Wed May 13 2026 16:28:06 GMT-0400 (Eastern Daylight Time),558339.0999999978,A,gra,I,a,263,1,666.5999999977648,557672.5,9060,WL,B,3.0
4,5.316999912261963,learn,54683.00008773804,Wed May 13 2026 16:28:06 GMT-0400 (Eastern Daylight Time),558556.0,A,gras,I,s,203,1,883.5,557672.5,9060,WL,B,3.0
4,5.466999769210815,learn,54533.000230789185,Wed May 13 2026 16:28:06 GMT-0400 (Eastern Daylight Time),558706.0,A,grass,I,s,129,1,1033.5,557672.5,9060,WL,B,3.0
4,6.066999912261963,learn,53933.00008773804,Wed May 13 2026 16:28:06 GMT-0400 (Eastern Daylight Time),559305.6999999993,A,grassenter,I,enter,571,1,1633.199999999255,557672.5,9060,WL,B,3.0
4,6.666999816894531,learn,53333.00018310547,Wed May 13 2026 16:28:06 GMT-0400 (Eastern Daylight Time),559906.0,A,w,I,w,591,1,600.1000000014901,559305.8999999985,9060,WL,B,4.0
4,6.833999872207642,learn,53166.00012779236,Wed May 13 2026 16:28:06 GMT-0400 (Eastern Daylight Time),560072.5999999978,A,wi,I,i,155,1,766.6999999992549,559305.8999999985,9060,WL,B,4.0
4,6.8999998569488525,learn,53100.00014305115,Wed May 13 2026 16:28:06 GMT-0400 (Eastern Daylight Time),560139.1999999993,A,win,I,n,50,1,833.3000000007451,559305.8999999985,9060,WL,B,4.0
4,7.116999864578247,learn,52883.00013542175,Wed May 13 2026 16:28:06 GMT-0400 (Eastern Daylight Time),560356.0,A,wind,I,d,188,1,1050.1000000014901,559305.8999999985,9060,WL,B,4.0
4,7.233999967575073,learn,52766.00003242493,Wed May 13 2026 16:28:06 GMT-0400 (Eastern Daylight Time),560472.6999999993,A,windo,I,o,98,1,1166.800000000745,559305.8999999985,9060,WL,B,4.0
4,7.333999872207642,learn,52666.00012779236,Wed May 13 2026 16:28:06 GMT-0400 (Eastern Daylight Time),560572.6999999993,A,window,I,w,69,1,1266.800000000745,559305.8999999985,9060,WL,B,4.0
4,8.099999904632568,learn,51900.00009536743,Wed May 13 2026 16:28:06 GMT-0400 (Eastern Daylight Time),561339.0,A,windowenter,I,enter,745,1,2033.1000000014901,559305.8999999985,9060,WL,B,4.0
4,8.616999864578247,learn,51383.00013542175,Wed May 13 2026 16:28:06 GMT-0400 (Eastern Daylight Time),561855.8999999985,A,a,I,a,502,1,516.5999999977648,561339.3000000007,9060,WL,B,5.0
4,8.849999904632568,learn,51150.00009536743,Wed May 13 2026 16:28:06 GMT-0400 (Eastern Daylight Time),562089.3999999985,A,ar,I,r,214,1,750.0999999977648,561339.3000000007,9060,WL,B,5.0
4,9.150999784469604,learn,50849.000215530396,Wed May 13 2026 16:28:06 GMT-0400 (Eastern Daylight Time),562390.0,A,arm,I,m,284,1,1050.699999999255,561339.3000000007,9060,WL,B,5.0
4,9.666999816894531,learn,50333.00018310547,Wed May 13 2026 16:28:06 GMT-0400 (Eastern Daylight Time),562905.5999999978,A,armenter,I,enter,502,1,1566.2999999970198,561339.3000000007,9060,WL,B,5.0
4,10.233999967575073,learn,49766.00003242493,Wed May 13 2026 16:28:06 GMT-0400 (Eastern Daylight Time),563472.5999999978,A,s,I,s,551,1,566.3999999985099,562906.1999999993,9060,WL,B,6.0
4,10.533999919891357,learn,49466.00008010864,Wed May 13 2026 16:28:06 GMT-0400 (Eastern Daylight Time),563772.6999999993,A,sk,I,k,283,1,866.5,562906.1999999993,9060,WL,B,6.0
4,10.699999809265137,learn,49300.00019073486,Wed May 13 2026 16:28:06 GMT-0400 (Eastern Daylight Time),563939.3999999985,A,ski,I,i,153,1,1033.199999999255,562906.1999999993,9060,WL,B,6.0
4,11.066999912261963,learn,48933.00008773804,Wed May 13 2026 16:28:06 GMT-0400 (Eastern Daylight Time),564306.0,A,skin,I,n,344,1,1399.800000000745,562906.1999999993,9060,WL,B,6.0
4,11.549999952316284,learn,48450.000047683716,Wed May 13 2026 16:28:06 GMT-0400 (Eastern Daylight Time),564788.8000000007,A,skinenter,I,enter,459,1,1882.6000000014901,562906.1999999993,9060,WL,B,6.0
4,12.049999952316284,learn,47950.000047683716,Wed May 13 2026 16:28:06 GMT-0400 (Eastern Daylight Time),565289.1999999993,A,c,I,c,484,1,500.0,564789.1999999993,9060,WL,B,7.0
4,12.233999967575073,learn,47766.00003242493,Wed May 13 2026 16:28:06 GMT-0400 (Eastern Daylight Time),565472.6999999993,A,ci,I,i,165,1,683.5,564789.1999999993,9060,WL,B,7.0
4,12.466999769210815,learn,47533.000230789185,Wed May 13 2026 16:28:06 GMT-0400 (Eastern Daylight Time),565705.8999999985,A,cit,I,t,205,1,916.6999999992549,564789.1999999993,9060,WL,B,7.0
4,12.666999816894531,learn,47333.00018310547,Wed May 13 2026 16:28:06 GMT-0400 (Eastern Daylight Time),565906.0,A,city,I,y,178,1,1116.800000000745,564789.1999999993,9060,WL,B,7.0
4,12.932999849319458,learn,47067.00015068054,Wed May 13 2026 16:28:06 GMT-0400 (Eastern Daylight Time),566172.1999999993,A,cityenter,I,enter,252,1,1383.0,564789.1999999993,9060,WL,B,7.0
4,14.033999919891357,learn,45966.00008010864,Wed May 13 2026 16:28:06 GMT-0400 (Eastern Daylight Time),567272.6999999993,A,c,I,c,1093,1,1100.199999999255,566172.5,9060,WL,B,8.0
4,14.266999959945679,learn,45733.00004005432,Wed May 13 2026 16:28:06 GMT-0400 (Eastern Daylight Time),567506.0999999978,A,ca,I,a,220,1,1333.5999999977648,566172.5,9060,WL,B,8.0
4,14.5,learn,45500.0,Wed May 13 2026 16:28:06 GMT-0400 (Eastern Daylight Time),567739.3000000007,A,cab,I,b,213,1,1566.800000000745,566172.5,9060,WL,B,8.0
4,14.649999856948853,learn,45350.00014305115,Wed May 13 2026 16:28:06 GMT-0400 (Eastern Daylight Time),567889.1999999993,A,cabi,I,i,139,1,1716.699999999255,566172.5,9060,WL,B,8.0
4,14.682999849319458,learn,45317.00015068054,Wed May 13 2026 16:28:06 GMT-0400 (Eastern Daylight Time),567922.3000000007,A,cabin,I,n,6,1,1749.800000000745,566172.5,9060,WL,B,8.0
4,15.200999975204468,learn,44799.00002479553,Wed May 13 2026 16:28:06 GMT-0400 (Eastern Daylight Time),568439.5999999978,A,cabinenter,I,enter,501,1,2267.099999997765,566172.5,9060,WL,B,8.0
4,15.649999856948853,learn,44350.00014305115,Wed May 13 2026 16:28:06 GMT-0400 (Eastern Daylight Time),568889.0999999978,A,w,I,w,432,1,449.19999999925494,568439.8999999985,9060,WL,B,9.0
4,15.783999919891357,learn,44216.00008010864,Wed May 13 2026 16:28:06 GMT-0400 (Eastern Daylight Time),569022.6999999993,A,wi,I,i,106,1,582.8000000007451,568439.8999999985,9060,WL,B,9.0
4,15.849999904632568,learn,44150.00009536743,Wed May 13 2026 16:28:06 GMT-0400 (Eastern Daylight Time),569089.1999999993,A,win,I,n,56,1,649.3000000007451,568439.8999999985,9060,WL,B,9.0
4,16.08399987220764,learn,43916.00012779236,Wed May 13 2026 16:28:06 GMT-0400 (Eastern Daylight Time),569322.8000000007,A,wind,I,d,213,1,882.9000000022352,568439.8999999985,9060,WL,B,9.0
4,16.18399977684021,learn,43816.00022315979,Wed May 13 2026 16:28:06 GMT-0400 (Eastern Daylight Time),569422.6999999993,A,windo,I,o,82,1,982.8000000007451,568439.8999999985,9060,WL,B,9.0
4,16.299999952316284,learn,43700.000047683716,Wed May 13 2026 16:28:06 GMT-0400 (Eastern Daylight Time),569539.1999999993,A,window,I,w,102,1,1099.300000000745,568439.8999999985,9060,WL,B,9.0
4,16.649999856948853,learn,43350.00014305115,Wed May 13 2026 16:28:06 GMT-0400 (Eastern Daylight Time),569888.8999999985,A,windowenter,I,enter,338,1,1449.0,568439.8999999985,9060,WL,B,9.0
4,16.983999967575073,learn,43016.00003242493,Wed May 13 2026 16:28:06 GMT-0400 (Eastern Daylight Time),570222.6999999993,A,s,I,s,311,1,333.3999999985099,569889.3000000007,9060,WL,B,10.0
4,17.283999919891357,learn,42716.00008010864,Wed May 13 2026 16:28:06 GMT-0400 (Eastern Daylight Time),570522.6999999993,A,st,I,t,279,1,633.3999999985099,569889.3000000007,9060,WL,B,10.0
4,17.59999990463257,learn,42400.00009536743,Wed May 13 2026 16:28:06 GMT-0400 (Eastern Daylight Time),570839.3999999985,A,sta,I,a,290,1,950.0999999977648,569889.3000000007,9060,WL,B,10.0
4,17.866999864578247,learn,42133.00013542175,Wed May 13 2026 16:28:06 GMT-0400 (Eastern Daylight Time),571106.0999999978,A,star,I,r,246,1,1216.7999999970198,569889.3000000007,9060,WL,B,10.0
4,18.41699981689453,learn,41583.00018310547,Wed May 13 2026 16:28:06 GMT-0400 (Eastern Daylight Time),571655.5999999978,A,starenter,I,enter,539,1,1766.2999999970198,569889.3000000007,9060,WL,B,10.0
4,18.84999990463257,learn,41150.00009536743,Wed May 13 2026 16:28:06 GMT-0400 (Eastern Daylight Time),572089.1999999993,A,w,I,w,424,1,433.30000000074506,571655.8999999985,9060,WL,B,11.0
4,19.066999912261963,learn,40933.00008773804,Wed May 13 2026 16:28:06 GMT-0400 (Eastern Daylight Time),572305.8999999985,A,wi,I,i,205,1,650.0,571655.8999999985,9060,WL,B,11.0
4,19.299999952316284,learn,40700.000047683716,Wed May 13 2026 16:28:06 GMT-0400 (Eastern Daylight Time),572539.1999999993,A,wif,I,f,219,1,883.3000000007451,571655.8999999985,9060,WL,B,11.0
4,19.51699995994568,learn,40483.00004005432,Wed May 13 2026 16:28:06 GMT-0400 (Eastern Daylight Time),572756.0999999978,A,wife,I,e,194,1,1100.199999999255,571655.8999999985,9060,WL,B,11.0
4,19.66699981689453,learn,40333.00018310547,Wed May 13 2026 16:28:06 GMT-0400 (Eastern Daylight Time),572905.5999999978,A,wifeenter,I,enter,136,1,1249.699999999255,571655.8999999985,9060,WL,B,11.0
4,20.25,learn,39750.0,Wed May 13 2026 16:28:06 GMT-0400 (Eastern Daylight Time),573489.1999999993,A,p,I,p,575,1,583.1999999992549,572906.0,9060,WL,B,12.0
4,20.5,learn,39500.0,Wed May 13 2026 16:28:06 GMT-0400 (Eastern Daylight Time),573739.3000000007,A,pu,I,u,236,1,833.3000000007451,572906.0,9060,WL,B,12.0
4,20.733999967575073,learn,39266.00003242493,Wed May 13 2026 16:28:06 GMT-0400 (Eastern Daylight Time),573972.5999999978,A,pup,I,p,208,1,1066.5999999977648,572906.0,9060,WL,B,12.0
4,21.066999912261963,learn,38933.00008773804,Wed May 13 2026 16:28:06 GMT-0400 (Eastern Daylight Time),574306.0,A,pupu,I,u,321,1,1400.0,572906.0,9060,WL,B,12.0
4,21.216999769210815,learn,38783.000230789185,Wed May 13 2026 16:28:06 GMT-0400 (Eastern Daylight Time),574456.0,A,pupul,I,l,131,1,1550.0,572906.0,9060,WL,B,12.0
4,21.566999912261963,learn,38433.00008773804,Wed May 13 2026 16:28:06 GMT-0400 (Eastern Daylight Time),574806.0999999978,A,pupu,I,backspace,324,1,1900.0999999977648,572906.0,9060,WL,B,12.0
4,21.716999769210815,learn,38283.000230789185,Wed May 13 2026 16:28:06 GMT-0400 (Eastern Daylight Time),574955.8999999985,A,pup,I,backspace,127,1,2049.89999999851,572906.0,9060,WL,B,12.0
4,22.51699995994568,learn,37483.00004005432,Wed May 13 2026 16:28:06 GMT-0400 (Eastern Daylight Time),575756.0,A,pupi,I,i,778,1,2850.0,572906.0,9060,WL,B,12.0
4,22.716999769210815,learn,37283.000230789185,Wed May 13 2026 16:28:06 GMT-0400 (Eastern Daylight Time),575956.0,A,pupil,I,l,177,1,3050.0,572906.0,9060,WL,B,12.0
4,23.382999897003174,learn,36617.000102996826,Wed May 13 2026 16:28:06 GMT-0400 (Eastern Daylight Time),576622.3999999985,A,pupilenter,I,enter,649,1,3716.39999999851,572906.0,9060,WL,B,12.0
4,24.83399987220764,learn,35166.00012779236,Wed May 13 2026 16:28:06 GMT-0400 (Eastern Daylight Time),578072.8000000007,A,c,I,c,1435,1,1450.1000000014901,576622.6999999993,9060,WL,B,13.0
4,25.066999912261963,learn,34933.00008773804,Wed May 13 2026 16:28:06 GMT-0400 (Eastern Daylight Time),578305.8999999985,A,ca,I,a,218,1,1683.199999999255,576622.6999999993,9060,WL,B,13.0
4,25.34999990463257,learn,34650.00009536743,Wed May 13 2026 16:28:06 GMT-0400 (Eastern Daylight Time),578589.3000000007,A,cab,I,b,269,1,1966.6000000014901,576622.6999999993,9060,WL,B,13.0
4,25.483999967575073,learn,34516.00003242493,Wed May 13 2026 16:28:06 GMT-0400 (Eastern Daylight Time),578722.8000000007,A,cabi,I,i,113,1,2100.10000000149,576622.6999999993,9060,WL,B,13.0
4,25.532999992370605,learn,34467.000007629395,Wed May 13 2026 16:28:06 GMT-0400 (Eastern Daylight Time),578772.3999999985,A,cabin,I,n,17,1,2149.699999999255,576622.6999999993,9060,WL,B,13.0
4,25.866999864578247,learn,34133.00013542175,Wed May 13 2026 16:28:06 GMT-0400 (Eastern Daylight Time),579105.6999999993,A,cabinenter,I,enter,321,1,2483.0,576622.6999999993,9060,WL,B,13.0
4,26.566999912261963,learn,33433.00008773804,Wed May 13 2026 16:28:06 GMT-0400 (Eastern Daylight Time),579806.0999999978,A,f,I,f,687,1,700.0999999977648,579106.0,9060,WL,B,14.0
4,26.75,learn,33250.0,Wed May 13 2026 16:28:06 GMT-0400 (Eastern Daylight Time),579989.3999999985,A,fi,I,i,158,1,883.3999999985099,579106.0,9060,WL,B,14.0
4,26.91699981689453,learn,33083.00018310547,Wed May 13 2026 16:28:06 GMT-0400 (Eastern Daylight Time),580156.0,A,fir,I,r,141,1,1050.0,579106.0,9060,WL,B,14.0
4,27.16699981689453,learn,32833.00018310547,Wed May 13 2026 16:28:06 GMT-0400 (Eastern Daylight Time),580406.0,A,fire,I,e,224,1,1300.0,579106.0,9060,WL,B,14.0
4,27.51699995994568,learn,32483.00004005432,Wed May 13 2026 16:28:06 GMT-0400 (Eastern Daylight Time),580755.6999999993,A,fireenter,I,enter,327,1,1649.699999999255,579106.0,9060,WL,B,14.0
4,56.59999990463257,learn,3400.0000953674316,Wed May 13 2026 16:28:06 GMT-0400 (Eastern Daylight Time),609839.5999999978,A,s,I,s,29061,1,29083.599999997765,580756.0,9060,WL,B,15.0
4,56.83399987220764,learn,3166.0001277923584,Wed May 13 2026 16:28:06 GMT-0400 (Eastern Daylight Time),610072.8000000007,A,sk,I,k,222,1,29316.800000000745,580756.0,9060,WL,B,15.0
4,56.98399996757507,learn,3016.0000324249268,Wed May 13 2026 16:28:06 GMT-0400 (Eastern Daylight Time),610222.6999999993,A,ski,I,i,126,1,29466.699999999255,580756.0,9060,WL,B,15.0
4,57.216999769210815,learn,2783.0002307891846,Wed May 13 2026 16:28:06 GMT-0400 (Eastern Daylight Time),610456.0999999978,A,skin,I,n,223,1,29700.099999997765,580756.0,9060,WL,B,15.0
4,57.234999895095825,learn,2765.000104904175,Wed May 13 2026 16:28:06 GMT-0400 (Eastern Daylight Time),610474.3000000007,A,skinm,I,m,1,1,29718.300000000745,580756.0,9060,WL,B,15.0
4,57.86699986457825,learn,2133.000135421753,Wed May 13 2026 16:28:06 GMT-0400 (Eastern Daylight Time),611106.0999999978,A,skin,I,backspace,618,1,30350.099999997765,580756.0,9060,WL,B,15.0
4,58.216999769210815,learn,1783.0002307891846,Wed May 13 2026 16:28:06 GMT-0400 (Eastern Daylight Time),611455.6999999993,A,skinenter,I,enter,329,1,30699.699999999255,580756.0,9060,WL,B,15.0
5,1.1499998569488525,learn,60000.0,Wed May 13 2026 16:28:06 GMT-0400 (Eastern Daylight Time),681173.1999999993,A,c,I,c,1127,1,1149.8999999985099,680023.3000000007,9060,WL,B,1.0
5,1.3999998569488525,learn,60000.0,Wed May 13 2026 16:28:06 GMT-0400 (Eastern Daylight Time),681423.0,A,cl,I,l,232,1,1399.699999999255,680023.3000000007,9060,WL,B,1.0
5,1.5829999446868896,learn,60000.0,Wed May 13 2026 16:28:06 GMT-0400 (Eastern Daylight Time),681606.0999999978,A,clo,I,o,161,1,1582.7999999970198,680023.3000000007,9060,WL,B,1.0
5,1.7170000076293945,learn,60000.0,Wed May 13 2026 16:28:06 GMT-0400 (Eastern Daylight Time),681739.5999999978,A,cloc,I,c,119,1,1716.2999999970198,680023.3000000007,9060,WL,B,1.0
5,1.8829998970031738,learn,60000.0,Wed May 13 2026 16:28:06 GMT-0400 (Eastern Daylight Time),681906.3000000007,A,clock,I,k,154,1,1883.0,680023.3000000007,9060,WL,B,1.0
5,2.3999998569488525,learn,60000.0,Wed May 13 2026 16:28:06 GMT-0400 (Eastern Daylight Time),682422.5999999978,A,clockenter,I,enter,498,1,2399.2999999970198,680023.3000000007,9060,WL,B,1.0
5,3.182999849319458,learn,60000.0,Wed May 13 2026 16:28:06 GMT-0400 (Eastern Daylight Time),683206.1999999993,A,s,I,s,761,1,783.3000000007451,682422.8999999985,9060,WL,B,2.0
5,3.432999849319458,learn,60000.0,Wed May 13 2026 16:28:06 GMT-0400 (Eastern Daylight Time),683456.3000000007,A,st,I,t,238,1,1033.4000000022352,682422.8999999985,9060,WL,B,2.0
5,3.6499998569488525,learn,60000.0,Wed May 13 2026 16:28:06 GMT-0400 (Eastern Daylight Time),683672.8000000007,A,str,I,r,205,1,1249.9000000022352,682422.8999999985,9060,WL,B,2.0
5,3.8999998569488525,learn,60000.0,Wed May 13 2026 16:28:06 GMT-0400 (Eastern Daylight Time),683923.0,A,stre,I,e,238,1,1500.1000000014901,682422.8999999985,9060,WL,B,2.0
5,4.065999984741211,learn,60000.0,Wed May 13 2026 16:28:06 GMT-0400 (Eastern Daylight Time),684089.5,A,stree,I,e,154,1,1666.6000000014901,682422.8999999985,9060,WL,B,2.0
5,4.299999952316284,learn,60000.0,Wed May 13 2026 16:28:06 GMT-0400 (Eastern Daylight Time),684323.0,A,street,I,t,204,1,1900.1000000014901,682422.8999999985,9060,WL,B,2.0
5,4.615999937057495,learn,60000.0,Wed May 13 2026 16:28:06 GMT-0400 (Eastern Daylight Time),684639.1999999993,A,streetenter,I,enter,295,1,2216.300000000745,682422.8999999985,9060,WL,B,2.0
5,5.766000032424927,learn,60000.0,Wed May 13 2026 16:28:06 GMT-0400 (Eastern Daylight Time),685789.5999999978,A,g,I,g,1129,1,1150.0,684639.5999999978,9060,WL,B,3.0
5,5.983000040054321,learn,60000.0,Wed May 13 2026 16:28:06 GMT-0400 (Eastern Daylight Time),686006.3000000007,A,gr,I,r,201,1,1366.7000000029802,684639.5999999978,9060,WL,B,3.0
5,6.233000040054321,learn,60000.0,Wed May 13 2026 16:28:06 GMT-0400 (Eastern Daylight Time),686256.0999999978,A,gra,I,a,232,1,1616.5,684639.5999999978,9060,WL,B,3.0
5,6.450000047683716,learn,60000.0,Wed May 13 2026 16:28:06 GMT-0400 (Eastern Daylight Time),686472.8999999985,A,gras,I,s,206,1,1833.300000000745,684639.5999999978,9060,WL,B,3.0
5,6.615999937057495,learn,60000.0,Wed May 13 2026 16:28:06 GMT-0400 (Eastern Daylight Time),686639.3999999985,A,grass,I,s,150,1,1999.800000000745,684639.5999999978,9060,WL,B,3.0
5,6.882999897003174,learn,60000.0,Wed May 13 2026 16:28:06 GMT-0400 (Eastern Daylight Time),686905.8999999985,A,grassenter,I,enter,238,1,2266.300000000745,684639.5999999978,9060,WL,B,3.0
5,7.182999849319458,learn,60000.0,Wed May 13 2026 16:28:06 GMT-0400 (Eastern Daylight Time),687206.1999999993,A,w,I,w,287,1,300.0,686906.1999999993,9060,WL,B,4.0
5,7.382999897003174,learn,60000.0,Wed May 13 2026 16:28:06 GMT-0400 (Eastern Daylight Time),687406.1999999993,A,wi,I,i,184,1,500.0,686906.1999999993,9060,WL,B,4.0
5,7.616999864578247,learn,60000.0,Wed May 13 2026 16:28:06 GMT-0400 (Eastern Daylight Time),687639.5999999978,A,win,I,n,208,1,733.3999999985099,686906.1999999993,9060,WL,B,4.0
5,7.865999937057495,learn,60000.0,Wed May 13 2026 16:28:06 GMT-0400 (Eastern Daylight Time),687889.5,A,wind,I,d,238,1,983.3000000007451,686906.1999999993,9060,WL,B,4.0
5,8.032999992370605,learn,60000.0,Wed May 13 2026 16:28:06 GMT-0400 (Eastern Daylight Time),688056.3000000007,A,windo,I,o,148,1,1150.1000000014901,686906.1999999993,9060,WL,B,4.0
5,8.132999897003174,learn,60000.0,Wed May 13 2026 16:28:06 GMT-0400 (Eastern Daylight Time),688156.3000000007,A,window,I,w,77,1,1250.1000000014901,686906.1999999993,9060,WL,B,4.0
5,8.599999904632568,learn,60000.0,Wed May 13 2026 16:28:06 GMT-0400 (Eastern Daylight Time),688622.5999999978,A,windowenter,I,enter,442,1,1716.3999999985099,686906.1999999993,9060,WL,B,4.0
5,8.866999864578247,learn,60000.0,Wed May 13 2026 16:28:06 GMT-0400 (Eastern Daylight Time),688889.6999999993,A,a,I,a,258,1,266.69999999925494,688623.0,9060,WL,B,5.0
5,9.08299994468689,learn,60000.0,Wed May 13 2026 16:28:06 GMT-0400 (Eastern Daylight Time),689106.3000000007,A,ar,I,r,204,1,483.30000000074506,688623.0,9060,WL,B,5.0
5,9.599999904632568,learn,60000.0,Wed May 13 2026 16:28:06 GMT-0400 (Eastern Daylight Time),689622.8999999985,A,arm,I,m,484,1,999.8999999985099,688623.0,9060,WL,B,5.0
5,9.848999977111816,learn,60000.0,Wed May 13 2026 16:28:06 GMT-0400 (Eastern Daylight Time),689872.5999999978,A,armenter,I,enter,238,1,1249.5999999977648,688623.0,9060,WL,B,5.0
5,10.25,learn,60000.0,Wed May 13 2026 16:28:06 GMT-0400 (Eastern Daylight Time),690272.8000000007,A,s,I,s,384,1,399.9000000022352,689872.8999999985,9060,WL,B,6.0
5,10.549999952316284,learn,60000.0,Wed May 13 2026 16:28:06 GMT-0400 (Eastern Daylight Time),690572.8000000007,A,sk,I,k,276,1,699.9000000022352,689872.8999999985,9060,WL,B,6.0
5,10.716000080108643,learn,60000.0,Wed May 13 2026 16:28:06 GMT-0400 (Eastern Daylight Time),690739.5,A,ski,I,i,145,1,866.6000000014901,689872.8999999985,9060,WL,B,6.0
5,11.0,learn,60000.0,Wed May 13 2026 16:28:06 GMT-0400 (Eastern Daylight Time),691023.1999999993,A,skin,I,n,274,1,1150.300000000745,689872.8999999985,9060,WL,B,6.0
5,11.33299994468689,learn,60000.0,Wed May 13 2026 16:28:06 GMT-0400 (Eastern Daylight Time),691356.0,A,skinenter,I,enter,311,1,1483.1000000014901,689872.8999999985,9060,WL,B,6.0
5,11.75,learn,60000.0,Wed May 13 2026 16:28:06 GMT-0400 (Eastern Daylight Time),691773.0,A,p,I,p,405,1,416.69999999925494,691356.3000000007,9060,WL,B,7.0
5,11.932999849319458,learn,60000.0,Wed May 13 2026 16:28:06 GMT-0400 (Eastern Daylight Time),691956.1999999993,A,pi,I,i,168,1,599.8999999985099,691356.3000000007,9060,WL,B,7.0
5,12.099999904632568,learn,60000.0,Wed May 13 2026 16:28:06 GMT-0400 (Eastern Daylight Time),692122.8999999985,A,pip,I,p,146,1,766.5999999977648,691356.3000000007,9060,WL,B,7.0
5,12.266000032424927,learn,60000.0,Wed May 13 2026 16:28:06 GMT-0400 (Eastern Daylight Time),692289.5,A,pipe,I,e,156,1,933.1999999992549,691356.3000000007,9060,WL,B,7.0
5,13.08299994468689,learn,60000.0,Wed May 13 2026 16:28:06 GMT-0400 (Eastern Daylight Time),693105.8999999985,A,pipeenter,I,enter,795,1,1749.5999999977648,691356.3000000007,9060,WL,B,7.0
5,14.466000080108643,learn,60000.0,Wed May 13 2026 16:28:06 GMT-0400 (Eastern Daylight Time),694489.5999999978,A,w,I,w,1375,1,1383.3999999985099,693106.1999999993,9060,WL,B,8.0
5,14.649999856948853,learn,60000.0,Wed May 13 2026 16:28:06 GMT-0400 (Eastern Daylight Time),694673.0999999978,A,wi,I,i,164,1,1566.8999999985099,693106.1999999993,9060,WL,B,8.0
5,14.950000047683716,learn,60000.0,Wed May 13 2026 16:28:06 GMT-0400 (Eastern Daylight Time),694973.0,A,wif,I,f,277,1,1866.800000000745,693106.1999999993,9060,WL,B,8.0
5,15.200000047683716,learn,60000.0,Wed May 13 2026 16:28:06 GMT-0400 (Eastern Daylight Time),695223.0,A,wife,I,e,224,1,2116.800000000745,693106.1999999993,9060,WL,B,8.0
5,15.3989999294281,learn,60000.0,Wed May 13 2026 16:28:06 GMT-0400 (Eastern Daylight Time),695422.5,A,wifeenter,I,enter,188,1,2316.300000000745,693106.1999999993,9060,WL,B,8.0
5,15.967000007629395,learn,60000.0,Wed May 13 2026 16:28:06 GMT-0400 (Eastern Daylight Time),695989.6999999993,A,p,I,p,546,1,567.0,695422.6999999993,9060,WL,B,9.0
5,16.26699995994568,learn,60000.0,Wed May 13 2026 16:28:06 GMT-0400 (Eastern Daylight Time),696289.8000000007,A,pu,I,u,288,1,867.1000000014901,695422.6999999993,9060,WL,B,9.0
5,16.467000007629395,learn,60000.0,Wed May 13 2026 16:28:06 GMT-0400 (Eastern Daylight Time),696489.8000000007,A,pup,I,p,187,1,1067.1000000014901,695422.6999999993,9060,WL,B,9.0
5,16.816999912261963,learn,60000.0,Wed May 13 2026 16:28:06 GMT-0400 (Eastern Daylight Time),696839.6999999993,A,pupi,I,i,324,1,1417.0,695422.6999999993,9060,WL,B,9.0
5,17.032999992370605,learn,60000.0,Wed May 13 2026 16:28:06 GMT-0400 (Eastern Daylight Time),697056.1999999993,A,pupil,I,l,199,1,1633.5,695422.6999999993,9060,WL,B,9.0
5,17.632999897003174,learn,60000.0,Wed May 13 2026 16:28:06 GMT-0400 (Eastern Daylight Time),697655.8999999985,A,pupilenter,I,enter,580,1,2233.199999999255,695422.6999999993,9060,WL,B,9.0
5,18.516000032424927,learn,60000.0,Wed May 13 2026 16:28:06 GMT-0400 (Eastern Daylight Time),698539.5,A,s,I,s,864,1,883.1000000014901,697656.3999999985,9060,WL,B,10.0
5,18.75,learn,60000.0,Wed May 13 2026 16:28:06 GMT-0400 (Eastern Daylight Time),698772.8999999985,A,st,I,t,209,1,1116.5,697656.3999999985,9060,WL,B,10.0
5,19.049999952316284,learn,60000.0,Wed May 13 2026 16:28:06 GMT-0400 (Eastern Daylight Time),699072.8999999985,A,sta,I,a,281,1,1416.5,697656.3999999985,9060,WL,B,10.0
5,19.549999952316284,learn,60000.0,Wed May 13 2026 16:28:06 GMT-0400 (Eastern Daylight Time),699572.8999999985,A,star,I,r,474,1,1916.5,697656.3999999985,9060,WL,B,10.0
5,20.08299994468689,learn,60000.0,Wed May 13 2026 16:28:06 GMT-0400 (Eastern Daylight Time),700105.8999999985,A,starenter,I,enter,512,1,2449.5,697656.3999999985,9060,WL,B,10.0
5,20.34999990463257,learn,60000.0,Wed May 13 2026 16:28:06 GMT-0400 (Eastern Daylight Time),700373.0,A,c,I,c,254,1,266.69999999925494,700106.3000000007,9060,WL,B,11.0
5,20.566999912261963,learn,60000.0,Wed May 13 2026 16:28:06 GMT-0400 (Eastern Daylight Time),700589.6999999993,A,ci,I,i,190,1,483.3999999985099,700106.3000000007,9060,WL,B,11.0
5,20.782999992370605,learn,60000.0,Wed May 13 2026 16:28:06 GMT-0400 (Eastern Daylight Time),700806.1999999993,A,cit,I,t,192,1,699.8999999985099,700106.3000000007,9060,WL,B,11.0
5,20.967000007629395,learn,60000.0,Wed May 13 2026 16:28:06 GMT-0400 (Eastern Daylight Time),700989.6999999993,A,city,I,y,167,1,883.3999999985099,700106.3000000007,9060,WL,B,11.0
5,21.115999937057495,learn,60000.0,Wed May 13 2026 16:28:06 GMT-0400 (Eastern Daylight Time),701139.3000000007,A,cityenter,I,enter,119,1,1033.0,700106.3000000007,9060,WL,B,11.0
5,21.532999992370605,learn,60000.0,Wed May 13 2026 16:28:06 GMT-0400 (Eastern Daylight Time),701556.3000000007,A,l,I,l,405,1,416.70000000298023,701139.5999999978,9060,WL,B,12.0
5,21.649999856948853,learn,60000.0,Wed May 13 2026 16:28:06 GMT-0400 (Eastern Daylight Time),701673.0,A,la,I,a,96,1,533.4000000022352,701139.5999999978,9060,WL,B,12.0
5,21.81599998474121,learn,60000.0,Wed May 13 2026 16:28:06 GMT-0400 (Eastern Daylight Time),701839.3999999985,A,lak,I,k,150,1,699.8000000007451,701139.5999999978,9060,WL,B,12.0
5,21.966000080108643,learn,60000.0,Wed May 13 2026 16:28:06 GMT-0400 (Eastern Daylight Time),701989.5999999978,A,lake,I,e,126,1,850.0,701139.5999999978,9060,WL,B,12.0
5,22.182999849319458,learn,60000.0,Wed May 13 2026 16:28:06 GMT-0400 (Eastern Daylight Time),702205.8000000007,A,lakeenter,I,enter,187,1,1066.2000000029802,701139.5999999978,9060,WL,B,12.0
5,22.799999952316284,learn,60000.0,Wed May 13 2026 16:28:06 GMT-0400 (Eastern Daylight Time),702822.8999999985,A,c,I,c,603,1,616.8000000007451,702206.0999999978,9060,WL,B,13.0
5,23.032999992370605,learn,60000.0,Wed May 13 2026 16:28:06 GMT-0400 (Eastern Daylight Time),703056.3000000007,A,ca,I,a,222,1,850.2000000029802,702206.0999999978,9060,WL,B,13.0
5,23.33299994468689,learn,60000.0,Wed May 13 2026 16:28:06 GMT-0400 (Eastern Daylight Time),703356.3000000007,A,cab,I,b,286,1,1150.2000000029802,702206.0999999978,9060,WL,B,13.0
5,23.450000047683716,learn,60000.0,Wed May 13 2026 16:28:06 GMT-0400 (Eastern Daylight Time),703472.8999999985,A,cabi,I,i,105,1,1266.800000000745,702206.0999999978,9060,WL,B,13.0
5,23.5,learn,60000.0,Wed May 13 2026 16:28:06 GMT-0400 (Eastern Daylight Time),703522.5999999978,A,cabin,I,n,21,1,1316.5,702206.0999999978,9060,WL,B,13.0
5,24.33299994468689,learn,60000.0,Wed May 13 2026 16:28:06 GMT-0400 (Eastern Daylight Time),704355.8000000007,A,cabinenter,I,enter,813,1,2149.7000000029802,702206.0999999978,9060,WL,B,13.0
5,24.950000047683716,learn,60000.0,Wed May 13 2026 16:28:06 GMT-0400 (Eastern Daylight Time),704973.0,A,f,I,f,597,1,616.8000000007451,704356.1999999993,9060,WL,B,14.0
5,25.09999990463257,learn,60000.0,Wed May 13 2026 16:28:06 GMT-0400 (Eastern Daylight Time),705122.8999999985,A,fi,I,i,135,1,766.6999999992549,704356.1999999993,9060,WL,B,14.0
5,25.216000080108643,learn,60000.0,Wed May 13 2026 16:28:06 GMT-0400 (Eastern Daylight Time),705239.5,A,fir,I,r,105,1,883.3000000007451,704356.1999999993,9060,WL,B,14.0
5,25.615999937057495,learn,60000.0,Wed May 13 2026 16:28:06 GMT-0400 (Eastern Daylight Time),705639.3999999985,A,fire,I,e,390,1,1283.199999999255,704356.1999999993,9060,WL,B,14.0
5,25.98300004005432,learn,60000.0,Wed May 13 2026 16:28:06 GMT-0400 (Eastern Daylight Time),706006.1999999993,A,fireenter,I,enter,356,1,1650.0,704356.1999999993,9060,WL,B,14.0
5,39.43299984931946,learn,60000.0,Wed May 13 2026 16:28:06 GMT-0400 (Eastern Daylight Time),719456.1999999993,A,l,I,l,13435,1,13449.800000000745,706006.3999999985,9060,WL,B,15.0
5,39.549999952316284,learn,60000.0,Wed May 13 2026 16:28:06 GMT-0400 (Eastern Daylight Time),719573.0,A,la,I,a,92,1,13566.60000000149,706006.3999999985,9060,WL,B,15.0
5,39.73300004005432,learn,60000.0,Wed May 13 2026 16:28:06 GMT-0400 (Eastern Daylight Time),719756.1999999993,A,lak,I,k,169,1,13749.800000000745,706006.3999999985,9060,WL,B,15.0
5,39.98300004005432,learn,60000.0,Wed May 13 2026 16:28:06 GMT-0400 (Eastern Daylight Time),720006.3000000007,A,lake,I,e,233,1,13999.900000002235,706006.3999999985,9060,WL,B,15.0
5,40.59999990463257,learn,60000.0,Wed May 13 2026 16:28:06 GMT-0400 (Eastern Daylight Time),720622.5999999978,A,lakeenter,I,enter,598,1,14616.199999999255,706006.3999999985,9060,WL,B,15.0
6,0.7330000400543213,distr,59266.99995994568,Wed May 13 2026 16:28:06 GMT-0400 (Eastern Daylight Time),795323.3000000007,B,b,I,b,721,1,733.1000000014901,794590.1999999993,9060,WL,B,1.0
6,0.8329999446868896,distr,59167.00005531311,Wed May 13 2026 16:28:06 GMT-0400 (Eastern Daylight Time),795423.1999999993,B,ba,I,a,80,1,833.0,794590.1999999993,9060,WL,B,1.0
6,0.9500000476837158,distr,59049.999952316284,Wed May 13 2026 16:28:06 GMT-0400 (Eastern Daylight Time),795539.6999999993,B,bab,I,b,104,1,949.5,794590.1999999993,9060,WL,B,1.0
6,1.8329999446868896,distr,58167.00005531311,Wed May 13 2026 16:28:06 GMT-0400 (Eastern Daylight Time),796423.0999999978,B,baby,I,y,860,1,1832.8999999985099,794590.1999999993,9060,WL,B,1.0
6,2.433000087738037,distr,57566.99991226196,Wed May 13 2026 16:28:06 GMT-0400 (Eastern Daylight Time),797023.1999999993,B,babyenter,I,enter,591,1,2433.0,794590.1999999993,9060,WL,B,1.0
6,3.700000047683716,distr,56299.999952316284,Wed May 13 2026 16:28:06 GMT-0400 (Eastern Daylight Time),798290.0,B,r,I,r,1257,1,1266.5,797023.5,9060,WL,B,2.0
6,3.9160001277923584,distr,56083.99987220764,Wed May 13 2026 16:28:06 GMT-0400 (Eastern Daylight Time),798506.3999999985,B,ro,I,o,203,1,1482.8999999985099,797023.5,9060,WL,B,2.0
6,4.08299994468689,distr,55917.00005531311,Wed May 13 2026 16:28:06 GMT-0400 (Eastern Daylight Time),798673.1999999993,B,roc,I,c,155,1,1649.699999999255,797023.5,9060,WL,B,2.0
6,4.2829999923706055,distr,55717.000007629395,Wed May 13 2026 16:28:06 GMT-0400 (Eastern Daylight Time),798873.1999999993,B,rock,I,k,178,1,1849.699999999255,797023.5,9060,WL,B,2.0
6,5.799999952316284,distr,54200.000047683716,Wed May 13 2026 16:28:06 GMT-0400 (Eastern Daylight Time),800390.1999999993,B,rockenter,I,enter,1500,1,3366.699999999255,797023.5,9060,WL,B,2.0
6,6.365999937057495,distr,53634.000062942505,Wed May 13 2026 16:28:06 GMT-0400 (Eastern Daylight Time),800956.3999999985,B,c,I,c,546,1,565.8000000007451,800390.5999999978,9060,WL,B,3.0
6,6.516000032424927,distr,53483.99996757507,Wed May 13 2026 16:28:06 GMT-0400 (Eastern Daylight Time),801106.3999999985,B,co,I,o,129,1,715.8000000007451,800390.5999999978,9060,WL,B,3.0
6,6.815999984741211,distr,53184.00001525879,Wed May 13 2026 16:28:06 GMT-0400 (Eastern Daylight Time),801406.5,B,coi,I,i,274,1,1015.9000000022352,800390.5999999978,9060,WL,B,3.0
6,7.065999984741211,distr,52934.00001525879,Wed May 13 2026 16:28:06 GMT-0400 (Eastern Daylight Time),801656.5,B,coin,I,n,239,1,1265.9000000022352,800390.5999999978,9060,WL,B,3.0
6,7.499000072479248,distr,52500.99992752075,Wed May 13 2026 16:28:06 GMT-0400 (Eastern Daylight Time),802089.5,B,coinenter,I,enter,420,1,1698.9000000022352,800390.5999999978,9060,WL,B,3.0
6,7.8500001430511475,distr,52149.99985694885,Wed May 13 2026 16:28:06 GMT-0400 (Eastern Daylight Time),802439.8000000007,B,d,I,d,343,1,350.0,802089.8000000007,9060,WL,B,4.0
6,8.016999959945679,distr,51983.00004005432,Wed May 13 2026 16:28:06 GMT-0400 (Eastern Daylight Time),802606.5999999978,B,dr,I,r,150,1,516.7999999970198,802089.8000000007,9060,WL,B,4.0
6,8.216000080108643,distr,51783.99991989136,Wed May 13 2026 16:28:06 GMT-0400 (Eastern Daylight Time),802806.3999999985,B,dre,I,e,176,1,716.5999999977648,802089.8000000007,9060,WL,B,4.0
6,8.450000047683716,distr,51549.999952316284,Wed May 13 2026 16:28:06 GMT-0400 (Eastern Daylight Time),803039.8999999985,B,dres,I,s,215,1,950.0999999977648,802089.8000000007,9060,WL,B,4.0
6,8.615999937057495,distr,51384.000062942505,Wed May 13 2026 16:28:06 GMT-0400 (Eastern Daylight Time),803206.3999999985,B,dress,I,s,149,1,1116.5999999977648,802089.8000000007,9060,WL,B,4.0
6,8.966000080108643,distr,51033.99991989136,Wed May 13 2026 16:28:06 GMT-0400 (Eastern Daylight Time),803556.1999999993,B,dressenter,I,enter,327,1,1466.3999999985099,802089.8000000007,9060,WL,B,4.0
6,10.25,distr,49750.0,Wed May 13 2026 16:28:06 GMT-0400 (Eastern Daylight Time),804839.8999999985,B,a,I,a,1260,1,1283.300000000745,803556.5999999978,9060,WL,B,5.0
6,10.5,distr,49500.0,Wed May 13 2026 16:28:06 GMT-0400 (Eastern Daylight Time),805089.8000000007,B,ar,I,r,237,1,1533.2000000029802,803556.5999999978,9060,WL,B,5.0
6,12.183000087738037,distr,47816.99991226196,Wed May 13 2026 16:28:06 GMT-0400 (Eastern Daylight Time),806773.1999999993,B,arm,I,m,1668,1,3216.60000000149,803556.5999999978,9060,WL,B,5.0
6,12.416000127792358,distr,47583.99987220764,Wed May 13 2026 16:28:06 GMT-0400 (Eastern Daylight Time),807006.3999999985,B,army,I,y,216,1,3449.800000000745,803556.5999999978,9060,WL,B,5.0
6,12.933000087738037,distr,47066.99991226196,Wed May 13 2026 16:28:06 GMT-0400 (Eastern Daylight Time),807522.8000000007,B,armyenter,I,enter,502,1,3966.2000000029802,803556.5999999978,9060,WL,B,5.0
6,13.282999992370605,distr,46717.000007629395,Wed May 13 2026 16:28:06 GMT-0400 (Eastern Daylight Time),807873.0999999978,B,s,I,s,342,1,350.0,807523.0999999978,9060,WL,B,6.0
6,13.549999952316284,distr,46450.000047683716,Wed May 13 2026 16:28:06 GMT-0400 (Eastern Daylight Time),808139.8999999985,B,st,I,t,252,1,616.8000000007451,807523.0999999978,9060,WL,B,6.0
6,14.016000032424927,distr,45983.99996757507,Wed May 13 2026 16:28:06 GMT-0400 (Eastern Daylight Time),808606.5999999978,B,sto,I,o,442,1,1083.5,807523.0999999978,9060,WL,B,6.0
6,14.233000040054321,distr,45766.99995994568,Wed May 13 2026 16:28:06 GMT-0400 (Eastern Daylight Time),808823.3999999985,B,stor,I,r,205,1,1300.300000000745,807523.0999999978,9060,WL,B,6.0
6,14.633000135421753,distr,45366.99986457825,Wed May 13 2026 16:28:06 GMT-0400 (Eastern Daylight Time),809223.3000000007,B,storm,I,m,381,1,1700.2000000029802,807523.0999999978,9060,WL,B,6.0
6,15.08299994468689,distr,44917.00005531311,Wed May 13 2026 16:28:06 GMT-0400 (Eastern Daylight Time),809672.8999999985,B,stormenter,I,enter,429,1,2149.800000000745,807523.0999999978,9060,WL,B,6.0
6,18.615999937057495,distr,41384.000062942505,Wed May 13 2026 16:28:06 GMT-0400 (Eastern Daylight Time),813206.3999999985,B,p,I,p,3520,1,3533.199999999255,809673.1999999993,9060,WL,B,7.0
6,18.73300004005432,distr,41266.99995994568,Wed May 13 2026 16:28:06 GMT-0400 (Eastern Daylight Time),813323.1999999993,B,pa,I,a,103,1,3650.0,809673.1999999993,9060,WL,B,7.0
6,18.850000143051147,distr,41149.99985694885,Wed May 13 2026 16:28:06 GMT-0400 (Eastern Daylight Time),813440.0,B,pal,I,l,91,1,3766.800000000745,809673.1999999993,9060,WL,B,7.0
6,19.0,distr,41000.0,Wed May 13 2026 16:28:06 GMT-0400 (Eastern Daylight Time),813589.8000000007,B,pala,I,a,119,1,3916.60000000149,809673.1999999993,9060,WL,B,7.0
6,19.56599998474121,distr,40434.00001525879,Wed May 13 2026 16:28:06 GMT-0400 (Eastern Daylight Time),814156.3999999985,B,palac,I,c,544,1,4483.199999999255,809673.1999999993,9060,WL,B,7.0
6,19.98300004005432,distr,40016.99995994568,Wed May 13 2026 16:28:06 GMT-0400 (Eastern Daylight Time),814573.0999999978,B,palace,I,e,402,1,4899.89999999851,809673.1999999993,9060,WL,B,7.0
6,20.23300004005432,distr,39766.99995994568,Wed May 13 2026 16:28:06 GMT-0400 (Eastern Daylight Time),814823.1999999993,B,palaceenter,I,enter,239,1,5150.0,809673.1999999993,9060,WL,B,7.0
6,20.65000009536743,distr,39349.99990463257,Wed May 13 2026 16:28:06 GMT-0400 (Eastern Daylight Time),815239.6999999993,B,b,I,b,410,1,416.19999999925494,814823.5,9060,WL,B,8.0
6,20.883000135421753,distr,39116.99986457825,Wed May 13 2026 16:28:06 GMT-0400 (Eastern Daylight Time),815473.3999999985,B,bu,I,u,215,1,649.8999999985099,814823.5,9060,WL,B,8.0
6,21.06599998474121,distr,38934.00001525879,Wed May 13 2026 16:28:06 GMT-0400 (Eastern Daylight Time),815656.5,B,bui,I,i,170,1,833.0,814823.5,9060,WL,B,8.0
6,21.282999992370605,distr,38717.000007629395,Wed May 13 2026 16:28:06 GMT-0400 (Eastern Daylight Time),815873.1999999993,B,buil,I,l,197,1,1049.699999999255,814823.5,9060,WL,B,8.0
6,21.65000009536743,distr,38349.99990463257,Wed May 13 2026 16:28:06 GMT-0400 (Eastern Daylight Time),816239.8999999985,B,build,I,d,348,1,1416.3999999985099,814823.5,9060,WL,B,8.0
6,21.76699995994568,distr,38233.00004005432,Wed May 13 2026 16:28:06 GMT-0400 (Eastern Daylight Time),816356.6999999993,B,buildi,I,i,93,1,1533.199999999255,814823.5,9060,WL,B,8.0
6,21.81599998474121,distr,38184.00001525879,Wed May 13 2026 16:28:06 GMT-0400 (Eastern Daylight Time),816406.1999999993,B,buildin,I,n,24,1,1582.699999999255,814823.5,9060,WL,B,8.0
6,21.950000047683716,distr,38049.999952316284,Wed May 13 2026 16:28:06 GMT-0400 (Eastern Daylight Time),816540.0,B,building,I,g,122,1,1716.5,814823.5,9060,WL,B,8.0
6,22.31599998474121,distr,37684.00001525879,Wed May 13 2026 16:28:06 GMT-0400 (Eastern Daylight Time),816906.1999999993,B,buildingenter,I,enter,352,1,2082.699999999255,814823.5,9060,WL,B,8.0
6,28.716000080108643,distr,31283.999919891357,Wed May 13 2026 16:28:06 GMT-0400 (Eastern Daylight Time),823306.5999999978,B,o,I,o,6390,1,6400.0,816906.5999999978,9060,WL,B,9.0
6,28.90000009536743,distr,31099.99990463257,Wed May 13 2026 16:28:06 GMT-0400 (Eastern Daylight Time),823489.8999999985,B,oc,I,c,162,1,6583.300000000745,816906.5999999978,9060,WL,B,9.0
6,29.16600012779236,distr,30833.99987220764,Wed May 13 2026 16:28:06 GMT-0400 (Eastern Daylight Time),823756.3999999985,B,oce,I,e,250,1,6849.800000000745,816906.5999999978,9060,WL,B,9.0
6,29.41600012779236,distr,30583.99987220764,Wed May 13 2026 16:28:06 GMT-0400 (Eastern Daylight Time),824006.5,B,oces,I,s,219,1,7099.900000002235,816906.5999999978,9060,WL,B,9.0
6,30.0,distr,30000.0,Wed May 13 2026 16:28:06 GMT-0400 (Eastern Daylight Time),824590.0999999978,B,oce,I,backspace,558,1,7683.5,816906.5999999978,9060,WL,B,9.0
6,30.450000047683716,distr,29549.999952316284,Wed May 13 2026 16:28:06 GMT-0400 (Eastern Daylight Time),825039.8000000007,B,ocea,I,a,431,1,8133.20000000298,816906.5999999978,9060,WL,B,9.0
6,30.58299994468689,distr,29417.00005531311,Wed May 13 2026 16:28:06 GMT-0400 (Eastern Daylight Time),825173.1999999993,B,ocean,I,n,110,1,8266.60000000149,816906.5999999978,9060,WL,B,9.0
6,30.91600012779236,distr,29083.99987220764,Wed May 13 2026 16:28:06 GMT-0400 (Eastern Daylight Time),825506.1999999993,B,oceanenter,I,enter,318,1,8599.60000000149,816906.5999999978,9060,WL,B,9.0
6,31.40000009536743,distr,28599.99990463257,Wed May 13 2026 16:28:06 GMT-0400 (Eastern Daylight Time),825989.8999999985,B,l,I,l,463,1,483.3999999985099,825506.5,9060,WL,B,10.0
6,31.600000143051147,distr,28399.999856948853,Wed May 13 2026 16:28:06 GMT-0400 (Eastern Daylight Time),826189.8999999985,B,li,I,i,183,1,683.3999999985099,825506.5,9060,WL,B,10.0
6,31.782999992370605,distr,28217.000007629395,Wed May 13 2026 16:28:06 GMT-0400 (Eastern Daylight Time),826373.1999999993,B,lip,I,p,160,1,866.6999999992549,825506.5,9060,WL,B,10.0
6,32.39900016784668,distr,27600.99983215332,Wed May 13 2026 16:28:06 GMT-0400 (Eastern Daylight Time),826989.5,B,lipenter,I,enter,601,1,1483.0,825506.5,9060,WL,B,10.0
6,42.782999992370605,distr,17217.000007629395,Wed May 13 2026 16:28:06 GMT-0400 (Eastern Daylight Time),837373.3000000007,B,v,I,v,10371,1,10383.5,826989.8000000007,9060,WL,B,11.0
6,42.96600008010864,distr,17033.999919891357,Wed May 13 2026 16:28:06 GMT-0400 (Eastern Daylight Time),837556.3999999985,B,vi,I,i,159,1,10566.599999997765,826989.8000000007,9060,WL,B,11.0
6,43.16600012779236,distr,16833.99987220764,Wed May 13 2026 16:28:06 GMT-0400 (Eastern Daylight Time),837756.5,B,vil,I,l,178,1,10766.699999999255,826989.8000000007,9060,WL,B,11.0
6,43.299999952316284,distr,16700.000047683716,Wed May 13 2026 16:28:06 GMT-0400 (Eastern Daylight Time),837889.8999999985,B,vill,I,l,122,1,10900.099999997765,826989.8000000007,9060,WL,B,11.0
6,43.48300004005432,distr,16516.99995994568,Wed May 13 2026 16:28:06 GMT-0400 (Eastern Daylight Time),838073.3000000007,B,vills,I,s,156,1,11083.5,826989.8000000007,9060,WL,B,11.0
6,43.867000102996826,distr,16132.999897003174,Wed May 13 2026 16:28:06 GMT-0400 (Eastern Daylight Time),838456.5999999978,B,villsg,I,g,365,1,11466.79999999702,826989.8000000007,9060,WL,B,11.0
6,44.10000014305115,distr,15899.999856948853,Wed May 13 2026 16:28:06 GMT-0400 (Eastern Daylight Time),838689.8999999985,B,villsge,I,e,222,1,11700.099999997765,826989.8000000007,9060,WL,B,11.0
6,44.46600008010864,distr,15533.999919891357,Wed May 13 2026 16:28:06 GMT-0400 (Eastern Daylight Time),839056.5,B,villsg,I,backspace,346,1,12066.699999999255,826989.8000000007,9060,WL,B,11.0
6,44.65000009536743,distr,15349.999904632568,Wed May 13 2026 16:28:06 GMT-0400 (Eastern Daylight Time),839240.0,B,vills,I,backspace,165,1,12250.199999999255,826989.8000000007,9060,WL,B,11.0
6,44.81700015068054,distr,15182.999849319458,Wed May 13 2026 16:28:06 GMT-0400 (Eastern Daylight Time),839406.5999999978,B,vill,I,backspace,135,1,12416.79999999702,826989.8000000007,9060,WL,B,11.0
6,45.0,distr,15000.0,Wed May 13 2026 16:28:06 GMT-0400 (Eastern Daylight Time),839590.0,B,villa,I,a,167,1,12600.199999999255,826989.8000000007,9060,WL,B,11.0
6,45.83299994468689,distr,14167.00005531311,Wed May 13 2026 16:28:06 GMT-0400 (Eastern Daylight Time),840423.5,B,villag,I,g,823,1,13433.699999999255,826989.8000000007,9060,WL,B,11.0
6,46.08299994468689,distr,13917.00005531311,Wed May 13 2026 16:28:06 GMT-0400 (Eastern Daylight Time),840673.1999999993,B,village,I,e,238,1,13683.39999999851,826989.8000000007,9060,WL,B,11.0
6,46.85000014305115,distr,13149.999856948853,Wed May 13 2026 16:28:06 GMT-0400 (Eastern Daylight Time),841440.3999999985,B,villageenter,I,enter,755,1,14450.599999997765,826989.8000000007,9060,WL,B,11.0
6,57.33299994468689,distr,2667.0000553131104,Wed May 13 2026 16:28:06 GMT-0400 (Eastern Daylight Time),851923.5,B,l,I,l,10473,1,10482.699999999255,841440.8000000007,9060,WL,B,12.0
6,57.58299994468689,distr,2417.0000553131104,Wed May 13 2026 16:28:06 GMT-0400 (Eastern Daylight Time),852173.3000000007,B,li,I,i,235,1,10732.5,841440.8000000007,9060,WL,B,12.0
6,57.75,distr,2250.0,Wed May 13 2026 16:28:06 GMT-0400 (Eastern Daylight Time),852340.0999999978,B,lip,I,p,153,1,10899.29999999702,841440.8000000007,9060,WL,B,12.0
6,58.38300013542175,distr,1616.999864578247,Wed May 13 2026 16:28:06 GMT-0400 (Eastern Daylight Time),852972.8999999985,B,lipenter,I,enter,611,1,11532.099999997765,841440.8000000007,9060,WL,B,12.0
6,60.01699995994568,distr,-16.99995994567871,Wed May 13 2026 16:28:06 GMT-0400 (Eastern Daylight Time),854606.8000000007,B,None,I,None,1627,1,1633.5,852973.3000000007,9060,WL,B,13.0
7,2.0829999446868896,immed,57917.00005531311,Wed May 13 2026 16:28:06 GMT-0400 (Eastern Daylight Time),870923.3999999985,A,s,I,s,2063,1,2082.89999999851,868840.5,9060,WL,B,1.0
7,2.3329999446868896,immed,57667.00005531311,Wed May 13 2026 16:28:06 GMT-0400 (Eastern Daylight Time),871173.3000000007,A,st,I,t,226,1,2332.800000000745,868840.5,9060,WL,B,1.0
7,2.549999952316284,immed,57450.000047683716,Wed May 13 2026 16:28:06 GMT-0400 (Eastern Daylight Time),871389.8999999985,A,str,I,r,200,1,2549.39999999851,868840.5,9060,WL,B,1.0
7,2.7669999599456787,immed,57233.00004005432,Wed May 13 2026 16:28:06 GMT-0400 (Eastern Daylight Time),871606.5999999978,A,stre,I,e,192,1,2766.099999997765,868840.5,9060,WL,B,1.0
7,2.950000047683716,immed,57049.999952316284,Wed May 13 2026 16:28:06 GMT-0400 (Eastern Daylight Time),871790.0,A,stree,I,e,160,1,2949.5,868840.5,9060,WL,B,1.0
7,3.183000087738037,immed,56816.99991226196,Wed May 13 2026 16:28:06 GMT-0400 (Eastern Daylight Time),872023.3999999985,A,street,I,t,206,1,3182.89999999851,868840.5,9060,WL,B,1.0
7,4.1000001430511475,immed,55899.99985694885,Wed May 13 2026 16:28:06 GMT-0400 (Eastern Daylight Time),872939.5,A,streetenter,I,enter,901,1,4099.0,868840.5,9060,WL,B,1.0
7,5.133000135421753,immed,54866.99986457825,Wed May 13 2026 16:28:06 GMT-0400 (Eastern Daylight Time),873973.3999999985,A,g,I,g,1021,1,1033.3999999985099,872940.0,9060,WL,B,2.0
7,5.365999937057495,immed,54634.000062942505,Wed May 13 2026 16:28:06 GMT-0400 (Eastern Daylight Time),874206.5999999978,A,gr,I,r,215,1,1266.5999999977648,872940.0,9060,WL,B,2.0
7,5.615999937057495,immed,54384.000062942505,Wed May 13 2026 16:28:06 GMT-0400 (Eastern Daylight Time),874456.5999999978,A,gra,I,a,225,1,1516.5999999977648,872940.0,9060,WL,B,2.0
7,5.83299994468689,immed,54167.00005531311,Wed May 13 2026 16:28:06 GMT-0400 (Eastern Daylight Time),874673.3000000007,A,grac,I,c,206,1,1733.300000000745,872940.0,9060,WL,B,2.0
7,6.3500001430511475,immed,53649.99985694885,Wed May 13 2026 16:28:06 GMT-0400 (Eastern Daylight Time),875190.0999999978,A,gra,I,backspace,498,1,2250.099999997765,872940.0,9060,WL,B,2.0
7,6.549999952316284,immed,53450.000047683716,Wed May 13 2026 16:28:06 GMT-0400 (Eastern Daylight Time),875390.0999999978,A,gras,I,s,181,1,2450.099999997765,872940.0,9060,WL,B,2.0
7,6.7170000076293945,immed,53282.999992370605,Wed May 13 2026 16:28:06 GMT-0400 (Eastern Daylight Time),875556.6999999993,A,grass,I,s,137,1,2616.699999999255,872940.0,9060,WL,B,2.0
7,7.400000095367432,immed,52599.99990463257,Wed May 13 2026 16:28:06 GMT-0400 (Eastern Daylight Time),876239.6999999993,A,grassenter,I,enter,664,1,3299.699999999255,872940.0,9060,WL,B,2.0
7,8.916000127792358,immed,51083.99987220764,Wed May 13 2026 16:28:06 GMT-0400 (Eastern Daylight Time),877756.5999999978,A,w,I,w,1497,1,1516.5999999977648,876240.0,9060,WL,B,3.0
7,9.016000032424927,immed,50983.99996757507,Wed May 13 2026 16:28:06 GMT-0400 (Eastern Daylight Time),877856.5999999978,A,wi,I,i,81,1,1616.5999999977648,876240.0,9060,WL,B,3.0
7,9.183000087738037,immed,50816.99991226196,Wed May 13 2026 16:28:06 GMT-0400 (Eastern Daylight Time),878023.5,A,win,I,n,143,1,1783.5,876240.0,9060,WL,B,3.0
7,9.383000135421753,immed,50616.99986457825,Wed May 13 2026 16:28:06 GMT-0400 (Eastern Daylight Time),878223.5999999978,A,wind,I,d,191,1,1983.5999999977648,876240.0,9060,WL,B,3.0
7,9.5,immed,50500.0,Wed May 13 2026 16:28:06 GMT-0400 (Eastern Daylight Time),878340.0,A,windo,I,o,95,1,2100.0,876240.0,9060,WL,B,3.0
7,9.617000102996826,immed,50382.999897003174,Wed May 13 2026 16:28:06 GMT-0400 (Eastern Daylight Time),878456.8000000007,A,window,I,w,97,1,2216.800000000745,876240.0,9060,WL,B,3.0
7,10.133000135421753,immed,49866.99986457825,Wed May 13 2026 16:28:06 GMT-0400 (Eastern Daylight Time),878973.0,A,windowenter,I,enter,492,1,2733.0,876240.0,9060,WL,B,3.0
7,10.350000143051147,immed,49649.99985694885,Wed May 13 2026 16:28:06 GMT-0400 (Eastern Daylight Time),879190.0,A,a,I,a,196,1,216.69999999925494,878973.3000000007,9060,WL,B,4.0
7,10.567000150680542,immed,49432.99984931946,Wed May 13 2026 16:28:06 GMT-0400 (Eastern Daylight Time),879406.8999999985,A,ar,I,r,186,1,433.5999999977648,878973.3000000007,9060,WL,B,4.0
7,11.183000087738037,immed,48816.99991226196,Wed May 13 2026 16:28:06 GMT-0400 (Eastern Daylight Time),880023.5,A,arm,I,m,582,1,1050.199999999255,878973.3000000007,9060,WL,B,4.0
7,11.5,immed,48500.0,Wed May 13 2026 16:28:06 GMT-0400 (Eastern Daylight Time),880339.6999999993,A,armenter,I,enter,302,1,1366.3999999985099,878973.3000000007,9060,WL,B,4.0
7,11.983000040054321,immed,48016.99995994568,Wed May 13 2026 16:28:06 GMT-0400 (Eastern Daylight Time),880823.5,A,s,I,s,477,1,483.5,880340.0,9060,WL,B,5.0
7,12.183000087738037,immed,47816.99991226196,Wed May 13 2026 16:28:06 GMT-0400 (Eastern Daylight Time),881023.5,A,sk,I,k,190,1,683.5,880340.0,9060,WL,B,5.0
7,12.350000143051147,immed,47649.99985694885,Wed May 13 2026 16:28:06 GMT-0400 (Eastern Daylight Time),881190.0,A,ski,I,i,143,1,850.0,880340.0,9060,WL,B,5.0
7,12.567000150680542,immed,47432.99984931946,Wed May 13 2026 16:28:06 GMT-0400 (Eastern Daylight Time),881406.8000000007,A,skin,I,n,192,1,1066.800000000745,880340.0,9060,WL,B,5.0
7,12.850000143051147,immed,47149.99985694885,Wed May 13 2026 16:28:06 GMT-0400 (Eastern Daylight Time),881689.6999999993,A,skinenter,I,enter,254,1,1349.699999999255,880340.0,9060,WL,B,5.0
7,15.217000007629395,immed,44782.999992370605,Wed May 13 2026 16:28:06 GMT-0400 (Eastern Daylight Time),884056.6999999993,A,s,I,s,2351,1,2366.60000000149,881690.0999999978,9060,WL,B,6.0
7,15.450000047683716,immed,44549.999952316284,Wed May 13 2026 16:28:06 GMT-0400 (Eastern Daylight Time),884290.0999999978,A,st,I,t,221,1,2600.0,881690.0999999978,9060,WL,B,6.0
7,15.733000040054321,immed,44266.99995994568,Wed May 13 2026 16:28:06 GMT-0400 (Eastern Daylight Time),884573.3000000007,A,sta,I,a,260,1,2883.2000000029802,881690.0999999978,9060,WL,B,6.0
7,16.049999952316284,immed,43950.000047683716,Wed May 13 2026 16:28:06 GMT-0400 (Eastern Daylight Time),884890.0,A,star,I,r,305,1,3199.900000002235,881690.0999999978,9060,WL,B,6.0
7,16.615999937057495,immed,43384.000062942505,Wed May 13 2026 16:28:06 GMT-0400 (Eastern Daylight Time),885456.3000000007,A,starenter,I,enter,546,1,3766.2000000029802,881690.0999999978,9060,WL,B,6.0
7,16.967000007629395,immed,43032.999992370605,Wed May 13 2026 16:28:06 GMT-0400 (Eastern Daylight Time),885806.5999999978,A,w,I,w,336,1,350.0,885456.5999999978,9060,WL,B,7.0
7,17.200000047683716,immed,42799.999952316284,Wed May 13 2026 16:28:06 GMT-0400 (Eastern Daylight Time),886040.0999999978,A,wi,I,i,215,1,583.5,885456.5999999978,9060,WL,B,7.0
7,17.51699995994568,immed,42483.00004005432,Wed May 13 2026 16:28:06 GMT-0400 (Eastern Daylight Time),886356.5999999978,A,wif,I,f,295,1,900.0,885456.5999999978,9060,WL,B,7.0
7,17.717000007629395,immed,42282.999992370605,Wed May 13 2026 16:28:06 GMT-0400 (Eastern Daylight Time),886556.8000000007,A,wife,I,e,177,1,1100.2000000029802,885456.5999999978,9060,WL,B,7.0
7,17.850000143051147,immed,42149.99985694885,Wed May 13 2026 16:28:06 GMT-0400 (Eastern Daylight Time),886689.5999999978,A,wifeenter,I,enter,113,1,1233.0,885456.5999999978,9060,WL,B,7.0
7,18.383000135421753,immed,41616.99986457825,Wed May 13 2026 16:28:06 GMT-0400 (Eastern Daylight Time),887223.1999999993,A,u,I,u,511,1,533.3000000007451,886689.8999999985,9060,WL,B,8.0
7,18.633000135421753,immed,41366.99986457825,Wed May 13 2026 16:28:06 GMT-0400 (Eastern Daylight Time),887473.5,A,up,I,p,239,1,783.6000000014901,886689.8999999985,9060,WL,B,8.0
7,19.23300004005432,immed,40766.99995994568,Wed May 13 2026 16:28:06 GMT-0400 (Eastern Daylight Time),888073.3999999985,A,u,I,backspace,581,1,1383.5,886689.8999999985,9060,WL,B,8.0
7,19.41700005531311,immed,40582.99994468689,Wed May 13 2026 16:28:06 GMT-0400 (Eastern Daylight Time),888256.6999999993,A,,I,backspace,172,1,1566.800000000745,886689.8999999985,9060,WL,B,8.0
7,19.98300004005432,immed,40016.99995994568,Wed May 13 2026 16:28:06 GMT-0400 (Eastern Daylight Time),888823.5,A,p,I,p,556,1,2133.60000000149,886689.8999999985,9060,WL,B,8.0
7,20.282999992370605,immed,39717.000007629395,Wed May 13 2026 16:28:06 GMT-0400 (Eastern Daylight Time),889123.3999999985,A,pu,I,u,284,1,2433.5,886689.8999999985,9060,WL,B,8.0
7,20.883000135421753,immed,39116.99986457825,Wed May 13 2026 16:28:06 GMT-0400 (Eastern Daylight Time),889723.3999999985,A,pup,I,p,578,1,3033.5,886689.8999999985,9060,WL,B,8.0
7,21.183000087738037,immed,38816.99991226196,Wed May 13 2026 16:28:06 GMT-0400 (Eastern Daylight Time),890023.5999999978,A,pupi,I,i,290,1,3333.699999999255,886689.8999999985,9060,WL,B,8.0
7,21.41700005531311,immed,38582.99994468689,Wed May 13 2026 16:28:06 GMT-0400 (Eastern Daylight Time),890256.5999999978,A,pupil,I,l,212,1,3566.699999999255,886689.8999999985,9060,WL,B,8.0
7,22.450000047683716,immed,37549.999952316284,Wed May 13 2026 16:28:06 GMT-0400 (Eastern Daylight Time),891289.6999999993,A,pupilenter,I,enter,1012,1,4599.800000000745,886689.8999999985,9060,WL,B,8.0
7,22.799999952316284,immed,37200.000047683716,Wed May 13 2026 16:28:06 GMT-0400 (Eastern Daylight Time),891640.1999999993,A,c,I,c,335,1,350.19999999925494,891290.0,9060,WL,B,9.0
7,22.967000007629395,immed,37032.999992370605,Wed May 13 2026 16:28:06 GMT-0400 (Eastern Daylight Time),891806.5999999978,A,cl,I,l,142,1,516.5999999977648,891290.0,9060,WL,B,9.0
7,23.15000009536743,immed,36849.99990463257,Wed May 13 2026 16:28:06 GMT-0400 (Eastern Daylight Time),891989.5999999978,A,clo,I,o,158,1,699.5999999977648,891290.0,9060,WL,B,9.0
7,23.25,immed,36750.0,Wed May 13 2026 16:28:06 GMT-0400 (Eastern Daylight Time),892090.0999999978,A,cloc,I,c,90,1,800.0999999977648,891290.0,9060,WL,B,9.0
7,23.450000047683716,immed,36549.999952316284,Wed May 13 2026 16:28:06 GMT-0400 (Eastern Daylight Time),892290.0999999978,A,clock,I,k,181,1,1000.0999999977648,891290.0,9060,WL,B,9.0
7,23.73300004005432,immed,36266.99995994568,Wed May 13 2026 16:28:06 GMT-0400 (Eastern Daylight Time),892573.0,A,clockenter,I,enter,268,1,1283.0,891290.0,9060,WL,B,9.0
7,24.76699995994568,immed,35233.00004005432,Wed May 13 2026 16:28:06 GMT-0400 (Eastern Daylight Time),893606.6999999993,A,l,I,l,1020,1,1033.300000000745,892573.3999999985,9060,WL,B,10.0
7,24.91700005531311,immed,35082.99994468689,Wed May 13 2026 16:28:06 GMT-0400 (Eastern Daylight Time),893756.5999999978,A,la,I,a,128,1,1183.199999999255,892573.3999999985,9060,WL,B,10.0
7,25.0,immed,35000.0,Wed May 13 2026 16:28:06 GMT-0400 (Eastern Daylight Time),893839.8000000007,A,lak,I,k,65,1,1266.4000000022352,892573.3999999985,9060,WL,B,10.0
7,25.16700005531311,immed,34832.99994468689,Wed May 13 2026 16:28:06 GMT-0400 (Eastern Daylight Time),894006.6999999993,A,lake,I,e,137,1,1433.300000000745,892573.3999999985,9060,WL,B,10.0
7,25.383000135421753,immed,34616.99986457825,Wed May 13 2026 16:28:06 GMT-0400 (Eastern Daylight Time),894223.0999999978,A,lakeenter,I,enter,198,1,1649.699999999255,892573.3999999985,9060,WL,B,10.0
7,25.58299994468689,immed,34417.00005531311,Wed May 13 2026 16:28:06 GMT-0400 (Eastern Daylight Time),894423.3000000007,A,c,I,c,178,1,200.0,894223.3000000007,9060,WL,B,11.0
7,25.799999952316284,immed,34200.000047683716,Wed May 13 2026 16:28:06 GMT-0400 (Eastern Daylight Time),894640.0999999978,A,ca,I,a,199,1,416.79999999701977,894223.3000000007,9060,WL,B,11.0
7,26.032999992370605,immed,33967.000007629395,Wed May 13 2026 16:28:06 GMT-0400 (Eastern Daylight Time),894873.3999999985,A,cab,I,b,214,1,650.0999999977648,894223.3000000007,9060,WL,B,11.0
7,26.183000087738037,immed,33816.99991226196,Wed May 13 2026 16:28:06 GMT-0400 (Eastern Daylight Time),895023.3999999985,A,cabi,I,i,134,1,800.0999999977648,894223.3000000007,9060,WL,B,11.0
7,26.199000120162964,immed,33800.999879837036,Wed May 13 2026 16:28:06 GMT-0400 (Eastern Daylight Time),895039.3999999985,A,cabin,I,n,5,1,816.0999999977648,894223.3000000007,9060,WL,B,11.0
7,26.615999937057495,immed,33384.000062942505,Wed May 13 2026 16:28:06 GMT-0400 (Eastern Daylight Time),895456.5,A,cabinenter,I,enter,398,1,1233.199999999255,894223.3000000007,9060,WL,B,11.0
7,29.91700005531311,immed,30082.99994468689,Wed May 13 2026 16:28:06 GMT-0400 (Eastern Daylight Time),898756.6999999993,A,f,I,f,3289,1,3299.89999999851,895456.8000000007,9060,WL,B,12.0
7,30.15000009536743,immed,29849.99990463257,Wed May 13 2026 16:28:06 GMT-0400 (Eastern Daylight Time),898990.0999999978,A,fi,I,i,210,1,3533.2999999970198,895456.8000000007,9060,WL,B,12.0
7,30.383000135421753,immed,29616.999864578247,Wed May 13 2026 16:28:06 GMT-0400 (Eastern Daylight Time),899223.3000000007,A,fir,I,r,202,1,3766.5,895456.8000000007,9060,WL,B,12.0
7,30.567000150680542,immed,29432.999849319458,Wed May 13 2026 16:28:06 GMT-0400 (Eastern Daylight Time),899406.5999999978,A,fire,I,e,159,1,3949.7999999970198,895456.8000000007,9060,WL,B,12.0
7,30.717000007629395,immed,29282.999992370605,Wed May 13 2026 16:28:06 GMT-0400 (Eastern Daylight Time),899557.0999999978,A,fireenter,I,enter,134,1,4100.29999999702,895456.8000000007,9060,WL,B,12.0
7,30.933000087738037,immed,29066.999912261963,Wed May 13 2026 16:28:06 GMT-0400 (Eastern Daylight Time),899773.3000000007,A,w,I,w,196,1,215.90000000223517,899557.3999999985,9060,WL,B,13.0
