Number,acc_sum,block,block_c,block_cond,con_img,correct,correct_response,datetime,endtime,jitter,project,response,response_time,row_sel,session_number,start_end,starttime,subject_id,task,task_vers,trial
1,0,prac,1,A,circle.png,0,z,Tue Feb 10 2026 09:35:52 GMT-0500 (Eastern Standard Time),74744.19999980927,1000,I,None,1514,1,1,3289.0,71455.19999980927,9051,NTS,A,1
1,1,prac,1,A,circle.png,1,z,Tue Feb 10 2026 09:35:52 GMT-0500 (Eastern Standard Time),77377.5,1000,I,z,840,1,1,2619.3999996185303,74758.10000038147,9051,NTS,A,2
4,2,prac,1,A,circle.png,1,z,Tue Feb 10 2026 09:35:52 GMT-0500 (Eastern Standard Time),80344.10000038147,1400,I,z,769,4,1,2954.4000005722046,77389.69999980927,9051,NTS,A,3
3,3,prac,1,A,circle.png,1,z,Tue Feb 10 2026 09:35:52 GMT-0500 (Eastern Standard Time),82994.10000038147,1200,I,z,659,3,1,2636.4000005722046,80357.69999980927,9051,NTS,A,4
6,4,prac,1,A,circle.png,1,m,Tue Feb 10 2026 09:35:52 GMT-0500 (Eastern Standard Time),86444.10000038147,1900,I,m,747,5,1,3437.800000190735,83006.30000019073,9051,NTS,A,5
2,5,prac,1,A,circle.png,1,z,Tue Feb 10 2026 09:35:52 GMT-0500 (Eastern Standard Time),89927.4000005722,2000,I,z,670,2,1,3467.1000003814697,86460.30000019073,9051,NTS,A,6
2,6,prac,1,A,circle.png,1,z,Tue Feb 10 2026 09:35:52 GMT-0500 (Eastern Standard Time),93294.10000038147,2000,I,z,580,2,1,3352.199999809265,89941.9000005722,9051,NTS,A,7
9,7,prac,1,A,circle.png,1,m,Tue Feb 10 2026 09:35:52 GMT-0500 (Eastern Standard Time),96344.0,1500,I,m,753,8,1,3037.8999996185303,93306.10000038147,9051,NTS,A,8
4,8,prac,1,A,circle.png,1,z,Tue Feb 10 2026 09:35:52 GMT-0500 (Eastern Standard Time),99110.9000005722,1400,I,z,571,4,1,2758.300000190735,96352.60000038147,9051,NTS,A,9
8,9,prac,1,A,circle.png,1,m,Tue Feb 10 2026 09:35:52 GMT-0500 (Eastern Standard Time),102194.10000038147,1600,I,m,691,7,1,3071.6000003814697,99122.5,9051,NTS,A,10
9,10,prac,1,A,circle.png,1,m,Tue Feb 10 2026 09:35:52 GMT-0500 (Eastern Standard Time),105060.69999980927,1500,I,m,574,8,1,2854.0,102206.69999980927,9051,NTS,A,11
7,11,prac,1,A,circle.png,1,m,Tue Feb 10 2026 09:35:52 GMT-0500 (Eastern Standard Time),108527.4000005722,1700,I,m,978,6,1,3454.9000005722046,105072.5,9051,NTS,A,12
6,0,prac,1,B,triangle.png,0,m,Tue Feb 10 2026 09:35:52 GMT-0500 (Eastern Standard Time),159627.0,1000,I,None,1515,5,1,3289.0999994277954,156337.9000005722,9051,NTS,A,1
9,1,prac,1,B,triangle.png,1,z,Tue Feb 10 2026 09:35:52 GMT-0500 (Eastern Standard Time),162660.69999980927,1400,I,z,840,8,1,3022.5,159638.19999980927,9051,NTS,A,2
4,2,prac,1,B,triangle.png,1,m,Tue Feb 10 2026 09:35:52 GMT-0500 (Eastern Standard Time),165677.30000019073,1500,I,m,731,4,1,3003.6000003814697,162673.69999980927,9051,NTS,A,3
2,2,prac,1,B,triangle.png,0,m,Tue Feb 10 2026 09:35:52 GMT-0500 (Eastern Standard Time),168860.69999980927,1700,I,z,699,2,1,3171.0999994277954,165689.60000038147,9051,NTS,A,4
4,3,prac,1,B,triangle.png,1,m,Tue Feb 10 2026 09:35:52 GMT-0500 (Eastern Standard Time),172010.60000038147,1500,I,m,851,4,1,3138.699999809265,168871.9000005722,9051,NTS,A,5
3,4,prac,1,B,triangle.png,1,z,Tue Feb 10 2026 09:35:52 GMT-0500 (Eastern Standard Time),175327.19999980927,1600,I,z,929,3,1,3305.2999992370605,172021.9000005722,9051,NTS,A,6
6,5,prac,1,B,triangle.png,1,m,Tue Feb 10 2026 09:35:52 GMT-0500 (Eastern Standard Time),177793.9000005722,1000,I,m,677,5,1,2454.6000003814697,175339.30000019073,9051,NTS,A,7
3,6,prac,1,B,triangle.png,1,z,Tue Feb 10 2026 09:35:52 GMT-0500 (Eastern Standard Time),181010.19999980927,1600,I,z,827,3,1,3202.5999994277954,177807.60000038147,9051,NTS,A,8
7,7,prac,1,B,triangle.png,1,z,Tue Feb 10 2026 09:35:52 GMT-0500 (Eastern Standard Time),184727.30000019073,2000,I,z,921,6,1,3709.6000003814697,181017.69999980927,9051,NTS,A,9
2,8,prac,1,B,triangle.png,1,m,Tue Feb 10 2026 09:35:52 GMT-0500 (Eastern Standard Time),188077.4000005722,1700,I,m,864,2,1,3339.0,184738.4000005722,9051,NTS,A,10
8,9,prac,1,B,triangle.png,1,m,Tue Feb 10 2026 09:35:52 GMT-0500 (Eastern Standard Time),190893.9000005722,1200,I,m,830,7,1,2805.300000190735,188088.60000038147,9051,NTS,A,11
1,10,prac,1,B,triangle.png,1,z,Tue Feb 10 2026 09:35:52 GMT-0500 (Eastern Standard Time),194194.0,1900,I,z,611,1,1,3286.300000190735,190907.69999980927,9051,NTS,A,12
3,1,test,1,A,circle.png,1,z,Tue Feb 10 2026 09:35:52 GMT-0500 (Eastern Standard Time),230910.19999980927,1200,I,z,1380,3,1,2590.0999994277954,228320.10000038147,9051,NTS,A,1
7,2,test,1,A,circle.png,1,m,Tue Feb 10 2026 09:35:52 GMT-0500 (Eastern Standard Time),233660.4000005722,1700,I,m,1016,6,1,2738.5,230921.9000005722,9051,NTS,A,2
7,3,test,1,A,circle.png,1,m,Tue Feb 10 2026 09:35:52 GMT-0500 (Eastern Standard Time),236060.5,1700,I,m,666,6,1,2388.199999809265,233672.30000019073,9051,NTS,A,3
8,4,test,1,A,circle.png,1,m,Tue Feb 10 2026 09:35:52 GMT-0500 (Eastern Standard Time),238427.10000038147,1600,I,m,733,7,1,2357.199999809265,236069.9000005722,9051,NTS,A,4
2,5,test,1,A,circle.png,1,z,Tue Feb 10 2026 09:35:52 GMT-0500 (Eastern Standard Time),241360.4000005722,2000,I,z,912,2,1,2924.2000007629395,238436.19999980927,9051,NTS,A,5
8,6,test,1,A,circle.png,1,m,Tue Feb 10 2026 09:35:52 GMT-0500 (Eastern Standard Time),243810.5,1600,I,m,825,7,1,2440.0999994277954,241370.4000005722,9051,NTS,A,6
9,7,test,1,A,circle.png,1,m,Tue Feb 10 2026 09:35:52 GMT-0500 (Eastern Standard Time),246111.4000005722,1500,I,m,780,8,1,2291.6000003814697,243819.80000019073,9051,NTS,A,7
6,8,test,1,A,circle.png,1,m,Tue Feb 10 2026 09:35:52 GMT-0500 (Eastern Standard Time),248860.5,1900,I,m,816,5,1,2739.199999809265,246121.30000019073,9051,NTS,A,8
9,9,test,1,A,circle.png,1,m,Tue Feb 10 2026 09:35:52 GMT-0500 (Eastern Standard Time),250993.69999980927,1500,I,m,610,8,1,2122.199999809265,248871.5,9051,NTS,A,9
1,10,test,1,A,circle.png,1,z,Tue Feb 10 2026 09:35:52 GMT-0500 (Eastern Standard Time),252777.10000038147,1000,I,z,753,1,1,1773.0,251004.10000038147,9051,NTS,A,10
8,11,test,1,A,circle.png,1,m,Tue Feb 10 2026 09:35:52 GMT-0500 (Eastern Standard Time),255060.4000005722,1600,I,m,658,7,1,2274.5,252785.9000005722,9051,NTS,A,11
1,12,test,1,A,circle.png,1,z,Tue Feb 10 2026 09:35:52 GMT-0500 (Eastern Standard Time),256827.10000038147,1000,I,z,733,1,1,1758.1000003814697,255069.0,9051,NTS,A,12
4,13,test,1,A,circle.png,1,z,Tue Feb 10 2026 09:35:52 GMT-0500 (Eastern Standard Time),259326.80000019073,1400,I,z,1080,4,1,2489.1000003814697,256837.69999980927,9051,NTS,A,13
2,14,test,1,A,circle.png,1,z,Tue Feb 10 2026 09:35:52 GMT-0500 (Eastern Standard Time),262160.4000005722,2000,I,z,810,2,1,2824.800000190735,259335.60000038147,9051,NTS,A,14
6,15,test,1,A,circle.png,1,m,Tue Feb 10 2026 09:35:52 GMT-0500 (Eastern Standard Time),264693.9000005722,1900,I,m,607,5,1,2522.5,262171.4000005722,9051,NTS,A,15
7,16,test,1,A,circle.png,1,m,Tue Feb 10 2026 09:35:52 GMT-0500 (Eastern Standard Time),266876.80000019073,1700,I,m,463,6,1,2174.199999809265,264702.60000038147,9051,NTS,A,16
9,17,test,1,A,circle.png,1,m,Tue Feb 10 2026 09:35:52 GMT-0500 (Eastern Standard Time),268893.69999980927,1500,I,m,482,8,1,2010.1999998092651,266883.5,9051,NTS,A,17
4,18,test,1,A,circle.png,1,z,Tue Feb 10 2026 09:35:52 GMT-0500 (Eastern Standard Time),271227.19999980927,1400,I,z,901,4,1,2321.699999809265,268905.5,9051,NTS,A,18
1,19,test,1,A,circle.png,1,z,Tue Feb 10 2026 09:35:52 GMT-0500 (Eastern Standard Time),272993.69999980927,1000,I,z,744,1,1,1758.2999992370605,271235.4000005722,9051,NTS,A,19
3,20,test,1,A,circle.png,1,z,Tue Feb 10 2026 09:35:52 GMT-0500 (Eastern Standard Time),274977.0,1200,I,z,761,3,1,1974.5,273002.5,9051,NTS,A,20
6,21,test,1,A,circle.png,1,m,Tue Feb 10 2026 09:35:52 GMT-0500 (Eastern Standard Time),277643.80000019073,1900,I,m,734,5,1,2657.0,274986.80000019073,9051,NTS,A,21
3,22,test,1,A,circle.png,1,z,Tue Feb 10 2026 09:35:52 GMT-0500 (Eastern Standard Time),279693.9000005722,1200,I,z,831,3,1,2039.9000005722046,277654.0,9051,NTS,A,22
3,23,test,1,A,circle.png,1,z,Tue Feb 10 2026 09:35:52 GMT-0500 (Eastern Standard Time),281643.80000019073,1200,I,z,716,3,1,1939.6000003814697,279704.19999980927,9051,NTS,A,23
2,24,test,1,A,circle.png,1,z,Tue Feb 10 2026 09:35:52 GMT-0500 (Eastern Standard Time),284427.10000038147,2000,I,z,751,2,1,2774.699999809265,281652.4000005722,9051,NTS,A,24
3,1,test,1,B,triangle.png,1,z,Tue Feb 10 2026 09:35:52 GMT-0500 (Eastern Standard Time),310627.19999980927,1600,I,z,576,3,1,2192.3999996185303,308434.80000019073,9051,NTS,A,1
8,2,test,1,B,triangle.png,1,m,Tue Feb 10 2026 09:35:52 GMT-0500 (Eastern Standard Time),312560.4000005722,1200,I,m,713,7,1,1924.1000003814697,310636.30000019073,9051,NTS,A,2
1,3,test,1,B,triangle.png,1,z,Tue Feb 10 2026 09:35:52 GMT-0500 (Eastern Standard Time),314677.0,1400,I,z,691,9,1,2107.699999809265,312569.30000019073,9051,NTS,A,3
9,4,test,1,B,triangle.png,1,z,Tue Feb 10 2026 09:35:52 GMT-0500 (Eastern Standard Time),317027.0,1400,I,z,926,8,1,2338.5,314688.5,9051,NTS,A,4
3,5,test,1,B,triangle.png,1,z,Tue Feb 10 2026 09:35:52 GMT-0500 (Eastern Standard Time),319677.10000038147,2000,I,z,616,11,1,2641.6000003814697,317035.5,9051,NTS,A,5
6,6,test,1,B,triangle.png,1,m,Tue Feb 10 2026 09:35:52 GMT-0500 (Eastern Standard Time),321477.10000038147,1000,I,m,775,5,1,1790.1999998092651,319686.9000005722,9051,NTS,A,6
1,7,test,1,B,triangle.png,1,z,Tue Feb 10 2026 09:35:52 GMT-0500 (Eastern Standard Time),323560.4000005722,1400,I,z,654,9,1,2074.9000005722046,321485.5,9051,NTS,A,7
7,7,test,1,B,triangle.png,0,z,Tue Feb 10 2026 09:35:52 GMT-0500 (Eastern Standard Time),326377.10000038147,2000,I,m,787,6,1,2807.699999809265,323569.4000005722,9051,NTS,A,8
4,8,test,1,B,triangle.png,1,m,Tue Feb 10 2026 09:35:52 GMT-0500 (Eastern Standard Time),328760.30000019073,1500,I,m,855,4,1,2373.800000190735,326386.5,9051,NTS,A,9
2,9,test,1,B,triangle.png,1,m,Tue Feb 10 2026 09:35:52 GMT-0500 (Eastern Standard Time),331076.9000005722,1200,I,m,1092,10,1,2308.800000190735,328768.10000038147,9051,NTS,A,10
7,10,test,1,B,triangle.png,1,z,Tue Feb 10 2026 09:35:52 GMT-0500 (Eastern Standard Time),333527.0,1600,I,z,823,14,1,2438.5999994277954,331088.4000005722,9051,NTS,A,11
1,11,test,1,B,triangle.png,1,z,Tue Feb 10 2026 09:35:52 GMT-0500 (Eastern Standard Time),336077.0,1900,I,z,617,1,1,2541.8999996185303,333535.10000038147,9051,NTS,A,12
4,12,test,1,B,triangle.png,1,m,Tue Feb 10 2026 09:35:52 GMT-0500 (Eastern Standard Time),337793.69999980927,1000,I,m,695,12,1,1706.2999992370605,336087.4000005722,9051,NTS,A,13
3,13,test,1,B,triangle.png,1,z,Tue Feb 10 2026 09:35:52 GMT-0500 (Eastern Standard Time),340660.5,1600,I,z,1242,3,1,2855.8999996185303,337804.60000038147,9051,NTS,A,14
2,14,test,1,B,triangle.png,1,m,Tue Feb 10 2026 09:35:52 GMT-0500 (Eastern Standard Time),343293.9000005722,1700,I,m,916,2,1,2623.0,340670.9000005722,9051,NTS,A,15
6,15,test,1,B,triangle.png,1,m,Tue Feb 10 2026 09:35:52 GMT-0500 (Eastern Standard Time),345443.60000038147,1500,I,m,626,13,1,2140.6000003814697,343303.0,9051,NTS,A,16
8,16,test,1,B,triangle.png,1,m,Tue Feb 10 2026 09:35:52 GMT-0500 (Eastern Standard Time),348510.10000038147,1700,I,m,1348,15,1,3058.199999809265,345451.9000005722,9051,NTS,A,17
2,17,test,1,B,triangle.png,1,m,Tue Feb 10 2026 09:35:52 GMT-0500 (Eastern Standard Time),350660.4000005722,1200,I,m,925,10,1,2142.9000005722046,348517.5,9051,NTS,A,18
9,18,test,1,B,triangle.png,1,z,Tue Feb 10 2026 09:35:52 GMT-0500 (Eastern Standard Time),353397.9000005722,1900,I,z,811,16,1,2727.9000005722046,350670.0,9051,NTS,A,19
4,19,test,1,B,triangle.png,1,m,Tue Feb 10 2026 09:35:52 GMT-0500 (Eastern Standard Time),355727.60000038147,1500,I,m,813,4,1,2324.6000003814697,353403.0,9051,NTS,A,20
3,20,test,1,B,triangle.png,1,z,Tue Feb 10 2026 09:35:52 GMT-0500 (Eastern Standard Time),358543.4000005722,2000,I,z,797,11,1,2810.1000003814697,355733.30000019073,9051,NTS,A,21
7,21,test,1,B,triangle.png,1,z,Tue Feb 10 2026 09:35:52 GMT-0500 (Eastern Standard Time),361493.69999980927,2000,I,z,924,6,1,2940.5,358553.19999980927,9051,NTS,A,22
1,22,test,1,B,triangle.png,1,z,Tue Feb 10 2026 09:35:52 GMT-0500 (Eastern Standard Time),364043.69999980927,1900,I,z,618,1,1,2541.0999994277954,361502.60000038147,9051,NTS,A,23
6,23,test,1,B,triangle.png,1,m,Tue Feb 10 2026 09:35:52 GMT-0500 (Eastern Standard Time),365726.5,1000,I,m,663,5,1,1672.8999996185303,364053.60000038147,9051,NTS,A,24
8,0,prac,1,C,triangle.png,0,m,Tue Feb 10 2026 09:35:52 GMT-0500 (Eastern Standard Time),424860.30000019073,1400,I,None,1515,7,1,3689.5,421170.80000019073,9051,NTS,A,1
9,0,prac,1,C,circle.png,0,m,Tue Feb 10 2026 09:35:52 GMT-0500 (Eastern Standard Time),429060.30000019073,1900,I,None,1515,8,1,4188.39999961853,424871.9000005722,9051,NTS,A,2
8,0,prac,1,C,triangle.png,0,m,Tue Feb 10 2026 09:35:52 GMT-0500 (Eastern Standard Time),432760.19999980927,1400,I,None,1515,7,1,3688.7999992370605,429071.4000005722,9051,NTS,A,3
2,1,prac,1,C,triangle.png,1,m,Tue Feb 10 2026 09:35:52 GMT-0500 (Eastern Standard Time),436543.60000038147,1600,I,m,1395,2,1,3771.1000003814697,432772.5,9051,NTS,A,4
3,2,prac,1,C,triangle.png,1,z,Tue Feb 10 2026 09:35:52 GMT-0500 (Eastern Standard Time),439843.60000038147,1500,I,z,1008,3,1,3289.0,436554.60000038147,9051,NTS,A,5
2,3,prac,1,C,triangle.png,1,m,Tue Feb 10 2026 09:35:52 GMT-0500 (Eastern Standard Time),443143.60000038147,1600,I,m,905,2,1,3289.300000190735,439854.30000019073,9051,NTS,A,6
6,4,prac,1,C,circle.png,1,m,Tue Feb 10 2026 09:35:52 GMT-0500 (Eastern Standard Time),446743.60000038147,2000,I,m,804,5,1,3590.0,443153.60000038147,9051,NTS,A,7
1,4,prac,1,C,circle.png,0,z,Tue Feb 10 2026 09:35:52 GMT-0500 (Eastern Standard Time),449910.30000019073,1700,I,m,672,1,1,3154.0,446756.30000019073,9051,NTS,A,8
4,4,prac,1,C,circle.png,0,z,Tue Feb 10 2026 09:35:52 GMT-0500 (Eastern Standard Time),452526.9000005722,1000,I,m,830,4,1,2606.1000003814697,449920.80000019073,9051,NTS,A,9
7,4,prac,1,C,triangle.png,0,z,Tue Feb 10 2026 09:35:52 GMT-0500 (Eastern Standard Time),456026.9000005722,1200,I,None,1516,6,1,3488.300000190735,452538.60000038147,9051,NTS,A,10
3,5,prac,1,C,triangle.png,1,z,Tue Feb 10 2026 09:35:52 GMT-0500 (Eastern Standard Time),459527.10000038147,1500,I,z,1205,3,1,3488.9000005722046,456038.19999980927,9051,NTS,A,11
4,6,prac,1,C,circle.png,1,z,Tue Feb 10 2026 09:35:52 GMT-0500 (Eastern Standard Time),462460.19999980927,1000,I,z,1149,4,1,2922.0999994277954,459538.10000038147,9051,NTS,A,12
2,1,prac,2,C,triangle.png,1,m,Tue Feb 10 2026 09:35:52 GMT-0500 (Eastern Standard Time),497376.80000019073,1600,I,m,1394,2,1,3774.0,493602.80000019073,9051,NTS,A,1
8,1,prac,2,C,triangle.png,0,m,Tue Feb 10 2026 09:35:52 GMT-0500 (Eastern Standard Time),501076.80000019073,1400,I,None,1516,7,1,3688.0,497388.80000019073,9051,NTS,A,2
9,2,prac,2,C,circle.png,1,m,Tue Feb 10 2026 09:35:52 GMT-0500 (Eastern Standard Time),505060.30000019073,1900,I,m,1291,8,1,3972.0,501088.30000019073,9051,NTS,A,3
4,2,prac,2,C,circle.png,0,z,Tue Feb 10 2026 09:35:52 GMT-0500 (Eastern Standard Time),508060.10000038147,1000,I,m,1200,4,1,2986.4000005722046,505073.69999980927,9051,NTS,A,4
6,3,prac,2,C,circle.png,1,m,Tue Feb 10 2026 09:35:52 GMT-0500 (Eastern Standard Time),512026.9000005722,2000,I,m,1168,5,1,3954.4000005722046,508072.5,9051,NTS,A,5
1,4,prac,2,C,circle.png,1,z,Tue Feb 10 2026 09:35:52 GMT-0500 (Eastern Standard Time),515410.19999980927,1700,I,z,893,1,1,3372.2999992370605,512037.9000005722,9051,NTS,A,6
3,4,prac,2,C,triangle.png,0,z,Tue Feb 10 2026 09:35:52 GMT-0500 (Eastern Standard Time),519210.10000038147,1500,I,None,1516,3,1,3789.199999809265,515420.9000005722,9051,NTS,A,7
1,5,prac,2,C,circle.png,1,z,Tue Feb 10 2026 09:35:52 GMT-0500 (Eastern Standard Time),522643.60000038147,1700,I,z,942,1,1,3421.800000190735,519221.80000019073,9051,NTS,A,8
8,6,prac,2,C,triangle.png,1,m,Tue Feb 10 2026 09:35:52 GMT-0500 (Eastern Standard Time),526243.4000005722,1400,I,m,1408,7,1,3588.6000003814697,522654.80000019073,9051,NTS,A,9
4,7,prac,2,C,circle.png,1,z,Tue Feb 10 2026 09:35:52 GMT-0500 (Eastern Standard Time),529026.9000005722,1000,I,z,992,4,1,2771.2000007629395,526255.6999998093,9051,NTS,A,10
7,7,prac,2,C,triangle.png,0,z,Tue Feb 10 2026 09:35:52 GMT-0500 (Eastern Standard Time),532443.6000003815,1200,I,m,1417,6,1,3405.300000190735,529038.3000001907,9051,NTS,A,11
2,7,prac,2,C,triangle.png,0,m,Tue Feb 10 2026 09:35:52 GMT-0500 (Eastern Standard Time),536110.1000003815,1600,I,z,1280,2,1,3655.9000005722046,532454.1999998093,9051,NTS,A,12
9,1,test,1,C,circle.png,1,m,Tue Feb 10 2026 09:35:52 GMT-0500 (Eastern Standard Time),568126.6999998093,1500,I,m,1131,24,1,2642.2999992370605,565484.4000005722,9051,NTS,A,1
3,2,test,1,C,circle.png,1,z,Tue Feb 10 2026 09:35:52 GMT-0500 (Eastern Standard Time),571010.1000003815,1600,I,z,1261,11,1,2872.800000190735,568137.3000001907,9051,NTS,A,2
7,2,test,1,C,triangle.png,0,z,Tue Feb 10 2026 09:35:52 GMT-0500 (Eastern Standard Time),574243.4000005722,1700,I,None,1516,22,1,3222.6000003814697,571020.8000001907,9051,NTS,A,3
7,2,test,1,C,circle.png,0,m,Tue Feb 10 2026 09:35:52 GMT-0500 (Eastern Standard Time),577776.9000005722,2000,I,None,1516,14,1,3521.9000005722046,574255.0,9051,NTS,A,4
4,2,test,1,C,triangle.png,0,m,Tue Feb 10 2026 09:35:52 GMT-0500 (Eastern Standard Time),580493.6999998093,1500,I,z,1199,12,1,2706.699999809265,577787.0,9051,NTS,A,5
6,3,test,1,C,circle.png,1,m,Tue Feb 10 2026 09:35:52 GMT-0500 (Eastern Standard Time),583660.1000003815,1900,I,m,1234,5,1,3157.4000005722046,580502.6999998093,9051,NTS,A,6
1,4,test,1,C,triangle.png,1,z,Tue Feb 10 2026 09:35:52 GMT-0500 (Eastern Standard Time),586310.0,1900,I,z,724,17,1,2641.0,583669.0,9051,NTS,A,7
7,4,test,1,C,triangle.png,0,z,Tue Feb 10 2026 09:35:52 GMT-0500 (Eastern Standard Time),589543.5,1700,I,None,1516,6,1,3224.300000190735,586319.1999998093,9051,NTS,A,8
2,4,test,1,C,triangle.png,0,m,Tue Feb 10 2026 09:35:52 GMT-0500 (Eastern Standard Time),593076.8000001907,2000,I,None,1516,2,1,3523.300000190735,589553.5,9051,NTS,A,9
1,5,test,1,C,triangle.png,1,z,Tue Feb 10 2026 09:35:52 GMT-0500 (Eastern Standard Time),596093.3000001907,1900,I,z,1083,9,1,3006.0,593087.3000001907,9051,NTS,A,10
4,5,test,1,C,circle.png,0,z,Tue Feb 10 2026 09:35:52 GMT-0500 (Eastern Standard Time),599026.6999998093,1400,I,None,1516,4,1,2925.0,596101.6999998093,9051,NTS,A,11
9,5,test,1,C,triangle.png,0,z,Tue Feb 10 2026 09:35:52 GMT-0500 (Eastern Standard Time),601960.1999998093,1400,I,None,1516,16,1,2922.7999992370605,599037.4000005722,9051,NTS,A,12
8,6,test,1,C,circle.png,1,m,Tue Feb 10 2026 09:35:52 GMT-0500 (Eastern Standard Time),604510.0,1200,I,m,1317,15,1,2540.8999996185303,601969.1000003815,9051,NTS,A,13
3,7,test,1,C,circle.png,1,z,Tue Feb 10 2026 09:35:52 GMT-0500 (Eastern Standard Time),607326.6000003815,1600,I,z,1198,19,1,2807.5,604519.1000003815,9051,NTS,A,14
8,7,test,1,C,triangle.png,0,m,Tue Feb 10 2026 09:35:52 GMT-0500 (Eastern Standard Time),610460.1999998093,1600,I,None,1516,23,1,3124.3999996185303,607335.8000001907,9051,NTS,A,15
4,7,test,1,C,triangle.png,0,m,Tue Feb 10 2026 09:35:52 GMT-0500 (Eastern Standard Time),613493.4000005722,1500,I,None,1516,20,1,3022.9000005722046,610470.5,9051,NTS,A,16
6,8,test,1,C,triangle.png,1,m,Tue Feb 10 2026 09:35:52 GMT-0500 (Eastern Standard Time),615810.1999998093,1000,I,m,1294,13,1,2307.5999994277954,613502.6000003815,9051,NTS,A,17
1,9,test,1,C,circle.png,1,z,Tue Feb 10 2026 09:35:52 GMT-0500 (Eastern Standard Time),618060.0,1000,I,z,1218,1,1,2239.8999996185303,615820.1000003815,9051,NTS,A,18
3,9,test,1,C,triangle.png,0,z,Tue Feb 10 2026 09:35:52 GMT-0500 (Eastern Standard Time),620643.4000005722,1200,I,m,1360,3,1,2574.1000003814697,618069.3000001907,9051,NTS,A,19
8,10,test,1,C,triangle.png,1,m,Tue Feb 10 2026 09:35:52 GMT-0500 (Eastern Standard Time),623293.3000001907,1600,I,m,1016,7,1,2640.8999996185303,620652.4000005722,9051,NTS,A,20
6,11,test,1,C,circle.png,1,m,Tue Feb 10 2026 09:35:52 GMT-0500 (Eastern Standard Time),626460.1000003815,1900,I,m,1234,21,1,3157.800000190735,623302.3000001907,9051,NTS,A,21
9,11,test,1,C,circle.png,0,m,Tue Feb 10 2026 09:35:52 GMT-0500 (Eastern Standard Time),629476.6000003815,1500,I,z,1492,8,1,3007.9000005722046,626468.6999998093,9051,NTS,A,22
2,11,test,1,C,circle.png,0,z,Tue Feb 10 2026 09:35:52 GMT-0500 (Eastern Standard Time),632709.9000005722,1700,I,None,1516,18,1,3221.9000005722046,629488.0,9051,NTS,A,23
2,11,test,1,C,circle.png,0,z,Tue Feb 10 2026 09:35:52 GMT-0500 (Eastern Standard Time),635426.6000003815,1700,I,m,994,10,1,2706.4000005722046,632720.1999998093,9051,NTS,A,24
8,1,test,2,C,circle.png,1,m,Tue Feb 10 2026 09:35:52 GMT-0500 (Eastern Standard Time),652310.1999998093,1200,I,m,1274,15,1,2492.5,649817.6999998093,9051,NTS,A,1
2,1,test,2,C,circle.png,0,z,Tue Feb 10 2026 09:35:52 GMT-0500 (Eastern Standard Time),655543.4000005722,1700,I,None,1516,18,1,3224.0,652319.4000005722,9051,NTS,A,2
4,2,test,2,C,circle.png,1,z,Tue Feb 10 2026 09:35:52 GMT-0500 (Eastern Standard Time),658093.4000005722,1400,I,z,1116,4,1,2539.6000003814697,655553.8000001907,9051,NTS,A,3
4,3,test,2,C,triangle.png,1,m,Tue Feb 10 2026 09:35:52 GMT-0500 (Eastern Standard Time),660993.4000005722,1500,I,m,1362,12,1,2883.4000005722046,658110.0,9051,NTS,A,4
1,3,test,2,C,triangle.png,0,z,Tue Feb 10 2026 09:35:52 GMT-0500 (Eastern Standard Time),664426.6999998093,1900,I,None,1516,17,1,3421.2999992370605,661005.4000005722,9051,NTS,A,5
6,4,test,2,C,triangle.png,1,m,Tue Feb 10 2026 09:35:52 GMT-0500 (Eastern Standard Time),666610.1000003815,1000,I,m,1161,13,1,2174.4000005722046,664435.6999998093,9051,NTS,A,6
7,5,test,2,C,circle.png,1,m,Tue Feb 10 2026 09:35:52 GMT-0500 (Eastern Standard Time),669643.4000005722,2000,I,m,1002,14,1,3024.800000190735,666618.6000003815,9051,NTS,A,7
8,5,test,2,C,triangle.png,0,m,Tue Feb 10 2026 09:35:52 GMT-0500 (Eastern Standard Time),672576.6000003815,1600,I,z,1312,7,1,2923.5,669653.1000003815,9051,NTS,A,8
9,6,test,2,C,triangle.png,1,z,Tue Feb 10 2026 09:35:52 GMT-0500 (Eastern Standard Time),675243.3000001907,1400,I,z,1235,24,1,2655.8999996185303,672587.4000005722,9051,NTS,A,9
1,7,test,2,C,triangle.png,1,z,Tue Feb 10 2026 09:35:52 GMT-0500 (Eastern Standard Time),678592.6999998093,1900,I,z,1427,9,1,3338.5999994277954,675254.1000003815,9051,NTS,A,10
9,8,test,2,C,triangle.png,1,z,Tue Feb 10 2026 09:35:52 GMT-0500 (Eastern Standard Time),681043.3000001907,1400,I,z,1026,16,1,2445.699999809265,678597.6000003815,9051,NTS,A,11
3,9,test,2,C,triangle.png,1,z,Tue Feb 10 2026 09:35:52 GMT-0500 (Eastern Standard Time),683259.9000005722,1200,I,z,984,3,1,2205.5,681054.4000005722,9051,NTS,A,12
1,10,test,2,C,circle.png,1,z,Tue Feb 10 2026 09:35:52 GMT-0500 (Eastern Standard Time),685526.6000003815,1000,I,z,1240,1,1,2257.5,683269.1000003815,9051,NTS,A,13
3,11,test,2,C,circle.png,1,z,Tue Feb 10 2026 09:35:52 GMT-0500 (Eastern Standard Time),687909.9000005722,1600,I,z,757,19,1,2372.6000003814697,685537.3000001907,9051,NTS,A,14
9,12,test,2,C,circle.png,1,m,Tue Feb 10 2026 09:35:52 GMT-0500 (Eastern Standard Time),690659.8000001907,1500,I,m,1226,8,1,2739.199999809265,687920.6000003815,9051,NTS,A,15
3,13,test,2,C,circle.png,1,z,Tue Feb 10 2026 09:35:52 GMT-0500 (Eastern Standard Time),693309.8000001907,1600,I,z,1032,11,1,2639.1000003814697,690670.6999998093,9051,NTS,A,16
6,14,test,2,C,triangle.png,1,m,Tue Feb 10 2026 09:35:52 GMT-0500 (Eastern Standard Time),695643.1999998093,1000,I,m,1303,21,1,2326.0,693317.1999998093,9051,NTS,A,17
2,14,test,2,C,triangle.png,0,m,Tue Feb 10 2026 09:35:52 GMT-0500 (Eastern Standard Time),699176.5,2000,I,None,1516,2,1,3524.0,695652.5,9051,NTS,A,18
7,14,test,2,C,triangle.png,0,z,Tue Feb 10 2026 09:35:52 GMT-0500 (Eastern Standard Time),702409.6000003815,1700,I,None,1516,6,1,3223.6000003814697,699186.0,9051,NTS,A,19
8,15,test,2,C,circle.png,1,m,Tue Feb 10 2026 09:35:52 GMT-0500 (Eastern Standard Time),704609.9000005722,1200,I,m,978,23,1,2192.4000005722046,702417.5,9051,NTS,A,20
4,16,test,2,C,triangle.png,1,m,Tue Feb 10 2026 09:35:52 GMT-0500 (Eastern Standard Time),707193.1999998093,1500,I,m,1054,20,1,2574.0999994277954,704619.1000003815,9051,NTS,A,21
2,17,test,2,C,circle.png,1,z,Tue Feb 10 2026 09:35:52 GMT-0500 (Eastern Standard Time),710026.4000005722,1700,I,z,1103,10,1,2824.0,707202.4000005722,9051,NTS,A,22
7,18,test,2,C,circle.png,1,m,Tue Feb 10 2026 09:35:52 GMT-0500 (Eastern Standard Time),713176.6000003815,2000,I,m,1121,22,1,3139.5,710037.1000003815,9051,NTS,A,23
6,19,test,2,C,circle.png,1,m,Tue Feb 10 2026 09:35:52 GMT-0500 (Eastern Standard Time),715959.9000005722,1900,I,m,855,5,1,2774.800000190735,713185.1000003815,9051,NTS,A,24
6,1,test,3,C,circle.png,1,m,Tue Feb 10 2026 09:35:52 GMT-0500 (Eastern Standard Time),731609.1999998093,1900,I,m,1219,21,1,3138.8999996185303,728470.3000001907,9051,NTS,A,1
2,2,test,3,C,triangle.png,1,m,Tue Feb 10 2026 09:35:52 GMT-0500 (Eastern Standard Time),734776.5,2000,I,m,1138,2,1,3162.300000190735,731614.1999998093,9051,NTS,A,2
3,3,test,3,C,circle.png,1,z,Tue Feb 10 2026 09:35:52 GMT-0500 (Eastern Standard Time),737726.4000005722,1600,I,z,1331,11,1,2941.300000190735,734785.1000003815,9051,NTS,A,3
6,4,test,3,C,triangle.png,1,m,Tue Feb 10 2026 09:35:52 GMT-0500 (Eastern Standard Time),740093.1999998093,1000,I,m,1333,13,1,2356.7999992370605,737736.4000005722,9051,NTS,A,4
4,5,test,3,C,circle.png,1,z,Tue Feb 10 2026 09:35:52 GMT-0500 (Eastern Standard Time),742459.9000005722,1400,I,z,935,20,1,2355.4000005722046,740104.5,9051,NTS,A,5
8,6,test,3,C,circle.png,1,m,Tue Feb 10 2026 09:35:52 GMT-0500 (Eastern Standard Time),744643.3000001907,1200,I,m,960,15,1,2172.1000003814697,742471.1999998093,9051,NTS,A,6
3,7,test,3,C,triangle.png,1,z,Tue Feb 10 2026 09:35:52 GMT-0500 (Eastern Standard Time),747293.4000005722,1200,I,z,1433,3,1,2639.800000190735,744653.6000003815,9051,NTS,A,7
7,8,test,3,C,circle.png,1,m,Tue Feb 10 2026 09:35:52 GMT-0500 (Eastern Standard Time),750659.9000005722,2000,I,m,1343,14,1,3357.4000005722046,747302.5,9051,NTS,A,8
3,8,test,3,C,triangle.png,0,z,Tue Feb 10 2026 09:35:52 GMT-0500 (Eastern Standard Time),753393.1000003815,1200,I,None,1516,19,1,2722.1000003814697,750671.0,9051,NTS,A,9
2,9,test,3,C,triangle.png,1,m,Tue Feb 10 2026 09:35:52 GMT-0500 (Eastern Standard Time),756793.4000005722,2000,I,m,1371,18,1,3391.7000007629395,753401.6999998093,9051,NTS,A,10
7,10,test,3,C,triangle.png,1,z,Tue Feb 10 2026 09:35:52 GMT-0500 (Eastern Standard Time),759943.1999998093,1700,I,z,1423,6,1,3142.0999994277954,756801.1000003815,9051,NTS,A,11
1,11,test,3,C,circle.png,1,z,Tue Feb 10 2026 09:35:52 GMT-0500 (Eastern Standard Time),762243.1999998093,1000,I,z,1277,1,1,2290.0999994277954,759953.1000003815,9051,NTS,A,12
9,12,test,3,C,circle.png,1,m,Tue Feb 10 2026 09:35:52 GMT-0500 (Eastern Standard Time),765076.4000005722,1500,I,m,1309,8,1,2823.9000005722046,762252.5,9051,NTS,A,13
4,12,test,3,C,triangle.png,0,m,Tue Feb 10 2026 09:35:52 GMT-0500 (Eastern Standard Time),768109.6999998093,1500,I,None,1516,12,1,3024.0,765085.6999998093,9051,NTS,A,14
9,12,test,3,C,triangle.png,0,z,Tue Feb 10 2026 09:35:52 GMT-0500 (Eastern Standard Time),770926.4000005722,1400,I,m,1398,16,1,2806.0,768120.4000005722,9051,NTS,A,15
7,13,test,3,C,triangle.png,1,z,Tue Feb 10 2026 09:35:52 GMT-0500 (Eastern Standard Time),773776.4000005722,1700,I,z,1129,22,1,2843.0,770933.4000005722,9051,NTS,A,16
2,13,test,3,C,circle.png,0,z,Tue Feb 10 2026 09:35:52 GMT-0500 (Eastern Standard Time),777009.8000001907,1700,I,None,1516,10,1,3222.6000003814697,773787.1999998093,9051,NTS,A,17
8,14,test,3,C,triangle.png,1,m,Tue Feb 10 2026 09:35:52 GMT-0500 (Eastern Standard Time),780093.1999998093,1600,I,m,1450,7,1,3073.199999809265,777020.0,9051,NTS,A,18
4,15,test,3,C,circle.png,1,z,Tue Feb 10 2026 09:35:52 GMT-0500 (Eastern Standard Time),782626.4000005722,1400,I,z,1111,4,1,2524.800000190735,780101.6000003815,9051,NTS,A,19
9,16,test,3,C,circle.png,1,m,Tue Feb 10 2026 09:35:52 GMT-0500 (Eastern Standard Time),785226.5,1500,I,m,1069,24,1,2591.8999996185303,782634.6000003815,9051,NTS,A,20
8,17,test,3,C,triangle.png,1,m,Tue Feb 10 2026 09:35:52 GMT-0500 (Eastern Standard Time),787976.5,1600,I,m,1121,23,1,2741.800000190735,785234.6999998093,9051,NTS,A,21
1,18,test,3,C,circle.png,1,z,Tue Feb 10 2026 09:35:52 GMT-0500 (Eastern Standard Time),790126.1999998093,1000,I,z,1131,17,1,2140.8999996185303,787985.3000001907,9051,NTS,A,22
6,19,test,3,C,circle.png,1,m,Tue Feb 10 2026 09:35:52 GMT-0500 (Eastern Standard Time),793059.8000001907,1900,I,m,1009,5,1,2924.800000190735,790135.0,9051,NTS,A,23
1,20,test,3,C,triangle.png,1,z,Tue Feb 10 2026 09:35:52 GMT-0500 (Eastern Standard Time),796226.4000005722,1900,I,z,1244,9,1,3158.4000005722046,793068.0,9051,NTS,A,24
7,0,test,4,C,circle.png,0,m,Tue Feb 10 2026 09:35:52 GMT-0500 (Eastern Standard Time),811543.3000001907,2000,I,z,1489,14,1,3505.8999996185303,808037.4000005722,9051,NTS,A,1
8,1,test,4,C,triangle.png,1,m,Tue Feb 10 2026 09:35:52 GMT-0500 (Eastern Standard Time),814443.1999998093,1600,I,m,1268,7,1,2891.5999994277954,811551.6000003815,9051,NTS,A,2
8,2,test,4,C,triangle.png,1,m,Tue Feb 10 2026 09:35:52 GMT-0500 (Eastern Standard Time),816976.4000005722,1600,I,m,913,23,1,2523.6000003814697,814452.8000001907,9051,NTS,A,3
3,3,test,4,C,circle.png,1,z,Tue Feb 10 2026 09:35:52 GMT-0500 (Eastern Standard Time),819509.6999998093,1600,I,z,907,11,1,2522.3999996185303,816987.3000001907,9051,NTS,A,4
2,4,test,4,C,triangle.png,1,m,Tue Feb 10 2026 09:35:52 GMT-0500 (Eastern Standard Time),822609.9000005722,2000,I,m,1078,18,1,3088.4000005722046,819521.5,9051,NTS,A,5
4,5,test,4,C,circle.png,1,z,Tue Feb 10 2026 09:35:52 GMT-0500 (Eastern Standard Time),825226.5,1400,I,z,1186,4,1,2607.5999994277954,822618.9000005722,9051,NTS,A,6
9,6,test,4,C,circle.png,1,m,Tue Feb 10 2026 09:35:52 GMT-0500 (Eastern Standard Time),827726.3000001907,1500,I,m,981,8,1,2490.6000003814697,825235.6999998093,9051,NTS,A,7
4,7,test,4,C,triangle.png,1,m,Tue Feb 10 2026 09:35:52 GMT-0500 (Eastern Standard Time),830693.1000003815,1500,I,m,1441,12,1,2955.4000005722046,827737.6999998093,9051,NTS,A,8
3,8,test,4,C,triangle.png,1,z,Tue Feb 10 2026 09:35:52 GMT-0500 (Eastern Standard Time),833059.6000003815,1200,I,z,1143,19,1,2357.0,830702.6000003815,9051,NTS,A,9
9,9,test,4,C,triangle.png,1,z,Tue Feb 10 2026 09:35:52 GMT-0500 (Eastern Standard Time),835826.4000005722,1400,I,z,1344,16,1,2752.5,833073.9000005722,9051,NTS,A,10
6,10,test,4,C,circle.png,1,m,Tue Feb 10 2026 09:35:52 GMT-0500 (Eastern Standard Time),838743.1000003815,1900,I,m,989,5,1,2905.1000003814697,835838.0,9051,NTS,A,11
8,11,test,4,C,circle.png,1,m,Tue Feb 10 2026 09:35:52 GMT-0500 (Eastern Standard Time),840709.6999998093,1200,I,m,741,15,1,1957.5,838752.1999998093,9051,NTS,A,12
7,12,test,4,C,triangle.png,1,z,Tue Feb 10 2026 09:35:52 GMT-0500 (Eastern Standard Time),843493.1999998093,1700,I,z,1058,6,1,2772.0999994277954,840721.1000003815,9051,NTS,A,13
2,13,test,4,C,circle.png,1,z,Tue Feb 10 2026 09:35:52 GMT-0500 (Eastern Standard Time),846309.6999998093,1700,I,z,1091,10,1,2806.5999994277954,843503.1000003815,9051,NTS,A,14
1,13,test,4,C,triangle.png,0,z,Tue Feb 10 2026 09:35:52 GMT-0500 (Eastern Standard Time),849243.1000003815,1900,I,m,1002,9,1,2922.800000190735,846320.3000001907,9051,NTS,A,15
1,14,test,4,C,circle.png,1,z,Tue Feb 10 2026 09:35:52 GMT-0500 (Eastern Standard Time),851342.8000001907,1000,I,z,1081,17,1,2090.5,849252.3000001907,9051,NTS,A,16
2,14,test,4,C,triangle.png,0,m,Tue Feb 10 2026 09:35:52 GMT-0500 (Eastern Standard Time),854876.3000001907,2000,I,None,1516,2,1,3523.0,851353.3000001907,9051,NTS,A,17
6,15,test,4,C,triangle.png,1,m,Tue Feb 10 2026 09:35:52 GMT-0500 (Eastern Standard Time),856993.1000003815,1000,I,m,1095,13,1,2106.6000003814697,854886.5,9051,NTS,A,18
3,16,test,4,C,triangle.png,1,z,Tue Feb 10 2026 09:35:52 GMT-0500 (Eastern Standard Time),859543.1000003815,1200,I,z,1323,3,1,2539.1000003814697,857004.0,9051,NTS,A,19
7,16,test,4,C,triangle.png,0,z,Tue Feb 10 2026 09:35:52 GMT-0500 (Eastern Standard Time),862776.4000005722,1700,I,None,1516,22,1,3223.5,859552.9000005722,9051,NTS,A,20
6,17,test,4,C,circle.png,1,m,Tue Feb 10 2026 09:35:52 GMT-0500 (Eastern Standard Time),865826.4000005722,1900,I,m,1127,21,1,3039.300000190735,862787.1000003815,9051,NTS,A,21
1,18,test,4,C,circle.png,1,z,Tue Feb 10 2026 09:35:52 GMT-0500 (Eastern Standard Time),867909.6000003815,1000,I,z,1057,1,1,2073.300000190735,865836.3000001907,9051,NTS,A,22
9,19,test,4,C,circle.png,1,m,Tue Feb 10 2026 09:35:52 GMT-0500 (Eastern Standard Time),870409.9000005722,1500,I,m,970,24,1,2491.0,867918.9000005722,9051,NTS,A,23
4,20,test,4,C,circle.png,1,z,Tue Feb 10 2026 09:35:52 GMT-0500 (Eastern Standard Time),872942.8000001907,1400,I,z,1114,20,1,2520.8999996185303,870421.9000005722,9051,NTS,A,24
