acc_sum,block,block_c,block_cond,con_img,correct,correct_response,datetime,endtime,face,jitter,line,project,response,response_time,row_sel,session_number,start_end,starttime,subject_id,task,task_vers,trial
0,prac,1,A,haborder.png,0,m,Tue Jul 29 2025 18:00:39 GMT-0500 (Central Daylight Time),47575.200000047684,CFD-BF-019-004-HC.jpg,2000,solid,O,None,1514,5,1,4332.0,43243.200000047684,7173,ATS,C,1
1,prac,1,A,haborder.png,1,z,Tue Jul 29 2025 18:00:39 GMT-0500 (Central Daylight Time),50407.300000071526,CFD-BF-031-020-A.jpg,1000,solid,O,z,1010,4,1,7164.100000023842,43243.200000047684,7173,ATS,C,2
2,prac,1,A,haborder.png,1,z,Tue Jul 29 2025 18:00:39 GMT-0500 (Central Daylight Time),53989.60000002384,CFD-WF-037-016-A.jpg,1600,solid,O,z,1179,10,1,10746.399999976158,43243.200000047684,7173,ATS,C,3
3,prac,1,A,haborder.png,1,m,Tue Jul 29 2025 18:00:39 GMT-0500 (Central Daylight Time),57738.60000002384,CFD-WM-035-036-HC.jpg,1700,solid,O,m,1216,9,1,14495.399999976158,43243.200000047684,7173,ATS,C,4
4,prac,1,A,haborder.png,1,m,Tue Jul 29 2025 18:00:39 GMT-0500 (Central Daylight Time),61020.60000002384,CFD-WM-028-005-HC.jpg,1400,solid,O,m,1063,7,1,17777.399999976158,43243.200000047684,7173,ATS,C,5
5,prac,1,A,haborder.png,1,z,Tue Jul 29 2025 18:00:39 GMT-0500 (Central Daylight Time),63786.300000071526,CFD-WF-023-013-A.jpg,1000,solid,O,z,941,12,1,20543.100000023842,43243.200000047684,7173,ATS,C,6
6,prac,1,A,haborder.png,1,m,Tue Jul 29 2025 18:00:39 GMT-0500 (Central Daylight Time),66984.30000007153,CFD-WF-013-009-HC.jpg,1500,solid,O,m,875,11,1,23741.100000023842,43243.200000047684,7173,ATS,C,7
7,prac,1,A,haborder.png,1,m,Tue Jul 29 2025 18:00:39 GMT-0500 (Central Daylight Time),70234.30000007153,CFD-BM-022-004-HC.jpg,1500,solid,O,m,958,3,1,26991.100000023842,43243.200000047684,7173,ATS,C,8
8,prac,1,A,haborder.png,1,z,Tue Jul 29 2025 18:00:39 GMT-0500 (Central Daylight Time),73000.10000002384,CFD-BF-002-018-A.jpg,1200,solid,O,z,752,6,1,29756.899999976158,43243.200000047684,7173,ATS,C,9
9,prac,1,A,haborder.png,1,z,Tue Jul 29 2025 18:00:39 GMT-0500 (Central Daylight Time),76848.89999997616,CFD-WM-036-018-A.jpg,1900,solid,O,z,1134,8,1,33605.699999928474,43243.200000047684,7173,ATS,C,10
10,prac,1,A,haborder.png,1,z,Tue Jul 29 2025 18:00:39 GMT-0500 (Central Daylight Time),80164.5,CFD-BM-043-014-A.jpg,1600,solid,O,z,889,2,1,36921.299999952316,43243.200000047684,7173,ATS,C,11
11,prac,1,A,haborder.png,1,m,Tue Jul 29 2025 18:00:39 GMT-0500 (Central Daylight Time),83346.70000004768,CFD-BM-034-035-HC.jpg,1700,solid,O,m,650,1,1,40103.5,43243.200000047684,7173,ATS,C,12
1,prac,1,B,mfborder.png,1,m,Tue Jul 29 2025 18:00:39 GMT-0500 (Central Daylight Time),107338.70000004768,CFD-WM-034-040-A.jpg,1200,6,O,m,949,dash,1,2982.3000000715256,104356.39999997616,7173,ATS,C,1
2,prac,1,B,mfborder.png,1,z,Tue Jul 29 2025 18:00:39 GMT-0500 (Central Daylight Time),110804.30000007153,CFD-WF-001-010-HC.jpg,1900,8,O,z,747,dash,1,6447.900000095367,104356.39999997616,7173,ATS,C,2
3,prac,1,B,mfborder.png,1,m,Tue Jul 29 2025 18:00:39 GMT-0500 (Central Daylight Time),114019.89999997616,CFD-WM-035-036-HC.jpg,1600,10,O,m,789,dash,1,9663.5,104356.39999997616,7173,ATS,C,3
4,prac,1,B,mfborder.png,1,z,Tue Jul 29 2025 18:00:39 GMT-0500 (Central Daylight Time),116784.70000004768,CFD-BF-031-020-A.jpg,1000,4,O,z,933,dash,1,12428.300000071526,104356.39999997616,7173,ATS,C,4
5,prac,1,B,mfborder.png,1,m,Tue Jul 29 2025 18:00:39 GMT-0500 (Central Daylight Time),120501.5,CFD-BM-043-014-A.jpg,2000,5,O,m,912,dash,1,16145.100000023842,104356.39999997616,7173,ATS,C,5
6,prac,1,B,mfborder.png,1,z,Tue Jul 29 2025 18:00:39 GMT-0500 (Central Daylight Time),123383.80000007153,CFD-BF-042-031-HC.jpg,1500,3,O,z,552,dash,1,19027.400000095367,104356.39999997616,7173,ATS,C,6
7,prac,1,B,mfborder.png,1,z,Tue Jul 29 2025 18:00:39 GMT-0500 (Central Daylight Time),126466.10000002384,CFD-WF-037-016-A.jpg,1500,11,O,z,758,dash,1,22109.700000047684,104356.39999997616,7173,ATS,C,7
8,prac,1,B,mfborder.png,1,m,Tue Jul 29 2025 18:00:39 GMT-0500 (Central Daylight Time),129764.80000007153,CFD-WM-036-018-A.jpg,1700,9,O,m,780,dash,1,25408.400000095367,104356.39999997616,7173,ATS,C,8
9,prac,1,B,mfborder.png,1,z,Tue Jul 29 2025 18:00:39 GMT-0500 (Central Daylight Time),132614.30000007153,CFD-BF-019-004-HC.jpg,1400,7,O,z,629,dash,1,28257.900000095367,104356.39999997616,7173,ATS,C,9
10,prac,1,B,mfborder.png,1,z,Tue Jul 29 2025 18:00:39 GMT-0500 (Central Daylight Time),135879.30000007153,CFD-WF-013-009-HC.jpg,1000,12,O,z,1443,dash,1,31522.900000095367,104356.39999997616,7173,ATS,C,10
11,prac,1,B,mfborder.png,1,m,Tue Jul 29 2025 18:00:39 GMT-0500 (Central Daylight Time),139511.5,CFD-BM-022-004-HC.jpg,1700,1,O,m,1110,dash,1,35155.10000002384,104356.39999997616,7173,ATS,C,11
12,prac,1,B,mfborder.png,1,m,Tue Jul 29 2025 18:00:39 GMT-0500 (Central Daylight Time),142827.30000007153,CFD-BM-021-026-A.jpg,1600,2,O,m,899,dash,1,38470.90000009537,104356.39999997616,7173,ATS,C,12
1,test,1,A,haborder.png,1,m,Tue Jul 29 2025 18:00:39 GMT-0500 (Central Daylight Time),164636.70000004768,CFD-BF-019-004-HC.jpg,2000,solid,O,m,1348,5,1,3398.899999976158,161237.80000007153,7173,ATS,C,1
1,test,1,A,haborder.png,0,m,Tue Jul 29 2025 18:00:39 GMT-0500 (Central Daylight Time),167185.70000004768,CFD-BM-022-004-HC.jpg,1500,solid,O,z,1010,3,1,5947.899999976158,161237.80000007153,7173,ATS,C,2
2,test,1,A,haborder.png,1,z,Tue Jul 29 2025 18:00:39 GMT-0500 (Central Daylight Time),168868.60000002384,CFD-BF-031-020-A.jpg,1000,solid,O,z,657,4,1,7630.799999952316,161237.80000007153,7173,ATS,C,3
3,test,1,A,haborder.png,1,m,Tue Jul 29 2025 18:00:39 GMT-0500 (Central Daylight Time),172117.30000007153,CFD-BM-034-035-HC.jpg,1700,solid,O,m,1489,1,1,10879.5,161237.80000007153,7173,ATS,C,4
4,test,1,A,haborder.png,1,z,Tue Jul 29 2025 18:00:39 GMT-0500 (Central Daylight Time),174399.89999997616,CFD-WF-037-016-A.jpg,1600,solid,O,z,637,10,1,13162.099999904633,161237.80000007153,7173,ATS,C,5
5,test,1,A,haborder.png,1,z,Tue Jul 29 2025 18:00:39 GMT-0500 (Central Daylight Time),176665.89999997616,CFD-BF-031-020-A.jpg,1000,solid,O,z,1218,4,1,15428.099999904633,161237.80000007153,7173,ATS,C,6
6,test,1,A,haborder.png,1,m,Tue Jul 29 2025 18:00:39 GMT-0500 (Central Daylight Time),179269.20000004768,CFD-WM-035-036-HC.jpg,1700,solid,O,m,868,9,1,18031.399999976158,161237.80000007153,7173,ATS,C,7
7,test,1,A,haborder.png,1,z,Tue Jul 29 2025 18:00:39 GMT-0500 (Central Daylight Time),181864.20000004768,CFD-WF-037-016-A.jpg,1600,solid,O,z,953,10,1,20626.399999976158,161237.80000007153,7173,ATS,C,8
8,test,1,A,haborder.png,1,z,Tue Jul 29 2025 18:00:39 GMT-0500 (Central Daylight Time),184029.5,CFD-BF-002-018-A.jpg,1200,solid,O,z,921,6,1,22791.699999928474,161237.80000007153,7173,ATS,C,9
9,test,1,A,haborder.png,1,z,Tue Jul 29 2025 18:00:39 GMT-0500 (Central Daylight Time),185679.70000004768,CFD-WF-023-013-A.jpg,1000,solid,O,z,595,12,1,24441.899999976158,161237.80000007153,7173,ATS,C,10
10,test,1,A,haborder.png,1,m,Tue Jul 29 2025 18:00:39 GMT-0500 (Central Daylight Time),188412.0,CFD-BM-034-035-HC.jpg,1700,solid,O,m,991,1,1,27174.199999928474,161237.80000007153,7173,ATS,C,11
10,test,1,A,haborder.png,0,m,Tue Jul 29 2025 18:00:39 GMT-0500 (Central Daylight Time),191977.89999997616,CFD-BF-019-004-HC.jpg,2000,solid,O,None,1514,5,1,30740.099999904633,161237.80000007153,7173,ATS,C,12
11,test,1,A,haborder.png,1,m,Tue Jul 29 2025 18:00:39 GMT-0500 (Central Daylight Time),194576.20000004768,CFD-WM-035-036-HC.jpg,1700,solid,O,m,851,9,1,33338.39999997616,161237.80000007153,7173,ATS,C,13
12,test,1,A,haborder.png,1,m,Tue Jul 29 2025 18:00:39 GMT-0500 (Central Daylight Time),196892.5,CFD-WF-013-009-HC.jpg,1500,solid,O,m,773,11,1,35654.699999928474,161237.80000007153,7173,ATS,C,14
13,test,1,A,haborder.png,1,z,Tue Jul 29 2025 18:00:39 GMT-0500 (Central Daylight Time),199292.0,CFD-BM-043-014-A.jpg,1600,solid,O,z,750,2,1,38054.199999928474,161237.80000007153,7173,ATS,C,15
14,test,1,A,haborder.png,1,z,Tue Jul 29 2025 18:00:39 GMT-0500 (Central Daylight Time),202357.39999997616,CFD-WM-036-018-A.jpg,1900,solid,O,z,1123,8,1,41119.59999990463,161237.80000007153,7173,ATS,C,16
15,test,1,A,haborder.png,1,m,Tue Jul 29 2025 18:00:39 GMT-0500 (Central Daylight Time),204623.5,CFD-WM-028-005-HC.jpg,1400,solid,O,m,820,7,1,43385.699999928474,161237.80000007153,7173,ATS,C,17
16,test,1,A,haborder.png,1,m,Tue Jul 29 2025 18:00:39 GMT-0500 (Central Daylight Time),207605.60000002384,CFD-BM-022-004-HC.jpg,1500,solid,O,m,1447,3,1,46367.799999952316,161237.80000007153,7173,ATS,C,18
17,test,1,A,haborder.png,1,m,Tue Jul 29 2025 18:00:39 GMT-0500 (Central Daylight Time),210120.80000007153,CFD-WF-013-009-HC.jpg,1500,solid,O,m,952,11,1,48883.0,161237.80000007153,7173,ATS,C,19
18,test,1,A,haborder.png,1,z,Tue Jul 29 2025 18:00:39 GMT-0500 (Central Daylight Time),212120.89999997616,CFD-BF-002-018-A.jpg,1200,solid,O,z,777,6,1,50883.09999990463,161237.80000007153,7173,ATS,C,20
19,test,1,A,haborder.png,1,z,Tue Jul 29 2025 18:00:39 GMT-0500 (Central Daylight Time),214636.80000007153,CFD-BM-043-014-A.jpg,1600,solid,O,z,857,2,1,53399.0,161237.80000007153,7173,ATS,C,21
20,test,1,A,haborder.png,1,m,Tue Jul 29 2025 18:00:39 GMT-0500 (Central Daylight Time),216819.5,CFD-WM-028-005-HC.jpg,1400,solid,O,m,733,7,1,55581.699999928474,161237.80000007153,7173,ATS,C,22
21,test,1,A,haborder.png,1,z,Tue Jul 29 2025 18:00:39 GMT-0500 (Central Daylight Time),218635.60000002384,CFD-WF-023-013-A.jpg,1000,solid,O,z,766,12,1,57397.799999952316,161237.80000007153,7173,ATS,C,23
22,test,1,A,haborder.png,1,z,Tue Jul 29 2025 18:00:39 GMT-0500 (Central Daylight Time),222050.80000007153,CFD-WM-036-018-A.jpg,1900,solid,O,z,1467,8,1,60813.0,161237.80000007153,7173,ATS,C,24
1,test,1,B,mfborder.png,1,z,Tue Jul 29 2025 18:00:39 GMT-0500 (Central Daylight Time),235829.30000007153,CFD-BF-019-004-HC.jpg,1400,dash,O,z,1088,7,1,2531.7000000476837,233297.60000002384,7173,ATS,C,1
2,test,1,B,mfborder.png,1,z,Tue Jul 29 2025 18:00:39 GMT-0500 (Central Daylight Time),237712.5,CFD-BF-031-020-A.jpg,1000,dash,O,z,861,4,1,4414.899999976158,233297.60000002384,7173,ATS,C,2
3,test,1,B,mfborder.png,1,z,Tue Jul 29 2025 18:00:39 GMT-0500 (Central Daylight Time),239628.60000002384,CFD-WF-013-009-HC.jpg,1000,dash,O,z,856,12,1,6331.0,233297.60000002384,7173,ATS,C,3
4,test,1,B,mfborder.png,1,z,Tue Jul 29 2025 18:00:39 GMT-0500 (Central Daylight Time),241927.10000002384,CFD-BF-042-031-HC.jpg,1500,dash,O,z,753,3,1,8629.5,233297.60000002384,7173,ATS,C,4
5,test,1,B,mfborder.png,1,m,Tue Jul 29 2025 18:00:39 GMT-0500 (Central Daylight Time),244344.0,CFD-BM-022-004-HC.jpg,1700,dash,O,m,679,1,1,11046.399999976158,233297.60000002384,7173,ATS,C,5
6,test,1,B,mfborder.png,1,m,Tue Jul 29 2025 18:00:39 GMT-0500 (Central Daylight Time),246959.70000004768,CFD-BM-043-014-A.jpg,2000,dash,O,m,578,5,1,13662.100000023842,233297.60000002384,7173,ATS,C,6
7,test,1,B,mfborder.png,1,m,Tue Jul 29 2025 18:00:39 GMT-0500 (Central Daylight Time),249159.0,CFD-WM-035-036-HC.jpg,1600,dash,O,m,563,10,1,15861.399999976158,233297.60000002384,7173,ATS,C,7
8,test,1,B,mfborder.png,1,z,Tue Jul 29 2025 18:00:39 GMT-0500 (Central Daylight Time),251957.80000007153,CFD-WF-001-010-HC.jpg,1900,dash,O,z,847,8,1,18660.200000047684,233297.60000002384,7173,ATS,C,8
9,test,1,B,mfborder.png,1,m,Tue Jul 29 2025 18:00:39 GMT-0500 (Central Daylight Time),254673.39999997616,CFD-BM-021-026-A.jpg,1600,dash,O,m,1075,2,1,21375.799999952316,233297.60000002384,7173,ATS,C,9
10,test,1,B,mfborder.png,1,m,Tue Jul 29 2025 18:00:39 GMT-0500 (Central Daylight Time),256988.70000004768,CFD-WM-035-036-HC.jpg,1600,dash,O,m,681,10,1,23691.100000023842,233297.60000002384,7173,ATS,C,10
11,test,1,B,mfborder.png,1,z,Tue Jul 29 2025 18:00:39 GMT-0500 (Central Daylight Time),258572.5,CFD-BF-031-020-A.jpg,1000,dash,O,z,550,4,1,25274.899999976158,233297.60000002384,7173,ATS,C,11
12,test,1,B,mfborder.png,1,m,Tue Jul 29 2025 18:00:39 GMT-0500 (Central Daylight Time),261404.80000007153,CFD-WM-036-018-A.jpg,1700,dash,O,m,1090,9,1,28107.200000047684,233297.60000002384,7173,ATS,C,12
13,test,1,B,mfborder.png,1,z,Tue Jul 29 2025 18:00:39 GMT-0500 (Central Daylight Time),263621.39999997616,CFD-BF-042-031-HC.jpg,1500,dash,O,z,681,3,1,30323.799999952316,233297.60000002384,7173,ATS,C,13
14,test,1,B,mfborder.png,1,m,Tue Jul 29 2025 18:00:39 GMT-0500 (Central Daylight Time),266286.5,CFD-BM-043-014-A.jpg,2000,dash,O,m,621,5,1,32988.89999997616,233297.60000002384,7173,ATS,C,14
15,test,1,B,mfborder.png,1,z,Tue Jul 29 2025 18:00:39 GMT-0500 (Central Daylight Time),268752.39999997616,CFD-WF-037-016-A.jpg,1500,dash,O,z,912,11,1,35454.799999952316,233297.60000002384,7173,ATS,C,15
16,test,1,B,mfborder.png,1,m,Tue Jul 29 2025 18:00:39 GMT-0500 (Central Daylight Time),270685.10000002384,CFD-WM-034-040-A.jpg,1200,dash,O,m,691,6,1,37387.5,233297.60000002384,7173,ATS,C,16
17,test,1,B,mfborder.png,1,z,Tue Jul 29 2025 18:00:39 GMT-0500 (Central Daylight Time),272734.39999997616,CFD-BF-019-004-HC.jpg,1400,dash,O,z,612,7,1,39436.799999952316,233297.60000002384,7173,ATS,C,17
18,test,1,B,mfborder.png,1,m,Tue Jul 29 2025 18:00:39 GMT-0500 (Central Daylight Time),275133.5,CFD-BM-021-026-A.jpg,1600,dash,O,m,739,2,1,41835.89999997616,233297.60000002384,7173,ATS,C,18
19,test,1,B,mfborder.png,1,m,Tue Jul 29 2025 18:00:39 GMT-0500 (Central Daylight Time),277416.3000000715,CFD-WM-034-040-A.jpg,1200,dash,O,m,1037,6,1,44118.700000047684,233297.60000002384,7173,ATS,C,19
20,test,1,B,mfborder.png,1,z,Tue Jul 29 2025 18:00:39 GMT-0500 (Central Daylight Time),279698.8000000715,CFD-WF-037-016-A.jpg,1500,dash,O,z,742,11,1,46401.200000047684,233297.60000002384,7173,ATS,C,20
21,test,1,B,mfborder.png,1,z,Tue Jul 29 2025 18:00:39 GMT-0500 (Central Daylight Time),282631.3000000715,CFD-WF-001-010-HC.jpg,1900,dash,O,z,971,8,1,49333.700000047684,233297.60000002384,7173,ATS,C,21
22,test,1,B,mfborder.png,1,m,Tue Jul 29 2025 18:00:39 GMT-0500 (Central Daylight Time),285013.7000000477,CFD-BM-022-004-HC.jpg,1700,dash,O,m,647,1,1,51716.10000002384,233297.60000002384,7173,ATS,C,22
23,test,1,B,mfborder.png,1,m,Tue Jul 29 2025 18:00:39 GMT-0500 (Central Daylight Time),287695.3000000715,CFD-WM-036-018-A.jpg,1700,dash,O,m,936,9,1,54397.700000047684,233297.60000002384,7173,ATS,C,23
24,test,1,B,mfborder.png,1,z,Tue Jul 29 2025 18:00:39 GMT-0500 (Central Daylight Time),289478.89999997616,CFD-WF-013-009-HC.jpg,1000,dash,O,z,763,12,1,56181.299999952316,233297.60000002384,7173,ATS,C,24
0,prac,1,C,mfborder.png,0,z,Tue Jul 29 2025 18:00:39 GMT-0500 (Central Daylight Time),313038.0,CFD-WF-013-009-HC.jpg,1600,dash,O,None,1515,12,1,3915.100000023842,309122.89999997616,7173,ATS,C,1
0,prac,1,C,haborder.png,0,z,Tue Jul 29 2025 18:00:39 GMT-0500 (Central Daylight Time),316969.89999997616,CFD-WF-037-016-A.jpg,1600,dash,O,None,1516,12,1,7847.0,309122.89999997616,7173,ATS,C,2
0,prac,1,C,mfborder.png,0,m,Tue Jul 29 2025 18:00:39 GMT-0500 (Central Daylight Time),320502.0,CFD-BM-043-014-A.jpg,1200,dash,O,None,1515,12,1,11379.100000023842,309122.89999997616,7173,ATS,C,3
1,prac,1,C,haborder.png,1,z,Tue Jul 29 2025 18:00:39 GMT-0500 (Central Daylight Time),323934.5,CFD-BF-002-018-A.jpg,1700,solid,O,z,912,12,1,14811.600000023842,309122.89999997616,7173,ATS,C,4
2,prac,1,C,haborder.png,1,z,Tue Jul 29 2025 18:00:39 GMT-0500 (Central Daylight Time),328033.3000000715,CFD-BF-031-020-A.jpg,1900,dash,O,z,1376,12,1,18910.400000095367,309122.89999997616,7173,ATS,C,5
3,prac,1,C,mfborder.png,1,z,Tue Jul 29 2025 18:00:39 GMT-0500 (Central Daylight Time),331665.39999997616,CFD-WF-023-013-A.jpg,1500,solid,O,z,1301,12,1,22542.5,309122.89999997616,7173,ATS,C,6
4,prac,1,C,mfborder.png,1,m,Tue Jul 29 2025 18:00:39 GMT-0500 (Central Daylight Time),335930.5,CFD-BM-034-035-HC.jpg,2000,solid,O,m,1433,12,1,26807.600000023842,309122.89999997616,7173,ATS,C,7
4,prac,1,C,haborder.png,0,m,Tue Jul 29 2025 18:00:39 GMT-0500 (Central Daylight Time),339761.89999997616,CFD-BM-022-004-HC.jpg,1500,solid,O,None,1516,12,1,30639.0,309122.89999997616,7173,ATS,C,8
4,prac,1,C,mfborder.png,0,m,Tue Jul 29 2025 18:00:39 GMT-0500 (Central Daylight Time),343761.10000002384,CFD-WM-036-018-A.jpg,1700,solid,O,None,1517,12,1,34638.200000047684,309122.89999997616,7173,ATS,C,9
5,prac,1,C,mfborder.png,1,z,Tue Jul 29 2025 18:00:39 GMT-0500 (Central Daylight Time),346693.60000002384,CFD-BF-019-004-HC.jpg,1000,dash,O,z,1106,12,1,37570.700000047684,309122.89999997616,7173,ATS,C,10
6,prac,1,C,haborder.png,1,m,Tue Jul 29 2025 18:00:39 GMT-0500 (Central Daylight Time),349559.2000000477,CFD-WM-028-005-HC.jpg,1000,dash,O,m,1035,12,1,40436.300000071526,309122.89999997616,7173,ATS,C,11
7,prac,1,C,haborder.png,1,m,Tue Jul 29 2025 18:00:39 GMT-0500 (Central Daylight Time),352541.7000000477,CFD-WM-028-005-HC.jpg,1400,solid,O,m,771,12,1,43418.800000071526,309122.89999997616,7173,ATS,C,12
0,prac,2,C,haborder.png,0,z,Tue Jul 29 2025 18:00:39 GMT-0500 (Central Daylight Time),380431.5,CFD-WF-037-016-A.jpg,1600,dash,O,None,1516,12,1,71308.60000002384,309122.89999997616,7173,ATS,C,1
1,prac,2,C,haborder.png,1,m,Tue Jul 29 2025 18:00:39 GMT-0500 (Central Daylight Time),383647.2000000477,CFD-WM-028-005-HC.jpg,1400,solid,O,m,1019,12,1,74524.30000007153,309122.89999997616,7173,ATS,C,2
2,prac,2,C,mfborder.png,1,z,Tue Jul 29 2025 18:00:39 GMT-0500 (Central Daylight Time),387062.89999997616,CFD-WF-023-013-A.jpg,1500,solid,O,z,1119,12,1,77940.0,309122.89999997616,7173,ATS,C,3
2,prac,2,C,mfborder.png,0,m,Tue Jul 29 2025 18:00:39 GMT-0500 (Central Daylight Time),391061.39999997616,CFD-WM-036-018-A.jpg,1700,solid,O,None,1516,12,1,81938.5,309122.89999997616,7173,ATS,C,4
3,prac,2,C,haborder.png,1,z,Tue Jul 29 2025 18:00:39 GMT-0500 (Central Daylight Time),394710.3000000715,CFD-BF-002-018-A.jpg,1700,solid,O,z,1161,12,1,85587.40000009537,309122.89999997616,7173,ATS,C,5
4,prac,2,C,mfborder.png,1,m,Tue Jul 29 2025 18:00:39 GMT-0500 (Central Daylight Time),398542.5,CFD-BM-034-035-HC.jpg,2000,solid,O,m,1044,12,1,89419.60000002384,309122.89999997616,7173,ATS,C,6
5,prac,2,C,haborder.png,1,m,Tue Jul 29 2025 18:00:39 GMT-0500 (Central Daylight Time),401108.10000002384,CFD-WM-028-005-HC.jpg,1000,dash,O,m,780,12,1,91985.20000004768,309122.89999997616,7173,ATS,C,7
6,prac,2,C,mfborder.png,1,z,Tue Jul 29 2025 18:00:39 GMT-0500 (Central Daylight Time),404990.3000000715,CFD-WF-013-009-HC.jpg,1600,dash,O,z,1494,12,1,95867.40000009537,309122.89999997616,7173,ATS,C,8
7,prac,2,C,mfborder.png,1,z,Tue Jul 29 2025 18:00:39 GMT-0500 (Central Daylight Time),407739.39999997616,CFD-BF-019-004-HC.jpg,1000,dash,O,z,961,12,1,98616.5,309122.89999997616,7173,ATS,C,9
7,prac,2,C,haborder.png,0,z,Tue Jul 29 2025 18:00:39 GMT-0500 (Central Daylight Time),411471.39999997616,CFD-BF-031-020-A.jpg,1900,dash,O,m,1043,12,1,102348.5,309122.89999997616,7173,ATS,C,10
7,prac,2,C,mfborder.png,0,m,Tue Jul 29 2025 18:00:39 GMT-0500 (Central Daylight Time),414970.3000000715,CFD-BM-043-014-A.jpg,1200,dash,O,None,1516,12,1,105847.40000009537,309122.89999997616,7173,ATS,C,11
8,prac,2,C,haborder.png,1,m,Tue Jul 29 2025 18:00:39 GMT-0500 (Central Daylight Time),418253.8000000715,CFD-BM-022-004-HC.jpg,1500,solid,O,m,1004,12,1,109130.90000009537,309122.89999997616,7173,ATS,C,12
0,test,1,C,haborder.png,0,z,Tue Jul 29 2025 18:00:39 GMT-0500 (Central Daylight Time),433664.89999997616,CFD-BM-021-026-A.jpg,1700,solid,O,None,1517,9,1,3233.0,430431.89999997616,7173,ATS,C,1
1,test,1,C,mfborder.png,1,z,Tue Jul 29 2025 18:00:39 GMT-0500 (Central Daylight Time),436180.0,CFD-WF-037-016-A.jpg,1500,dash,O,z,982,3,1,5748.100000023842,430431.89999997616,7173,ATS,C,2
2,test,1,C,mfborder.png,1,m,Tue Jul 29 2025 18:00:39 GMT-0500 (Central Daylight Time),438995.7000000477,CFD-WM-034-040-A.jpg,2000,dash,O,m,799,5,1,8563.800000071526,430431.89999997616,7173,ATS,C,3
3,test,1,C,haborder.png,1,m,Tue Jul 29 2025 18:00:39 GMT-0500 (Central Daylight Time),441395.0,CFD-WF-001-010-HC.jpg,1500,solid,O,m,866,11,1,10963.100000023842,430431.89999997616,7173,ATS,C,4
4,test,1,C,haborder.png,1,m,Tue Jul 29 2025 18:00:39 GMT-0500 (Central Daylight Time),443511.7000000477,CFD-WF-001-010-HC.jpg,1500,solid,O,m,598,11,1,13079.800000071526,430431.89999997616,7173,ATS,C,5
4,test,1,C,mfborder.png,0,z,Tue Jul 29 2025 18:00:39 GMT-0500 (Central Daylight Time),446310.0,CFD-BF-042-031-HC.jpg,1700,dash,O,m,1055,1,1,15878.100000023842,430431.89999997616,7173,ATS,C,6
4,test,1,C,haborder.png,0,m,Tue Jul 29 2025 18:00:39 GMT-0500 (Central Daylight Time),448842.60000002384,CFD-WF-013-009-HC.jpg,1000,solid,O,None,1516,12,1,18410.700000047684,430431.89999997616,7173,ATS,C,7
5,test,1,C,haborder.png,1,m,Tue Jul 29 2025 18:00:39 GMT-0500 (Central Daylight Time),451758.10000002384,CFD-BF-019-004-HC.jpg,1600,solid,O,m,1296,10,1,21326.200000047684,430431.89999997616,7173,ATS,C,8
5,test,1,C,mfborder.png,0,m,Tue Jul 29 2025 18:00:39 GMT-0500 (Central Daylight Time),454823.89999997616,CFD-WM-034-040-A.jpg,2000,dash,O,z,1037,5,1,24392.0,430431.89999997616,7173,ATS,C,9
6,test,1,C,haborder.png,1,m,Tue Jul 29 2025 18:00:39 GMT-0500 (Central Daylight Time),457024.0,CFD-WF-013-009-HC.jpg,1000,solid,O,m,1171,12,1,26592.100000023842,430431.89999997616,7173,ATS,C,10
7,test,1,C,mfborder.png,1,m,Tue Jul 29 2025 18:00:39 GMT-0500 (Central Daylight Time),459206.7000000477,CFD-WM-035-036-HC.jpg,1000,dash,O,m,1146,4,1,28774.800000071526,430431.89999997616,7173,ATS,C,11
8,test,1,C,haborder.png,1,m,Tue Jul 29 2025 18:00:39 GMT-0500 (Central Daylight Time),461806.10000002384,CFD-BF-019-004-HC.jpg,1600,solid,O,m,965,10,1,31374.200000047684,430431.89999997616,7173,ATS,C,12
9,test,1,C,mfborder.png,1,z,Tue Jul 29 2025 18:00:39 GMT-0500 (Central Daylight Time),464104.89999997616,CFD-WF-037-016-A.jpg,1500,dash,O,z,753,3,1,33673.0,430431.89999997616,7173,ATS,C,13
10,test,1,C,haborder.png,1,z,Tue Jul 29 2025 18:00:39 GMT-0500 (Central Daylight Time),467187.5,CFD-BM-021-026-A.jpg,1700,solid,O,z,1325,9,1,36755.60000002384,430431.89999997616,7173,ATS,C,14
10,test,1,C,haborder.png,0,z,Tue Jul 29 2025 18:00:39 GMT-0500 (Central Daylight Time),470636.60000002384,CFD-BM-043-014-A.jpg,1900,solid,O,None,1515,8,1,40204.700000047684,430431.89999997616,7173,ATS,C,15
11,test,1,C,haborder.png,1,z,Tue Jul 29 2025 18:00:39 GMT-0500 (Central Daylight Time),473467.8000000715,CFD-WM-036-018-A.jpg,1400,solid,O,z,1399,7,1,43035.90000009537,430431.89999997616,7173,ATS,C,16
12,test,1,C,haborder.png,1,z,Tue Jul 29 2025 18:00:39 GMT-0500 (Central Daylight Time),476301.0,CFD-BM-043-014-A.jpg,1900,solid,O,z,906,8,1,45869.10000002384,430431.89999997616,7173,ATS,C,17
13,test,1,C,mfborder.png,1,z,Tue Jul 29 2025 18:00:39 GMT-0500 (Central Daylight Time),479050.10000002384,CFD-BF-042-031-HC.jpg,1700,dash,O,z,1012,1,1,48618.200000047684,430431.89999997616,7173,ATS,C,18
13,test,1,C,haborder.png,0,z,Tue Jul 29 2025 18:00:39 GMT-0500 (Central Daylight Time),481782.5,CFD-WM-036-018-A.jpg,1400,solid,O,m,1297,7,1,51350.60000002384,430431.89999997616,7173,ATS,C,19
13,test,1,C,mfborder.png,0,z,Tue Jul 29 2025 18:00:39 GMT-0500 (Central Daylight Time),484931.60000002384,CFD-BF-031-020-A.jpg,1600,dash,O,None,1515,2,1,54499.700000047684,430431.89999997616,7173,ATS,C,20
14,test,1,C,mfborder.png,1,m,Tue Jul 29 2025 18:00:39 GMT-0500 (Central Daylight Time),486830.8000000715,CFD-WM-035-036-HC.jpg,1000,dash,O,m,863,4,1,56398.90000009537,430431.89999997616,7173,ATS,C,21
15,test,1,C,mfborder.png,1,m,Tue Jul 29 2025 18:00:39 GMT-0500 (Central Daylight Time),488781.0,CFD-BM-022-004-HC.jpg,1200,dash,O,m,699,6,1,58349.10000002384,430431.89999997616,7173,ATS,C,22
15,test,1,C,mfborder.png,0,z,Tue Jul 29 2025 18:00:39 GMT-0500 (Central Daylight Time),491929.5,CFD-BF-031-020-A.jpg,1600,dash,O,None,1515,2,1,61497.60000002384,430431.89999997616,7173,ATS,C,23
16,test,1,C,mfborder.png,1,m,Tue Jul 29 2025 18:00:39 GMT-0500 (Central Daylight Time),494581.3000000715,CFD-BM-022-004-HC.jpg,1200,dash,O,m,1418,6,1,64149.40000009537,430431.89999997616,7173,ATS,C,24
0,test,2,C,haborder.png,0,z,Tue Jul 29 2025 18:00:39 GMT-0500 (Central Daylight Time),506991.10000002384,CFD-BF-002-018-A.jpg,1900,solid,O,None,1516,8,1,3448.7999999523163,503542.3000000715,7173,ATS,C,1
1,test,2,C,haborder.png,1,m,Tue Jul 29 2025 18:00:39 GMT-0500 (Central Daylight Time),509123.60000002384,CFD-WM-028-005-HC.jpg,1000,solid,O,m,1066,12,1,5581.299999952316,503542.3000000715,7173,ATS,C,2
2,test,2,C,haborder.png,1,z,Tue Jul 29 2025 18:00:39 GMT-0500 (Central Daylight Time),512071.89999997616,CFD-BF-002-018-A.jpg,1900,solid,O,z,1003,8,1,8529.599999904633,503542.3000000715,7173,ATS,C,3
3,test,2,C,mfborder.png,1,z,Tue Jul 29 2025 18:00:39 GMT-0500 (Central Daylight Time),514588.7000000477,CFD-BF-019-004-HC.jpg,1500,dash,O,z,985,3,1,11046.399999976158,503542.3000000715,7173,ATS,C,4
4,test,2,C,haborder.png,1,z,Tue Jul 29 2025 18:00:39 GMT-0500 (Central Daylight Time),517037.8000000715,CFD-BF-031-020-A.jpg,1400,solid,O,z,1006,7,1,13495.5,503542.3000000715,7173,ATS,C,5
5,test,2,C,mfborder.png,1,m,Tue Jul 29 2025 18:00:39 GMT-0500 (Central Daylight Time),520553.2000000477,CFD-BM-043-014-A.jpg,2000,dash,O,m,1477,5,1,17010.899999976158,503542.3000000715,7173,ATS,C,6
6,test,2,C,haborder.png,1,m,Tue Jul 29 2025 18:00:39 GMT-0500 (Central Daylight Time),523169.10000002384,CFD-WM-028-005-HC.jpg,1500,solid,O,m,1078,11,1,19626.799999952316,503542.3000000715,7173,ATS,C,7
6,test,2,C,mfborder.png,0,m,Tue Jul 29 2025 18:00:39 GMT-0500 (Central Daylight Time),526718.1000000238,CFD-BM-043-014-A.jpg,2000,dash,O,None,1516,5,1,23175.799999952316,503542.3000000715,7173,ATS,C,8
7,test,2,C,haborder.png,1,m,Tue Jul 29 2025 18:00:39 GMT-0500 (Central Daylight Time),529283.7000000477,CFD-WM-028-005-HC.jpg,1500,solid,O,m,1025,11,1,25741.399999976158,503542.3000000715,7173,ATS,C,9
7,test,2,C,mfborder.png,0,m,Tue Jul 29 2025 18:00:39 GMT-0500 (Central Daylight Time),532032.8000000715,CFD-WM-036-018-A.jpg,1200,dash,O,None,1516,6,1,28490.5,503542.3000000715,7173,ATS,C,10
8,test,2,C,mfborder.png,1,z,Tue Jul 29 2025 18:00:39 GMT-0500 (Central Daylight Time),534681.7000000477,CFD-BF-019-004-HC.jpg,1500,dash,O,z,1111,3,1,31139.399999976158,503542.3000000715,7173,ATS,C,11
9,test,2,C,haborder.png,1,m,Tue Jul 29 2025 18:00:39 GMT-0500 (Central Daylight Time),537365.0,CFD-BM-022-004-HC.jpg,1600,solid,O,m,1051,10,1,33822.699999928474,503542.3000000715,7173,ATS,C,12
10,test,2,C,haborder.png,1,z,Tue Jul 29 2025 18:00:39 GMT-0500 (Central Daylight Time),540597.3999999762,CFD-WF-037-016-A.jpg,1700,solid,O,z,1499,9,1,37055.09999990463,503542.3000000715,7173,ATS,C,13
11,test,2,C,mfborder.png,1,z,Tue Jul 29 2025 18:00:39 GMT-0500 (Central Daylight Time),543812.8999999762,CFD-WF-013-009-HC.jpg,1700,dash,O,z,1483,1,1,40270.59999990463,503542.3000000715,7173,ATS,C,14
12,test,2,C,mfborder.png,1,z,Tue Jul 29 2025 18:00:39 GMT-0500 (Central Daylight Time),547028.2000000477,CFD-WF-013-009-HC.jpg,1700,dash,O,z,1475,1,1,43485.89999997616,503542.3000000715,7173,ATS,C,15
12,test,2,C,haborder.png,0,z,Tue Jul 29 2025 18:00:39 GMT-0500 (Central Daylight Time),549977.2000000477,CFD-BF-031-020-A.jpg,1400,solid,O,None,1515,7,1,46434.89999997616,503542.3000000715,7173,ATS,C,16
13,test,2,C,mfborder.png,1,m,Tue Jul 29 2025 18:00:39 GMT-0500 (Central Daylight Time),552642.8000000715,CFD-WM-036-018-A.jpg,1200,dash,O,m,1426,6,1,49100.5,503542.3000000715,7173,ATS,C,17
14,test,2,C,haborder.png,1,m,Tue Jul 29 2025 18:00:39 GMT-0500 (Central Daylight Time),554625.3000000715,CFD-WM-028-005-HC.jpg,1000,solid,O,m,937,12,1,51083.0,503542.3000000715,7173,ATS,C,18
15,test,2,C,haborder.png,1,z,Tue Jul 29 2025 18:00:39 GMT-0500 (Central Daylight Time),557641.1000000238,CFD-WF-037-016-A.jpg,1700,solid,O,z,1278,9,1,54098.799999952316,503542.3000000715,7173,ATS,C,19
16,test,2,C,haborder.png,1,m,Tue Jul 29 2025 18:00:39 GMT-0500 (Central Daylight Time),560374.3000000715,CFD-BM-022-004-HC.jpg,1600,solid,O,m,1098,10,1,56832.0,503542.3000000715,7173,ATS,C,20
16,test,2,C,mfborder.png,0,z,Tue Jul 29 2025 18:00:39 GMT-0500 (Central Daylight Time),563522.6000000238,CFD-WF-023-013-A.jpg,1600,dash,O,None,1515,2,1,59980.299999952316,503542.3000000715,7173,ATS,C,21
17,test,2,C,mfborder.png,1,m,Tue Jul 29 2025 18:00:39 GMT-0500 (Central Daylight Time),565505.3000000715,CFD-BM-034-035-HC.jpg,1000,dash,O,m,937,4,1,61963.0,503542.3000000715,7173,ATS,C,22
18,test,2,C,mfborder.png,1,m,Tue Jul 29 2025 18:00:39 GMT-0500 (Central Daylight Time),567287.6000000238,CFD-BM-034-035-HC.jpg,1000,dash,O,m,737,4,1,63745.299999952316,503542.3000000715,7173,ATS,C,23
18,test,2,C,mfborder.png,0,z,Tue Jul 29 2025 18:00:39 GMT-0500 (Central Daylight Time),570419.3999999762,CFD-WF-023-013-A.jpg,1600,dash,O,None,1514,2,1,66877.09999990463,503542.3000000715,7173,ATS,C,24
0,test,3,C,haborder.png,0,z,Tue Jul 29 2025 18:00:39 GMT-0500 (Central Daylight Time),575202.1000000238,CFD-WM-036-018-A.jpg,1400,solid,O,None,1516,7,1,2933.2999999523163,572268.8000000715,7173,ATS,C,1
1,test,3,C,haborder.png,1,m,Tue Jul 29 2025 18:00:39 GMT-0500 (Central Daylight Time),577134.7000000477,CFD-WF-013-009-HC.jpg,1000,solid,O,m,890,12,1,4865.899999976158,572268.8000000715,7173,ATS,C,2
2,test,3,C,haborder.png,1,m,Tue Jul 29 2025 18:00:39 GMT-0500 (Central Daylight Time),579867.1000000238,CFD-BF-019-004-HC.jpg,1600,solid,O,m,1093,10,1,7598.299999952316,572268.8000000715,7173,ATS,C,3
3,test,3,C,mfborder.png,1,z,Tue Jul 29 2025 18:00:39 GMT-0500 (Central Daylight Time),582466.2000000477,CFD-BF-031-020-A.jpg,1600,dash,O,z,960,2,1,10197.399999976158,572268.8000000715,7173,ATS,C,4
4,test,3,C,haborder.png,1,m,Tue Jul 29 2025 18:00:39 GMT-0500 (Central Daylight Time),584932.1000000238,CFD-WF-001-010-HC.jpg,1500,solid,O,m,924,11,1,12663.299999952316,572268.8000000715,7173,ATS,C,5
4,test,3,C,haborder.png,0,z,Tue Jul 29 2025 18:00:39 GMT-0500 (Central Daylight Time),588197.7000000477,CFD-BM-021-026-A.jpg,1700,solid,O,None,1516,9,1,15928.899999976158,572268.8000000715,7173,ATS,C,6
5,test,3,C,haborder.png,1,m,Tue Jul 29 2025 18:00:39 GMT-0500 (Central Daylight Time),590646.8999999762,CFD-BF-019-004-HC.jpg,1600,solid,O,m,813,10,1,18378.099999904633,572268.8000000715,7173,ATS,C,7
6,test,3,C,haborder.png,1,z,Tue Jul 29 2025 18:00:39 GMT-0500 (Central Daylight Time),593012.8999999762,CFD-BM-021-026-A.jpg,1700,solid,O,z,625,9,1,20744.099999904633,572268.8000000715,7173,ATS,C,8
7,test,3,C,mfborder.png,1,z,Tue Jul 29 2025 18:00:39 GMT-0500 (Central Daylight Time),595528.7000000477,CFD-BF-031-020-A.jpg,1600,dash,O,z,871,2,1,23259.899999976158,572268.8000000715,7173,ATS,C,9
8,test,3,C,mfborder.png,1,z,Tue Jul 29 2025 18:00:39 GMT-0500 (Central Daylight Time),598244.8999999762,CFD-BF-042-031-HC.jpg,1700,dash,O,z,982,1,1,25976.099999904633,572268.8000000715,7173,ATS,C,10
9,test,3,C,mfborder.png,1,m,Tue Jul 29 2025 18:00:39 GMT-0500 (Central Daylight Time),601077.6000000238,CFD-WM-034-040-A.jpg,2000,dash,O,m,799,5,1,28808.799999952316,572268.8000000715,7173,ATS,C,11
10,test,3,C,mfborder.png,1,m,Tue Jul 29 2025 18:00:39 GMT-0500 (Central Daylight Time),603242.8999999762,CFD-BM-022-004-HC.jpg,1200,dash,O,m,918,6,1,30974.099999904633,572268.8000000715,7173,ATS,C,12
10,test,3,C,haborder.png,0,z,Tue Jul 29 2025 18:00:39 GMT-0500 (Central Daylight Time),606258.3999999762,CFD-BM-043-014-A.jpg,1900,solid,O,m,1046,8,1,33989.59999990463,572268.8000000715,7173,ATS,C,13
11,test,3,C,haborder.png,1,m,Tue Jul 29 2025 18:00:39 GMT-0500 (Central Daylight Time),608757.5,CFD-WF-013-009-HC.jpg,1000,solid,O,m,1465,12,1,36488.699999928474,572268.8000000715,7173,ATS,C,14
12,test,3,C,haborder.png,1,z,Tue Jul 29 2025 18:00:39 GMT-0500 (Central Daylight Time),611673.2000000477,CFD-WM-036-018-A.jpg,1400,solid,O,z,1469,7,1,39404.39999997616,572268.8000000715,7173,ATS,C,15
13,test,3,C,mfborder.png,1,m,Tue Jul 29 2025 18:00:39 GMT-0500 (Central Daylight Time),614189.2000000477,CFD-WM-035-036-HC.jpg,1000,dash,O,m,1466,4,1,41920.39999997616,572268.8000000715,7173,ATS,C,16
13,test,3,C,mfborder.png,0,z,Tue Jul 29 2025 18:00:39 GMT-0500 (Central Daylight Time),617438.3000000715,CFD-BF-042-031-HC.jpg,1700,dash,O,None,1515,1,1,45169.5,572268.8000000715,7173,ATS,C,17
14,test,3,C,mfborder.png,1,m,Tue Jul 29 2025 18:00:39 GMT-0500 (Central Daylight Time),619770.7000000477,CFD-BM-022-004-HC.jpg,1200,dash,O,m,1093,6,1,47501.89999997616,572268.8000000715,7173,ATS,C,18
15,test,3,C,mfborder.png,1,m,Tue Jul 29 2025 18:00:39 GMT-0500 (Central Daylight Time),623003.0,CFD-WM-034-040-A.jpg,2000,dash,O,m,1193,5,1,50734.199999928474,572268.8000000715,7173,ATS,C,19
16,test,3,C,haborder.png,1,z,Tue Jul 29 2025 18:00:39 GMT-0500 (Central Daylight Time),626051.1000000238,CFD-BM-043-014-A.jpg,1900,solid,O,z,1107,8,1,53782.299999952316,572268.8000000715,7173,ATS,C,20
17,test,3,C,mfborder.png,1,z,Tue Jul 29 2025 18:00:39 GMT-0500 (Central Daylight Time),628634.6000000238,CFD-WF-037-016-A.jpg,1500,dash,O,z,1051,3,1,56365.799999952316,572268.8000000715,7173,ATS,C,21
17,test,3,C,mfborder.png,0,m,Tue Jul 29 2025 18:00:39 GMT-0500 (Central Daylight Time),631182.8000000715,CFD-WM-035-036-HC.jpg,1000,dash,O,None,1516,4,1,58914.0,572268.8000000715,7173,ATS,C,22
18,test,3,C,haborder.png,1,m,Tue Jul 29 2025 18:00:39 GMT-0500 (Central Daylight Time),633799.3999999762,CFD-WF-001-010-HC.jpg,1500,solid,O,m,1098,11,1,61530.59999990463,572268.8000000715,7173,ATS,C,23
18,test,3,C,mfborder.png,0,z,Tue Jul 29 2025 18:00:39 GMT-0500 (Central Daylight Time),636847.7000000477,CFD-WF-037-016-A.jpg,1500,dash,O,None,1515,3,1,64578.89999997616,572268.8000000715,7173,ATS,C,24
0,test,4,C,mfborder.png,0,m,Tue Jul 29 2025 18:00:39 GMT-0500 (Central Daylight Time),642846.8999999762,CFD-BM-043-014-A.jpg,2000,dash,O,None,1515,5,1,3549.0,639297.8999999762,7173,ATS,C,1
1,test,4,C,haborder.png,1,m,Tue Jul 29 2025 18:00:39 GMT-0500 (Central Daylight Time),644995.1000000238,CFD-WM-028-005-HC.jpg,1000,solid,O,m,1107,12,1,5697.200000047684,639297.8999999762,7173,ATS,C,2
2,test,4,C,mfborder.png,1,m,Tue Jul 29 2025 18:00:39 GMT-0500 (Central Daylight Time),647478.3000000715,CFD-BM-034-035-HC.jpg,1000,dash,O,m,1464,4,1,8180.400000095367,639297.8999999762,7173,ATS,C,3
3,test,4,C,haborder.png,1,m,Tue Jul 29 2025 18:00:39 GMT-0500 (Central Daylight Time),649861.3000000715,CFD-BM-022-004-HC.jpg,1600,solid,O,m,749,10,1,10563.400000095367,639297.8999999762,7173,ATS,C,4
4,test,4,C,mfborder.png,1,z,Tue Jul 29 2025 18:00:39 GMT-0500 (Central Daylight Time),652959.8000000715,CFD-WF-023-013-A.jpg,1600,dash,O,z,1455,2,1,13661.900000095367,639297.8999999762,7173,ATS,C,5
5,test,4,C,haborder.png,1,z,Tue Jul 29 2025 18:00:39 GMT-0500 (Central Daylight Time),656008.8000000715,CFD-WF-037-016-A.jpg,1700,solid,O,z,1312,9,1,16710.900000095367,639297.8999999762,7173,ATS,C,6
5,test,4,C,mfborder.png,0,z,Tue Jul 29 2025 18:00:39 GMT-0500 (Central Daylight Time),658741.1000000238,CFD-BF-019-004-HC.jpg,1500,dash,O,m,1183,3,1,19443.200000047684,639297.8999999762,7173,ATS,C,7
5,test,4,C,mfborder.png,0,m,Tue Jul 29 2025 18:00:39 GMT-0500 (Central Daylight Time),662290.3000000715,CFD-BM-043-014-A.jpg,2000,dash,O,None,1515,5,1,22992.400000095367,639297.8999999762,7173,ATS,C,8
6,test,4,C,haborder.png,1,m,Tue Jul 29 2025 18:00:39 GMT-0500 (Central Daylight Time),664722.8999999762,CFD-WM-028-005-HC.jpg,1500,solid,O,m,885,11,1,25425.0,639297.8999999762,7173,ATS,C,9
7,test,4,C,haborder.png,1,m,Tue Jul 29 2025 18:00:39 GMT-0500 (Central Daylight Time),666405.5,CFD-WM-028-005-HC.jpg,1000,solid,O,m,640,12,1,27107.600000023842,639297.8999999762,7173,ATS,C,10
7,test,4,C,mfborder.png,0,m,Tue Jul 29 2025 18:00:39 GMT-0500 (Central Daylight Time),668704.8000000715,CFD-WM-036-018-A.jpg,1200,dash,O,z,1054,6,1,29406.900000095367,639297.8999999762,7173,ATS,C,11
8,test,4,C,haborder.png,1,m,Tue Jul 29 2025 18:00:39 GMT-0500 (Central Daylight Time),671053.3999999762,CFD-WM-028-005-HC.jpg,1500,solid,O,m,813,11,1,31755.5,639297.8999999762,7173,ATS,C,12
8,test,4,C,haborder.png,0,z,Tue Jul 29 2025 18:00:39 GMT-0500 (Central Daylight Time),674486.1000000238,CFD-BF-002-018-A.jpg,1900,solid,O,None,1515,8,1,35188.200000047684,639297.8999999762,7173,ATS,C,13
9,test,4,C,mfborder.png,1,z,Tue Jul 29 2025 18:00:39 GMT-0500 (Central Daylight Time),677201.0,CFD-WF-013-009-HC.jpg,1700,dash,O,z,969,1,1,37903.10000002384,639297.8999999762,7173,ATS,C,14
10,test,4,C,haborder.png,1,m,Tue Jul 29 2025 18:00:39 GMT-0500 (Central Daylight Time),679851.0,CFD-BM-022-004-HC.jpg,1600,solid,O,m,1017,10,1,40553.10000002384,639297.8999999762,7173,ATS,C,15
11,test,4,C,mfborder.png,1,z,Tue Jul 29 2025 18:00:39 GMT-0500 (Central Daylight Time),682717.3000000715,CFD-WF-023-013-A.jpg,1600,dash,O,z,1216,2,1,43419.40000009537,639297.8999999762,7173,ATS,C,16
11,test,4,C,haborder.png,0,z,Tue Jul 29 2025 18:00:39 GMT-0500 (Central Daylight Time),685715.8000000715,CFD-BF-002-018-A.jpg,1900,solid,O,m,1059,8,1,46417.90000009537,639297.8999999762,7173,ATS,C,17
11,test,4,C,mfborder.png,0,z,Tue Jul 29 2025 18:00:39 GMT-0500 (Central Daylight Time),688764.8999999762,CFD-BF-019-004-HC.jpg,1500,dash,O,None,1516,3,1,49467.0,639297.8999999762,7173,ATS,C,18
11,test,4,C,mfborder.png,0,z,Tue Jul 29 2025 18:00:39 GMT-0500 (Central Daylight Time),692013.2000000477,CFD-WF-013-009-HC.jpg,1700,dash,O,None,1516,1,1,52715.300000071526,639297.8999999762,7173,ATS,C,19
11,test,4,C,haborder.png,0,z,Tue Jul 29 2025 18:00:39 GMT-0500 (Central Daylight Time),694362.2000000477,CFD-BF-031-020-A.jpg,1400,solid,O,m,927,7,1,55064.300000071526,639297.8999999762,7173,ATS,C,20
12,test,4,C,mfborder.png,1,m,Tue Jul 29 2025 18:00:39 GMT-0500 (Central Daylight Time),696829.0,CFD-BM-034-035-HC.jpg,1000,dash,O,m,1440,4,1,57531.10000002384,639297.8999999762,7173,ATS,C,21
13,test,4,C,haborder.png,1,z,Tue Jul 29 2025 18:00:39 GMT-0500 (Central Daylight Time),699311.3000000715,CFD-BF-031-020-A.jpg,1400,solid,O,z,1047,7,1,60013.40000009537,639297.8999999762,7173,ATS,C,22
13,test,4,C,mfborder.png,0,m,Tue Jul 29 2025 18:00:39 GMT-0500 (Central Daylight Time),702060.3000000715,CFD-WM-036-018-A.jpg,1200,dash,O,None,1515,6,1,62762.40000009537,639297.8999999762,7173,ATS,C,23
14,test,4,C,haborder.png,1,z,Tue Jul 29 2025 18:00:39 GMT-0500 (Central Daylight Time),705276.1000000238,CFD-WF-037-016-A.jpg,1700,solid,O,z,1467,9,1,65978.20000004768,639297.8999999762,7173,ATS,C,24
