Number,acc_sum,block,block_c,block_cond,con_img,correct,correct_response,datetime,endtime,jitter,project,response,response_time,row_sel,session_number,start_end,starttime,subject_id,task,task_vers,trial
2,1,prac,1,A,circle.png,1,z,Tue Apr 21 2026 17:01:33 GMT-0500 (Central Daylight Time),63755.30000001192,2000,I,z,1071,2,3,3859.7000000178814,59895.59999999404,8076,NTS,A,1
1,2,prac,1,A,circle.png,1,z,Tue Apr 21 2026 17:01:33 GMT-0500 (Central Daylight Time),66154.40000000596,1000,I,z,605,1,3,2390.699999988079,63763.70000001788,8076,NTS,A,2
3,3,prac,1,A,circle.png,1,z,Tue Apr 21 2026 17:01:33 GMT-0500 (Central Daylight Time),68588.0,1200,I,z,463,3,3,2428.2999999821186,66159.70000001788,8076,NTS,A,3
2,4,prac,1,A,circle.png,1,z,Tue Apr 21 2026 17:01:33 GMT-0500 (Central Daylight Time),72002.59999999404,2000,I,z,622,2,3,3409.0999999940395,68593.5,8076,NTS,A,4
4,5,prac,1,A,circle.png,1,z,Tue Apr 21 2026 17:01:33 GMT-0500 (Central Daylight Time),74951.70000001788,1400,I,z,749,4,3,2943.600000023842,72008.09999999404,8076,NTS,A,5
1,6,prac,1,A,circle.png,1,z,Tue Apr 21 2026 17:01:33 GMT-0500 (Central Daylight Time),77201.0,1000,I,z,457,1,3,2243.7999999821186,74957.20000001788,8076,NTS,A,6
3,7,prac,1,A,circle.png,1,z,Tue Apr 21 2026 17:01:33 GMT-0500 (Central Daylight Time),79650.30000001192,1200,I,z,455,3,3,2444.2000000178814,77206.09999999404,8076,NTS,A,7
7,8,prac,1,A,circle.png,1,m,Tue Apr 21 2026 17:01:33 GMT-0500 (Central Daylight Time),82749.20000001788,1700,I,m,603,6,3,3093.600000023842,79655.59999999404,8076,NTS,A,8
7,9,prac,1,A,circle.png,1,m,Tue Apr 21 2026 17:01:33 GMT-0500 (Central Daylight Time),85681.80000001192,1700,I,m,447,6,3,2927.800000011921,82754.0,8076,NTS,A,9
6,10,prac,1,A,circle.png,1,m,Tue Apr 21 2026 17:01:33 GMT-0500 (Central Daylight Time),89064.0,1900,I,m,692,5,3,3376.9000000059605,85687.09999999404,8076,NTS,A,10
9,11,prac,1,A,circle.png,1,m,Tue Apr 21 2026 17:01:33 GMT-0500 (Central Daylight Time),91996.40000000596,1500,I,m,637,8,3,2927.4000000059605,89069.0,8076,NTS,A,11
8,12,prac,1,A,circle.png,1,m,Tue Apr 21 2026 17:01:33 GMT-0500 (Central Daylight Time),94978.80000001192,1600,I,m,597,7,3,2977.4000000059605,92001.40000000596,8076,NTS,A,12
3,1,prac,1,B,triangle.png,1,z,Tue Apr 21 2026 17:01:33 GMT-0500 (Central Daylight Time),125102.5,1600,I,z,1060,3,3,3444.4000000059605,121658.09999999404,8076,NTS,A,1
7,2,prac,1,B,triangle.png,1,z,Tue Apr 21 2026 17:01:33 GMT-0500 (Central Daylight Time),129151.30000001192,2000,I,z,1259,6,3,4042.5999999940395,125108.70000001788,8076,NTS,A,2
1,3,prac,1,B,triangle.png,1,z,Tue Apr 21 2026 17:01:33 GMT-0500 (Central Daylight Time),132351.59999999404,1900,I,z,502,1,3,3195.199999988079,129156.40000000596,8076,NTS,A,3
8,4,prac,1,B,triangle.png,1,m,Tue Apr 21 2026 17:01:33 GMT-0500 (Central Daylight Time),134982.90000000596,1200,I,m,506,7,3,2626.0999999940395,132356.80000001192,8076,NTS,A,4
9,5,prac,1,B,triangle.png,1,z,Tue Apr 21 2026 17:01:33 GMT-0500 (Central Daylight Time),137815.5,1400,I,z,643,8,3,2827.699999988079,134987.80000001192,8076,NTS,A,5
6,5,prac,1,B,triangle.png,0,m,Tue Apr 21 2026 17:01:33 GMT-0500 (Central Daylight Time),140197.80000001192,1000,I,z,594,5,3,2377.5,137820.30000001192,8076,NTS,A,6
7,6,prac,1,B,triangle.png,1,z,Tue Apr 21 2026 17:01:33 GMT-0500 (Central Daylight Time),143846.90000000596,2000,I,z,850,6,3,3644.4000000059605,140202.5,8076,NTS,A,7
3,7,prac,1,B,triangle.png,1,z,Tue Apr 21 2026 17:01:33 GMT-0500 (Central Daylight Time),146929.20000001788,1600,I,z,698,3,3,3077.0,143852.20000001788,8076,NTS,A,8
2,8,prac,1,B,triangle.png,1,m,Tue Apr 21 2026 17:01:33 GMT-0500 (Central Daylight Time),150894.59999999404,1700,I,m,1467,2,3,3960.399999976158,146934.20000001788,8076,NTS,A,9
4,9,prac,1,B,triangle.png,1,m,Tue Apr 21 2026 17:01:33 GMT-0500 (Central Daylight Time),154193.5,1500,I,m,1006,4,3,3294.0999999940395,150899.40000000596,8076,NTS,A,10
2,10,prac,1,B,triangle.png,1,m,Tue Apr 21 2026 17:01:33 GMT-0500 (Central Daylight Time),157259.40000000596,1700,I,m,572,2,3,3060.0,154199.40000000596,8076,NTS,A,11
4,11,prac,1,B,triangle.png,1,m,Tue Apr 21 2026 17:01:33 GMT-0500 (Central Daylight Time),160075.0,1500,I,m,522,4,3,2811.0,157264.0,8076,NTS,A,12
2,1,test,1,A,circle.png,1,z,Tue Apr 21 2026 17:01:33 GMT-0500 (Central Daylight Time),188182.90000000596,2000,I,z,828,2,3,2844.5999999940395,185338.30000001192,8076,NTS,A,1
3,2,test,1,A,circle.png,1,z,Tue Apr 21 2026 17:01:33 GMT-0500 (Central Daylight Time),189949.09999999404,1200,I,z,538,3,3,1761.5999999940395,188187.5,8076,NTS,A,2
1,3,test,1,A,circle.png,1,z,Tue Apr 21 2026 17:01:33 GMT-0500 (Central Daylight Time),191448.5,1000,I,z,475,1,3,1495.7999999821186,189952.70000001788,8076,NTS,A,3
9,4,test,1,A,circle.png,1,m,Tue Apr 21 2026 17:01:33 GMT-0500 (Central Daylight Time),193497.90000000596,1500,I,m,524,8,3,2045.800000011921,191452.09999999404,8076,NTS,A,4
7,5,test,1,A,circle.png,1,m,Tue Apr 21 2026 17:01:33 GMT-0500 (Central Daylight Time),195747.09999999404,1700,I,m,523,6,3,2245.5,193501.59999999404,8076,NTS,A,5
6,6,test,1,A,circle.png,1,m,Tue Apr 21 2026 17:01:33 GMT-0500 (Central Daylight Time),198530.09999999404,1900,I,m,857,5,3,2779.5999999940395,195750.5,8076,NTS,A,6
3,7,test,1,A,circle.png,1,z,Tue Apr 21 2026 17:01:33 GMT-0500 (Central Daylight Time),200262.20000001788,1200,I,z,511,3,3,1728.5,198533.70000001788,8076,NTS,A,7
4,8,test,1,A,circle.png,1,z,Tue Apr 21 2026 17:01:33 GMT-0500 (Central Daylight Time),202578.20000001788,1400,I,z,898,4,3,2312.2000000178814,200266.0,8076,NTS,A,8
4,9,test,1,A,circle.png,1,z,Tue Apr 21 2026 17:01:33 GMT-0500 (Central Daylight Time),204511.09999999404,1400,I,z,511,4,3,1929.0999999940395,202582.0,8076,NTS,A,9
7,10,test,1,A,circle.png,1,m,Tue Apr 21 2026 17:01:33 GMT-0500 (Central Daylight Time),206693.80000001192,1700,I,m,461,6,3,2178.9000000059605,204514.90000000596,8076,NTS,A,10
4,11,test,1,A,circle.png,1,z,Tue Apr 21 2026 17:01:33 GMT-0500 (Central Daylight Time),208693.09999999404,1400,I,z,579,4,3,1995.5,206697.59999999404,8076,NTS,A,11
8,12,test,1,A,circle.png,1,m,Tue Apr 21 2026 17:01:33 GMT-0500 (Central Daylight Time),211359.09999999404,1600,I,m,1044,7,3,2662.0999999940395,208697.0,8076,NTS,A,12
8,13,test,1,A,circle.png,1,m,Tue Apr 21 2026 17:01:33 GMT-0500 (Central Daylight Time),213508.20000001788,1600,I,m,530,7,3,2145.300000011921,211362.90000000596,8076,NTS,A,13
2,14,test,1,A,circle.png,1,z,Tue Apr 21 2026 17:01:33 GMT-0500 (Central Daylight Time),216440.59999999404,2000,I,z,909,2,3,2928.699999988079,213511.90000000596,8076,NTS,A,14
3,15,test,1,A,circle.png,1,z,Tue Apr 21 2026 17:01:33 GMT-0500 (Central Daylight Time),218406.80000001192,1200,I,z,736,3,3,1962.4000000059605,216444.40000000596,8076,NTS,A,15
2,16,test,1,A,circle.png,1,z,Tue Apr 21 2026 17:01:33 GMT-0500 (Central Daylight Time),220905.70000001788,2000,I,z,483,2,3,2495.5,218410.20000001788,8076,NTS,A,16
8,17,test,1,A,circle.png,1,m,Tue Apr 21 2026 17:01:33 GMT-0500 (Central Daylight Time),223055.0,1600,I,m,527,7,3,2145.5999999940395,220909.40000000596,8076,NTS,A,17
9,18,test,1,A,circle.png,1,m,Tue Apr 21 2026 17:01:33 GMT-0500 (Central Daylight Time),225071.30000001192,1500,I,m,486,8,3,2012.5999999940395,223058.70000001788,8076,NTS,A,18
6,19,test,1,A,circle.png,1,m,Tue Apr 21 2026 17:01:33 GMT-0500 (Central Daylight Time),227670.40000000596,1900,I,m,669,5,3,2595.5999999940395,225074.80000001192,8076,NTS,A,19
7,20,test,1,A,circle.png,1,m,Tue Apr 21 2026 17:01:33 GMT-0500 (Central Daylight Time),229853.20000001788,1700,I,m,454,6,3,2178.7000000178814,227674.5,8076,NTS,A,20
9,21,test,1,A,circle.png,1,m,Tue Apr 21 2026 17:01:33 GMT-0500 (Central Daylight Time),231869.30000001192,1500,I,m,496,8,3,2012.5,229856.80000001192,8076,NTS,A,21
3,22,test,1,A,circle.png,1,z,Tue Apr 21 2026 17:01:33 GMT-0500 (Central Daylight Time),233801.90000000596,1200,I,z,708,3,3,1928.5,231873.40000000596,8076,NTS,A,22
7,23,test,1,A,circle.png,1,m,Tue Apr 21 2026 17:01:33 GMT-0500 (Central Daylight Time),236084.70000001788,1700,I,m,554,6,3,2278.9000000059605,233805.80000001192,8076,NTS,A,23
1,24,test,1,A,circle.png,1,z,Tue Apr 21 2026 17:01:33 GMT-0500 (Central Daylight Time),237700.80000001192,1000,I,z,596,1,3,1612.5,236088.30000001192,8076,NTS,A,24
1,1,test,1,B,triangle.png,1,z,Tue Apr 21 2026 17:01:33 GMT-0500 (Central Daylight Time),251513.09999999404,1900,I,z,833,1,3,2763.199999988079,248749.90000000596,8076,NTS,A,1
8,2,test,1,B,triangle.png,1,m,Tue Apr 21 2026 17:01:33 GMT-0500 (Central Daylight Time),253729.0,1700,I,m,492,15,3,2211.9000000059605,251517.09999999404,8076,NTS,A,2
4,3,test,1,B,triangle.png,1,m,Tue Apr 21 2026 17:01:33 GMT-0500 (Central Daylight Time),255411.59999999404,1000,I,m,664,12,3,1679.199999988079,253732.40000000596,8076,NTS,A,3
7,4,test,1,B,triangle.png,1,z,Tue Apr 21 2026 17:01:33 GMT-0500 (Central Daylight Time),258027.5,1600,I,z,997,14,3,2612.199999988079,255415.30000001192,8076,NTS,A,4
3,5,test,1,B,triangle.png,1,z,Tue Apr 21 2026 17:01:33 GMT-0500 (Central Daylight Time),260376.90000000596,1600,I,z,717,3,3,2346.0,258030.90000000596,8076,NTS,A,5
1,6,test,1,B,triangle.png,1,z,Tue Apr 21 2026 17:01:33 GMT-0500 (Central Daylight Time),262276.09999999404,1400,I,z,481,9,3,1895.5999999940395,260380.5,8076,NTS,A,6
8,7,test,1,B,triangle.png,1,m,Tue Apr 21 2026 17:01:33 GMT-0500 (Central Daylight Time),263975.8000000119,1200,I,m,468,7,3,1695.5999999940395,262280.2000000179,8076,NTS,A,7
2,8,test,1,B,triangle.png,1,m,Tue Apr 21 2026 17:01:33 GMT-0500 (Central Daylight Time),265925.0,1200,I,m,722,10,3,1945.699999988079,263979.3000000119,8076,NTS,A,8
4,9,test,1,B,triangle.png,1,m,Tue Apr 21 2026 17:01:33 GMT-0500 (Central Daylight Time),267924.7000000179,1500,I,m,480,4,3,1996.0,265928.7000000179,8076,NTS,A,9
8,10,test,1,B,triangle.png,1,m,Tue Apr 21 2026 17:01:33 GMT-0500 (Central Daylight Time),269624.0,1200,I,m,468,7,3,1694.9000000059605,267929.09999999404,8076,NTS,A,10
3,11,test,1,B,triangle.png,1,z,Tue Apr 21 2026 17:01:33 GMT-0500 (Central Daylight Time),272206.09999999404,2000,I,z,553,11,3,2578.0999999940395,269628.0,8076,NTS,A,11
7,12,test,1,B,triangle.png,1,z,Tue Apr 21 2026 17:01:33 GMT-0500 (Central Daylight Time),274689.09999999404,1600,I,z,850,14,3,2479.199999988079,272209.90000000596,8076,NTS,A,12
6,13,test,1,B,triangle.png,1,m,Tue Apr 21 2026 17:01:33 GMT-0500 (Central Daylight Time),276405.3000000119,1000,I,m,688,5,3,1712.7000000178814,274692.59999999404,8076,NTS,A,13
7,14,test,1,B,triangle.png,1,z,Tue Apr 21 2026 17:01:33 GMT-0500 (Central Daylight Time),279287.7000000179,2000,I,z,852,6,3,2879.0,276408.7000000179,8076,NTS,A,14
9,15,test,1,B,triangle.png,1,z,Tue Apr 21 2026 17:01:33 GMT-0500 (Central Daylight Time),281953.40000000596,1400,I,z,1233,8,3,2662.0999999940395,279291.3000000119,8076,NTS,A,15
9,16,test,1,B,triangle.png,1,z,Tue Apr 21 2026 17:01:33 GMT-0500 (Central Daylight Time),284319.3000000119,1400,I,z,936,8,3,2362.0,281957.3000000119,8076,NTS,A,16
8,17,test,1,B,triangle.png,1,m,Tue Apr 21 2026 17:01:33 GMT-0500 (Central Daylight Time),286652.0,1700,I,m,614,15,3,2328.9000000059605,284323.09999999404,8076,NTS,A,17
1,18,test,1,B,triangle.png,1,z,Tue Apr 21 2026 17:01:33 GMT-0500 (Central Daylight Time),288834.5,1400,I,z,756,9,3,2179.0,286655.5,8076,NTS,A,18
7,19,test,1,B,triangle.png,1,z,Tue Apr 21 2026 17:01:33 GMT-0500 (Central Daylight Time),291783.8000000119,2000,I,z,918,6,3,2945.4000000059605,288838.40000000596,8076,NTS,A,19
9,20,test,1,B,triangle.png,1,z,Tue Apr 21 2026 17:01:33 GMT-0500 (Central Daylight Time),295032.5,1900,I,z,1326,16,3,3245.0999999940395,291787.40000000596,8076,NTS,A,20
2,20,test,1,B,triangle.png,0,m,Tue Apr 21 2026 17:01:33 GMT-0500 (Central Daylight Time),298264.90000000596,1700,I,None,1516,2,3,3228.4000000059605,295036.5,8076,NTS,A,21
2,21,test,1,B,triangle.png,1,m,Tue Apr 21 2026 17:01:33 GMT-0500 (Central Daylight Time),299997.8000000119,1200,I,m,503,10,3,1729.0999999940395,298268.7000000179,8076,NTS,A,22
4,22,test,1,B,triangle.png,1,m,Tue Apr 21 2026 17:01:33 GMT-0500 (Central Daylight Time),302030.5,1500,I,m,504,4,3,2029.0,300001.5,8076,NTS,A,23
6,23,test,1,B,triangle.png,1,m,Tue Apr 21 2026 17:01:33 GMT-0500 (Central Daylight Time),304029.7000000179,1500,I,m,471,13,3,1995.5,302034.2000000179,8076,NTS,A,24
4,0,prac,1,C,circle.png,0,z,Tue Apr 21 2026 17:01:33 GMT-0500 (Central Daylight Time),374007.5,1000,I,None,1517,4,3,3294.4000000059605,370713.09999999404,8076,NTS,A,1
6,1,prac,1,C,circle.png,1,m,Tue Apr 21 2026 17:01:33 GMT-0500 (Central Daylight Time),377539.8000000119,2000,I,m,745,5,3,3526.5999999940395,374013.2000000179,8076,NTS,A,2
1,2,prac,1,C,circle.png,1,z,Tue Apr 21 2026 17:01:33 GMT-0500 (Central Daylight Time),380772.09999999404,1700,I,z,737,1,3,3227.399999976158,377544.7000000179,8076,NTS,A,3
7,3,prac,1,C,triangle.png,1,z,Tue Apr 21 2026 17:01:33 GMT-0500 (Central Daylight Time),383754.59999999404,1200,I,z,988,6,3,2977.699999988079,380776.90000000596,8076,NTS,A,4
1,4,prac,1,C,circle.png,1,z,Tue Apr 21 2026 17:01:33 GMT-0500 (Central Daylight Time),386953.7000000179,1700,I,z,709,1,3,3194.600000023842,383759.09999999404,8076,NTS,A,5
2,5,prac,1,C,triangle.png,1,m,Tue Apr 21 2026 17:01:33 GMT-0500 (Central Daylight Time),390269.3000000119,1600,I,m,927,2,3,3310.0,386959.3000000119,8076,NTS,A,6
8,6,prac,1,C,triangle.png,1,m,Tue Apr 21 2026 17:01:33 GMT-0500 (Central Daylight Time),393563.7000000179,1400,I,m,1099,7,3,3289.2000000178814,390274.5,8076,NTS,A,7
3,7,prac,1,C,triangle.png,1,z,Tue Apr 21 2026 17:01:33 GMT-0500 (Central Daylight Time),396633.59999999404,1500,I,z,780,3,3,3062.0999999940395,393571.5,8076,NTS,A,8
9,8,prac,1,C,circle.png,1,m,Tue Apr 21 2026 17:01:33 GMT-0500 (Central Daylight Time),400115.90000000596,1900,I,m,787,8,3,3477.5,396638.40000000596,8076,NTS,A,9
6,9,prac,1,C,circle.png,1,m,Tue Apr 21 2026 17:01:33 GMT-0500 (Central Daylight Time),404148.2000000179,2000,I,m,1237,5,3,4026.9000000059605,400121.3000000119,8076,NTS,A,10
7,10,prac,1,C,triangle.png,1,z,Tue Apr 21 2026 17:01:33 GMT-0500 (Central Daylight Time),407214.90000000596,1200,I,z,1068,6,3,3062.0,404152.90000000596,8076,NTS,A,11
2,11,prac,1,C,triangle.png,1,m,Tue Apr 21 2026 17:01:33 GMT-0500 (Central Daylight Time),410696.09999999404,1600,I,m,1091,2,3,3476.2999999821186,407219.8000000119,8076,NTS,A,12
3,1,test,1,C,triangle.png,1,z,Tue Apr 21 2026 17:01:33 GMT-0500 (Central Daylight Time),430773.40000000596,1200,I,z,1287,3,3,2512.4000000059605,428261.0,8076,NTS,A,1
2,2,test,1,C,circle.png,1,z,Tue Apr 21 2026 17:01:33 GMT-0500 (Central Daylight Time),433256.09999999404,1700,I,z,751,10,3,2477.5999999940395,430778.5,8076,NTS,A,2
6,3,test,1,C,circle.png,1,m,Tue Apr 21 2026 17:01:33 GMT-0500 (Central Daylight Time),436238.3000000119,1900,I,m,1061,5,3,2978.0,433260.3000000119,8076,NTS,A,3
8,4,test,1,C,triangle.png,1,m,Tue Apr 21 2026 17:01:33 GMT-0500 (Central Daylight Time),438570.7000000179,1600,I,m,715,23,3,2328.0,436242.7000000179,8076,NTS,A,4
3,5,test,1,C,circle.png,1,z,Tue Apr 21 2026 17:01:33 GMT-0500 (Central Daylight Time),441503.40000000596,1600,I,z,1301,11,3,2928.800000011921,438574.59999999404,8076,NTS,A,5
8,6,test,1,C,circle.png,1,m,Tue Apr 21 2026 17:01:33 GMT-0500 (Central Daylight Time),443452.40000000596,1200,I,m,721,15,3,1944.800000011921,441507.59999999404,8076,NTS,A,6
4,7,test,1,C,triangle.png,1,m,Tue Apr 21 2026 17:01:33 GMT-0500 (Central Daylight Time),445768.59999999404,1500,I,m,792,12,3,2312.5,443456.09999999404,8076,NTS,A,7
7,8,test,1,C,triangle.png,1,z,Tue Apr 21 2026 17:01:33 GMT-0500 (Central Daylight Time),448351.09999999404,1700,I,z,861,6,3,2578.5,445772.59999999404,8076,NTS,A,8
4,9,test,1,C,triangle.png,1,m,Tue Apr 21 2026 17:01:33 GMT-0500 (Central Daylight Time),450650.3000000119,1500,I,m,783,20,3,2294.9000000059605,448355.40000000596,8076,NTS,A,9
8,10,test,1,C,triangle.png,1,m,Tue Apr 21 2026 17:01:33 GMT-0500 (Central Daylight Time),452999.90000000596,1600,I,m,726,7,3,2345.9000000059605,450654.0,8076,NTS,A,10
9,11,test,1,C,triangle.png,1,z,Tue Apr 21 2026 17:01:33 GMT-0500 (Central Daylight Time),455648.8000000119,1400,I,z,1217,16,3,2644.5999999940395,453004.2000000179,8076,NTS,A,11
9,12,test,1,C,circle.png,1,m,Tue Apr 21 2026 17:01:33 GMT-0500 (Central Daylight Time),458031.5,1500,I,m,860,8,3,2378.699999988079,455652.8000000119,8076,NTS,A,12
1,13,test,1,C,triangle.png,1,z,Tue Apr 21 2026 17:01:33 GMT-0500 (Central Daylight Time),460630.59999999404,1900,I,z,669,17,3,2595.0999999940395,458035.5,8076,NTS,A,13
6,14,test,1,C,circle.png,1,m,Tue Apr 21 2026 17:01:33 GMT-0500 (Central Daylight Time),463346.59999999404,1900,I,m,790,21,3,2711.899999976158,460634.7000000179,8076,NTS,A,14
1,15,test,1,C,triangle.png,1,z,Tue Apr 21 2026 17:01:33 GMT-0500 (Central Daylight Time),466095.5,1900,I,z,818,9,3,2744.199999988079,463351.3000000119,8076,NTS,A,15
7,16,test,1,C,circle.png,1,m,Tue Apr 21 2026 17:01:33 GMT-0500 (Central Daylight Time),469044.90000000596,2000,I,m,930,14,3,2945.699999988079,466099.2000000179,8076,NTS,A,16
7,17,test,1,C,triangle.png,1,z,Tue Apr 21 2026 17:01:33 GMT-0500 (Central Daylight Time),471810.5,1700,I,z,1040,22,3,2761.4000000059605,469049.09999999404,8076,NTS,A,17
2,18,test,1,C,circle.png,1,z,Tue Apr 21 2026 17:01:33 GMT-0500 (Central Daylight Time),474559.7000000179,1700,I,z,1018,18,3,2745.0,471814.7000000179,8076,NTS,A,18
1,19,test,1,C,circle.png,1,z,Tue Apr 21 2026 17:01:33 GMT-0500 (Central Daylight Time),476375.59999999404,1000,I,z,784,1,3,1811.7999999821186,474563.8000000119,8076,NTS,A,19
6,20,test,1,C,triangle.png,1,m,Tue Apr 21 2026 17:01:33 GMT-0500 (Central Daylight Time),478709.59999999404,1000,I,m,1305,13,3,2330.399999976158,476379.2000000179,8076,NTS,A,20
3,21,test,1,C,circle.png,1,z,Tue Apr 21 2026 17:01:33 GMT-0500 (Central Daylight Time),481274.2000000179,1600,I,z,940,19,3,2560.800000011921,478713.40000000596,8076,NTS,A,21
4,22,test,1,C,circle.png,1,z,Tue Apr 21 2026 17:01:33 GMT-0500 (Central Daylight Time),483656.8000000119,1400,I,z,959,4,3,2378.7000000178814,481278.09999999404,8076,NTS,A,22
2,23,test,1,C,triangle.png,1,m,Tue Apr 21 2026 17:01:33 GMT-0500 (Central Daylight Time),486905.8000000119,2000,I,m,1232,2,3,3245.2000000178814,483660.59999999404,8076,NTS,A,23
9,24,test,1,C,circle.png,1,m,Tue Apr 21 2026 17:01:33 GMT-0500 (Central Daylight Time),489221.90000000596,1500,I,m,787,24,3,2311.800000011921,486910.09999999404,8076,NTS,A,24
7,0,test,2,C,circle.png,0,m,Tue Apr 21 2026 17:01:33 GMT-0500 (Central Daylight Time),504133.8000000119,2000,I,None,1516,22,3,3529.300000011921,500604.5,8076,NTS,A,1
3,0,test,2,C,circle.png,0,z,Tue Apr 21 2026 17:01:33 GMT-0500 (Central Daylight Time),507166.40000000596,1600,I,m,1404,19,3,3028.0999999940395,504138.3000000119,8076,NTS,A,2
2,1,test,2,C,circle.png,1,z,Tue Apr 21 2026 17:01:33 GMT-0500 (Central Daylight Time),509932.2000000179,1700,I,z,1039,18,3,2762.300000011921,507169.90000000596,8076,NTS,A,3
6,2,test,2,C,circle.png,1,m,Tue Apr 21 2026 17:01:33 GMT-0500 (Central Daylight Time),513281.09999999404,1900,I,m,1415,5,3,3344.699999988079,509936.40000000596,8076,NTS,A,4
6,3,test,2,C,triangle.png,1,m,Tue Apr 21 2026 17:01:33 GMT-0500 (Central Daylight Time),515497.0,1000,I,m,1183,13,3,2212.0999999940395,513284.90000000596,8076,NTS,A,5
6,4,test,2,C,triangle.png,1,m,Tue Apr 21 2026 17:01:33 GMT-0500 (Central Daylight Time),517212.90000000596,1000,I,m,688,21,3,1712.0999999940395,515500.8000000119,8076,NTS,A,6
8,5,test,2,C,circle.png,1,m,Tue Apr 21 2026 17:01:33 GMT-0500 (Central Daylight Time),519530.2000000179,1200,I,m,1092,23,3,2313.600000023842,517216.59999999404,8076,NTS,A,7
8,6,test,2,C,triangle.png,1,m,Tue Apr 21 2026 17:01:33 GMT-0500 (Central Daylight Time),522261.3000000119,1600,I,m,1104,7,3,2727.5,519533.8000000119,8076,NTS,A,8
9,7,test,2,C,triangle.png,1,z,Tue Apr 21 2026 17:01:33 GMT-0500 (Central Daylight Time),524560.7000000179,1400,I,z,867,16,3,2295.9000000059605,522264.8000000119,8076,NTS,A,9
4,8,test,2,C,triangle.png,1,m,Tue Apr 21 2026 17:01:33 GMT-0500 (Central Daylight Time),527527.7000000179,1500,I,m,1436,20,3,2963.100000023842,524564.599999994,8076,NTS,A,10
3,9,test,2,C,circle.png,1,z,Tue Apr 21 2026 17:01:33 GMT-0500 (Central Daylight Time),529892.3000000119,1600,I,z,746,11,3,2360.5,527531.8000000119,8076,NTS,A,11
1,10,test,2,C,triangle.png,1,z,Tue Apr 21 2026 17:01:33 GMT-0500 (Central Daylight Time),532691.400000006,1900,I,z,880,9,3,2795.5999999940395,529895.8000000119,8076,NTS,A,12
7,11,test,2,C,triangle.png,1,z,Tue Apr 21 2026 17:01:33 GMT-0500 (Central Daylight Time),535207.099999994,1700,I,z,785,6,3,2511.7999999821186,532695.3000000119,8076,NTS,A,13
7,12,test,2,C,circle.png,1,m,Tue Apr 21 2026 17:01:33 GMT-0500 (Central Daylight Time),538006.400000006,2000,I,m,777,14,3,2795.199999988079,535211.2000000179,8076,NTS,A,14
2,13,test,2,C,triangle.png,1,m,Tue Apr 21 2026 17:01:33 GMT-0500 (Central Daylight Time),541122.3000000119,2000,I,m,1090,2,3,3109.0,538013.3000000119,8076,NTS,A,15
3,13,test,2,C,triangle.png,0,z,Tue Apr 21 2026 17:01:33 GMT-0500 (Central Daylight Time),543854.7000000179,1200,I,None,1516,3,3,2728.7000000178814,541126.0,8076,NTS,A,16
9,14,test,2,C,circle.png,1,m,Tue Apr 21 2026 17:01:33 GMT-0500 (Central Daylight Time),546670.5,1500,I,m,1286,8,3,2812.0,543858.5,8076,NTS,A,17
1,15,test,2,C,triangle.png,1,z,Tue Apr 21 2026 17:01:33 GMT-0500 (Central Daylight Time),549219.7000000179,1900,I,z,622,17,3,2545.300000011921,546674.400000006,8076,NTS,A,18
2,16,test,2,C,circle.png,1,z,Tue Apr 21 2026 17:01:33 GMT-0500 (Central Daylight Time),552035.400000006,1700,I,z,1097,10,3,2811.5,549223.900000006,8076,NTS,A,19
8,17,test,2,C,circle.png,1,m,Tue Apr 21 2026 17:01:33 GMT-0500 (Central Daylight Time),554001.8000000119,1200,I,m,749,15,3,1962.4000000059605,552039.400000006,8076,NTS,A,20
4,18,test,2,C,triangle.png,1,m,Tue Apr 21 2026 17:01:33 GMT-0500 (Central Daylight Time),556851.7000000179,1500,I,m,1323,12,3,2846.0,554005.7000000179,8076,NTS,A,21
1,19,test,2,C,circle.png,1,z,Tue Apr 21 2026 17:01:33 GMT-0500 (Central Daylight Time),558651.0,1000,I,z,777,1,3,1795.4000000059605,556855.599999994,8076,NTS,A,22
4,19,test,2,C,circle.png,0,z,Tue Apr 21 2026 17:01:33 GMT-0500 (Central Daylight Time),561216.0,1400,I,m,1142,4,3,2558.7999999821186,558657.2000000179,8076,NTS,A,23
9,20,test,2,C,triangle.png,1,z,Tue Apr 21 2026 17:01:33 GMT-0500 (Central Daylight Time),563532.0,1400,I,z,890,24,3,2311.699999988079,561220.3000000119,8076,NTS,A,24
8,1,test,3,C,triangle.png,1,m,Tue Apr 21 2026 17:01:33 GMT-0500 (Central Daylight Time),568014.3000000119,1600,I,m,1028,7,3,2646.300000011921,565368.0,8076,NTS,A,1
8,2,test,3,C,triangle.png,1,m,Tue Apr 21 2026 17:01:33 GMT-0500 (Central Daylight Time),570212.900000006,1600,I,m,572,23,3,2194.4000000059605,568018.5,8076,NTS,A,2
2,3,test,3,C,circle.png,1,z,Tue Apr 21 2026 17:01:33 GMT-0500 (Central Daylight Time),572596.0,1700,I,z,663,10,3,2379.199999988079,570216.8000000119,8076,NTS,A,3
3,4,test,3,C,triangle.png,1,z,Tue Apr 21 2026 17:01:33 GMT-0500 (Central Daylight Time),575094.7000000179,1200,I,z,1267,3,3,2494.600000023842,572600.099999994,8076,NTS,A,4
9,4,test,3,C,circle.png,0,m,Tue Apr 21 2026 17:01:33 GMT-0500 (Central Daylight Time),578127.400000006,1500,I,None,1516,24,3,3028.699999988079,575098.7000000179,8076,NTS,A,5
3,5,test,3,C,circle.png,1,z,Tue Apr 21 2026 17:01:33 GMT-0500 (Central Daylight Time),580509.8000000119,1600,I,z,753,11,3,2378.4000000059605,578131.400000006,8076,NTS,A,6
7,6,test,3,C,circle.png,1,m,Tue Apr 21 2026 17:01:33 GMT-0500 (Central Daylight Time),583225.8000000119,2000,I,m,692,14,3,2712.4000000059605,580513.400000006,8076,NTS,A,7
6,7,test,3,C,circle.png,1,m,Tue Apr 21 2026 17:01:33 GMT-0500 (Central Daylight Time),586291.3000000119,1900,I,m,1139,5,3,3061.4000000059605,583229.900000006,8076,NTS,A,8
6,8,test,3,C,triangle.png,1,m,Tue Apr 21 2026 17:01:33 GMT-0500 (Central Daylight Time),588491.7000000179,1000,I,m,1181,13,3,2196.5,586295.2000000179,8076,NTS,A,9
1,9,test,3,C,triangle.png,1,z,Tue Apr 21 2026 17:01:33 GMT-0500 (Central Daylight Time),591306.7000000179,1900,I,z,890,9,3,2810.9000000059605,588495.8000000119,8076,NTS,A,10
8,10,test,3,C,circle.png,1,m,Tue Apr 21 2026 17:01:33 GMT-0500 (Central Daylight Time),593589.2000000179,1200,I,m,1062,15,3,2278.800000011921,591310.400000006,8076,NTS,A,11
7,11,test,3,C,triangle.png,1,z,Tue Apr 21 2026 17:01:33 GMT-0500 (Central Daylight Time),596454.8000000119,1700,I,z,1136,6,3,2861.4000000059605,593593.400000006,8076,NTS,A,12
6,12,test,3,C,circle.png,1,m,Tue Apr 21 2026 17:01:33 GMT-0500 (Central Daylight Time),599337.400000006,1900,I,m,950,21,3,2878.300000011921,596459.099999994,8076,NTS,A,13
1,13,test,3,C,circle.png,1,z,Tue Apr 21 2026 17:01:33 GMT-0500 (Central Daylight Time),601003.5,1000,I,z,640,1,3,1662.2999999821186,599341.2000000179,8076,NTS,A,14
7,14,test,3,C,triangle.png,1,z,Tue Apr 21 2026 17:01:33 GMT-0500 (Central Daylight Time),603836.2000000179,1700,I,z,1113,22,3,2828.9000000059605,601007.3000000119,8076,NTS,A,15
2,14,test,3,C,triangle.png,0,m,Tue Apr 21 2026 17:01:33 GMT-0500 (Central Daylight Time),607367.900000006,2000,I,None,1516,2,3,3527.9000000059605,603840.0,8076,NTS,A,16
9,14,test,3,C,triangle.png,0,z,Tue Apr 21 2026 17:01:33 GMT-0500 (Central Daylight Time),609400.900000006,1400,I,m,609,16,3,2029.199999988079,607371.7000000179,8076,NTS,A,17
4,15,test,3,C,triangle.png,1,m,Tue Apr 21 2026 17:01:33 GMT-0500 (Central Daylight Time),611766.599999994,1500,I,m,845,12,3,2361.899999976158,609404.7000000179,8076,NTS,A,18
4,16,test,3,C,circle.png,1,z,Tue Apr 21 2026 17:01:33 GMT-0500 (Central Daylight Time),614282.400000006,1400,I,z,1098,4,3,2512.0999999940395,611770.3000000119,8076,NTS,A,19
9,17,test,3,C,circle.png,1,m,Tue Apr 21 2026 17:01:33 GMT-0500 (Central Daylight Time),617148.400000006,1500,I,m,1339,8,3,2862.0999999940395,614286.3000000119,8076,NTS,A,20
1,18,test,3,C,circle.png,1,z,Tue Apr 21 2026 17:01:33 GMT-0500 (Central Daylight Time),618797.7000000179,1000,I,z,629,17,3,1645.7000000178814,617152.0,8076,NTS,A,21
2,19,test,3,C,triangle.png,1,m,Tue Apr 21 2026 17:01:33 GMT-0500 (Central Daylight Time),622080.2000000179,2000,I,m,1260,18,3,3278.800000011921,618801.400000006,8076,NTS,A,22
4,20,test,3,C,circle.png,1,z,Tue Apr 21 2026 17:01:33 GMT-0500 (Central Daylight Time),624512.7000000179,1400,I,z,1008,20,3,2429.0,622083.7000000179,8076,NTS,A,23
3,21,test,3,C,triangle.png,1,z,Tue Apr 21 2026 17:01:33 GMT-0500 (Central Daylight Time),626578.5,1200,I,z,848,19,3,2061.699999988079,624516.8000000119,8076,NTS,A,24
2,1,test,4,C,circle.png,1,z,Tue Apr 21 2026 17:01:33 GMT-0500 (Central Daylight Time),630627.7000000179,1700,I,z,1056,10,3,2779.5,627848.2000000179,8076,NTS,A,1
7,1,test,4,C,circle.png,0,m,Tue Apr 21 2026 17:01:33 GMT-0500 (Central Daylight Time),633559.8000000119,2000,I,z,901,14,3,2927.300000011921,630632.5,8076,NTS,A,2
7,1,test,4,C,triangle.png,0,z,Tue Apr 21 2026 17:01:33 GMT-0500 (Central Daylight Time),635975.400000006,1700,I,m,684,22,3,2412.0,633563.400000006,8076,NTS,A,3
4,1,test,4,C,triangle.png,0,m,Tue Apr 21 2026 17:01:33 GMT-0500 (Central Daylight Time),639008.0,1500,I,None,1516,12,3,3028.7999999821186,635979.2000000179,8076,NTS,A,4
6,2,test,4,C,circle.png,1,m,Tue Apr 21 2026 17:01:33 GMT-0500 (Central Daylight Time),641924.0,1900,I,m,988,21,3,2912.5,639011.5,8076,NTS,A,5
8,3,test,4,C,circle.png,1,m,Tue Apr 21 2026 17:01:33 GMT-0500 (Central Daylight Time),643773.5,1200,I,m,629,15,3,1845.7999999821186,641927.7000000179,8076,NTS,A,6
2,3,test,4,C,triangle.png,0,m,Tue Apr 21 2026 17:01:33 GMT-0500 (Central Daylight Time),646972.599999994,2000,I,z,1172,18,3,3195.2999999821186,643777.3000000119,8076,NTS,A,7
1,4,test,4,C,triangle.png,1,z,Tue Apr 21 2026 17:01:33 GMT-0500 (Central Daylight Time),649572.599999994,1900,I,z,681,9,3,2596.0999999940395,646976.5,8076,NTS,A,8
4,5,test,4,C,circle.png,1,z,Tue Apr 21 2026 17:01:33 GMT-0500 (Central Daylight Time),652371.900000006,1400,I,z,1373,4,3,2795.5999999940395,649576.3000000119,8076,NTS,A,9
9,6,test,4,C,circle.png,1,m,Tue Apr 21 2026 17:01:33 GMT-0500 (Central Daylight Time),655302.900000006,1500,I,m,1411,24,3,2927.0,652375.900000006,8076,NTS,A,10
3,7,test,4,C,triangle.png,1,z,Tue Apr 21 2026 17:01:33 GMT-0500 (Central Daylight Time),657218.900000006,1200,I,z,698,19,3,1912.199999988079,655306.7000000179,8076,NTS,A,11
8,8,test,4,C,triangle.png,1,m,Tue Apr 21 2026 17:01:33 GMT-0500 (Central Daylight Time),659551.900000006,1600,I,m,709,23,3,2329.4000000059605,657222.5,8076,NTS,A,12
9,9,test,4,C,triangle.png,1,z,Tue Apr 21 2026 17:01:33 GMT-0500 (Central Daylight Time),661800.900000006,1400,I,z,816,16,3,2244.4000000059605,659556.5,8076,NTS,A,13
8,10,test,4,C,triangle.png,1,m,Tue Apr 21 2026 17:01:33 GMT-0500 (Central Daylight Time),664266.900000006,1600,I,m,848,7,3,2462.0,661804.900000006,8076,NTS,A,14
6,11,test,4,C,triangle.png,1,m,Tue Apr 21 2026 17:01:33 GMT-0500 (Central Daylight Time),666049.400000006,1000,I,m,765,13,3,1778.699999988079,664270.7000000179,8076,NTS,A,15
7,12,test,4,C,triangle.png,1,z,Tue Apr 21 2026 17:01:33 GMT-0500 (Central Daylight Time),668798.8000000119,1700,I,z,1028,6,3,2745.300000011921,666053.5,8076,NTS,A,16
1,13,test,4,C,circle.png,1,z,Tue Apr 21 2026 17:01:33 GMT-0500 (Central Daylight Time),670481.5,1000,I,z,649,17,3,1677.9000000059605,668803.599999994,8076,NTS,A,17
9,14,test,4,C,circle.png,1,m,Tue Apr 21 2026 17:01:33 GMT-0500 (Central Daylight Time),672680.7000000179,1500,I,m,675,8,3,2195.7000000178814,670485.0,8076,NTS,A,18
4,15,test,4,C,circle.png,1,z,Tue Apr 21 2026 17:01:33 GMT-0500 (Central Daylight Time),675546.5,1400,I,z,1433,20,3,2862.199999988079,672684.3000000119,8076,NTS,A,19
2,16,test,4,C,triangle.png,1,m,Tue Apr 21 2026 17:01:33 GMT-0500 (Central Daylight Time),678812.400000006,2000,I,m,1247,2,3,3262.300000011921,675550.099999994,8076,NTS,A,20
3,17,test,4,C,triangle.png,1,z,Tue Apr 21 2026 17:01:33 GMT-0500 (Central Daylight Time),680795.2000000179,1200,I,z,756,3,3,1978.800000011921,678816.400000006,8076,NTS,A,21
1,18,test,4,C,circle.png,1,z,Tue Apr 21 2026 17:01:33 GMT-0500 (Central Daylight Time),682777.900000006,1000,I,z,966,1,3,1978.9000000059605,680799.0,8076,NTS,A,22
6,19,test,4,C,circle.png,1,m,Tue Apr 21 2026 17:01:33 GMT-0500 (Central Daylight Time),685677.0,1900,I,m,979,5,3,2895.4000000059605,682781.599999994,8076,NTS,A,23
3,20,test,4,C,circle.png,1,z,Tue Apr 21 2026 17:01:33 GMT-0500 (Central Daylight Time),688076.099999994,1600,I,z,773,11,3,2395.399999976158,685680.7000000179,8076,NTS,A,24
