block_c,block_dur,condition,countdown,datetime,endtime,list,multichar_response,project,response,response_time,session_number,start_end,starttime,subject_id,task,task_vers,trial
,,,,Wed Sep 24 2025 16:44:35 GMT-0500 (Central Daylight Time),,,,I,space,314,3,,,8035,WL,A,
prac,,0,,Wed Sep 24 2025 16:44:35 GMT-0500 (Central Daylight Time),,NA,b,I,b,7920,3,,,8035,WL,A,1.0
prac,,0,,Wed Sep 24 2025 16:44:35 GMT-0500 (Central Daylight Time),,NA,bo,I,o,453,3,,,8035,WL,A,1.0
prac,,0,,Wed Sep 24 2025 16:44:35 GMT-0500 (Central Daylight Time),,NA,boo,I,o,118,3,,,8035,WL,A,1.0
prac,,0,,Wed Sep 24 2025 16:44:35 GMT-0500 (Central Daylight Time),,NA,boos,I,s,190,3,,,8035,WL,A,1.0
prac,,0,,Wed Sep 24 2025 16:44:35 GMT-0500 (Central Daylight Time),,NA,boost,I,t,181,3,,,8035,WL,A,1.0
prac,,0,,Wed Sep 24 2025 16:44:35 GMT-0500 (Central Daylight Time),,NA,boostenter,I,enter,1063,3,,,8035,WL,A,1.0
1,5.082000017166138,learn,54917.99998283386,Wed Sep 24 2025 16:44:35 GMT-0500 (Central Daylight Time),125610.09999990463,A,f,I,f,5062,3,5082.099999904633,120528.0,8035,WL,A,1.0
1,5.184999942779541,learn,54815.00005722046,Wed Sep 24 2025 16:44:35 GMT-0500 (Central Daylight Time),125713.20000004768,A,fl,I,l,80,3,5185.200000047684,120528.0,8035,WL,A,1.0
1,5.335999965667725,learn,54664.000034332275,Wed Sep 24 2025 16:44:35 GMT-0500 (Central Daylight Time),125864.29999995232,A,flo,I,o,131,3,5336.299999952316,120528.0,8035,WL,A,1.0
1,5.417999982833862,learn,54582.00001716614,Wed Sep 24 2025 16:44:35 GMT-0500 (Central Daylight Time),125946.09999990463,A,flow,I,w,69,3,5418.099999904633,120528.0,8035,WL,A,1.0
1,5.513000011444092,learn,54486.99998855591,Wed Sep 24 2025 16:44:35 GMT-0500 (Central Daylight Time),126041.29999995232,A,flowe,I,e,82,3,5513.299999952316,120528.0,8035,WL,A,1.0
1,5.647000074386597,learn,54352.9999256134,Wed Sep 24 2025 16:44:35 GMT-0500 (Central Daylight Time),126175.59999990463,A,flower,I,r,115,3,5647.599999904633,120528.0,8035,WL,A,1.0
1,6.245000123977661,learn,53754.99987602234,Wed Sep 24 2025 16:44:35 GMT-0500 (Central Daylight Time),126773.09999990463,A,flowerenter,I,enter,578,3,6245.099999904633,120528.0,8035,WL,A,1.0
1,7.078999996185303,learn,52921.0000038147,Wed Sep 24 2025 16:44:35 GMT-0500 (Central Daylight Time),127607.20000004768,A,b,I,b,823,3,833.6000001430511,126773.59999990463,8035,WL,A,2.0
1,7.230000019073486,learn,52769.999980926514,Wed Sep 24 2025 16:44:35 GMT-0500 (Central Daylight Time),127758.20000004768,A,bo,I,o,131,3,984.6000001430511,126773.59999990463,8035,WL,A,2.0
1,7.329999923706055,learn,52670.000076293945,Wed Sep 24 2025 16:44:35 GMT-0500 (Central Daylight Time),127857.70000004768,A,boo,I,o,84,3,1084.1000001430511,126773.59999990463,8035,WL,A,2.0
1,7.5970001220703125,learn,52402.99987792969,Wed Sep 24 2025 16:44:35 GMT-0500 (Central Daylight Time),128125.29999995232,A,book,I,k,260,3,1351.7000000476837,126773.59999990463,8035,WL,A,2.0
1,7.880000114440918,learn,52119.99988555908,Wed Sep 24 2025 16:44:35 GMT-0500 (Central Daylight Time),128408.29999995232,A,bookenter,I,enter,271,3,1634.7000000476837,126773.59999990463,8035,WL,A,2.0
1,8.513000011444092,learn,51486.99998855591,Wed Sep 24 2025 16:44:35 GMT-0500 (Central Daylight Time),129041.20000004768,A,t,I,t,612,3,632.5,128408.70000004768,8035,WL,A,3.0
1,9.01200008392334,learn,50987.99991607666,Wed Sep 24 2025 16:44:35 GMT-0500 (Central Daylight Time),129540.5,A,tr,I,r,492,3,1131.7999999523163,128408.70000004768,8035,WL,A,3.0
1,9.161999940872192,learn,50838.00005912781,Wed Sep 24 2025 16:44:35 GMT-0500 (Central Daylight Time),129690.39999985695,A,tra,I,a,135,3,1281.6999998092651,128408.70000004768,8035,WL,A,3.0
1,9.361000061035156,learn,50638.999938964844,Wed Sep 24 2025 16:44:35 GMT-0500 (Central Daylight Time),129889.59999990463,A,trai,I,i,184,3,1480.8999998569489,128408.70000004768,8035,WL,A,3.0
1,9.546000003814697,learn,50453.9999961853,Wed Sep 24 2025 16:44:35 GMT-0500 (Central Daylight Time),130074.09999990463,A,train,I,n,160,3,1665.3999998569489,128408.70000004768,8035,WL,A,3.0
1,10.194999933242798,learn,49805.0000667572,Wed Sep 24 2025 16:44:35 GMT-0500 (Central Daylight Time),130722.89999985695,A,trainenter,I,enter,629,3,2314.199999809265,128408.70000004768,8035,WL,A,3.0
1,10.444999933242798,learn,49555.0000667572,Wed Sep 24 2025 16:44:35 GMT-0500 (Central Daylight Time),130973.09999990463,A,m,I,m,232,3,249.79999995231628,130723.29999995232,8035,WL,A,4.0
1,10.545000076293945,learn,49454.999923706055,Wed Sep 24 2025 16:44:35 GMT-0500 (Central Daylight Time),131072.70000004768,A,me,I,e,77,3,349.40000009536743,130723.29999995232,8035,WL,A,4.0
1,10.644999980926514,learn,49355.000019073486,Wed Sep 24 2025 16:44:35 GMT-0500 (Central Daylight Time),131172.89999985695,A,mea,I,a,80,3,449.59999990463257,130723.29999995232,8035,WL,A,4.0
1,10.89300012588501,learn,49106.99987411499,Wed Sep 24 2025 16:44:35 GMT-0500 (Central Daylight Time),131421.39999985695,A,mead,I,d,232,3,698.0999999046326,130723.29999995232,8035,WL,A,4.0
1,11.062000036239624,learn,48937.999963760376,Wed Sep 24 2025 16:44:35 GMT-0500 (Central Daylight Time),131590.0,A,meado,I,o,152,3,866.7000000476837,130723.29999995232,8035,WL,A,4.0
1,11.361999988555908,learn,48638.00001144409,Wed Sep 24 2025 16:44:35 GMT-0500 (Central Daylight Time),131890.59999990463,A,meadow,I,w,292,3,1167.2999999523163,130723.29999995232,8035,WL,A,4.0
1,11.962000131607056,learn,48037.999868392944,Wed Sep 24 2025 16:44:35 GMT-0500 (Central Daylight Time),132490.0,A,meadowenter,I,enter,575,3,1766.7000000476837,130723.29999995232,8035,WL,A,4.0
1,12.410000085830688,learn,47589.99991416931,Wed Sep 24 2025 16:44:35 GMT-0500 (Central Daylight Time),132938.59999990463,A,k,I,k,433,3,448.2000000476837,132490.39999985695,8035,WL,A,5.0
1,12.528000116348267,learn,47471.99988365173,Wed Sep 24 2025 16:44:35 GMT-0500 (Central Daylight Time),133056.09999990463,A,ke,I,e,103,3,565.7000000476837,132490.39999985695,8035,WL,A,5.0
1,12.694999933242798,learn,47305.0000667572,Wed Sep 24 2025 16:44:35 GMT-0500 (Central Daylight Time),133223.20000004768,A,key,I,y,149,3,732.8000001907349,132490.39999985695,8035,WL,A,5.0
1,12.99399995803833,learn,47006.00004196167,Wed Sep 24 2025 16:44:35 GMT-0500 (Central Daylight Time),133522.0,A,keyenter,I,enter,274,3,1031.6000001430511,132490.39999985695,8035,WL,A,5.0
1,13.27999997138977,learn,46720.00002861023,Wed Sep 24 2025 16:44:35 GMT-0500 (Central Daylight Time),133807.70000004768,A,r,I,r,266,3,285.40000009536743,133522.29999995232,8035,WL,A,6.0
1,13.378000020980835,learn,46621.999979019165,Wed Sep 24 2025 16:44:35 GMT-0500 (Central Daylight Time),133905.79999995232,A,ru,I,u,83,3,383.5,133522.29999995232,8035,WL,A,6.0
1,13.59500002861023,learn,46404.99997138977,Wed Sep 24 2025 16:44:35 GMT-0500 (Central Daylight Time),134122.89999985695,A,rug,I,g,210,3,600.5999999046326,133522.29999995232,8035,WL,A,6.0
1,14.212000131607056,learn,45787.999868392944,Wed Sep 24 2025 16:44:35 GMT-0500 (Central Daylight Time),134739.59999990463,A,rugenter,I,enter,600,3,1217.2999999523163,133522.29999995232,8035,WL,A,6.0
1,15.811000108718872,learn,44188.99989128113,Wed Sep 24 2025 16:44:35 GMT-0500 (Central Daylight Time),136338.89999985695,A,c,I,c,1594,3,1598.8999998569489,134740.0,8035,WL,A,7.0
1,15.943000078201294,learn,44056.999921798706,Wed Sep 24 2025 16:44:35 GMT-0500 (Central Daylight Time),136471.5,A,ch,I,h,112,3,1731.5,134740.0,8035,WL,A,7.0
1,16.227999925613403,learn,43772.0000743866,Wed Sep 24 2025 16:44:35 GMT-0500 (Central Daylight Time),136756.59999990463,A,chi,I,i,267,3,2016.5999999046326,134740.0,8035,WL,A,7.0
1,16.57800006866455,learn,43421.99993133545,Wed Sep 24 2025 16:44:35 GMT-0500 (Central Daylight Time),137106.20000004768,A,chim,I,m,344,3,2366.2000000476837,134740.0,8035,WL,A,7.0
1,18.427000045776367,learn,41572.99995422363,Wed Sep 24 2025 16:44:35 GMT-0500 (Central Daylight Time),138954.79999995232,A,chimn,I,n,1834,3,4214.799999952316,134740.0,8035,WL,A,7.0
1,18.492000102996826,learn,41507.999897003174,Wed Sep 24 2025 16:44:35 GMT-0500 (Central Daylight Time),139020.5,A,chimne,I,e,48,3,4280.5,134740.0,8035,WL,A,7.0
1,18.693000078201294,learn,41306.999921798706,Wed Sep 24 2025 16:44:35 GMT-0500 (Central Daylight Time),139221.5,A,chimney,I,y,182,3,4481.5,134740.0,8035,WL,A,7.0
1,19.52500009536743,learn,40474.99990463257,Wed Sep 24 2025 16:44:35 GMT-0500 (Central Daylight Time),140053.5,A,chimneyenter,I,enter,814,3,5313.5,134740.0,8035,WL,A,7.0
1,23.29100012779236,learn,36708.99987220764,Wed Sep 24 2025 16:44:35 GMT-0500 (Central Daylight Time),143819.20000004768,A,l,I,l,3749,3,3765.4000000953674,140053.79999995232,8035,WL,A,8.0
1,23.441999912261963,learn,36558.00008773804,Wed Sep 24 2025 16:44:35 GMT-0500 (Central Daylight Time),143969.89999985695,A,lo,I,o,135,3,3916.0999999046326,140053.79999995232,8035,WL,A,8.0
1,23.54200005531311,learn,36457.99994468689,Wed Sep 24 2025 16:44:35 GMT-0500 (Central Daylight Time),144069.70000004768,A,log,I,g,80,3,4015.9000000953674,140053.79999995232,8035,WL,A,8.0
1,23.723999977111816,learn,36276.00002288818,Wed Sep 24 2025 16:44:35 GMT-0500 (Central Daylight Time),144252.39999985695,A,logenter,I,enter,172,3,4198.599999904633,140053.79999995232,8035,WL,A,8.0
1,29.124000072479248,learn,30875.999927520752,Wed Sep 24 2025 16:44:35 GMT-0500 (Central Daylight Time),149652.09999990463,A,s,I,s,5395,3,5399.299999952316,144252.79999995232,8035,WL,A,9.0
1,29.25600004196167,learn,30743.99995803833,Wed Sep 24 2025 16:44:35 GMT-0500 (Central Daylight Time),149784.29999995232,A,sa,I,a,118,3,5531.5,144252.79999995232,8035,WL,A,9.0
1,29.388999938964844,learn,30611.000061035156,Wed Sep 24 2025 16:44:35 GMT-0500 (Central Daylight Time),149917.39999985695,A,sal,I,l,126,3,5664.599999904633,144252.79999995232,8035,WL,A,9.0
1,29.572999954223633,learn,30427.000045776367,Wed Sep 24 2025 16:44:35 GMT-0500 (Central Daylight Time),150101.20000004768,A,salt,I,t,166,3,5848.400000095367,144252.79999995232,8035,WL,A,9.0
1,29.722000122070312,learn,30277.999877929688,Wed Sep 24 2025 16:44:35 GMT-0500 (Central Daylight Time),150250.29999995232,A,saltenter,I,enter,143,3,5997.5,144252.79999995232,8035,WL,A,9.0
1,33.704999923706055,learn,26295.000076293945,Wed Sep 24 2025 16:44:35 GMT-0500 (Central Daylight Time),154232.79999995232,A,w,I,w,3971,3,3982.2999999523163,150250.5,8035,WL,A,10.0
1,33.83800005912781,learn,26161.999940872192,Wed Sep 24 2025 16:44:35 GMT-0500 (Central Daylight Time),154365.70000004768,A,wi,I,i,123,3,4115.200000047684,150250.5,8035,WL,A,10.0
1,33.90499997138977,learn,26095.00002861023,Wed Sep 24 2025 16:44:35 GMT-0500 (Central Daylight Time),154433.59999990463,A,win,I,n,62,3,4183.099999904633,150250.5,8035,WL,A,10.0
1,34.020999908447266,learn,25979.000091552734,Wed Sep 24 2025 16:44:35 GMT-0500 (Central Daylight Time),154549.09999990463,A,wind,I,d,106,3,4298.599999904633,150250.5,8035,WL,A,10.0
1,34.1710000038147,learn,25828.999996185303,Wed Sep 24 2025 16:44:35 GMT-0500 (Central Daylight Time),154699.09999990463,A,windo,I,o,136,3,4448.599999904633,150250.5,8035,WL,A,10.0
1,34.28800010681152,learn,25711.999893188477,Wed Sep 24 2025 16:44:35 GMT-0500 (Central Daylight Time),154816.0,A,window,I,w,107,3,4565.5,150250.5,8035,WL,A,10.0
1,34.88700008392334,learn,25112.99991607666,Wed Sep 24 2025 16:44:35 GMT-0500 (Central Daylight Time),155415.5,A,windowenter,I,enter,579,3,5165.0,150250.5,8035,WL,A,10.0
1,43.18400001525879,learn,16815.99998474121,Wed Sep 24 2025 16:44:35 GMT-0500 (Central Daylight Time),163712.29999995232,A,enter,I,enter,8277,3,8296.5,155415.79999995232,8035,WL,A,11.0
1,43.80200004577637,learn,16197.999954223633,Wed Sep 24 2025 16:44:35 GMT-0500 (Central Daylight Time),164330.29999995232,A,enter,I,enter,613,3,617.7000000476837,163712.59999990463,8035,WL,A,12.0
1,44.168999910354614,learn,15831.000089645386,Wed Sep 24 2025 16:44:35 GMT-0500 (Central Daylight Time),164697.0,A,enter,I,enter,346,3,366.40000009536743,164330.59999990463,8035,WL,A,13.0
1,44.467000007629395,learn,15532.999992370605,Wed Sep 24 2025 16:44:35 GMT-0500 (Central Daylight Time),164995.39999985695,A,enter,I,enter,284,3,298.09999990463257,164697.29999995232,8035,WL,A,14.0
1,44.901000022888184,learn,15098.999977111816,Wed Sep 24 2025 16:44:35 GMT-0500 (Central Daylight Time),165429.09999990463,A,enter,I,enter,412,3,433.2999999523163,164995.79999995232,8035,WL,A,15.0
2,0.8999998569488525,learn,59100.00014305115,Wed Sep 24 2025 16:44:35 GMT-0500 (Central Daylight Time),233624.89999985695,A,g,I,g,879,3,899.5,232725.39999985695,8035,WL,A,1.0
2,1.0160000324249268,learn,58983.99996757507,Wed Sep 24 2025 16:44:35 GMT-0500 (Central Daylight Time),233740.79999995232,A,go,I,o,105,3,1015.4000000953674,232725.39999985695,8035,WL,A,1.0
2,1.182999849319458,learn,58817.00015068054,Wed Sep 24 2025 16:44:35 GMT-0500 (Central Daylight Time),233907.79999995232,A,gol,I,l,158,3,1182.4000000953674,232725.39999985695,8035,WL,A,1.0
2,1.2990000247955322,learn,58700.99997520447,Wed Sep 24 2025 16:44:35 GMT-0500 (Central Daylight Time),234024.09999990463,A,gold,I,d,105,3,1298.7000000476837,232725.39999985695,8035,WL,A,1.0
2,1.497999906539917,learn,58502.00009346008,Wed Sep 24 2025 16:44:35 GMT-0500 (Central Daylight Time),234223.20000004768,A,goldenter,I,enter,178,3,1497.8000001907349,232725.39999985695,8035,WL,A,1.0
2,1.7660000324249268,learn,58233.99996757507,Wed Sep 24 2025 16:44:35 GMT-0500 (Central Daylight Time),234491.20000004768,A,r,I,r,263,3,267.60000014305115,234223.59999990463,8035,WL,A,2.0
2,1.931999921798706,learn,58068.000078201294,Wed Sep 24 2025 16:44:35 GMT-0500 (Central Daylight Time),234656.70000004768,A,ra,I,a,152,3,433.10000014305115,234223.59999990463,8035,WL,A,2.0
2,2.047999858856201,learn,57952.0001411438,Wed Sep 24 2025 16:44:35 GMT-0500 (Central Daylight Time),234773.5,A,rat,I,t,107,3,549.9000000953674,234223.59999990463,8035,WL,A,2.0
2,2.181999921798706,learn,57818.000078201294,Wed Sep 24 2025 16:44:35 GMT-0500 (Central Daylight Time),234906.89999985695,A,ratt,I,t,126,3,683.2999999523163,234223.59999990463,8035,WL,A,2.0
2,2.3320000171661377,learn,57667.99998283386,Wed Sep 24 2025 16:44:35 GMT-0500 (Central Daylight Time),235057.29999995232,A,rattl,I,l,145,3,833.7000000476837,234223.59999990463,8035,WL,A,2.0
2,2.4659998416900635,learn,57534.00015830994,Wed Sep 24 2025 16:44:35 GMT-0500 (Central Daylight Time),235190.89999985695,A,rattle,I,e,122,3,967.2999999523163,234223.59999990463,8035,WL,A,2.0
2,2.8489999771118164,learn,57151.00002288818,Wed Sep 24 2025 16:44:35 GMT-0500 (Central Daylight Time),235573.89999985695,A,rattleenter,I,enter,360,3,1350.2999999523163,234223.59999990463,8035,WL,A,2.0
2,4.580999851226807,learn,55419.00014877319,Wed Sep 24 2025 16:44:35 GMT-0500 (Central Daylight Time),237306.79999995232,A,l,I,l,1727,3,1732.5999999046326,235574.20000004768,8035,WL,A,3.0
2,4.7799999713897705,learn,55220.00002861023,Wed Sep 24 2025 16:44:35 GMT-0500 (Central Daylight Time),237506.20000004768,A,lo,I,o,193,3,1932.0,235574.20000004768,8035,WL,A,3.0
2,4.878999948501587,learn,55121.00005149841,Wed Sep 24 2025 16:44:35 GMT-0500 (Central Daylight Time),237605.20000004768,A,log,I,g,89,3,2031.0,235574.20000004768,8035,WL,A,3.0
2,5.078999996185303,learn,54921.0000038147,Wed Sep 24 2025 16:44:35 GMT-0500 (Central Daylight Time),237805.39999985695,A,logenter,I,enter,184,3,2231.199999809265,235574.20000004768,8035,WL,A,3.0
2,5.7809998989105225,learn,54219.00010108948,Wed Sep 24 2025 16:44:35 GMT-0500 (Central Daylight Time),238507.29999995232,A,k,I,k,696,3,701.5999999046326,237805.70000004768,8035,WL,A,4.0
2,5.914000034332275,learn,54085.999965667725,Wed Sep 24 2025 16:44:35 GMT-0500 (Central Daylight Time),238639.59999990463,A,ke,I,e,118,3,833.8999998569489,237805.70000004768,8035,WL,A,4.0
2,6.063999891281128,learn,53936.00010871887,Wed Sep 24 2025 16:44:35 GMT-0500 (Central Daylight Time),238789.89999985695,A,key,I,y,135,3,984.1999998092651,237805.70000004768,8035,WL,A,4.0
2,6.2789998054504395,learn,53721.00019454956,Wed Sep 24 2025 16:44:35 GMT-0500 (Central Daylight Time),239005.09999990463,A,keyenter,I,enter,205,3,1199.3999998569489,237805.70000004768,8035,WL,A,4.0
2,6.546000003814697,learn,53453.9999961853,Wed Sep 24 2025 16:44:35 GMT-0500 (Central Daylight Time),239272.09999990463,A,f,I,f,255,3,266.7000000476837,239005.39999985695,8035,WL,A,5.0
2,6.645999908447266,learn,53354.000091552734,Wed Sep 24 2025 16:44:35 GMT-0500 (Central Daylight Time),239372.09999990463,A,fi,I,i,84,3,366.7000000476837,239005.39999985695,8035,WL,A,5.0
2,6.745999813079834,learn,53254.000186920166,Wed Sep 24 2025 16:44:35 GMT-0500 (Central Daylight Time),239472.29999995232,A,fin,I,n,77,3,466.90000009536743,239005.39999985695,8035,WL,A,5.0
2,6.794999837875366,learn,53205.000162124634,Wed Sep 24 2025 16:44:35 GMT-0500 (Central Daylight Time),239521.29999995232,A,fing,I,g,41,3,515.9000000953674,239005.39999985695,8035,WL,A,5.0
2,6.96399998664856,learn,53036.00001335144,Wed Sep 24 2025 16:44:35 GMT-0500 (Central Daylight Time),239689.79999995232,A,finge,I,e,163,3,684.4000000953674,239005.39999985695,8035,WL,A,5.0
2,7.061999797821045,learn,52938.000202178955,Wed Sep 24 2025 16:44:35 GMT-0500 (Central Daylight Time),239787.79999995232,A,finger,I,r,91,3,782.4000000953674,239005.39999985695,8035,WL,A,5.0
2,7.378000020980835,learn,52621.999979019165,Wed Sep 24 2025 16:44:35 GMT-0500 (Central Daylight Time),240103.79999995232,A,fingerenter,I,enter,302,3,1098.4000000953674,239005.39999985695,8035,WL,A,5.0
2,8.66100001335144,learn,51338.99998664856,Wed Sep 24 2025 16:44:35 GMT-0500 (Central Daylight Time),241387.20000004768,A,b,I,b,1268,3,1283.1000001430511,240104.09999990463,8035,WL,A,6.0
2,8.79699993133545,learn,51203.00006866455,Wed Sep 24 2025 16:44:35 GMT-0500 (Central Daylight Time),241522.70000004768,A,bo,I,o,111,3,1418.6000001430511,240104.09999990463,8035,WL,A,6.0
2,8.928999900817871,learn,51071.00009918213,Wed Sep 24 2025 16:44:35 GMT-0500 (Central Daylight Time),241655.0,A,boo,I,o,112,3,1550.9000000953674,240104.09999990463,8035,WL,A,6.0
2,9.061999797821045,learn,50938.000202178955,Wed Sep 24 2025 16:44:35 GMT-0500 (Central Daylight Time),241788.0,A,book,I,k,116,3,1683.9000000953674,240104.09999990463,8035,WL,A,6.0
2,9.294999837875366,learn,50705.000162124634,Wed Sep 24 2025 16:44:35 GMT-0500 (Central Daylight Time),242020.70000004768,A,bookenter,I,enter,215,3,1916.6000001430511,240104.09999990463,8035,WL,A,6.0
2,9.678999900817871,learn,50321.00009918213,Wed Sep 24 2025 16:44:35 GMT-0500 (Central Daylight Time),242404.59999990463,A,m,I,m,378,3,383.7000000476837,242020.89999985695,8035,WL,A,7.0
2,9.727999925613403,learn,50272.0000743866,Wed Sep 24 2025 16:44:35 GMT-0500 (Central Daylight Time),242454.0,A,me,I,e,37,3,433.10000014305115,242020.89999985695,8035,WL,A,7.0
2,9.861999988555908,learn,50138.00001144409,Wed Sep 24 2025 16:44:35 GMT-0500 (Central Daylight Time),242587.79999995232,A,mea,I,a,129,3,566.9000000953674,242020.89999985695,8035,WL,A,7.0
2,10.013000011444092,learn,49986.99998855591,Wed Sep 24 2025 16:44:35 GMT-0500 (Central Daylight Time),242738.59999990463,A,mead,I,d,137,3,717.7000000476837,242020.89999985695,8035,WL,A,7.0
2,10.161999940872192,learn,49838.00005912781,Wed Sep 24 2025 16:44:35 GMT-0500 (Central Daylight Time),242887.89999985695,A,meado,I,o,130,3,867.0,242020.89999985695,8035,WL,A,7.0
2,10.260999917984009,learn,49739.00008201599,Wed Sep 24 2025 16:44:35 GMT-0500 (Central Daylight Time),242987.29999995232,A,meadow,I,w,92,3,966.4000000953674,242020.89999985695,8035,WL,A,7.0
2,10.527999877929688,learn,49472.00012207031,Wed Sep 24 2025 16:44:35 GMT-0500 (Central Daylight Time),243253.70000004768,A,meadowenter,I,enter,252,3,1232.8000001907349,242020.89999985695,8035,WL,A,7.0
2,12.476999998092651,learn,47523.00000190735,Wed Sep 24 2025 16:44:35 GMT-0500 (Central Daylight Time),245202.89999985695,A,f,I,f,1942,3,1949.0,243253.89999985695,8035,WL,A,8.0
2,12.543999910354614,learn,47456.000089645386,Wed Sep 24 2025 16:44:35 GMT-0500 (Central Daylight Time),245269.89999985695,A,fl,I,l,55,3,2016.0,243253.89999985695,8035,WL,A,8.0
2,12.74399995803833,learn,47256.00004196167,Wed Sep 24 2025 16:44:35 GMT-0500 (Central Daylight Time),245470.09999990463,A,flo,I,o,181,3,2216.2000000476837,243253.89999985695,8035,WL,A,8.0
2,12.776000022888184,learn,47223.99997711182,Wed Sep 24 2025 16:44:35 GMT-0500 (Central Daylight Time),245501.59999990463,A,flow,I,w,12,3,2247.7000000476837,243253.89999985695,8035,WL,A,8.0
2,12.878000020980835,learn,47121.999979019165,Wed Sep 24 2025 16:44:35 GMT-0500 (Central Daylight Time),245603.70000004768,A,flowe,I,e,89,3,2349.800000190735,243253.89999985695,8035,WL,A,8.0
2,12.976999998092651,learn,47023.00000190735,Wed Sep 24 2025 16:44:35 GMT-0500 (Central Daylight Time),245702.79999995232,A,flower,I,r,87,3,2448.9000000953674,243253.89999985695,8035,WL,A,8.0
2,13.14299988746643,learn,46857.00011253357,Wed Sep 24 2025 16:44:35 GMT-0500 (Central Daylight Time),245869.0,A,flowerenter,I,enter,156,3,2615.100000143051,243253.89999985695,8035,WL,A,8.0
2,16.210999965667725,learn,43789.000034332275,Wed Sep 24 2025 16:44:35 GMT-0500 (Central Daylight Time),248936.70000004768,A,c,I,c,3047,3,3067.5,245869.20000004768,8035,WL,A,9.0
2,16.32699990272522,learn,43673.00009727478,Wed Sep 24 2025 16:44:35 GMT-0500 (Central Daylight Time),249053.29999995232,A,ch,I,h,109,3,3184.0999999046326,245869.20000004768,8035,WL,A,9.0
2,16.526000022888184,learn,43473.99997711182,Wed Sep 24 2025 16:44:35 GMT-0500 (Central Daylight Time),249252.0,A,chi,I,i,177,3,3382.7999999523163,245869.20000004768,8035,WL,A,9.0
2,16.743000030517578,learn,43256.99996948242,Wed Sep 24 2025 16:44:35 GMT-0500 (Central Daylight Time),249468.70000004768,A,chim,I,m,208,3,3599.5,245869.20000004768,8035,WL,A,9.0
2,17.47599983215332,learn,42524.00016784668,Wed Sep 24 2025 16:44:35 GMT-0500 (Central Daylight Time),250202.39999985695,A,chimn,I,n,716,3,4333.199999809265,245869.20000004768,8035,WL,A,9.0
2,17.592999935150146,learn,42407.00006484985,Wed Sep 24 2025 16:44:35 GMT-0500 (Central Daylight Time),250318.70000004768,A,chimne,I,e,96,3,4449.5,245869.20000004768,8035,WL,A,9.0
2,17.774999856948853,learn,42225.00014305115,Wed Sep 24 2025 16:44:35 GMT-0500 (Central Daylight Time),250501.29999995232,A,chimney,I,y,174,3,4632.099999904633,245869.20000004768,8035,WL,A,9.0
2,18.074999809265137,learn,41925.00019073486,Wed Sep 24 2025 16:44:35 GMT-0500 (Central Daylight Time),250800.59999990463,A,chimneyenter,I,enter,284,3,4931.399999856949,245869.20000004768,8035,WL,A,9.0
2,22.457000017166138,learn,37542.99998283386,Wed Sep 24 2025 16:44:35 GMT-0500 (Central Daylight Time),255183.20000004768,A,g,I,g,4372,3,4382.400000095367,250800.79999995232,8035,WL,A,10.0
2,22.5239999294281,learn,37476.0000705719,Wed Sep 24 2025 16:44:35 GMT-0500 (Central Daylight Time),255250.0,A,go,I,o,62,3,4449.200000047684,250800.79999995232,8035,WL,A,10.0
2,22.70799994468689,learn,37292.00005531311,Wed Sep 24 2025 16:44:35 GMT-0500 (Central Daylight Time),255434.5,A,gol,I,l,161,3,4633.700000047684,250800.79999995232,8035,WL,A,10.0
2,22.7739999294281,learn,37226.0000705719,Wed Sep 24 2025 16:44:35 GMT-0500 (Central Daylight Time),255499.79999995232,A,gold,I,d,57,3,4699.0,250800.79999995232,8035,WL,A,10.0
2,22.95799994468689,learn,37042.00005531311,Wed Sep 24 2025 16:44:35 GMT-0500 (Central Daylight Time),255684.20000004768,A,goldenter,I,enter,168,3,4883.400000095367,250800.79999995232,8035,WL,A,10.0
2,35.686999797821045,learn,24313.000202178955,Wed Sep 24 2025 16:44:35 GMT-0500 (Central Daylight Time),268412.7999999523,A,m,I,m,12714,3,12728.299999952316,255684.5,8035,WL,A,11.0
2,35.78699994087219,learn,24213.000059127808,Wed Sep 24 2025 16:44:35 GMT-0500 (Central Daylight Time),268512.89999985695,A,me,I,e,86,3,12828.399999856949,255684.5,8035,WL,A,11.0
2,35.919999837875366,learn,24080.000162124634,Wed Sep 24 2025 16:44:35 GMT-0500 (Central Daylight Time),268646.0,A,mea,I,a,122,3,12961.5,255684.5,8035,WL,A,11.0
2,36.1029999256134,learn,23897.000074386597,Wed Sep 24 2025 16:44:35 GMT-0500 (Central Daylight Time),268828.89999985695,A,mead,I,d,165,3,13144.399999856949,255684.5,8035,WL,A,11.0
2,36.25399994850159,learn,23746.000051498413,Wed Sep 24 2025 16:44:35 GMT-0500 (Central Daylight Time),268980.5,A,meado,I,o,134,3,13296.0,255684.5,8035,WL,A,11.0
2,36.3529999256134,learn,23647.000074386597,Wed Sep 24 2025 16:44:35 GMT-0500 (Central Daylight Time),269079.5,A,meadow,I,w,86,3,13395.0,255684.5,8035,WL,A,11.0
2,36.63599991798401,learn,23364.00008201599,Wed Sep 24 2025 16:44:35 GMT-0500 (Central Daylight Time),269362.39999985695,A,meadowenter,I,enter,276,3,13677.899999856949,255684.5,8035,WL,A,11.0
2,42.253000020980835,learn,17746.999979019165,Wed Sep 24 2025 16:44:35 GMT-0500 (Central Daylight Time),274978.7000000477,A,r,I,r,5612,3,5616.100000143051,269362.59999990463,8035,WL,A,12.0
2,42.41799998283386,learn,17582.000017166138,Wed Sep 24 2025 16:44:35 GMT-0500 (Central Daylight Time),275144.39999985695,A,ra,I,a,144,3,5781.799999952316,269362.59999990463,8035,WL,A,12.0
2,42.55199980735779,learn,17448.000192642212,Wed Sep 24 2025 16:44:35 GMT-0500 (Central Daylight Time),275278.2000000477,A,raf,I,f,123,3,5915.600000143051,269362.59999990463,8035,WL,A,12.0
2,42.73399996757507,learn,17266.000032424927,Wed Sep 24 2025 16:44:35 GMT-0500 (Central Daylight Time),275459.89999985695,A,raft,I,t,175,3,6097.299999952316,269362.59999990463,8035,WL,A,12.0
2,42.93499994277954,learn,17065.00005722046,Wed Sep 24 2025 16:44:35 GMT-0500 (Central Daylight Time),275660.7999999523,A,raftenter,I,enter,183,3,6298.200000047684,269362.59999990463,8035,WL,A,12.0
2,48.76600003242493,learn,11233.999967575073,Wed Sep 24 2025 16:44:35 GMT-0500 (Central Daylight Time),281492.2000000477,A,g,I,g,5810,3,5831.200000047684,275661.0,8035,WL,A,13.0
2,48.83200001716614,learn,11167.999982833862,Wed Sep 24 2025 16:44:35 GMT-0500 (Central Daylight Time),281557.7000000477,A,go,I,o,52,3,5896.700000047684,275661.0,8035,WL,A,13.0
2,48.98299980163574,learn,11017.000198364258,Wed Sep 24 2025 16:44:35 GMT-0500 (Central Daylight Time),281708.89999985695,A,gol,I,l,143,3,6047.899999856949,275661.0,8035,WL,A,13.0
2,49.08299994468689,learn,10917.00005531311,Wed Sep 24 2025 16:44:35 GMT-0500 (Central Daylight Time),281809.0,A,gold,I,d,87,3,6148.0,275661.0,8035,WL,A,13.0
2,49.198999881744385,learn,10801.000118255615,Wed Sep 24 2025 16:44:35 GMT-0500 (Central Daylight Time),281924.89999985695,A,goldenter,I,enter,97,3,6263.899999856949,275661.0,8035,WL,A,13.0
2,60.013999938964844,learn,-13.99993896484375,Wed Sep 24 2025 16:44:35 GMT-0500 (Central Daylight Time),292739.7999999523,A,None,I,None,10809,3,10814.599999904633,281925.2000000477,8035,WL,A,14.0
3,0.8669998645782471,learn,59133.00013542175,Wed Sep 24 2025 16:44:35 GMT-0500 (Central Daylight Time),358951.5,A,f,I,f,849,3,867.2999999523163,358084.2000000477,8035,WL,A,1.0
3,1.0160000324249268,learn,58983.99996757507,Wed Sep 24 2025 16:44:35 GMT-0500 (Central Daylight Time),359100.39999985695,A,fl,I,l,140,3,1016.1999998092651,358084.2000000477,8035,WL,A,1.0
3,1.2170000076293945,learn,58782.999992370605,Wed Sep 24 2025 16:44:35 GMT-0500 (Central Daylight Time),359300.5,A,flo,I,o,182,3,1216.2999999523163,358084.2000000477,8035,WL,A,1.0
3,1.2999999523162842,learn,58700.000047683716,Wed Sep 24 2025 16:44:35 GMT-0500 (Central Daylight Time),359383.7000000477,A,flow,I,w,68,3,1299.5,358084.2000000477,8035,WL,A,1.0
3,1.4159998893737793,learn,58584.00011062622,Wed Sep 24 2025 16:44:35 GMT-0500 (Central Daylight Time),359500.2999999523,A,flowe,I,e,107,3,1416.0999999046326,358084.2000000477,8035,WL,A,1.0
3,1.5490000247955322,learn,58450.99997520447,Wed Sep 24 2025 16:44:35 GMT-0500 (Central Daylight Time),359632.89999985695,A,flower,I,r,117,3,1548.6999998092651,358084.2000000477,8035,WL,A,1.0
3,1.7829999923706055,learn,58217.000007629395,Wed Sep 24 2025 16:44:35 GMT-0500 (Central Daylight Time),359866.89999985695,A,flowerenter,I,enter,230,3,1782.6999998092651,358084.2000000477,8035,WL,A,1.0
3,2.2330000400543213,learn,57766.99995994568,Wed Sep 24 2025 16:44:35 GMT-0500 (Central Daylight Time),360317.09999990463,A,b,I,b,442,3,450.0,359867.09999990463,8035,WL,A,2.0
3,2.3489999771118164,learn,57651.00002288818,Wed Sep 24 2025 16:44:35 GMT-0500 (Central Daylight Time),360432.7999999523,A,bo,I,o,95,3,565.7000000476837,359867.09999990463,8035,WL,A,2.0
3,2.499000072479248,learn,57500.99992752075,Wed Sep 24 2025 16:44:35 GMT-0500 (Central Daylight Time),360583.2999999523,A,boo,I,o,128,3,716.2000000476837,359867.09999990463,8035,WL,A,2.0
3,2.6670000553131104,learn,57332.99994468689,Wed Sep 24 2025 16:44:35 GMT-0500 (Central Daylight Time),360750.7000000477,A,book,I,k,148,3,883.6000001430511,359867.09999990463,8035,WL,A,2.0
3,2.947999954223633,learn,57052.00004577637,Wed Sep 24 2025 16:44:35 GMT-0500 (Central Daylight Time),361031.5,A,bookenter,I,enter,268,3,1164.4000000953674,359867.09999990463,8035,WL,A,2.0
3,3.5329999923706055,learn,56467.000007629395,Wed Sep 24 2025 16:44:35 GMT-0500 (Central Daylight Time),361617.09999990463,A,r,I,r,576,3,585.3999998569489,361031.7000000477,8035,WL,A,3.0
3,3.63100004196167,learn,56368.99995803833,Wed Sep 24 2025 16:44:35 GMT-0500 (Central Daylight Time),361714.7999999523,A,ru,I,u,90,3,683.0999999046326,361031.7000000477,8035,WL,A,3.0
3,3.799999952316284,learn,56200.000047683716,Wed Sep 24 2025 16:44:35 GMT-0500 (Central Daylight Time),361884.2999999523,A,rug,I,g,154,3,852.5999999046326,361031.7000000477,8035,WL,A,3.0
3,4.5309998989105225,learn,55469.00010108948,Wed Sep 24 2025 16:44:35 GMT-0500 (Central Daylight Time),362614.5,A,rugenter,I,enter,718,3,1582.7999999523163,361031.7000000477,8035,WL,A,3.0
3,8.264999866485596,learn,51735.000133514404,Wed Sep 24 2025 16:44:35 GMT-0500 (Central Daylight Time),366348.7999999523,A,m,I,m,3727,3,3733.9000000953674,362614.89999985695,8035,WL,A,4.0
3,8.398000001907349,learn,51601.99999809265,Wed Sep 24 2025 16:44:35 GMT-0500 (Central Daylight Time),366481.59999990463,A,me,I,e,118,3,3866.7000000476837,362614.89999985695,8035,WL,A,4.0
3,8.547999858856201,learn,51452.0001411438,Wed Sep 24 2025 16:44:35 GMT-0500 (Central Daylight Time),366632.2000000477,A,mea,I,a,129,3,4017.300000190735,362614.89999985695,8035,WL,A,4.0
3,8.69700002670288,learn,51302.99997329712,Wed Sep 24 2025 16:44:35 GMT-0500 (Central Daylight Time),366781.0,A,mead,I,d,137,3,4166.100000143051,362614.89999985695,8035,WL,A,4.0
3,8.897000074386597,learn,51102.9999256134,Wed Sep 24 2025 16:44:35 GMT-0500 (Central Daylight Time),366980.7000000477,A,meado,I,o,181,3,4365.800000190735,362614.89999985695,8035,WL,A,4.0
3,9.063999891281128,learn,50936.00010871887,Wed Sep 24 2025 16:44:35 GMT-0500 (Central Daylight Time),367147.89999985695,A,meadow,I,w,149,3,4533.0,362614.89999985695,8035,WL,A,4.0
3,9.496000051498413,learn,50503.99994850159,Wed Sep 24 2025 16:44:35 GMT-0500 (Central Daylight Time),367579.7999999523,A,meadowenter,I,enter,413,3,4964.900000095367,362614.89999985695,8035,WL,A,4.0
3,9.898000001907349,learn,50101.99999809265,Wed Sep 24 2025 16:44:35 GMT-0500 (Central Daylight Time),367982.09999990463,A,r,I,r,380,3,402.0,367580.09999990463,8035,WL,A,5.0
3,10.013999938964844,learn,49986.000061035156,Wed Sep 24 2025 16:44:35 GMT-0500 (Central Daylight Time),368097.89999985695,A,ra,I,a,102,3,517.7999999523163,367580.09999990463,8035,WL,A,5.0
3,10.162999868392944,learn,49837.000131607056,Wed Sep 24 2025 16:44:35 GMT-0500 (Central Daylight Time),368246.89999985695,A,rat,I,t,137,3,666.7999999523163,367580.09999990463,8035,WL,A,5.0
3,10.346999883651733,learn,49653.00011634827,Wed Sep 24 2025 16:44:35 GMT-0500 (Central Daylight Time),368431.2000000477,A,ratt,I,t,170,3,851.1000001430511,367580.09999990463,8035,WL,A,5.0
3,10.480999946594238,learn,49519.00005340576,Wed Sep 24 2025 16:44:35 GMT-0500 (Central Daylight Time),368564.89999985695,A,rattl,I,l,125,3,984.7999999523163,367580.09999990463,8035,WL,A,5.0
3,10.664999961853027,learn,49335.00003814697,Wed Sep 24 2025 16:44:35 GMT-0500 (Central Daylight Time),368748.7999999523,A,rattle,I,e,163,3,1168.7000000476837,367580.09999990463,8035,WL,A,5.0
3,10.980000019073486,learn,49019.999980926514,Wed Sep 24 2025 16:44:35 GMT-0500 (Central Daylight Time),369064.0,A,rattleenter,I,enter,293,3,1483.9000000953674,367580.09999990463,8035,WL,A,5.0
3,11.246000051498413,learn,48753.99994850159,Wed Sep 24 2025 16:44:35 GMT-0500 (Central Daylight Time),369330.2999999523,A,g,I,g,252,3,266.09999990463257,369064.2000000477,8035,WL,A,6.0
3,11.346999883651733,learn,48653.00011634827,Wed Sep 24 2025 16:44:35 GMT-0500 (Central Daylight Time),369430.5,A,go,I,o,86,3,366.2999999523163,369064.2000000477,8035,WL,A,6.0
3,11.52999997138977,learn,48470.00002861023,Wed Sep 24 2025 16:44:35 GMT-0500 (Central Daylight Time),369613.5,A,gol,I,l,165,3,549.2999999523163,369064.2000000477,8035,WL,A,6.0
3,11.631999969482422,learn,48368.00003051758,Wed Sep 24 2025 16:44:35 GMT-0500 (Central Daylight Time),369715.7000000477,A,gold,I,d,95,3,651.5,369064.2000000477,8035,WL,A,6.0
3,11.829999923706055,learn,48170.000076293945,Wed Sep 24 2025 16:44:35 GMT-0500 (Central Daylight Time),369913.89999985695,A,goldenter,I,enter,184,3,849.6999998092651,369064.2000000477,8035,WL,A,6.0
3,13.578999996185303,learn,46421.0000038147,Wed Sep 24 2025 16:44:35 GMT-0500 (Central Daylight Time),371663.39999985695,A,f,I,f,1730,3,1749.1999998092651,369914.2000000477,8035,WL,A,7.0
3,13.69700002670288,learn,46302.99997329712,Wed Sep 24 2025 16:44:35 GMT-0500 (Central Daylight Time),371780.59999990463,A,fi,I,i,100,3,1866.3999998569489,369914.2000000477,8035,WL,A,7.0
3,13.796000003814697,learn,46203.9999961853,Wed Sep 24 2025 16:44:35 GMT-0500 (Central Daylight Time),371880.09999990463,A,fin,I,n,78,3,1965.8999998569489,369914.2000000477,8035,WL,A,7.0
3,13.878999948501587,learn,46121.00005149841,Wed Sep 24 2025 16:44:35 GMT-0500 (Central Daylight Time),371963.2000000477,A,fing,I,g,66,3,2049.0,369914.2000000477,8035,WL,A,7.0
3,14.02999997138977,learn,45970.00002861023,Wed Sep 24 2025 16:44:35 GMT-0500 (Central Daylight Time),372113.39999985695,A,finge,I,e,135,3,2199.199999809265,369914.2000000477,8035,WL,A,7.0
3,14.111999988555908,learn,45888.00001144409,Wed Sep 24 2025 16:44:35 GMT-0500 (Central Daylight Time),372196.2999999523,A,finger,I,r,66,3,2282.0999999046326,369914.2000000477,8035,WL,A,7.0
3,14.494999885559082,learn,45505.00011444092,Wed Sep 24 2025 16:44:35 GMT-0500 (Central Daylight Time),372579.09999990463,A,fingerenter,I,enter,366,3,2664.899999856949,369914.2000000477,8035,WL,A,7.0
3,15.010999917984009,learn,44989.00008201599,Wed Sep 24 2025 16:44:35 GMT-0500 (Central Daylight Time),373095.2999999523,A,g,I,g,504,3,515.9000000953674,372579.39999985695,8035,WL,A,8.0
3,15.07699990272522,learn,44923.00009727478,Wed Sep 24 2025 16:44:35 GMT-0500 (Central Daylight Time),373160.89999985695,A,go,I,o,62,3,581.5,372579.39999985695,8035,WL,A,8.0
3,15.246000051498413,learn,44753.99994850159,Wed Sep 24 2025 16:44:35 GMT-0500 (Central Daylight Time),373329.59999990463,A,gol,I,l,157,3,750.2000000476837,372579.39999985695,8035,WL,A,8.0
3,15.378999948501587,learn,44621.00005149841,Wed Sep 24 2025 16:44:35 GMT-0500 (Central Daylight Time),373462.7000000477,A,gold,I,d,121,3,883.3000001907349,372579.39999985695,8035,WL,A,8.0
3,15.59500002861023,learn,44404.99997138977,Wed Sep 24 2025 16:44:35 GMT-0500 (Central Daylight Time),373679.2000000477,A,goldenter,I,enter,203,3,1099.8000001907349,372579.39999985695,8035,WL,A,8.0
3,20.277999877929688,learn,39722.00012207031,Wed Sep 24 2025 16:44:35 GMT-0500 (Central Daylight Time),378361.39999985695,A,r,I,r,4662,3,4681.799999952316,373679.59999990463,8035,WL,A,9.0
3,20.361999988555908,learn,39638.00001144409,Wed Sep 24 2025 16:44:35 GMT-0500 (Central Daylight Time),378445.7000000477,A,ru,I,u,77,3,4766.100000143051,373679.59999990463,8035,WL,A,9.0
3,20.494999885559082,learn,39505.00011444092,Wed Sep 24 2025 16:44:35 GMT-0500 (Central Daylight Time),378578.59999990463,A,rug,I,g,128,3,4899.0,373679.59999990463,8035,WL,A,9.0
3,20.759999990463257,learn,39240.00000953674,Wed Sep 24 2025 16:44:35 GMT-0500 (Central Daylight Time),378844.2000000477,A,rugenter,I,enter,260,3,5164.600000143051,373679.59999990463,8035,WL,A,9.0
3,26.3439998626709,learn,33656.0001373291,Wed Sep 24 2025 16:44:35 GMT-0500 (Central Daylight Time),384427.59999990463,A,c,I,c,5578,3,5583.200000047684,378844.39999985695,8035,WL,A,10.0
3,26.509000062942505,learn,33490.999937057495,Wed Sep 24 2025 16:44:35 GMT-0500 (Central Daylight Time),384593.39999985695,A,ch,I,h,152,3,5749.0,378844.39999985695,8035,WL,A,10.0
3,26.664000034332275,learn,33335.999965667725,Wed Sep 24 2025 16:44:35 GMT-0500 (Central Daylight Time),384747.59999990463,A,chi,I,i,149,3,5903.200000047684,378844.39999985695,8035,WL,A,10.0
3,26.808000087738037,learn,33191.99991226196,Wed Sep 24 2025 16:44:35 GMT-0500 (Central Daylight Time),384891.59999990463,A,chim,I,m,140,3,6047.200000047684,378844.39999985695,8035,WL,A,10.0
3,27.524999856948853,learn,32475.000143051147,Wed Sep 24 2025 16:44:35 GMT-0500 (Central Daylight Time),385609.2999999523,A,chimn,I,n,703,3,6764.900000095367,378844.39999985695,8035,WL,A,10.0
3,27.693000078201294,learn,32306.999921798706,Wed Sep 24 2025 16:44:35 GMT-0500 (Central Daylight Time),385776.5,A,chimne,I,e,147,3,6932.100000143051,378844.39999985695,8035,WL,A,10.0
3,27.842000007629395,learn,32157.999992370605,Wed Sep 24 2025 16:44:35 GMT-0500 (Central Daylight Time),385925.7000000477,A,chimney,I,y,140,3,7081.300000190735,378844.39999985695,8035,WL,A,10.0
3,28.122999906539917,learn,31877.000093460083,Wed Sep 24 2025 16:44:35 GMT-0500 (Central Daylight Time),386206.89999985695,A,chimneyenter,I,enter,258,3,7362.5,378844.39999985695,8035,WL,A,10.0
3,32.9229998588562,learn,27077.0001411438,Wed Sep 24 2025 16:44:35 GMT-0500 (Central Daylight Time),391006.7000000477,A,s,I,s,4784,3,4799.700000047684,386207.0,8035,WL,A,11.0
3,33.00600004196167,learn,26993.99995803833,Wed Sep 24 2025 16:44:35 GMT-0500 (Central Daylight Time),391090.2999999523,A,sa,I,a,69,3,4883.299999952316,386207.0,8035,WL,A,11.0
3,33.105000019073486,learn,26894.999980926514,Wed Sep 24 2025 16:44:35 GMT-0500 (Central Daylight Time),391189.2999999523,A,sal,I,l,81,3,4982.299999952316,386207.0,8035,WL,A,11.0
3,33.22499990463257,learn,26775.00009536743,Wed Sep 24 2025 16:44:35 GMT-0500 (Central Daylight Time),391308.89999985695,A,salt,I,t,114,3,5101.899999856949,386207.0,8035,WL,A,11.0
3,33.39100003242493,learn,26608.999967575073,Wed Sep 24 2025 16:44:35 GMT-0500 (Central Daylight Time),391474.39999985695,A,saltenter,I,enter,149,3,5267.399999856949,386207.0,8035,WL,A,11.0
3,60.014999866485596,learn,-14.999866485595703,Wed Sep 24 2025 16:44:35 GMT-0500 (Central Daylight Time),418099.39999985695,A,None,I,None,26620,3,26624.699999809265,391474.7000000477,8035,WL,A,12.0
4,1.5810000896453857,learn,58418.999910354614,Wed Sep 24 2025 16:44:35 GMT-0500 (Central Daylight Time),485009.89999985695,A,b,I,b,1559,3,1581.0,483428.89999985695,8035,WL,A,1.0
4,1.7330000400543213,learn,58266.99995994568,Wed Sep 24 2025 16:44:35 GMT-0500 (Central Daylight Time),485161.5,A,bo,I,o,136,3,1732.6000001430511,483428.89999985695,8035,WL,A,1.0
4,1.8989999294281006,learn,58101.0000705719,Wed Sep 24 2025 16:44:35 GMT-0500 (Central Daylight Time),485327.5,A,boo,I,o,146,3,1898.6000001430511,483428.89999985695,8035,WL,A,1.0
4,2.0820000171661377,learn,57917.99998283386,Wed Sep 24 2025 16:44:35 GMT-0500 (Central Daylight Time),485510.7000000477,A,book,I,k,163,3,2081.800000190735,483428.89999985695,8035,WL,A,1.0
4,2.5980000495910645,learn,57401.999950408936,Wed Sep 24 2025 16:44:35 GMT-0500 (Central Daylight Time),486026.2000000477,A,bookenter,I,enter,498,3,2597.300000190735,483428.89999985695,8035,WL,A,1.0
4,2.931999921798706,learn,57068.000078201294,Wed Sep 24 2025 16:44:35 GMT-0500 (Central Daylight Time),486361.2000000477,A,f,I,f,314,3,334.60000014305115,486026.59999990463,8035,WL,A,2.0
4,3.015000104904175,learn,56984.999895095825,Wed Sep 24 2025 16:44:35 GMT-0500 (Central Daylight Time),486443.89999985695,A,fl,I,l,64,3,417.2999999523163,486026.59999990463,8035,WL,A,2.0
4,3.2150001525878906,learn,56784.99984741211,Wed Sep 24 2025 16:44:35 GMT-0500 (Central Daylight Time),486643.7999999523,A,flo,I,o,193,3,617.2000000476837,486026.59999990463,8035,WL,A,2.0
4,3.315000057220459,learn,56684.99994277954,Wed Sep 24 2025 16:44:35 GMT-0500 (Central Daylight Time),486743.7000000477,A,flow,I,w,79,3,717.1000001430511,486026.59999990463,8035,WL,A,2.0
4,3.4140000343322754,learn,56585.999965667725,Wed Sep 24 2025 16:44:35 GMT-0500 (Central Daylight Time),486842.39999985695,A,flowe,I,e,83,3,815.7999999523163,486026.59999990463,8035,WL,A,2.0
4,3.5480000972747803,learn,56451.99990272522,Wed Sep 24 2025 16:44:35 GMT-0500 (Central Daylight Time),486976.59999990463,A,flower,I,r,118,3,950.0,486026.59999990463,8035,WL,A,2.0
4,3.931999921798706,learn,56068.000078201294,Wed Sep 24 2025 16:44:35 GMT-0500 (Central Daylight Time),487360.2999999523,A,flowerenter,I,enter,372,3,1333.7000000476837,486026.59999990463,8035,WL,A,2.0
4,4.733000040054321,learn,55266.99995994568,Wed Sep 24 2025 16:44:35 GMT-0500 (Central Daylight Time),488162.2999999523,A,t,I,t,797,3,801.7000000476837,487360.59999990463,8035,WL,A,3.0
4,4.965000152587891,learn,55034.99984741211,Wed Sep 24 2025 16:44:35 GMT-0500 (Central Daylight Time),488393.59999990463,A,tr,I,r,227,3,1033.0,487360.59999990463,8035,WL,A,3.0
4,5.13100004196167,learn,54868.99995803833,Wed Sep 24 2025 16:44:35 GMT-0500 (Central Daylight Time),488559.39999985695,A,tra,I,a,152,3,1198.7999999523163,487360.59999990463,8035,WL,A,3.0
4,5.329999923706055,learn,54670.000076293945,Wed Sep 24 2025 16:44:35 GMT-0500 (Central Daylight Time),488758.89999985695,A,trai,I,i,178,3,1398.2999999523163,487360.59999990463,8035,WL,A,3.0
4,5.531000137329102,learn,54468.9998626709,Wed Sep 24 2025 16:44:35 GMT-0500 (Central Daylight Time),488959.2999999523,A,train,I,n,181,3,1598.7000000476837,487360.59999990463,8035,WL,A,3.0
4,6.064000129699707,learn,53935.99987030029,Wed Sep 24 2025 16:44:35 GMT-0500 (Central Daylight Time),489492.39999985695,A,trainenter,I,enter,526,3,2131.7999999523163,487360.59999990463,8035,WL,A,3.0
4,7.430999994277954,learn,52569.000005722046,Wed Sep 24 2025 16:44:35 GMT-0500 (Central Daylight Time),490859.2999999523,A,m,I,m,1361,3,1366.5999999046326,489492.7000000477,8035,WL,A,4.0
4,7.562999963760376,learn,52437.000036239624,Wed Sep 24 2025 16:44:35 GMT-0500 (Central Daylight Time),490991.59999990463,A,me,I,e,111,3,1498.8999998569489,489492.7000000477,8035,WL,A,4.0
4,7.646000146865845,learn,52353.999853134155,Wed Sep 24 2025 16:44:35 GMT-0500 (Central Daylight Time),491074.2999999523,A,mea,I,a,76,3,1581.5999999046326,489492.7000000477,8035,WL,A,4.0
4,7.8459999561309814,learn,52154.00004386902,Wed Sep 24 2025 16:44:35 GMT-0500 (Central Daylight Time),491274.39999985695,A,mead,I,d,193,3,1781.6999998092651,489492.7000000477,8035,WL,A,4.0
4,7.962000131607056,learn,52037.999868392944,Wed Sep 24 2025 16:44:35 GMT-0500 (Central Daylight Time),491391.2000000477,A,meado,I,o,93,3,1898.5,489492.7000000477,8035,WL,A,4.0
4,8.11299991607666,learn,51887.00008392334,Wed Sep 24 2025 16:44:35 GMT-0500 (Central Daylight Time),491541.7999999523,A,meadow,I,w,140,3,2049.0999999046326,489492.7000000477,8035,WL,A,4.0
4,8.51200008392334,learn,51487.99991607666,Wed Sep 24 2025 16:44:35 GMT-0500 (Central Daylight Time),491941.2000000477,A,meadowenter,I,enter,388,3,2448.5,489492.7000000477,8035,WL,A,4.0
4,8.913000106811523,learn,51086.99989318848,Wed Sep 24 2025 16:44:35 GMT-0500 (Central Daylight Time),492342.0,A,r,I,r,392,3,400.5,491941.5,8035,WL,A,5.0
4,9.02999997138977,learn,50970.00002861023,Wed Sep 24 2025 16:44:35 GMT-0500 (Central Daylight Time),492458.89999985695,A,ru,I,u,109,3,517.3999998569489,491941.5,8035,WL,A,5.0
4,9.213000059127808,learn,50786.99994087219,Wed Sep 24 2025 16:44:35 GMT-0500 (Central Daylight Time),492642.09999990463,A,rug,I,g,169,3,700.5999999046326,491941.5,8035,WL,A,5.0
4,9.529000043869019,learn,50470.99995613098,Wed Sep 24 2025 16:44:35 GMT-0500 (Central Daylight Time),492957.59999990463,A,rugenter,I,enter,296,3,1016.0999999046326,491941.5,8035,WL,A,5.0
4,11.646000146865845,learn,48353.999853134155,Wed Sep 24 2025 16:44:35 GMT-0500 (Central Daylight Time),495074.5,A,s,I,s,2112,3,2116.7000000476837,492957.7999999523,8035,WL,A,6.0
4,11.962000131607056,learn,48037.999868392944,Wed Sep 24 2025 16:44:35 GMT-0500 (Central Daylight Time),495390.89999985695,A,sa,I,a,297,3,2433.0999999046326,492957.7999999523,8035,WL,A,6.0
4,12.246000051498413,learn,47753.99994850159,Wed Sep 24 2025 16:44:35 GMT-0500 (Central Daylight Time),495675.09999990463,A,sal,I,l,261,3,2717.2999999523163,492957.7999999523,8035,WL,A,6.0
4,12.477999925613403,learn,47522.0000743866,Wed Sep 24 2025 16:44:35 GMT-0500 (Central Daylight Time),495906.7999999523,A,salt,I,t,217,3,2949.0,492957.7999999523,8035,WL,A,6.0
4,13.59500002861023,learn,46404.99997138977,Wed Sep 24 2025 16:44:35 GMT-0500 (Central Daylight Time),497023.89999985695,A,saltenter,I,enter,1106,3,4066.0999999046326,492957.7999999523,8035,WL,A,6.0
4,15.344000101089478,learn,44655.99989891052,Wed Sep 24 2025 16:44:35 GMT-0500 (Central Daylight Time),498772.5,A,a,I,a,1732,3,1748.2999999523163,497024.2000000477,8035,WL,A,7.0
4,15.477999925613403,learn,44522.0000743866,Wed Sep 24 2025 16:44:35 GMT-0500 (Central Daylight Time),498907.09999990463,A,ap,I,p,119,3,1882.8999998569489,497024.2000000477,8035,WL,A,7.0
4,15.610000133514404,learn,44389.999866485596,Wed Sep 24 2025 16:44:35 GMT-0500 (Central Daylight Time),499039.0,A,app,I,p,118,3,2014.7999999523163,497024.2000000477,8035,WL,A,7.0
4,15.811000108718872,learn,44188.99989128113,Wed Sep 24 2025 16:44:35 GMT-0500 (Central Daylight Time),499239.59999990463,A,appl,I,l,189,3,2215.399999856949,497024.2000000477,8035,WL,A,7.0
4,15.92799997329712,learn,44072.00002670288,Wed Sep 24 2025 16:44:35 GMT-0500 (Central Daylight Time),499356.39999985695,A,apple,I,e,111,3,2332.199999809265,497024.2000000477,8035,WL,A,7.0
4,16.110000133514404,learn,43889.999866485596,Wed Sep 24 2025 16:44:35 GMT-0500 (Central Daylight Time),499539.2000000477,A,appleenter,I,enter,168,3,2515.0,497024.2000000477,8035,WL,A,7.0
4,16.727999925613403,learn,43272.0000743866,Wed Sep 24 2025 16:44:35 GMT-0500 (Central Daylight Time),500156.5,A,h,I,h,602,3,617.0,499539.5,8035,WL,A,8.0
4,16.860000133514404,learn,43139.999866485596,Wed Sep 24 2025 16:44:35 GMT-0500 (Central Daylight Time),500289.0,A,ha,I,a,119,3,749.5,499539.5,8035,WL,A,8.0
4,17.042999982833862,learn,42957.00001716614,Wed Sep 24 2025 16:44:35 GMT-0500 (Central Daylight Time),500471.7999999523,A,har,I,r,171,3,932.2999999523163,499539.5,8035,WL,A,8.0
4,17.311000108718872,learn,42688.99989128113,Wed Sep 24 2025 16:44:35 GMT-0500 (Central Daylight Time),500739.89999985695,A,harp,I,p,263,3,1200.3999998569489,499539.5,8035,WL,A,8.0
4,17.91000008583069,learn,42089.99991416931,Wed Sep 24 2025 16:44:35 GMT-0500 (Central Daylight Time),501339.09999990463,A,harpenter,I,enter,592,3,1799.5999999046326,499539.5,8035,WL,A,8.0
4,23.125999927520752,learn,36874.00007247925,Wed Sep 24 2025 16:44:35 GMT-0500 (Central Daylight Time),506554.2999999523,A,f,I,f,5194,3,5215.0,501339.2999999523,8035,WL,A,9.0
4,23.256999969482422,learn,36743.00003051758,Wed Sep 24 2025 16:44:35 GMT-0500 (Central Daylight Time),506686.09999990463,A,fi,I,i,122,3,5346.799999952316,501339.2999999523,8035,WL,A,9.0
4,23.341000080108643,learn,36658.99991989136,Wed Sep 24 2025 16:44:35 GMT-0500 (Central Daylight Time),506769.7999999523,A,fin,I,n,78,3,5430.5,501339.2999999523,8035,WL,A,9.0
4,23.475000143051147,learn,36524.99985694885,Wed Sep 24 2025 16:44:35 GMT-0500 (Central Daylight Time),506903.59999990463,A,fing,I,g,123,3,5564.299999952316,501339.2999999523,8035,WL,A,9.0
4,23.64199995994568,learn,36358.00004005432,Wed Sep 24 2025 16:44:35 GMT-0500 (Central Daylight Time),507070.7999999523,A,finge,I,e,157,3,5731.5,501339.2999999523,8035,WL,A,9.0
4,23.7260000705719,learn,36273.9999294281,Wed Sep 24 2025 16:44:35 GMT-0500 (Central Daylight Time),507154.2999999523,A,finger,I,r,79,3,5815.0,501339.2999999523,8035,WL,A,9.0
4,24.157999992370605,learn,35842.000007629395,Wed Sep 24 2025 16:44:35 GMT-0500 (Central Daylight Time),507586.59999990463,A,fingerenter,I,enter,425,3,6247.299999952316,501339.2999999523,8035,WL,A,9.0
4,26.358999967575073,learn,33641.00003242493,Wed Sep 24 2025 16:44:35 GMT-0500 (Central Daylight Time),509787.5,A,r,I,r,2196,3,2200.600000143051,507586.89999985695,8035,WL,A,10.0
4,26.5239999294281,learn,33476.0000705719,Wed Sep 24 2025 16:44:35 GMT-0500 (Central Daylight Time),509952.39999985695,A,ra,I,a,153,3,2365.5,507586.89999985695,8035,WL,A,10.0
4,26.69000005722046,learn,33309.99994277954,Wed Sep 24 2025 16:44:35 GMT-0500 (Central Daylight Time),510119.2000000477,A,rat,I,t,156,3,2532.300000190735,507586.89999985695,8035,WL,A,10.0
4,26.85700011253357,learn,33142.99988746643,Wed Sep 24 2025 16:44:35 GMT-0500 (Central Daylight Time),510285.7000000477,A,ratt,I,t,157,3,2698.800000190735,507586.89999985695,8035,WL,A,10.0
4,27.058000087738037,learn,32941.99991226196,Wed Sep 24 2025 16:44:35 GMT-0500 (Central Daylight Time),510487.2000000477,A,rattl,I,l,190,3,2900.300000190735,507586.89999985695,8035,WL,A,10.0
4,27.207000017166138,learn,32792.99998283386,Wed Sep 24 2025 16:44:35 GMT-0500 (Central Daylight Time),510636.09999990463,A,rattle,I,e,133,3,3049.2000000476837,507586.89999985695,8035,WL,A,10.0
4,30.07200002670288,learn,29927.99997329712,Wed Sep 24 2025 16:44:35 GMT-0500 (Central Daylight Time),513500.7999999523,A,rattleenter,I,enter,2860,3,5913.900000095367,507586.89999985695,8035,WL,A,10.0
4,30.407000064849854,learn,29592.999935150146,Wed Sep 24 2025 16:44:35 GMT-0500 (Central Daylight Time),513836.2000000477,A,g,I,g,330,3,335.2000000476837,513501.0,8035,WL,A,11.0
4,30.47099995613098,learn,29529.00004386902,Wed Sep 24 2025 16:44:35 GMT-0500 (Central Daylight Time),513900.2000000477,A,go,I,o,55,3,399.2000000476837,513501.0,8035,WL,A,11.0
4,30.6560001373291,learn,29343.9998626709,Wed Sep 24 2025 16:44:35 GMT-0500 (Central Daylight Time),514084.39999985695,A,gol,I,l,169,3,583.3999998569489,513501.0,8035,WL,A,11.0
4,30.789000034332275,learn,29210.999965667725,Wed Sep 24 2025 16:44:35 GMT-0500 (Central Daylight Time),514217.7000000477,A,gold,I,d,120,3,716.7000000476837,513501.0,8035,WL,A,11.0
4,31.27300000190735,learn,28726.99999809265,Wed Sep 24 2025 16:44:35 GMT-0500 (Central Daylight Time),514701.2999999523,A,goldenter,I,enter,477,3,1200.2999999523163,513501.0,8035,WL,A,11.0
4,37.82100009918213,learn,22178.99990081787,Wed Sep 24 2025 16:44:35 GMT-0500 (Central Daylight Time),521249.7000000477,A,h,I,h,6536,3,6548.200000047684,514701.5,8035,WL,A,12.0
4,38.53699994087219,learn,21463.000059127808,Wed Sep 24 2025 16:44:35 GMT-0500 (Central Daylight Time),521965.7000000477,A,,I,backspace,710,3,7264.200000047684,514701.5,8035,WL,A,12.0
4,47.33400011062622,learn,12665.99988937378,Wed Sep 24 2025 16:44:35 GMT-0500 (Central Daylight Time),530763.0,A,m,I,m,8784,3,16061.5,514701.5,8035,WL,A,12.0
4,47.51699995994568,learn,12483.000040054321,Wed Sep 24 2025 16:44:35 GMT-0500 (Central Daylight Time),530946.2000000477,A,me,I,e,169,3,16244.700000047684,514701.5,8035,WL,A,12.0
4,47.967000007629395,learn,12032.999992370605,Wed Sep 24 2025 16:44:35 GMT-0500 (Central Daylight Time),531395.7999999523,A,mea,I,a,427,3,16694.299999952316,514701.5,8035,WL,A,12.0
4,48.3510000705719,learn,11648.9999294281,Wed Sep 24 2025 16:44:35 GMT-0500 (Central Daylight Time),531780.2000000477,A,mead,I,d,378,3,17078.700000047684,514701.5,8035,WL,A,12.0
4,48.78399991989136,learn,11216.000080108643,Wed Sep 24 2025 16:44:35 GMT-0500 (Central Daylight Time),532212.899999857,A,meado,I,o,416,3,17511.39999985695,514701.5,8035,WL,A,12.0
4,48.95099997520447,learn,11049.000024795532,Wed Sep 24 2025 16:44:35 GMT-0500 (Central Daylight Time),532379.399999857,A,meadow,I,w,152,3,17677.89999985695,514701.5,8035,WL,A,12.0
4,49.33400011062622,learn,10665.99988937378,Wed Sep 24 2025 16:44:35 GMT-0500 (Central Daylight Time),532762.2999999523,A,meadowenter,I,enter,376,3,18060.799999952316,514701.5,8035,WL,A,12.0
4,54.48200011253357,learn,5517.999887466431,Wed Sep 24 2025 16:44:35 GMT-0500 (Central Daylight Time),537911.7000000477,A,a,I,a,5140,3,5149.100000143051,532762.5999999046,8035,WL,A,13.0
4,54.61400008201599,learn,5385.999917984009,Wed Sep 24 2025 16:44:35 GMT-0500 (Central Daylight Time),538043.2999999523,A,ap,I,p,115,3,5280.700000047684,532762.5999999046,8035,WL,A,13.0
4,54.763999938964844,learn,5236.000061035156,Wed Sep 24 2025 16:44:35 GMT-0500 (Central Daylight Time),538194.0999999046,A,app,I,p,138,3,5431.5,532762.5999999046,8035,WL,A,13.0
4,54.94799995422363,learn,5052.000045776367,Wed Sep 24 2025 16:44:35 GMT-0500 (Central Daylight Time),538377.5,A,appl,I,l,162,3,5614.900000095367,532762.5999999046,8035,WL,A,13.0
4,55.09599995613098,learn,4904.000043869019,Wed Sep 24 2025 16:44:35 GMT-0500 (Central Daylight Time),538525.399999857,A,apple,I,e,129,3,5762.799999952316,532762.5999999046,8035,WL,A,13.0
4,55.263999938964844,learn,4736.000061035156,Wed Sep 24 2025 16:44:35 GMT-0500 (Central Daylight Time),538693.5,A,appleenter,I,enter,159,3,5930.900000095367,532762.5999999046,8035,WL,A,13.0
4,60.013999938964844,learn,-13.99993896484375,Wed Sep 24 2025 16:44:35 GMT-0500 (Central Daylight Time),543443.2999999523,A,None,I,None,4745,3,4749.599999904633,538693.7000000477,8035,WL,A,14.0
5,0.8680000305175781,learn,60000.0,Wed Sep 24 2025 16:44:35 GMT-0500 (Central Daylight Time),611020.899999857,A,g,I,g,861,3,867.3999998569489,610153.5,8035,WL,A,1.0
5,0.9839999675750732,learn,60000.0,Wed Sep 24 2025 16:44:35 GMT-0500 (Central Daylight Time),611136.399999857,A,go,I,o,96,3,982.8999998569489,610153.5,8035,WL,A,1.0
5,1.1349999904632568,learn,60000.0,Wed Sep 24 2025 16:44:35 GMT-0500 (Central Daylight Time),611287.2000000477,A,gol,I,l,131,3,1133.7000000476837,610153.5,8035,WL,A,1.0
5,1.250999927520752,learn,60000.0,Wed Sep 24 2025 16:44:35 GMT-0500 (Central Daylight Time),611403.399999857,A,gold,I,d,100,3,1249.8999998569489,610153.5,8035,WL,A,1.0
5,1.4179999828338623,learn,60000.0,Wed Sep 24 2025 16:44:35 GMT-0500 (Central Daylight Time),611570.7000000477,A,goldenter,I,enter,145,3,1417.2000000476837,610153.5,8035,WL,A,1.0
5,1.6519999504089355,learn,60000.0,Wed Sep 24 2025 16:44:35 GMT-0500 (Central Daylight Time),611805.0999999046,A,r,I,r,220,3,234.09999990463257,611571.0,8035,WL,A,2.0
5,1.801999807357788,learn,60000.0,Wed Sep 24 2025 16:44:35 GMT-0500 (Central Daylight Time),611954.0999999046,A,ra,I,a,133,3,383.09999990463257,611571.0,8035,WL,A,2.0
5,1.9499998092651367,learn,60000.0,Wed Sep 24 2025 16:44:35 GMT-0500 (Central Daylight Time),612103.0999999046,A,rat,I,t,136,3,532.0999999046326,611571.0,8035,WL,A,2.0
5,2.066999912261963,learn,60000.0,Wed Sep 24 2025 16:44:35 GMT-0500 (Central Daylight Time),612220.0,A,ratt,I,t,111,3,649.0,611571.0,8035,WL,A,2.0
5,2.317999839782715,learn,60000.0,Wed Sep 24 2025 16:44:35 GMT-0500 (Central Daylight Time),612470.2999999523,A,rattl,I,l,244,3,899.2999999523163,611571.0,8035,WL,A,2.0
5,2.500999927520752,learn,60000.0,Wed Sep 24 2025 16:44:35 GMT-0500 (Central Daylight Time),612653.399999857,A,rattle,I,e,161,3,1082.3999998569489,611571.0,8035,WL,A,2.0
5,3.0,learn,60000.0,Wed Sep 24 2025 16:44:35 GMT-0500 (Central Daylight Time),613152.0999999046,A,rattleenter,I,enter,486,3,1581.0999999046326,611571.0,8035,WL,A,2.0
5,4.597999811172485,learn,60000.0,Wed Sep 24 2025 16:44:35 GMT-0500 (Central Daylight Time),614750.399999857,A,k,I,k,1588,3,1598.0,613152.399999857,8035,WL,A,3.0
5,4.733999967575073,learn,60000.0,Wed Sep 24 2025 16:44:35 GMT-0500 (Central Daylight Time),614886.2999999523,A,ke,I,e,119,3,1733.9000000953674,613152.399999857,8035,WL,A,3.0
5,4.866999864578247,learn,60000.0,Wed Sep 24 2025 16:44:35 GMT-0500 (Central Daylight Time),615019.399999857,A,key,I,y,119,3,1867.0,613152.399999857,8035,WL,A,3.0
5,5.165999889373779,learn,60000.0,Wed Sep 24 2025 16:44:35 GMT-0500 (Central Daylight Time),615318.899999857,A,keyenter,I,enter,288,3,2166.5,613152.399999857,8035,WL,A,3.0
5,6.665999889373779,learn,60000.0,Wed Sep 24 2025 16:44:35 GMT-0500 (Central Daylight Time),616818.5999999046,A,c,I,c,1494,3,1499.3999998569489,615319.2000000477,8035,WL,A,4.0
5,6.815999984741211,learn,60000.0,Wed Sep 24 2025 16:44:35 GMT-0500 (Central Daylight Time),616968.7000000477,A,ch,I,h,130,3,1649.5,615319.2000000477,8035,WL,A,4.0
5,6.9659998416900635,learn,60000.0,Wed Sep 24 2025 16:44:35 GMT-0500 (Central Daylight Time),617118.899999857,A,chi,I,i,137,3,1799.6999998092651,615319.2000000477,8035,WL,A,4.0
5,7.198999881744385,learn,60000.0,Wed Sep 24 2025 16:44:35 GMT-0500 (Central Daylight Time),617351.7000000477,A,chim,I,m,215,3,2032.5,615319.2000000477,8035,WL,A,4.0
5,7.98199987411499,learn,60000.0,Wed Sep 24 2025 16:44:35 GMT-0500 (Central Daylight Time),618134.2000000477,A,chimn,I,n,765,3,2815.0,615319.2000000477,8035,WL,A,4.0
5,8.131999969482422,learn,60000.0,Wed Sep 24 2025 16:44:35 GMT-0500 (Central Daylight Time),618285.0,A,chimne,I,e,146,3,2965.7999999523163,615319.2000000477,8035,WL,A,4.0
5,8.315999984741211,learn,60000.0,Wed Sep 24 2025 16:44:35 GMT-0500 (Central Daylight Time),618469.0999999046,A,chimney,I,y,176,3,3149.899999856949,615319.2000000477,8035,WL,A,4.0
5,8.830999851226807,learn,60000.0,Wed Sep 24 2025 16:44:35 GMT-0500 (Central Daylight Time),618983.7000000477,A,chimneyenter,I,enter,493,3,3664.5,615319.2000000477,8035,WL,A,4.0
5,9.131999969482422,learn,60000.0,Wed Sep 24 2025 16:44:35 GMT-0500 (Central Daylight Time),619284.7000000477,A,l,I,l,296,3,300.7000000476837,618984.0,8035,WL,A,5.0
5,9.299000024795532,learn,60000.0,Wed Sep 24 2025 16:44:35 GMT-0500 (Central Daylight Time),619451.399999857,A,lo,I,o,159,3,467.39999985694885,618984.0,8035,WL,A,5.0
5,9.448999881744385,learn,60000.0,Wed Sep 24 2025 16:44:35 GMT-0500 (Central Daylight Time),619602.0999999046,A,log,I,g,128,3,618.0999999046326,618984.0,8035,WL,A,5.0
5,9.930999994277954,learn,60000.0,Wed Sep 24 2025 16:44:35 GMT-0500 (Central Daylight Time),620083.2999999523,A,logenter,I,enter,476,3,1099.2999999523163,618984.0,8035,WL,A,5.0
5,12.613999843597412,learn,60000.0,Wed Sep 24 2025 16:44:35 GMT-0500 (Central Daylight Time),622766.5,A,b,I,b,2658,3,2682.4000000953674,620084.0999999046,8035,WL,A,6.0
5,12.747999906539917,learn,60000.0,Wed Sep 24 2025 16:44:35 GMT-0500 (Central Daylight Time),622900.0999999046,A,bo,I,o,115,3,2816.0,620084.0999999046,8035,WL,A,6.0
5,12.898000001907349,learn,60000.0,Wed Sep 24 2025 16:44:35 GMT-0500 (Central Daylight Time),623050.399999857,A,boo,I,o,128,3,2966.2999999523163,620084.0999999046,8035,WL,A,6.0
5,13.04699993133545,learn,60000.0,Wed Sep 24 2025 16:44:35 GMT-0500 (Central Daylight Time),623199.2000000477,A,book,I,k,128,3,3115.100000143051,620084.0999999046,8035,WL,A,6.0
5,13.413999795913696,learn,60000.0,Wed Sep 24 2025 16:44:35 GMT-0500 (Central Daylight Time),623566.2000000477,A,bookenter,I,enter,348,3,3482.100000143051,620084.0999999046,8035,WL,A,6.0
5,14.878999948501587,learn,60000.0,Wed Sep 24 2025 16:44:35 GMT-0500 (Central Daylight Time),625031.5,A,f,I,f,1454,3,1465.1000001430511,623566.399999857,8035,WL,A,7.0
5,14.980000019073486,learn,60000.0,Wed Sep 24 2025 16:44:35 GMT-0500 (Central Daylight Time),625133.0,A,fl,I,l,94,3,1566.6000001430511,623566.399999857,8035,WL,A,7.0
5,15.148000001907349,learn,60000.0,Wed Sep 24 2025 16:44:35 GMT-0500 (Central Daylight Time),625300.399999857,A,flo,I,o,161,3,1734.0,623566.399999857,8035,WL,A,7.0
5,15.230000019073486,learn,60000.0,Wed Sep 24 2025 16:44:35 GMT-0500 (Central Daylight Time),625382.5999999046,A,flow,I,w,63,3,1816.2000000476837,623566.399999857,8035,WL,A,7.0
5,15.329999923706055,learn,60000.0,Wed Sep 24 2025 16:44:35 GMT-0500 (Central Daylight Time),625482.399999857,A,flowe,I,e,83,3,1916.0,623566.399999857,8035,WL,A,7.0
5,15.430999994277954,learn,60000.0,Wed Sep 24 2025 16:44:35 GMT-0500 (Central Daylight Time),625583.0999999046,A,flower,I,r,89,3,2016.7000000476837,623566.399999857,8035,WL,A,7.0
5,15.994999885559082,learn,60000.0,Wed Sep 24 2025 16:44:35 GMT-0500 (Central Daylight Time),626147.399999857,A,flowerenter,I,enter,555,3,2581.0,623566.399999857,8035,WL,A,7.0
5,17.02899980545044,learn,60000.0,Wed Sep 24 2025 16:44:35 GMT-0500 (Central Daylight Time),627182.0,A,t,I,t,1018,3,1034.2999999523163,626147.7000000477,8035,WL,A,8.0
5,17.145999908447266,learn,60000.0,Wed Sep 24 2025 16:44:35 GMT-0500 (Central Daylight Time),627298.2999999523,A,tr,I,r,110,3,1150.5999999046326,626147.7000000477,8035,WL,A,8.0
5,17.777999877929688,learn,60000.0,Wed Sep 24 2025 16:44:35 GMT-0500 (Central Daylight Time),627930.899999857,A,tra,I,a,618,3,1783.1999998092651,626147.7000000477,8035,WL,A,8.0
5,17.961999893188477,learn,60000.0,Wed Sep 24 2025 16:44:35 GMT-0500 (Central Daylight Time),628114.5999999046,A,trai,I,i,172,3,1966.8999998569489,626147.7000000477,8035,WL,A,8.0
5,18.13099980354309,learn,60000.0,Wed Sep 24 2025 16:44:35 GMT-0500 (Central Daylight Time),628283.7999999523,A,train,I,n,162,3,2136.0999999046326,626147.7000000477,8035,WL,A,8.0
5,18.995999813079834,learn,60000.0,Wed Sep 24 2025 16:44:35 GMT-0500 (Central Daylight Time),629149.0,A,trainenter,I,enter,848,3,3001.2999999523163,626147.7000000477,8035,WL,A,8.0
5,19.495999813079834,learn,60000.0,Wed Sep 24 2025 16:44:35 GMT-0500 (Central Daylight Time),629648.2999999523,A,m,I,m,488,3,499.09999990463257,629149.2000000477,8035,WL,A,9.0
5,19.59599995613098,learn,60000.0,Wed Sep 24 2025 16:44:35 GMT-0500 (Central Daylight Time),629748.2000000477,A,me,I,e,83,3,599.0,629149.2000000477,8035,WL,A,9.0
5,19.711999893188477,learn,60000.0,Wed Sep 24 2025 16:44:35 GMT-0500 (Central Daylight Time),629864.7000000477,A,mea,I,a,103,3,715.5,629149.2000000477,8035,WL,A,9.0
5,19.91100001335144,learn,60000.0,Wed Sep 24 2025 16:44:35 GMT-0500 (Central Daylight Time),630063.5999999046,A,mead,I,d,178,3,914.3999998569489,629149.2000000477,8035,WL,A,9.0
5,20.044999837875366,learn,60000.0,Wed Sep 24 2025 16:44:35 GMT-0500 (Central Daylight Time),630198.0999999046,A,meado,I,o,124,3,1048.8999998569489,629149.2000000477,8035,WL,A,9.0
5,20.17899990081787,learn,60000.0,Wed Sep 24 2025 16:44:35 GMT-0500 (Central Daylight Time),630331.5,A,meadow,I,w,126,3,1182.2999999523163,629149.2000000477,8035,WL,A,9.0
5,20.546000003814697,learn,60000.0,Wed Sep 24 2025 16:44:35 GMT-0500 (Central Daylight Time),630698.2999999523,A,meadowenter,I,enter,353,3,1549.0999999046326,629149.2000000477,8035,WL,A,9.0
5,20.92799997329712,learn,60000.0,Wed Sep 24 2025 16:44:35 GMT-0500 (Central Daylight Time),631080.7000000477,A,r,I,r,371,3,382.2000000476837,630698.5,8035,WL,A,10.0
5,21.111999988555908,learn,60000.0,Wed Sep 24 2025 16:44:35 GMT-0500 (Central Daylight Time),631264.7000000477,A,ru,I,u,163,3,566.2000000476837,630698.5,8035,WL,A,10.0
5,21.26099991798401,learn,60000.0,Wed Sep 24 2025 16:44:35 GMT-0500 (Central Daylight Time),631413.0999999046,A,rug,I,g,140,3,714.5999999046326,630698.5,8035,WL,A,10.0
5,21.57699990272522,learn,60000.0,Wed Sep 24 2025 16:44:35 GMT-0500 (Central Daylight Time),631729.899999857,A,rugenter,I,enter,303,3,1031.3999998569489,630698.5,8035,WL,A,10.0
5,23.17899990081787,learn,60000.0,Wed Sep 24 2025 16:44:35 GMT-0500 (Central Daylight Time),633331.2999999523,A,a,I,a,1580,3,1601.0999999046326,631730.2000000477,8035,WL,A,11.0
5,23.394999980926514,learn,60000.0,Wed Sep 24 2025 16:44:35 GMT-0500 (Central Daylight Time),633547.7000000477,A,ap,I,p,210,3,1817.5,631730.2000000477,8035,WL,A,11.0
5,24.393999814987183,learn,60000.0,Wed Sep 24 2025 16:44:35 GMT-0500 (Central Daylight Time),634546.5,A,app,I,p,985,3,2816.2999999523163,631730.2000000477,8035,WL,A,11.0
5,24.626999855041504,learn,60000.0,Wed Sep 24 2025 16:44:35 GMT-0500 (Central Daylight Time),634779.899999857,A,appl,I,l,217,3,3049.699999809265,631730.2000000477,8035,WL,A,11.0
5,24.80999994277954,learn,60000.0,Wed Sep 24 2025 16:44:35 GMT-0500 (Central Daylight Time),634962.7999999523,A,apple,I,e,168,3,3232.5999999046326,631730.2000000477,8035,WL,A,11.0
5,25.108999967575073,learn,60000.0,Wed Sep 24 2025 16:44:35 GMT-0500 (Central Daylight Time),635261.7000000477,A,appleenter,I,enter,289,3,3531.5,631730.2000000477,8035,WL,A,11.0
5,28.64299988746643,learn,60000.0,Wed Sep 24 2025 16:44:35 GMT-0500 (Central Daylight Time),638795.2000000477,A,f,I,f,3521,3,3533.2000000476837,635262.0,8035,WL,A,12.0
5,28.723999977111816,learn,60000.0,Wed Sep 24 2025 16:44:35 GMT-0500 (Central Daylight Time),638876.5,A,fi,I,i,73,3,3614.5,635262.0,8035,WL,A,12.0
5,28.825999975204468,learn,60000.0,Wed Sep 24 2025 16:44:35 GMT-0500 (Central Daylight Time),638978.2999999523,A,fin,I,n,86,3,3716.2999999523163,635262.0,8035,WL,A,12.0
5,28.875999927520752,learn,60000.0,Wed Sep 24 2025 16:44:35 GMT-0500 (Central Daylight Time),639028.899999857,A,fing,I,g,32,3,3766.899999856949,635262.0,8035,WL,A,12.0
5,29.026000022888184,learn,60000.0,Wed Sep 24 2025 16:44:35 GMT-0500 (Central Daylight Time),639178.7000000477,A,finge,I,e,142,3,3916.7000000476837,635262.0,8035,WL,A,12.0
5,29.125,learn,60000.0,Wed Sep 24 2025 16:44:35 GMT-0500 (Central Daylight Time),639277.899999857,A,finger,I,r,80,3,4015.899999856949,635262.0,8035,WL,A,12.0
5,29.30900001525879,learn,60000.0,Wed Sep 24 2025 16:44:35 GMT-0500 (Central Daylight Time),639461.2000000477,A,fingerenter,I,enter,167,3,4199.200000047684,635262.0,8035,WL,A,12.0
5,31.140999794006348,learn,60000.0,Wed Sep 24 2025 16:44:35 GMT-0500 (Central Daylight Time),641293.5,A,g,I,g,1815,3,1832.0,639461.5,8035,WL,A,13.0
5,31.22499990463257,learn,60000.0,Wed Sep 24 2025 16:44:35 GMT-0500 (Central Daylight Time),641377.399999857,A,go,I,o,62,3,1915.8999998569489,639461.5,8035,WL,A,13.0
5,31.375,learn,60000.0,Wed Sep 24 2025 16:44:35 GMT-0500 (Central Daylight Time),641527.2999999523,A,gol,I,l,129,3,2065.7999999523163,639461.5,8035,WL,A,13.0
5,31.507999897003174,learn,60000.0,Wed Sep 24 2025 16:44:35 GMT-0500 (Central Daylight Time),641660.7999999523,A,gold,I,d,125,3,2199.2999999523163,639461.5,8035,WL,A,13.0
5,36.056999921798706,learn,60000.0,Wed Sep 24 2025 16:44:35 GMT-0500 (Central Daylight Time),646210.0,A,gol,I,backspace,4534,3,6748.5,639461.5,8035,WL,A,13.0
5,36.223999977111816,learn,60000.0,Wed Sep 24 2025 16:44:35 GMT-0500 (Central Daylight Time),646376.5,A,go,I,backspace,154,3,6915.0,639461.5,8035,WL,A,13.0
5,36.37299990653992,learn,60000.0,Wed Sep 24 2025 16:44:35 GMT-0500 (Central Daylight Time),646525.399999857,A,g,I,backspace,140,3,7063.899999856949,639461.5,8035,WL,A,13.0
5,36.64199995994568,learn,60000.0,Wed Sep 24 2025 16:44:35 GMT-0500 (Central Daylight Time),646794.0999999046,A,,I,backspace,261,3,7332.599999904633,639461.5,8035,WL,A,13.0
5,36.92199993133545,learn,60000.0,Wed Sep 24 2025 16:44:35 GMT-0500 (Central Daylight Time),647074.2000000477,A,h,I,h,264,3,7612.700000047684,639461.5,8035,WL,A,13.0
5,36.98899984359741,learn,60000.0,Wed Sep 24 2025 16:44:35 GMT-0500 (Central Daylight Time),647141.899999857,A,ha,I,a,48,3,7680.399999856949,639461.5,8035,WL,A,13.0
5,37.08999991416931,learn,60000.0,Wed Sep 24 2025 16:44:35 GMT-0500 (Central Daylight Time),647242.7999999523,A,har,I,r,77,3,7781.299999952316,639461.5,8035,WL,A,13.0
5,37.288999795913696,learn,60000.0,Wed Sep 24 2025 16:44:35 GMT-0500 (Central Daylight Time),647441.899999857,A,hard,I,d,182,3,7980.399999856949,639461.5,8035,WL,A,13.0
5,37.722999811172485,learn,60000.0,Wed Sep 24 2025 16:44:35 GMT-0500 (Central Daylight Time),647875.2999999523,A,har,I,backspace,418,3,8413.799999952316,639461.5,8035,WL,A,13.0
5,37.93999981880188,learn,60000.0,Wed Sep 24 2025 16:44:35 GMT-0500 (Central Daylight Time),648092.2000000477,A,harp,I,p,211,3,8630.700000047684,639461.5,8035,WL,A,13.0
5,38.2739999294281,learn,60000.0,Wed Sep 24 2025 16:44:35 GMT-0500 (Central Daylight Time),648426.2999999523,A,harpenter,I,enter,327,3,8964.799999952316,639461.5,8035,WL,A,13.0
5,50.817999839782715,learn,60000.0,Wed Sep 24 2025 16:44:35 GMT-0500 (Central Daylight Time),660971.399999857,A,s,I,s,12539,3,12544.899999856949,648426.5,8035,WL,A,14.0
5,50.95199990272522,learn,60000.0,Wed Sep 24 2025 16:44:35 GMT-0500 (Central Daylight Time),661105.7000000477,A,sa,I,a,120,3,12679.200000047684,648426.5,8035,WL,A,14.0
5,51.067999839782715,learn,60000.0,Wed Sep 24 2025 16:44:35 GMT-0500 (Central Daylight Time),661221.5,A,sal,I,l,105,3,12795.0,648426.5,8035,WL,A,14.0
5,51.26799988746643,learn,60000.0,Wed Sep 24 2025 16:44:35 GMT-0500 (Central Daylight Time),661421.2000000477,A,salt,I,t,181,3,12994.700000047684,648426.5,8035,WL,A,14.0
5,51.60099983215332,learn,60000.0,Wed Sep 24 2025 16:44:35 GMT-0500 (Central Daylight Time),661754.2000000477,A,saltenter,I,enter,328,3,13327.700000047684,648426.5,8035,WL,A,14.0
5,87.98699998855591,learn,60000.0,Wed Sep 24 2025 16:44:35 GMT-0500 (Central Daylight Time),698141.0,A,enter,I,enter,36370,3,36386.5,661754.5,8035,WL,A,15.0
6,0.8500001430511475,distr,59149.99985694885,Wed Sep 24 2025 16:44:35 GMT-0500 (Central Daylight Time),768937.2999999523,B,c,I,c,839,3,848.9000000953674,768088.399999857,8035,WL,A,1.0
6,0.9490001201629639,distr,59050.999879837036,Wed Sep 24 2025 16:44:35 GMT-0500 (Central Daylight Time),769036.399999857,B,ch,I,h,81,3,948.0,768088.399999857,8035,WL,A,1.0
6,1.0490000247955322,distr,58950.99997520447,Wed Sep 24 2025 16:44:35 GMT-0500 (Central Daylight Time),769136.0999999046,B,cha,I,a,86,3,1047.7000000476837,768088.399999857,8035,WL,A,1.0
6,1.4509999752044678,distr,58549.00002479553,Wed Sep 24 2025 16:44:35 GMT-0500 (Central Daylight Time),769538.0,B,chai,I,i,380,3,1449.6000001430511,768088.399999857,8035,WL,A,1.0
6,1.6670000553131104,distr,58332.99994468689,Wed Sep 24 2025 16:44:35 GMT-0500 (Central Daylight Time),769754.5999999046,B,chair,I,r,210,3,1666.2000000476837,768088.399999857,8035,WL,A,1.0
6,2.0,distr,58000.0,Wed Sep 24 2025 16:44:35 GMT-0500 (Central Daylight Time),770087.2999999523,B,chairenter,I,enter,321,3,1998.9000000953674,768088.399999857,8035,WL,A,1.0
6,2.5320000648498535,distr,57467.99993515015,Wed Sep 24 2025 16:44:35 GMT-0500 (Central Daylight Time),770619.7000000477,B,m,I,m,527,3,532.2000000476837,770087.5,8035,WL,A,2.0
6,2.748000144958496,distr,57251.999855041504,Wed Sep 24 2025 16:44:35 GMT-0500 (Central Daylight Time),770835.7000000477,B,me,I,e,202,3,748.2000000476837,770087.5,8035,WL,A,2.0
6,2.932000160217285,distr,57067.999839782715,Wed Sep 24 2025 16:44:35 GMT-0500 (Central Daylight Time),771019.0,B,mea,I,a,170,3,931.5,770087.5,8035,WL,A,2.0
6,3.1649999618530273,distr,56835.00003814697,Wed Sep 24 2025 16:44:35 GMT-0500 (Central Daylight Time),771252.0,B,meal,I,l,215,3,1164.5,770087.5,8035,WL,A,2.0
6,3.5160000324249268,distr,56483.99996757507,Wed Sep 24 2025 16:44:35 GMT-0500 (Central Daylight Time),771603.2999999523,B,mealenter,I,enter,337,3,1515.7999999523163,770087.5,8035,WL,A,2.0
6,12.894000053405762,distr,47105.99994659424,Wed Sep 24 2025 16:44:35 GMT-0500 (Central Daylight Time),780982.399999857,B,j,I,j,9370,3,9378.799999952316,771603.5999999046,8035,WL,A,3.0
6,13.078999996185303,distr,46921.0000038147,Wed Sep 24 2025 16:44:35 GMT-0500 (Central Daylight Time),781167.2000000477,B,ju,I,u,165,3,9563.600000143051,771603.5999999046,8035,WL,A,3.0
6,13.17799997329712,distr,46822.00002670288,Wed Sep 24 2025 16:44:35 GMT-0500 (Central Daylight Time),781266.399999857,B,jud,I,d,94,3,9662.799999952316,771603.5999999046,8035,WL,A,3.0
6,13.378999948501587,distr,46621.00005149841,Wed Sep 24 2025 16:44:35 GMT-0500 (Central Daylight Time),781467.0,B,judg,I,g,187,3,9863.400000095367,771603.5999999046,8035,WL,A,3.0
6,13.511000156402588,distr,46488.99984359741,Wed Sep 24 2025 16:44:35 GMT-0500 (Central Daylight Time),781599.2000000477,B,judge,I,e,121,3,9995.600000143051,771603.5999999046,8035,WL,A,3.0
6,13.759999990463257,distr,46240.00000953674,Wed Sep 24 2025 16:44:35 GMT-0500 (Central Daylight Time),781848.5,B,judgeenter,I,enter,236,3,10244.900000095367,771603.5999999046,8035,WL,A,3.0
6,14.127000093460083,distr,45872.99990653992,Wed Sep 24 2025 16:44:35 GMT-0500 (Central Daylight Time),782215.7999999523,B,g,I,g,348,3,367.0,781848.7999999523,8035,WL,A,4.0
6,14.394999980926514,distr,45605.000019073486,Wed Sep 24 2025 16:44:35 GMT-0500 (Central Daylight Time),782483.399999857,B,gr,I,r,252,3,634.5999999046326,781848.7999999523,8035,WL,A,4.0
6,14.745000123977661,distr,45254.99987602234,Wed Sep 24 2025 16:44:35 GMT-0500 (Central Daylight Time),782833.7000000477,B,gra,I,a,345,3,984.9000000953674,781848.7999999523,8035,WL,A,4.0
6,14.944000005722046,distr,45055.999994277954,Wed Sep 24 2025 16:44:35 GMT-0500 (Central Daylight Time),783032.0,B,gran,I,n,185,3,1183.2000000476837,781848.7999999523,8035,WL,A,4.0
6,15.16100001335144,distr,44838.99998664856,Wed Sep 24 2025 16:44:35 GMT-0500 (Central Daylight Time),783249.2000000477,B,grant,I,t,196,3,1400.4000000953674,781848.7999999523,8035,WL,A,4.0
6,15.49399995803833,distr,44506.00004196167,Wed Sep 24 2025 16:44:35 GMT-0500 (Central Daylight Time),783582.0,B,grantenter,I,enter,314,3,1733.2000000476837,781848.7999999523,8035,WL,A,4.0
6,20.39199995994568,distr,39608.00004005432,Wed Sep 24 2025 16:44:35 GMT-0500 (Central Daylight Time),788480.399999857,B,s,I,s,4888,3,4898.199999809265,783582.2000000477,8035,WL,A,5.0
6,20.508000135421753,distr,39491.99986457825,Wed Sep 24 2025 16:44:35 GMT-0500 (Central Daylight Time),788596.7000000477,B,sh,I,h,108,3,5014.5,783582.2000000477,8035,WL,A,5.0
6,20.64300012588501,distr,39356.99987411499,Wed Sep 24 2025 16:44:35 GMT-0500 (Central Daylight Time),788731.399999857,B,she,I,e,128,3,5149.199999809265,783582.2000000477,8035,WL,A,5.0
6,20.79100012779236,distr,39208.99987220764,Wed Sep 24 2025 16:44:35 GMT-0500 (Central Daylight Time),788879.399999857,B,shee,I,e,134,3,5297.199999809265,783582.2000000477,8035,WL,A,5.0
6,20.942000150680542,distr,39057.99984931946,Wed Sep 24 2025 16:44:35 GMT-0500 (Central Daylight Time),789030.2999999523,B,sheep,I,p,141,3,5448.099999904633,783582.2000000477,8035,WL,A,5.0
6,21.20799994468689,distr,38792.00005531311,Wed Sep 24 2025 16:44:35 GMT-0500 (Central Daylight Time),789296.5,B,sheepenter,I,enter,254,3,5714.299999952316,783582.2000000477,8035,WL,A,5.0
6,33.63700008392334,distr,26362.99991607666,Wed Sep 24 2025 16:44:35 GMT-0500 (Central Daylight Time),801725.0,B,enter,I,enter,12412,3,12428.299999952316,789296.7000000477,8035,WL,A,6.0
6,33.986000061035156,distr,26013.999938964844,Wed Sep 24 2025 16:44:35 GMT-0500 (Central Daylight Time),802074.5999999046,B,enter,I,enter,343,3,349.39999985694885,801725.2000000477,8035,WL,A,7.0
6,34.28700017929077,distr,25712.99982070923,Wed Sep 24 2025 16:44:35 GMT-0500 (Central Daylight Time),802375.5,B,enter,I,enter,282,3,300.7000000476837,802074.7999999523,8035,WL,A,8.0
6,34.521000146865845,distr,25478.999853134155,Wed Sep 24 2025 16:44:35 GMT-0500 (Central Daylight Time),802608.899999857,B,enter,I,enter,212,3,233.09999990463257,802375.7999999523,8035,WL,A,9.0
6,34.73699998855591,distr,25263.00001144409,Wed Sep 24 2025 16:44:35 GMT-0500 (Central Daylight Time),802825.5,B,enter,I,enter,196,3,216.20000004768372,802609.2999999523,8035,WL,A,10.0
6,34.87000012397766,distr,25129.99987602234,Wed Sep 24 2025 16:44:35 GMT-0500 (Central Daylight Time),802958.5999999046,B,enter,I,enter,114,3,132.70000004768372,802825.899999857,8035,WL,A,11.0
6,35.12000012397766,distr,24879.99987602234,Wed Sep 24 2025 16:44:35 GMT-0500 (Central Daylight Time),803208.5,B,enter,I,enter,230,3,249.60000014305115,802958.899999857,8035,WL,A,12.0
6,35.4539999961853,distr,24546.000003814697,Wed Sep 24 2025 16:44:35 GMT-0500 (Central Daylight Time),803541.899999857,B,enter,I,enter,316,3,333.09999990463257,803208.7999999523,8035,WL,A,13.0
6,35.75399994850159,distr,24246.000051498413,Wed Sep 24 2025 16:44:35 GMT-0500 (Central Daylight Time),803842.2999999523,B,enter,I,enter,295,3,300.09999990463257,803542.2000000477,8035,WL,A,14.0
6,36.253000020980835,distr,23746.999979019165,Wed Sep 24 2025 16:44:35 GMT-0500 (Central Daylight Time),804341.5,B,enter,I,enter,490,3,498.90000009536743,803842.5999999046,8035,WL,A,15.0
7,0.8849999904632568,immed,59115.00000953674,Wed Sep 24 2025 16:44:35 GMT-0500 (Central Daylight Time),824403.2000000477,A,b,I,b,869,3,884.3000001907349,823518.899999857,8035,WL,A,1.0
7,1.066999912261963,immed,58933.00008773804,Wed Sep 24 2025 16:44:35 GMT-0500 (Central Daylight Time),824585.899999857,A,bo,I,o,168,3,1067.0,823518.899999857,8035,WL,A,1.0
7,1.2170000076293945,immed,58782.999992370605,Wed Sep 24 2025 16:44:35 GMT-0500 (Central Daylight Time),824735.5999999046,A,boo,I,o,137,3,1216.7000000476837,823518.899999857,8035,WL,A,1.0
7,1.4179999828338623,immed,58582.00001716614,Wed Sep 24 2025 16:44:35 GMT-0500 (Central Daylight Time),824935.7999999523,A,book,I,k,189,3,1416.9000000953674,823518.899999857,8035,WL,A,1.0
7,1.7839999198913574,immed,58216.00008010864,Wed Sep 24 2025 16:44:35 GMT-0500 (Central Daylight Time),825301.899999857,A,bookenter,I,enter,356,3,1783.0,823518.899999857,8035,WL,A,1.0
7,3.0169999599456787,immed,56983.00004005432,Wed Sep 24 2025 16:44:35 GMT-0500 (Central Daylight Time),826534.899999857,A,t,I,t,1224,3,1232.6999998092651,825302.2000000477,8035,WL,A,2.0
7,3.200000047683716,immed,56799.999952316284,Wed Sep 24 2025 16:44:35 GMT-0500 (Central Daylight Time),826718.5,A,tr,I,r,173,3,1416.2999999523163,825302.2000000477,8035,WL,A,2.0
7,3.3340001106262207,immed,56665.99988937378,Wed Sep 24 2025 16:44:35 GMT-0500 (Central Daylight Time),826852.7000000477,A,tra,I,a,119,3,1550.5,825302.2000000477,8035,WL,A,2.0
7,3.4830000400543213,immed,56516.99995994568,Wed Sep 24 2025 16:44:35 GMT-0500 (Central Daylight Time),827001.7999999523,A,trai,I,i,137,3,1699.5999999046326,825302.2000000477,8035,WL,A,2.0
7,3.6500000953674316,immed,56349.99990463257,Wed Sep 24 2025 16:44:35 GMT-0500 (Central Daylight Time),827167.7999999523,A,train,I,n,159,3,1865.5999999046326,825302.2000000477,8035,WL,A,2.0
7,3.999000072479248,immed,56000.99992752075,Wed Sep 24 2025 16:44:35 GMT-0500 (Central Daylight Time),827517.7000000477,A,trainenter,I,enter,339,3,2215.5,825302.2000000477,8035,WL,A,2.0
7,4.483000040054321,immed,55516.99995994568,Wed Sep 24 2025 16:44:35 GMT-0500 (Central Daylight Time),828001.2000000477,A,m,I,m,462,3,483.2000000476837,827518.0,8035,WL,A,3.0
7,4.615000009536743,immed,55384.99999046326,Wed Sep 24 2025 16:44:35 GMT-0500 (Central Daylight Time),828133.5999999046,A,me,I,e,112,3,615.5999999046326,827518.0,8035,WL,A,3.0
7,4.849999904632568,immed,55150.00009536743,Wed Sep 24 2025 16:44:35 GMT-0500 (Central Daylight Time),828368.0999999046,A,med,I,d,223,3,850.0999999046326,827518.0,8035,WL,A,3.0
7,5.516999959945679,immed,54483.00004005432,Wed Sep 24 2025 16:44:35 GMT-0500 (Central Daylight Time),829035.2000000477,A,me,I,backspace,660,3,1517.2000000476837,827518.0,8035,WL,A,3.0
7,5.631999969482422,immed,54368.00003051758,Wed Sep 24 2025 16:44:35 GMT-0500 (Central Daylight Time),829150.0,A,mea,I,a,103,3,1632.0,827518.0,8035,WL,A,3.0
7,5.799000024795532,immed,54200.99997520447,Wed Sep 24 2025 16:44:35 GMT-0500 (Central Daylight Time),829317.0999999046,A,mead,I,d,157,3,1799.0999999046326,827518.0,8035,WL,A,3.0
7,5.983000040054321,immed,54016.99995994568,Wed Sep 24 2025 16:44:35 GMT-0500 (Central Daylight Time),829501.0,A,meado,I,o,166,3,1983.0,827518.0,8035,WL,A,3.0
7,6.181999921798706,immed,53818.000078201294,Wed Sep 24 2025 16:44:35 GMT-0500 (Central Daylight Time),829700.7000000477,A,meadow,I,w,178,3,2182.7000000476837,827518.0,8035,WL,A,3.0
7,6.565000057220459,immed,53434.99994277954,Wed Sep 24 2025 16:44:35 GMT-0500 (Central Daylight Time),830083.5999999046,A,meadowenter,I,enter,369,3,2565.5999999046326,827518.0,8035,WL,A,3.0
7,7.66700005531311,immed,52332.99994468689,Wed Sep 24 2025 16:44:35 GMT-0500 (Central Daylight Time),831184.7999999523,A,f,I,f,1081,3,1100.9000000953674,830083.899999857,8035,WL,A,4.0
7,7.7820000648498535,immed,52217.99993515015,Wed Sep 24 2025 16:44:35 GMT-0500 (Central Daylight Time),831300.2999999523,A,fl,I,l,98,3,1216.4000000953674,830083.899999857,8035,WL,A,4.0
7,7.966000080108643,immed,52033.99991989136,Wed Sep 24 2025 16:44:35 GMT-0500 (Central Daylight Time),831484.5999999046,A,flo,I,o,168,3,1400.7000000476837,830083.899999857,8035,WL,A,4.0
7,8.030999898910522,immed,51969.00010108948,Wed Sep 24 2025 16:44:35 GMT-0500 (Central Daylight Time),831549.399999857,A,flow,I,w,55,3,1465.5,830083.899999857,8035,WL,A,4.0
7,8.13100004196167,immed,51868.99995803833,Wed Sep 24 2025 16:44:35 GMT-0500 (Central Daylight Time),831649.7999999523,A,flowe,I,e,87,3,1565.9000000953674,830083.899999857,8035,WL,A,4.0
7,8.230000019073486,immed,51769.999980926514,Wed Sep 24 2025 16:44:35 GMT-0500 (Central Daylight Time),831748.5,A,flower,I,r,89,3,1664.6000001430511,830083.899999857,8035,WL,A,4.0
7,8.516000032424927,immed,51483.99996757507,Wed Sep 24 2025 16:44:35 GMT-0500 (Central Daylight Time),832034.0999999046,A,flowerenter,I,enter,280,3,1950.2000000476837,830083.899999857,8035,WL,A,4.0
7,11.513000011444092,immed,48486.99998855591,Wed Sep 24 2025 16:44:35 GMT-0500 (Central Daylight Time),835031.2000000477,A,r,I,r,2979,3,2996.9000000953674,832034.2999999523,8035,WL,A,5.0
7,11.664000034332275,immed,48335.999965667725,Wed Sep 24 2025 16:44:35 GMT-0500 (Central Daylight Time),835182.0,A,ra,I,a,128,3,3147.7000000476837,832034.2999999523,8035,WL,A,5.0
7,11.782000064849854,immed,48217.99993515015,Wed Sep 24 2025 16:44:35 GMT-0500 (Central Daylight Time),835299.899999857,A,rat,I,t,110,3,3265.5999999046326,832034.2999999523,8035,WL,A,5.0
7,11.897000074386597,immed,48102.9999256134,Wed Sep 24 2025 16:44:35 GMT-0500 (Central Daylight Time),835415.2000000477,A,ratt,I,t,94,3,3380.9000000953674,832034.2999999523,8035,WL,A,5.0
7,12.114000082015991,immed,47885.99991798401,Wed Sep 24 2025 16:44:35 GMT-0500 (Central Daylight Time),835632.5,A,rattl,I,l,196,3,3598.2000000476837,832034.2999999523,8035,WL,A,5.0
7,12.230000019073486,immed,47769.999980926514,Wed Sep 24 2025 16:44:35 GMT-0500 (Central Daylight Time),835748.2000000477,A,rattle,I,e,105,3,3713.9000000953674,832034.2999999523,8035,WL,A,5.0
7,12.479000091552734,immed,47520.999908447266,Wed Sep 24 2025 16:44:35 GMT-0500 (Central Daylight Time),835997.2999999523,A,rattleenter,I,enter,231,3,3963.0,832034.2999999523,8035,WL,A,5.0
7,12.812000036239624,immed,47187.999963760376,Wed Sep 24 2025 16:44:35 GMT-0500 (Central Daylight Time),836331.5999999046,A,g,I,g,321,3,334.09999990463257,835997.5,8035,WL,A,6.0
7,12.946000099182129,immed,47053.99990081787,Wed Sep 24 2025 16:44:35 GMT-0500 (Central Daylight Time),836465.399999857,A,go,I,o,114,3,467.89999985694885,835997.5,8035,WL,A,6.0
7,13.163000106811523,immed,46836.99989318848,Wed Sep 24 2025 16:44:35 GMT-0500 (Central Daylight Time),836681.7999999523,A,gol,I,l,203,3,684.2999999523163,835997.5,8035,WL,A,6.0
7,13.312000036239624,immed,46687.999963760376,Wed Sep 24 2025 16:44:35 GMT-0500 (Central Daylight Time),836831.0999999046,A,gold,I,d,140,3,833.5999999046326,835997.5,8035,WL,A,6.0
7,13.546000003814697,immed,46453.9999961853,Wed Sep 24 2025 16:44:35 GMT-0500 (Central Daylight Time),837064.899999857,A,goldenter,I,enter,221,3,1067.3999998569489,835997.5,8035,WL,A,6.0
7,14.062000036239624,immed,45937.999963760376,Wed Sep 24 2025 16:44:35 GMT-0500 (Central Daylight Time),837580.899999857,A,r,I,r,508,3,515.6999998092651,837065.2000000477,8035,WL,A,7.0
7,14.194999933242798,immed,45805.0000667572,Wed Sep 24 2025 16:44:35 GMT-0500 (Central Daylight Time),837714.5999999046,A,ru,I,u,112,3,649.3999998569489,837065.2000000477,8035,WL,A,7.0
7,14.345999956130981,immed,45654.00004386902,Wed Sep 24 2025 16:44:35 GMT-0500 (Central Daylight Time),837865.2000000477,A,rug,I,g,135,3,800.0,837065.2000000477,8035,WL,A,7.0
7,14.57800006866455,immed,45421.99993133545,Wed Sep 24 2025 16:44:35 GMT-0500 (Central Daylight Time),838097.399999857,A,rugenter,I,enter,209,3,1032.1999998092651,837065.2000000477,8035,WL,A,7.0
7,15.19700002670288,immed,44802.99997329712,Wed Sep 24 2025 16:44:35 GMT-0500 (Central Daylight Time),838715.899999857,A,f,I,f,613,3,618.1999998092651,838097.7000000477,8035,WL,A,8.0
7,15.32800006866455,immed,44671.99993133545,Wed Sep 24 2025 16:44:35 GMT-0500 (Central Daylight Time),838847.0,A,fi,I,i,112,3,749.2999999523163,838097.7000000477,8035,WL,A,8.0
7,15.410000085830688,immed,44589.99991416931,Wed Sep 24 2025 16:44:35 GMT-0500 (Central Daylight Time),838929.5999999046,A,fin,I,n,67,3,831.8999998569489,838097.7000000477,8035,WL,A,8.0
7,15.494999885559082,immed,44505.00011444092,Wed Sep 24 2025 16:44:35 GMT-0500 (Central Daylight Time),839013.7999999523,A,fing,I,g,75,3,916.0999999046326,838097.7000000477,8035,WL,A,8.0
7,15.67799997329712,immed,44322.00002670288,Wed Sep 24 2025 16:44:35 GMT-0500 (Central Daylight Time),839197.5999999046,A,finge,I,e,166,3,1099.8999998569489,838097.7000000477,8035,WL,A,8.0
7,15.777999877929688,immed,44222.00012207031,Wed Sep 24 2025 16:44:35 GMT-0500 (Central Daylight Time),839297.5999999046,A,finger,I,r,77,3,1199.8999998569489,838097.7000000477,8035,WL,A,8.0
7,15.92799997329712,immed,44072.00002670288,Wed Sep 24 2025 16:44:35 GMT-0500 (Central Daylight Time),839446.899999857,A,fingerenter,I,enter,137,3,1349.1999998092651,838097.7000000477,8035,WL,A,8.0
7,18.82699990272522,immed,41173.00009727478,Wed Sep 24 2025 16:44:35 GMT-0500 (Central Daylight Time),842345.7999999523,A,h,I,h,2886,3,2898.5999999046326,839447.2000000477,8035,WL,A,9.0
7,18.92799997329712,immed,41072.00002670288,Wed Sep 24 2025 16:44:35 GMT-0500 (Central Daylight Time),842446.7000000477,A,ha,I,a,81,3,2999.5,839447.2000000477,8035,WL,A,9.0
7,19.009999990463257,immed,40990.00000953674,Wed Sep 24 2025 16:44:35 GMT-0500 (Central Daylight Time),842529.0999999046,A,har,I,r,67,3,3081.899999856949,839447.2000000477,8035,WL,A,9.0
7,19.276000022888184,immed,40723.99997711182,Wed Sep 24 2025 16:44:35 GMT-0500 (Central Daylight Time),842795.399999857,A,harp,I,p,260,3,3348.199999809265,839447.2000000477,8035,WL,A,9.0
7,19.542999982833862,immed,40457.00001716614,Wed Sep 24 2025 16:44:35 GMT-0500 (Central Daylight Time),843062.2999999523,A,harpenter,I,enter,248,3,3615.0999999046326,839447.2000000477,8035,WL,A,9.0
7,23.674999952316284,immed,36325.000047683716,Wed Sep 24 2025 16:44:35 GMT-0500 (Central Daylight Time),847194.2999999523,A,a,I,a,4126,3,4131.799999952316,843062.5,8035,WL,A,10.0
7,23.94099998474121,immed,36059.00001525879,Wed Sep 24 2025 16:44:35 GMT-0500 (Central Daylight Time),847460.5999999046,A,ap,I,p,250,3,4398.099999904633,843062.5,8035,WL,A,10.0
7,24.325999975204468,immed,35674.00002479553,Wed Sep 24 2025 16:44:35 GMT-0500 (Central Daylight Time),847845.2000000477,A,app,I,p,369,3,4782.700000047684,843062.5,8035,WL,A,10.0
7,24.592999935150146,immed,35407.00006484985,Wed Sep 24 2025 16:44:35 GMT-0500 (Central Daylight Time),848111.7999999523,A,appl,I,l,257,3,5049.299999952316,843062.5,8035,WL,A,10.0
7,24.7739999294281,immed,35226.0000705719,Wed Sep 24 2025 16:44:35 GMT-0500 (Central Daylight Time),848293.2999999523,A,apple,I,e,166,3,5230.799999952316,843062.5,8035,WL,A,10.0
7,24.992000102996826,immed,35007.999897003174,Wed Sep 24 2025 16:44:35 GMT-0500 (Central Daylight Time),848511.2000000477,A,appleenter,I,enter,201,3,5448.700000047684,843062.5,8035,WL,A,10.0
7,27.691999912261963,immed,32308.000087738037,Wed Sep 24 2025 16:44:35 GMT-0500 (Central Daylight Time),851211.2999999523,A,j,I,j,2687,3,2699.7999999523163,848511.5,8035,WL,A,11.0
7,27.891000032424927,immed,32108.999967575073,Wed Sep 24 2025 16:44:35 GMT-0500 (Central Daylight Time),851410.399999857,A,ju,I,u,185,3,2898.899999856949,848511.5,8035,WL,A,11.0
7,28.007999897003174,immed,31992.000102996826,Wed Sep 24 2025 16:44:35 GMT-0500 (Central Daylight Time),851527.2000000477,A,jug,I,g,106,3,3015.7000000476837,848511.5,8035,WL,A,11.0
7,28.723999977111816,immed,31276.000022888184,Wed Sep 24 2025 16:44:35 GMT-0500 (Central Daylight Time),852243.399999857,A,ju,I,backspace,700,3,3731.899999856949,848511.5,8035,WL,A,11.0
7,28.89199995994568,immed,31108.00004005432,Wed Sep 24 2025 16:44:35 GMT-0500 (Central Daylight Time),852411.0,A,j,I,backspace,144,3,3899.5,848511.5,8035,WL,A,11.0
7,29.02500009536743,immed,30974.99990463257,Wed Sep 24 2025 16:44:35 GMT-0500 (Central Daylight Time),852543.7000000477,A,,I,backspace,112,3,4032.2000000476837,848511.5,8035,WL,A,11.0
7,49.00200009346008,immed,10997.999906539917,Wed Sep 24 2025 16:44:35 GMT-0500 (Central Daylight Time),872520.899999857,A,s,I,s,19957,3,24009.39999985695,848511.5,8035,WL,A,11.0
7,49.1010000705719,immed,10898.9999294281,Wed Sep 24 2025 16:44:35 GMT-0500 (Central Daylight Time),872620.0,A,sa,I,a,95,3,24108.5,848511.5,8035,WL,A,11.0
7,49.132999897003174,immed,10867.000102996826,Wed Sep 24 2025 16:44:35 GMT-0500 (Central Daylight Time),872651.899999857,A,sal,I,l,22,3,24140.39999985695,848511.5,8035,WL,A,11.0
7,49.28399991989136,immed,10716.000080108643,Wed Sep 24 2025 16:44:35 GMT-0500 (Central Daylight Time),872803.5999999046,A,salt,I,t,139,3,24292.099999904633,848511.5,8035,WL,A,11.0
7,49.43400001525879,immed,10565.999984741211,Wed Sep 24 2025 16:44:35 GMT-0500 (Central Daylight Time),872952.899999857,A,saltenter,I,enter,135,3,24441.39999985695,848511.5,8035,WL,A,11.0
7,55.06399989128113,immed,4936.000108718872,Wed Sep 24 2025 16:44:35 GMT-0500 (Central Daylight Time),878583.5,A,f,I,f,5618,3,5630.299999952316,872953.2000000477,8035,WL,A,12.0
7,55.180999994277954,immed,4819.000005722046,Wed Sep 24 2025 16:44:35 GMT-0500 (Central Daylight Time),878700.2999999523,A,fi,I,i,110,3,5747.099999904633,872953.2000000477,8035,WL,A,12.0
7,55.265000104904175,immed,4734.999895095825,Wed Sep 24 2025 16:44:35 GMT-0500 (Central Daylight Time),878784.399999857,A,fin,I,n,65,3,5831.199999809265,872953.2000000477,8035,WL,A,12.0
7,55.331000089645386,immed,4668.999910354614,Wed Sep 24 2025 16:44:35 GMT-0500 (Central Daylight Time),878850.2999999523,A,fing,I,g,62,3,5897.099999904633,872953.2000000477,8035,WL,A,12.0
7,55.48099994659424,immed,4519.000053405762,Wed Sep 24 2025 16:44:35 GMT-0500 (Central Daylight Time),878999.7999999523,A,finge,I,e,131,3,6046.599999904633,872953.2000000477,8035,WL,A,12.0
7,55.56399989128113,immed,4436.000108718872,Wed Sep 24 2025 16:44:35 GMT-0500 (Central Daylight Time),879083.5999999046,A,finger,I,r,70,3,6130.399999856949,872953.2000000477,8035,WL,A,12.0
7,55.680999994277954,immed,4319.000005722046,Wed Sep 24 2025 16:44:35 GMT-0500 (Central Daylight Time),879200.0999999046,A,fingerenter,I,enter,98,3,6246.899999856949,872953.2000000477,8035,WL,A,12.0
7,60.015000104904175,immed,-15.000104904174805,Wed Sep 24 2025 16:44:35 GMT-0500 (Central Daylight Time),883534.0,A,None,I,None,4331,3,4333.600000143051,879200.399999857,8035,WL,A,13.0
