acc_sum,block,block_c,condition,correct,correct_response,datetime,endtime,flanker,jitter,project,response,response_test_buffer_response,response_test_target_response,response_time,response_time_test_buffer_response,response_time_test_target_response,row_sel,session_number,start_end,starttime,subject_id,target,task,task_vers,time_test_buffer,time_test_buffer_response,time_test_constants,time_test_flanker,time_test_jitter,time_test_logger,time_test_target,time_test_target_response,time_test_variables,trial
1,prac,1,inc,1,m,Thu Aug 28 2025 09:57:38 GMT-0500 (Central Daylight Time),106478.79999995232,brutal,1100,O,m,,,759,,,8,1,3155.7999999523163,103323.0,7206,window,AF,B,,,,,,,,,,1
2,prac,1,inc,1,m,Thu Aug 28 2025 09:57:38 GMT-0500 (Central Daylight Time),109295.40000009537,elated,900,O,m,,,599,,,6,1,2813.0,106482.40000009537,7206,napkin,AF,B,,,,,,,,,,2
3,prac,1,inc,1,z,Thu Aug 28 2025 09:57:38 GMT-0500 (Central Daylight Time),112344.10000014305,window,1100,O,z,,,641,,,16,1,3041.2000000476837,109302.90000009537,7206,temper,AF,B,,,,,,,,,,3
4,prac,1,inc,1,m,Thu Aug 28 2025 09:57:38 GMT-0500 (Central Daylight Time),115128.10000014305,kind,900,O,m,,,567,,,2,1,2776.5,112351.60000014305,7206,rock,AF,B,,,,,,,,,,4
4,prac,1,inc,0,z,Thu Aug 28 2025 09:57:38 GMT-0500 (Central Daylight Time),118157.0,rock,900,O,m,,,828,,,10,1,3023.5,115133.5,7206,kind,AF,B,,,,,,,,,,5
5,prac,1,con,1,m,Thu Aug 28 2025 09:57:38 GMT-0500 (Central Daylight Time),120825.29999995232,step,800,O,m,,,570,,,1,1,2660.0999999046326,118165.20000004768,7206,step,AF,B,,,,,,,,,,6
6,prac,1,con,1,m,Thu Aug 28 2025 09:57:38 GMT-0500 (Central Daylight Time),123791.70000004768,remote,1000,O,m,,,657,,,7,1,2960.2999999523163,120831.40000009537,7206,remote,AF,B,,,,,,,,,,7
7,prac,1,inc,1,m,Thu Aug 28 2025 09:57:38 GMT-0500 (Central Daylight Time),126858.0,hate,1100,O,m,,,666,,,4,1,3059.5999999046326,123798.40000009537,7206,film,AF,B,,,,,,,,,,8
8,prac,1,con,1,z,Thu Aug 28 2025 09:57:38 GMT-0500 (Central Daylight Time),129641.10000014305,rage,1000,O,z,,,467,,,15,1,2777.9000000953674,126863.20000004768,7206,rage,AF,B,,,,,,,,,,9
9,prac,1,con,1,z,Thu Aug 28 2025 09:57:38 GMT-0500 (Central Daylight Time),132321.10000014305,brutal,800,O,z,,,566,,,13,1,2676.600000143051,129644.5,7206,brutal,AF,B,,,,,,,,,,10
10,prac,1,con,1,m,Thu Aug 28 2025 09:57:38 GMT-0500 (Central Daylight Time),134787.10000014305,jacket,800,O,m,,,367,,,5,1,2460.100000143051,132327.0,7206,jacket,AF,B,,,,,,,,,,11
11,prac,1,con,1,m,Thu Aug 28 2025 09:57:38 GMT-0500 (Central Daylight Time),137821.40000009537,bell,1000,O,m,,,759,,,3,1,3025.9000000953674,134795.5,7206,bell,AF,B,,,,,,,,,,12
12,prac,1,con,1,z,Thu Aug 28 2025 09:57:38 GMT-0500 (Central Daylight Time),140651.20000004768,love,1000,O,z,,,529,,,11,1,2824.7000000476837,137826.5,7206,love,AF,B,,,,,,,,,,13
13,prac,1,inc,1,z,Thu Aug 28 2025 09:57:38 GMT-0500 (Central Daylight Time),143816.0,napkin,1100,O,z,,,751,,,12,1,3159.2999999523163,140656.70000004768,7206,friend,AF,B,,,,,,,,,,14
14,prac,1,con,1,z,Thu Aug 28 2025 09:57:38 GMT-0500 (Central Daylight Time),146415.60000014305,elated,800,O,z,,,491,,,9,1,2596.2000000476837,143819.40000009537,7206,elated,AF,B,,,,,,,,,,15
15,prac,1,inc,1,z,Thu Aug 28 2025 09:57:38 GMT-0500 (Central Daylight Time),149317.79999995232,film,900,O,z,,,713,,,14,1,2898.2999999523163,146419.5,7206,hate,AF,B,,,,,,,,,,16
1,test,1,inc,1,m,Thu Aug 28 2025 09:57:38 GMT-0500 (Central Daylight Time),160479.60000014305,rage,800,O,m,m,None,769,553.0,216.0,77,1,2108.300000190735,158371.29999995232,7206,rock,AF,B,157748,157748,156205,157016,156206,158314,157531,157531,158314,1
2,test,1,con,1,z,Thu Aug 28 2025 09:57:38 GMT-0500 (Central Daylight Time),162378.5,temper,900,O,z,z,None,481,282.0,199.0,58,1,1894.5999999046326,160483.90000009537,7206,temper,AF,B,159930,159930,158318,159229,158318,160213,159730,159730,160213,2
3,test,1,con,1,m,Thu Aug 28 2025 09:57:38 GMT-0500 (Central Daylight Time),164177.20000004768,jacket,800,O,m,m,None,449,250.0,199.0,97,1,1793.2000000476837,162384.0,7206,jacket,AF,B,161746,161746,160218,161031,160218,162011,161546,161546,162011,3
4,test,1,inc,1,m,Thu Aug 28 2025 09:57:38 GMT-0500 (Central Daylight Time),166343.0,temper,1000,O,m,m,None,617,417.0,200.0,111,1,2157.5999999046326,164185.40000009537,7206,napkin,AF,B,163746,163746,162019,163028,162020,164177,163545,163545,164177,4
5,test,1,inc,1,m,Thu Aug 28 2025 09:57:38 GMT-0500 (Central Daylight Time),168942.79999995232,friend,1100,O,m,m,None,952,752.0,200.0,112,1,2596.699999809265,166346.10000014305,7206,napkin,AF,B,166011,166011,164180,165295,164180,166777,165811,165811,166777,5
6,test,1,con,1,z,Thu Aug 28 2025 09:57:38 GMT-0500 (Central Daylight Time),171091.5,friend,800,O,z,z,None,806,607.0,199.0,25,1,2144.2999999523163,168947.20000004768,7206,friend,AF,B,168310,168310,166781,167593,166782,168926,168110,168110,168925,6
7,test,1,inc,1,m,Thu Aug 28 2025 09:57:38 GMT-0500 (Central Daylight Time),173258.0,love,1000,O,m,m,None,617,418.0,199.0,95,1,2159.5999999046326,171098.40000009537,7206,film,AF,B,170659,170659,168932,169943,168933,171092,170459,170459,171092,7
8,test,1,inc,1,m,Thu Aug 28 2025 09:57:38 GMT-0500 (Central Daylight Time),175674.79999995232,love,1000,O,m,m,None,868,669.0,199.0,87,1,2409.2999999523163,173265.5,7206,bell,AF,B,172825,172825,171099,172110,171100,173509,172625,172625,173509,8
9,test,1,inc,1,m,Thu Aug 28 2025 09:57:38 GMT-0500 (Central Daylight Time),177789.5,elated,800,O,m,m,None,769,554.0,215.0,109,1,2106.2000000476837,175683.29999995232,7206,napkin,AF,B,175058,175058,173517,174326,173518,175624,174841,174842,175623,9
10,test,1,con,1,z,Thu Aug 28 2025 09:57:38 GMT-0500 (Central Daylight Time),179906.70000004768,kind,800,O,z,z,None,774,575.0,199.0,9,1,2110.4000000953674,177796.29999995232,7206,kind,AF,B,177157,177157,175630,176441,175631,177741,176957,176957,177741,10
11,test,1,con,1,m,Thu Aug 28 2025 09:57:38 GMT-0500 (Central Daylight Time),181671.70000004768,window,800,O,m,m,None,426,227.0,199.0,121,1,1758.5999999046326,179913.10000014305,7206,window,AF,B,179273,179273,177747,178558,177747,179506,179073,179073,179506,11
12,test,1,con,1,z,Thu Aug 28 2025 09:57:38 GMT-0500 (Central Daylight Time),183954.20000004768,temper,1000,O,z,z,None,755,556.0,199.0,59,1,2275.7999999523163,181678.40000009537,7206,temper,AF,B,181224,181224,179512,180522,179513,181788,181023,181024,181788,12
13,test,1,con,1,z,Thu Aug 28 2025 09:57:38 GMT-0500 (Central Daylight Time),185988.0,hate,1000,O,z,z,None,486,285.0,201.0,43,1,2027.2999999523163,183960.70000004768,7206,hate,AF,B,183522,183522,181795,182806,181795,183822,183321,183321,183822,13
14,test,1,inc,1,z,Thu Aug 28 2025 09:57:38 GMT-0500 (Central Daylight Time),188320.40000009537,film,1100,O,z,z,None,686,486.0,200.0,48,1,2325.9000000953674,185994.5,7206,hate,AF,B,185654,185654,183829,184938,183829,186155,185454,185454,186154,14
15,test,1,inc,1,z,Thu Aug 28 2025 09:57:38 GMT-0500 (Central Daylight Time),190620.60000014305,rock,900,O,z,z,None,857,656.0,201.0,22,1,2294.2000000476837,188326.40000009537,7206,love,AF,B,187788,187788,186160,187070,186161,188455,187586,187586,188455,15
16,test,1,con,1,z,Thu Aug 28 2025 09:57:38 GMT-0500 (Central Daylight Time),192701.20000004768,love,1000,O,z,z,None,546,347.0,199.0,19,1,2074.5999999046326,190626.60000014305,7206,love,AF,B,190186,190186,188461,189471,188461,190535,189986,189986,190535,16
17,test,1,inc,1,m,Thu Aug 28 2025 09:57:38 GMT-0500 (Central Daylight Time),195101.90000009537,friend,1100,O,m,m,None,771,572.0,199.0,104,1,2393.9000000953674,192708.0,7206,jacket,AF,B,192352,192352,190542,191652,190542,192936,192153,192153,192936,17
18,test,1,con,1,z,Thu Aug 28 2025 09:57:38 GMT-0500 (Central Daylight Time),197317.5,friend,900,O,z,z,None,772,572.0,200.0,26,1,2210.0999999046326,195107.40000009537,7206,friend,AF,B,194569,194569,192941,193852,192942,195152,194369,194369,195151,18
19,test,1,inc,1,m,Thu Aug 28 2025 09:57:38 GMT-0500 (Central Daylight Time),199500.10000014305,brutal,900,O,m,m,None,746,547.0,199.0,110,1,2177.300000190735,197322.79999995232,7206,napkin,AF,B,196785,196785,195157,196069,195157,197334,196586,196586,197334,19
20,test,1,inc,1,m,Thu Aug 28 2025 09:57:38 GMT-0500 (Central Daylight Time),201548.5,rage,800,O,m,m,None,702,503.0,199.0,85,1,2043.3999998569489,199505.10000014305,7206,bell,AF,B,198869,198869,197339,198151,197339,199383,198669,198669,199382,20
21,test,1,con,1,z,Thu Aug 28 2025 09:57:38 GMT-0500 (Central Daylight Time),203815.29999995232,elated,1000,O,z,z,None,725,526.0,199.0,3,1,2260.5,201554.79999995232,7206,elated,AF,B,201118,201118,199389,200401,199389,201649,200918,200918,201649,21
22,test,1,con,1,m,Thu Aug 28 2025 09:57:38 GMT-0500 (Central Daylight Time),206013.90000009537,bell,900,O,m,m,None,752,553.0,199.0,82,1,2194.4000000953674,203819.5,7206,bell,AF,B,203282,203282,201654,202567,201654,203848,203082,203082,203848,22
23,test,1,con,1,z,Thu Aug 28 2025 09:57:38 GMT-0500 (Central Daylight Time),208132.5,brutal,1000,O,z,z,None,572,373.0,199.0,35,1,2114.7999999523163,206017.70000004768,7206,brutal,AF,B,205583,205583,203852,204866,203852,205967,205383,205383,205967,23
24,test,1,inc,1,m,Thu Aug 28 2025 09:57:38 GMT-0500 (Central Daylight Time),210481.29999995232,hate,1100,O,m,m,None,710,493.0,217.0,72,1,2342.7999999523163,208138.5,7206,step,AF,B,207816,207816,205973,207081,205973,208315,207599,207599,208315,24
25,test,1,con,1,m,Thu Aug 28 2025 09:57:38 GMT-0500 (Central Daylight Time),212397.20000004768,napkin,900,O,m,m,None,472,273.0,199.0,106,1,1911.9000000953674,210485.29999995232,7206,napkin,AF,B,209947,209948,208319,209230,208320,210231,209748,209748,210231,25
26,test,1,inc,1,z,Thu Aug 28 2025 09:57:38 GMT-0500 (Central Daylight Time),214929.60000014305,window,1100,O,z,z,None,893,678.0,215.0,64,1,2527.4000000953674,212402.20000004768,7206,temper,AF,B,212079,212079,210236,211348,210236,212764,211864,211864,212764,26
27,test,1,inc,1,m,Thu Aug 28 2025 09:57:38 GMT-0500 (Central Daylight Time),217011.60000014305,kind,900,O,m,m,None,639,424.0,215.0,70,1,2078.100000143051,214933.5,7206,step,AF,B,214413,214413,212768,213680,212768,214846,214197,214197,214846,27
28,test,1,con,1,m,Thu Aug 28 2025 09:57:38 GMT-0500 (Central Daylight Time),219127.40000009537,remote,900,O,m,m,None,669,470.0,199.0,114,1,2110.7000000476837,217016.70000004768,7206,remote,AF,B,216479,216479,214851,215763,214851,216961,216280,216280,216961,28
29,test,1,inc,1,z,Thu Aug 28 2025 09:57:38 GMT-0500 (Central Daylight Time),221444.90000009537,remote,1000,O,z,z,None,784,582.0,202.0,63,1,2312.2999999523163,219132.60000014305,7206,temper,AF,B,218696,218697,216967,217979,216967,219279,218494,218494,219279,29
30,test,1,inc,1,z,Thu Aug 28 2025 09:57:38 GMT-0500 (Central Daylight Time),223760.20000004768,film,1100,O,z,z,None,669,470.0,199.0,56,1,2309.0,221451.20000004768,7206,rage,AF,B,221110,221111,219285,220394,219285,221594,220911,220911,221594,30
31,test,1,con,1,m,Thu Aug 28 2025 09:57:38 GMT-0500 (Central Daylight Time),225808.60000014305,rock,900,O,m,m,None,610,411.0,199.0,74,1,2043.1000001430511,223765.5,7206,rock,AF,B,223226,223226,221600,222510,221600,223643,223027,223027,223643,31
32,test,1,con,1,z,Thu Aug 28 2025 09:57:38 GMT-0500 (Central Daylight Time),228175.5,rage,1000,O,z,z,None,817,616.0,201.0,51,1,2362.5,225813.0,7206,rage,AF,B,225376,225376,223647,224659,223647,226010,225175,225175,226010,32
33,test,1,con,1,z,Thu Aug 28 2025 09:57:38 GMT-0500 (Central Daylight Time),230490.60000014305,brutal,1100,O,z,z,None,685,483.0,202.0,36,1,2307.800000190735,228182.79999995232,7206,brutal,AF,B,227842,227842,226017,227125,226017,228325,227640,227640,228325,33
34,test,1,inc,1,m,Thu Aug 28 2025 09:57:38 GMT-0500 (Central Daylight Time),232622.20000004768,temper,1000,O,m,m,None,594,394.0,200.0,127,1,2128.7999999523163,230493.40000009537,7206,window,AF,B,230059,230060,228327,229340,228328,230456,229859,229859,230456,34
35,test,1,inc,1,z,Thu Aug 28 2025 09:57:38 GMT-0500 (Central Daylight Time),234972.29999995232,film,1100,O,z,z,None,699,483.0,216.0,24,1,2345.399999856949,232626.90000009537,7206,love,AF,B,232308,232308,230461,231576,230461,232806,232091,232091,232806,35
36,test,1,con,1,z,Thu Aug 28 2025 09:57:38 GMT-0500 (Central Daylight Time),237556.20000004768,kind,1100,O,z,z,None,949,747.0,202.0,12,1,2576.5999999046326,234979.60000014305,7206,kind,AF,B,234643,234643,232814,233924,232814,235390,234440,234440,235390,36
37,test,1,con,1,z,Thu Aug 28 2025 09:57:38 GMT-0500 (Central Daylight Time),239554.90000009537,brutal,800,O,z,z,None,682,466.0,216.0,33,1,1993.2000000476837,237561.70000004768,7206,brutal,AF,B,236923,236923,235396,236206,235396,237389,236707,236707,237389,37
38,test,1,inc,1,m,Thu Aug 28 2025 09:57:38 GMT-0500 (Central Daylight Time),241903.20000004768,temper,1000,O,m,m,None,803,604.0,199.0,119,1,2343.7000000476837,239559.5,7206,remote,AF,B,239121,239121,237394,238405,237394,239737,238922,238922,239737,38
39,test,1,inc,1,z,Thu Aug 28 2025 09:57:38 GMT-0500 (Central Daylight Time),244069.5,bell,1000,O,z,z,None,630,431.0,199.0,15,1,2160.0999999046326,241909.40000009537,7206,kind,AF,B,241470,241470,239743,240757,239744,241904,241271,241271,241904,39
40,test,1,inc,1,m,Thu Aug 28 2025 09:57:38 GMT-0500 (Central Daylight Time),246187.10000014305,brutal,900,O,m,m,None,682,467.0,215.0,102,1,2112.0,244075.10000014305,7206,jacket,AF,B,243537,243537,241909,242821,241909,244021,243322,243322,244021,40
41,test,1,inc,1,z,Thu Aug 28 2025 09:57:38 GMT-0500 (Central Daylight Time),248500.10000014305,remote,1000,O,z,z,None,771,572.0,199.0,31,1,2307.4000000953674,246192.70000004768,7206,friend,AF,B,245752,245752,244027,245037,244027,246334,245553,245553,246334,41
42,test,1,con,1,z,Thu Aug 28 2025 09:57:38 GMT-0500 (Central Daylight Time),250984.10000014305,temper,1100,O,z,z,None,843,628.0,215.0,60,1,2478.800000190735,248505.29999995232,7206,temper,AF,B,248185,248185,246339,247452,246340,248818,247970,247970,248818,42
43,test,1,con,1,m,Thu Aug 28 2025 09:57:38 GMT-0500 (Central Daylight Time),252882.5,window,900,O,m,m,None,463,264.0,199.0,122,1,1893.2999999523163,250989.20000004768,7206,window,AF,B,250435,250435,248823,249734,248824,250717,250236,250236,250717,43
44,test,1,inc,1,m,Thu Aug 28 2025 09:57:38 GMT-0500 (Central Daylight Time),255082.70000004768,brutal,900,O,m,m,None,758,544.0,214.0,126,1,2196.9000000953674,252885.79999995232,7206,window,AF,B,252366,252366,250720,251635,250720,252917,252152,252152,252917,44
45,test,1,inc,1,m,Thu Aug 28 2025 09:57:38 GMT-0500 (Central Daylight Time),257332.10000014305,love,1000,O,m,m,None,700,500.0,200.0,71,1,2244.2000000476837,255087.90000009537,7206,step,AF,B,254650,254650,252922,253934,252922,255166,254450,254450,255166,45
46,test,1,con,1,z,Thu Aug 28 2025 09:57:38 GMT-0500 (Central Daylight Time),259415.20000004768,kind,900,O,z,z,None,645,446.0,199.0,10,1,2077.2000000476837,257338.0,7206,kind,AF,B,256798,256798,255172,256084,255172,257249,256598,256598,257249,46
47,test,1,con,1,m,Thu Aug 28 2025 09:57:38 GMT-0500 (Central Daylight Time),261230.10000014305,napkin,800,O,m,m,None,478,277.0,201.0,105,1,1810.7000000476837,259419.40000009537,7206,napkin,AF,B,258783,258783,257253,258066,257254,259064,258582,258582,259064,47
48,test,1,inc,1,z,Thu Aug 28 2025 09:57:38 GMT-0500 (Central Daylight Time),263396.90000009537,bell,1000,O,z,z,None,646,446.0,200.0,47,1,2161.600000143051,261235.29999995232,7206,hate,AF,B,260782,260783,259069,260081,259070,261231,260582,260582,261231,48
49,test,1,inc,1,z,Thu Aug 28 2025 09:57:38 GMT-0500 (Central Daylight Time),266162.2999999523,window,1100,O,z,z,None,1132,932.0,200.0,32,1,2762.699999809265,263399.60000014305,7206,friend,AF,B,263064,263064,261234,262349,261234,263996,262863,262863,263996,49
50,test,1,inc,1,m,Thu Aug 28 2025 09:57:38 GMT-0500 (Central Daylight Time),268078.7999999523,rage,800,O,m,m,None,570,371.0,199.0,93,1,1913.8999998569489,266164.90000009537,7206,film,AF,B,265530,265530,263999,264813,263999,265913,265330,265330,265913,50
51,test,1,con,1,m,Thu Aug 28 2025 09:57:38 GMT-0500 (Central Daylight Time),270227.5,jacket,900,O,m,m,None,714,515.0,199.0,98,1,2143.0,268084.5,7206,jacket,AF,B,267530,267530,265919,266830,265919,268062,267331,267331,268061,51
52,test,1,inc,1,z,Thu Aug 28 2025 09:57:38 GMT-0500 (Central Daylight Time),272242.60000014305,jacket,800,O,z,z,None,696,497.0,199.0,29,1,2009.0,270233.60000014305,7206,friend,AF,B,269579,269579,268068,268878,268068,270077,269379,269379,270077,52
53,test,1,con,1,m,Thu Aug 28 2025 09:57:38 GMT-0500 (Central Daylight Time),274010.10000014305,bell,800,O,m,m,None,434,232.0,202.0,81,1,1762.8000001907349,272247.2999999523,7206,bell,AF,B,271597,271597,270081,270894,270082,271844,271395,271395,271844,53
54,test,1,inc,1,z,Thu Aug 28 2025 09:57:38 GMT-0500 (Central Daylight Time),276061.7000000477,napkin,900,O,z,z,None,606,391.0,215.0,30,1,2044.5999999046326,274017.10000014305,7206,friend,AF,B,273493,273493,271851,272761,271852,273896,273278,273278,273896,54
55,test,1,con,1,z,Thu Aug 28 2025 09:57:38 GMT-0500 (Central Daylight Time),277974.10000014305,elated,800,O,z,z,None,578,377.0,201.0,1,1,1908.0,276066.10000014305,7206,elated,AF,B,275428,275428,273900,274710,273900,275808,275227,275227,275808,55
56,test,1,inc,1,z,Thu Aug 28 2025 09:57:38 GMT-0500 (Central Daylight Time),280041.5,step,800,O,z,z,None,742,542.0,200.0,21,1,2062.899999856949,277978.60000014305,7206,love,AF,B,277327,277327,275813,276625,275813,277876,277127,277127,277876,56
57,test,1,con,1,m,Thu Aug 28 2025 09:57:38 GMT-0500 (Central Daylight Time),282274.40000009537,step,1100,O,m,m,None,599,383.0,216.0,68,1,2228.600000143051,280045.7999999523,7206,step,AF,B,279709,279709,277880,278991,277880,280108,279493,279493,280108,57
58,test,1,con,1,m,Thu Aug 28 2025 09:57:38 GMT-0500 (Central Daylight Time),284172.10000014305,step,900,O,m,m,None,452,238.0,214.0,66,1,1892.7000000476837,282279.40000009537,7206,step,AF,B,281758,281758,280113,281025,280114,282006,281544,281544,282006,58
59,test,1,con,1,m,Thu Aug 28 2025 09:57:38 GMT-0500 (Central Daylight Time),286205.2000000477,napkin,1100,O,m,m,None,392,180.0,212.0,108,1,2026.0,284179.2000000477,7206,napkin,AF,B,283855,283855,282013,283124,282014,284039,283643,283643,284039,59
60,test,1,inc,1,z,Thu Aug 28 2025 09:57:38 GMT-0500 (Central Daylight Time),288471.40000009537,bell,1000,O,z,z,None,733,516.0,217.0,23,1,2263.5,286207.90000009537,7206,love,AF,B,285776,285776,284042,285057,284042,286305,285558,285558,286305,60
61,test,1,con,1,m,Thu Aug 28 2025 09:57:38 GMT-0500 (Central Daylight Time),290687.0,film,800,O,m,m,None,884,685.0,199.0,89,1,2208.2999999523163,288478.7000000477,7206,film,AF,B,287823,287823,286313,287122,286313,288521,287623,287623,288521,61
62,test,1,con,1,m,Thu Aug 28 2025 09:57:38 GMT-0500 (Central Daylight Time),292904.10000014305,remote,1000,O,m,m,None,670,471.0,199.0,115,1,2207.600000143051,290696.5,7206,remote,AF,B,290254,290254,288531,289540,288531,290738,290055,290055,290738,62
63,test,1,con,1,z,Thu Aug 28 2025 09:57:38 GMT-0500 (Central Daylight Time),295269.2000000477,elated,1100,O,z,z,None,728,514.0,214.0,4,1,2359.0,292910.2000000477,7206,elated,AF,B,292586,292587,290744,291854,290744,293103,292372,292372,293103,63
64,test,1,inc,1,m,Thu Aug 28 2025 09:57:38 GMT-0500 (Central Daylight Time),297451.7999999523,kind,900,O,m,m,None,748,547.0,201.0,86,1,2175.5,295276.2999999523,7206,bell,AF,B,294737,294737,293110,294019,293111,295286,294536,294536,295286,64
65,test,1,inc,1,z,Thu Aug 28 2025 09:57:38 GMT-0500 (Central Daylight Time),299884.60000014305,window,1100,O,z,z,None,791,590.0,201.0,40,1,2427.300000190735,297457.2999999523,7206,brutal,AF,B,297120,297120,295291,296402,295292,297719,296919,296919,297719,65
66,test,1,con,1,z,Thu Aug 28 2025 09:57:38 GMT-0500 (Central Daylight Time),301950.5,love,900,O,z,z,None,628,428.0,200.0,18,1,2059.2999999523163,299891.2000000477,7206,love,AF,B,299352,299352,297725,298636,297726,299785,299152,299152,299785,66
67,test,1,inc,1,z,Thu Aug 28 2025 09:57:38 GMT-0500 (Central Daylight Time),303917.0,step,800,O,z,z,None,639,439.0,200.0,45,1,1958.7000000476837,301958.2999999523,7206,hate,AF,B,301302,301302,299792,300601,299793,301751,301102,301102,301751,67
67,test,1,con,0,z,Thu Aug 28 2025 09:57:38 GMT-0500 (Central Daylight Time),305949.2999999523,friend,1000,O,m,m,None,509,296.0,213.0,27,1,2025.5999999046326,303923.7000000477,7206,friend,AF,B,303483,303484,301758,302768,301758,303783,303270,303270,303783,68
68,test,1,con,1,m,Thu Aug 28 2025 09:57:38 GMT-0500 (Central Daylight Time),307916.60000014305,rock,800,O,m,m,None,622,422.0,200.0,73,1,1962.5,305954.10000014305,7206,rock,AF,B,305318,305318,303788,304603,303788,305751,305117,305117,305751,69
69,test,1,inc,1,m,Thu Aug 28 2025 09:57:38 GMT-0500 (Central Daylight Time),310147.90000009537,kind,900,O,m,m,None,799,585.0,214.0,78,1,2227.600000143051,307920.2999999523,7206,rock,AF,B,307382,307382,305754,306666,305755,307982,307168,307168,307982,70
70,test,1,con,1,m,Thu Aug 28 2025 09:57:38 GMT-0500 (Central Daylight Time),312466.2999999523,rock,1100,O,m,m,None,677,476.0,201.0,76,1,2311.7999999523163,310154.5,7206,rock,AF,B,309816,309816,307989,309101,307989,310300,309615,309615,310300,71
71,test,1,inc,1,z,Thu Aug 28 2025 09:57:38 GMT-0500 (Central Daylight Time),314663.2000000477,bell,1000,O,z,z,None,667,468.0,199.0,55,1,2191.2999999523163,312471.90000009537,7206,rage,AF,B,312016,312016,310306,311314,310306,312497,311816,311816,312497,72
72,test,1,con,1,z,Thu Aug 28 2025 09:57:38 GMT-0500 (Central Daylight Time),316695.10000014305,rage,900,O,z,z,None,591,391.0,200.0,50,1,2026.4000000953674,314668.7000000477,7206,rage,AF,B,314132,314132,312503,313415,312503,314529,313931,313931,314529,73
73,test,1,inc,1,z,Thu Aug 28 2025 09:57:38 GMT-0500 (Central Daylight Time),318645.90000009537,jacket,800,O,z,z,None,607,407.0,200.0,61,1,1948.0,316697.90000009537,7206,temper,AF,B,316063,316063,314532,315348,314532,316480,315863,315863,316480,74
74,test,1,con,1,m,Thu Aug 28 2025 09:57:38 GMT-0500 (Central Daylight Time),320811.5,napkin,1000,O,m,m,None,622,422.0,200.0,107,1,2158.2000000476837,318653.2999999523,7206,napkin,AF,B,318214,318214,316487,317496,316488,318646,318013,318013,318646,75
75,test,1,con,1,m,Thu Aug 28 2025 09:57:38 GMT-0500 (Central Daylight Time),323027.60000014305,step,1000,O,m,m,None,690,489.0,201.0,67,1,2210.300000190735,320817.2999999523,7206,step,AF,B,320363,320363,318651,319660,318652,320862,320162,320162,320862,76
76,test,1,inc,1,m,Thu Aug 28 2025 09:57:38 GMT-0500 (Central Daylight Time),325175.90000009537,rage,800,O,m,m,None,800,601.0,199.0,69,1,2142.600000143051,323033.2999999523,7206,step,AF,B,322395,322395,320867,321678,320868,323010,322196,322196,323010,77
77,test,1,con,1,z,Thu Aug 28 2025 09:57:38 GMT-0500 (Central Daylight Time),327510.10000014305,hate,1100,O,z,z,None,683,483.0,200.0,44,1,2329.0,325181.10000014305,7206,hate,AF,B,324844,324845,323015,324128,323015,325344,324644,324644,325344,78
78,test,1,inc,1,m,Thu Aug 28 2025 09:57:38 GMT-0500 (Central Daylight Time),329609.0,elated,800,O,m,m,None,761,561.0,200.0,101,1,2093.7999999523163,327515.2000000477,7206,jacket,AF,B,326877,326877,325349,326160,325349,327443,326677,326677,327443,79
79,test,1,con,1,m,Thu Aug 28 2025 09:57:38 GMT-0500 (Central Daylight Time),331757.7999999523,rock,1000,O,m,m,None,611,412.0,199.0,75,1,2144.0,329613.7999999523,7206,rock,AF,B,329176,329176,327448,328461,327448,329592,328976,328976,329592,80
80,test,1,inc,1,m,Thu Aug 28 2025 09:57:38 GMT-0500 (Central Daylight Time),333807.2999999523,elated,800,O,m,m,None,711,511.0,200.0,117,1,2043.5999999046326,331763.7000000477,7206,remote,AF,B,331125,331125,329598,330408,329598,331641,330924,330924,331641,81
81,test,1,inc,1,m,Thu Aug 28 2025 09:57:38 GMT-0500 (Central Daylight Time),336006.5,temper,1000,O,m,m,None,661,462.0,199.0,103,1,2195.2999999523163,333811.2000000477,7206,jacket,AF,B,333374,333374,331645,332657,331645,333841,333174,333174,333840,82
82,test,1,con,1,z,Thu Aug 28 2025 09:57:38 GMT-0500 (Central Daylight Time),338155.5,friend,1100,O,z,z,None,513,314.0,199.0,28,1,2143.7999999523163,336011.7000000477,7206,friend,AF,B,335674,335674,333846,334958,333846,335990,335474,335474,335990,83
83,test,1,inc,1,z,Thu Aug 28 2025 09:57:38 GMT-0500 (Central Daylight Time),340355.90000009537,remote,1000,O,z,z,None,657,455.0,202.0,7,1,2197.2999999523163,338158.60000014305,7206,elated,AF,B,337725,337725,335993,337008,335993,338190,337523,337523,338190,84
84,test,1,con,1,z,Thu Aug 28 2025 09:57:38 GMT-0500 (Central Daylight Time),342354.7999999523,elated,900,O,z,z,None,574,374.0,200.0,2,1,1995.5,340359.2999999523,7206,elated,AF,B,339807,339807,338193,339106,338194,340189,339607,339607,340189,85
85,test,1,inc,1,z,Thu Aug 28 2025 09:57:38 GMT-0500 (Central Daylight Time),344353.2000000477,step,800,O,z,z,None,656,457.0,199.0,53,1,1992.5999999046326,342360.60000014305,7206,rage,AF,B,341723,341723,340195,341005,340195,342187,341523,341523,342187,86
86,test,1,inc,1,z,Thu Aug 28 2025 09:57:38 GMT-0500 (Central Daylight Time),346505.40000009537,rock,900,O,z,z,None,703,487.0,216.0,54,1,2148.9000000953674,344356.5,7206,rage,AF,B,343837,343837,342191,343106,342191,344339,343621,343621,344339,87
87,test,1,inc,1,z,Thu Aug 28 2025 09:57:38 GMT-0500 (Central Daylight Time),348836.40000009537,remote,1000,O,z,z,None,791,591.0,200.0,39,1,2328.2999999523163,346508.10000014305,7206,brutal,AF,B,346069,346069,344342,345356,344342,346671,345869,345869,346670,88
88,test,1,inc,1,z,Thu Aug 28 2025 09:57:38 GMT-0500 (Central Daylight Time),350751.7999999523,jacket,800,O,z,z,None,577,377.0,200.0,37,1,1911.7999999523163,348840.0,7206,brutal,AF,B,348204,348204,346674,347488,346674,348586,348003,348003,348586,89
89,test,1,con,1,m,Thu Aug 28 2025 09:57:38 GMT-0500 (Central Daylight Time),352952.5,bell,1100,O,m,m,None,552,352.0,200.0,84,1,2196.2999999523163,350756.2000000477,7206,bell,AF,B,350420,350420,348590,349703,348591,350787,350219,350219,350787,90
90,test,1,con,1,z,Thu Aug 28 2025 09:57:38 GMT-0500 (Central Daylight Time),355383.2999999523,kind,1000,O,z,z,None,892,692.0,200.0,11,1,2424.899999856949,352958.40000009537,7206,kind,AF,B,352520,352520,350792,351802,350793,353217,352319,352319,353217,91
91,test,1,inc,1,z,Thu Aug 28 2025 09:57:38 GMT-0500 (Central Daylight Time),357366.7000000477,jacket,800,O,z,z,None,637,437.0,200.0,5,1,1977.9000000953674,355388.7999999523,7206,elated,AF,B,354751,354751,353223,354036,353223,355201,354551,354551,355201,92
92,test,1,con,1,m,Thu Aug 28 2025 09:57:38 GMT-0500 (Central Daylight Time),359165.5,remote,800,O,m,m,None,470,271.0,199.0,113,1,1794.7000000476837,357370.7999999523,7206,remote,AF,B,356717,356717,355205,356017,355205,357000,356518,356518,357000,93
93,test,1,con,1,m,Thu Aug 28 2025 09:57:38 GMT-0500 (Central Daylight Time),361182.7999999523,window,1000,O,m,m,None,466,266.0,200.0,123,1,2012.0999999046326,359170.7000000477,7206,window,AF,B,358734,358734,357005,358018,357005,359017,358534,358534,359017,94
94,test,1,con,1,m,Thu Aug 28 2025 09:57:38 GMT-0500 (Central Daylight Time),363232.2999999523,jacket,1100,O,m,m,None,411,211.0,200.0,100,1,2043.5,361188.7999999523,7206,jacket,AF,B,360850,360850,359023,360134,359023,361066,360649,360649,361066,95
95,test,1,inc,1,m,Thu Aug 28 2025 09:57:38 GMT-0500 (Central Daylight Time),365447.40000009537,kind,900,O,m,m,None,769,554.0,215.0,94,1,2210.2000000476837,363237.2000000477,7206,film,AF,B,362715,362715,361071,361983,361072,363281,362500,362500,363281,96
96,test,1,inc,1,m,Thu Aug 28 2025 09:57:38 GMT-0500 (Central Daylight Time),367912.90000009537,friend,1100,O,m,m,None,818,617.0,201.0,120,1,2459.7000000476837,365453.2000000477,7206,remote,AF,B,365115,365115,363287,364399,363287,365747,364914,364914,365747,97
97,test,1,con,1,z,Thu Aug 28 2025 09:57:38 GMT-0500 (Central Daylight Time),369979.5,hate,800,O,z,z,None,733,531.0,202.0,41,1,2062.7000000476837,367916.7999999523,7206,hate,AF,B,367282,367282,365751,366564,365751,367814,367079,367079,367814,98
98,test,1,inc,1,m,Thu Aug 28 2025 09:57:38 GMT-0500 (Central Daylight Time),372228.7999999523,hate,1100,O,m,m,None,605,406.0,199.0,88,1,2243.0999999046326,369985.7000000477,7206,bell,AF,B,369647,369647,367820,368931,367820,370063,369447,369447,370063,99
99,test,1,inc,1,z,Thu Aug 28 2025 09:57:38 GMT-0500 (Central Daylight Time),374377.7999999523,napkin,900,O,z,z,None,701,486.0,215.0,38,1,2144.5,372233.2999999523,7206,brutal,AF,B,371712,371712,370067,370980,370068,372212,371497,371497,372212,100
100,test,1,con,1,m,Thu Aug 28 2025 09:57:38 GMT-0500 (Central Daylight Time),376676.90000009537,film,900,O,m,m,None,865,666.0,199.0,90,1,2294.2999999523163,374382.60000014305,7206,film,AF,B,373845,373845,372217,373131,372217,374511,373646,373646,374511,101
101,test,1,inc,1,z,Thu Aug 28 2025 09:57:38 GMT-0500 (Central Daylight Time),378909.7000000477,film,1100,O,z,z,None,583,383.0,200.0,16,1,2228.5,376681.2000000477,7206,kind,AF,B,376345,376345,374515,375628,374516,376744,376144,376144,376744,102
102,test,1,con,1,m,Thu Aug 28 2025 09:57:38 GMT-0500 (Central Daylight Time),381176.0,jacket,1000,O,m,m,None,734,519.0,215.0,99,1,2261.2000000476837,378914.7999999523,7206,jacket,AF,B,378477,378477,376749,377761,376749,379010,378262,378262,379010,103
103,test,1,inc,1,m,Thu Aug 28 2025 09:57:38 GMT-0500 (Central Daylight Time),383558.2000000477,friend,1100,O,m,m,None,743,528.0,215.0,128,1,2377.0,381181.2000000477,7206,window,AF,B,380860,380860,379015,380126,379016,381392,380645,380645,381392,104
104,test,1,con,1,m,Thu Aug 28 2025 09:57:38 GMT-0500 (Central Daylight Time),385440.90000009537,step,800,O,m,m,None,543,344.0,199.0,65,1,1877.9000000953674,383563.0,7206,step,AF,B,382926,382926,381397,382210,381397,383275,382727,382727,383275,105
105,test,1,inc,1,m,Thu Aug 28 2025 09:57:38 GMT-0500 (Central Daylight Time),387508.2999999523,brutal,900,O,m,m,None,622,423.0,199.0,118,1,2063.399999856949,385444.90000009537,7206,remote,AF,B,384909,384909,383279,384192,383279,385342,384709,384709,385342,106
106,test,1,inc,1,z,Thu Aug 28 2025 09:57:38 GMT-0500 (Central Daylight Time),389422.90000009537,napkin,900,O,z,z,None,496,297.0,199.0,6,1,1910.7999999523163,387512.10000014305,7206,elated,AF,B,386958,386958,385346,386256,385346,387257,386759,386759,387257,107
107,test,1,con,1,m,Thu Aug 28 2025 09:57:38 GMT-0500 (Central Daylight Time),391556.40000009537,window,1100,O,m,m,None,499,300.0,199.0,124,1,2128.9000000953674,389427.5,7206,window,AF,B,389090,389090,387262,388374,387262,389390,388890,388890,389390,108
108,test,1,inc,1,z,Thu Aug 28 2025 09:57:38 GMT-0500 (Central Daylight Time),393637.60000014305,napkin,900,O,z,z,None,644,445.0,199.0,62,1,2075.5,391562.10000014305,7206,temper,AF,B,391023,391023,389396,390307,389396,391472,390824,390824,391472,109
109,test,1,inc,1,m,Thu Aug 28 2025 09:57:38 GMT-0500 (Central Daylight Time),395805.7999999523,hate,1100,O,m,m,None,535,335.0,200.0,80,1,2164.0999999046326,393641.7000000477,7206,rock,AF,B,393305,393305,391476,392589,391476,393640,393105,393105,393640,110
110,test,1,inc,1,z,Thu Aug 28 2025 09:57:38 GMT-0500 (Central Daylight Time),397937.7000000477,rock,900,O,z,z,None,682,469.0,213.0,46,1,2126.9000000953674,395810.7999999523,7206,hate,AF,B,395287,395287,393645,394556,393645,395772,395074,395074,395772,111
111,test,1,con,1,z,Thu Aug 28 2025 09:57:38 GMT-0500 (Central Daylight Time),399770.40000009537,love,800,O,z,z,None,484,270.0,214.0,17,1,1829.1000001430511,397941.2999999523,7206,love,AF,B,397319,397319,395775,396588,395776,397604,397105,397105,397604,112
112,test,1,con,1,z,Thu Aug 28 2025 09:57:38 GMT-0500 (Central Daylight Time),401568.0,temper,800,O,z,z,None,459,259.0,200.0,57,1,1792.5,399775.5,7206,temper,AF,B,399137,399137,397610,398421,397610,399402,398937,398937,399402,113
113,test,1,con,1,m,Thu Aug 28 2025 09:57:38 GMT-0500 (Central Daylight Time),403651.0,film,1100,O,m,m,None,434,235.0,199.0,92,1,2078.5,401572.5,7206,film,AF,B,401235,401235,399407,400521,399407,401485,401035,401036,401485,114
114,test,1,inc,1,z,Thu Aug 28 2025 09:57:38 GMT-0500 (Central Daylight Time),405900.90000009537,window,1100,O,z,z,None,612,412.0,200.0,8,1,2243.100000143051,403657.7999999523,7206,elated,AF,B,403320,403320,401492,402602,401492,403735,403119,403119,403735,115
115,test,1,con,1,m,Thu Aug 28 2025 09:57:38 GMT-0500 (Central Daylight Time),407816.0,bell,1000,O,m,m,None,376,176.0,200.0,83,1,1905.5999999046326,405910.40000009537,7206,bell,AF,B,405468,405468,403744,404751,403745,405650,405267,405267,405650,116
116,test,1,con,1,z,Thu Aug 28 2025 09:57:38 GMT-0500 (Central Daylight Time),409799.2000000477,rage,800,O,z,z,None,643,443.0,200.0,49,1,1976.2000000476837,407823.0,7206,rage,AF,B,407185,407185,405657,406467,405657,407633,406984,406984,407633,117
117,test,1,inc,1,m,Thu Aug 28 2025 09:57:38 GMT-0500 (Central Daylight Time),412131.5,love,1000,O,m,m,None,789,589.0,200.0,79,1,2326.899999856949,409804.60000014305,7206,rock,AF,B,409366,409367,407639,408651,407639,409966,409166,409166,409966,118
118,test,1,con,1,m,Thu Aug 28 2025 09:57:38 GMT-0500 (Central Daylight Time),414348.0,remote,1100,O,m,m,None,581,381.0,200.0,116,1,2208.399999856949,412139.60000014305,7206,remote,AF,B,411799,411799,409974,411082,409974,412182,411599,411599,412182,119
119,test,1,inc,1,z,Thu Aug 28 2025 09:57:38 GMT-0500 (Central Daylight Time),416313.7999999523,step,800,O,z,z,None,618,417.0,201.0,13,1,1961.1999998092651,414352.60000014305,7206,kind,AF,B,413716,413716,412187,412998,412187,414148,413515,413515,414148,120
120,test,1,con,1,z,Thu Aug 28 2025 09:57:38 GMT-0500 (Central Daylight Time),418229.7000000477,brutal,900,O,z,z,None,471,270.0,201.0,34,1,1907.5,416322.2000000477,7206,brutal,AF,B,415782,415782,414156,415064,414156,416064,415581,415581,416064,121
121,test,1,con,1,z,Thu Aug 28 2025 09:57:38 GMT-0500 (Central Daylight Time),420262.2000000477,love,1100,O,z,z,None,395,196.0,199.0,20,1,2025.2999999523163,418236.90000009537,7206,love,AF,B,417897,417897,416071,417181,416071,418096,417697,417697,418096,122
122,test,1,inc,1,z,Thu Aug 28 2025 09:57:38 GMT-0500 (Central Daylight Time),422295.2000000477,rock,900,O,z,z,None,586,386.0,200.0,14,1,2025.0,420270.2000000477,7206,kind,AF,B,419730,419730,418104,419014,418104,420129,419530,419530,420129,123
123,test,1,inc,1,m,Thu Aug 28 2025 09:57:38 GMT-0500 (Central Daylight Time),424178.7999999523,elated,800,O,m,m,None,537,337.0,200.0,125,1,1875.8999998569489,422302.90000009537,7206,window,AF,B,421662,421662,420137,420945,420137,422013,421462,421462,422013,124
124,test,1,inc,1,m,Thu Aug 28 2025 09:57:38 GMT-0500 (Central Daylight Time),426577.2999999523,hate,1100,O,m,m,None,765,550.0,215.0,96,1,2393.0,424184.2999999523,7206,film,AF,B,423846,423846,422018,423128,422019,424411,423630,423630,424411,125
125,test,1,con,1,m,Thu Aug 28 2025 09:57:38 GMT-0500 (Central Daylight Time),428659.7999999523,film,1000,O,m,m,None,540,340.0,200.0,91,1,2074.0,426585.7999999523,7206,film,AF,B,426144,426144,424420,425428,424420,426494,425944,425944,426494,126
126,test,1,con,1,z,Thu Aug 28 2025 09:57:38 GMT-0500 (Central Daylight Time),430658.90000009537,hate,900,O,z,z,None,557,357.0,200.0,42,1,1989.1000001430511,428669.7999999523,7206,hate,AF,B,428127,428127,426504,427410,426504,428493,427927,427927,428493,127
127,test,1,con,1,z,Thu Aug 28 2025 09:57:38 GMT-0500 (Central Daylight Time),433108.5,rage,1100,O,z,z,None,805,601.0,204.0,52,1,2443.399999856949,430665.10000014305,7206,rage,AF,B,430331,430331,428499,429610,428499,430943,430126,430126,430943,128
