acc_sum,block,block_c,block_cond,con_img,correct,correct_response,datetime,endtime,face,jitter,line,project,response,response_time,row_sel,session_number,start_end,starttime,subject_id,task,task_vers,trial
1,prac,1,A,haborder.png,1,z,Thu Jul 10 2025 12:55:52 GMT-0400 (Eastern Daylight Time),104715.30000001192,CFD-BF-002-018-A.jpg,1200,solid,I,z,792,6,1,2800.100000023842,101915.19999998808,9024,ATS,C,1
2,prac,1,A,haborder.png,1,z,Thu Jul 10 2025 12:55:52 GMT-0400 (Eastern Daylight Time),108531.69999998808,CFD-WM-036-018-A.jpg,1900,solid,I,z,1101,8,1,6616.5,101915.19999998808,9024,ATS,C,2
3,prac,1,A,haborder.png,1,m,Thu Jul 10 2025 12:55:52 GMT-0400 (Eastern Daylight Time),112531.80000001192,CFD-WM-035-036-HC.jpg,1700,solid,I,m,1483,9,1,10616.600000023842,101915.19999998808,9024,ATS,C,3
4,prac,1,A,haborder.png,1,m,Thu Jul 10 2025 12:55:52 GMT-0400 (Eastern Daylight Time),116448.5,CFD-BM-034-035-HC.jpg,1700,solid,I,m,1404,1,1,14533.300000011921,101915.19999998808,9024,ATS,C,4
5,prac,1,A,haborder.png,1,z,Thu Jul 10 2025 12:55:52 GMT-0400 (Eastern Daylight Time),119015.0,CFD-WF-023-013-A.jpg,1000,solid,I,z,762,12,1,17099.80000001192,101915.19999998808,9024,ATS,C,5
6,prac,1,A,haborder.png,1,z,Thu Jul 10 2025 12:55:52 GMT-0400 (Eastern Daylight Time),122531.69999998808,CFD-BM-043-014-A.jpg,1600,solid,I,z,1101,2,1,20616.5,101915.19999998808,9024,ATS,C,6
7,prac,1,A,haborder.png,1,m,Thu Jul 10 2025 12:55:52 GMT-0400 (Eastern Daylight Time),125465.09999999404,CFD-BM-022-004-HC.jpg,1500,solid,I,m,628,3,1,23549.90000000596,101915.19999998808,9024,ATS,C,7
8,prac,1,A,haborder.png,1,m,Thu Jul 10 2025 12:55:52 GMT-0400 (Eastern Daylight Time),128765.19999998808,CFD-WF-013-009-HC.jpg,1500,solid,I,m,1008,11,1,26850.0,101915.19999998808,9024,ATS,C,8
9,prac,1,A,haborder.png,1,z,Thu Jul 10 2025 12:55:52 GMT-0400 (Eastern Daylight Time),131431.90000000596,CFD-BF-031-020-A.jpg,1000,solid,I,z,863,4,1,29516.70000001788,101915.19999998808,9024,ATS,C,9
10,prac,1,A,haborder.png,1,m,Thu Jul 10 2025 12:55:52 GMT-0400 (Eastern Daylight Time),135331.5,CFD-BF-019-004-HC.jpg,2000,solid,I,m,1085,5,1,33416.30000001192,101915.19999998808,9024,ATS,C,10
11,prac,1,A,haborder.png,1,m,Thu Jul 10 2025 12:55:52 GMT-0400 (Eastern Daylight Time),138314.59999999404,CFD-WM-028-005-HC.jpg,1400,solid,I,m,776,7,1,36399.40000000596,101915.19999998808,9024,ATS,C,11
12,prac,1,A,haborder.png,1,z,Thu Jul 10 2025 12:55:52 GMT-0400 (Eastern Daylight Time),141448.40000000596,CFD-WF-037-016-A.jpg,1600,solid,I,z,746,10,1,39533.20000001788,101915.19999998808,9024,ATS,C,12
1,prac,1,B,mfborder.png,1,z,Thu Jul 10 2025 12:55:52 GMT-0400 (Eastern Daylight Time),200448.40000000596,CFD-BF-042-031-HC.jpg,1500,3,I,z,1137,dash,1,3450.0,196998.40000000596,9024,ATS,C,1
2,prac,1,B,mfborder.png,1,m,Thu Jul 10 2025 12:55:52 GMT-0400 (Eastern Daylight Time),203865.0,CFD-BM-043-014-A.jpg,2000,5,I,m,610,dash,1,6866.5999999940395,196998.40000000596,9024,ATS,C,2
3,prac,1,B,mfborder.png,1,z,Thu Jul 10 2025 12:55:52 GMT-0400 (Eastern Daylight Time),207314.90000000596,CFD-WF-037-016-A.jpg,1500,11,I,z,1134,dash,1,10316.5,196998.40000000596,9024,ATS,C,3
4,prac,1,B,mfborder.png,1,z,Thu Jul 10 2025 12:55:52 GMT-0400 (Eastern Daylight Time),210515.09999999404,CFD-WF-013-009-HC.jpg,1000,12,I,z,1385,dash,1,13516.699999988079,196998.40000000596,9024,ATS,C,4
5,prac,1,B,mfborder.png,1,m,Thu Jul 10 2025 12:55:52 GMT-0400 (Eastern Daylight Time),213731.80000001192,CFD-WM-034-040-A.jpg,1200,6,I,m,1200,dash,1,16733.40000000596,196998.40000000596,9024,ATS,C,5
6,prac,1,B,mfborder.png,1,m,Thu Jul 10 2025 12:55:52 GMT-0400 (Eastern Daylight Time),217548.5,CFD-BM-021-026-A.jpg,1600,2,I,m,1408,dash,1,20550.09999999404,196998.40000000596,9024,ATS,C,6
7,prac,1,B,mfborder.png,1,m,Thu Jul 10 2025 12:55:52 GMT-0400 (Eastern Daylight Time),220998.0,CFD-WM-035-036-HC.jpg,1600,10,I,m,1064,dash,1,23999.59999999404,196998.40000000596,9024,ATS,C,7
8,prac,1,B,mfborder.png,1,m,Thu Jul 10 2025 12:55:52 GMT-0400 (Eastern Daylight Time),224381.69999998808,CFD-WM-036-018-A.jpg,1700,9,I,m,890,dash,1,27383.29999998212,196998.40000000596,9024,ATS,C,8
9,prac,1,B,mfborder.png,1,z,Thu Jul 10 2025 12:55:52 GMT-0400 (Eastern Daylight Time),228348.40000000596,CFD-WF-001-010-HC.jpg,1900,8,I,z,1258,dash,1,31350.0,196998.40000000596,9024,ATS,C,9
10,prac,1,B,mfborder.png,1,m,Thu Jul 10 2025 12:55:52 GMT-0400 (Eastern Daylight Time),231565.0,CFD-BM-022-004-HC.jpg,1700,1,I,m,722,dash,1,34566.59999999404,196998.40000000596,9024,ATS,C,10
11,prac,1,B,mfborder.png,1,z,Thu Jul 10 2025 12:55:52 GMT-0400 (Eastern Daylight Time),234065.0,CFD-BF-031-020-A.jpg,1000,4,I,z,688,dash,1,37066.59999999404,196998.40000000596,9024,ATS,C,11
12,prac,1,B,mfborder.png,1,z,Thu Jul 10 2025 12:55:52 GMT-0400 (Eastern Daylight Time),237764.80000001192,CFD-BF-019-004-HC.jpg,1400,7,I,z,1483,dash,1,40766.40000000596,196998.40000000596,9024,ATS,C,12
1,test,1,A,haborder.png,1,m,Thu Jul 10 2025 12:55:52 GMT-0400 (Eastern Daylight Time),264664.6999999881,CFD-BM-022-004-HC.jpg,1500,solid,I,m,1178,3,1,2699.5999999940395,261965.09999999404,9024,ATS,C,1
2,test,1,A,haborder.png,1,m,Thu Jul 10 2025 12:55:52 GMT-0400 (Eastern Daylight Time),266931.6999999881,CFD-BM-022-004-HC.jpg,1500,solid,I,m,734,3,1,4966.5999999940395,261965.09999999404,9024,ATS,C,2
3,test,1,A,haborder.png,1,m,Thu Jul 10 2025 12:55:52 GMT-0400 (Eastern Daylight Time),269748.1999999881,CFD-WF-013-009-HC.jpg,1500,solid,I,m,1285,11,1,7783.0999999940395,261965.09999999404,9024,ATS,C,3
4,test,1,A,haborder.png,1,z,Thu Jul 10 2025 12:55:52 GMT-0400 (Eastern Daylight Time),272315.0,CFD-BM-043-014-A.jpg,1600,solid,I,z,944,2,1,10349.90000000596,261965.09999999404,9024,ATS,C,4
5,test,1,A,haborder.png,1,m,Thu Jul 10 2025 12:55:52 GMT-0400 (Eastern Daylight Time),274681.6999999881,CFD-WM-028-005-HC.jpg,1400,solid,I,m,929,7,1,12716.59999999404,261965.09999999404,9024,ATS,C,5
6,test,1,A,haborder.png,1,z,Thu Jul 10 2025 12:55:52 GMT-0400 (Eastern Daylight Time),276631.8000000119,CFD-BF-002-018-A.jpg,1200,solid,I,z,731,6,1,14666.700000017881,261965.09999999404,9024,ATS,C,6
7,test,1,A,haborder.png,1,z,Thu Jul 10 2025 12:55:52 GMT-0400 (Eastern Daylight Time),278965.0,CFD-BF-002-018-A.jpg,1200,solid,I,z,1101,6,1,16999.90000000596,261965.09999999404,9024,ATS,C,7
8,test,1,A,haborder.png,1,m,Thu Jul 10 2025 12:55:52 GMT-0400 (Eastern Daylight Time),281281.6999999881,CFD-WM-035-036-HC.jpg,1700,solid,I,m,587,9,1,19316.59999999404,261965.09999999404,9024,ATS,C,8
8,test,1,A,haborder.png,0,m,Thu Jul 10 2025 12:55:52 GMT-0400 (Eastern Daylight Time),283881.6999999881,CFD-BM-034-035-HC.jpg,1700,solid,I,z,879,1,1,21916.59999999404,261965.09999999404,9024,ATS,C,9
9,test,1,A,haborder.png,1,m,Thu Jul 10 2025 12:55:52 GMT-0400 (Eastern Daylight Time),286131.3000000119,CFD-WM-028-005-HC.jpg,1400,solid,I,m,819,7,1,24166.20000001788,261965.09999999404,9024,ATS,C,10
10,test,1,A,haborder.png,1,z,Thu Jul 10 2025 12:55:52 GMT-0400 (Eastern Daylight Time),289398.40000000596,CFD-WM-036-018-A.jpg,1900,solid,I,z,1333,8,1,27433.30000001192,261965.09999999404,9024,ATS,C,11
11,test,1,A,haborder.png,1,m,Thu Jul 10 2025 12:55:52 GMT-0400 (Eastern Daylight Time),292048.0,CFD-BF-019-004-HC.jpg,2000,solid,I,m,621,5,1,30082.90000000596,261965.09999999404,9024,ATS,C,12
12,test,1,A,haborder.png,1,m,Thu Jul 10 2025 12:55:52 GMT-0400 (Eastern Daylight Time),294748.3000000119,CFD-BF-019-004-HC.jpg,2000,solid,I,m,676,5,1,32783.20000001788,261965.09999999404,9024,ATS,C,13
13,test,1,A,haborder.png,1,z,Thu Jul 10 2025 12:55:52 GMT-0400 (Eastern Daylight Time),296648.1999999881,CFD-BF-031-020-A.jpg,1000,solid,I,z,880,4,1,34683.09999999404,261965.09999999404,9024,ATS,C,14
14,test,1,A,haborder.png,1,m,Thu Jul 10 2025 12:55:52 GMT-0400 (Eastern Daylight Time),299164.90000000596,CFD-WF-013-009-HC.jpg,1500,solid,I,m,992,11,1,37199.80000001192,261965.09999999404,9024,ATS,C,15
15,test,1,A,haborder.png,1,z,Thu Jul 10 2025 12:55:52 GMT-0400 (Eastern Daylight Time),301181.6999999881,CFD-WF-023-013-A.jpg,1000,solid,I,z,992,12,1,39216.59999999404,261965.09999999404,9024,ATS,C,16
15,test,1,A,haborder.png,0,z,Thu Jul 10 2025 12:55:52 GMT-0400 (Eastern Daylight Time),303782.6999999881,CFD-BM-043-014-A.jpg,1600,solid,I,m,983,2,1,41817.59999999404,261965.09999999404,9024,ATS,C,17
16,test,1,A,haborder.png,1,m,Thu Jul 10 2025 12:55:52 GMT-0400 (Eastern Daylight Time),306731.59999999404,CFD-WM-035-036-HC.jpg,1700,solid,I,m,1227,9,1,44766.5,261965.09999999404,9024,ATS,C,18
17,test,1,A,haborder.png,1,m,Thu Jul 10 2025 12:55:52 GMT-0400 (Eastern Daylight Time),309264.8000000119,CFD-BM-034-035-HC.jpg,1700,solid,I,m,787,1,1,47299.70000001788,261965.09999999404,9024,ATS,C,19
18,test,1,A,haborder.png,1,z,Thu Jul 10 2025 12:55:52 GMT-0400 (Eastern Daylight Time),311531.5,CFD-WF-037-016-A.jpg,1600,solid,I,z,643,10,1,49566.40000000596,261965.09999999404,9024,ATS,C,20
19,test,1,A,haborder.png,1,z,Thu Jul 10 2025 12:55:52 GMT-0400 (Eastern Daylight Time),314248.0,CFD-WF-037-016-A.jpg,1600,solid,I,z,1096,10,1,52282.90000000596,261965.09999999404,9024,ATS,C,21
20,test,1,A,haborder.png,1,z,Thu Jul 10 2025 12:55:52 GMT-0400 (Eastern Daylight Time),317664.6999999881,CFD-WM-036-018-A.jpg,1900,solid,I,z,1487,8,1,55699.59999999404,261965.09999999404,9024,ATS,C,22
21,test,1,A,haborder.png,1,z,Thu Jul 10 2025 12:55:52 GMT-0400 (Eastern Daylight Time),319931.6999999881,CFD-BF-031-020-A.jpg,1000,solid,I,z,1243,4,1,57966.59999999404,261965.09999999404,9024,ATS,C,23
22,test,1,A,haborder.png,1,z,Thu Jul 10 2025 12:55:52 GMT-0400 (Eastern Daylight Time),321798.0,CFD-WF-023-013-A.jpg,1000,solid,I,z,833,12,1,59832.90000000596,261965.09999999404,9024,ATS,C,24
1,test,1,B,mfborder.png,1,m,Thu Jul 10 2025 12:55:52 GMT-0400 (Eastern Daylight Time),343831.6999999881,CFD-BM-043-014-A.jpg,2000,dash,I,m,764,5,1,2783.5,341048.1999999881,9024,ATS,C,1
2,test,1,B,mfborder.png,1,z,Thu Jul 10 2025 12:55:52 GMT-0400 (Eastern Daylight Time),346448.3000000119,CFD-WF-001-010-HC.jpg,1900,dash,I,z,689,8,1,5400.100000023842,341048.1999999881,9024,ATS,C,2
3,test,1,B,mfborder.png,1,m,Thu Jul 10 2025 12:55:52 GMT-0400 (Eastern Daylight Time),348864.40000000596,CFD-WM-035-036-HC.jpg,1600,dash,I,m,788,10,1,7816.200000017881,341048.1999999881,9024,ATS,C,3
4,test,1,B,mfborder.png,1,z,Thu Jul 10 2025 12:55:52 GMT-0400 (Eastern Daylight Time),350514.40000000596,CFD-WF-013-009-HC.jpg,1000,dash,I,z,619,12,1,9466.200000017881,341048.1999999881,9024,ATS,C,4
5,test,1,B,mfborder.png,1,m,Thu Jul 10 2025 12:55:52 GMT-0400 (Eastern Daylight Time),352864.5,CFD-BM-022-004-HC.jpg,1700,dash,I,m,621,1,1,11816.300000011921,341048.1999999881,9024,ATS,C,5
6,test,1,B,mfborder.png,1,m,Thu Jul 10 2025 12:55:52 GMT-0400 (Eastern Daylight Time),355115.0,CFD-WM-035-036-HC.jpg,1600,dash,I,m,628,10,1,14066.800000011921,341048.1999999881,9024,ATS,C,6
7,test,1,B,mfborder.png,1,z,Thu Jul 10 2025 12:55:52 GMT-0400 (Eastern Daylight Time),356981.3000000119,CFD-BF-031-020-A.jpg,1000,dash,I,z,833,4,1,15933.100000023842,341048.1999999881,9024,ATS,C,7
8,test,1,B,mfborder.png,1,m,Thu Jul 10 2025 12:55:52 GMT-0400 (Eastern Daylight Time),359616.40000000596,CFD-BM-022-004-HC.jpg,1700,dash,I,m,889,1,1,18568.20000001788,341048.1999999881,9024,ATS,C,8
9,test,1,B,mfborder.png,1,m,Thu Jul 10 2025 12:55:52 GMT-0400 (Eastern Daylight Time),361998.40000000596,CFD-WM-036-018-A.jpg,1700,dash,I,m,657,9,1,20950.20000001788,341048.1999999881,9024,ATS,C,9
10,test,1,B,mfborder.png,1,m,Thu Jul 10 2025 12:55:52 GMT-0400 (Eastern Daylight Time),364181.90000000596,CFD-BM-021-026-A.jpg,1600,dash,I,m,550,2,1,23133.70000001788,341048.1999999881,9024,ATS,C,10
11,test,1,B,mfborder.png,1,z,Thu Jul 10 2025 12:55:52 GMT-0400 (Eastern Daylight Time),366781.6999999881,CFD-WF-037-016-A.jpg,1500,dash,I,z,1075,11,1,25733.5,341048.1999999881,9024,ATS,C,11
11,test,1,B,mfborder.png,0,z,Thu Jul 10 2025 12:55:52 GMT-0400 (Eastern Daylight Time),369715.1999999881,CFD-BF-019-004-HC.jpg,1400,dash,I,None,1516,7,1,28667.0,341048.1999999881,9024,ATS,C,12
12,test,1,B,mfborder.png,1,m,Thu Jul 10 2025 12:55:52 GMT-0400 (Eastern Daylight Time),371814.90000000596,CFD-WM-034-040-A.jpg,1200,dash,I,m,881,6,1,30766.70000001788,341048.1999999881,9024,ATS,C,13
13,test,1,B,mfborder.png,1,z,Thu Jul 10 2025 12:55:52 GMT-0400 (Eastern Daylight Time),374115.0,CFD-BF-042-031-HC.jpg,1500,dash,I,z,752,3,1,33066.80000001192,341048.1999999881,9024,ATS,C,14
14,test,1,B,mfborder.png,1,z,Thu Jul 10 2025 12:55:52 GMT-0400 (Eastern Daylight Time),376364.90000000596,CFD-WF-013-009-HC.jpg,1000,dash,I,z,1225,12,1,35316.70000001788,341048.1999999881,9024,ATS,C,15
15,test,1,B,mfborder.png,1,z,Thu Jul 10 2025 12:55:52 GMT-0400 (Eastern Daylight Time),378798.40000000596,CFD-WF-037-016-A.jpg,1500,dash,I,z,890,11,1,37750.20000001788,341048.1999999881,9024,ATS,C,16
16,test,1,B,mfborder.png,1,m,Thu Jul 10 2025 12:55:52 GMT-0400 (Eastern Daylight Time),381581.8000000119,CFD-BM-043-014-A.jpg,2000,dash,I,m,758,5,1,40533.60000002384,341048.1999999881,9024,ATS,C,17
17,test,1,B,mfborder.png,1,m,Thu Jul 10 2025 12:55:52 GMT-0400 (Eastern Daylight Time),383948.1999999881,CFD-WM-034-040-A.jpg,1200,dash,I,m,1143,6,1,42900.0,341048.1999999881,9024,ATS,C,18
18,test,1,B,mfborder.png,1,z,Thu Jul 10 2025 12:55:52 GMT-0400 (Eastern Daylight Time),386398.40000000596,CFD-BF-019-004-HC.jpg,1400,dash,I,z,1024,7,1,45350.20000001788,341048.1999999881,9024,ATS,C,19
19,test,1,B,mfborder.png,1,z,Thu Jul 10 2025 12:55:52 GMT-0400 (Eastern Daylight Time),388898.40000000596,CFD-BF-031-020-A.jpg,1000,dash,I,z,1470,4,1,47850.20000001788,341048.1999999881,9024,ATS,C,20
20,test,1,B,mfborder.png,1,m,Thu Jul 10 2025 12:55:52 GMT-0400 (Eastern Daylight Time),392015.09999999404,CFD-WM-036-018-A.jpg,1700,dash,I,m,1390,9,1,50966.90000000596,341048.1999999881,9024,ATS,C,21
21,test,1,B,mfborder.png,1,z,Thu Jul 10 2025 12:55:52 GMT-0400 (Eastern Daylight Time),394498.40000000596,CFD-BF-042-031-HC.jpg,1500,dash,I,z,949,3,1,53450.20000001788,341048.1999999881,9024,ATS,C,22
22,test,1,B,mfborder.png,1,z,Thu Jul 10 2025 12:55:52 GMT-0400 (Eastern Daylight Time),397148.1999999881,CFD-WF-001-010-HC.jpg,1900,dash,I,z,725,8,1,56100.0,341048.1999999881,9024,ATS,C,23
23,test,1,B,mfborder.png,1,m,Thu Jul 10 2025 12:55:52 GMT-0400 (Eastern Daylight Time),399715.0,CFD-BM-021-026-A.jpg,1600,dash,I,m,936,2,1,58666.80000001192,341048.1999999881,9024,ATS,C,24
0,prac,1,C,haborder.png,0,z,Thu Jul 10 2025 12:55:52 GMT-0400 (Eastern Daylight Time),462381.90000000596,CFD-BF-002-018-A.jpg,1700,solid,I,None,1516,2,1,4000.0,458381.90000000596,9024,ATS,C,1
1,prac,1,C,mfborder.png,1,z,Thu Jul 10 2025 12:55:52 GMT-0400 (Eastern Daylight Time),465865.0,CFD-WF-013-009-HC.jpg,1600,dash,I,z,1079,2,1,7483.0999999940395,458381.90000000596,9024,ATS,C,2
1,prac,1,C,mfborder.png,0,z,Thu Jul 10 2025 12:55:52 GMT-0400 (Eastern Daylight Time),469681.59999999404,CFD-WF-023-013-A.jpg,1500,solid,I,None,1516,2,1,11299.699999988079,458381.90000000596,9024,ATS,C,3
2,prac,1,C,mfborder.png,1,m,Thu Jul 10 2025 12:55:52 GMT-0400 (Eastern Daylight Time),473348.6999999881,CFD-WM-036-018-A.jpg,1700,solid,I,m,1183,2,1,14966.799999982119,458381.90000000596,9024,ATS,C,4
3,prac,1,C,mfborder.png,1,m,Thu Jul 10 2025 12:55:52 GMT-0400 (Eastern Daylight Time),476348.40000000596,CFD-BM-043-014-A.jpg,1200,dash,I,m,1009,2,1,17966.5,458381.90000000596,9024,ATS,C,5
4,prac,1,C,haborder.png,1,m,Thu Jul 10 2025 12:55:52 GMT-0400 (Eastern Daylight Time),478865.40000000596,CFD-WM-028-005-HC.jpg,1000,dash,I,m,720,2,1,20483.5,458381.90000000596,9024,ATS,C,6
5,prac,1,C,haborder.png,1,m,Thu Jul 10 2025 12:55:52 GMT-0400 (Eastern Daylight Time),482065.09999999404,CFD-BM-022-004-HC.jpg,1500,solid,I,m,887,2,1,23683.19999998808,458381.90000000596,9024,ATS,C,7
6,prac,1,C,haborder.png,1,z,Thu Jul 10 2025 12:55:52 GMT-0400 (Eastern Daylight Time),485531.6999999881,CFD-WF-037-016-A.jpg,1600,dash,I,z,1060,2,1,27149.79999998212,458381.90000000596,9024,ATS,C,8
6,prac,1,C,mfborder.png,0,z,Thu Jul 10 2025 12:55:52 GMT-0400 (Eastern Daylight Time),488631.90000000596,CFD-BF-019-004-HC.jpg,1000,dash,I,m,1313,2,1,30250.0,458381.90000000596,9024,ATS,C,9
7,prac,1,C,haborder.png,1,z,Thu Jul 10 2025 12:55:52 GMT-0400 (Eastern Daylight Time),492648.1999999881,CFD-BF-031-020-A.jpg,1900,dash,I,z,1312,2,1,34266.29999998212,458381.90000000596,9024,ATS,C,10
8,prac,1,C,haborder.png,1,m,Thu Jul 10 2025 12:55:52 GMT-0400 (Eastern Daylight Time),495382.0,CFD-WM-028-005-HC.jpg,1400,solid,I,m,547,2,1,37000.09999999404,458381.90000000596,9024,ATS,C,11
9,prac,1,C,mfborder.png,1,m,Thu Jul 10 2025 12:55:52 GMT-0400 (Eastern Daylight Time),499098.3000000119,CFD-BM-034-035-HC.jpg,2000,solid,I,m,911,2,1,40716.40000000596,458381.90000000596,9024,ATS,C,12
0,test,1,C,haborder.png,0,z,Thu Jul 10 2025 12:55:52 GMT-0400 (Eastern Daylight Time),523248.90000000596,CFD-BM-021-026-A.jpg,1700,solid,I,None,1516,9,1,3233.300000011921,520015.59999999404,9024,ATS,C,1
0,test,1,C,mfborder.png,0,m,Thu Jul 10 2025 12:55:52 GMT-0400 (Eastern Daylight Time),525981.5,CFD-BM-022-004-HC.jpg,1200,dash,I,None,1516,6,1,5965.9000000059605,520015.59999999404,9024,ATS,C,2
0,test,1,C,haborder.png,0,z,Thu Jul 10 2025 12:55:52 GMT-0400 (Eastern Daylight Time),528915.1999999881,CFD-WM-036-018-A.jpg,1400,solid,I,None,1516,7,1,8899.59999999404,520015.59999999404,9024,ATS,C,3
1,test,1,C,haborder.png,1,z,Thu Jul 10 2025 12:55:52 GMT-0400 (Eastern Daylight Time),531398.1999999881,CFD-WM-036-018-A.jpg,1400,solid,I,z,1051,7,1,11382.59999999404,520015.59999999404,9024,ATS,C,4
1,test,1,C,mfborder.png,0,z,Thu Jul 10 2025 12:55:52 GMT-0400 (Eastern Daylight Time),534431.900000006,CFD-WF-037-016-A.jpg,1500,dash,I,None,1516,3,1,14416.300000011921,520015.59999999404,9024,ATS,C,5
2,test,1,C,mfborder.png,1,z,Thu Jul 10 2025 12:55:52 GMT-0400 (Eastern Daylight Time),537448.400000006,CFD-BF-031-020-A.jpg,1600,dash,I,z,1397,2,1,17432.80000001192,520015.59999999404,9024,ATS,C,6
2,test,1,C,mfborder.png,0,m,Thu Jul 10 2025 12:55:52 GMT-0400 (Eastern Daylight Time),540182.400000006,CFD-BM-022-004-HC.jpg,1200,dash,I,None,1516,6,1,20166.80000001192,520015.59999999404,9024,ATS,C,7
2,test,1,C,haborder.png,0,z,Thu Jul 10 2025 12:55:52 GMT-0400 (Eastern Daylight Time),543414.900000006,CFD-BM-021-026-A.jpg,1700,solid,I,None,1516,9,1,23399.30000001192,520015.59999999404,9024,ATS,C,8
2,test,1,C,mfborder.png,0,m,Thu Jul 10 2025 12:55:52 GMT-0400 (Eastern Daylight Time),546515.099999994,CFD-WM-034-040-A.jpg,2000,dash,I,z,1069,5,1,26499.5,520015.59999999404,9024,ATS,C,9
3,test,1,C,haborder.png,1,m,Thu Jul 10 2025 12:55:52 GMT-0400 (Eastern Daylight Time),548881.8000000119,CFD-WF-013-009-HC.jpg,1000,solid,I,m,1338,12,1,28866.20000001788,520015.59999999404,9024,ATS,C,10
3,test,1,C,haborder.png,0,m,Thu Jul 10 2025 12:55:52 GMT-0400 (Eastern Daylight Time),551431.900000006,CFD-WF-013-009-HC.jpg,1000,solid,I,None,1516,12,1,31416.30000001192,520015.59999999404,9024,ATS,C,11
4,test,1,C,haborder.png,1,m,Thu Jul 10 2025 12:55:52 GMT-0400 (Eastern Daylight Time),554181.5,CFD-BF-019-004-HC.jpg,1600,solid,I,m,1118,10,1,34165.90000000596,520015.59999999404,9024,ATS,C,12
5,test,1,C,mfborder.png,1,z,Thu Jul 10 2025 12:55:52 GMT-0400 (Eastern Daylight Time),556665.099999994,CFD-BF-042-031-HC.jpg,1700,dash,I,z,762,1,1,36649.5,520015.59999999404,9024,ATS,C,13
6,test,1,C,mfborder.png,1,m,Thu Jul 10 2025 12:55:52 GMT-0400 (Eastern Daylight Time),558531.599999994,CFD-WM-035-036-HC.jpg,1000,dash,I,m,819,4,1,38516.0,520015.59999999404,9024,ATS,C,14
6,test,1,C,mfborder.png,0,m,Thu Jul 10 2025 12:55:52 GMT-0400 (Eastern Daylight Time),560431.3000000119,CFD-WM-035-036-HC.jpg,1000,dash,I,z,882,4,1,40415.70000001788,520015.59999999404,9024,ATS,C,15
7,test,1,C,haborder.png,1,m,Thu Jul 10 2025 12:55:52 GMT-0400 (Eastern Daylight Time),562898.599999994,CFD-BF-019-004-HC.jpg,1600,solid,I,m,837,10,1,42883.0,520015.59999999404,9024,ATS,C,16
7,test,1,C,mfborder.png,0,m,Thu Jul 10 2025 12:55:52 GMT-0400 (Eastern Daylight Time),566431.900000006,CFD-WM-034-040-A.jpg,2000,dash,I,None,1516,5,1,46416.30000001192,520015.59999999404,9024,ATS,C,17
7,test,1,C,haborder.png,0,z,Thu Jul 10 2025 12:55:52 GMT-0400 (Eastern Daylight Time),569865.3000000119,CFD-BM-043-014-A.jpg,1900,solid,I,None,1516,8,1,49849.70000001788,520015.59999999404,9024,ATS,C,18
7,test,1,C,haborder.png,0,m,Thu Jul 10 2025 12:55:52 GMT-0400 (Eastern Daylight Time),572898.5,CFD-WF-001-010-HC.jpg,1500,solid,I,None,1515,11,1,52882.90000000596,520015.59999999404,9024,ATS,C,19
7,test,1,C,mfborder.png,0,z,Thu Jul 10 2025 12:55:52 GMT-0400 (Eastern Daylight Time),576131.5,CFD-BF-042-031-HC.jpg,1700,dash,I,None,1515,1,1,56115.90000000596,520015.59999999404,9024,ATS,C,20
8,test,1,C,haborder.png,1,m,Thu Jul 10 2025 12:55:52 GMT-0400 (Eastern Daylight Time),578998.1999999881,CFD-WF-001-010-HC.jpg,1500,solid,I,m,1333,11,1,58982.59999999404,520015.59999999404,9024,ATS,C,21
9,test,1,C,mfborder.png,1,z,Thu Jul 10 2025 12:55:52 GMT-0400 (Eastern Daylight Time),581248.400000006,CFD-WF-037-016-A.jpg,1500,dash,I,z,721,3,1,61232.80000001192,520015.59999999404,9024,ATS,C,22
9,test,1,C,mfborder.png,0,z,Thu Jul 10 2025 12:55:52 GMT-0400 (Eastern Daylight Time),583514.900000006,CFD-BF-031-020-A.jpg,1600,dash,I,m,644,2,1,63499.30000001192,520015.59999999404,9024,ATS,C,23
9,test,1,C,haborder.png,0,z,Thu Jul 10 2025 12:55:52 GMT-0400 (Eastern Daylight Time),586815.1999999881,CFD-BM-043-014-A.jpg,1900,solid,I,m,1374,8,1,66799.59999999404,520015.59999999404,9024,ATS,C,24
0,test,2,C,haborder.png,0,z,Thu Jul 10 2025 12:55:52 GMT-0400 (Eastern Daylight Time),597532.0,CFD-BF-031-020-A.jpg,1400,solid,I,None,1517,7,1,2933.5,594598.5,9024,ATS,C,1
0,test,2,C,mfborder.png,0,m,Thu Jul 10 2025 12:55:52 GMT-0400 (Eastern Daylight Time),600265.400000006,CFD-WM-036-018-A.jpg,1200,dash,I,None,1516,6,1,5666.9000000059605,594598.5,9024,ATS,C,2
0,test,2,C,mfborder.png,0,z,Thu Jul 10 2025 12:55:52 GMT-0400 (Eastern Daylight Time),603498.599999994,CFD-WF-013-009-HC.jpg,1700,dash,I,None,1517,1,1,8900.09999999404,594598.5,9024,ATS,C,3
1,test,2,C,haborder.png,1,m,Thu Jul 10 2025 12:55:52 GMT-0400 (Eastern Daylight Time),605981.900000006,CFD-BM-022-004-HC.jpg,1600,solid,I,m,858,10,1,11383.40000000596,594598.5,9024,ATS,C,4
1,test,2,C,mfborder.png,0,z,Thu Jul 10 2025 12:55:52 GMT-0400 (Eastern Daylight Time),608115.0,CFD-BF-019-004-HC.jpg,1500,dash,I,m,602,3,1,13516.5,594598.5,9024,ATS,C,5
1,test,2,C,mfborder.png,0,z,Thu Jul 10 2025 12:55:52 GMT-0400 (Eastern Daylight Time),611348.400000006,CFD-WF-013-009-HC.jpg,1700,dash,I,None,1515,1,1,16749.90000000596,594598.5,9024,ATS,C,6
1,test,2,C,mfborder.png,0,m,Thu Jul 10 2025 12:55:52 GMT-0400 (Eastern Daylight Time),613881.900000006,CFD-BM-034-035-HC.jpg,1000,dash,I,None,1516,4,1,19283.40000000596,594598.5,9024,ATS,C,7
1,test,2,C,haborder.png,0,m,Thu Jul 10 2025 12:55:52 GMT-0400 (Eastern Daylight Time),616715.1999999881,CFD-WM-028-005-HC.jpg,1500,solid,I,z,1312,11,1,22116.69999998808,594598.5,9024,ATS,C,8
1,test,2,C,haborder.png,0,z,Thu Jul 10 2025 12:55:52 GMT-0400 (Eastern Daylight Time),619665.1999999881,CFD-WF-037-016-A.jpg,1700,solid,I,m,1222,9,1,25066.69999998808,594598.5,9024,ATS,C,9
2,test,2,C,mfborder.png,1,m,Thu Jul 10 2025 12:55:52 GMT-0400 (Eastern Daylight Time),622265.1999999881,CFD-WM-036-018-A.jpg,1200,dash,I,m,1379,6,1,27666.69999998808,594598.5,9024,ATS,C,10
2,test,2,C,haborder.png,0,m,Thu Jul 10 2025 12:55:52 GMT-0400 (Eastern Daylight Time),624798.599999994,CFD-WM-028-005-HC.jpg,1000,solid,I,None,1503,12,1,30200.09999999404,594598.5,9024,ATS,C,11
2,test,2,C,mfborder.png,0,m,Thu Jul 10 2025 12:55:52 GMT-0400 (Eastern Daylight Time),627931.900000006,CFD-BM-043-014-A.jpg,2000,dash,I,z,1111,5,1,33333.40000000596,594598.5,9024,ATS,C,12
2,test,2,C,haborder.png,0,z,Thu Jul 10 2025 12:55:52 GMT-0400 (Eastern Daylight Time),630598.599999994,CFD-WF-037-016-A.jpg,1700,solid,I,m,934,9,1,36000.09999999404,594598.5,9024,ATS,C,13
2,test,2,C,haborder.png,0,z,Thu Jul 10 2025 12:55:52 GMT-0400 (Eastern Daylight Time),634032.0,CFD-BF-002-018-A.jpg,1900,solid,I,None,1517,8,1,39433.5,594598.5,9024,ATS,C,14
2,test,2,C,haborder.png,0,z,Thu Jul 10 2025 12:55:52 GMT-0400 (Eastern Daylight Time),636965.3000000119,CFD-BF-031-020-A.jpg,1400,solid,I,None,1516,7,1,42366.80000001192,594598.5,9024,ATS,C,15
3,test,2,C,haborder.png,1,z,Thu Jul 10 2025 12:55:52 GMT-0400 (Eastern Daylight Time),639831.8000000119,CFD-BF-002-018-A.jpg,1900,solid,I,z,949,8,1,45233.30000001192,594598.5,9024,ATS,C,16
4,test,2,C,mfborder.png,1,m,Thu Jul 10 2025 12:55:52 GMT-0400 (Eastern Daylight Time),642148.5,CFD-BM-034-035-HC.jpg,1000,dash,I,m,1285,4,1,47550.0,594598.5,9024,ATS,C,17
4,test,2,C,mfborder.png,0,m,Thu Jul 10 2025 12:55:52 GMT-0400 (Eastern Daylight Time),645682.099999994,CFD-BM-043-014-A.jpg,2000,dash,I,None,1517,5,1,51083.59999999404,594598.5,9024,ATS,C,18
4,test,2,C,haborder.png,0,m,Thu Jul 10 2025 12:55:52 GMT-0400 (Eastern Daylight Time),648214.6999999881,CFD-WM-028-005-HC.jpg,1000,solid,I,None,1516,12,1,53616.19999998808,594598.5,9024,ATS,C,19
4,test,2,C,mfborder.png,0,z,Thu Jul 10 2025 12:55:52 GMT-0400 (Eastern Daylight Time),651348.3000000119,CFD-WF-023-013-A.jpg,1600,dash,I,None,1516,2,1,56749.80000001192,594598.5,9024,ATS,C,20
4,test,2,C,mfborder.png,0,z,Thu Jul 10 2025 12:55:52 GMT-0400 (Eastern Daylight Time),653998.6999999881,CFD-WF-023-013-A.jpg,1600,dash,I,m,1025,2,1,59400.19999998808,594598.5,9024,ATS,C,21
4,test,2,C,mfborder.png,0,z,Thu Jul 10 2025 12:55:52 GMT-0400 (Eastern Daylight Time),656781.599999994,CFD-BF-019-004-HC.jpg,1500,dash,I,m,1257,3,1,62183.09999999404,594598.5,9024,ATS,C,22
5,test,2,C,haborder.png,1,m,Thu Jul 10 2025 12:55:52 GMT-0400 (Eastern Daylight Time),659548.5,CFD-WM-028-005-HC.jpg,1500,solid,I,m,1243,11,1,64950.0,594598.5,9024,ATS,C,23
5,test,2,C,haborder.png,0,m,Thu Jul 10 2025 12:55:52 GMT-0400 (Eastern Daylight Time),662498.099999994,CFD-BM-022-004-HC.jpg,1600,solid,I,z,1321,10,1,67899.59999999404,594598.5,9024,ATS,C,24
0,test,3,C,mfborder.png,0,z,Thu Jul 10 2025 12:55:52 GMT-0400 (Eastern Daylight Time),672948.3000000119,CFD-WF-037-016-A.jpg,1500,dash,I,None,1516,3,1,3033.100000023842,669915.1999999881,9024,ATS,C,1
0,test,3,C,mfborder.png,0,m,Thu Jul 10 2025 12:55:52 GMT-0400 (Eastern Daylight Time),674031.6999999881,CFD-WM-035-036-HC.jpg,1000,dash,I,z,40,4,1,4116.5,669915.1999999881,9024,ATS,C,2
1,test,3,C,haborder.png,1,m,Thu Jul 10 2025 12:55:52 GMT-0400 (Eastern Daylight Time),676248.5,CFD-WF-001-010-HC.jpg,1500,solid,I,m,697,11,1,6333.300000011921,669915.1999999881,9024,ATS,C,3
2,test,3,C,mfborder.png,1,z,Thu Jul 10 2025 12:55:52 GMT-0400 (Eastern Daylight Time),679265.1999999881,CFD-BF-042-031-HC.jpg,1700,dash,I,z,1290,1,1,9350.0,669915.1999999881,9024,ATS,C,4
3,test,3,C,haborder.png,1,m,Thu Jul 10 2025 12:55:52 GMT-0400 (Eastern Daylight Time),681215.3000000119,CFD-WF-013-009-HC.jpg,1000,solid,I,m,924,12,1,11300.100000023842,669915.1999999881,9024,ATS,C,5
4,test,3,C,mfborder.png,1,z,Thu Jul 10 2025 12:55:52 GMT-0400 (Eastern Daylight Time),683881.8000000119,CFD-WF-037-016-A.jpg,1500,dash,I,z,1146,3,1,13966.600000023842,669915.1999999881,9024,ATS,C,6
4,test,3,C,haborder.png,0,z,Thu Jul 10 2025 12:55:52 GMT-0400 (Eastern Daylight Time),686532.0,CFD-BM-043-014-A.jpg,1900,solid,I,m,720,8,1,16616.80000001192,669915.1999999881,9024,ATS,C,7
4,test,3,C,mfborder.png,0,m,Thu Jul 10 2025 12:55:52 GMT-0400 (Eastern Daylight Time),688748.6999999881,CFD-BM-022-004-HC.jpg,1200,dash,I,z,993,6,1,18833.5,669915.1999999881,9024,ATS,C,8
5,test,3,C,mfborder.png,1,m,Thu Jul 10 2025 12:55:52 GMT-0400 (Eastern Daylight Time),691148.3000000119,CFD-BM-022-004-HC.jpg,1200,dash,I,m,1175,6,1,21233.100000023842,669915.1999999881,9024,ATS,C,9
5,test,3,C,haborder.png,0,z,Thu Jul 10 2025 12:55:52 GMT-0400 (Eastern Daylight Time),694382.099999994,CFD-BM-021-026-A.jpg,1700,solid,I,None,1516,9,1,24466.90000000596,669915.1999999881,9024,ATS,C,10
6,test,3,C,mfborder.png,1,m,Thu Jul 10 2025 12:55:52 GMT-0400 (Eastern Daylight Time),696665.0,CFD-WM-035-036-HC.jpg,1000,dash,I,m,1264,4,1,26749.80000001192,669915.1999999881,9024,ATS,C,11
6,test,3,C,haborder.png,0,m,Thu Jul 10 2025 12:55:52 GMT-0400 (Eastern Daylight Time),699798.599999994,CFD-BF-019-004-HC.jpg,1600,solid,I,None,1515,10,1,29883.40000000596,669915.1999999881,9024,ATS,C,12
6,test,3,C,mfborder.png,0,z,Thu Jul 10 2025 12:55:52 GMT-0400 (Eastern Daylight Time),703031.900000006,CFD-BF-042-031-HC.jpg,1700,dash,I,None,1517,1,1,33116.70000001788,669915.1999999881,9024,ATS,C,13
6,test,3,C,haborder.png,0,z,Thu Jul 10 2025 12:55:52 GMT-0400 (Eastern Daylight Time),705898.599999994,CFD-WM-036-018-A.jpg,1400,solid,I,m,1445,7,1,35983.40000000596,669915.1999999881,9024,ATS,C,14
6,test,3,C,haborder.png,0,z,Thu Jul 10 2025 12:55:52 GMT-0400 (Eastern Daylight Time),709132.0,CFD-BM-021-026-A.jpg,1700,solid,I,None,1516,9,1,39216.80000001192,669915.1999999881,9024,ATS,C,15
7,test,3,C,mfborder.png,1,m,Thu Jul 10 2025 12:55:52 GMT-0400 (Eastern Daylight Time),712565.3000000119,CFD-WM-034-040-A.jpg,2000,dash,I,m,1401,5,1,42650.10000002384,669915.1999999881,9024,ATS,C,16
7,test,3,C,mfborder.png,0,m,Thu Jul 10 2025 12:55:52 GMT-0400 (Eastern Daylight Time),715998.5,CFD-WM-034-040-A.jpg,2000,dash,I,z,1408,5,1,46083.30000001192,669915.1999999881,9024,ATS,C,17
7,test,3,C,haborder.png,0,z,Thu Jul 10 2025 12:55:52 GMT-0400 (Eastern Daylight Time),718398.3000000119,CFD-WM-036-018-A.jpg,1400,solid,I,m,973,7,1,48483.10000002384,669915.1999999881,9024,ATS,C,18
8,test,3,C,haborder.png,1,z,Thu Jul 10 2025 12:55:52 GMT-0400 (Eastern Daylight Time),721548.3000000119,CFD-BM-043-014-A.jpg,1900,solid,I,z,1226,8,1,51633.10000002384,669915.1999999881,9024,ATS,C,19
9,test,3,C,haborder.png,1,m,Thu Jul 10 2025 12:55:52 GMT-0400 (Eastern Daylight Time),724398.3000000119,CFD-WF-001-010-HC.jpg,1500,solid,I,m,1323,11,1,54483.10000002384,669915.1999999881,9024,ATS,C,20
9,test,3,C,mfborder.png,0,z,Thu Jul 10 2025 12:55:52 GMT-0400 (Eastern Daylight Time),727532.1999999881,CFD-BF-031-020-A.jpg,1600,dash,I,None,1516,2,1,57617.0,669915.1999999881,9024,ATS,C,21
10,test,3,C,haborder.png,1,m,Thu Jul 10 2025 12:55:52 GMT-0400 (Eastern Daylight Time),730581.8000000119,CFD-BF-019-004-HC.jpg,1600,solid,I,m,1416,10,1,60666.60000002384,669915.1999999881,9024,ATS,C,22
10,test,3,C,haborder.png,0,m,Thu Jul 10 2025 12:55:52 GMT-0400 (Eastern Daylight Time),733115.3000000119,CFD-WF-013-009-HC.jpg,1000,solid,I,None,1516,12,1,63200.10000002384,669915.1999999881,9024,ATS,C,23
10,test,3,C,mfborder.png,0,z,Thu Jul 10 2025 12:55:52 GMT-0400 (Eastern Daylight Time),736248.599999994,CFD-BF-031-020-A.jpg,1600,dash,I,None,1517,2,1,66333.40000000596,669915.1999999881,9024,ATS,C,24
0,test,4,C,haborder.png,0,m,Thu Jul 10 2025 12:55:52 GMT-0400 (Eastern Daylight Time),749865.599999994,CFD-WM-028-005-HC.jpg,1000,solid,I,None,1514,12,1,2534.0999999940395,747331.5,9024,ATS,C,1
1,test,4,C,haborder.png,1,m,Thu Jul 10 2025 12:55:52 GMT-0400 (Eastern Daylight Time),752682.099999994,CFD-BM-022-004-HC.jpg,1600,solid,I,m,1195,10,1,5350.5999999940395,747331.5,9024,ATS,C,2
2,test,4,C,haborder.png,1,z,Thu Jul 10 2025 12:55:52 GMT-0400 (Eastern Daylight Time),755165.1999999881,CFD-BF-031-020-A.jpg,1400,solid,I,z,1059,7,1,7833.699999988079,747331.5,9024,ATS,C,3
2,test,4,C,mfborder.png,0,m,Thu Jul 10 2025 12:55:52 GMT-0400 (Eastern Daylight Time),758698.8000000119,CFD-BM-043-014-A.jpg,2000,dash,I,None,1516,5,1,11367.300000011921,747331.5,9024,ATS,C,4
3,test,4,C,haborder.png,1,z,Thu Jul 10 2025 12:55:52 GMT-0400 (Eastern Daylight Time),761265.1999999881,CFD-WF-037-016-A.jpg,1700,solid,I,z,838,9,1,13933.699999988079,747331.5,9024,ATS,C,5
4,test,4,C,mfborder.png,1,m,Thu Jul 10 2025 12:55:52 GMT-0400 (Eastern Daylight Time),763248.8000000119,CFD-BM-034-035-HC.jpg,1000,dash,I,m,955,4,1,15917.300000011921,747331.5,9024,ATS,C,6
4,test,4,C,haborder.png,0,m,Thu Jul 10 2025 12:55:52 GMT-0400 (Eastern Daylight Time),765715.0,CFD-WM-028-005-HC.jpg,1500,solid,I,z,935,11,1,18383.5,747331.5,9024,ATS,C,7
4,test,4,C,haborder.png,0,z,Thu Jul 10 2025 12:55:52 GMT-0400 (Eastern Daylight Time),768315.400000006,CFD-BF-002-018-A.jpg,1900,solid,I,m,678,8,1,20983.90000000596,747331.5,9024,ATS,C,8
4,test,4,C,mfborder.png,0,m,Thu Jul 10 2025 12:55:52 GMT-0400 (Eastern Daylight Time),771048.8000000119,CFD-WM-036-018-A.jpg,1200,dash,I,None,1516,6,1,23717.30000001192,747331.5,9024,ATS,C,9
5,test,4,C,haborder.png,1,m,Thu Jul 10 2025 12:55:52 GMT-0400 (Eastern Daylight Time),773448.599999994,CFD-WM-028-005-HC.jpg,1500,solid,I,m,880,11,1,26117.09999999404,747331.5,9024,ATS,C,10
6,test,4,C,haborder.png,1,z,Thu Jul 10 2025 12:55:52 GMT-0400 (Eastern Daylight Time),775982.0,CFD-BF-031-020-A.jpg,1400,solid,I,z,1109,7,1,28650.5,747331.5,9024,ATS,C,11
6,test,4,C,mfborder.png,0,z,Thu Jul 10 2025 12:55:52 GMT-0400 (Eastern Daylight Time),779215.3000000119,CFD-WF-013-009-HC.jpg,1700,dash,I,None,1516,1,1,31883.80000001192,747331.5,9024,ATS,C,12
7,test,4,C,mfborder.png,1,m,Thu Jul 10 2025 12:55:52 GMT-0400 (Eastern Daylight Time),781215.0,CFD-BM-034-035-HC.jpg,1000,dash,I,m,973,4,1,33883.5,747331.5,9024,ATS,C,13
8,test,4,C,haborder.png,1,z,Thu Jul 10 2025 12:55:52 GMT-0400 (Eastern Daylight Time),784432.099999994,CFD-BF-002-018-A.jpg,1900,solid,I,z,1291,8,1,37100.59999999404,747331.5,9024,ATS,C,14
8,test,4,C,haborder.png,0,z,Thu Jul 10 2025 12:55:52 GMT-0400 (Eastern Daylight Time),787665.400000006,CFD-WF-037-016-A.jpg,1700,solid,I,None,1516,9,1,40333.90000000596,747331.5,9024,ATS,C,15
9,test,4,C,mfborder.png,1,z,Thu Jul 10 2025 12:55:52 GMT-0400 (Eastern Daylight Time),790398.5,CFD-BF-019-004-HC.jpg,1500,dash,I,z,1208,3,1,43067.0,747331.5,9024,ATS,C,16
10,test,4,C,mfborder.png,1,m,Thu Jul 10 2025 12:55:52 GMT-0400 (Eastern Daylight Time),793315.400000006,CFD-BM-043-014-A.jpg,2000,dash,I,m,887,5,1,45983.90000000596,747331.5,9024,ATS,C,17
10,test,4,C,mfborder.png,0,m,Thu Jul 10 2025 12:55:52 GMT-0400 (Eastern Daylight Time),795498.599999994,CFD-WM-036-018-A.jpg,1200,dash,I,z,962,6,1,48167.09999999404,747331.5,9024,ATS,C,18
10,test,4,C,mfborder.png,0,z,Thu Jul 10 2025 12:55:52 GMT-0400 (Eastern Daylight Time),797948.6999999881,CFD-BF-019-004-HC.jpg,1500,dash,I,m,926,3,1,50617.19999998808,747331.5,9024,ATS,C,19
10,test,4,C,haborder.png,0,m,Thu Jul 10 2025 12:55:52 GMT-0400 (Eastern Daylight Time),800281.5,CFD-BM-022-004-HC.jpg,1600,solid,I,z,694,10,1,52950.0,747331.5,9024,ATS,C,20
10,test,4,C,mfborder.png,0,z,Thu Jul 10 2025 12:55:52 GMT-0400 (Eastern Daylight Time),802231.8000000119,CFD-WF-023-013-A.jpg,1600,dash,I,m,330,2,1,54900.30000001192,747331.5,9024,ATS,C,21
10,test,4,C,haborder.png,0,m,Thu Jul 10 2025 12:55:52 GMT-0400 (Eastern Daylight Time),804615.5,CFD-WM-028-005-HC.jpg,1000,solid,I,z,1365,12,1,57284.0,747331.5,9024,ATS,C,22
10,test,4,C,mfborder.png,0,z,Thu Jul 10 2025 12:55:52 GMT-0400 (Eastern Daylight Time),807782.099999994,CFD-WF-013-009-HC.jpg,1700,dash,I,m,1435,1,1,60450.59999999404,747331.5,9024,ATS,C,23
11,test,4,C,mfborder.png,1,z,Thu Jul 10 2025 12:55:52 GMT-0400 (Eastern Daylight Time),810848.400000006,CFD-WF-023-013-A.jpg,1600,dash,I,z,1439,2,1,63516.90000000596,747331.5,9024,ATS,C,24
