acc_sum,block,block_c,block_cond,con_img,correct,correct_response,datetime,endtime,face,jitter,line,project,response,response_time,row_sel,session_number,start_end,starttime,subject_id,task,task_vers,trial
1,prac,1,A,haborder.png,1,z,Thu Sep 11 2025 14:45:21 GMT-0400 (Eastern Daylight Time),75226.0999994278,CFD-BF-023-013-A.jpg,1000,solid,I,z,1019,4,2,2833.699999809265,72392.39999961853,9024,ATS,A,1
1,prac,1,A,haborder.png,0,z,Thu Sep 11 2025 14:45:21 GMT-0400 (Eastern Daylight Time),78525.80000019073,CFD-WM-013-015-A.jpg,1900,solid,I,m,598,8,2,6133.400000572205,72392.39999961853,9024,ATS,A,2
2,prac,1,A,haborder.png,1,m,Thu Sep 11 2025 14:45:21 GMT-0400 (Eastern Daylight Time),81642.5999994278,CFD-WM-006-013-HC.jpg,1700,solid,I,m,602,9,2,9250.199999809265,72392.39999961853,9024,ATS,A,3
3,prac,1,A,haborder.png,1,z,Thu Sep 11 2025 14:45:21 GMT-0400 (Eastern Daylight Time),84509.19999980927,CFD-WF-019-015-A.jpg,1000,solid,I,z,1051,12,2,12116.800000190735,72392.39999961853,9024,ATS,A,4
4,prac,1,A,haborder.png,1,m,Thu Sep 11 2025 14:45:21 GMT-0400 (Eastern Daylight Time),87575.89999961853,CFD-WF-017-016-HC.jpg,1500,solid,I,m,755,11,2,15183.5,72392.39999961853,9024,ATS,A,5
5,prac,1,A,haborder.png,1,m,Thu Sep 11 2025 14:45:21 GMT-0400 (Eastern Daylight Time),90759.19999980927,CFD-BM-017-052-HC.jpg,1700,solid,I,m,671,1,2,18366.800000190735,72392.39999961853,9024,ATS,A,6
6,prac,1,A,haborder.png,1,m,Thu Sep 11 2025 14:45:21 GMT-0400 (Eastern Daylight Time),93876.0,CFD-BM-029-026-HC.jpg,1500,solid,I,m,809,3,2,21483.60000038147,72392.39999961853,9024,ATS,A,7
7,prac,1,A,haborder.png,1,z,Thu Sep 11 2025 14:45:21 GMT-0400 (Eastern Daylight Time),97141.89999961853,CFD-WF-003-014-A.jpg,1600,solid,I,z,857,10,2,24749.5,72392.39999961853,9024,ATS,A,8
8,prac,1,A,haborder.png,1,z,Thu Sep 11 2025 14:45:21 GMT-0400 (Eastern Daylight Time),99859.19999980927,CFD-BF-039-039-A.jpg,1200,solid,I,z,710,6,2,27466.800000190735,72392.39999961853,9024,ATS,A,9
9,prac,1,A,haborder.png,1,z,Thu Sep 11 2025 14:45:21 GMT-0400 (Eastern Daylight Time),103109.19999980927,CFD-BM-005-010-A.jpg,1600,solid,I,z,840,2,2,30716.800000190735,72392.39999961853,9024,ATS,A,10
10,prac,1,A,haborder.png,1,m,Thu Sep 11 2025 14:45:21 GMT-0400 (Eastern Daylight Time),106942.5,CFD-BF-028-020-HC.jpg,2000,solid,I,m,1031,5,2,34550.10000038147,72392.39999961853,9024,ATS,A,11
11,prac,1,A,haborder.png,1,m,Thu Sep 11 2025 14:45:21 GMT-0400 (Eastern Daylight Time),109859.30000019073,CFD-WM-004-005-HC.jpg,1400,solid,I,m,711,7,2,37466.900000572205,72392.39999961853,9024,ATS,A,12
1,prac,1,B,mfborder.png,1,z,Thu Sep 11 2025 14:45:21 GMT-0400 (Eastern Daylight Time),165809.30000019073,CFD-BF-010-005-HC.jpg,1500,dash,I,z,661,3,2,2967.1000003814697,162842.19999980927,9024,ATS,A,1
2,prac,1,B,mfborder.png,1,m,Thu Sep 11 2025 14:45:21 GMT-0400 (Eastern Daylight Time),168825.89999961853,CFD-BM-029-026-HC.jpg,1700,dash,I,m,502,1,2,5983.699999809265,162842.19999980927,9024,ATS,A,2
3,prac,1,B,mfborder.png,1,z,Thu Sep 11 2025 14:45:21 GMT-0400 (Eastern Daylight Time),172109.19999980927,CFD-WF-002-008-HC.jpg,1900,dash,I,z,567,8,2,9267.0,162842.19999980927,9024,ATS,A,3
4,prac,1,B,mfborder.png,1,m,Thu Sep 11 2025 14:45:21 GMT-0400 (Eastern Daylight Time),175092.5,CFD-BM-010-019-A.jpg,1600,dash,I,m,576,2,2,12250.300000190735,162842.19999980927,9024,ATS,A,4
5,prac,1,B,mfborder.png,1,z,Thu Sep 11 2025 14:45:21 GMT-0400 (Eastern Daylight Time),178442.39999961853,CFD-BF-028-020-HC.jpg,1400,dash,I,z,1135,7,2,15600.199999809265,162842.19999980927,9024,ATS,A,5
6,prac,1,B,mfborder.png,1,z,Thu Sep 11 2025 14:45:21 GMT-0400 (Eastern Daylight Time),180959.30000019073,CFD-WF-017-016-HC.jpg,1000,dash,I,z,713,12,2,18117.10000038147,162842.19999980927,9024,ATS,A,6
7,prac,1,B,mfborder.png,1,z,Thu Sep 11 2025 14:45:21 GMT-0400 (Eastern Daylight Time),183675.89999961853,CFD-BF-023-013-A.jpg,1000,dash,I,z,901,4,2,20833.699999809265,162842.19999980927,9024,ATS,A,7
8,prac,1,B,mfborder.png,1,m,Thu Sep 11 2025 14:45:21 GMT-0400 (Eastern Daylight Time),187092.0999994278,CFD-WM-013-015-A.jpg,1700,dash,I,m,909,9,2,24249.89999961853,162842.19999980927,9024,ATS,A,8
9,prac,1,B,mfborder.png,1,m,Thu Sep 11 2025 14:45:21 GMT-0400 (Eastern Daylight Time),190709.30000019073,CFD-BM-005-010-A.jpg,2000,dash,I,m,808,5,2,27867.10000038147,162842.19999980927,9024,ATS,A,9
10,prac,1,B,mfborder.png,1,z,Thu Sep 11 2025 14:45:21 GMT-0400 (Eastern Daylight Time),193709.19999980927,CFD-WF-003-014-A.jpg,1500,dash,I,z,700,11,2,30867.0,162842.19999980927,9024,ATS,A,10
11,prac,1,B,mfborder.png,1,m,Thu Sep 11 2025 14:45:21 GMT-0400 (Eastern Daylight Time),196975.89999961853,CFD-WM-006-013-HC.jpg,1600,dash,I,m,863,10,2,34133.699999809265,162842.19999980927,9024,ATS,A,11
12,prac,1,B,mfborder.png,1,m,Thu Sep 11 2025 14:45:21 GMT-0400 (Eastern Daylight Time),200426.0,CFD-WM-019-013-A.jpg,1200,dash,I,m,1437,6,2,37583.800000190735,162842.19999980927,9024,ATS,A,12
1,test,1,A,haborder.png,1,m,Thu Sep 11 2025 14:45:21 GMT-0400 (Eastern Daylight Time),232525.69999980927,CFD-BM-029-026-HC.jpg,1500,solid,I,m,934,3,2,2466.5,230059.19999980927,9024,ATS,A,1
2,test,1,A,haborder.png,1,z,Thu Sep 11 2025 14:45:21 GMT-0400 (Eastern Daylight Time),234325.69999980927,CFD-BF-023-013-A.jpg,1000,solid,I,z,775,4,2,4266.5,230059.19999980927,9024,ATS,A,2
3,test,1,A,haborder.png,1,m,Thu Sep 11 2025 14:45:21 GMT-0400 (Eastern Daylight Time),237292.30000019073,CFD-BM-017-052-HC.jpg,1700,solid,I,m,1219,1,2,7233.10000038147,230059.19999980927,9024,ATS,A,3
4,test,1,A,haborder.png,1,m,Thu Sep 11 2025 14:45:21 GMT-0400 (Eastern Daylight Time),239675.5,CFD-BM-029-026-HC.jpg,1500,solid,I,m,852,3,2,9616.300000190735,230059.19999980927,9024,ATS,A,4
5,test,1,A,haborder.png,1,z,Thu Sep 11 2025 14:45:21 GMT-0400 (Eastern Daylight Time),241325.80000019073,CFD-WF-019-015-A.jpg,1000,solid,I,z,617,12,2,11266.60000038147,230059.19999980927,9024,ATS,A,5
6,test,1,A,haborder.png,1,z,Thu Sep 11 2025 14:45:21 GMT-0400 (Eastern Daylight Time),243159.19999980927,CFD-WF-019-015-A.jpg,1000,solid,I,z,807,12,2,13100.0,230059.19999980927,9024,ATS,A,6
7,test,1,A,haborder.png,1,m,Thu Sep 11 2025 14:45:21 GMT-0400 (Eastern Daylight Time),245492.30000019073,CFD-BM-017-052-HC.jpg,1700,solid,I,m,593,1,2,15433.10000038147,230059.19999980927,9024,ATS,A,7
8,test,1,A,haborder.png,1,z,Thu Sep 11 2025 14:45:21 GMT-0400 (Eastern Daylight Time),247809.0999994278,CFD-BM-005-010-A.jpg,1600,solid,I,z,696,2,2,17749.89999961853,230059.19999980927,9024,ATS,A,8
9,test,1,A,haborder.png,1,m,Thu Sep 11 2025 14:45:21 GMT-0400 (Eastern Daylight Time),250475.80000019073,CFD-WM-006-013-HC.jpg,1700,solid,I,m,920,9,2,20416.60000038147,230059.19999980927,9024,ATS,A,9
10,test,1,A,haborder.png,1,z,Thu Sep 11 2025 14:45:21 GMT-0400 (Eastern Daylight Time),252859.0999994278,CFD-BM-005-010-A.jpg,1600,solid,I,z,754,2,2,22799.89999961853,230059.19999980927,9024,ATS,A,10
11,test,1,A,haborder.png,1,z,Thu Sep 11 2025 14:45:21 GMT-0400 (Eastern Daylight Time),255759.0999994278,CFD-WM-013-015-A.jpg,1900,solid,I,z,983,8,2,25699.89999961853,230059.19999980927,9024,ATS,A,11
12,test,1,A,haborder.png,1,z,Thu Sep 11 2025 14:45:21 GMT-0400 (Eastern Daylight Time),257759.0999994278,CFD-BF-039-039-A.jpg,1200,solid,I,z,782,6,2,27699.89999961853,230059.19999980927,9024,ATS,A,12
13,test,1,A,haborder.png,1,z,Thu Sep 11 2025 14:45:21 GMT-0400 (Eastern Daylight Time),259459.0999994278,CFD-BF-023-013-A.jpg,1000,solid,I,z,678,4,2,29399.89999961853,230059.19999980927,9024,ATS,A,13
14,test,1,A,haborder.png,1,m,Thu Sep 11 2025 14:45:21 GMT-0400 (Eastern Daylight Time),261592.5,CFD-WM-004-005-HC.jpg,1400,solid,I,m,706,7,2,31533.300000190735,230059.19999980927,9024,ATS,A,14
15,test,1,A,haborder.png,1,z,Thu Sep 11 2025 14:45:21 GMT-0400 (Eastern Daylight Time),263909.0,CFD-WF-003-014-A.jpg,1600,solid,I,z,699,10,2,33849.800000190735,230059.19999980927,9024,ATS,A,15
16,test,1,A,haborder.png,1,z,Thu Sep 11 2025 14:45:21 GMT-0400 (Eastern Daylight Time),266975.30000019073,CFD-WM-013-015-A.jpg,1900,solid,I,z,1146,8,2,36916.10000038147,230059.19999980927,9024,ATS,A,16
17,test,1,A,haborder.png,1,m,Thu Sep 11 2025 14:45:21 GMT-0400 (Eastern Daylight Time),269792.19999980927,CFD-BF-028-020-HC.jpg,2000,solid,I,m,798,5,2,39733.0,230059.19999980927,9024,ATS,A,17
18,test,1,A,haborder.png,1,z,Thu Sep 11 2025 14:45:21 GMT-0400 (Eastern Daylight Time),272125.80000019073,CFD-WF-003-014-A.jpg,1600,solid,I,z,700,10,2,42066.60000038147,230059.19999980927,9024,ATS,A,18
19,test,1,A,haborder.png,1,m,Thu Sep 11 2025 14:45:21 GMT-0400 (Eastern Daylight Time),275008.80000019073,CFD-WF-017-016-HC.jpg,1500,solid,I,m,1347,11,2,44949.60000038147,230059.19999980927,9024,ATS,A,19
20,test,1,A,haborder.png,1,m,Thu Sep 11 2025 14:45:21 GMT-0400 (Eastern Daylight Time),277975.69999980927,CFD-BF-028-020-HC.jpg,2000,solid,I,m,940,5,2,47916.5,230059.19999980927,9024,ATS,A,20
21,test,1,A,haborder.png,1,m,Thu Sep 11 2025 14:45:21 GMT-0400 (Eastern Daylight Time),280492.30000019073,CFD-WM-004-005-HC.jpg,1400,solid,I,m,1085,7,2,50433.10000038147,230059.19999980927,9024,ATS,A,21
22,test,1,A,haborder.png,1,m,Thu Sep 11 2025 14:45:21 GMT-0400 (Eastern Daylight Time),282992.19999980927,CFD-WM-006-013-HC.jpg,1700,solid,I,m,764,9,2,52933.0,230059.19999980927,9024,ATS,A,22
23,test,1,A,haborder.png,1,z,Thu Sep 11 2025 14:45:21 GMT-0400 (Eastern Daylight Time),285025.80000019073,CFD-BF-039-039-A.jpg,1200,solid,I,z,813,6,2,54966.60000038147,230059.19999980927,9024,ATS,A,23
24,test,1,A,haborder.png,1,m,Thu Sep 11 2025 14:45:21 GMT-0400 (Eastern Daylight Time),287208.89999961853,CFD-WF-017-016-HC.jpg,1500,solid,I,m,655,11,2,57149.699999809265,230059.19999980927,9024,ATS,A,24
1,test,1,B,mfborder.png,1,z,Thu Sep 11 2025 14:45:21 GMT-0400 (Eastern Daylight Time),313392.5,CFD-WF-003-014-A.jpg,1500,dash,I,z,781,11,2,2299.800000190735,311092.69999980927,9024,ATS,A,1
2,test,1,B,mfborder.png,1,m,Thu Sep 11 2025 14:45:21 GMT-0400 (Eastern Daylight Time),315992.39999961853,CFD-BM-005-010-A.jpg,2000,dash,I,m,573,5,2,4899.699999809265,311092.69999980927,9024,ATS,A,2
3,test,1,B,mfborder.png,1,z,Thu Sep 11 2025 14:45:21 GMT-0400 (Eastern Daylight Time),317609.19999980927,CFD-WF-017-016-HC.jpg,1000,dash,I,z,572,12,2,6516.5,311092.69999980927,9024,ATS,A,3
4,test,1,B,mfborder.png,1,z,Thu Sep 11 2025 14:45:21 GMT-0400 (Eastern Daylight Time),319342.5,CFD-BF-023-013-A.jpg,1000,dash,I,z,700,4,2,8249.800000190735,311092.69999980927,9024,ATS,A,4
5,test,1,B,mfborder.png,1,z,Thu Sep 11 2025 14:45:21 GMT-0400 (Eastern Daylight Time),321375.5,CFD-BF-010-005-HC.jpg,1500,dash,I,z,498,3,2,10282.800000190735,311092.69999980927,9024,ATS,A,5
6,test,1,B,mfborder.png,1,m,Thu Sep 11 2025 14:45:21 GMT-0400 (Eastern Daylight Time),323525.69999980927,CFD-BM-010-019-A.jpg,1600,dash,I,m,526,2,2,12433.0,311092.69999980927,9024,ATS,A,6
7,test,1,B,mfborder.png,1,z,Thu Sep 11 2025 14:45:21 GMT-0400 (Eastern Daylight Time),326075.69999980927,CFD-WF-002-008-HC.jpg,1900,dash,I,z,603,8,2,14983.0,311092.69999980927,9024,ATS,A,7
8,test,1,B,mfborder.png,1,z,Thu Sep 11 2025 14:45:21 GMT-0400 (Eastern Daylight Time),327825.80000019073,CFD-BF-023-013-A.jpg,1000,dash,I,z,713,4,2,16733.10000038147,311092.69999980927,9024,ATS,A,8
9,test,1,B,mfborder.png,1,z,Thu Sep 11 2025 14:45:21 GMT-0400 (Eastern Daylight Time),329809.0999994278,CFD-BF-028-020-HC.jpg,1400,dash,I,z,564,7,2,18716.39999961853,311092.69999980927,9024,ATS,A,9
10,test,1,B,mfborder.png,1,m,Thu Sep 11 2025 14:45:21 GMT-0400 (Eastern Daylight Time),332175.69999980927,CFD-BM-029-026-HC.jpg,1700,dash,I,m,631,1,2,21083.0,311092.69999980927,9024,ATS,A,10
11,test,1,B,mfborder.png,1,z,Thu Sep 11 2025 14:45:21 GMT-0400 (Eastern Daylight Time),334508.5,CFD-BF-010-005-HC.jpg,1500,dash,I,z,802,3,2,23415.800000190735,311092.69999980927,9024,ATS,A,11
12,test,1,B,mfborder.png,1,z,Thu Sep 11 2025 14:45:21 GMT-0400 (Eastern Daylight Time),337075.89999961853,CFD-WF-002-008-HC.jpg,1900,dash,I,z,644,8,2,25983.199999809265,311092.69999980927,9024,ATS,A,12
12,test,1,B,mfborder.png,0,m,Thu Sep 11 2025 14:45:21 GMT-0400 (Eastern Daylight Time),339775.39999961853,CFD-WM-006-013-HC.jpg,1600,dash,I,z,1064,10,2,28682.699999809265,311092.69999980927,9024,ATS,A,13
13,test,1,B,mfborder.png,1,m,Thu Sep 11 2025 14:45:21 GMT-0400 (Eastern Daylight Time),342225.89999961853,CFD-BM-029-026-HC.jpg,1700,dash,I,m,730,1,2,31133.199999809265,311092.69999980927,9024,ATS,A,14
14,test,1,B,mfborder.png,1,m,Thu Sep 11 2025 14:45:21 GMT-0400 (Eastern Daylight Time),344942.5,CFD-BM-005-010-A.jpg,2000,dash,I,m,667,5,2,33849.800000190735,311092.69999980927,9024,ATS,A,15
15,test,1,B,mfborder.png,1,m,Thu Sep 11 2025 14:45:21 GMT-0400 (Eastern Daylight Time),346942.5,CFD-WM-019-013-A.jpg,1200,dash,I,m,767,6,2,35849.800000190735,311092.69999980927,9024,ATS,A,16
16,test,1,B,mfborder.png,1,z,Thu Sep 11 2025 14:45:21 GMT-0400 (Eastern Daylight Time),349225.19999980927,CFD-BF-028-020-HC.jpg,1400,dash,I,z,842,7,2,38132.5,311092.69999980927,9024,ATS,A,17
17,test,1,B,mfborder.png,1,m,Thu Sep 11 2025 14:45:21 GMT-0400 (Eastern Daylight Time),351425.80000019073,CFD-WM-019-013-A.jpg,1200,dash,I,m,979,6,2,40333.10000038147,311092.69999980927,9024,ATS,A,18
18,test,1,B,mfborder.png,1,m,Thu Sep 11 2025 14:45:21 GMT-0400 (Eastern Daylight Time),354175.69999980927,CFD-WM-013-015-A.jpg,1700,dash,I,m,1031,9,2,43083.0,311092.69999980927,9024,ATS,A,19
19,test,1,B,mfborder.png,1,z,Thu Sep 11 2025 14:45:21 GMT-0400 (Eastern Daylight Time),355958.89999961853,CFD-WF-017-016-HC.jpg,1000,dash,I,z,740,12,2,44866.199999809265,311092.69999980927,9024,ATS,A,20
20,test,1,B,mfborder.png,1,z,Thu Sep 11 2025 14:45:21 GMT-0400 (Eastern Daylight Time),358792.5999994278,CFD-WF-003-014-A.jpg,1500,dash,I,z,1306,11,2,47699.89999961853,311092.69999980927,9024,ATS,A,21
21,test,1,B,mfborder.png,1,m,Thu Sep 11 2025 14:45:21 GMT-0400 (Eastern Daylight Time),361126.0,CFD-BM-010-019-A.jpg,1600,dash,I,m,709,2,2,50033.300000190735,311092.69999980927,9024,ATS,A,22
22,test,1,B,mfborder.png,1,m,Thu Sep 11 2025 14:45:21 GMT-0400 (Eastern Daylight Time),363925.89999961853,CFD-WM-013-015-A.jpg,1700,dash,I,m,1076,9,2,52833.199999809265,311092.69999980927,9024,ATS,A,23
23,test,1,B,mfborder.png,1,m,Thu Sep 11 2025 14:45:21 GMT-0400 (Eastern Daylight Time),366275.89999961853,CFD-WM-006-013-HC.jpg,1600,dash,I,m,728,10,2,55183.199999809265,311092.69999980927,9024,ATS,A,24
0,prac,1,C,mfborder.png,0,m,Thu Sep 11 2025 14:45:21 GMT-0400 (Eastern Daylight Time),419159.5,CFD-BM-017-052-HC.jpg,2000,solid,I,None,1516,4,2,4316.800000190735,414842.69999980927,9024,ATS,A,1
1,prac,1,C,haborder.png,1,m,Thu Sep 11 2025 14:45:21 GMT-0400 (Eastern Daylight Time),422309.39999961853,CFD-WM-004-005-HC.jpg,1400,solid,I,m,941,12,2,7466.699999809265,414842.69999980927,9024,ATS,A,2
2,prac,1,C,haborder.png,1,z,Thu Sep 11 2025 14:45:21 GMT-0400 (Eastern Daylight Time),426509.5,CFD-BF-023-013-A.jpg,1900,dash,I,z,1484,7,2,11666.800000190735,414842.69999980927,9024,ATS,A,3
2,prac,1,C,mfborder.png,0,z,Thu Sep 11 2025 14:45:21 GMT-0400 (Eastern Daylight Time),430426.0,CFD-WF-017-016-HC.jpg,1600,dash,I,None,1516,1,2,15583.300000190735,414842.69999980927,9024,ATS,A,4
3,prac,1,C,haborder.png,1,m,Thu Sep 11 2025 14:45:21 GMT-0400 (Eastern Daylight Time),433042.80000019073,CFD-WM-004-005-HC.jpg,1000,dash,I,m,811,11,2,18200.10000038147,414842.69999980927,9024,ATS,A,5
4,prac,1,C,mfborder.png,1,z,Thu Sep 11 2025 14:45:21 GMT-0400 (Eastern Daylight Time),436009.5,CFD-BF-028-020-HC.jpg,1000,dash,I,z,1155,3,2,21166.800000190735,414842.69999980927,9024,ATS,A,6
5,prac,1,C,haborder.png,1,m,Thu Sep 11 2025 14:45:21 GMT-0400 (Eastern Daylight Time),439075.89999961853,CFD-BM-029-026-HC.jpg,1500,solid,I,m,760,10,2,24233.199999809265,414842.69999980927,9024,ATS,A,7
6,prac,1,C,mfborder.png,1,m,Thu Sep 11 2025 14:45:21 GMT-0400 (Eastern Daylight Time),443009.39999961853,CFD-WM-013-015-A.jpg,1700,solid,I,m,1429,6,2,28166.699999809265,414842.69999980927,9024,ATS,A,8
7,prac,1,C,mfborder.png,1,m,Thu Sep 11 2025 14:45:21 GMT-0400 (Eastern Daylight Time),445742.30000019073,CFD-BM-005-010-A.jpg,1200,dash,I,m,732,5,2,30899.60000038147,414842.69999980927,9024,ATS,A,9
8,prac,1,C,haborder.png,1,z,Thu Sep 11 2025 14:45:21 GMT-0400 (Eastern Daylight Time),449376.0,CFD-BF-039-039-A.jpg,1700,solid,I,z,1131,8,2,34533.300000190735,414842.69999980927,9024,ATS,A,10
9,prac,1,C,mfborder.png,1,z,Thu Sep 11 2025 14:45:21 GMT-0400 (Eastern Daylight Time),452559.39999961853,CFD-WF-019-015-A.jpg,1500,solid,I,z,881,2,2,37716.699999809265,414842.69999980927,9024,ATS,A,11
10,prac,1,C,haborder.png,1,z,Thu Sep 11 2025 14:45:21 GMT-0400 (Eastern Daylight Time),455876.0999994278,CFD-WF-003-014-A.jpg,1600,dash,I,z,909,9,2,41033.39999961853,414842.69999980927,9024,ATS,A,12
0,test,1,C,haborder.png,0,m,Thu Sep 11 2025 14:45:21 GMT-0400 (Eastern Daylight Time),484093.0,CFD-WF-002-008-HC.jpg,1500,solid,I,None,1517,11,2,3050.199999809265,481042.80000019073,9024,ATS,A,1
0,test,1,C,haborder.png,0,m,Thu Sep 11 2025 14:45:21 GMT-0400 (Eastern Daylight Time),486059.19999980927,CFD-WF-017-016-HC.jpg,1000,solid,I,z,937,12,2,5016.39999961853,481042.80000019073,9024,ATS,A,2
0,test,1,C,haborder.png,0,m,Thu Sep 11 2025 14:45:21 GMT-0400 (Eastern Daylight Time),488175.5999994278,CFD-WF-017-016-HC.jpg,1000,solid,I,z,1098,12,2,7132.799999237061,481042.80000019073,9024,ATS,A,3
1,test,1,C,mfborder.png,1,z,Thu Sep 11 2025 14:45:21 GMT-0400 (Eastern Daylight Time),490609.30000019073,CFD-BF-023-013-A.jpg,1600,dash,I,z,814,2,2,9566.5,481042.80000019073,9024,ATS,A,4
2,test,1,C,mfborder.png,1,m,Thu Sep 11 2025 14:45:21 GMT-0400 (Eastern Daylight Time),492876.0,CFD-BM-029-026-HC.jpg,1200,dash,I,m,1036,6,2,11833.199999809265,481042.80000019073,9024,ATS,A,5
2,test,1,C,haborder.png,0,m,Thu Sep 11 2025 14:45:21 GMT-0400 (Eastern Daylight Time),495375.5999994278,CFD-BF-028-020-HC.jpg,1600,solid,I,z,865,10,2,14332.79999923706,481042.80000019073,9024,ATS,A,6
3,test,1,C,mfborder.png,1,m,Thu Sep 11 2025 14:45:21 GMT-0400 (Eastern Daylight Time),497209.30000019073,CFD-WM-006-013-HC.jpg,1000,dash,I,m,806,4,2,16166.5,481042.80000019073,9024,ATS,A,7
3,test,1,C,haborder.png,0,m,Thu Sep 11 2025 14:45:21 GMT-0400 (Eastern Daylight Time),499626.0,CFD-BF-028-020-HC.jpg,1600,solid,I,z,772,10,2,18583.199999809265,481042.80000019073,9024,ATS,A,8
3,test,1,C,mfborder.png,0,z,Thu Sep 11 2025 14:45:21 GMT-0400 (Eastern Daylight Time),501559.39999961853,CFD-WF-003-014-A.jpg,1500,dash,I,m,408,3,2,20516.599999427795,481042.80000019073,9024,ATS,A,9
4,test,1,C,mfborder.png,1,z,Thu Sep 11 2025 14:45:21 GMT-0400 (Eastern Daylight Time),503859.30000019073,CFD-BF-010-005-HC.jpg,1700,dash,I,z,578,1,2,22816.5,481042.80000019073,9024,ATS,A,10
4,test,1,C,haborder.png,0,z,Thu Sep 11 2025 14:45:21 GMT-0400 (Eastern Daylight Time),506476.0,CFD-BM-010-019-A.jpg,1700,solid,I,m,870,9,2,25433.199999809265,481042.80000019073,9024,ATS,A,11
5,test,1,C,mfborder.png,1,z,Thu Sep 11 2025 14:45:21 GMT-0400 (Eastern Daylight Time),508609.19999980927,CFD-WF-003-014-A.jpg,1500,dash,I,z,613,3,2,27566.39999961853,481042.80000019073,9024,ATS,A,12
5,test,1,C,haborder.png,0,z,Thu Sep 11 2025 14:45:21 GMT-0400 (Eastern Daylight Time),510442.69999980927,CFD-WM-013-015-A.jpg,1400,solid,I,m,405,7,2,29399.89999961853,481042.80000019073,9024,ATS,A,13
6,test,1,C,mfborder.png,1,z,Thu Sep 11 2025 14:45:21 GMT-0400 (Eastern Daylight Time),512608.89999961853,CFD-BF-010-005-HC.jpg,1700,dash,I,z,446,1,2,31566.099999427795,481042.80000019073,9024,ATS,A,14
6,test,1,C,haborder.png,0,z,Thu Sep 11 2025 14:45:21 GMT-0400 (Eastern Daylight Time),514759.39999961853,CFD-BM-010-019-A.jpg,1700,solid,I,m,425,9,2,33716.599999427795,481042.80000019073,9024,ATS,A,15
7,test,1,C,mfborder.png,1,z,Thu Sep 11 2025 14:45:21 GMT-0400 (Eastern Daylight Time),517209.30000019073,CFD-BF-023-013-A.jpg,1600,dash,I,z,806,2,2,36166.5,481042.80000019073,9024,ATS,A,16
8,test,1,C,mfborder.png,1,m,Thu Sep 11 2025 14:45:21 GMT-0400 (Eastern Daylight Time),519392.39999961853,CFD-BM-029-026-HC.jpg,1200,dash,I,m,964,6,2,38349.599999427795,481042.80000019073,9024,ATS,A,17
8,test,1,C,mfborder.png,0,m,Thu Sep 11 2025 14:45:21 GMT-0400 (Eastern Daylight Time),521025.89999961853,CFD-WM-006-013-HC.jpg,1000,dash,I,z,596,4,2,39983.099999427795,481042.80000019073,9024,ATS,A,18
8,test,1,C,haborder.png,0,z,Thu Sep 11 2025 14:45:21 GMT-0400 (Eastern Daylight Time),523592.69999980927,CFD-BM-005-010-A.jpg,1900,solid,I,m,640,8,2,42549.89999961853,481042.80000019073,9024,ATS,A,19
8,test,1,C,haborder.png,0,m,Thu Sep 11 2025 14:45:21 GMT-0400 (Eastern Daylight Time),526159.1999998093,CFD-WF-002-008-HC.jpg,1500,solid,I,z,1033,11,2,45116.39999961853,481042.80000019073,9024,ATS,A,20
9,test,1,C,mfborder.png,1,m,Thu Sep 11 2025 14:45:21 GMT-0400 (Eastern Daylight Time),529242.0,CFD-WM-019-013-A.jpg,2000,dash,I,m,1053,5,2,48199.199999809265,481042.80000019073,9024,ATS,A,21
9,test,1,C,haborder.png,0,z,Thu Sep 11 2025 14:45:21 GMT-0400 (Eastern Daylight Time),532542.6999998093,CFD-BM-005-010-A.jpg,1900,solid,I,m,1367,8,2,51499.89999961853,481042.80000019073,9024,ATS,A,22
10,test,1,C,mfborder.png,1,m,Thu Sep 11 2025 14:45:21 GMT-0400 (Eastern Daylight Time),535459.3999996185,CFD-WM-019-013-A.jpg,2000,dash,I,m,895,5,2,54416.599999427795,481042.80000019073,9024,ATS,A,23
11,test,1,C,haborder.png,1,z,Thu Sep 11 2025 14:45:21 GMT-0400 (Eastern Daylight Time),537942.5999994278,CFD-WM-013-015-A.jpg,1400,solid,I,z,1059,7,2,56899.79999923706,481042.80000019073,9024,ATS,A,24
0,test,2,C,haborder.png,0,m,Thu Sep 11 2025 14:45:21 GMT-0400 (Eastern Daylight Time),569776.3999996185,CFD-WM-004-005-HC.jpg,1500,solid,I,None,1517,11,2,3033.5999994277954,566742.8000001907,9024,ATS,A,1
0,test,2,C,mfborder.png,0,z,Thu Sep 11 2025 14:45:21 GMT-0400 (Eastern Daylight Time),572509.3999996185,CFD-BF-028-020-HC.jpg,1500,dash,I,m,1168,3,2,5766.599999427795,566742.8000001907,9024,ATS,A,2
0,test,2,C,mfborder.png,0,z,Thu Sep 11 2025 14:45:21 GMT-0400 (Eastern Daylight Time),575342.8000001907,CFD-WF-017-016-HC.jpg,1700,dash,I,m,1100,1,2,8600.0,566742.8000001907,9024,ATS,A,3
1,test,2,C,haborder.png,1,z,Thu Sep 11 2025 14:45:21 GMT-0400 (Eastern Daylight Time),577842.5999994278,CFD-WF-003-014-A.jpg,1700,solid,I,z,762,9,2,11099.79999923706,566742.8000001907,9024,ATS,A,4
2,test,2,C,haborder.png,1,m,Thu Sep 11 2025 14:45:21 GMT-0400 (Eastern Daylight Time),580175.6999998093,CFD-BM-029-026-HC.jpg,1600,solid,I,m,715,10,2,13432.89999961853,566742.8000001907,9024,ATS,A,5
2,test,2,C,mfborder.png,0,m,Thu Sep 11 2025 14:45:21 GMT-0400 (Eastern Daylight Time),582375.6999998093,CFD-WM-013-015-A.jpg,1200,dash,I,z,958,6,2,15632.89999961853,566742.8000001907,9024,ATS,A,6
3,test,2,C,haborder.png,1,m,Thu Sep 11 2025 14:45:21 GMT-0400 (Eastern Daylight Time),584676.0,CFD-WM-004-005-HC.jpg,1500,solid,I,m,778,11,2,17933.199999809265,566742.8000001907,9024,ATS,A,7
4,test,2,C,haborder.png,1,z,Thu Sep 11 2025 14:45:21 GMT-0400 (Eastern Daylight Time),587375.6999998093,CFD-BF-039-039-A.jpg,1900,solid,I,z,765,8,2,20632.89999961853,566742.8000001907,9024,ATS,A,8
5,test,2,C,haborder.png,1,z,Thu Sep 11 2025 14:45:21 GMT-0400 (Eastern Daylight Time),589409.0,CFD-BF-023-013-A.jpg,1400,solid,I,z,613,7,2,22666.199999809265,566742.8000001907,9024,ATS,A,9
6,test,2,C,mfborder.png,1,m,Thu Sep 11 2025 14:45:21 GMT-0400 (Eastern Daylight Time),591426.0999994278,CFD-WM-013-015-A.jpg,1200,dash,I,m,780,6,2,24683.29999923706,566742.8000001907,9024,ATS,A,10
6,test,2,C,mfborder.png,0,m,Thu Sep 11 2025 14:45:21 GMT-0400 (Eastern Daylight Time),593626.0999994278,CFD-BM-017-052-HC.jpg,1000,dash,I,z,1172,4,2,26883.29999923706,566742.8000001907,9024,ATS,A,11
7,test,2,C,haborder.png,1,z,Thu Sep 11 2025 14:45:21 GMT-0400 (Eastern Daylight Time),596076.0,CFD-BF-023-013-A.jpg,1400,solid,I,z,1020,7,2,29333.199999809265,566742.8000001907,9024,ATS,A,12
7,test,2,C,mfborder.png,0,z,Thu Sep 11 2025 14:45:21 GMT-0400 (Eastern Daylight Time),598826.0,CFD-WF-017-016-HC.jpg,1700,dash,I,m,1005,1,2,32083.199999809265,566742.8000001907,9024,ATS,A,13
7,test,2,C,mfborder.png,0,m,Thu Sep 11 2025 14:45:21 GMT-0400 (Eastern Daylight Time),601942.5999994278,CFD-BM-005-010-A.jpg,2000,dash,I,z,1092,5,2,35199.79999923706,566742.8000001907,9024,ATS,A,14
8,test,2,C,haborder.png,1,m,Thu Sep 11 2025 14:45:21 GMT-0400 (Eastern Daylight Time),604592.3999996185,CFD-BM-029-026-HC.jpg,1600,solid,I,m,1021,10,2,37849.599999427795,566742.8000001907,9024,ATS,A,15
9,test,2,C,mfborder.png,1,z,Thu Sep 11 2025 14:45:21 GMT-0400 (Eastern Daylight Time),606992.3999996185,CFD-WF-019-015-A.jpg,1600,dash,I,z,781,2,2,40249.599999427795,566742.8000001907,9024,ATS,A,16
10,test,2,C,haborder.png,1,z,Thu Sep 11 2025 14:45:21 GMT-0400 (Eastern Daylight Time),609675.6999998093,CFD-BF-039-039-A.jpg,1900,solid,I,z,735,8,2,42932.89999961853,566742.8000001907,9024,ATS,A,17
11,test,2,C,haborder.png,1,m,Thu Sep 11 2025 14:45:21 GMT-0400 (Eastern Daylight Time),611526.0999994278,CFD-WM-004-005-HC.jpg,1000,solid,I,m,826,12,2,44783.29999923706,566742.8000001907,9024,ATS,A,18
12,test,2,C,mfborder.png,1,z,Thu Sep 11 2025 14:45:21 GMT-0400 (Eastern Daylight Time),613859.3999996185,CFD-BF-028-020-HC.jpg,1500,dash,I,z,795,3,2,47116.599999427795,566742.8000001907,9024,ATS,A,19
13,test,2,C,mfborder.png,1,m,Thu Sep 11 2025 14:45:21 GMT-0400 (Eastern Daylight Time),615859.3999996185,CFD-BM-017-052-HC.jpg,1000,dash,I,m,978,4,2,49116.599999427795,566742.8000001907,9024,ATS,A,20
14,test,2,C,haborder.png,1,m,Thu Sep 11 2025 14:45:21 GMT-0400 (Eastern Daylight Time),617959.5,CFD-WM-004-005-HC.jpg,1000,solid,I,m,1058,12,2,51216.699999809265,566742.8000001907,9024,ATS,A,21
15,test,2,C,mfborder.png,1,z,Thu Sep 11 2025 14:45:21 GMT-0400 (Eastern Daylight Time),620359.3999996185,CFD-WF-019-015-A.jpg,1600,dash,I,z,774,2,2,53616.599999427795,566742.8000001907,9024,ATS,A,22
15,test,2,C,mfborder.png,0,m,Thu Sep 11 2025 14:45:21 GMT-0400 (Eastern Daylight Time),623709.5,CFD-BM-005-010-A.jpg,2000,dash,I,z,1302,5,2,56966.699999809265,566742.8000001907,9024,ATS,A,23
16,test,2,C,haborder.png,1,z,Thu Sep 11 2025 14:45:21 GMT-0400 (Eastern Daylight Time),626276.0,CFD-WF-003-014-A.jpg,1700,solid,I,z,844,9,2,59533.199999809265,566742.8000001907,9024,ATS,A,24
0,test,3,C,haborder.png,0,z,Thu Sep 11 2025 14:45:21 GMT-0400 (Eastern Daylight Time),645009.8000001907,CFD-BM-005-010-A.jpg,1900,solid,I,None,1516,8,2,3433.6000003814697,641576.1999998093,9024,ATS,A,1
1,test,3,C,haborder.png,1,z,Thu Sep 11 2025 14:45:21 GMT-0400 (Eastern Daylight Time),647676.0999994278,CFD-BM-005-010-A.jpg,1900,solid,I,z,736,8,2,6099.89999961853,641576.1999998093,9024,ATS,A,2
2,test,3,C,mfborder.png,1,z,Thu Sep 11 2025 14:45:21 GMT-0400 (Eastern Daylight Time),650309.3999996185,CFD-BF-010-005-HC.jpg,1700,dash,I,z,910,1,2,8733.199999809265,641576.1999998093,9024,ATS,A,3
3,test,3,C,mfborder.png,1,z,Thu Sep 11 2025 14:45:21 GMT-0400 (Eastern Daylight Time),652876.0999994278,CFD-BF-023-013-A.jpg,1600,dash,I,z,936,2,2,11299.89999961853,641576.1999998093,9024,ATS,A,4
3,test,3,C,haborder.png,0,z,Thu Sep 11 2025 14:45:21 GMT-0400 (Eastern Daylight Time),654942.6999998093,CFD-WM-013-015-A.jpg,1400,solid,I,m,634,7,2,13366.5,641576.1999998093,9024,ATS,A,5
3,test,3,C,mfborder.png,0,m,Thu Sep 11 2025 14:45:21 GMT-0400 (Eastern Daylight Time),656776.0999994278,CFD-BM-029-026-HC.jpg,1200,dash,I,z,591,6,2,15199.89999961853,641576.1999998093,9024,ATS,A,6
3,test,3,C,haborder.png,0,z,Thu Sep 11 2025 14:45:21 GMT-0400 (Eastern Daylight Time),658909.3999996185,CFD-BM-010-019-A.jpg,1700,solid,I,m,402,9,2,17333.199999809265,641576.1999998093,9024,ATS,A,7
3,test,3,C,mfborder.png,0,m,Thu Sep 11 2025 14:45:21 GMT-0400 (Eastern Daylight Time),660626.0999994278,CFD-BM-029-026-HC.jpg,1200,dash,I,z,480,6,2,19049.89999961853,641576.1999998093,9024,ATS,A,8
4,test,3,C,mfborder.png,1,z,Thu Sep 11 2025 14:45:21 GMT-0400 (Eastern Daylight Time),662509.3999996185,CFD-WF-003-014-A.jpg,1500,dash,I,z,352,3,2,20933.199999809265,641576.1999998093,9024,ATS,A,9
5,test,3,C,mfborder.png,1,m,Thu Sep 11 2025 14:45:21 GMT-0400 (Eastern Daylight Time),664975.6999998093,CFD-WM-019-013-A.jpg,2000,dash,I,m,448,5,2,23399.5,641576.1999998093,9024,ATS,A,10
5,test,3,C,haborder.png,0,m,Thu Sep 11 2025 14:45:21 GMT-0400 (Eastern Daylight Time),666759.5,CFD-WF-017-016-HC.jpg,1000,solid,I,z,758,12,2,25183.300000190735,641576.1999998093,9024,ATS,A,11
5,test,3,C,haborder.png,0,m,Thu Sep 11 2025 14:45:21 GMT-0400 (Eastern Daylight Time),669092.8999996185,CFD-BF-028-020-HC.jpg,1600,solid,I,z,710,10,2,27516.699999809265,641576.1999998093,9024,ATS,A,12
5,test,3,C,haborder.png,0,m,Thu Sep 11 2025 14:45:21 GMT-0400 (Eastern Daylight Time),670892.8000001907,CFD-WF-017-016-HC.jpg,1000,solid,I,z,769,12,2,29316.60000038147,641576.1999998093,9024,ATS,A,13
5,test,3,C,mfborder.png,0,z,Thu Sep 11 2025 14:45:21 GMT-0400 (Eastern Daylight Time),673092.6999998093,CFD-WF-003-014-A.jpg,1500,dash,I,m,660,3,2,31516.5,641576.1999998093,9024,ATS,A,14
5,test,3,C,haborder.png,0,m,Thu Sep 11 2025 14:45:21 GMT-0400 (Eastern Daylight Time),674793.3999996185,CFD-WF-002-008-HC.jpg,1500,solid,I,z,173,11,2,33217.199999809265,641576.1999998093,9024,ATS,A,15
5,test,3,C,mfborder.png,0,z,Thu Sep 11 2025 14:45:21 GMT-0400 (Eastern Daylight Time),676959.8000001907,CFD-BF-023-013-A.jpg,1600,dash,I,m,550,2,2,35383.60000038147,641576.1999998093,9024,ATS,A,16
6,test,3,C,mfborder.png,1,z,Thu Sep 11 2025 14:45:21 GMT-0400 (Eastern Daylight Time),679126.0999994278,CFD-BF-010-005-HC.jpg,1700,dash,I,z,443,1,2,37549.89999961853,641576.1999998093,9024,ATS,A,17
7,test,3,C,haborder.png,1,z,Thu Sep 11 2025 14:45:21 GMT-0400 (Eastern Daylight Time),681142.8999996185,CFD-WM-013-015-A.jpg,1400,solid,I,z,575,7,2,39566.699999809265,641576.1999998093,9024,ATS,A,18
7,test,3,C,haborder.png,0,m,Thu Sep 11 2025 14:45:21 GMT-0400 (Eastern Daylight Time),683259.3999996185,CFD-WF-002-008-HC.jpg,1500,solid,I,z,587,11,2,41683.199999809265,641576.1999998093,9024,ATS,A,19
8,test,3,C,haborder.png,1,z,Thu Sep 11 2025 14:45:21 GMT-0400 (Eastern Daylight Time),685326.0999994278,CFD-BM-010-019-A.jpg,1700,solid,I,z,318,9,2,43749.89999961853,641576.1999998093,9024,ATS,A,20
9,test,3,C,mfborder.png,1,m,Thu Sep 11 2025 14:45:21 GMT-0400 (Eastern Daylight Time),687809.0999994278,CFD-WM-019-013-A.jpg,2000,dash,I,m,464,5,2,46232.89999961853,641576.1999998093,9024,ATS,A,21
10,test,3,C,haborder.png,1,m,Thu Sep 11 2025 14:45:21 GMT-0400 (Eastern Daylight Time),690259.3999996185,CFD-BF-028-020-HC.jpg,1600,solid,I,m,812,10,2,48683.199999809265,641576.1999998093,9024,ATS,A,22
10,test,3,C,mfborder.png,0,m,Thu Sep 11 2025 14:45:21 GMT-0400 (Eastern Daylight Time),691559.0,CFD-WM-006-013-HC.jpg,1000,dash,I,z,274,4,2,49982.800000190735,641576.1999998093,9024,ATS,A,23
10,test,3,C,mfborder.png,0,m,Thu Sep 11 2025 14:45:21 GMT-0400 (Eastern Daylight Time),693092.8000001907,CFD-WM-006-013-HC.jpg,1000,dash,I,z,494,4,2,51516.60000038147,641576.1999998093,9024,ATS,A,24
0,test,4,C,haborder.png,0,z,Thu Sep 11 2025 14:45:21 GMT-0400 (Eastern Daylight Time),709292.1999998093,CFD-BF-023-013-A.jpg,1400,solid,I,None,1515,7,2,2932.699999809265,706359.5,9024,ATS,A,1
0,test,4,C,mfborder.png,0,z,Thu Sep 11 2025 14:45:21 GMT-0400 (Eastern Daylight Time),711892.8000001907,CFD-BF-028-020-HC.jpg,1500,dash,I,m,1077,3,2,5533.300000190735,706359.5,9024,ATS,A,2
0,test,4,C,haborder.png,0,m,Thu Sep 11 2025 14:45:21 GMT-0400 (Eastern Daylight Time),714009.3999996185,CFD-WM-004-005-HC.jpg,1500,solid,I,z,589,11,2,7649.89999961853,706359.5,9024,ATS,A,3
1,test,4,C,haborder.png,1,z,Thu Sep 11 2025 14:45:21 GMT-0400 (Eastern Daylight Time),716809.5,CFD-BF-039-039-A.jpg,1900,solid,I,z,856,8,2,10450.0,706359.5,9024,ATS,A,4
2,test,4,C,haborder.png,1,z,Thu Sep 11 2025 14:45:21 GMT-0400 (Eastern Daylight Time),719359.3999996185,CFD-WF-003-014-A.jpg,1700,solid,I,z,832,9,2,12999.89999961853,706359.5,9024,ATS,A,5
3,test,4,C,mfborder.png,1,m,Thu Sep 11 2025 14:45:21 GMT-0400 (Eastern Daylight Time),721292.8999996185,CFD-BM-017-052-HC.jpg,1000,dash,I,m,885,4,2,14933.39999961853,706359.5,9024,ATS,A,6
4,test,4,C,mfborder.png,1,m,Thu Sep 11 2025 14:45:21 GMT-0400 (Eastern Daylight Time),723892.8999996185,CFD-BM-005-010-A.jpg,2000,dash,I,m,577,5,2,17533.39999961853,706359.5,9024,ATS,A,7
4,test,4,C,mfborder.png,0,z,Thu Sep 11 2025 14:45:21 GMT-0400 (Eastern Daylight Time),726942.6999998093,CFD-BF-028-020-HC.jpg,1500,dash,I,m,1499,3,2,20583.199999809265,706359.5,9024,ATS,A,8
5,test,4,C,haborder.png,1,z,Thu Sep 11 2025 14:45:21 GMT-0400 (Eastern Daylight Time),729426.0999994278,CFD-BF-023-013-A.jpg,1400,solid,I,z,1063,7,2,23066.599999427795,706359.5,9024,ATS,A,9
6,test,4,C,haborder.png,1,m,Thu Sep 11 2025 14:45:21 GMT-0400 (Eastern Daylight Time),731859.3000001907,CFD-WM-004-005-HC.jpg,1500,solid,I,m,895,11,2,25499.800000190735,706359.5,9024,ATS,A,10
7,test,4,C,haborder.png,1,z,Thu Sep 11 2025 14:45:21 GMT-0400 (Eastern Daylight Time),733992.8000001907,CFD-WF-003-014-A.jpg,1700,solid,I,z,406,9,2,27633.300000190735,706359.5,9024,ATS,A,11
7,test,4,C,haborder.png,0,z,Thu Sep 11 2025 14:45:21 GMT-0400 (Eastern Daylight Time),736476.1999998093,CFD-BF-039-039-A.jpg,1900,solid,I,m,536,8,2,30116.699999809265,706359.5,9024,ATS,A,12
8,test,4,C,mfborder.png,1,z,Thu Sep 11 2025 14:45:21 GMT-0400 (Eastern Daylight Time),739009.5,CFD-WF-017-016-HC.jpg,1700,dash,I,z,814,1,2,32650.0,706359.5,9024,ATS,A,13
9,test,4,C,haborder.png,1,m,Thu Sep 11 2025 14:45:21 GMT-0400 (Eastern Daylight Time),741042.6999998093,CFD-WM-004-005-HC.jpg,1000,solid,I,m,1012,12,2,34683.199999809265,706359.5,9024,ATS,A,14
9,test,4,C,mfborder.png,0,m,Thu Sep 11 2025 14:45:21 GMT-0400 (Eastern Daylight Time),742759.5,CFD-WM-013-015-A.jpg,1200,dash,I,z,474,6,2,36400.0,706359.5,9024,ATS,A,15
10,test,4,C,mfborder.png,1,m,Thu Sep 11 2025 14:45:21 GMT-0400 (Eastern Daylight Time),744909.5,CFD-WM-013-015-A.jpg,1200,dash,I,m,918,6,2,38550.0,706359.5,9024,ATS,A,16
10,test,4,C,haborder.png,0,m,Thu Sep 11 2025 14:45:21 GMT-0400 (Eastern Daylight Time),747042.8000001907,CFD-BM-029-026-HC.jpg,1600,solid,I,z,496,10,2,40683.300000190735,706359.5,9024,ATS,A,17
11,test,4,C,mfborder.png,1,m,Thu Sep 11 2025 14:45:21 GMT-0400 (Eastern Daylight Time),749909.5,CFD-BM-005-010-A.jpg,2000,dash,I,m,843,5,2,43550.0,706359.5,9024,ATS,A,18
11,test,4,C,haborder.png,0,m,Thu Sep 11 2025 14:45:21 GMT-0400 (Eastern Daylight Time),751726.0999994278,CFD-WM-004-005-HC.jpg,1000,solid,I,z,784,12,2,45366.599999427795,706359.5,9024,ATS,A,19
12,test,4,C,mfborder.png,1,m,Thu Sep 11 2025 14:45:21 GMT-0400 (Eastern Daylight Time),753392.5,CFD-BM-017-052-HC.jpg,1000,dash,I,m,631,4,2,47033.0,706359.5,9024,ATS,A,20
13,test,4,C,mfborder.png,1,z,Thu Sep 11 2025 14:45:21 GMT-0400 (Eastern Daylight Time),755759.1999998093,CFD-WF-019-015-A.jpg,1600,dash,I,z,733,2,2,49399.699999809265,706359.5,9024,ATS,A,21
13,test,4,C,mfborder.png,0,z,Thu Sep 11 2025 14:45:21 GMT-0400 (Eastern Daylight Time),758076.0999994278,CFD-WF-017-016-HC.jpg,1700,dash,I,m,586,1,2,51716.599999427795,706359.5,9024,ATS,A,22
14,test,4,C,mfborder.png,1,z,Thu Sep 11 2025 14:45:21 GMT-0400 (Eastern Daylight Time),760626.0,CFD-WF-019-015-A.jpg,1600,dash,I,z,930,2,2,54266.5,706359.5,9024,ATS,A,23
14,test,4,C,haborder.png,0,m,Thu Sep 11 2025 14:45:21 GMT-0400 (Eastern Daylight Time),763176.3000001907,CFD-BM-029-026-HC.jpg,1600,solid,I,z,907,10,2,56816.800000190735,706359.5,9024,ATS,A,24
