acc_sum,block,block_c,condition,correct,correct_response,datetime,endtime,flanker,jitter,project,response,response_test_buffer_response,response_test_target_response,response_time,response_time_test_buffer_response,response_time_test_target_response,row_sel,session_number,start_end,starttime,subject_id,target,task,task_vers,time_test_buffer,time_test_buffer_response,time_test_constants,time_test_flanker,time_test_jitter,time_test_logger,time_test_target,time_test_target_response,time_test_variables,trial
0,prac,1,inc,0,m,Tue Mar 24 2026 09:54:53 GMT-0500 (Central Daylight Time),144424.29999995232,pear,900,I,None,,,1799,,,14,1,4960.5,139463.79999995232,7777,iron,NF,C,,,,,,,,,,1
1,prac,1,inc,1,z,Tue Mar 24 2026 09:54:53 GMT-0500 (Central Daylight Time),147423.10000014305,copper,900,I,z,,,791,,,2,1,2993.4000000953674,144429.70000004768,7777,cherry,NF,C,,,,,,,,,,2
2,prac,1,con,1,z,Tue Mar 24 2026 09:54:53 GMT-0500 (Central Daylight Time),150289.29999995232,banana,800,I,z,,,700,,,1,1,2861.899999856949,147427.40000009537,7777,banana,NF,C,,,,,,,,,,3
3,prac,1,con,1,m,Tue Mar 24 2026 09:54:53 GMT-0500 (Central Daylight Time),153204.90000009537,silver,1000,I,m,,,610,,,11,1,2910.9000000953674,150294.0,7777,silver,NF,C,,,,,,,,,,4
4,prac,1,inc,1,z,Tue Mar 24 2026 09:54:53 GMT-0500 (Central Daylight Time),156337.10000014305,cobalt,1100,I,z,,,722,,,4,1,3127.7000000476837,153209.40000009537,7777,raisin,NF,C,,,,,,,,,,5
5,prac,1,con,1,m,Tue Mar 24 2026 09:54:53 GMT-0500 (Central Daylight Time),159336.20000004768,zinc,1000,I,m,,,690,,,15,1,2994.7000000476837,156341.5,7777,zinc,NF,C,,,,,,,,,,6
6,prac,1,con,1,z,Tue Mar 24 2026 09:54:53 GMT-0500 (Central Daylight Time),162101.90000009537,lime,800,I,z,,,652,,,5,1,2761.100000143051,159340.79999995232,7777,lime,NF,C,,,,,,,,,,7
7,prac,1,con,1,m,Tue Mar 24 2026 09:54:53 GMT-0500 (Central Daylight Time),164717.79999995232,bronze,800,I,m,,,501,,,9,1,2611.5999999046326,162106.20000004768,7777,bronze,NF,C,,,,,,,,,,8
8,prac,1,con,1,m,Tue Mar 24 2026 09:54:53 GMT-0500 (Central Daylight Time),167534.79999995232,gold,800,I,m,,,710,,,13,1,2811.899999856949,164722.90000009537,7777,gold,NF,C,,,,,,,,,,9
9,prac,1,inc,1,m,Tue Mar 24 2026 09:54:53 GMT-0500 (Central Daylight Time),170632.60000014305,plum,1100,I,m,,,688,,,16,1,3093.100000143051,167539.5,7777,lead,NF,C,,,,,,,,,,10
10,prac,1,inc,1,z,Tue Mar 24 2026 09:54:53 GMT-0500 (Central Daylight Time),173483.10000014305,iron,900,I,z,,,638,,,6,1,2845.7000000476837,170637.40000009537,7777,pear,NF,C,,,,,,,,,,11
11,prac,1,inc,1,m,Tue Mar 24 2026 09:54:53 GMT-0500 (Central Daylight Time),176547.60000014305,raisin,1100,I,m,,,654,,,12,1,3060.100000143051,173487.5,7777,cobalt,NF,C,,,,,,,,,,12
12,prac,1,con,1,z,Tue Mar 24 2026 09:54:53 GMT-0500 (Central Daylight Time),179496.5,orange,1000,I,z,,,648,,,3,1,2944.7999999523163,176551.70000004768,7777,orange,NF,C,,,,,,,,,,13
13,prac,1,inc,1,m,Tue Mar 24 2026 09:54:53 GMT-0500 (Central Daylight Time),182262.5,cherry,900,I,m,,,549,,,10,1,2761.7000000476837,179500.79999995232,7777,copper,NF,C,,,,,,,,,,14
14,prac,1,con,1,z,Tue Mar 24 2026 09:54:53 GMT-0500 (Central Daylight Time),185111.40000009537,kiwi,1000,I,z,,,565,,,7,1,2844.100000143051,182267.29999995232,7777,kiwi,NF,C,,,,,,,,,,15
15,prac,1,inc,1,z,Tue Mar 24 2026 09:54:53 GMT-0500 (Central Daylight Time),188127.20000004768,lead,1100,I,z,,,616,,,8,1,3011.7000000476837,185115.5,7777,plum,NF,C,,,,,,,,,,16
1,test,1,inc,1,m,Tue Mar 24 2026 09:54:53 GMT-0500 (Central Daylight Time),202473.0,cherry,900,I,m,m,None,682,483.0,199.0,94,1,2112.7999999523163,200360.20000004768,7777,cobalt,NF,C,191980,191980,190350,191264,190350,192463,191780,191780,192463,1
2,test,1,con,1,m,Tue Mar 24 2026 09:54:53 GMT-0500 (Central Daylight Time),204788.60000014305,copper,1100,I,m,m,None,679,477.0,202.0,76,1,2311.2000000476837,202477.40000009537,7777,copper,NF,C,194297,194297,192467,193579,192468,194779,194095,194095,194779,2
3,test,1,inc,1,m,Tue Mar 24 2026 09:54:53 GMT-0500 (Central Daylight Time),207088.29999995232,orange,1000,I,m,m,None,758,559.0,199.0,71,1,2295.399999856949,204792.90000009537,7777,bronze,NF,C,196512,196512,194783,195795,194783,197079,196312,196312,197078,3
4,test,1,con,1,z,Tue Mar 24 2026 09:54:53 GMT-0500 (Central Daylight Time),208970.5,banana,800,I,z,z,None,539,338.0,201.0,1,1,1877.7999999523163,207092.70000004768,7777,banana,NF,C,198612,198612,197083,197894,197083,198961,198411,198411,198961,4
5,test,1,con,1,m,Tue Mar 24 2026 09:54:53 GMT-0500 (Central Daylight Time),211003.60000014305,iron,800,I,m,m,None,696,497.0,199.0,105,1,2029.1000001430511,208974.5,7777,iron,NF,C,200494,200494,198964,199777,198965,200994,200294,200294,200994,5
6,test,1,inc,1,z,Tue Mar 24 2026 09:54:53 GMT-0500 (Central Daylight Time),213002.79999995232,gold,800,I,z,z,None,663,464.0,199.0,37,1,1995.0999999046326,211007.70000004768,7777,lime,NF,C,202527,202527,200998,201810,200998,202993,202327,202327,202993,6
7,test,1,inc,1,z,Tue Mar 24 2026 09:54:53 GMT-0500 (Central Daylight Time),214969.10000014305,gold,800,I,z,z,None,617,417.0,200.0,45,1,1961.9000000953674,213007.20000004768,7777,pear,NF,C,204526,204526,202997,203809,202998,204959,204326,204326,204959,7
8,test,1,con,1,m,Tue Mar 24 2026 09:54:53 GMT-0500 (Central Daylight Time),216934.79999995232,bronze,800,I,m,m,None,627,427.0,200.0,65,1,1961.7999999523163,214973.0,7777,bronze,NF,C,206492,206492,204963,205775,204963,206925,206292,206292,206925,8
9,test,1,con,1,z,Tue Mar 24 2026 09:54:53 GMT-0500 (Central Daylight Time),219084.20000004768,pear,900,I,z,z,None,704,505.0,199.0,42,1,2145.5999999046326,216938.60000014305,7777,pear,NF,C,208558,208558,206929,207841,206929,209074,208358,208358,209074,9
10,test,1,inc,1,z,Tue Mar 24 2026 09:54:53 GMT-0500 (Central Daylight Time),221200.10000014305,copper,900,I,z,z,None,668,468.0,200.0,30,1,2111.7000000476837,219088.40000009537,7777,raisin,NF,C,210707,210707,209078,209991,209079,211190,210507,210507,211190,10
11,test,1,inc,1,m,Tue Mar 24 2026 09:54:53 GMT-0500 (Central Daylight Time),223632.79999995232,kiwi,1000,I,m,m,None,883,684.0,199.0,119,1,2428.399999856949,221204.40000009537,7777,zinc,NF,C,212923,212923,211194,212207,211195,213623,212724,212724,213623,11
12,test,1,con,1,m,Tue Mar 24 2026 09:54:53 GMT-0500 (Central Daylight Time),225898.5,gold,1000,I,m,m,None,731,531.0,200.0,99,1,2261.399999856949,223637.10000014305,7777,gold,NF,C,215356,215356,213627,214639,213627,215889,215156,215156,215888,12
13,test,1,con,1,z,Tue Mar 24 2026 09:54:53 GMT-0500 (Central Daylight Time),227715.90000009537,lime,800,I,z,z,None,472,272.0,200.0,33,1,1813.2999999523163,225902.60000014305,7777,lime,NF,C,217422,217422,215893,216706,215893,217706,217222,217222,217706,13
14,test,1,con,1,z,Tue Mar 24 2026 09:54:53 GMT-0500 (Central Daylight Time),230064.0,pear,1100,I,z,z,None,699,500.0,199.0,44,1,2343.7000000476837,227720.29999995232,7777,pear,NF,C,219538,219538,217710,218822,217711,220054,219338,219338,220054,14
15,test,1,inc,1,m,Tue Mar 24 2026 09:54:53 GMT-0500 (Central Daylight Time),232079.90000009537,cherry,900,I,m,m,None,576,376.0,200.0,70,1,2011.2000000476837,230068.70000004768,7777,bronze,NF,C,221687,221687,220059,220971,220059,222070,221487,221487,222070,15
16,test,1,con,1,z,Tue Mar 24 2026 09:54:53 GMT-0500 (Central Daylight Time),234329.20000004768,lime,900,I,z,z,None,823,608.0,215.0,34,1,2244.0999999046326,232085.10000014305,7777,lime,NF,C,223703,223703,222075,222987,222075,224319,223488,223488,224319,16
17,test,1,inc,1,m,Tue Mar 24 2026 09:54:53 GMT-0500 (Central Daylight Time),236578.90000009537,raisin,1100,I,m,m,None,605,406.0,199.0,72,1,2245.600000143051,234333.29999995232,7777,bronze,NF,C,226153,226153,224323,225436,224324,226569,225953,225953,226569,17
18,test,1,inc,1,z,Tue Mar 24 2026 09:54:53 GMT-0500 (Central Daylight Time),238794.60000014305,zinc,1000,I,z,z,None,672,473.0,199.0,39,1,2211.9000000953674,236582.70000004768,7777,lime,NF,C,228302,228302,226573,227585,226573,228785,228103,228103,228785,18
19,test,1,con,1,m,Tue Mar 24 2026 09:54:53 GMT-0500 (Central Daylight Time),240677.5,gold,800,I,m,m,None,545,345.0,200.0,97,1,1879.0,238798.5,7777,gold,NF,C,230318,230318,228789,229601,228789,230668,230118,230118,230667,19
19,test,1,con,0,m,Tue Mar 24 2026 09:54:53 GMT-0500 (Central Daylight Time),242926.60000014305,bronze,1100,I,z,z,None,601,402.0,199.0,68,1,2245.5,240681.10000014305,7777,bronze,NF,C,232501,232501,230671,231784,230671,232917,232301,232301,232917,20
20,test,1,con,1,z,Tue Mar 24 2026 09:54:53 GMT-0500 (Central Daylight Time),245609.20000004768,orange,1100,I,z,z,None,1040,841.0,199.0,20,1,2677.7999999523163,242931.40000009537,7777,orange,NF,C,234750,234750,232921,234033,232922,235599,234550,234550,235599,21
21,test,1,inc,1,m,Tue Mar 24 2026 09:54:53 GMT-0500 (Central Daylight Time),247975.20000004768,orange,1000,I,m,m,None,818,618.0,200.0,95,1,2360.9000000953674,245614.29999995232,7777,cobalt,NF,C,237332,237332,235604,236616,235605,237965,237132,237132,237965,22
22,test,1,con,1,z,Tue Mar 24 2026 09:54:53 GMT-0500 (Central Daylight Time),250257.5,banana,900,I,z,z,None,848,648.0,200.0,2,1,2278.399999856949,247979.10000014305,7777,banana,NF,C,239598,239598,237969,238882,237969,240248,239398,239398,240248,23
23,test,1,con,1,z,Tue Mar 24 2026 09:54:53 GMT-0500 (Central Daylight Time),252090.5,kiwi,800,I,z,z,None,489,290.0,199.0,49,1,1829.0,250261.5,7777,kiwi,NF,C,241781,241781,240252,241064,240252,242081,241581,241581,242081,24
24,test,1,inc,1,z,Tue Mar 24 2026 09:54:53 GMT-0500 (Central Daylight Time),254339.79999995232,zinc,1000,I,z,z,None,704,505.0,199.0,55,1,2245.5,252094.29999995232,7777,kiwi,NF,C,243813,243813,242084,243097,242085,244330,243614,243614,244330,25
25,test,1,inc,1,m,Tue Mar 24 2026 09:54:53 GMT-0500 (Central Daylight Time),256405.79999995232,lime,800,I,m,m,None,720,520.0,200.0,109,1,2061.7999999523163,254344.0,7777,iron,NF,C,245863,245863,244334,245146,244334,246396,245663,245663,246396,26
26,test,1,inc,1,m,Tue Mar 24 2026 09:54:53 GMT-0500 (Central Daylight Time),258639.60000014305,orange,1000,I,m,m,None,694,493.0,201.0,79,1,2229.7000000476837,256409.90000009537,7777,copper,NF,C,248130,248130,246400,247412,246400,248630,247929,247929,248630,27
27,test,1,con,1,m,Tue Mar 24 2026 09:54:53 GMT-0500 (Central Daylight Time),261087.70000004768,gold,1100,I,m,m,None,808,609.0,199.0,100,1,2443.7000000476837,258644.0,7777,gold,NF,C,250462,250462,248634,249745,248634,251078,250262,250262,251078,28
28,test,1,con,1,m,Tue Mar 24 2026 09:54:53 GMT-0500 (Central Daylight Time),263120.5,silver,800,I,m,m,None,683,483.0,200.0,81,1,2028.8999998569489,261091.60000014305,7777,silver,NF,C,252611,252611,251082,251894,251082,253111,252411,252411,253111,29
29,test,1,inc,1,z,Tue Mar 24 2026 09:54:53 GMT-0500 (Central Daylight Time),265153.2999999523,iron,900,I,z,z,None,592,392.0,200.0,38,1,2028.6999998092651,263124.60000014305,7777,lime,NF,C,254743,254743,253115,254027,253115,255143,254543,254543,255143,30
30,test,1,con,1,z,Tue Mar 24 2026 09:54:53 GMT-0500 (Central Daylight Time),267602.10000014305,lime,1100,I,z,z,None,715,507.0,208.0,36,1,2445.100000143051,265157.0,7777,lime,NF,C,257076,257076,255147,256260,255147,257592,256868,256868,257592,31
31,test,1,inc,1,z,Tue Mar 24 2026 09:54:53 GMT-0500 (Central Daylight Time),269768.2999999523,bronze,800,I,z,z,None,826,626.0,200.0,13,1,2162.2999999523163,267606.0,7777,cherry,NF,C,259125,259125,257596,258409,257596,259758,258925,258925,259758,32
32,test,1,inc,1,m,Tue Mar 24 2026 09:54:53 GMT-0500 (Central Daylight Time),271900.7000000477,pear,900,I,m,m,None,687,488.0,199.0,110,1,2128.7000000476837,269772.0,7777,iron,NF,C,261391,261391,259762,260675,259762,261891,261192,261192,261891,33
33,test,1,con,1,m,Tue Mar 24 2026 09:54:53 GMT-0500 (Central Daylight Time),274316.7000000477,zinc,1100,I,m,m,None,779,579.0,200.0,116,1,2412.5,271904.2000000477,7777,zinc,NF,C,263724,263724,261894,263008,261895,264307,263524,263524,264307,34
34,test,1,con,1,z,Tue Mar 24 2026 09:54:53 GMT-0500 (Central Daylight Time),276516.2000000477,banana,1100,I,z,z,None,571,372.0,199.0,4,1,2195.7000000476837,274320.5,7777,banana,NF,C,266123,266123,264311,265423,264311,266506,265924,265924,266506,35
35,test,1,con,1,m,Tue Mar 24 2026 09:54:53 GMT-0500 (Central Daylight Time),278698.7000000477,gold,900,I,m,m,None,748,548.0,200.0,98,1,2178.9000000953674,276519.7999999523,7777,gold,NF,C,268139,268139,266510,267423,266510,268689,267939,267939,268689,36
36,test,1,inc,1,z,Tue Mar 24 2026 09:54:53 GMT-0500 (Central Daylight Time),280914.90000009537,iron,900,I,z,z,None,780,580.0,200.0,46,1,2211.9000000953674,278703.0,7777,pear,NF,C,270322,270322,268693,269606,268693,270905,270122,270122,270905,37
37,test,1,con,1,m,Tue Mar 24 2026 09:54:53 GMT-0500 (Central Daylight Time),283080.7999999523,cobalt,1100,I,m,m,None,533,333.0,200.0,92,1,2162.2999999523163,280918.5,7777,cobalt,NF,C,272738,272738,270909,272021,270909,273071,272538,272538,273071,38
38,test,1,inc,1,m,Tue Mar 24 2026 09:54:53 GMT-0500 (Central Daylight Time),285330.10000014305,pear,900,I,m,m,None,807,607.0,200.0,118,1,2245.300000190735,283084.7999999523,7777,zinc,NF,C,274704,274704,273075,273987,273075,275320,274504,274504,275320,39
39,test,1,inc,1,z,Tue Mar 24 2026 09:54:53 GMT-0500 (Central Daylight Time),287462.7000000477,silver,1000,I,z,z,None,594,394.0,200.0,7,1,2128.2999999523163,285334.40000009537,7777,banana,NF,C,277053,277053,275324,276337,275325,277453,276853,276853,277453,40
40,test,1,inc,1,z,Tue Mar 24 2026 09:54:53 GMT-0500 (Central Daylight Time),289395.7000000477,bronze,800,I,z,z,None,589,389.0,200.0,5,1,1929.4000000953674,287466.2999999523,7777,banana,NF,C,278986,278986,277456,278270,277457,279386,278786,278786,279386,41
41,test,1,inc,1,m,Tue Mar 24 2026 09:54:53 GMT-0500 (Central Daylight Time),291344.60000014305,banana,800,I,m,m,None,599,400.0,199.0,85,1,1944.8000001907349,289399.7999999523,7777,silver,NF,C,280918,280918,279390,280202,279390,281335,280719,280719,281335,42
42,test,1,con,1,z,Tue Mar 24 2026 09:54:53 GMT-0500 (Central Daylight Time),293627.2999999523,pear,800,I,z,z,None,947,747.0,200.0,41,1,2279.0999999046326,291348.2000000477,7777,pear,NF,C,282868,282868,281338,282152,281339,283617,282668,282668,283617,43
43,test,1,inc,1,z,Tue Mar 24 2026 09:54:53 GMT-0500 (Central Daylight Time),295626.7000000477,gold,800,I,z,z,None,680,481.0,199.0,53,1,1995.7000000476837,293631.0,7777,kiwi,NF,C,285134,285134,283621,284434,283621,285617,284935,284935,285617,44
44,test,1,con,1,z,Tue Mar 24 2026 09:54:53 GMT-0500 (Central Daylight Time),297676.2000000477,raisin,800,I,z,z,None,712,513.0,199.0,25,1,2045.7999999523163,295630.40000009537,7777,raisin,NF,C,287150,287150,285620,286433,285621,287666,286951,286951,287666,45
45,test,1,con,1,m,Tue Mar 24 2026 09:54:53 GMT-0500 (Central Daylight Time),299908.90000009537,iron,1000,I,m,m,None,687,487.0,200.0,107,1,2229.2000000476837,297679.7000000477,7777,iron,NF,C,289399,289399,287670,288683,287670,289899,289199,289199,289899,46
46,test,1,inc,1,z,Tue Mar 24 2026 09:54:53 GMT-0500 (Central Daylight Time),302108.2000000477,copper,900,I,z,z,None,763,563.0,200.0,14,1,2195.0999999046326,299913.10000014305,7777,cherry,NF,C,291532,291532,289903,290817,289903,292098,291332,291332,292098,47
47,test,1,inc,1,z,Tue Mar 24 2026 09:54:53 GMT-0500 (Central Daylight Time),304124.40000009537,bronze,800,I,z,z,None,671,471.0,200.0,29,1,2012.2000000476837,302112.2000000477,7777,raisin,NF,C,293632,293632,292102,292915,292102,294114,293431,293431,294114,48
48,test,1,con,1,z,Tue Mar 24 2026 09:54:53 GMT-0500 (Central Daylight Time),306440.0,banana,1000,I,z,z,None,775,575.0,200.0,3,1,2311.0999999046326,304128.90000009537,7777,banana,NF,C,295847,295848,294119,295131,294119,296430,295647,295647,296430,49
49,test,1,con,1,z,Tue Mar 24 2026 09:54:53 GMT-0500 (Central Daylight Time),308672.7999999523,orange,900,I,z,z,None,792,592.0,200.0,18,1,2228.899999856949,306443.90000009537,7777,orange,NF,C,298063,298063,296434,297348,296434,298663,297863,297863,298663,50
50,test,1,inc,1,z,Tue Mar 24 2026 09:54:53 GMT-0500 (Central Daylight Time),310855.7000000477,zinc,1000,I,z,z,None,641,426.0,215.0,63,1,2179.0,308676.7000000477,7777,plum,NF,C,300413,300413,298667,299679,298667,300846,300197,300197,300846,51
51,test,1,inc,1,m,Tue Mar 24 2026 09:54:53 GMT-0500 (Central Daylight Time),313021.60000014305,raisin,1100,I,m,m,None,520,320.0,200.0,96,1,2161.4000000953674,310860.2000000477,7777,cobalt,NF,C,302678,302678,300850,301962,300850,303012,302478,302478,303012,52
52,test,1,inc,1,m,Tue Mar 24 2026 09:54:53 GMT-0500 (Central Daylight Time),314904.0,banana,800,I,m,m,None,458,258.0,200.0,93,1,1878.7999999523163,313025.2000000477,7777,cobalt,NF,C,304628,304628,303015,303923,303015,304894,304428,304428,304894,53
53,test,1,con,1,z,Tue Mar 24 2026 09:54:53 GMT-0500 (Central Daylight Time),316937.0,plum,900,I,z,z,None,600,400.0,200.0,58,1,2029.3999998569489,314907.60000014305,7777,plum,NF,C,306527,306527,304898,305811,304898,306927,306327,306327,306927,54
54,test,1,inc,1,z,Tue Mar 24 2026 09:54:53 GMT-0500 (Central Daylight Time),319236.2999999523,silver,1000,I,z,z,None,755,555.0,200.0,15,1,2295.199999809265,316941.10000014305,7777,cherry,NF,C,308660,308660,306931,307943,306931,309226,308460,308460,309226,55
55,test,1,con,1,m,Tue Mar 24 2026 09:54:53 GMT-0500 (Central Daylight Time),321685.2999999523,lead,1100,I,m,m,None,804,604.0,200.0,124,1,2445.0999999046326,319240.2000000477,7777,lead,NF,C,311059,311059,309230,310343,309231,311675,310859,310859,311675,56
56,test,1,con,1,m,Tue Mar 24 2026 09:54:53 GMT-0500 (Central Daylight Time),324184.40000009537,silver,1100,I,m,m,None,850,650.0,200.0,84,1,2495.0,321689.40000009537,7777,silver,NF,C,313509,313509,311679,312792,311680,314174,313308,313308,314174,57
57,test,1,con,1,z,Tue Mar 24 2026 09:54:53 GMT-0500 (Central Daylight Time),326317.2999999523,orange,1000,I,z,z,None,594,395.0,199.0,19,1,2129.199999809265,324188.10000014305,7777,orange,NF,C,315908,315908,314178,315191,314178,316307,315708,315708,316307,58
58,test,1,con,1,z,Tue Mar 24 2026 09:54:53 GMT-0500 (Central Daylight Time),328133.2999999523,orange,800,I,z,z,None,478,279.0,199.0,17,1,1812.1999998092651,326321.10000014305,7777,orange,NF,C,317840,317840,316311,317124,316311,318123,317641,317641,318123,59
59,test,1,con,1,z,Tue Mar 24 2026 09:54:53 GMT-0500 (Central Daylight Time),330299.40000009537,cherry,800,I,z,z,None,821,622.0,199.0,9,1,2162.2999999523163,328137.10000014305,7777,cherry,NF,C,319657,319657,318127,318940,318127,320290,319457,319457,320289,60
60,test,1,inc,1,z,Tue Mar 24 2026 09:54:53 GMT-0500 (Central Daylight Time),332432.10000014305,iron,900,I,z,z,None,683,483.0,200.0,62,1,2128.9000000953674,330303.2000000477,7777,plum,NF,C,321922,321923,320293,321206,320294,322422,321722,321722,322422,61
61,test,1,con,1,m,Tue Mar 24 2026 09:54:53 GMT-0500 (Central Daylight Time),334547.90000009537,copper,800,I,m,m,None,780,580.0,200.0,73,1,2111.4000000953674,332436.5,7777,copper,NF,C,323955,323955,322426,323239,322427,324538,323755,323755,324538,62
62,test,1,con,1,z,Tue Mar 24 2026 09:54:53 GMT-0500 (Central Daylight Time),336730.40000009537,raisin,1000,I,z,z,None,648,448.0,200.0,27,1,2178.5,334551.90000009537,7777,raisin,NF,C,326271,326271,324542,325555,324542,326720,326071,326071,326720,63
63,test,1,inc,1,z,Tue Mar 24 2026 09:54:53 GMT-0500 (Central Daylight Time),338780.10000014305,silver,1000,I,z,z,None,512,313.0,199.0,31,1,2046.0,336734.10000014305,7777,raisin,NF,C,328454,328454,326724,327737,326724,328770,328254,328254,328770,64
64,test,1,con,1,m,Tue Mar 24 2026 09:54:53 GMT-0500 (Central Daylight Time),340929.10000014305,bronze,1000,I,m,m,None,616,416.0,200.0,67,1,2145.600000143051,338783.5,7777,bronze,NF,C,330503,330503,328773,329787,328774,330919,330303,330303,330919,65
65,test,1,con,1,m,Tue Mar 24 2026 09:54:53 GMT-0500 (Central Daylight Time),343145.2999999523,silver,1000,I,m,m,None,675,475.0,200.0,83,1,2212.5,340932.7999999523,7777,silver,NF,C,332652,332652,330923,331936,330923,333135,332452,332452,333135,66
66,test,1,inc,1,z,Tue Mar 24 2026 09:54:53 GMT-0500 (Central Daylight Time),345261.40000009537,zinc,1000,I,z,z,None,577,378.0,199.0,47,1,2112.2000000476837,343149.2000000477,7777,pear,NF,C,334869,334869,333139,334152,333139,335251,334669,334669,335251,67
67,test,1,inc,1,m,Tue Mar 24 2026 09:54:53 GMT-0500 (Central Daylight Time),347593.7999999523,plum,1100,I,m,m,None,690,491.0,199.0,120,1,2328.899999856949,345264.90000009537,7777,zinc,NF,C,337084,337084,335255,336368,335255,337584,336884,336885,337584,68
68,test,1,con,1,z,Tue Mar 24 2026 09:54:53 GMT-0500 (Central Daylight Time),349809.90000009537,cherry,1000,I,z,z,None,674,474.0,200.0,11,1,2212.4000000953674,347597.5,7777,cherry,NF,C,339317,339317,337588,338601,337588,339800,339117,339117,339800,69
69,test,1,inc,1,m,Tue Mar 24 2026 09:54:53 GMT-0500 (Central Daylight Time),351892.40000009537,pear,900,I,m,m,None,646,446.0,200.0,102,1,2078.7000000476837,349813.7000000477,7777,gold,NF,C,341433,341433,339804,340717,339804,341882,341233,341233,341882,70
70,test,1,inc,1,m,Tue Mar 24 2026 09:54:53 GMT-0500 (Central Daylight Time),354191.90000009537,plum,1100,I,m,m,None,649,450.0,199.0,104,1,2295.600000143051,351896.2999999523,7777,gold,NF,C,343716,343716,341886,342999,341887,344182,343516,343516,344182,71
71,test,1,con,1,m,Tue Mar 24 2026 09:54:53 GMT-0500 (Central Daylight Time),356374.60000014305,lead,800,I,m,m,None,836,636.0,200.0,121,1,2178.800000190735,354195.7999999523,7777,lead,NF,C,345715,345715,344186,344998,344186,346365,345515,345515,346365,72
72,test,1,inc,1,z,Tue Mar 24 2026 09:54:53 GMT-0500 (Central Daylight Time),358607.2999999523,lead,1100,I,z,z,None,594,394.0,200.0,48,1,2228.899999856949,356378.40000009537,7777,pear,NF,C,348197,348197,346368,347481,346369,348597,347997,347997,348597,73
73,test,1,con,1,m,Tue Mar 24 2026 09:54:53 GMT-0500 (Central Daylight Time),360889.60000014305,zinc,1000,I,m,m,None,749,549.0,200.0,115,1,2278.4000000953674,358611.2000000477,7777,zinc,NF,C,350330,350330,348601,349614,348602,350880,350130,350130,350880,74
74,test,1,con,1,z,Tue Mar 24 2026 09:54:53 GMT-0500 (Central Daylight Time),363488.7999999523,plum,1100,I,z,z,None,966,767.0,199.0,60,1,2595.2999999523163,360893.5,7777,plum,NF,C,352696,352696,350884,351996,350884,353479,352497,352497,353479,75
75,test,1,inc,1,z,Tue Mar 24 2026 09:54:53 GMT-0500 (Central Daylight Time),365555.10000014305,copper,900,I,z,z,None,631,431.0,200.0,6,1,2062.800000190735,363492.2999999523,7777,banana,NF,C,355112,355112,353482,354395,353483,355545,354912,354912,355545,76
76,test,1,inc,1,z,Tue Mar 24 2026 09:54:53 GMT-0500 (Central Daylight Time),367804.2000000477,lead,1100,I,z,z,None,604,404.0,200.0,56,1,2244.9000000953674,365559.2999999523,7777,kiwi,NF,C,357378,357378,355549,356662,355550,357794,357178,357178,357794,77
77,test,1,con,1,m,Tue Mar 24 2026 09:54:53 GMT-0500 (Central Daylight Time),369770.5,iron,900,I,m,m,None,522,323.0,199.0,106,1,1962.5999999046326,367807.90000009537,7777,iron,NF,C,359428,359428,357798,358711,357798,359761,359228,359228,359761,78
78,test,1,inc,1,m,Tue Mar 24 2026 09:54:53 GMT-0500 (Central Daylight Time),371719.7999999523,banana,800,I,m,m,None,608,409.0,199.0,77,1,1945.5,369774.2999999523,7777,copper,NF,C,361294,361294,359764,360577,359765,361710,361094,361094,361710,79
79,test,1,inc,1,m,Tue Mar 24 2026 09:54:53 GMT-0500 (Central Daylight Time),373919.2000000477,cherry,900,I,m,m,None,759,560.0,199.0,78,1,2195.7999999523163,371723.40000009537,7777,copper,NF,C,363343,363343,361713,362626,361714,363909,363143,363143,363909,80
80,test,1,inc,1,z,Tue Mar 24 2026 09:54:53 GMT-0500 (Central Daylight Time),375951.90000009537,gold,800,I,z,z,None,685,485.0,200.0,61,1,2029.2000000476837,373922.7000000477,7777,plum,NF,C,365442,365442,363913,364726,363913,365942,365242,365242,365942,81
81,test,1,inc,1,m,Tue Mar 24 2026 09:54:53 GMT-0500 (Central Daylight Time),378117.7000000477,pear,900,I,m,m,None,727,528.0,199.0,126,1,2161.9000000953674,375955.7999999523,7777,lead,NF,C,367575,367575,365946,366858,365946,368108,367375,367375,368108,82
82,test,1,inc,1,m,Tue Mar 24 2026 09:54:53 GMT-0500 (Central Daylight Time),380134.2000000477,lime,800,I,m,m,None,670,470.0,200.0,117,1,2012.7000000476837,378121.5,7777,zinc,NF,C,369641,369641,368112,368924,368112,370124,369441,369441,370124,83
83,test,1,inc,1,m,Tue Mar 24 2026 09:54:53 GMT-0500 (Central Daylight Time),383049.7000000477,raisin,1100,I,m,m,None,1267,1067.0,200.0,80,1,2911.0999999046326,380138.60000014305,7777,copper,NF,C,371957,371957,370129,371240,370129,373040,371757,371757,373040,84
84,test,1,inc,1,z,Tue Mar 24 2026 09:54:53 GMT-0500 (Central Daylight Time),385148.90000009537,iron,900,I,z,z,None,670,378.0,292.0,54,1,2095.2999999523163,383053.60000014305,7777,kiwi,NF,C,374749,374749,373044,373956,373044,375139,374457,374457,375139,85
85,test,1,con,1,z,Tue Mar 24 2026 09:54:53 GMT-0500 (Central Daylight Time),387098.0,raisin,900,I,z,z,None,515,315.0,200.0,26,1,1945.3999998569489,385152.60000014305,7777,raisin,NF,C,376772,376772,375143,376056,375143,377088,376572,376572,377088,86
86,test,1,con,1,m,Tue Mar 24 2026 09:54:53 GMT-0500 (Central Daylight Time),389131.10000014305,silver,900,I,m,m,None,589,390.0,199.0,82,1,2029.3000001907349,387101.7999999523,7777,silver,NF,C,378721,378721,377092,378005,377092,379121,378522,378522,379121,87
86,test,1,con,0,m,Tue Mar 24 2026 09:54:53 GMT-0500 (Central Daylight Time),391197.10000014305,cobalt,1000,I,z,z,None,521,321.0,200.0,91,1,2062.100000143051,389135.0,7777,cobalt,NF,C,380854,380854,379125,380138,379125,381187,380654,380654,381187,88
87,test,1,con,1,z,Tue Mar 24 2026 09:54:53 GMT-0500 (Central Daylight Time),393446.2000000477,kiwi,900,I,z,z,None,802,603.0,199.0,50,1,2245.4000000953674,391200.7999999523,7777,kiwi,NF,C,382820,382820,381191,382104,381191,383436,382621,382621,383436,89
88,test,1,con,1,m,Tue Mar 24 2026 09:54:53 GMT-0500 (Central Daylight Time),395278.7999999523,cobalt,800,I,m,m,None,486,286.0,200.0,89,1,1828.8999998569489,393449.90000009537,7777,cobalt,NF,C,384969,384969,383440,384254,383440,385269,384769,384769,385269,90
89,test,1,inc,1,z,Tue Mar 24 2026 09:54:53 GMT-0500 (Central Daylight Time),397694.90000009537,cobalt,1100,I,z,z,None,769,569.0,200.0,16,1,2411.9000000953674,395283.0,7777,cherry,NF,C,387102,387102,385273,386386,385273,387685,386902,386902,387685,91
90,test,1,con,1,m,Tue Mar 24 2026 09:54:53 GMT-0500 (Central Daylight Time),399944.2000000477,zinc,900,I,m,m,None,800,600.0,200.0,114,1,2245.5999999046326,397698.60000014305,7777,zinc,NF,C,389318,389318,387689,388602,387689,389934,389118,389118,389934,92
91,test,1,inc,1,z,Tue Mar 24 2026 09:54:53 GMT-0500 (Central Daylight Time),402160.2000000477,silver,1000,I,z,z,None,682,467.0,215.0,23,1,2212.4000000953674,399947.7999999523,7777,orange,NF,C,391667,391667,389938,390951,389938,392150,391452,391452,392150,93
92,test,1,con,1,z,Tue Mar 24 2026 09:54:53 GMT-0500 (Central Daylight Time),404759.40000009537,pear,1000,I,z,z,None,1060,860.0,200.0,43,1,2595.7000000476837,402163.7000000477,7777,pear,NF,C,393883,393883,392154,393167,392154,394750,393683,393683,394749,94
93,test,1,con,1,m,Tue Mar 24 2026 09:54:53 GMT-0500 (Central Daylight Time),407142.0,iron,1100,I,m,m,None,735,536.0,199.0,108,1,2378.7000000476837,404763.2999999523,7777,iron,NF,C,396583,396583,394753,395866,394754,397132,396383,396383,397132,95
94,test,1,con,1,z,Tue Mar 24 2026 09:54:53 GMT-0500 (Central Daylight Time),409192.40000009537,cherry,900,I,z,z,None,610,410.0,200.0,10,1,2046.6000001430511,407145.7999999523,7777,cherry,NF,C,398765,398765,397136,398049,397136,399183,398565,398565,399182,96
95,test,1,inc,1,z,Tue Mar 24 2026 09:54:53 GMT-0500 (Central Daylight Time),411473.7000000477,copper,900,I,z,z,None,848,648.0,200.0,22,1,2277.2000000476837,409196.5,7777,orange,NF,C,400815,400815,399187,400098,399187,401464,400614,400614,401464,97
96,test,1,inc,1,z,Tue Mar 24 2026 09:54:53 GMT-0500 (Central Daylight Time),413406.60000014305,bronze,800,I,z,z,None,586,386.0,200.0,21,1,1929.3000001907349,411477.2999999523,7777,orange,NF,C,402997,402997,401467,402281,401468,403397,402797,402797,403397,98
97,test,1,inc,1,m,Tue Mar 24 2026 09:54:53 GMT-0500 (Central Daylight Time),415539.2999999523,kiwi,1000,I,m,m,None,588,389.0,199.0,111,1,2129.0,413410.2999999523,7777,iron,NF,C,405130,405130,403400,404413,403401,405529,404930,404930,405529,99
98,test,1,inc,1,m,Tue Mar 24 2026 09:54:53 GMT-0500 (Central Daylight Time),417905.40000009537,plum,1100,I,m,m,None,717,517.0,200.0,128,1,2362.4000000953674,415543.0,7777,lead,NF,C,407362,407362,405533,406646,405533,407895,407162,407162,407895,100
99,test,1,inc,1,m,Tue Mar 24 2026 09:54:53 GMT-0500 (Central Daylight Time),419739.10000014305,lime,800,I,m,m,None,499,299.0,200.0,125,1,1830.2000000476837,417908.90000009537,7777,lead,NF,C,409428,409428,407899,408712,407899,409729,409228,409228,409729,101
100,test,1,inc,1,m,Tue Mar 24 2026 09:54:53 GMT-0500 (Central Daylight Time),421971.7000000477,orange,1000,I,m,m,None,698,497.0,201.0,87,1,2228.5999999046326,419743.10000014305,7777,silver,NF,C,411462,411462,409733,410745,409733,411962,411261,411261,411962,102
101,test,1,con,1,z,Tue Mar 24 2026 09:54:53 GMT-0500 (Central Daylight Time),424353.40000009537,kiwi,1000,I,z,z,None,840,641.0,199.0,51,1,2378.100000143051,421975.2999999523,7777,kiwi,NF,C,413694,413694,411965,412977,411966,414343,413494,413494,414343,103
102,test,1,inc,1,m,Tue Mar 24 2026 09:54:53 GMT-0500 (Central Daylight Time),426769.2999999523,raisin,1100,I,m,m,None,767,567.0,200.0,88,1,2412.399999856949,424356.90000009537,7777,silver,NF,C,416176,416176,414347,415460,414347,416759,415976,415976,416759,104
103,test,1,inc,1,m,Tue Mar 24 2026 09:54:53 GMT-0500 (Central Daylight Time),429168.2000000477,plum,1100,I,m,m,None,751,551.0,200.0,112,1,2394.5,426773.7000000477,7777,iron,NF,C,418592,418592,416764,417877,416764,419158,418392,418392,419158,105
104,test,1,con,1,m,Tue Mar 24 2026 09:54:53 GMT-0500 (Central Daylight Time),431467.60000014305,lead,1000,I,m,m,None,754,555.0,199.0,123,1,2295.4000000953674,429172.2000000477,7777,lead,NF,C,420892,420892,419162,420175,419162,421458,420692,420692,421458,106
105,test,1,inc,1,m,Tue Mar 24 2026 09:54:53 GMT-0500 (Central Daylight Time),433533.7000000477,cherry,900,I,m,m,None,628,428.0,200.0,86,1,2062.0999999046326,431471.60000014305,7777,silver,NF,C,423091,423091,421462,422374,421462,423524,422891,422891,423524,107
106,test,1,inc,1,m,Tue Mar 24 2026 09:54:53 GMT-0500 (Central Daylight Time),435749.7000000477,kiwi,1000,I,m,m,None,678,477.0,201.0,103,1,2212.0,433537.7000000477,7777,gold,NF,C,425258,425258,423528,424540,423528,425740,425057,425057,425740,108
107,test,1,con,1,m,Tue Mar 24 2026 09:54:53 GMT-0500 (Central Daylight Time),437800.2000000477,cobalt,900,I,m,m,None,601,402.0,199.0,90,1,2046.5999999046326,435753.60000014305,7777,cobalt,NF,C,427373,427373,425744,426656,425744,427790,427173,427173,427790,109
108,test,1,inc,1,z,Tue Mar 24 2026 09:54:53 GMT-0500 (Central Daylight Time),440066.10000014305,cobalt,1100,I,z,z,None,625,426.0,199.0,8,1,2261.9000000953674,437804.2000000477,7777,banana,NF,C,429622,429622,427794,428906,427795,430056,429423,429423,430056,110
109,test,1,inc,1,m,Tue Mar 24 2026 09:54:53 GMT-0500 (Central Daylight Time),442330.90000009537,kiwi,1000,I,m,m,None,723,522.0,201.0,127,1,2260.7999999523163,440070.10000014305,7777,lead,NF,C,431789,431789,430060,431072,430060,432321,431588,431588,432321,111
110,test,1,inc,1,m,Tue Mar 24 2026 09:54:53 GMT-0500 (Central Daylight Time),444430.40000009537,lime,800,I,m,m,None,760,561.0,199.0,101,1,2095.600000143051,442334.7999999523,7777,gold,NF,C,433854,433854,432325,433138,432325,434421,433654,433654,434420,112
111,test,1,con,1,m,Tue Mar 24 2026 09:54:53 GMT-0500 (Central Daylight Time),446579.7000000477,bronze,900,I,m,m,None,713,514.0,199.0,66,1,2145.7000000476837,444434.0,7777,bronze,NF,C,436053,436053,434424,435337,434424,436570,435854,435854,436570,113
112,test,1,con,1,z,Tue Mar 24 2026 09:54:53 GMT-0500 (Central Daylight Time),449112.2000000477,plum,1000,I,z,z,None,983,783.0,200.0,59,1,2529.0999999046326,446583.10000014305,7777,plum,NF,C,438303,438303,436573,437586,436573,439102,438103,438103,439102,114
113,test,1,con,1,m,Tue Mar 24 2026 09:54:53 GMT-0500 (Central Daylight Time),451361.2999999523,lead,900,I,m,m,None,808,608.0,200.0,122,1,2245.5999999046326,449115.7000000477,7777,lead,NF,C,440735,440735,439106,440019,439106,441351,440535,440535,441351,115
114,test,1,inc,1,m,Tue Mar 24 2026 09:54:53 GMT-0500 (Central Daylight Time),453327.40000009537,banana,800,I,m,m,None,642,443.0,199.0,69,1,1962.7000000476837,451364.7000000477,7777,bronze,NF,C,442868,442868,441355,442168,441355,443317,442669,442669,443317,116
115,test,1,inc,1,z,Tue Mar 24 2026 09:54:53 GMT-0500 (Central Daylight Time),455577.7000000477,cobalt,1100,I,z,z,None,600,400.0,200.0,24,1,2246.4000000953674,453331.2999999523,7777,orange,NF,C,445151,445151,443321,444434,443322,445568,444950,444950,445568,117
116,test,1,inc,1,z,Tue Mar 24 2026 09:54:53 GMT-0500 (Central Daylight Time),457992.7000000477,lead,1100,I,z,z,None,774,575.0,199.0,64,1,2408.5,455584.2000000477,7777,plum,NF,C,447400,447400,445574,446683,445575,447983,447200,447200,447983,118
117,test,1,con,1,z,Tue Mar 24 2026 09:54:53 GMT-0500 (Central Daylight Time),460358.60000014305,kiwi,1100,I,z,z,None,718,519.0,199.0,52,1,2362.2000000476837,457996.40000009537,7777,kiwi,NF,C,449816,449816,447986,449099,447987,450349,449617,449617,450349,119
118,test,1,inc,1,z,Tue Mar 24 2026 09:54:53 GMT-0500 (Central Daylight Time),462724.7000000477,lead,1100,I,z,z,None,728,529.0,199.0,40,1,2362.4000000953674,460362.2999999523,7777,lime,NF,C,452182,452182,450352,451465,450353,452715,451982,451982,452715,120
119,test,1,con,1,z,Tue Mar 24 2026 09:54:53 GMT-0500 (Central Daylight Time),464840.7000000477,lime,1000,I,z,z,None,567,367.0,200.0,35,1,2112.2999999523163,462728.40000009537,7777,lime,NF,C,454448,454448,452718,453731,452719,454831,454247,454247,454831,121
120,test,1,con,1,z,Tue Mar 24 2026 09:54:53 GMT-0500 (Central Daylight Time),467589.7999999523,cherry,1100,I,z,z,None,1103,904.0,199.0,12,1,2745.0999999046326,464844.7000000477,7777,cherry,NF,C,456663,456663,454835,455947,454835,457580,456464,456464,457580,122
121,test,1,con,1,m,Tue Mar 24 2026 09:54:53 GMT-0500 (Central Daylight Time),469572.7999999523,zinc,800,I,m,m,None,637,437.0,200.0,113,1,1979.2999999523163,467593.5,7777,zinc,NF,C,459113,459113,457584,458396,457584,459563,458913,458913,459563,123
122,test,1,inc,1,z,Tue Mar 24 2026 09:54:53 GMT-0500 (Central Daylight Time),471954.7000000477,cobalt,1100,I,z,z,None,748,549.0,199.0,32,1,2378.4000000953674,469576.2999999523,7777,raisin,NF,C,461395,461395,459566,460679,459567,461945,461196,461196,461945,124
123,test,1,con,1,z,Tue Mar 24 2026 09:54:53 GMT-0500 (Central Daylight Time),474271.0,plum,800,I,z,z,None,977,777.0,200.0,57,1,2312.7999999523163,471958.2000000477,7777,plum,NF,C,463478,463478,461948,462762,461948,464261,463278,463278,464261,125
124,test,1,con,1,z,Tue Mar 24 2026 09:54:53 GMT-0500 (Central Daylight Time),476687.0,raisin,1100,I,z,z,None,769,569.0,200.0,28,1,2412.5,474274.5,7777,raisin,NF,C,466094,466094,464265,465377,464265,466677,465894,465894,466677,126
125,test,1,con,1,m,Tue Mar 24 2026 09:54:53 GMT-0500 (Central Daylight Time),479096.2000000477,copper,1000,I,m,m,None,861,661.0,200.0,75,1,2405.5,476690.7000000477,7777,copper,NF,C,468410,468410,466681,467695,466681,469086,468210,468210,469086,127
126,test,1,con,1,m,Tue Mar 24 2026 09:54:53 GMT-0500 (Central Daylight Time),481369.5,copper,900,I,m,m,None,834,634.0,200.0,74,1,2269.2000000476837,479100.2999999523,7777,copper,NF,C,470709,470709,469090,469993,469091,471360,470509,470509,471360,128
