acc_sum,block,block_c,change,condition,correct,correct_response,datetime,endtime,face,project,response,response_time,row_sel,session_number,start_end,starttime,subject_id,task,task_vers,trial
0,prac,1,,1-Back,,,Mon Jan 05 2026 10:35:14 GMT-0600 (Central Standard Time),,124_o_f_d_a.png,I,space,5506,1,1,,,8085,VNB,A,0
1,prac,1,0.0,1-Back,1.0,m,Mon Jan 05 2026 10:35:14 GMT-0600 (Central Standard Time),124897.90000009537,071_y_f_n_a.png,I,m,1013,2,1,1820.8000000715256,123077.10000002384,8085,VNB,A,1
2,prac,1,0.0,1-Back,1.0,m,Mon Jan 05 2026 10:35:14 GMT-0600 (Central Standard Time),127513.90000009537,165_m_m_h_a.png,I,m,1802,3,1,2605.0,124908.90000009537,8085,VNB,A,2
3,prac,1,0.0,1-Back,1.0,m,Mon Jan 05 2026 10:35:14 GMT-0600 (Central Standard Time),129379.90000009537,109_y_m_d_a.png,I,m,1043,4,1,1854.9000000953674,127525.0,8085,VNB,A,3
4,prac,1,0.0,1-Back,1.0,m,Mon Jan 05 2026 10:35:14 GMT-0600 (Central Standard Time),131112.30000007153,124_o_f_n_a.png,I,m,897,5,1,1721.3000000715256,129391.0,8085,VNB,A,4
5,prac,1,1.0,1-Back,1.0,z,Mon Jan 05 2026 10:35:14 GMT-0600 (Central Standard Time),132845.5,109_y_m_n_a.png,I,z,918,6,1,1722.6999999284744,131122.80000007153,8085,VNB,A,5
6,prac,1,0.0,1-Back,1.0,m,Mon Jan 05 2026 10:35:14 GMT-0600 (Central Standard Time),134611.5,039_o_m_h_a.png,I,m,952,7,1,1755.1999999284744,132856.30000007153,8085,VNB,A,6
7,prac,1,0.0,1-Back,1.0,m,Mon Jan 05 2026 10:35:14 GMT-0600 (Central Standard Time),136377.60000002384,139_m_f_d_a.png,I,m,952,8,1,1755.0,134622.60000002384,8085,VNB,A,7
8,prac,1,1.0,1-Back,1.0,z,Mon Jan 05 2026 10:35:14 GMT-0600 (Central Standard Time),138343.60000002384,071_y_f_d_a.png,I,z,1162,9,1,1954.6999999284744,136388.90000009537,8085,VNB,A,8
9,prac,1,0.0,1-Back,1.0,m,Mon Jan 05 2026 10:35:14 GMT-0600 (Central Standard Time),140159.60000002384,165_m_m_n_a.png,I,m,1003,10,1,1804.7999999523163,138354.80000007153,8085,VNB,A,9
10,prac,1,0.0,1-Back,1.0,m,Mon Jan 05 2026 10:35:14 GMT-0600 (Central Standard Time),142075.60000002384,124_o_f_h_a.png,I,m,1081,11,1,1904.3999999761581,140171.20000004768,8085,VNB,A,10
11,prac,1,0.0,1-Back,1.0,m,Mon Jan 05 2026 10:35:14 GMT-0600 (Central Standard Time),143675.5,109_y_m_d_a.png,I,m,809,12,1,1588.8999999761581,142086.60000002384,8085,VNB,A,11
0,test,1,0.0,1-Back,,,Mon Jan 05 2026 10:35:14 GMT-0600 (Central Standard Time),143675.5,071_y_f_d_a.png,I,space,9147,1,1,1588.8999999761581,142086.60000002384,8085,VNB,A,0
1,test,1,0.0,1-Back,1.0,m,Mon Jan 05 2026 10:35:14 GMT-0600 (Central Standard Time),164319.0,139_m_f_n_a.png,I,m,760,2,1,1771.5,162547.5,8085,VNB,A,1
2,test,1,0.0,1-Back,1.0,m,Mon Jan 05 2026 10:35:14 GMT-0600 (Central Standard Time),166234.80000007153,039_o_m_h_a.png,I,m,889,3,1,1906.3000000715256,164328.5,8085,VNB,A,2
3,test,1,1.0,1-Back,1.0,z,Mon Jan 05 2026 10:35:14 GMT-0600 (Central Standard Time),167917.70000004768,165_m_m_h_a.png,I,z,653,4,1,1673.2000000476837,166244.5,8085,VNB,A,3
4,test,1,0.0,1-Back,1.0,m,Mon Jan 05 2026 10:35:14 GMT-0600 (Central Standard Time),169744.5,124_o_f_n_a.png,I,m,810,5,1,1816.5999999046326,167927.90000009537,8085,VNB,A,4
5,test,1,0.0,1-Back,1.0,m,Mon Jan 05 2026 10:35:14 GMT-0600 (Central Standard Time),171816.40000009537,109_y_m_d_a.png,I,m,1034,6,1,2058.8000000715256,169757.60000002384,8085,VNB,A,5
6,test,1,1.0,1-Back,1.0,z,Mon Jan 05 2026 10:35:14 GMT-0600 (Central Standard Time),173416.10000002384,139_m_f_d_a.png,I,z,576,7,1,1589.6999999284744,171826.40000009537,8085,VNB,A,6
7,test,1,0.0,1-Back,1.0,m,Mon Jan 05 2026 10:35:14 GMT-0600 (Central Standard Time),175265.40000009537,071_y_f_h_a.png,I,m,817,8,1,1839.5,173425.90000009537,8085,VNB,A,7
8,test,1,0.0,1-Back,1.0,m,Mon Jan 05 2026 10:35:14 GMT-0600 (Central Standard Time),177431.10000002384,039_o_m_n_a.png,I,m,1134,9,1,2155.600000023842,175275.5,8085,VNB,A,8
9,test,1,0.0,1-Back,1.0,m,Mon Jan 05 2026 10:35:14 GMT-0600 (Central Standard Time),179347.30000007153,109_y_m_h_a.png,I,m,888,10,1,1905.6000000238419,177441.70000004768,8085,VNB,A,9
10,test,1,0.0,1-Back,1.0,m,Mon Jan 05 2026 10:35:14 GMT-0600 (Central Standard Time),181813.10000002384,039_o_m_d_a.png,I,m,1436,11,1,2455.399999976158,179357.70000004768,8085,VNB,A,10
11,test,1,1.0,1-Back,1.0,z,Mon Jan 05 2026 10:35:14 GMT-0600 (Central Standard Time),183829.10000002384,124_o_f_d_a.png,I,z,994,12,1,2004.8999999761581,181824.20000004768,8085,VNB,A,11
12,test,1,0.0,1-Back,1.0,m,Mon Jan 05 2026 10:35:14 GMT-0600 (Central Standard Time),185461.80000007153,165_m_m_n_a.png,I,m,602,13,1,1623.0,183838.80000007153,8085,VNB,A,12
13,test,1,1.0,1-Back,1.0,z,Mon Jan 05 2026 10:35:14 GMT-0600 (Central Standard Time),187128.30000007153,071_y_f_n_a.png,I,z,642,14,1,1656.3999999761581,185471.90000009537,8085,VNB,A,13
14,test,1,0.0,1-Back,1.0,m,Mon Jan 05 2026 10:35:14 GMT-0600 (Central Standard Time),189094.30000007153,139_m_f_h_a.png,I,m,935,15,1,1956.2000000476837,187138.10000002384,8085,VNB,A,14
15,test,1,0.0,1-Back,1.0,m,Mon Jan 05 2026 10:35:14 GMT-0600 (Central Standard Time),190976.80000007153,165_m_m_d_a.png,I,m,865,16,1,1872.5,189104.30000007153,8085,VNB,A,15
16,test,1,0.0,1-Back,1.0,m,Mon Jan 05 2026 10:35:14 GMT-0600 (Central Standard Time),192744.40000009537,109_y_m_n_a.png,I,m,750,17,1,1757.4000000953674,190987.0,8085,VNB,A,16
17,test,1,0.0,1-Back,1.0,m,Mon Jan 05 2026 10:35:14 GMT-0600 (Central Standard Time),194542.80000007153,124_o_f_h_a.png,I,m,777,18,1,1788.8000000715256,192754.0,8085,VNB,A,17
0,test,2,0.0,1-Back,,,Mon Jan 05 2026 10:35:14 GMT-0600 (Central Standard Time),194542.80000007153,109_y_m_n_a.png,I,space,1553,1,1,1788.8000000715256,192754.0,8085,VNB,A,0
1,test,2,0.0,1-Back,1.0,m,Mon Jan 05 2026 10:35:14 GMT-0600 (Central Standard Time),200257.5,071_y_f_h_a.png,I,m,1106,2,1,2123.0,198134.5,8085,VNB,A,1
2,test,2,1.0,1-Back,1.0,m,Mon Jan 05 2026 10:35:14 GMT-0600 (Central Standard Time),202090.20000004768,039_o_m_n_a.png,I,m,806,3,1,1823.1000000238419,200267.10000002384,8085,VNB,A,2
2,test,2,0.0,1-Back,0.0,m,Mon Jan 05 2026 10:35:14 GMT-0600 (Central Standard Time),205123.0,139_m_f_d_a.png,I,None,2016,4,1,3022.7999999523163,202100.20000004768,8085,VNB,A,3
3,test,2,0.0,1-Back,1.0,z,Mon Jan 05 2026 10:35:14 GMT-0600 (Central Standard Time),207038.5,165_m_m_d_a.png,I,z,886,5,1,1905.5,205133.0,8085,VNB,A,4
4,test,2,0.0,1-Back,1.0,m,Mon Jan 05 2026 10:35:14 GMT-0600 (Central Standard Time),209071.20000004768,109_y_m_h_a.png,I,m,1001,6,1,2022.2999999523163,207048.90000009537,8085,VNB,A,5
5,test,2,1.0,1-Back,1.0,z,Mon Jan 05 2026 10:35:14 GMT-0600 (Central Standard Time),210654.80000007153,124_o_f_h_a.png,I,z,561,7,1,1573.8000000715256,209081.0,8085,VNB,A,6
6,test,2,0.0,1-Back,1.0,m,Mon Jan 05 2026 10:35:14 GMT-0600 (Central Standard Time),212520.40000009537,139_m_f_n_a.png,I,m,849,8,1,1855.6000000238419,210664.80000007153,8085,VNB,A,7
7,test,2,0.0,1-Back,1.0,m,Mon Jan 05 2026 10:35:14 GMT-0600 (Central Standard Time),214369.30000007153,071_y_f_d_a.png,I,m,832,9,1,1838.8999999761581,212530.40000009537,8085,VNB,A,8
8,test,2,0.0,1-Back,1.0,m,Mon Jan 05 2026 10:35:14 GMT-0600 (Central Standard Time),216202.5,165_m_m_n_a.png,I,m,806,10,1,1823.5,214379.0,8085,VNB,A,9
9,test,2,1.0,1-Back,1.0,m,Mon Jan 05 2026 10:35:14 GMT-0600 (Central Standard Time),218085.20000004768,139_m_f_h_a.png,I,m,854,11,1,1872.5,216212.70000004768,8085,VNB,A,10
10,test,2,0.0,1-Back,1.0,z,Mon Jan 05 2026 10:35:14 GMT-0600 (Central Standard Time),219768.10000002384,039_o_m_h_a.png,I,z,659,12,1,1673.2999999523163,218094.80000007153,8085,VNB,A,11
11,test,2,0.0,1-Back,1.0,m,Mon Jan 05 2026 10:35:14 GMT-0600 (Central Standard Time),221534.20000004768,109_y_m_d_a.png,I,m,743,13,1,1756.1000000238419,219778.10000002384,8085,VNB,A,12
12,test,2,0.0,1-Back,1.0,m,Mon Jan 05 2026 10:35:14 GMT-0600 (Central Standard Time),223317.0,124_o_f_n_a.png,I,m,761,14,1,1773.1999999284744,221543.80000007153,8085,VNB,A,13
12,test,2,0.0,1-Back,0.0,z,Mon Jan 05 2026 10:35:14 GMT-0600 (Central Standard Time),225416.30000007153,071_y_f_n_a.png,I,m,1067,15,1,2089.399999976158,223326.90000009537,8085,VNB,A,14
13,test,2,1.0,1-Back,1.0,m,Mon Jan 05 2026 10:35:14 GMT-0600 (Central Standard Time),227265.80000007153,165_m_m_h_a.png,I,m,824,16,1,1837.1000000238419,225428.70000004768,8085,VNB,A,15
14,test,2,0.0,1-Back,1.0,m,Mon Jan 05 2026 10:35:14 GMT-0600 (Central Standard Time),229298.5,124_o_f_d_a.png,I,m,1014,17,1,2022.6999999284744,227275.80000007153,8085,VNB,A,16
15,test,2,1.0,1-Back,1.0,z,Mon Jan 05 2026 10:35:14 GMT-0600 (Central Standard Time),231281.20000004768,039_o_m_d_a.png,I,z,958,18,1,1972.3999999761581,229308.80000007153,8085,VNB,A,17
0,test,3,1.0,1-Back,,,Mon Jan 05 2026 10:35:14 GMT-0600 (Central Standard Time),231281.20000004768,124_o_f_h_a.png,I,space,1646,1,1,1972.3999999761581,229308.80000007153,8085,VNB,A,0
0,test,3,0.0,1-Back,0.0,m,Mon Jan 05 2026 10:35:14 GMT-0600 (Central Standard Time),237145.70000004768,139_m_f_d_a.png,I,z,1131,2,1,2139.5,235006.20000004768,8085,VNB,A,1
0,test,3,1.0,1-Back,0.0,m,Mon Jan 05 2026 10:35:14 GMT-0600 (Central Standard Time),240309.70000004768,165_m_m_n_a.png,I,None,2147,3,1,3154.2999999523163,237155.40000009537,8085,VNB,A,2
1,test,3,0.0,1-Back,1.0,z,Mon Jan 05 2026 10:35:14 GMT-0600 (Central Standard Time),242361.10000002384,124_o_f_n_a.png,I,z,1024,4,1,2041.2999999523163,240319.80000007153,8085,VNB,A,3
2,test,3,1.0,1-Back,1.0,m,Mon Jan 05 2026 10:35:14 GMT-0600 (Central Standard Time),244393.30000007153,039_o_m_d_a.png,I,m,1014,5,1,2020.5,242372.80000007153,8085,VNB,A,4
3,test,3,0.0,1-Back,1.0,m,Mon Jan 05 2026 10:35:14 GMT-0600 (Central Standard Time),246409.70000004768,071_y_f_h_a.png,I,m,990,6,1,2006.7000000476837,244403.0,8085,VNB,A,5
4,test,3,0.0,1-Back,1.0,z,Mon Jan 05 2026 10:35:14 GMT-0600 (Central Standard Time),248325.60000002384,109_y_m_h_a.png,I,z,886,7,1,1906.1999999284744,246419.40000009537,8085,VNB,A,6
5,test,3,0.0,1-Back,1.0,m,Mon Jan 05 2026 10:35:14 GMT-0600 (Central Standard Time),250041.90000009537,139_m_f_n_a.png,I,m,691,8,1,1706.1000000238419,248335.80000007153,8085,VNB,A,7
6,test,3,0.0,1-Back,1.0,m,Mon Jan 05 2026 10:35:14 GMT-0600 (Central Standard Time),252008.0,071_y_f_d_a.png,I,m,942,9,1,1955.2999999523163,250052.70000004768,8085,VNB,A,8
7,test,3,1.0,1-Back,1.0,m,Mon Jan 05 2026 10:35:14 GMT-0600 (Central Standard Time),254040.80000007153,039_o_m_n_a.png,I,m,1000,10,1,2022.8000000715256,252018.0,8085,VNB,A,9
8,test,3,0.0,1-Back,1.0,m,Mon Jan 05 2026 10:35:14 GMT-0600 (Central Standard Time),256223.40000009537,165_m_m_h_a.png,I,m,1159,11,1,2173.0,254050.40000009537,8085,VNB,A,10
9,test,3,0.0,1-Back,1.0,z,Mon Jan 05 2026 10:35:14 GMT-0600 (Central Standard Time),257939.5,139_m_f_h_a.png,I,z,688,12,1,1706.5999999046326,256232.90000009537,8085,VNB,A,11
10,test,3,1.0,1-Back,1.0,m,Mon Jan 05 2026 10:35:14 GMT-0600 (Central Standard Time),259755.5,124_o_f_d_a.png,I,m,797,13,1,1806.3999999761581,257949.10000002384,8085,VNB,A,12
10,test,3,0.0,1-Back,0.0,z,Mon Jan 05 2026 10:35:14 GMT-0600 (Central Standard Time),262005.90000009537,165_m_m_d_a.png,I,m,1221,14,1,2240.5,259765.40000009537,8085,VNB,A,13
11,test,3,0.0,1-Back,1.0,m,Mon Jan 05 2026 10:35:14 GMT-0600 (Central Standard Time),264170.8000000715,109_y_m_n_a.png,I,m,1139,15,1,2154.5,262016.30000007153,8085,VNB,A,14
12,test,3,1.0,1-Back,1.0,m,Mon Jan 05 2026 10:35:14 GMT-0600 (Central Standard Time),265920.40000009537,039_o_m_h_a.png,I,m,717,16,1,1739.5,264180.90000009537,8085,VNB,A,15
13,test,3,0.0,1-Back,1.0,m,Mon Jan 05 2026 10:35:14 GMT-0600 (Central Standard Time),267669.7000000477,109_y_m_d_a.png,I,m,720,17,1,1738.6000000238419,265931.10000002384,8085,VNB,A,16
13,test,3,1.0,1-Back,0.0,m,Mon Jan 05 2026 10:35:14 GMT-0600 (Central Standard Time),269552.10000002384,071_y_f_n_a.png,I,z,866,18,1,1872.6999999284744,267679.40000009537,8085,VNB,A,17
0,test,4,1.0,1-Back,,,Mon Jan 05 2026 10:35:14 GMT-0600 (Central Standard Time),269552.10000002384,165_m_m_d_a.png,I,space,2023,1,1,1872.6999999284744,267679.40000009537,8085,VNB,A,0
0,test,4,0.0,1-Back,0.0,z,Mon Jan 05 2026 10:35:14 GMT-0600 (Central Standard Time),276350.40000009537,039_o_m_d_a.png,I,m,1718,2,1,2738.3000000715256,273612.10000002384,8085,VNB,A,1
1,test,4,0.0,1-Back,1.0,m,Mon Jan 05 2026 10:35:14 GMT-0600 (Central Standard Time),278249.5,109_y_m_h_a.png,I,m,881,3,1,1889.1999999284744,276360.3000000715,8085,VNB,A,2
2,test,4,0.0,1-Back,1.0,m,Mon Jan 05 2026 10:35:14 GMT-0600 (Central Standard Time),280632.3000000715,139_m_f_n_a.png,I,m,1349,4,1,2373.100000023842,278259.2000000477,8085,VNB,A,3
3,test,4,1.0,1-Back,1.0,m,Mon Jan 05 2026 10:35:14 GMT-0600 (Central Standard Time),282464.8000000715,124_o_f_h_a.png,I,m,815,5,1,1822.2000000476837,280642.60000002384,8085,VNB,A,4
4,test,4,0.0,1-Back,1.0,m,Mon Jan 05 2026 10:35:14 GMT-0600 (Central Standard Time),284298.90000009537,165_m_m_n_a.png,I,m,807,6,1,1824.4000000953674,282474.5,8085,VNB,A,5
5,test,4,0.0,1-Back,1.0,m,Mon Jan 05 2026 10:35:14 GMT-0600 (Central Standard Time),286230.60000002384,109_y_m_d_a.png,I,m,910,7,1,1921.5,284309.10000002384,8085,VNB,A,6
6,test,4,1.0,1-Back,1.0,z,Mon Jan 05 2026 10:35:14 GMT-0600 (Central Standard Time),288196.60000002384,071_y_f_d_a.png,I,z,938,8,1,1955.7999999523163,286240.8000000715,8085,VNB,A,7
7,test,4,0.0,1-Back,1.0,m,Mon Jan 05 2026 10:35:14 GMT-0600 (Central Standard Time),289979.5,139_m_f_h_a.png,I,m,756,9,1,1772.7999999523163,288206.7000000477,8085,VNB,A,8
8,test,4,0.0,1-Back,1.0,z,Mon Jan 05 2026 10:35:14 GMT-0600 (Central Standard Time),291862.10000002384,039_o_m_h_a.png,I,z,853,10,1,1872.1000000238419,289990.0,8085,VNB,A,9
9,test,4,1.0,1-Back,1.0,m,Mon Jan 05 2026 10:35:14 GMT-0600 (Central Standard Time),293811.5,124_o_f_n_a.png,I,m,929,11,1,1939.0,291872.5,8085,VNB,A,10
10,test,4,0.0,1-Back,1.0,m,Mon Jan 05 2026 10:35:14 GMT-0600 (Central Standard Time),296027.60000002384,139_m_f_d_a.png,I,m,1197,12,1,2205.899999976158,293821.7000000477,8085,VNB,A,11
11,test,4,0.0,1-Back,1.0,m,Mon Jan 05 2026 10:35:14 GMT-0600 (Central Standard Time),297827.0,071_y_f_n_a.png,I,m,780,13,1,1789.1999999284744,296037.8000000715,8085,VNB,A,12
12,test,4,0.0,1-Back,1.0,m,Mon Jan 05 2026 10:35:14 GMT-0600 (Central Standard Time),300575.60000002384,124_o_f_d_a.png,I,m,1725,14,1,2738.7999999523163,297836.8000000715,8085,VNB,A,13
13,test,4,0.0,1-Back,1.0,m,Mon Jan 05 2026 10:35:14 GMT-0600 (Central Standard Time),303175.3000000715,071_y_f_h_a.png,I,m,1567,15,1,2588.399999976158,300586.90000009537,8085,VNB,A,14
14,test,4,1.0,1-Back,1.0,z,Mon Jan 05 2026 10:35:14 GMT-0600 (Central Standard Time),305457.90000009537,165_m_m_h_a.png,I,z,1256,16,1,2271.8000000715256,303186.10000002384,8085,VNB,A,15
15,test,4,0.0,1-Back,1.0,m,Mon Jan 05 2026 10:35:14 GMT-0600 (Central Standard Time),307473.8000000715,039_o_m_n_a.png,I,m,991,17,1,2006.1000000238419,305467.7000000477,8085,VNB,A,16
15,test,4,1.0,1-Back,0.0,z,Mon Jan 05 2026 10:35:14 GMT-0600 (Central Standard Time),309523.3000000715,109_y_m_n_a.png,I,m,1021,18,1,2038.6000000238419,307484.7000000477,8085,VNB,A,17
0,test,5,1.0,1-Back,,,Mon Jan 05 2026 10:35:14 GMT-0600 (Central Standard Time),309523.3000000715,039_o_m_n_a.png,I,space,1608,1,1,2038.6000000238419,307484.7000000477,8085,VNB,A,0
1,test,5,1.0,1-Back,1.0,m,Mon Jan 05 2026 10:35:14 GMT-0600 (Central Standard Time),315088.3000000715,124_o_f_h_a.png,I,m,900,2,1,1922.5,313165.8000000715,8085,VNB,A,1
2,test,5,0.0,1-Back,1.0,m,Mon Jan 05 2026 10:35:14 GMT-0600 (Central Standard Time),316871.2000000477,109_y_m_d_a.png,I,m,751,3,1,1772.7000000476837,315098.5,8085,VNB,A,2
2,test,5,0.0,1-Back,0.0,z,Mon Jan 05 2026 10:35:14 GMT-0600 (Central Standard Time),318986.90000009537,039_o_m_d_a.png,I,m,1096,4,1,2105.8000000715256,316881.10000002384,8085,VNB,A,3
3,test,5,0.0,1-Back,1.0,m,Mon Jan 05 2026 10:35:14 GMT-0600 (Central Standard Time),320769.8000000715,139_m_f_h_a.png,I,m,758,5,1,1772.8000000715256,318997.0,8085,VNB,A,4
4,test,5,0.0,1-Back,1.0,m,Mon Jan 05 2026 10:35:14 GMT-0600 (Central Standard Time),322535.90000009537,071_y_f_n_a.png,I,m,743,6,1,1756.2000000476837,320779.7000000477,8085,VNB,A,5
4,test,5,1.0,1-Back,0.0,z,Mon Jan 05 2026 10:35:14 GMT-0600 (Central Standard Time),324485.2000000477,124_o_f_n_a.png,I,m,919,7,1,1939.2000000476837,322546.0,8085,VNB,A,6
5,test,5,0.0,1-Back,1.0,m,Mon Jan 05 2026 10:35:14 GMT-0600 (Central Standard Time),326717.60000002384,139_m_f_d_a.png,I,m,1210,8,1,2222.399999976158,324495.2000000477,8085,VNB,A,7
6,test,5,0.0,1-Back,1.0,m,Mon Jan 05 2026 10:35:14 GMT-0600 (Central Standard Time),328501.0,109_y_m_h_a.png,I,m,753,9,1,1773.5,326727.5,8085,VNB,A,8
7,test,5,0.0,1-Back,1.0,m,Mon Jan 05 2026 10:35:14 GMT-0600 (Central Standard Time),330383.3000000715,071_y_f_d_a.png,I,m,860,10,1,1872.0,328511.3000000715,8085,VNB,A,9
8,test,5,0.0,1-Back,1.0,m,Mon Jan 05 2026 10:35:14 GMT-0600 (Central Standard Time),332349.40000009537,165_m_m_n_a.png,I,m,944,11,1,1955.6000000238419,330393.8000000715,8085,VNB,A,10
9,test,5,1.0,1-Back,1.0,z,Mon Jan 05 2026 10:35:14 GMT-0600 (Central Standard Time),334332.2000000477,139_m_f_n_a.png,I,z,963,12,1,1972.6000000238419,332359.60000002384,8085,VNB,A,11
10,test,5,0.0,1-Back,1.0,m,Mon Jan 05 2026 10:35:14 GMT-0600 (Central Standard Time),336214.8000000715,039_o_m_h_a.png,I,m,851,13,1,1872.8999999761581,334341.90000009537,8085,VNB,A,12
11,test,5,0.0,1-Back,1.0,z,Mon Jan 05 2026 10:35:14 GMT-0600 (Central Standard Time),338014.3000000715,165_m_m_h_a.png,I,z,769,14,1,1789.6000000238419,336224.7000000477,8085,VNB,A,13
12,test,5,1.0,1-Back,1.0,m,Mon Jan 05 2026 10:35:14 GMT-0600 (Central Standard Time),340096.7000000477,124_o_f_d_a.png,I,m,1065,15,1,2072.2999999523163,338024.40000009537,8085,VNB,A,14
13,test,5,0.0,1-Back,1.0,m,Mon Jan 05 2026 10:35:14 GMT-0600 (Central Standard Time),342612.90000009537,109_y_m_n_a.png,I,m,1488,16,1,2506.600000023842,340106.3000000715,8085,VNB,A,15
14,test,5,0.0,1-Back,1.0,m,Mon Jan 05 2026 10:35:14 GMT-0600 (Central Standard Time),344428.90000009537,071_y_f_h_a.png,I,m,787,17,1,1806.1000000238419,342622.8000000715,8085,VNB,A,16
15,test,5,0.0,1-Back,1.0,m,Mon Jan 05 2026 10:35:14 GMT-0600 (Central Standard Time),346728.5,165_m_m_d_a.png,I,m,1276,18,1,2289.5,344439.0,8085,VNB,A,17
0,prac,1,0.0,2-Back,,,Mon Jan 05 2026 10:35:14 GMT-0600 (Central Standard Time),346728.5,139_m_f_n_a.png,I,space,4857,1,1,2289.5,344439.0,8085,VNB,A,0
0,prac,1,0.0,2-Back,,,Mon Jan 05 2026 10:35:14 GMT-0600 (Central Standard Time),346728.5,124_o_f_h_a.png,I,space,4857,2,1,2289.5,344439.0,8085,VNB,A,0
0,prac,1,0.0,2-Back,0.0,m,Mon Jan 05 2026 10:35:14 GMT-0600 (Central Standard Time),449779.40000009537,039_o_m_d_a.png,I,None,2012,3,1,2803.9000000953674,446975.5,8085,VNB,A,1
0,prac,1,1.0,2-Back,0.0,z,Mon Jan 05 2026 10:35:14 GMT-0600 (Central Standard Time),452596.5,165_m_m_h_a.png,I,None,2012,4,1,2806.1999999284744,449790.3000000715,8085,VNB,A,2
1,prac,1,0.0,2-Back,1.0,m,Mon Jan 05 2026 10:35:14 GMT-0600 (Central Standard Time),454511.3000000715,071_y_f_n_a.png,I,m,1088,5,1,1892.1000000238419,452619.2000000477,8085,VNB,A,3
2,prac,1,1.0,2-Back,1.0,z,Mon Jan 05 2026 10:35:14 GMT-0600 (Central Standard Time),456793.7000000477,039_o_m_h_a.png,I,z,1477,6,1,2271.2999999523163,454522.40000009537,8085,VNB,A,4
2,prac,1,1.0,2-Back,0.0,z,Mon Jan 05 2026 10:35:14 GMT-0600 (Central Standard Time),458976.5,109_y_m_n_a.png,I,m,1372,7,1,2171.6999999284744,456804.8000000715,8085,VNB,A,5
3,prac,1,0.0,2-Back,1.0,m,Mon Jan 05 2026 10:35:14 GMT-0600 (Central Standard Time),461425.90000009537,139_m_f_d_a.png,I,m,1643,8,1,2438.2000000476837,458987.7000000477,8085,VNB,A,6
4,prac,1,0.0,2-Back,1.0,m,Mon Jan 05 2026 10:35:14 GMT-0600 (Central Standard Time),464124.8000000715,124_o_f_d_a.png,I,m,1843,9,1,2688.2000000476837,461436.60000002384,8085,VNB,A,7
4,prac,1,0.0,2-Back,0.0,m,Mon Jan 05 2026 10:35:14 GMT-0600 (Central Standard Time),466274.10000002384,165_m_m_h_a.png,I,z,1361,10,1,2138.6999999284744,464135.40000009537,8085,VNB,A,8
4,prac,1,1.0,2-Back,0.0,z,Mon Jan 05 2026 10:35:14 GMT-0600 (Central Standard Time),468340.0,071_y_f_d_a.png,I,m,1258,11,1,2054.5999999046326,466285.40000009537,8085,VNB,A,9
4,prac,1,0.0,2-Back,0.0,m,Mon Jan 05 2026 10:35:14 GMT-0600 (Central Standard Time),470439.5,039_o_m_n_a.png,I,z,1296,12,1,2088.399999976158,468351.10000002384,8085,VNB,A,10
0,prac,2,0.0,2-Back,,,Mon Jan 05 2026 10:35:14 GMT-0600 (Central Standard Time),470439.5,139_m_f_n_a.png,I,a,7854,1,1,2088.399999976158,468351.10000002384,8085,VNB,A,0
0,prac,2,0.0,2-Back,,,Mon Jan 05 2026 10:35:14 GMT-0600 (Central Standard Time),470439.5,124_o_f_h_a.png,I,a,7854,2,1,2088.399999976158,468351.10000002384,8085,VNB,A,0
1,prac,2,0.0,2-Back,1.0,m,Mon Jan 05 2026 10:35:14 GMT-0600 (Central Standard Time),485501.3000000715,039_o_m_d_a.png,I,m,1248,3,1,2054.600000023842,483446.7000000477,8085,VNB,A,1
2,prac,2,1.0,2-Back,1.0,z,Mon Jan 05 2026 10:35:14 GMT-0600 (Central Standard Time),487334.40000009537,165_m_m_h_a.png,I,z,1047,4,1,1822.1000000238419,485512.3000000715,8085,VNB,A,2
3,prac,2,0.0,2-Back,1.0,m,Mon Jan 05 2026 10:35:14 GMT-0600 (Central Standard Time),489716.8000000715,071_y_f_n_a.png,I,m,1572,5,1,2371.399999976158,487345.40000009537,8085,VNB,A,3
4,prac,2,1.0,2-Back,1.0,z,Mon Jan 05 2026 10:35:14 GMT-0600 (Central Standard Time),491383.0,039_o_m_h_a.png,I,z,856,6,1,1654.6999999284744,489728.3000000715,8085,VNB,A,4
4,prac,2,1.0,2-Back,0.0,z,Mon Jan 05 2026 10:35:14 GMT-0600 (Central Standard Time),492965.60000002384,109_y_m_n_a.png,I,m,759,7,1,1571.8999999761581,491393.7000000477,8085,VNB,A,5
5,prac,2,0.0,2-Back,1.0,m,Mon Jan 05 2026 10:35:14 GMT-0600 (Central Standard Time),495015.10000002384,139_m_f_d_a.png,I,m,1245,8,1,2037.6999999284744,492977.40000009537,8085,VNB,A,6
5,prac,2,0.0,2-Back,0.0,m,Mon Jan 05 2026 10:35:14 GMT-0600 (Central Standard Time),496964.5,124_o_f_d_a.png,I,z,1109,9,1,1938.2999999523163,495026.2000000477,8085,VNB,A,7
6,prac,2,0.0,2-Back,1.0,m,Mon Jan 05 2026 10:35:14 GMT-0600 (Central Standard Time),499545.60000002384,165_m_m_h_a.png,I,m,1746,10,1,2570.2999999523163,496975.3000000715,8085,VNB,A,8
7,prac,2,1.0,2-Back,1.0,z,Mon Jan 05 2026 10:35:14 GMT-0600 (Central Standard Time),501713.10000002384,071_y_f_d_a.png,I,z,1341,11,1,2148.7999999523163,499564.3000000715,8085,VNB,A,9
7,prac,2,0.0,2-Back,0.0,m,Mon Jan 05 2026 10:35:14 GMT-0600 (Central Standard Time),504529.3000000715,039_o_m_n_a.png,I,None,2013,12,1,2804.8000000715256,501724.5,8085,VNB,A,10
0,test,1,0.0,2-Back,,,Mon Jan 05 2026 10:35:14 GMT-0600 (Central Standard Time),504529.3000000715,109_y_m_h_a.png,I,space,11493,1,1,2804.8000000715256,501724.5,8085,VNB,A,0
0,test,1,0.0,2-Back,,,Mon Jan 05 2026 10:35:14 GMT-0600 (Central Standard Time),504529.3000000715,124_o_f_n_a.png,I,space,11493,2,1,2804.8000000715256,501724.5,8085,VNB,A,0
1,test,1,0.0,2-Back,1.0,z,Mon Jan 05 2026 10:35:14 GMT-0600 (Central Standard Time),531936.7000000477,039_o_m_h_a.png,I,z,758,3,1,1771.7999999523163,530164.9000000954,8085,VNB,A,1
2,test,1,0.0,2-Back,1.0,m,Mon Jan 05 2026 10:35:14 GMT-0600 (Central Standard Time),534086.1000000238,139_m_f_d_a.png,I,m,1111,4,1,2132.399999976158,531953.7000000477,8085,VNB,A,2
3,test,1,1.0,2-Back,1.0,m,Mon Jan 05 2026 10:35:14 GMT-0600 (Central Standard Time),536102.0,109_y_m_n_a.png,I,m,985,5,1,2006.0999999046326,534095.9000000954,8085,VNB,A,3
4,test,1,0.0,2-Back,1.0,z,Mon Jan 05 2026 10:35:14 GMT-0600 (Central Standard Time),537968.3000000715,071_y_f_d_a.png,I,z,841,6,1,1855.0,536113.3000000715,8085,VNB,A,4
5,test,1,0.0,2-Back,1.0,m,Mon Jan 05 2026 10:35:14 GMT-0600 (Central Standard Time),540152.0,165_m_m_h_a.png,I,m,1159,7,1,2173.0999999046326,537978.9000000954,8085,VNB,A,5
5,test,1,1.0,2-Back,0.0,m,Mon Jan 05 2026 10:35:14 GMT-0600 (Central Standard Time),542283.2000000477,071_y_f_n_a.png,I,z,1113,8,1,2120.7000000476837,540162.5,8085,VNB,A,6
6,test,1,0.0,2-Back,1.0,z,Mon Jan 05 2026 10:35:14 GMT-0600 (Central Standard Time),544332.9000000954,124_o_f_h_a.png,I,z,1029,9,1,2038.3000000715256,542294.6000000238,8085,VNB,A,7
7,test,1,0.0,2-Back,1.0,m,Mon Jan 05 2026 10:35:14 GMT-0600 (Central Standard Time),546465.5,039_o_m_d_a.png,I,m,1108,10,1,2120.7999999523163,544344.7000000477,8085,VNB,A,8
8,test,1,1.0,2-Back,1.0,m,Mon Jan 05 2026 10:35:14 GMT-0600 (Central Standard Time),548781.6000000238,165_m_m_d_a.png,I,m,1295,11,1,2305.899999976158,546475.7000000477,8085,VNB,A,9
9,test,1,0.0,2-Back,1.0,m,Mon Jan 05 2026 10:35:14 GMT-0600 (Central Standard Time),550847.7000000477,139_m_f_n_a.png,I,m,1043,12,1,2056.0,548791.7000000477,8085,VNB,A,10
10,test,1,0.0,2-Back,1.0,m,Mon Jan 05 2026 10:35:14 GMT-0600 (Central Standard Time),553130.1000000238,071_y_f_h_a.png,I,m,1257,13,1,2271.899999976158,550858.2000000477,8085,VNB,A,11
11,test,1,0.0,2-Back,1.0,z,Mon Jan 05 2026 10:35:14 GMT-0600 (Central Standard Time),555062.7000000477,165_m_m_n_a.png,I,z,902,14,1,1922.2000000476837,553140.5,8085,VNB,A,12
12,test,1,0.0,2-Back,1.0,m,Mon Jan 05 2026 10:35:14 GMT-0600 (Central Standard Time),557112.3000000715,109_y_m_d_a.png,I,m,1026,15,1,2039.3999999761581,555072.9000000954,8085,VNB,A,13
13,test,1,1.0,2-Back,1.0,m,Mon Jan 05 2026 10:35:14 GMT-0600 (Central Standard Time),559678.1000000238,139_m_f_h_a.png,I,m,1543,16,1,2555.5,557122.6000000238,8085,VNB,A,14
13,test,1,0.0,2-Back,0.0,z,Mon Jan 05 2026 10:35:14 GMT-0600 (Central Standard Time),562710.7000000477,124_o_f_d_a.png,I,None,2016,17,1,3021.899999976158,559688.8000000715,8085,VNB,A,15
14,test,1,0.0,2-Back,1.0,m,Mon Jan 05 2026 10:35:14 GMT-0600 (Central Standard Time),565526.3000000715,039_o_m_n_a.png,I,m,1785,18,1,2804.899999976158,562721.4000000954,8085,VNB,A,16
0,test,2,0.0,2-Back,,,Mon Jan 05 2026 10:35:14 GMT-0600 (Central Standard Time),565526.3000000715,165_m_m_h_a.png,I,space,1609,1,1,2804.899999976158,562721.4000000954,8085,VNB,A,0
0,test,2,0.0,2-Back,,,Mon Jan 05 2026 10:35:14 GMT-0600 (Central Standard Time),565526.3000000715,071_y_f_n_a.png,I,space,1609,2,1,2804.899999976158,562721.4000000954,8085,VNB,A,0
1,test,2,1.0,2-Back,1.0,z,Mon Jan 05 2026 10:35:14 GMT-0600 (Central Standard Time),574573.6000000238,124_o_f_h_a.png,I,z,1286,3,1,2305.7999999523163,572267.8000000715,8085,VNB,A,1
2,test,2,0.0,2-Back,1.0,m,Mon Jan 05 2026 10:35:14 GMT-0600 (Central Standard Time),576939.5,039_o_m_d_a.png,I,m,1338,4,1,2354.7999999523163,574584.7000000477,8085,VNB,A,2
3,test,2,0.0,2-Back,1.0,m,Mon Jan 05 2026 10:35:14 GMT-0600 (Central Standard Time),579272.2000000477,139_m_f_d_a.png,I,m,1309,5,1,2322.2999999523163,576949.9000000954,8085,VNB,A,3
3,test,2,0.0,2-Back,0.0,m,Mon Jan 05 2026 10:35:14 GMT-0600 (Central Standard Time),581421.2000000477,109_y_m_h_a.png,I,z,1127,6,1,2139.0,579282.2000000477,8085,VNB,A,4
4,test,2,0.0,2-Back,1.0,m,Mon Jan 05 2026 10:35:14 GMT-0600 (Central Standard Time),583487.3000000715,124_o_f_n_a.png,I,m,1042,7,1,2054.8000000715256,581432.5,8085,VNB,A,5
5,test,2,1.0,2-Back,1.0,z,Mon Jan 05 2026 10:35:14 GMT-0600 (Central Standard Time),585353.6000000238,039_o_m_h_a.png,I,z,841,8,1,1855.8999999761581,583497.7000000477,8085,VNB,A,6
6,test,2,0.0,2-Back,1.0,m,Mon Jan 05 2026 10:35:14 GMT-0600 (Central Standard Time),587669.4000000954,071_y_f_d_a.png,I,m,1295,9,1,2305.5,585363.9000000954,8085,VNB,A,7
7,test,2,0.0,2-Back,1.0,m,Mon Jan 05 2026 10:35:14 GMT-0600 (Central Standard Time),589868.6000000238,109_y_m_d_a.png,I,m,1171,10,1,2188.600000023842,587680.0,8085,VNB,A,8
8,test,2,0.0,2-Back,1.0,m,Mon Jan 05 2026 10:35:14 GMT-0600 (Central Standard Time),591901.3000000715,165_m_m_n_a.png,I,m,1012,11,1,2021.7000000476837,589879.6000000238,8085,VNB,A,9
9,test,2,0.0,2-Back,1.0,m,Mon Jan 05 2026 10:35:14 GMT-0600 (Central Standard Time),594062.8000000715,139_m_f_h_a.png,I,m,998,12,1,2150.600000023842,591912.2000000477,8085,VNB,A,10
10,test,2,1.0,2-Back,1.0,z,Mon Jan 05 2026 10:35:14 GMT-0600 (Central Standard Time),595916.7000000477,039_o_m_n_a.png,I,z,828,13,1,1839.6000000238419,594077.1000000238,8085,VNB,A,11
11,test,2,0.0,2-Back,1.0,m,Mon Jan 05 2026 10:35:14 GMT-0600 (Central Standard Time),597866.1000000238,124_o_f_d_a.png,I,m,932,14,1,1939.1999999284744,595926.9000000954,8085,VNB,A,12
11,test,2,0.0,2-Back,0.0,m,Mon Jan 05 2026 10:35:14 GMT-0600 (Central Standard Time),599965.5,071_y_f_h_a.png,I,z,1069,15,1,2089.0999999046326,597876.4000000954,8085,VNB,A,13
12,test,2,0.0,2-Back,1.0,z,Mon Jan 05 2026 10:35:14 GMT-0600 (Central Standard Time),602247.9000000954,165_m_m_d_a.png,I,z,1258,16,1,2272.2000000476837,599975.7000000477,8085,VNB,A,14
13,test,2,0.0,2-Back,1.0,m,Mon Jan 05 2026 10:35:14 GMT-0600 (Central Standard Time),604430.9000000954,109_y_m_n_a.png,I,m,1152,17,1,2172.9000000953674,602258.0,8085,VNB,A,15
14,test,2,1.0,2-Back,1.0,m,Mon Jan 05 2026 10:35:14 GMT-0600 (Central Standard Time),606546.5,139_m_f_n_a.png,I,m,1088,18,1,2104.7999999523163,604441.7000000477,8085,VNB,A,16
0,test,3,1.0,2-Back,,,Mon Jan 05 2026 10:35:14 GMT-0600 (Central Standard Time),606546.5,039_o_m_n_a.png,I,space,2454,1,1,2104.7999999523163,604441.7000000477,8085,VNB,A,0
0,test,3,1.0,2-Back,,,Mon Jan 05 2026 10:35:14 GMT-0600 (Central Standard Time),606546.5,124_o_f_d_a.png,I,space,2454,2,1,2104.7999999523163,604441.7000000477,8085,VNB,A,0
1,test,3,0.0,2-Back,1.0,m,Mon Jan 05 2026 10:35:14 GMT-0600 (Central Standard Time),616676.9000000954,071_y_f_h_a.png,I,m,1594,3,1,2605.2000000476837,614071.7000000477,8085,VNB,A,1
2,test,3,0.0,2-Back,1.0,z,Mon Jan 05 2026 10:35:14 GMT-0600 (Central Standard Time),618826.2000000477,139_m_f_d_a.png,I,z,1127,4,1,2138.2999999523163,616687.9000000954,8085,VNB,A,2
3,test,3,1.0,2-Back,1.0,m,Mon Jan 05 2026 10:35:14 GMT-0600 (Central Standard Time),620842.1000000238,109_y_m_n_a.png,I,m,998,5,1,2005.5,618836.6000000238,8085,VNB,A,3
3,test,3,0.0,2-Back,0.0,m,Mon Jan 05 2026 10:35:14 GMT-0600 (Central Standard Time),623208.2000000477,039_o_m_h_a.png,I,z,1342,6,1,2355.7999999523163,620852.4000000954,8085,VNB,A,4
4,test,3,0.0,2-Back,1.0,z,Mon Jan 05 2026 10:35:14 GMT-0600 (Central Standard Time),625041.2000000477,071_y_f_n_a.png,I,z,800,7,1,1822.3999999761581,623218.8000000715,8085,VNB,A,5
5,test,3,1.0,2-Back,1.0,m,Mon Jan 05 2026 10:35:14 GMT-0600 (Central Standard Time),627157.0,165_m_m_d_a.png,I,m,1085,8,1,2104.6999999284744,625052.3000000715,8085,VNB,A,6
6,test,3,0.0,2-Back,1.0,m,Mon Jan 05 2026 10:35:14 GMT-0600 (Central Standard Time),629339.6000000238,109_y_m_d_a.png,I,m,1163,9,1,2172.2999999523163,627167.3000000715,8085,VNB,A,7
6,test,3,0.0,2-Back,0.0,m,Mon Jan 05 2026 10:35:14 GMT-0600 (Central Standard Time),631005.4000000954,124_o_f_h_a.png,I,z,636,10,1,1655.2000000476837,629350.2000000477,8085,VNB,A,8
7,test,3,1.0,2-Back,1.0,m,Mon Jan 05 2026 10:35:14 GMT-0600 (Central Standard Time),633105.1000000238,139_m_f_n_a.png,I,m,1074,11,1,2088.899999976158,631016.2000000477,8085,VNB,A,9
8,test,3,1.0,2-Back,1.0,z,Mon Jan 05 2026 10:35:14 GMT-0600 (Central Standard Time),634987.8000000715,165_m_m_h_a.png,I,z,854,12,1,1872.3999999761581,633115.4000000954,8085,VNB,A,10
9,test,3,0.0,2-Back,1.0,m,Mon Jan 05 2026 10:35:14 GMT-0600 (Central Standard Time),636970.1000000238,071_y_f_d_a.png,I,m,964,13,1,1972.2999999523163,634997.8000000715,8085,VNB,A,11
10,test,3,0.0,2-Back,1.0,m,Mon Jan 05 2026 10:35:14 GMT-0600 (Central Standard Time),639003.3000000715,124_o_f_n_a.png,I,m,1014,14,1,2021.3999999761581,636981.9000000954,8085,VNB,A,12
10,test,3,0.0,2-Back,0.0,z,Mon Jan 05 2026 10:35:14 GMT-0600 (Central Standard Time),641452.6000000238,039_o_m_d_a.png,I,m,1421,15,1,2438.5,639014.1000000238,8085,VNB,A,13
11,test,3,1.0,2-Back,1.0,m,Mon Jan 05 2026 10:35:14 GMT-0600 (Central Standard Time),643568.4000000954,139_m_f_h_a.png,I,m,1091,16,1,2105.0,641463.4000000954,8085,VNB,A,14
12,test,3,0.0,2-Back,1.0,m,Mon Jan 05 2026 10:35:14 GMT-0600 (Central Standard Time),645451.2000000477,165_m_m_n_a.png,I,m,856,17,1,1872.3999999761581,643578.8000000715,8085,VNB,A,15
13,test,3,0.0,2-Back,1.0,z,Mon Jan 05 2026 10:35:14 GMT-0600 (Central Standard Time),647367.3000000715,109_y_m_h_a.png,I,z,884,18,1,1905.6000000238419,645461.7000000477,8085,VNB,A,16
0,test,4,0.0,2-Back,,,Mon Jan 05 2026 10:35:14 GMT-0600 (Central Standard Time),647367.3000000715,139_m_f_n_a.png,I,space,1296,1,1,1905.6000000238419,645461.7000000477,8085,VNB,A,0
0,test,4,0.0,2-Back,,,Mon Jan 05 2026 10:35:14 GMT-0600 (Central Standard Time),647367.3000000715,039_o_m_n_a.png,I,space,1296,2,1,1905.6000000238419,645461.7000000477,8085,VNB,A,0
1,test,4,1.0,2-Back,1.0,m,Mon Jan 05 2026 10:35:14 GMT-0600 (Central Standard Time),655848.1000000238,109_y_m_h_a.png,I,m,1066,3,1,2088.7999999523163,653759.3000000715,8085,VNB,A,1
2,test,4,1.0,2-Back,1.0,m,Mon Jan 05 2026 10:35:14 GMT-0600 (Central Standard Time),657830.9000000954,124_o_f_d_a.png,I,m,961,4,1,1972.3000000715256,655858.6000000238,8085,VNB,A,2
3,test,4,0.0,2-Back,1.0,z,Mon Jan 05 2026 10:35:14 GMT-0600 (Central Standard Time),659463.7000000477,039_o_m_h_a.png,I,z,609,5,1,1622.6000000238419,657841.1000000238,8085,VNB,A,3
4,test,4,0.0,2-Back,1.0,m,Mon Jan 05 2026 10:35:14 GMT-0600 (Central Standard Time),661362.7000000477,165_m_m_n_a.png,I,m,881,6,1,1886.7000000476837,659476.0,8085,VNB,A,4
5,test,4,0.0,2-Back,1.0,m,Mon Jan 05 2026 10:35:14 GMT-0600 (Central Standard Time),663362.1000000238,139_m_f_d_a.png,I,m,974,7,1,1988.6000000238419,661373.5,8085,VNB,A,5
6,test,4,0.0,2-Back,1.0,z,Mon Jan 05 2026 10:35:14 GMT-0600 (Central Standard Time),665878.0,071_y_f_n_a.png,I,z,1470,8,1,2497.899999976158,663380.1000000238,8085,VNB,A,6
7,test,4,1.0,2-Back,1.0,m,Mon Jan 05 2026 10:35:14 GMT-0600 (Central Standard Time),668177.2000000477,124_o_f_h_a.png,I,m,1281,9,1,2289.2999999523163,665887.9000000954,8085,VNB,A,7
8,test,4,0.0,2-Back,1.0,m,Mon Jan 05 2026 10:35:14 GMT-0600 (Central Standard Time),670776.5,165_m_m_h_a.png,I,m,1574,10,1,2588.899999976158,668187.6000000238,8085,VNB,A,8
9,test,4,0.0,2-Back,1.0,m,Mon Jan 05 2026 10:35:14 GMT-0600 (Central Standard Time),673092.6000000238,071_y_f_d_a.png,I,m,1271,11,1,2298.6999999284744,670793.9000000954,8085,VNB,A,9
10,test,4,0.0,2-Back,1.0,m,Mon Jan 05 2026 10:35:14 GMT-0600 (Central Standard Time),675142.0,109_y_m_n_a.png,I,m,1019,12,1,2038.7999999523163,673103.2000000477,8085,VNB,A,10
11,test,4,0.0,2-Back,1.0,z,Mon Jan 05 2026 10:35:14 GMT-0600 (Central Standard Time),676858.0,039_o_m_d_a.png,I,z,690,13,1,1704.5999999046326,675153.4000000954,8085,VNB,A,11
12,test,4,1.0,2-Back,1.0,m,Mon Jan 05 2026 10:35:14 GMT-0600 (Central Standard Time),678691.0,139_m_f_h_a.png,I,m,805,14,1,1823.0999999046326,676867.9000000954,8085,VNB,A,12
13,test,4,1.0,2-Back,1.0,m,Mon Jan 05 2026 10:35:14 GMT-0600 (Central Standard Time),680990.0,071_y_f_h_a.png,I,m,1270,15,1,2288.5999999046326,678701.4000000954,8085,VNB,A,13
14,test,4,0.0,2-Back,1.0,m,Mon Jan 05 2026 10:35:14 GMT-0600 (Central Standard Time),683455.9000000954,124_o_f_n_a.png,I,m,1442,16,1,2454.8000000715256,681001.1000000238,8085,VNB,A,14
15,test,4,0.0,2-Back,1.0,m,Mon Jan 05 2026 10:35:14 GMT-0600 (Central Standard Time),685322.0,109_y_m_d_a.png,I,m,840,17,1,1855.5999999046326,683466.4000000954,8085,VNB,A,15
16,test,4,1.0,2-Back,1.0,m,Mon Jan 05 2026 10:35:14 GMT-0600 (Central Standard Time),687737.8000000715,165_m_m_d_a.png,I,m,1389,18,1,2405.0,685332.8000000715,8085,VNB,A,16
0,test,5,1.0,2-Back,,,Mon Jan 05 2026 10:35:14 GMT-0600 (Central Standard Time),687737.8000000715,071_y_f_d_a.png,I,space,1582,1,1,2405.0,685332.8000000715,8085,VNB,A,0
0,test,5,1.0,2-Back,,,Mon Jan 05 2026 10:35:14 GMT-0600 (Central Standard Time),687737.8000000715,124_o_f_h_a.png,I,space,1582,2,1,2405.0,685332.8000000715,8085,VNB,A,0
0,test,5,1.0,2-Back,0.0,z,Mon Jan 05 2026 10:35:14 GMT-0600 (Central Standard Time),697451.7000000477,039_o_m_d_a.png,I,None,2016,3,1,3022.0,694429.7000000477,8085,VNB,A,1
1,test,5,1.0,2-Back,1.0,m,Mon Jan 05 2026 10:35:14 GMT-0600 (Central Standard Time),699700.9000000954,139_m_f_n_a.png,I,m,1220,4,1,2238.4000000953674,697462.5,8085,VNB,A,2
1,test,5,0.0,2-Back,0.0,m,Mon Jan 05 2026 10:35:14 GMT-0600 (Central Standard Time),702016.9000000954,165_m_m_h_a.png,I,z,1284,5,1,2304.8000000715256,699712.1000000238,8085,VNB,A,3
2,test,5,0.0,2-Back,1.0,z,Mon Jan 05 2026 10:35:14 GMT-0600 (Central Standard Time),704449.4000000954,071_y_f_n_a.png,I,z,1399,6,1,2422.4000000953674,702027.0,8085,VNB,A,4
3,test,5,0.0,2-Back,1.0,m,Mon Jan 05 2026 10:35:14 GMT-0600 (Central Standard Time),706781.9000000954,124_o_f_d_a.png,I,m,1299,7,1,2322.2000000476837,704459.7000000477,8085,VNB,A,5
3,test,5,0.0,2-Back,0.0,m,Mon Jan 05 2026 10:35:14 GMT-0600 (Central Standard Time),709814.5,039_o_m_h_a.png,I,None,2016,8,1,3022.0,706792.5,8085,VNB,A,6
4,test,5,1.0,2-Back,1.0,z,Mon Jan 05 2026 10:35:14 GMT-0600 (Central Standard Time),712113.4000000954,139_m_f_d_a.png,I,z,1273,9,1,2287.7000000476837,709825.7000000477,8085,VNB,A,7
5,test,5,0.0,2-Back,1.0,m,Mon Jan 05 2026 10:35:14 GMT-0600 (Central Standard Time),714013.0,109_y_m_n_a.png,I,m,878,10,1,1888.8999999761581,712124.1000000238,8085,VNB,A,8
6,test,5,0.0,2-Back,1.0,m,Mon Jan 05 2026 10:35:14 GMT-0600 (Central Standard Time),715845.8000000715,165_m_m_n_a.png,I,m,802,11,1,1821.3999999761581,714024.4000000954,8085,VNB,A,9
7,test,5,0.0,2-Back,1.0,m,Mon Jan 05 2026 10:35:14 GMT-0600 (Central Standard Time),717928.7000000477,071_y_f_h_a.png,I,m,1050,12,1,2071.600000023842,715857.1000000238,8085,VNB,A,10
8,test,5,0.0,2-Back,1.0,m,Mon Jan 05 2026 10:35:14 GMT-0600 (Central Standard Time),719911.5,109_y_m_d_a.png,I,m,960,13,1,1972.0999999046326,717939.4000000954,8085,VNB,A,11
9,test,5,1.0,2-Back,1.0,z,Mon Jan 05 2026 10:35:14 GMT-0600 (Central Standard Time),721593.7000000477,139_m_f_h_a.png,I,z,665,14,1,1672.0,719921.7000000477,8085,VNB,A,12
9,test,5,0.0,2-Back,0.0,m,Mon Jan 05 2026 10:35:14 GMT-0600 (Central Standard Time),723993.0,039_o_m_n_a.png,I,z,1382,15,1,2388.5,721604.5,8085,VNB,A,13
10,test,5,0.0,2-Back,1.0,m,Mon Jan 05 2026 10:35:14 GMT-0600 (Central Standard Time),726109.1000000238,165_m_m_d_a.png,I,m,1094,16,1,2106.100000023842,724003.0,8085,VNB,A,14
11,test,5,0.0,2-Back,1.0,z,Mon Jan 05 2026 10:35:14 GMT-0600 (Central Standard Time),728258.4000000954,124_o_f_n_a.png,I,z,1131,17,1,2138.600000023842,726119.8000000715,8085,VNB,A,15
12,test,5,1.0,2-Back,1.0,m,Mon Jan 05 2026 10:35:14 GMT-0600 (Central Standard Time),730591.1000000238,109_y_m_h_a.png,I,m,1308,18,1,2322.600000023842,728268.5,8085,VNB,A,16
