block_c,block_dur,condition,countdown,datetime,endtime,list,multichar_response,project,response,response_time,session_number,start_end,starttime,subject_id,task,task_vers,trial
,,,,Mon Jun 23 2025 17:45:33 GMT-0500 (Central Daylight Time),,,,O,space,935,1,,,7147,WL,B,
prac,,0,,Mon Jun 23 2025 17:45:33 GMT-0500 (Central Daylight Time),,NA,b,O,b,7881,1,,,7147,WL,B,1.0
prac,,0,,Mon Jun 23 2025 17:45:33 GMT-0500 (Central Daylight Time),,NA,bo,O,o,445,1,,,7147,WL,B,1.0
prac,,0,,Mon Jun 23 2025 17:45:33 GMT-0500 (Central Daylight Time),,NA,bos,O,s,260,1,,,7147,WL,B,1.0
prac,,0,,Mon Jun 23 2025 17:45:33 GMT-0500 (Central Daylight Time),,NA,bost,O,t,342,1,,,7147,WL,B,1.0
prac,,0,,Mon Jun 23 2025 17:45:33 GMT-0500 (Central Daylight Time),,NA,bos,O,backspace,943,1,,,7147,WL,B,1.0
prac,,0,,Mon Jun 23 2025 17:45:33 GMT-0500 (Central Daylight Time),,NA,bo,O,backspace,162,1,,,7147,WL,B,1.0
prac,,0,,Mon Jun 23 2025 17:45:33 GMT-0500 (Central Daylight Time),,NA,boo,O,o,1294,1,,,7147,WL,B,1.0
prac,,0,,Mon Jun 23 2025 17:45:33 GMT-0500 (Central Daylight Time),,NA,boos,O,s,273,1,,,7147,WL,B,1.0
prac,,0,,Mon Jun 23 2025 17:45:33 GMT-0500 (Central Daylight Time),,NA,boost,O,t,262,1,,,7147,WL,B,1.0
prac,,0,,Mon Jun 23 2025 17:45:33 GMT-0500 (Central Daylight Time),,NA,boostenter,O,enter,4828,1,,,7147,WL,B,1.0
1,2.499000072479248,learn,57500.99992752075,Mon Jun 23 2025 17:45:33 GMT-0500 (Central Daylight Time),139421.90000003576,A,s,O,s,2487,1,2498.900000035763,136923.0,7147,WL,B,1.0
1,2.947999954223633,learn,57052.00004577637,Mon Jun 23 2025 17:45:33 GMT-0500 (Central Daylight Time),139870.69999998808,A,st,O,t,438,1,2947.699999988079,136923.0,7147,WL,B,1.0
1,3.4830000400543213,learn,56516.99995994568,Mon Jun 23 2025 17:45:33 GMT-0500 (Central Daylight Time),140405.80000001192,A,str,O,r,516,1,3482.800000011921,136923.0,7147,WL,B,1.0
1,3.8010001182556152,learn,56198.999881744385,Mon Jun 23 2025 17:45:33 GMT-0500 (Central Daylight Time),140723.90000003576,A,stre,O,e,312,1,3800.900000035763,136923.0,7147,WL,B,1.0
1,3.9820001125335693,learn,56017.99988746643,Mon Jun 23 2025 17:45:33 GMT-0500 (Central Daylight Time),140904.80000001192,A,stree,O,e,166,1,3981.800000011921,136923.0,7147,WL,B,1.0
1,4.2820000648498535,learn,55717.99993515015,Mon Jun 23 2025 17:45:33 GMT-0500 (Central Daylight Time),141205.19999998808,A,street,O,t,280,1,4282.199999988079,136923.0,7147,WL,B,1.0
1,5.016999959945679,learn,54983.00004005432,Mon Jun 23 2025 17:45:33 GMT-0500 (Central Daylight Time),141939.5,A,streetenter,O,enter,726,1,5016.5,136923.0,7147,WL,B,1.0
1,6.364000082015991,learn,53635.99991798401,Mon Jun 23 2025 17:45:33 GMT-0500 (Central Daylight Time),143286.30000001192,A,g,O,g,1326,1,1346.300000011921,141940.0,7147,WL,B,2.0
1,6.599999904632568,learn,53400.00009536743,Mon Jun 23 2025 17:45:33 GMT-0500 (Central Daylight Time),143522.40000003576,A,gr,O,r,232,1,1582.4000000357628,141940.0,7147,WL,B,2.0
1,7.2799999713897705,learn,52720.00002861023,Mon Jun 23 2025 17:45:33 GMT-0500 (Central Daylight Time),144203.10000002384,A,gra,O,a,665,1,2263.100000023842,141940.0,7147,WL,B,2.0
1,7.999000072479248,learn,52000.99992752075,Mon Jun 23 2025 17:45:33 GMT-0500 (Central Daylight Time),144921.40000003576,A,gras,O,s,694,1,2981.400000035763,141940.0,7147,WL,B,2.0
1,8.23200011253357,learn,51767.99988746643,Mon Jun 23 2025 17:45:33 GMT-0500 (Central Daylight Time),145155.10000002384,A,grass,O,s,227,1,3215.100000023842,141940.0,7147,WL,B,2.0
1,8.598999977111816,learn,51401.00002288818,Mon Jun 23 2025 17:45:33 GMT-0500 (Central Daylight Time),145521.30000001192,A,grassenter,O,enter,344,1,3581.300000011921,141940.0,7147,WL,B,2.0
1,10.513999938964844,learn,49486.000061035156,Mon Jun 23 2025 17:45:33 GMT-0500 (Central Daylight Time),147436.60000002384,A,a,O,a,1897,1,1914.9000000357628,145521.69999998808,7147,WL,B,3.0
1,10.832000017166138,learn,49167.99998283386,Mon Jun 23 2025 17:45:33 GMT-0500 (Central Daylight Time),147754.69999998808,A,ar,O,r,294,1,2233.0,145521.69999998808,7147,WL,B,3.0
1,11.345999956130981,learn,48654.00004386902,Mon Jun 23 2025 17:45:33 GMT-0500 (Central Daylight Time),148268.90000003576,A,arm,O,m,504,1,2747.2000000476837,145521.69999998808,7147,WL,B,3.0
1,12.04699993133545,learn,47953.00006866455,Mon Jun 23 2025 17:45:33 GMT-0500 (Central Daylight Time),148969.90000003576,A,armenter,O,enter,685,1,3448.2000000476837,145521.69999998808,7147,WL,B,3.0
1,12.980999946594238,learn,47019.00005340576,Mon Jun 23 2025 17:45:33 GMT-0500 (Central Daylight Time),149903.40000003576,A,s,O,s,912,1,933.2000000476837,148970.19999998808,7147,WL,B,4.0
1,13.312000036239624,learn,46687.999963760376,Mon Jun 23 2025 17:45:33 GMT-0500 (Central Daylight Time),150234.30000001192,A,st,O,t,316,1,1264.1000000238419,148970.19999998808,7147,WL,B,4.0
1,13.562000036239624,learn,46437.999963760376,Mon Jun 23 2025 17:45:33 GMT-0500 (Central Daylight Time),150485.0,A,sta,O,a,240,1,1514.800000011921,148970.19999998808,7147,WL,B,4.0
1,14.897000074386597,learn,45102.9999256134,Mon Jun 23 2025 17:45:33 GMT-0500 (Central Daylight Time),151819.80000001192,A,stat,O,t,1328,1,2849.600000023842,148970.19999998808,7147,WL,B,4.0
1,15.645999908447266,learn,44354.000091552734,Mon Jun 23 2025 17:45:33 GMT-0500 (Central Daylight Time),152569.10000002384,A,statr,O,r,743,1,3598.900000035763,148970.19999998808,7147,WL,B,4.0
1,16.180000066757202,learn,43819.9999332428,Mon Jun 23 2025 17:45:33 GMT-0500 (Central Daylight Time),153102.30000001192,A,stat,O,backspace,520,1,4132.100000023842,148970.19999998808,7147,WL,B,4.0
1,16.361999988555908,learn,43638.00001144409,Mon Jun 23 2025 17:45:33 GMT-0500 (Central Daylight Time),153284.90000003576,A,sta,O,backspace,175,1,4314.700000047684,148970.19999998808,7147,WL,B,4.0
1,16.711999893188477,learn,43288.00010681152,Mon Jun 23 2025 17:45:33 GMT-0500 (Central Daylight Time),153634.80000001192,A,star,O,r,342,1,4664.600000023842,148970.19999998808,7147,WL,B,4.0
1,17.246000051498413,learn,42753.99994850159,Mon Jun 23 2025 17:45:33 GMT-0500 (Central Daylight Time),154168.5,A,starenter,O,enter,512,1,5198.300000011921,148970.19999998808,7147,WL,B,4.0
1,18.295000076293945,learn,41704.999923706055,Mon Jun 23 2025 17:45:33 GMT-0500 (Central Daylight Time),155217.30000001192,A,w,O,w,1035,1,1048.5,154168.80000001192,7147,WL,B,5.0
1,19.24399995803833,learn,40756.00004196167,Mon Jun 23 2025 17:45:33 GMT-0500 (Central Daylight Time),156166.90000003576,A,wo,O,o,937,1,1998.1000000238419,154168.80000001192,7147,WL,B,5.0
1,19.594000101089478,learn,40405.99989891052,Mon Jun 23 2025 17:45:33 GMT-0500 (Central Daylight Time),156516.90000003576,A,won,O,n,332,1,2348.100000023842,154168.80000001192,7147,WL,B,5.0
1,20.07699990272522,learn,39923.00009727478,Mon Jun 23 2025 17:45:33 GMT-0500 (Central Daylight Time),156999.19999998808,A,wond,O,d,470,1,2830.399999976158,154168.80000001192,7147,WL,B,5.0
1,20.32699990272522,learn,39673.00009727478,Mon Jun 23 2025 17:45:33 GMT-0500 (Central Daylight Time),157249.80000001192,A,wondo,O,o,236,1,3081.0,154168.80000001192,7147,WL,B,5.0
1,20.875999927520752,learn,39124.00007247925,Mon Jun 23 2025 17:45:33 GMT-0500 (Central Daylight Time),157799.19999998808,A,wondow,O,w,535,1,3630.399999976158,154168.80000001192,7147,WL,B,5.0
1,21.875,learn,38125.0,Mon Jun 23 2025 17:45:33 GMT-0500 (Central Daylight Time),158797.30000001192,A,wondo,O,backspace,988,1,4628.5,154168.80000001192,7147,WL,B,5.0
1,22.026000022888184,learn,37973.99997711182,Mon Jun 23 2025 17:45:33 GMT-0500 (Central Daylight Time),158949.19999998808,A,wond,O,backspace,134,1,4780.399999976158,154168.80000001192,7147,WL,B,5.0
1,22.193000078201294,learn,37806.999921798706,Mon Jun 23 2025 17:45:33 GMT-0500 (Central Daylight Time),159115.30000001192,A,won,O,backspace,158,1,4946.5,154168.80000001192,7147,WL,B,5.0
1,22.342999935150146,learn,37657.00006484985,Mon Jun 23 2025 17:45:33 GMT-0500 (Central Daylight Time),159266.0,A,wo,O,backspace,144,1,5097.199999988079,154168.80000001192,7147,WL,B,5.0
1,22.562000036239624,learn,37437.999963760376,Mon Jun 23 2025 17:45:33 GMT-0500 (Central Daylight Time),159484.40000003576,A,w,O,backspace,195,1,5315.600000023842,154168.80000001192,7147,WL,B,5.0
1,23.32699990272522,learn,36673.00009727478,Mon Jun 23 2025 17:45:33 GMT-0500 (Central Daylight Time),160249.69999998808,A,wi,O,i,758,1,6080.899999976158,154168.80000001192,7147,WL,B,5.0
1,23.51200008392334,learn,36487.99991607666,Mon Jun 23 2025 17:45:33 GMT-0500 (Central Daylight Time),160434.40000003576,A,win,O,n,179,1,6265.600000023842,154168.80000001192,7147,WL,B,5.0
1,23.927000045776367,learn,36072.99995422363,Mon Jun 23 2025 17:45:33 GMT-0500 (Central Daylight Time),160850.19999998808,A,wind,O,d,409,1,6681.399999976158,154168.80000001192,7147,WL,B,5.0
1,24.176000118255615,learn,35823.999881744385,Mon Jun 23 2025 17:45:33 GMT-0500 (Central Daylight Time),161098.90000003576,A,windo,O,o,232,1,6930.100000023842,154168.80000001192,7147,WL,B,5.0
1,24.509999990463257,learn,35490.00000953674,Mon Jun 23 2025 17:45:33 GMT-0500 (Central Daylight Time),161432.60000002384,A,window,O,w,311,1,7263.800000011921,154168.80000001192,7147,WL,B,5.0
1,25.124000072479248,learn,34875.99992752075,Mon Jun 23 2025 17:45:33 GMT-0500 (Central Daylight Time),162046.30000001192,A,windowenter,O,enter,602,1,7877.5,154168.80000001192,7147,WL,B,5.0
1,26.960000038146973,learn,33039.99996185303,Mon Jun 23 2025 17:45:33 GMT-0500 (Central Daylight Time),163882.30000001192,A,c,O,c,1830,1,1835.699999988079,162046.60000002384,7147,WL,B,6.0
1,27.240999937057495,learn,32759.000062942505,Mon Jun 23 2025 17:45:33 GMT-0500 (Central Daylight Time),164163.60000002384,A,ci,O,i,264,1,2117.0,162046.60000002384,7147,WL,B,6.0
1,27.457000017166138,learn,32542.999982833862,Mon Jun 23 2025 17:45:33 GMT-0500 (Central Daylight Time),164380.10000002384,A,cit,O,t,209,1,2333.5,162046.60000002384,7147,WL,B,6.0
1,27.69099998474121,learn,32309.00001525879,Mon Jun 23 2025 17:45:33 GMT-0500 (Central Daylight Time),164613.5,A,city,O,y,223,1,2566.899999976158,162046.60000002384,7147,WL,B,6.0
1,28.259000062942505,learn,31740.999937057495,Mon Jun 23 2025 17:45:33 GMT-0500 (Central Daylight Time),165181.19999998808,A,cityenter,O,enter,550,1,3134.599999964237,162046.60000002384,7147,WL,B,6.0
1,32.805999994277954,learn,27194.000005722046,Mon Jun 23 2025 17:45:33 GMT-0500 (Central Daylight Time),169730.10000002384,A,p,O,p,4527,1,4548.5,165181.60000002384,7147,WL,B,7.0
1,33.105000019073486,learn,26894.999980926514,Mon Jun 23 2025 17:45:33 GMT-0500 (Central Daylight Time),170029.40000003576,A,pi,O,i,281,1,4847.800000011921,165181.60000002384,7147,WL,B,7.0
1,33.85199999809265,learn,26148.00000190735,Mon Jun 23 2025 17:45:33 GMT-0500 (Central Daylight Time),170777.0,A,pip,O,p,741,1,5595.399999976158,165181.60000002384,7147,WL,B,7.0
1,34.80399990081787,learn,25196.00009918213,Mon Jun 23 2025 17:45:33 GMT-0500 (Central Daylight Time),171728.60000002384,A,pipe,O,e,931,1,6547.0,165181.60000002384,7147,WL,B,7.0
1,35.11999988555908,learn,24880.000114440918,Mon Jun 23 2025 17:45:33 GMT-0500 (Central Daylight Time),172044.90000003576,A,pipeenter,O,enter,297,1,6863.300000011921,165181.60000002384,7147,WL,B,7.0
1,36.00500011444092,learn,23994.999885559082,Mon Jun 23 2025 17:45:33 GMT-0500 (Central Daylight Time),172929.10000002384,A,p,O,p,871,1,884.0,172045.10000002384,7147,WL,B,8.0
1,36.519999980926514,learn,23480.000019073486,Mon Jun 23 2025 17:45:33 GMT-0500 (Central Daylight Time),173444.40000003576,A,pu,O,u,498,1,1399.300000011921,172045.10000002384,7147,WL,B,8.0
1,37.78699994087219,learn,22213.000059127808,Mon Jun 23 2025 17:45:33 GMT-0500 (Central Daylight Time),174711.90000003576,A,pup,O,p,1255,1,2666.800000011921,172045.10000002384,7147,WL,B,8.0
1,38.1029999256134,learn,21897.000074386597,Mon Jun 23 2025 17:45:33 GMT-0500 (Central Daylight Time),175027.5,A,pupi,O,i,306,1,2982.399999976158,172045.10000002384,7147,WL,B,8.0
1,38.38800001144409,learn,21611.99998855591,Mon Jun 23 2025 17:45:33 GMT-0500 (Central Daylight Time),175312.10000002384,A,pupil,O,l,266,1,3267.0,172045.10000002384,7147,WL,B,8.0
1,39.03699994087219,learn,20963.000059127808,Mon Jun 23 2025 17:45:33 GMT-0500 (Central Daylight Time),175961.90000003576,A,pupilenter,O,enter,643,1,3916.800000011921,172045.10000002384,7147,WL,B,8.0
1,40.318000078201294,learn,19681.999921798706,Mon Jun 23 2025 17:45:33 GMT-0500 (Central Daylight Time),177242.60000002384,A,s,O,s,1265,1,1280.300000011921,175962.30000001192,7147,WL,B,9.0
1,40.920000076293945,learn,19079.999923706055,Mon Jun 23 2025 17:45:33 GMT-0500 (Central Daylight Time),177844.69999998808,A,sk,O,k,592,1,1882.3999999761581,175962.30000001192,7147,WL,B,9.0
1,41.236000061035156,learn,18763.999938964844,Mon Jun 23 2025 17:45:33 GMT-0500 (Central Daylight Time),178160.60000002384,A,ski,O,i,292,1,2198.300000011921,175962.30000001192,7147,WL,B,9.0
1,41.60199999809265,learn,18398.00000190735,Mon Jun 23 2025 17:45:33 GMT-0500 (Central Daylight Time),178526.40000003576,A,skin,O,n,356,1,2564.100000023842,175962.30000001192,7147,WL,B,9.0
1,42.25399994850159,learn,17746.000051498413,Mon Jun 23 2025 17:45:33 GMT-0500 (Central Daylight Time),179178.69999998808,A,skinenter,O,enter,645,1,3216.399999976158,175962.30000001192,7147,WL,B,9.0
1,50.3989999294281,learn,9601.0000705719,Mon Jun 23 2025 17:45:33 GMT-0500 (Central Daylight Time),187323.60000002384,A,c,O,c,8129,1,8144.5,179179.10000002384,7147,WL,B,10.0
1,50.66599988937378,learn,9334.00011062622,Mon Jun 23 2025 17:45:33 GMT-0500 (Central Daylight Time),187591.30000001192,A,ca,O,a,253,1,8412.199999988079,179179.10000002384,7147,WL,B,10.0
1,51.01600003242493,learn,8983.999967575073,Mon Jun 23 2025 17:45:33 GMT-0500 (Central Daylight Time),187940.30000001192,A,cab,O,b,333,1,8761.199999988079,179179.10000002384,7147,WL,B,10.0
1,51.33299994468689,learn,8667.00005531311,Mon Jun 23 2025 17:45:33 GMT-0500 (Central Daylight Time),188257.60000002384,A,cabi,O,i,301,1,9078.5,179179.10000002384,7147,WL,B,10.0
1,52.58200001716614,learn,7417.999982833862,Mon Jun 23 2025 17:45:33 GMT-0500 (Central Daylight Time),189507.0,A,cabin,O,n,1228,1,10327.899999976158,179179.10000002384,7147,WL,B,10.0
1,52.88199996948242,learn,7118.000030517578,Mon Jun 23 2025 17:45:33 GMT-0500 (Central Daylight Time),189806.60000002384,A,cabinenter,O,enter,274,1,10627.5,179179.10000002384,7147,WL,B,10.0
1,53.664000034332275,learn,6335.999965667725,Mon Jun 23 2025 17:45:33 GMT-0500 (Central Daylight Time),190588.69999998808,A,l,O,l,773,1,781.7999999523163,189806.90000003576,7147,WL,B,11.0
1,53.96600008010864,learn,6033.999919891357,Mon Jun 23 2025 17:45:33 GMT-0500 (Central Daylight Time),190890.40000003576,A,la,O,a,282,1,1083.5,189806.90000003576,7147,WL,B,11.0
1,54.348999977111816,learn,5651.000022888184,Mon Jun 23 2025 17:45:33 GMT-0500 (Central Daylight Time),191273.69999998808,A,lak,O,k,374,1,1466.7999999523163,189806.90000003576,7147,WL,B,11.0
1,54.69799995422363,learn,5302.000045776367,Mon Jun 23 2025 17:45:33 GMT-0500 (Central Daylight Time),191622.60000002384,A,lake,O,e,325,1,1815.699999988079,189806.90000003576,7147,WL,B,11.0
1,55.19799995422363,learn,4802.000045776367,Mon Jun 23 2025 17:45:33 GMT-0500 (Central Daylight Time),192122.40000003576,A,lakeenter,O,enter,482,1,2315.5,189806.90000003576,7147,WL,B,11.0
1,60.013999938964844,learn,-13.99993896484375,Mon Jun 23 2025 17:45:33 GMT-0500 (Central Daylight Time),196938.60000002384,A,None,O,None,4811,1,4815.900000035763,192122.69999998808,7147,WL,B,12.0
2,1.2829999923706055,learn,58717.000007629395,Mon Jun 23 2025 17:45:33 GMT-0500 (Central Daylight Time),281560.5,A,d,O,d,1262,1,1283.300000011921,280277.1999999881,7147,WL,B,1.0
2,1.563999891281128,learn,58436.00010871887,Mon Jun 23 2025 17:45:33 GMT-0500 (Central Daylight Time),281841.6999999881,A,do,O,o,274,1,1564.5,280277.1999999881,7147,WL,B,1.0
2,1.7149999141693115,learn,58285.00008583069,Mon Jun 23 2025 17:45:33 GMT-0500 (Central Daylight Time),281992.5,A,doo,O,o,135,1,1715.300000011921,280277.1999999881,7147,WL,B,1.0
2,1.9649999141693115,learn,58035.00008583069,Mon Jun 23 2025 17:45:33 GMT-0500 (Central Daylight Time),282242.10000002384,A,door,O,r,236,1,1964.9000000357628,280277.1999999881,7147,WL,B,1.0
2,3.1649999618530273,learn,56835.00003814697,Mon Jun 23 2025 17:45:33 GMT-0500 (Central Daylight Time),283442.5,A,doorenter,O,enter,1195,1,3165.300000011921,280277.1999999881,7147,WL,B,1.0
2,4.065999984741211,learn,55934.00001525879,Mon Jun 23 2025 17:45:33 GMT-0500 (Central Daylight Time),284343.1999999881,A,w,O,w,880,1,900.5,283442.6999999881,7147,WL,B,2.0
2,4.332000017166138,learn,55667.99998283386,Mon Jun 23 2025 17:45:33 GMT-0500 (Central Daylight Time),284609.60000002384,A,wi,O,i,250,1,1166.9000000357628,283442.6999999881,7147,WL,B,2.0
2,4.582000017166138,learn,55417.99998283386,Mon Jun 23 2025 17:45:33 GMT-0500 (Central Daylight Time),284858.90000003576,A,wif,O,f,234,1,1416.2000000476837,283442.6999999881,7147,WL,B,2.0
2,4.8480000495910645,learn,55151.999950408936,Mon Jun 23 2025 17:45:33 GMT-0500 (Central Daylight Time),285125.0,A,wife,O,e,246,1,1682.300000011921,283442.6999999881,7147,WL,B,2.0
2,5.498999834060669,learn,54501.00016593933,Mon Jun 23 2025 17:45:33 GMT-0500 (Central Daylight Time),285775.90000003576,A,wifeenter,O,enter,639,1,2333.2000000476837,283442.6999999881,7147,WL,B,2.0
2,6.447999954223633,learn,53552.00004577637,Mon Jun 23 2025 17:45:33 GMT-0500 (Central Daylight Time),286725.10000002384,A,f,O,f,940,1,948.9000000357628,285776.1999999881,7147,WL,B,3.0
2,6.71399998664856,learn,53286.00001335144,Mon Jun 23 2025 17:45:33 GMT-0500 (Central Daylight Time),286991.40000003576,A,fi,O,i,252,1,1215.2000000476837,285776.1999999881,7147,WL,B,3.0
2,6.948999881744385,learn,53051.000118255615,Mon Jun 23 2025 17:45:33 GMT-0500 (Central Daylight Time),287226.6999999881,A,fir,O,r,229,1,1450.5,285776.1999999881,7147,WL,B,3.0
2,7.264999866485596,learn,52735.000133514404,Mon Jun 23 2025 17:45:33 GMT-0500 (Central Daylight Time),287542.5,A,fire,O,e,295,1,1766.300000011921,285776.1999999881,7147,WL,B,3.0
2,7.730999946594238,learn,52269.00005340576,Mon Jun 23 2025 17:45:33 GMT-0500 (Central Daylight Time),288008.8000000119,A,fireenter,O,enter,443,1,2232.600000023842,285776.1999999881,7147,WL,B,3.0
2,8.56499981880188,learn,51435.00018119812,Mon Jun 23 2025 17:45:33 GMT-0500 (Central Daylight Time),288844.1999999881,A,c,O,c,830,1,835.0999999642372,288009.10000002384,7147,WL,B,4.0
2,8.812999963760376,learn,51187.000036239624,Mon Jun 23 2025 17:45:33 GMT-0500 (Central Daylight Time),289091.8000000119,A,cl,O,l,241,1,1082.699999988079,288009.10000002384,7147,WL,B,4.0
2,9.046000003814697,learn,50953.9999961853,Mon Jun 23 2025 17:45:33 GMT-0500 (Central Daylight Time),289325.1999999881,A,clo,O,o,211,1,1316.0999999642372,288009.10000002384,7147,WL,B,4.0
2,9.279000043869019,learn,50720.99995613098,Mon Jun 23 2025 17:45:33 GMT-0500 (Central Daylight Time),289557.6999999881,A,cloc,O,c,223,1,1548.5999999642372,288009.10000002384,7147,WL,B,4.0
2,9.562000036239624,learn,50437.999963760376,Mon Jun 23 2025 17:45:33 GMT-0500 (Central Daylight Time),289841.60000002384,A,clock,O,k,277,1,1832.5,288009.10000002384,7147,WL,B,4.0
2,10.210999965667725,learn,49789.000034332275,Mon Jun 23 2025 17:45:33 GMT-0500 (Central Daylight Time),290490.60000002384,A,clockenter,O,enter,640,1,2481.5,288009.10000002384,7147,WL,B,4.0
2,11.009999990463257,learn,48990.00000953674,Mon Jun 23 2025 17:45:33 GMT-0500 (Central Daylight Time),291289.3000000119,A,s,O,s,793,1,798.5,290490.8000000119,7147,WL,B,5.0
2,11.276999950408936,learn,48723.000049591064,Mon Jun 23 2025 17:45:33 GMT-0500 (Central Daylight Time),291555.6999999881,A,sr,O,r,252,1,1064.8999999761581,290490.8000000119,7147,WL,B,5.0
2,11.763000011444092,learn,48236.99998855591,Mon Jun 23 2025 17:45:33 GMT-0500 (Central Daylight Time),292042.1999999881,A,s,O,backspace,483,1,1551.3999999761581,290490.8000000119,7147,WL,B,5.0
2,11.978999853134155,learn,48021.000146865845,Mon Jun 23 2025 17:45:33 GMT-0500 (Central Daylight Time),292258.5,A,st,O,t,201,1,1767.699999988079,290490.8000000119,7147,WL,B,5.0
2,12.244999885559082,learn,47755.00011444092,Mon Jun 23 2025 17:45:33 GMT-0500 (Central Daylight Time),292523.6999999881,A,str,O,r,258,1,2032.8999999761581,290490.8000000119,7147,WL,B,5.0
2,12.562000036239624,learn,47437.999963760376,Mon Jun 23 2025 17:45:33 GMT-0500 (Central Daylight Time),292841.5,A,stre,O,e,294,1,2350.699999988079,290490.8000000119,7147,WL,B,5.0
2,12.779000043869019,learn,47220.99995613098,Mon Jun 23 2025 17:45:33 GMT-0500 (Central Daylight Time),293058.10000002384,A,stree,O,e,210,1,2567.300000011921,290490.8000000119,7147,WL,B,5.0
2,13.378000020980835,learn,46621.999979019165,Mon Jun 23 2025 17:45:33 GMT-0500 (Central Daylight Time),293656.90000003576,A,street,O,t,586,1,3166.100000023842,290490.8000000119,7147,WL,B,5.0
2,13.993000030517578,learn,46006.99996948242,Mon Jun 23 2025 17:45:33 GMT-0500 (Central Daylight Time),294272.60000002384,A,streetenter,O,enter,602,1,3781.800000011921,290490.8000000119,7147,WL,B,5.0
2,14.777999877929688,learn,45222.00012207031,Mon Jun 23 2025 17:45:33 GMT-0500 (Central Daylight Time),295056.8000000119,A,g,O,g,771,1,783.8999999761581,294272.90000003576,7147,WL,B,6.0
2,15.026999950408936,learn,44973.000049591064,Mon Jun 23 2025 17:45:33 GMT-0500 (Central Daylight Time),295306.1999999881,A,gr,O,r,244,1,1033.2999999523163,294272.90000003576,7147,WL,B,6.0
2,15.310999870300293,learn,44689.00012969971,Mon Jun 23 2025 17:45:33 GMT-0500 (Central Daylight Time),295589.8000000119,A,gra,O,a,264,1,1316.8999999761581,294272.90000003576,7147,WL,B,6.0
2,15.692999839782715,learn,44307.000160217285,Mon Jun 23 2025 17:45:33 GMT-0500 (Central Daylight Time),295972.60000002384,A,gras,O,s,370,1,1699.699999988079,294272.90000003576,7147,WL,B,6.0
2,15.942999839782715,learn,44057.000160217285,Mon Jun 23 2025 17:45:33 GMT-0500 (Central Daylight Time),296222.3000000119,A,grass,O,s,227,1,1949.3999999761581,294272.90000003576,7147,WL,B,6.0
2,16.625999927520752,learn,43374.00007247925,Mon Jun 23 2025 17:45:33 GMT-0500 (Central Daylight Time),296904.6999999881,A,grassenter,O,enter,659,1,2631.7999999523163,294272.90000003576,7147,WL,B,6.0
2,18.80900001525879,learn,41190.99998474121,Mon Jun 23 2025 17:45:33 GMT-0500 (Central Daylight Time),299088.3000000119,A,a,O,a,2178,1,2183.300000011921,296905.0,7147,WL,B,7.0
2,19.125999927520752,learn,40874.00007247925,Mon Jun 23 2025 17:45:33 GMT-0500 (Central Daylight Time),299405.0,A,ar,O,r,299,1,2500.0,296905.0,7147,WL,B,7.0
2,20.375999927520752,learn,39624.00007247925,Mon Jun 23 2025 17:45:33 GMT-0500 (Central Daylight Time),300654.8000000119,A,arm,O,m,1236,1,3749.800000011921,296905.0,7147,WL,B,7.0
2,20.990999937057495,learn,39009.000062942505,Mon Jun 23 2025 17:45:33 GMT-0500 (Central Daylight Time),301269.8000000119,A,armenter,O,enter,595,1,4364.800000011921,296905.0,7147,WL,B,7.0
2,22.05900001525879,learn,37940.99998474121,Mon Jun 23 2025 17:45:33 GMT-0500 (Central Daylight Time),302338.40000003576,A,s,O,s,1063,1,1068.4000000357628,301270.0,7147,WL,B,8.0
2,22.375999927520752,learn,37624.00007247925,Mon Jun 23 2025 17:45:33 GMT-0500 (Central Daylight Time),302655.0,A,sk,O,k,296,1,1385.0,301270.0,7147,WL,B,8.0
2,22.60599994659424,learn,37394.00005340576,Mon Jun 23 2025 17:45:33 GMT-0500 (Central Daylight Time),302885.10000002384,A,ski,O,i,218,1,1615.1000000238419,301270.0,7147,WL,B,8.0
2,22.990999937057495,learn,37009.000062942505,Mon Jun 23 2025 17:45:33 GMT-0500 (Central Daylight Time),303270.0,A,skin,O,n,368,1,2000.0,301270.0,7147,WL,B,8.0
2,23.4229998588562,learn,36577.0001411438,Mon Jun 23 2025 17:45:33 GMT-0500 (Central Daylight Time),303702.0,A,skinenter,O,enter,421,1,2432.0,301270.0,7147,WL,B,8.0
2,25.58999991416931,learn,34410.00008583069,Mon Jun 23 2025 17:45:33 GMT-0500 (Central Daylight Time),305869.60000002384,A,c,O,c,2158,1,2167.300000011921,303702.3000000119,7147,WL,B,9.0
2,25.825999975204468,learn,34174.00002479553,Mon Jun 23 2025 17:45:33 GMT-0500 (Central Daylight Time),306105.0,A,ci,O,i,228,1,2402.699999988079,303702.3000000119,7147,WL,B,9.0
2,26.057999849319458,learn,33942.00015068054,Mon Jun 23 2025 17:45:33 GMT-0500 (Central Daylight Time),306336.6999999881,A,cit,O,t,209,1,2634.399999976158,303702.3000000119,7147,WL,B,9.0
2,26.306999921798706,learn,33693.000078201294,Mon Jun 23 2025 17:45:33 GMT-0500 (Central Daylight Time),306585.90000003576,A,city,O,y,241,1,2883.600000023842,303702.3000000119,7147,WL,B,9.0
2,26.954999923706055,learn,33045.000076293945,Mon Jun 23 2025 17:45:33 GMT-0500 (Central Daylight Time),307234.60000002384,A,cityenter,O,enter,632,1,3532.300000011921,303702.3000000119,7147,WL,B,9.0
2,27.62399983406067,learn,32376.00016593933,Mon Jun 23 2025 17:45:33 GMT-0500 (Central Daylight Time),307903.40000003576,A,c,O,c,649,1,668.5,307234.90000003576,7147,WL,B,10.0
2,27.82200002670288,learn,32177.99997329712,Mon Jun 23 2025 17:45:33 GMT-0500 (Central Daylight Time),308101.3000000119,A,ca,O,a,187,1,866.3999999761581,307234.90000003576,7147,WL,B,10.0
2,28.18999981880188,learn,31810.00018119812,Mon Jun 23 2025 17:45:33 GMT-0500 (Central Daylight Time),308469.3000000119,A,cab,O,b,362,1,1234.3999999761581,307234.90000003576,7147,WL,B,10.0
2,28.537999868392944,learn,31462.000131607056,Mon Jun 23 2025 17:45:33 GMT-0500 (Central Daylight Time),308817.5,A,cabi,O,i,335,1,1582.5999999642372,307234.90000003576,7147,WL,B,10.0
2,28.871999979019165,learn,31128.000020980835,Mon Jun 23 2025 17:45:33 GMT-0500 (Central Daylight Time),309151.0,A,cabin,O,n,322,1,1916.0999999642372,307234.90000003576,7147,WL,B,10.0
2,29.289999961853027,learn,30710.000038146973,Mon Jun 23 2025 17:45:33 GMT-0500 (Central Daylight Time),309569.5,A,cabinenter,O,enter,412,1,2334.599999964237,307234.90000003576,7147,WL,B,10.0
2,30.006999969482422,learn,29993.000030517578,Mon Jun 23 2025 17:45:33 GMT-0500 (Central Daylight Time),310285.90000003576,A,l,O,l,698,1,716.2000000476837,309569.6999999881,7147,WL,B,11.0
2,30.27300000190735,learn,29726.99999809265,Mon Jun 23 2025 17:45:33 GMT-0500 (Central Daylight Time),310551.8000000119,A,la,O,a,252,1,982.1000000238419,309569.6999999881,7147,WL,B,11.0
2,31.055999994277954,learn,28944.000005722046,Mon Jun 23 2025 17:45:33 GMT-0500 (Central Daylight Time),311334.90000003576,A,lak,O,k,762,1,1765.2000000476837,309569.6999999881,7147,WL,B,11.0
2,31.33799982070923,learn,28662.00017929077,Mon Jun 23 2025 17:45:33 GMT-0500 (Central Daylight Time),311617.5,A,lake,O,e,278,1,2047.800000011921,309569.6999999881,7147,WL,B,11.0
2,31.855000019073486,learn,28144.999980926514,Mon Jun 23 2025 17:45:33 GMT-0500 (Central Daylight Time),312133.8000000119,A,lakeenter,O,enter,505,1,2564.100000023842,309569.6999999881,7147,WL,B,11.0
2,32.605000019073486,learn,27394.999980926514,Mon Jun 23 2025 17:45:33 GMT-0500 (Central Daylight Time),312884.10000002384,A,p,O,p,734,1,750.0,312134.10000002384,7147,WL,B,12.0
2,33.1710000038147,learn,26828.999996185303,Mon Jun 23 2025 17:45:33 GMT-0500 (Central Daylight Time),313450.10000002384,A,pu,O,u,551,1,1316.0,312134.10000002384,7147,WL,B,12.0
2,33.55499982833862,learn,26445.000171661377,Mon Jun 23 2025 17:45:33 GMT-0500 (Central Daylight Time),313834.3000000119,A,pup,O,p,370,1,1700.199999988079,312134.10000002384,7147,WL,B,12.0
2,33.8199999332428,learn,26180.000066757202,Mon Jun 23 2025 17:45:33 GMT-0500 (Central Daylight Time),314099.3000000119,A,pupi,O,i,250,1,1965.199999988079,312134.10000002384,7147,WL,B,12.0
2,34.2039999961853,learn,25796.000003814697,Mon Jun 23 2025 17:45:33 GMT-0500 (Central Daylight Time),314483.40000003576,A,pupil,O,l,365,1,2349.300000011921,312134.10000002384,7147,WL,B,12.0
2,34.90299987792969,learn,25097.000122070312,Mon Jun 23 2025 17:45:33 GMT-0500 (Central Daylight Time),315182.5,A,pupilenter,O,enter,680,1,3048.399999976158,312134.10000002384,7147,WL,B,12.0
2,60.01199984550476,learn,-11.999845504760742,Mon Jun 23 2025 17:45:33 GMT-0500 (Central Daylight Time),340291.40000003576,A,None,O,None,25104,1,25108.700000047684,315182.6999999881,7147,WL,B,13.0
3,1.4660000801086426,learn,58533.99991989136,Mon Jun 23 2025 17:45:33 GMT-0500 (Central Daylight Time),408169.60000002384,A,s,O,s,1453,1,1465.699999988079,406703.90000003576,7147,WL,B,1.0
3,1.749000072479248,learn,58250.99992752075,Mon Jun 23 2025 17:45:33 GMT-0500 (Central Daylight Time),408452.60000002384,A,st,O,t,273,1,1748.699999988079,406703.90000003576,7147,WL,B,1.0
3,2.0329999923706055,learn,57967.000007629395,Mon Jun 23 2025 17:45:33 GMT-0500 (Central Daylight Time),408736.60000002384,A,str,O,r,272,1,2032.699999988079,406703.90000003576,7147,WL,B,1.0
3,2.3630001544952393,learn,57636.99984550476,Mon Jun 23 2025 17:45:33 GMT-0500 (Central Daylight Time),409069.10000002384,A,stre,O,e,314,1,2365.199999988079,406703.90000003576,7147,WL,B,1.0
3,2.5470001697540283,learn,57452.99983024597,Mon Jun 23 2025 17:45:33 GMT-0500 (Central Daylight Time),409253.10000002384,A,stree,O,e,166,1,2549.199999988079,406703.90000003576,7147,WL,B,1.0
3,2.8489999771118164,learn,57151.00002288818,Mon Jun 23 2025 17:45:33 GMT-0500 (Central Daylight Time),409554.3000000119,A,street,O,t,294,1,2850.399999976158,406703.90000003576,7147,WL,B,1.0
3,3.9149999618530273,learn,56085.00003814697,Mon Jun 23 2025 17:45:33 GMT-0500 (Central Daylight Time),410620.3000000119,A,streetenter,O,enter,1058,1,3916.399999976158,406703.90000003576,7147,WL,B,1.0
3,5.047000169754028,learn,54952.99983024597,Mon Jun 23 2025 17:45:33 GMT-0500 (Central Daylight Time),411752.5,A,g,O,g,1112,1,1132.0,410620.5,7147,WL,B,2.0
3,5.296000003814697,learn,54703.9999961853,Mon Jun 23 2025 17:45:33 GMT-0500 (Central Daylight Time),412001.40000003576,A,gr,O,r,234,1,1380.9000000357628,410620.5,7147,WL,B,2.0
3,5.562000036239624,learn,54437.999963760376,Mon Jun 23 2025 17:45:33 GMT-0500 (Central Daylight Time),412267.5,A,gra,O,a,259,1,1647.0,410620.5,7147,WL,B,2.0
3,5.896000146865845,learn,54103.999853134155,Mon Jun 23 2025 17:45:33 GMT-0500 (Central Daylight Time),412601.90000003576,A,gras,O,s,321,1,1981.4000000357628,410620.5,7147,WL,B,2.0
3,6.111999988555908,learn,53888.00001144409,Mon Jun 23 2025 17:45:33 GMT-0500 (Central Daylight Time),412817.90000003576,A,grass,O,s,209,1,2197.400000035763,410620.5,7147,WL,B,2.0
3,6.746000051498413,learn,53253.99994850159,Mon Jun 23 2025 17:45:33 GMT-0500 (Central Daylight Time),413451.6999999881,A,grassenter,O,enter,622,1,2831.199999988079,410620.5,7147,WL,B,2.0
3,7.361999988555908,learn,52638.00001144409,Mon Jun 23 2025 17:45:33 GMT-0500 (Central Daylight Time),414067.5,A,a,O,a,610,1,615.5,413452.0,7147,WL,B,3.0
3,8.11300015449524,learn,51886.99984550476,Mon Jun 23 2025 17:45:33 GMT-0500 (Central Daylight Time),414819.0,A,ar,O,r,725,1,1367.0,413452.0,7147,WL,B,3.0
3,8.479000091552734,learn,51520.999908447266,Mon Jun 23 2025 17:45:33 GMT-0500 (Central Daylight Time),415184.8000000119,A,arm,O,m,344,1,1732.800000011921,413452.0,7147,WL,B,3.0
3,9.16100001335144,learn,50838.99998664856,Mon Jun 23 2025 17:45:33 GMT-0500 (Central Daylight Time),415867.10000002384,A,armenter,O,enter,666,1,2415.100000023842,413452.0,7147,WL,B,3.0
3,9.995000123977661,learn,50004.99987602234,Mon Jun 23 2025 17:45:33 GMT-0500 (Central Daylight Time),416700.3000000119,A,d,O,d,817,1,833.0,415867.3000000119,7147,WL,B,4.0
3,10.312999963760376,learn,49687.000036239624,Mon Jun 23 2025 17:45:33 GMT-0500 (Central Daylight Time),417018.60000002384,A,do,O,o,294,1,1151.300000011921,415867.3000000119,7147,WL,B,4.0
3,10.444000005722046,learn,49555.999994277954,Mon Jun 23 2025 17:45:33 GMT-0500 (Central Daylight Time),417150.10000002384,A,doo,O,o,118,1,1282.800000011921,415867.3000000119,7147,WL,B,4.0
3,10.644999980926514,learn,49355.000019073486,Mon Jun 23 2025 17:45:33 GMT-0500 (Central Daylight Time),417350.5,A,door,O,r,189,1,1483.199999988079,415867.3000000119,7147,WL,B,4.0
3,11.261000156402588,learn,48738.99984359741,Mon Jun 23 2025 17:45:33 GMT-0500 (Central Daylight Time),417966.5,A,doorenter,O,enter,597,1,2099.199999988079,415867.3000000119,7147,WL,B,4.0
3,12.695000171661377,learn,47304.99982833862,Mon Jun 23 2025 17:45:33 GMT-0500 (Central Daylight Time),419400.3000000119,A,s,O,s,1422,1,1433.5,417966.8000000119,7147,WL,B,5.0
3,13.027000188827515,learn,46972.999811172485,Mon Jun 23 2025 17:45:33 GMT-0500 (Central Daylight Time),419733.1999999881,A,st,O,t,316,1,1766.3999999761581,417966.8000000119,7147,WL,B,5.0
3,13.32800006866455,learn,46671.99993133545,Mon Jun 23 2025 17:45:33 GMT-0500 (Central Daylight Time),420033.1999999881,A,sta,O,a,279,1,2066.399999976158,417966.8000000119,7147,WL,B,5.0
3,13.611000061035156,learn,46388.999938964844,Mon Jun 23 2025 17:45:33 GMT-0500 (Central Daylight Time),420316.90000003576,A,star,O,r,275,1,2350.100000023842,417966.8000000119,7147,WL,B,5.0
3,14.559000015258789,learn,45440.99998474121,Mon Jun 23 2025 17:45:33 GMT-0500 (Central Daylight Time),421265.10000002384,A,starenter,O,enter,922,1,3298.300000011921,417966.8000000119,7147,WL,B,5.0
3,17.44000005722046,learn,42559.99994277954,Mon Jun 23 2025 17:45:33 GMT-0500 (Central Daylight Time),424146.0,A,w,O,w,2874,1,2880.599999964237,421265.40000003576,7147,WL,B,6.0
3,17.67300009727478,learn,42326.99990272522,Mon Jun 23 2025 17:45:33 GMT-0500 (Central Daylight Time),424379.10000002384,A,wi,O,i,219,1,3113.699999988079,421265.40000003576,7147,WL,B,6.0
3,17.874000072479248,learn,42125.99992752075,Mon Jun 23 2025 17:45:33 GMT-0500 (Central Daylight Time),424579.3000000119,A,win,O,n,186,1,3313.899999976158,421265.40000003576,7147,WL,B,6.0
3,18.157999992370605,learn,41842.000007629395,Mon Jun 23 2025 17:45:33 GMT-0500 (Central Daylight Time),424863.1999999881,A,wind,O,d,273,1,3597.7999999523163,421265.40000003576,7147,WL,B,6.0
3,18.361000061035156,learn,41638.999938964844,Mon Jun 23 2025 17:45:33 GMT-0500 (Central Daylight Time),425067.1999999881,A,windo,O,o,201,1,3801.7999999523163,421265.40000003576,7147,WL,B,6.0
3,19.10800004005432,learn,40891.99995994568,Mon Jun 23 2025 17:45:33 GMT-0500 (Central Daylight Time),425813.60000002384,A,window,O,w,734,1,4548.199999988079,421265.40000003576,7147,WL,B,6.0
3,19.675000190734863,learn,40324.99980926514,Mon Jun 23 2025 17:45:33 GMT-0500 (Central Daylight Time),426380.5,A,windowenter,O,enter,558,1,5115.099999964237,421265.40000003576,7147,WL,B,6.0
3,20.375,learn,39625.0,Mon Jun 23 2025 17:45:33 GMT-0500 (Central Daylight Time),427080.3000000119,A,c,O,c,680,1,699.6000000238419,426380.6999999881,7147,WL,B,7.0
3,20.591000080108643,learn,39408.99991989136,Mon Jun 23 2025 17:45:33 GMT-0500 (Central Daylight Time),427296.3000000119,A,ca,O,a,202,1,915.6000000238419,426380.6999999881,7147,WL,B,7.0
3,21.10800004005432,learn,38891.99995994568,Mon Jun 23 2025 17:45:33 GMT-0500 (Central Daylight Time),427813.40000003576,A,cab,O,b,507,1,1432.7000000476837,426380.6999999881,7147,WL,B,7.0
3,21.377000093460083,learn,38622.99990653992,Mon Jun 23 2025 17:45:33 GMT-0500 (Central Daylight Time),428082.5,A,cabi,O,i,263,1,1701.800000011921,426380.6999999881,7147,WL,B,7.0
3,21.575999975204468,learn,38424.00002479553,Mon Jun 23 2025 17:45:33 GMT-0500 (Central Daylight Time),428281.3000000119,A,cabin,O,n,174,1,1900.6000000238419,426380.6999999881,7147,WL,B,7.0
3,21.925000190734863,learn,38074.99980926514,Mon Jun 23 2025 17:45:33 GMT-0500 (Central Daylight Time),428630.40000003576,A,cabinenter,O,enter,329,1,2249.7000000476837,426380.6999999881,7147,WL,B,7.0
3,22.289999961853027,learn,37710.00003814697,Mon Jun 23 2025 17:45:33 GMT-0500 (Central Daylight Time),428995.5,A,l,O,l,357,1,364.80000001192093,428630.6999999881,7147,WL,B,8.0
3,22.526000022888184,learn,37473.99997711182,Mon Jun 23 2025 17:45:33 GMT-0500 (Central Daylight Time),429232.0,A,la,O,a,216,1,601.3000000119209,428630.6999999881,7147,WL,B,8.0
3,22.873000144958496,learn,37126.999855041504,Mon Jun 23 2025 17:45:33 GMT-0500 (Central Daylight Time),429579.10000002384,A,lak,O,k,340,1,948.4000000357628,428630.6999999881,7147,WL,B,8.0
3,23.141000032424927,learn,36858.99996757507,Mon Jun 23 2025 17:45:33 GMT-0500 (Central Daylight Time),429846.6999999881,A,lake,O,e,255,1,1216.0,428630.6999999881,7147,WL,B,8.0
3,23.77300000190735,learn,36226.99999809265,Mon Jun 23 2025 17:45:33 GMT-0500 (Central Daylight Time),430478.6999999881,A,lakeenter,O,enter,613,1,1848.0,428630.6999999881,7147,WL,B,8.0
3,24.807000160217285,learn,35192.999839782715,Mon Jun 23 2025 17:45:33 GMT-0500 (Central Daylight Time),431512.3000000119,A,w,O,w,1028,1,1033.3999999761581,430478.90000003576,7147,WL,B,9.0
3,25.424000024795532,learn,34575.99997520447,Mon Jun 23 2025 17:45:33 GMT-0500 (Central Daylight Time),432129.8000000119,A,wi,O,i,597,1,1650.8999999761581,430478.90000003576,7147,WL,B,9.0
3,25.740000009536743,learn,34259.99999046326,Mon Jun 23 2025 17:45:33 GMT-0500 (Central Daylight Time),432445.3000000119,A,wif,O,f,304,1,1966.3999999761581,430478.90000003576,7147,WL,B,9.0
3,26.074000120162964,learn,33925.999879837036,Mon Jun 23 2025 17:45:33 GMT-0500 (Central Daylight Time),432779.5,A,wife,O,e,320,1,2300.599999964237,430478.90000003576,7147,WL,B,9.0
3,26.44000005722046,learn,33559.99994277954,Mon Jun 23 2025 17:45:33 GMT-0500 (Central Daylight Time),433146.1999999881,A,wifeenter,O,enter,360,1,2667.2999999523163,430478.90000003576,7147,WL,B,9.0
3,32.22099995613098,learn,27779.00004386902,Mon Jun 23 2025 17:45:33 GMT-0500 (Central Daylight Time),438926.8000000119,A,p,O,p,5762,1,5780.300000011921,433146.5,7147,WL,B,10.0
3,33.00500011444092,learn,26994.999885559082,Mon Jun 23 2025 17:45:33 GMT-0500 (Central Daylight Time),439710.8000000119,A,pi,O,i,773,1,6564.300000011921,433146.5,7147,WL,B,10.0
3,33.40499997138977,learn,26595.00002861023,Mon Jun 23 2025 17:45:33 GMT-0500 (Central Daylight Time),440110.5,A,pip,O,p,379,1,6964.0,433146.5,7147,WL,B,10.0
3,34.3050000667572,learn,25694.999933242798,Mon Jun 23 2025 17:45:33 GMT-0500 (Central Daylight Time),441010.40000003576,A,pipe,O,e,884,1,7863.900000035763,433146.5,7147,WL,B,10.0
3,34.53700017929077,learn,25462.99982070923,Mon Jun 23 2025 17:45:33 GMT-0500 (Central Daylight Time),441242.6999999881,A,pipeenter,O,enter,215,1,8096.199999988079,433146.5,7147,WL,B,10.0
3,36.38700008392334,learn,23612.99991607666,Mon Jun 23 2025 17:45:33 GMT-0500 (Central Daylight Time),443092.40000003576,A,p,O,p,1833,1,1849.4000000357628,441243.0,7147,WL,B,11.0
3,36.901000022888184,learn,23098.999977111816,Mon Jun 23 2025 17:45:33 GMT-0500 (Central Daylight Time),443606.3000000119,A,pu,O,u,492,1,2363.300000011921,441243.0,7147,WL,B,11.0
3,37.57200002670288,learn,22427.99997329712,Mon Jun 23 2025 17:45:33 GMT-0500 (Central Daylight Time),444277.90000003576,A,pup,O,p,654,1,3034.900000035763,441243.0,7147,WL,B,11.0
3,37.93600010871887,learn,22063.999891281128,Mon Jun 23 2025 17:45:33 GMT-0500 (Central Daylight Time),444641.6999999881,A,pupi,O,i,350,1,3398.699999988079,441243.0,7147,WL,B,11.0
3,38.28700017929077,learn,21712.99982070923,Mon Jun 23 2025 17:45:33 GMT-0500 (Central Daylight Time),444992.40000003576,A,pupil,O,l,329,1,3749.400000035763,441243.0,7147,WL,B,11.0
3,38.78600001335144,learn,21213.99998664856,Mon Jun 23 2025 17:45:33 GMT-0500 (Central Daylight Time),445491.3000000119,A,pupilenter,O,enter,483,1,4248.300000011921,441243.0,7147,WL,B,11.0
3,41.35199999809265,learn,18648.00000190735,Mon Jun 23 2025 17:45:33 GMT-0500 (Central Daylight Time),448057.60000002384,A,f,O,f,2545,1,2566.0,445491.60000002384,7147,WL,B,12.0
3,41.50100016593933,learn,18498.99983406067,Mon Jun 23 2025 17:45:33 GMT-0500 (Central Daylight Time),448207.0,A,fi,O,i,137,1,2715.399999976158,445491.60000002384,7147,WL,B,12.0
3,41.7020001411438,learn,18297.9998588562,Mon Jun 23 2025 17:45:33 GMT-0500 (Central Daylight Time),448407.6999999881,A,fir,O,r,179,1,2916.099999964237,445491.60000002384,7147,WL,B,12.0
3,41.86800003051758,learn,18131.999969482422,Mon Jun 23 2025 17:45:33 GMT-0500 (Central Daylight Time),448574.0,A,fire,O,e,146,1,3082.399999976158,445491.60000002384,7147,WL,B,12.0
3,42.18400001525879,learn,17815.99998474121,Mon Jun 23 2025 17:45:33 GMT-0500 (Central Daylight Time),448889.6999999881,A,fireenter,O,enter,300,1,3398.099999964237,445491.60000002384,7147,WL,B,12.0
3,50.66700005531311,learn,9332.99994468689,Mon Jun 23 2025 17:45:33 GMT-0500 (Central Daylight Time),457372.40000003576,A,s,O,s,8467,1,8482.5,448889.90000003576,7147,WL,B,13.0
3,50.89800000190735,learn,9101.999998092651,Mon Jun 23 2025 17:45:33 GMT-0500 (Central Daylight Time),457604.10000002384,A,sk,O,k,210,1,8714.199999988079,448889.90000003576,7147,WL,B,13.0
3,51.11500000953674,learn,8884.999990463257,Mon Jun 23 2025 17:45:33 GMT-0500 (Central Daylight Time),457820.8000000119,A,ski,O,i,206,1,8930.899999976158,448889.90000003576,7147,WL,B,13.0
3,51.44800019264221,learn,8551.999807357788,Mon Jun 23 2025 17:45:33 GMT-0500 (Central Daylight Time),458153.90000003576,A,skin,O,n,318,1,9264.0,448889.90000003576,7147,WL,B,13.0
3,51.748000144958496,learn,8251.999855041504,Mon Jun 23 2025 17:45:33 GMT-0500 (Central Daylight Time),458453.40000003576,A,skinenter,O,enter,289,1,9563.5,448889.90000003576,7147,WL,B,13.0
3,58.712000131607056,learn,1287.9998683929443,Mon Jun 23 2025 17:45:33 GMT-0500 (Central Daylight Time),465418.0,A,c,O,c,6959,1,6964.399999976158,458453.60000002384,7147,WL,B,14.0
3,58.896000146865845,learn,1103.9998531341553,Mon Jun 23 2025 17:45:33 GMT-0500 (Central Daylight Time),465602.10000002384,A,cl,O,l,169,1,7148.5,458453.60000002384,7147,WL,B,14.0
3,59.11400008201599,learn,885.9999179840088,Mon Jun 23 2025 17:45:33 GMT-0500 (Central Daylight Time),465819.40000003576,A,clo,O,o,211,1,7365.800000011921,458453.60000002384,7147,WL,B,14.0
3,59.38000011444092,learn,619.999885559082,Mon Jun 23 2025 17:45:33 GMT-0500 (Central Daylight Time),466085.8000000119,A,cloc,O,c,255,1,7632.199999988079,458453.60000002384,7147,WL,B,14.0
3,59.61199998855591,learn,388.0000114440918,Mon Jun 23 2025 17:45:33 GMT-0500 (Central Daylight Time),466318.3000000119,A,clock,O,k,212,1,7864.699999988079,458453.60000002384,7147,WL,B,14.0
3,59.8970000743866,learn,102.99992561340332,Mon Jun 23 2025 17:45:33 GMT-0500 (Central Daylight Time),466602.40000003576,A,clockenter,O,enter,276,1,8148.800000011921,458453.60000002384,7147,WL,B,14.0
3,60.01300001144409,learn,-13.000011444091797,Mon Jun 23 2025 17:45:33 GMT-0500 (Central Daylight Time),466718.6999999881,A,None,O,None,112,1,116.09999996423721,466602.60000002384,7147,WL,B,15.0
4,1.2330000400543213,learn,58766.99995994568,Mon Jun 23 2025 17:45:33 GMT-0500 (Central Daylight Time),535663.4000000358,A,s,O,s,1218,1,1233.0,534430.4000000358,7147,WL,B,1.0
4,1.5330002307891846,learn,58466.999769210815,Mon Jun 23 2025 17:45:33 GMT-0500 (Central Daylight Time),535963.0,A,st,O,t,278,1,1532.5999999642372,534430.4000000358,7147,WL,B,1.0
4,1.81600022315979,learn,58183.99977684021,Mon Jun 23 2025 17:45:33 GMT-0500 (Central Daylight Time),536246.6000000238,A,str,O,r,263,1,1816.199999988079,534430.4000000358,7147,WL,B,1.0
4,2.134000062942505,learn,57865.999937057495,Mon Jun 23 2025 17:45:33 GMT-0500 (Central Daylight Time),536564.1999999881,A,stre,O,e,299,1,2133.7999999523163,534430.4000000358,7147,WL,B,1.0
4,2.365000009536743,learn,57634.99999046326,Mon Jun 23 2025 17:45:33 GMT-0500 (Central Daylight Time),536795.3000000119,A,stree,O,e,214,1,2364.899999976158,534430.4000000358,7147,WL,B,1.0
4,3.38100004196167,learn,56618.99995803833,Mon Jun 23 2025 17:45:33 GMT-0500 (Central Daylight Time),537811.1999999881,A,street,O,t,1003,1,3380.7999999523163,534430.4000000358,7147,WL,B,1.0
4,4.749000072479248,learn,55250.99992752075,Mon Jun 23 2025 17:45:33 GMT-0500 (Central Daylight Time),539179.4000000358,A,streetenter,O,enter,1361,1,4749.0,534430.4000000358,7147,WL,B,1.0
4,5.79800009727478,learn,54201.99990272522,Mon Jun 23 2025 17:45:33 GMT-0500 (Central Daylight Time),540228.4000000358,A,g,O,g,1041,1,1048.7000000476837,539179.6999999881,7147,WL,B,2.0
4,6.014000177383423,learn,53985.99982261658,Mon Jun 23 2025 17:45:33 GMT-0500 (Central Daylight Time),540444.4000000358,A,gr,O,r,192,1,1264.7000000476837,539179.6999999881,7147,WL,B,2.0
4,6.301000118255615,learn,53698.999881744385,Mon Jun 23 2025 17:45:33 GMT-0500 (Central Daylight Time),540730.9000000358,A,gra,O,a,279,1,1551.2000000476837,539179.6999999881,7147,WL,B,2.0
4,6.715000152587891,learn,53284.99984741211,Mon Jun 23 2025 17:45:33 GMT-0500 (Central Daylight Time),541145.3000000119,A,gras,O,s,389,1,1965.6000000238419,539179.6999999881,7147,WL,B,2.0
4,6.9150002002716064,learn,53084.99979972839,Mon Jun 23 2025 17:45:33 GMT-0500 (Central Daylight Time),541344.8000000119,A,grass,O,s,186,1,2165.100000023842,539179.6999999881,7147,WL,B,2.0
4,7.5970001220703125,learn,52402.99987792969,Mon Jun 23 2025 17:45:33 GMT-0500 (Central Daylight Time),542027.0,A,grassenter,O,enter,666,1,2847.300000011921,539179.6999999881,7147,WL,B,2.0
4,8.582000017166138,learn,51417.99998283386,Mon Jun 23 2025 17:45:33 GMT-0500 (Central Daylight Time),543012.1999999881,A,d,O,d,980,1,984.8999999761581,542027.3000000119,7147,WL,B,3.0
4,8.879000186920166,learn,51120.999813079834,Mon Jun 23 2025 17:45:33 GMT-0500 (Central Daylight Time),543309.3000000119,A,do,O,o,278,1,1282.0,542027.3000000119,7147,WL,B,3.0
4,9.046000003814697,learn,50953.9999961853,Mon Jun 23 2025 17:45:33 GMT-0500 (Central Daylight Time),543476.0,A,doo,O,o,151,1,1448.699999988079,542027.3000000119,7147,WL,B,3.0
4,9.313000202178955,learn,50686.999797821045,Mon Jun 23 2025 17:45:33 GMT-0500 (Central Daylight Time),543743.0,A,door,O,r,253,1,1715.699999988079,542027.3000000119,7147,WL,B,3.0
4,9.931000232696533,learn,50068.99976730347,Mon Jun 23 2025 17:45:33 GMT-0500 (Central Daylight Time),544360.9000000358,A,doorenter,O,enter,612,1,2333.600000023842,542027.3000000119,7147,WL,B,3.0
4,10.930000066757202,learn,49069.9999332428,Mon Jun 23 2025 17:45:33 GMT-0500 (Central Daylight Time),545360.1999999881,A,a,O,a,988,1,999.0999999642372,544361.1000000238,7147,WL,B,4.0
4,11.28000020980835,learn,48719.99979019165,Mon Jun 23 2025 17:45:33 GMT-0500 (Central Daylight Time),545710.5,A,ar,O,r,328,1,1349.3999999761581,544361.1000000238,7147,WL,B,4.0
4,11.928000211715698,learn,48071.9997882843,Mon Jun 23 2025 17:45:33 GMT-0500 (Central Daylight Time),546358.6000000238,A,arm,O,m,629,1,1997.5,544361.1000000238,7147,WL,B,4.0
4,12.59500002861023,learn,47404.99997138977,Mon Jun 23 2025 17:45:33 GMT-0500 (Central Daylight Time),547024.9000000358,A,armenter,O,enter,650,1,2663.800000011921,544361.1000000238,7147,WL,B,4.0
4,13.462000131607056,learn,46537.999868392944,Mon Jun 23 2025 17:45:33 GMT-0500 (Central Daylight Time),547891.8000000119,A,s,O,s,859,1,866.6999999880791,547025.1000000238,7147,WL,B,5.0
4,13.694000005722046,learn,46305.999994277954,Mon Jun 23 2025 17:45:33 GMT-0500 (Central Daylight Time),548124.6000000238,A,st,O,t,220,1,1099.5,547025.1000000238,7147,WL,B,5.0
4,13.979000091552734,learn,46020.999908447266,Mon Jun 23 2025 17:45:33 GMT-0500 (Central Daylight Time),548409.6000000238,A,sta,O,a,270,1,1384.5,547025.1000000238,7147,WL,B,5.0
4,14.34600019454956,learn,45653.99980545044,Mon Jun 23 2025 17:45:33 GMT-0500 (Central Daylight Time),548775.8000000119,A,star,O,r,351,1,1750.699999988079,547025.1000000238,7147,WL,B,5.0
4,14.895000219345093,learn,45104.99978065491,Mon Jun 23 2025 17:45:33 GMT-0500 (Central Daylight Time),549325.6000000238,A,starenter,O,enter,535,1,2300.5,547025.1000000238,7147,WL,B,5.0
4,15.99400019645691,learn,44005.99980354309,Mon Jun 23 2025 17:45:33 GMT-0500 (Central Daylight Time),550424.6000000238,A,c,O,c,1079,1,1098.800000011921,549325.8000000119,7147,WL,B,6.0
4,16.24500012397766,learn,43754.99987602234,Mon Jun 23 2025 17:45:33 GMT-0500 (Central Daylight Time),550675.4000000358,A,ci,O,i,233,1,1349.6000000238419,549325.8000000119,7147,WL,B,6.0
4,16.378000020980835,learn,43621.999979019165,Mon Jun 23 2025 17:45:33 GMT-0500 (Central Daylight Time),550808.4000000358,A,cit,O,t,118,1,1482.6000000238419,549325.8000000119,7147,WL,B,6.0
4,16.59600019454956,learn,43403.99980545044,Mon Jun 23 2025 17:45:33 GMT-0500 (Central Daylight Time),551026.1999999881,A,city,O,y,210,1,1700.3999999761581,549325.8000000119,7147,WL,B,6.0
4,16.82800006866455,learn,43171.99993133545,Mon Jun 23 2025 17:45:33 GMT-0500 (Central Daylight Time),551257.9000000358,A,cityenter,O,enter,214,1,1932.1000000238419,549325.8000000119,7147,WL,B,6.0
4,17.811000108718872,learn,42188.99989128113,Mon Jun 23 2025 17:45:33 GMT-0500 (Central Daylight Time),552241.6000000238,A,w,O,w,970,1,983.5,551258.1000000238,7147,WL,B,7.0
4,18.011000156402588,learn,41988.99984359741,Mon Jun 23 2025 17:45:33 GMT-0500 (Central Daylight Time),552441.1000000238,A,wi,O,i,176,1,1183.0,551258.1000000238,7147,WL,B,7.0
4,18.194000005722046,learn,41805.999994277954,Mon Jun 23 2025 17:45:33 GMT-0500 (Central Daylight Time),552624.8000000119,A,win,O,n,169,1,1366.699999988079,551258.1000000238,7147,WL,B,7.0
4,18.527000188827515,learn,41472.999811172485,Mon Jun 23 2025 17:45:33 GMT-0500 (Central Daylight Time),552957.8000000119,A,wind,O,d,314,1,1699.699999988079,551258.1000000238,7147,WL,B,7.0
4,18.77900004386902,learn,41220.99995613098,Mon Jun 23 2025 17:45:33 GMT-0500 (Central Daylight Time),553209.3000000119,A,windo,O,o,236,1,1951.199999988079,551258.1000000238,7147,WL,B,7.0
4,19.31000018119812,learn,40689.99981880188,Mon Jun 23 2025 17:45:33 GMT-0500 (Central Daylight Time),553740.4000000358,A,window,O,w,503,1,2482.300000011921,551258.1000000238,7147,WL,B,7.0
4,19.877000093460083,learn,40122.99990653992,Mon Jun 23 2025 17:45:33 GMT-0500 (Central Daylight Time),554306.8000000119,A,windowenter,O,enter,559,1,3048.699999988079,551258.1000000238,7147,WL,B,7.0
4,20.561000108718872,learn,39438.99989128113,Mon Jun 23 2025 17:45:33 GMT-0500 (Central Daylight Time),554991.1000000238,A,c,O,c,665,1,684.0,554307.1000000238,7147,WL,B,8.0
4,20.81000018119812,learn,39189.99981880188,Mon Jun 23 2025 17:45:33 GMT-0500 (Central Daylight Time),555240.4000000358,A,ca,O,a,237,1,933.3000000119209,554307.1000000238,7147,WL,B,8.0
4,21.110000133514404,learn,38889.999866485596,Mon Jun 23 2025 17:45:33 GMT-0500 (Central Daylight Time),555540.3000000119,A,cab,O,b,284,1,1233.199999988079,554307.1000000238,7147,WL,B,8.0
4,21.361000061035156,learn,38638.999938964844,Mon Jun 23 2025 17:45:33 GMT-0500 (Central Daylight Time),555790.9000000358,A,cabi,O,i,238,1,1483.800000011921,554307.1000000238,7147,WL,B,8.0
4,21.609000205993652,learn,38390.99979400635,Mon Jun 23 2025 17:45:33 GMT-0500 (Central Daylight Time),556038.9000000358,A,cabin,O,n,231,1,1731.800000011921,554307.1000000238,7147,WL,B,8.0
4,21.926000118255615,learn,38073.999881744385,Mon Jun 23 2025 17:45:33 GMT-0500 (Central Daylight Time),556356.6999999881,A,cabinenter,O,enter,307,1,2049.599999964237,554307.1000000238,7147,WL,B,8.0
4,23.37600016593933,learn,36623.99983406067,Mon Jun 23 2025 17:45:33 GMT-0500 (Central Daylight Time),557805.9000000358,A,l,O,l,1439,1,1448.9000000357628,556357.0,7147,WL,B,9.0
4,23.610000133514404,learn,36389.999866485596,Mon Jun 23 2025 17:45:33 GMT-0500 (Central Daylight Time),558039.6999999881,A,la,O,a,206,1,1682.699999988079,556357.0,7147,WL,B,9.0
4,23.79200005531311,learn,36207.99994468689,Mon Jun 23 2025 17:45:33 GMT-0500 (Central Daylight Time),558222.0,A,lak,O,k,166,1,1865.0,556357.0,7147,WL,B,9.0
4,24.008000135421753,learn,35991.99986457825,Mon Jun 23 2025 17:45:33 GMT-0500 (Central Daylight Time),558438.3000000119,A,lake,O,e,197,1,2081.300000011921,556357.0,7147,WL,B,9.0
4,24.444000005722046,learn,35555.999994277954,Mon Jun 23 2025 17:45:33 GMT-0500 (Central Daylight Time),558873.9000000358,A,lakeenter,O,enter,428,1,2516.900000035763,556357.0,7147,WL,B,9.0
4,25.460000038146973,learn,34539.99996185303,Mon Jun 23 2025 17:45:33 GMT-0500 (Central Daylight Time),559890.1999999881,A,p,O,p,1002,1,1016.0999999642372,558874.1000000238,7147,WL,B,10.0
4,25.826000213623047,learn,34173.99978637695,Mon Jun 23 2025 17:45:33 GMT-0500 (Central Daylight Time),560256.1000000238,A,pu,O,u,350,1,1382.0,558874.1000000238,7147,WL,B,10.0
4,26.20800018310547,learn,33791.99981689453,Mon Jun 23 2025 17:45:33 GMT-0500 (Central Daylight Time),560638.1999999881,A,pup,O,p,359,1,1764.0999999642372,558874.1000000238,7147,WL,B,10.0
4,26.443000078201294,learn,33556.999921798706,Mon Jun 23 2025 17:45:33 GMT-0500 (Central Daylight Time),560873.8000000119,A,pupi,O,i,223,1,1999.699999988079,558874.1000000238,7147,WL,B,10.0
4,26.692000150680542,learn,33307.99984931946,Mon Jun 23 2025 17:45:33 GMT-0500 (Central Daylight Time),561122.1000000238,A,pupil,O,l,237,1,2248.0,558874.1000000238,7147,WL,B,10.0
4,27.058000087738037,learn,32941.99991226196,Mon Jun 23 2025 17:45:33 GMT-0500 (Central Daylight Time),561488.3000000119,A,pupilenter,O,enter,345,1,2614.199999988079,558874.1000000238,7147,WL,B,10.0
4,28.10800004005432,learn,31891.99995994568,Mon Jun 23 2025 17:45:33 GMT-0500 (Central Daylight Time),562538.0,A,p,O,p,1044,1,1049.3999999761581,561488.6000000238,7147,WL,B,11.0
4,28.390000104904175,learn,31609.999895095825,Mon Jun 23 2025 17:45:33 GMT-0500 (Central Daylight Time),562820.5,A,pi,O,i,270,1,1331.8999999761581,561488.6000000238,7147,WL,B,11.0
4,28.724000215530396,learn,31275.999784469604,Mon Jun 23 2025 17:45:33 GMT-0500 (Central Daylight Time),563154.6000000238,A,pip,O,p,315,1,1666.0,561488.6000000238,7147,WL,B,11.0
4,29.389000177383423,learn,30610.999822616577,Mon Jun 23 2025 17:45:33 GMT-0500 (Central Daylight Time),563819.6000000238,A,pipe,O,e,647,1,2331.0,561488.6000000238,7147,WL,B,11.0
4,30.02400016784668,learn,29975.99983215332,Mon Jun 23 2025 17:45:33 GMT-0500 (Central Daylight Time),564454.0,A,pipeenter,O,enter,623,1,2965.399999976158,561488.6000000238,7147,WL,B,11.0
4,36.77300000190735,learn,23226.99999809265,Mon Jun 23 2025 17:45:33 GMT-0500 (Central Daylight Time),571204.0,A,c,O,c,6746,1,6749.800000011921,564454.1999999881,7147,WL,B,12.0
4,37.854000091552734,learn,22145.999908447266,Mon Jun 23 2025 17:45:33 GMT-0500 (Central Daylight Time),572284.6999999881,A,cl,O,l,1058,1,7830.5,564454.1999999881,7147,WL,B,12.0
4,38.12100005149841,learn,21878.999948501587,Mon Jun 23 2025 17:45:33 GMT-0500 (Central Daylight Time),572550.9000000358,A,clo,O,o,246,1,8096.700000047684,564454.1999999881,7147,WL,B,12.0
4,38.771000146865845,learn,21228.999853134155,Mon Jun 23 2025 17:45:33 GMT-0500 (Central Daylight Time),573201.4000000358,A,cloc,O,c,636,1,8747.200000047684,564454.1999999881,7147,WL,B,12.0
4,39.03700017929077,learn,20962.99982070923,Mon Jun 23 2025 17:45:33 GMT-0500 (Central Daylight Time),573467.1000000238,A,clock,O,k,260,1,9012.900000035763,564454.1999999881,7147,WL,B,12.0
4,39.77000021934509,learn,20229.999780654907,Mon Jun 23 2025 17:45:33 GMT-0500 (Central Daylight Time),574200.3000000119,A,clockenter,O,enter,710,1,9746.100000023842,564454.1999999881,7147,WL,B,12.0
4,46.152000188827515,learn,13847.999811172485,Mon Jun 23 2025 17:45:33 GMT-0500 (Central Daylight Time),580582.6000000238,A,w,O,w,6372,1,6382.100000023842,574200.5,7147,WL,B,13.0
4,46.36800003051758,learn,13631.999969482422,Mon Jun 23 2025 17:45:33 GMT-0500 (Central Daylight Time),580798.3000000119,A,wi,O,i,206,1,6597.800000011921,574200.5,7147,WL,B,13.0
4,46.58500003814697,learn,13414.999961853027,Mon Jun 23 2025 17:45:33 GMT-0500 (Central Daylight Time),581015.5,A,wif,O,f,204,1,6815.0,574200.5,7147,WL,B,13.0
4,46.75100016593933,learn,13248.999834060669,Mon Jun 23 2025 17:45:33 GMT-0500 (Central Daylight Time),581181.1999999881,A,wife,O,e,156,1,6980.699999988079,574200.5,7147,WL,B,13.0
4,47.00100016593933,learn,12998.999834060669,Mon Jun 23 2025 17:45:33 GMT-0500 (Central Daylight Time),581431.5,A,wifeenter,O,enter,230,1,7231.0,574200.5,7147,WL,B,13.0
4,55.88100004196167,learn,4118.99995803833,Mon Jun 23 2025 17:45:33 GMT-0500 (Central Daylight Time),590313.6000000238,A,s,O,s,8861,1,8881.800000011921,581431.8000000119,7147,WL,B,14.0
4,56.06400012969971,learn,3935.999870300293,Mon Jun 23 2025 17:45:33 GMT-0500 (Central Daylight Time),590495.6000000238,A,sk,O,k,162,1,9063.800000011921,581431.8000000119,7147,WL,B,14.0
4,56.31500005722046,learn,3684.999942779541,Mon Jun 23 2025 17:45:33 GMT-0500 (Central Daylight Time),590746.6000000238,A,ski,O,i,227,1,9314.800000011921,581431.8000000119,7147,WL,B,14.0
4,56.580000162124634,learn,3419.999837875366,Mon Jun 23 2025 17:45:33 GMT-0500 (Central Daylight Time),591011.8000000119,A,skin,O,n,257,1,9580.0,581431.8000000119,7147,WL,B,14.0
4,56.86300015449524,learn,3136.9998455047607,Mon Jun 23 2025 17:45:33 GMT-0500 (Central Daylight Time),591295.3000000119,A,skinenter,O,enter,271,1,9863.5,581431.8000000119,7147,WL,B,14.0
4,60.01300001144409,learn,-13.000011444091797,Mon Jun 23 2025 17:45:33 GMT-0500 (Central Daylight Time),594444.8000000119,A,None,O,None,3143,1,3149.300000011921,591295.5,7147,WL,B,15.0
5,1.1989998817443848,learn,60000.0,Mon Jun 23 2025 17:45:33 GMT-0500 (Central Daylight Time),661640.0,A,s,O,s,1185,1,1198.5999999642372,660441.4000000358,7147,WL,B,1.0
5,1.5159997940063477,learn,60000.0,Mon Jun 23 2025 17:45:33 GMT-0500 (Central Daylight Time),661956.4000000358,A,st,O,t,295,1,1515.0,660441.4000000358,7147,WL,B,1.0
5,1.8149998188018799,learn,60000.0,Mon Jun 23 2025 17:45:33 GMT-0500 (Central Daylight Time),662255.6000000238,A,str,O,r,277,1,1814.199999988079,660441.4000000358,7147,WL,B,1.0
5,2.130999803543091,learn,60000.0,Mon Jun 23 2025 17:45:33 GMT-0500 (Central Daylight Time),662572.0,A,stre,O,e,308,1,2130.599999964237,660441.4000000358,7147,WL,B,1.0
5,2.3329999446868896,learn,60000.0,Mon Jun 23 2025 17:45:33 GMT-0500 (Central Daylight Time),662773.8000000119,A,stree,O,e,183,1,2332.399999976158,660441.4000000358,7147,WL,B,1.0
5,2.615000009536743,learn,60000.0,Mon Jun 23 2025 17:45:33 GMT-0500 (Central Daylight Time),663056.1000000238,A,street,O,t,270,1,2614.699999988079,660441.4000000358,7147,WL,B,1.0
5,3.880999803543091,learn,60000.0,Mon Jun 23 2025 17:45:33 GMT-0500 (Central Daylight Time),664321.4000000358,A,streetenter,O,enter,1258,1,3880.0,660441.4000000358,7147,WL,B,1.0
5,4.7149999141693115,learn,60000.0,Mon Jun 23 2025 17:45:33 GMT-0500 (Central Daylight Time),665155.3000000119,A,g,O,g,819,1,833.6000000238419,664321.6999999881,7147,WL,B,2.0
5,4.96399998664856,learn,60000.0,Mon Jun 23 2025 17:45:33 GMT-0500 (Central Daylight Time),665404.6000000238,A,gr,O,r,232,1,1082.9000000357628,664321.6999999881,7147,WL,B,2.0
5,5.248999834060669,learn,60000.0,Mon Jun 23 2025 17:45:33 GMT-0500 (Central Daylight Time),665689.6000000238,A,gra,O,a,272,1,1367.9000000357628,664321.6999999881,7147,WL,B,2.0
5,5.547999858856201,learn,60000.0,Mon Jun 23 2025 17:45:33 GMT-0500 (Central Daylight Time),665988.6000000238,A,gras,O,s,292,1,1666.9000000357628,664321.6999999881,7147,WL,B,2.0
5,5.763999938964844,learn,60000.0,Mon Jun 23 2025 17:45:33 GMT-0500 (Central Daylight Time),666205.1000000238,A,grass,O,s,208,1,1883.4000000357628,664321.6999999881,7147,WL,B,2.0
5,6.429999828338623,learn,60000.0,Mon Jun 23 2025 17:45:33 GMT-0500 (Central Daylight Time),666870.8000000119,A,grassenter,O,enter,645,1,2549.100000023842,664321.6999999881,7147,WL,B,2.0
5,7.648999929428101,learn,60000.0,Mon Jun 23 2025 17:45:33 GMT-0500 (Central Daylight Time),668089.6000000238,A,d,O,d,1205,1,1218.5,666871.1000000238,7147,WL,B,3.0
5,7.913999795913696,learn,60000.0,Mon Jun 23 2025 17:45:33 GMT-0500 (Central Daylight Time),668355.1000000238,A,do,O,o,260,1,1484.0,666871.1000000238,7147,WL,B,3.0
5,8.098999977111816,learn,60000.0,Mon Jun 23 2025 17:45:33 GMT-0500 (Central Daylight Time),668539.6999999881,A,doo,O,o,178,1,1668.5999999642372,666871.1000000238,7147,WL,B,3.0
5,8.680999994277954,learn,60000.0,Mon Jun 23 2025 17:45:33 GMT-0500 (Central Daylight Time),669121.5,A,door,O,r,557,1,2250.399999976158,666871.1000000238,7147,WL,B,3.0
5,9.312999963760376,learn,60000.0,Mon Jun 23 2025 17:45:33 GMT-0500 (Central Daylight Time),669753.6999999881,A,doorenter,O,enter,626,1,2882.599999964237,666871.1000000238,7147,WL,B,3.0
5,10.230999946594238,learn,60000.0,Mon Jun 23 2025 17:45:33 GMT-0500 (Central Daylight Time),670671.6000000238,A,a,O,a,898,1,917.6000000238419,669754.0,7147,WL,B,4.0
5,10.480000019073486,learn,60000.0,Mon Jun 23 2025 17:45:33 GMT-0500 (Central Daylight Time),670920.4000000358,A,ar,O,r,227,1,1166.4000000357628,669754.0,7147,WL,B,4.0
5,10.881999969482422,learn,60000.0,Mon Jun 23 2025 17:45:33 GMT-0500 (Central Daylight Time),671322.3000000119,A,arm,O,m,395,1,1568.300000011921,669754.0,7147,WL,B,4.0
5,11.595999956130981,learn,60000.0,Mon Jun 23 2025 17:45:33 GMT-0500 (Central Daylight Time),672036.6999999881,A,armenter,O,enter,706,1,2282.699999988079,669754.0,7147,WL,B,4.0
5,12.861999988555908,learn,60000.0,Mon Jun 23 2025 17:45:33 GMT-0500 (Central Daylight Time),673302.4000000358,A,s,O,s,1246,1,1265.4000000357628,672037.0,7147,WL,B,5.0
5,13.16100001335144,learn,60000.0,Mon Jun 23 2025 17:45:33 GMT-0500 (Central Daylight Time),673601.6999999881,A,st,O,t,285,1,1564.699999988079,672037.0,7147,WL,B,5.0
5,13.444999933242798,learn,60000.0,Mon Jun 23 2025 17:45:33 GMT-0500 (Central Daylight Time),673885.4000000358,A,sta,O,a,276,1,1848.4000000357628,672037.0,7147,WL,B,5.0
5,13.76199984550476,learn,60000.0,Mon Jun 23 2025 17:45:33 GMT-0500 (Central Daylight Time),674202.4000000358,A,star,O,r,311,1,2165.400000035763,672037.0,7147,WL,B,5.0
5,14.32699990272522,learn,60000.0,Mon Jun 23 2025 17:45:33 GMT-0500 (Central Daylight Time),674768.0,A,starenter,O,enter,552,1,2731.0,672037.0,7147,WL,B,5.0
5,15.42799997329712,learn,60000.0,Mon Jun 23 2025 17:45:33 GMT-0500 (Central Daylight Time),675868.8000000119,A,c,O,c,1083,1,1100.5,674768.3000000119,7147,WL,B,6.0
5,15.694000005722046,learn,60000.0,Mon Jun 23 2025 17:45:33 GMT-0500 (Central Daylight Time),676134.9000000358,A,ci,O,i,247,1,1366.6000000238419,674768.3000000119,7147,WL,B,6.0
5,15.944999933242798,learn,60000.0,Mon Jun 23 2025 17:45:33 GMT-0500 (Central Daylight Time),676385.4000000358,A,cit,O,t,244,1,1617.1000000238419,674768.3000000119,7147,WL,B,6.0
5,16.22699999809265,learn,60000.0,Mon Jun 23 2025 17:45:33 GMT-0500 (Central Daylight Time),676668.1000000238,A,city,O,y,265,1,1899.800000011921,674768.3000000119,7147,WL,B,6.0
5,16.759999990463257,learn,60000.0,Mon Jun 23 2025 17:45:33 GMT-0500 (Central Daylight Time),677200.8000000119,A,cityenter,O,enter,519,1,2432.5,674768.3000000119,7147,WL,B,6.0
5,17.676999807357788,learn,60000.0,Mon Jun 23 2025 17:45:33 GMT-0500 (Central Daylight Time),678117.3000000119,A,w,O,w,908,1,916.1999999880791,677201.1000000238,7147,WL,B,7.0
5,17.908999919891357,learn,60000.0,Mon Jun 23 2025 17:45:33 GMT-0500 (Central Daylight Time),678349.8000000119,A,wi,O,i,222,1,1148.699999988079,677201.1000000238,7147,WL,B,7.0
5,18.126999855041504,learn,60000.0,Mon Jun 23 2025 17:45:33 GMT-0500 (Central Daylight Time),678567.6999999881,A,wif,O,f,199,1,1366.5999999642372,677201.1000000238,7147,WL,B,7.0
5,18.34500002861023,learn,60000.0,Mon Jun 23 2025 17:45:33 GMT-0500 (Central Daylight Time),678786.0,A,wife,O,e,196,1,1584.8999999761581,677201.1000000238,7147,WL,B,7.0
5,18.842999935150146,learn,60000.0,Mon Jun 23 2025 17:45:33 GMT-0500 (Central Daylight Time),679283.9000000358,A,wifeenter,O,enter,488,1,2082.800000011921,677201.1000000238,7147,WL,B,7.0
5,20.942999839782715,learn,60000.0,Mon Jun 23 2025 17:45:33 GMT-0500 (Central Daylight Time),681383.6999999881,A,w,O,w,2088,1,2099.5,679284.1999999881,7147,WL,B,8.0
5,21.158999919891357,learn,60000.0,Mon Jun 23 2025 17:45:33 GMT-0500 (Central Daylight Time),681600.1999999881,A,wi,O,i,203,1,2316.0,679284.1999999881,7147,WL,B,8.0
5,21.424000024795532,learn,60000.0,Mon Jun 23 2025 17:45:33 GMT-0500 (Central Daylight Time),681864.3000000119,A,win,O,n,242,1,2580.100000023842,679284.1999999881,7147,WL,B,8.0
5,21.875,learn,60000.0,Mon Jun 23 2025 17:45:33 GMT-0500 (Central Daylight Time),682315.6000000238,A,wind,O,d,436,1,3031.400000035763,679284.1999999881,7147,WL,B,8.0
5,22.174999952316284,learn,60000.0,Mon Jun 23 2025 17:45:33 GMT-0500 (Central Daylight Time),682615.6000000238,A,windo,O,o,280,1,3331.400000035763,679284.1999999881,7147,WL,B,8.0
5,23.12399983406067,learn,60000.0,Mon Jun 23 2025 17:45:33 GMT-0500 (Central Daylight Time),683565.1999999881,A,window,O,w,940,1,4281.0,679284.1999999881,7147,WL,B,8.0
5,23.79099988937378,learn,60000.0,Mon Jun 23 2025 17:45:33 GMT-0500 (Central Daylight Time),684231.3000000119,A,windowenter,O,enter,647,1,4947.100000023842,679284.1999999881,7147,WL,B,8.0
5,24.70899987220764,learn,60000.0,Mon Jun 23 2025 17:45:33 GMT-0500 (Central Daylight Time),685149.4000000358,A,s,O,s,902,1,917.8000000119209,684231.6000000238,7147,WL,B,9.0
5,24.957000017166138,learn,60000.0,Mon Jun 23 2025 17:45:33 GMT-0500 (Central Daylight Time),685398.0,A,sk,O,k,238,1,1166.3999999761581,684231.6000000238,7147,WL,B,9.0
5,25.174999952316284,learn,60000.0,Mon Jun 23 2025 17:45:33 GMT-0500 (Central Daylight Time),685615.6000000238,A,ski,O,i,206,1,1384.0,684231.6000000238,7147,WL,B,9.0
5,25.473999977111816,learn,60000.0,Mon Jun 23 2025 17:45:33 GMT-0500 (Central Daylight Time),685914.3000000119,A,skin,O,n,285,1,1682.699999988079,684231.6000000238,7147,WL,B,9.0
5,25.789999961853027,learn,60000.0,Mon Jun 23 2025 17:45:33 GMT-0500 (Central Daylight Time),686231.1000000238,A,skinenter,O,enter,299,1,1999.5,684231.6000000238,7147,WL,B,9.0
5,26.72499990463257,learn,60000.0,Mon Jun 23 2025 17:45:33 GMT-0500 (Central Daylight Time),687165.4000000358,A,c,O,c,918,1,934.0,686231.4000000358,7147,WL,B,10.0
5,26.95799994468689,learn,60000.0,Mon Jun 23 2025 17:45:33 GMT-0500 (Central Daylight Time),687399.0,A,ci,O,i,214,1,1167.5999999642372,686231.4000000358,7147,WL,B,10.0
5,27.174000024795532,learn,60000.0,Mon Jun 23 2025 17:45:33 GMT-0500 (Central Daylight Time),687614.5,A,cit,O,t,204,1,1383.0999999642372,686231.4000000358,7147,WL,B,10.0
5,27.457000017166138,learn,60000.0,Mon Jun 23 2025 17:45:33 GMT-0500 (Central Daylight Time),687898.1999999881,A,city,O,y,278,1,1666.7999999523163,686231.4000000358,7147,WL,B,10.0
5,28.04099988937378,learn,60000.0,Mon Jun 23 2025 17:45:33 GMT-0500 (Central Daylight Time),688481.8000000119,A,cityenter,O,enter,579,1,2250.399999976158,686231.4000000358,7147,WL,B,10.0
5,29.555999994277954,learn,60000.0,Mon Jun 23 2025 17:45:33 GMT-0500 (Central Daylight Time),689996.9000000358,A,p,O,p,1509,1,1514.800000011921,688482.1000000238,7147,WL,B,11.0
5,29.988999843597412,learn,60000.0,Mon Jun 23 2025 17:45:33 GMT-0500 (Central Daylight Time),690430.1000000238,A,pu,O,u,422,1,1948.0,688482.1000000238,7147,WL,B,11.0
5,30.32200002670288,learn,60000.0,Mon Jun 23 2025 17:45:33 GMT-0500 (Central Daylight Time),690762.6000000238,A,pup,O,p,318,1,2280.5,688482.1000000238,7147,WL,B,11.0
5,30.538999795913696,learn,60000.0,Mon Jun 23 2025 17:45:33 GMT-0500 (Central Daylight Time),690980.1000000238,A,pupi,O,i,202,1,2498.0,688482.1000000238,7147,WL,B,11.0
5,30.85599994659424,learn,60000.0,Mon Jun 23 2025 17:45:33 GMT-0500 (Central Daylight Time),691297.1000000238,A,pupil,O,l,312,1,2815.0,688482.1000000238,7147,WL,B,11.0
5,31.25499987602234,learn,60000.0,Mon Jun 23 2025 17:45:33 GMT-0500 (Central Daylight Time),691695.3000000119,A,pupilenter,O,enter,378,1,3213.199999988079,688482.1000000238,7147,WL,B,11.0
5,32.42199993133545,learn,60000.0,Mon Jun 23 2025 17:45:33 GMT-0500 (Central Daylight Time),692862.6999999881,A,p,O,p,1149,1,1167.0999999642372,691695.6000000238,7147,WL,B,12.0
5,32.67400002479553,learn,60000.0,Mon Jun 23 2025 17:45:33 GMT-0500 (Central Daylight Time),693114.5,A,pi,O,i,246,1,1418.8999999761581,691695.6000000238,7147,WL,B,12.0
5,33.65499997138977,learn,60000.0,Mon Jun 23 2025 17:45:33 GMT-0500 (Central Daylight Time),694095.5,A,pip,O,p,970,1,2399.899999976158,691695.6000000238,7147,WL,B,12.0
5,34.13800001144409,learn,60000.0,Mon Jun 23 2025 17:45:33 GMT-0500 (Central Daylight Time),694578.6999999881,A,pipe,O,e,468,1,2883.099999964237,691695.6000000238,7147,WL,B,12.0
5,34.43899989128113,learn,60000.0,Mon Jun 23 2025 17:45:33 GMT-0500 (Central Daylight Time),694879.5,A,pipeenter,O,enter,290,1,3183.899999976158,691695.6000000238,7147,WL,B,12.0
5,35.36999988555908,learn,60000.0,Mon Jun 23 2025 17:45:33 GMT-0500 (Central Daylight Time),695811.0,A,f,O,f,917,1,931.3000000119209,694879.6999999881,7147,WL,B,13.0
5,35.620999813079834,learn,60000.0,Mon Jun 23 2025 17:45:33 GMT-0500 (Central Daylight Time),696061.4000000358,A,fi,O,i,242,1,1181.7000000476837,694879.6999999881,7147,WL,B,13.0
5,35.83899998664856,learn,60000.0,Mon Jun 23 2025 17:45:33 GMT-0500 (Central Daylight Time),696279.4000000358,A,fir,O,r,199,1,1399.7000000476837,694879.6999999881,7147,WL,B,13.0
5,35.98699998855591,learn,60000.0,Mon Jun 23 2025 17:45:33 GMT-0500 (Central Daylight Time),696427.4000000358,A,fire,O,e,132,1,1547.7000000476837,694879.6999999881,7147,WL,B,13.0
5,36.28699994087219,learn,60000.0,Mon Jun 23 2025 17:45:33 GMT-0500 (Central Daylight Time),696727.1999999881,A,fireenter,O,enter,287,1,1847.5,694879.6999999881,7147,WL,B,13.0
5,37.334999799728394,learn,60000.0,Mon Jun 23 2025 17:45:33 GMT-0500 (Central Daylight Time),697775.5,A,c,O,c,1036,1,1048.0999999642372,696727.4000000358,7147,WL,B,14.0
5,37.484999895095825,learn,60000.0,Mon Jun 23 2025 17:45:33 GMT-0500 (Central Daylight Time),697925.1999999881,A,ca,O,a,133,1,1197.7999999523163,696727.4000000358,7147,WL,B,14.0
5,37.76899981498718,learn,60000.0,Mon Jun 23 2025 17:45:33 GMT-0500 (Central Daylight Time),698209.6000000238,A,cab,O,b,280,1,1482.199999988079,696727.4000000358,7147,WL,B,14.0
5,38.019999980926514,learn,60000.0,Mon Jun 23 2025 17:45:33 GMT-0500 (Central Daylight Time),698460.8000000119,A,cabi,O,i,244,1,1733.3999999761581,696727.4000000358,7147,WL,B,14.0
5,38.36999988555908,learn,60000.0,Mon Jun 23 2025 17:45:33 GMT-0500 (Central Daylight Time),698811.0,A,cabim,O,m,335,1,2083.599999964237,696727.4000000358,7147,WL,B,14.0
5,39.22000002861023,learn,60000.0,Mon Jun 23 2025 17:45:33 GMT-0500 (Central Daylight Time),699660.8000000119,A,cabi,O,backspace,834,1,2933.399999976158,696727.4000000358,7147,WL,B,14.0
5,39.57099986076355,learn,60000.0,Mon Jun 23 2025 17:45:33 GMT-0500 (Central Daylight Time),700011.9000000358,A,cabin,O,n,328,1,3284.5,696727.4000000358,7147,WL,B,14.0
5,40.186999797821045,learn,60000.0,Mon Jun 23 2025 17:45:33 GMT-0500 (Central Daylight Time),700627.5,A,cabinenter,O,enter,598,1,3900.099999964237,696727.4000000358,7147,WL,B,14.0
5,42.03600001335144,learn,60000.0,Mon Jun 23 2025 17:45:33 GMT-0500 (Central Daylight Time),702476.4000000358,A,c,O,c,1834,1,1848.6000000238419,700627.8000000119,7147,WL,B,15.0
5,42.251999855041504,learn,60000.0,Mon Jun 23 2025 17:45:33 GMT-0500 (Central Daylight Time),702693.1999999881,A,cl,O,l,195,1,2065.399999976158,700627.8000000119,7147,WL,B,15.0
5,42.473999977111816,learn,60000.0,Mon Jun 23 2025 17:45:33 GMT-0500 (Central Daylight Time),702914.4000000358,A,clo,O,o,199,1,2286.600000023842,700627.8000000119,7147,WL,B,15.0
5,42.72099995613098,learn,60000.0,Mon Jun 23 2025 17:45:33 GMT-0500 (Central Daylight Time),703161.4000000358,A,cloc,O,c,227,1,2533.600000023842,700627.8000000119,7147,WL,B,15.0
5,42.93400001525879,learn,60000.0,Mon Jun 23 2025 17:45:33 GMT-0500 (Central Daylight Time),703374.9000000358,A,clock,O,k,196,1,2747.100000023842,700627.8000000119,7147,WL,B,15.0
5,43.21799993515015,learn,60000.0,Mon Jun 23 2025 17:45:33 GMT-0500 (Central Daylight Time),703658.4000000358,A,clockenter,O,enter,279,1,3030.600000023842,700627.8000000119,7147,WL,B,15.0
6,1.1499998569488525,distr,58850.00014305115,Mon Jun 23 2025 17:45:33 GMT-0500 (Central Daylight Time),787716.0,B,b,O,b,1133,1,1149.5,786566.5,7147,WL,B,1.0
6,1.3829998970031738,distr,58617.000102996826,Mon Jun 23 2025 17:45:33 GMT-0500 (Central Daylight Time),787948.6999999881,B,ba,O,a,223,1,1382.199999988079,786566.5,7147,WL,B,1.0
6,1.5339999198913574,distr,58466.00008010864,Mon Jun 23 2025 17:45:33 GMT-0500 (Central Daylight Time),788100.0,B,bab,O,b,143,1,1533.5,786566.5,7147,WL,B,1.0
6,2.1499998569488525,distr,57850.00014305115,Mon Jun 23 2025 17:45:33 GMT-0500 (Central Daylight Time),788716.1999999881,B,baby,O,y,600,1,2149.699999988079,786566.5,7147,WL,B,1.0
6,2.950000047683716,distr,57049.999952316284,Mon Jun 23 2025 17:45:33 GMT-0500 (Central Daylight Time),789515.6999999881,B,babyenter,O,enter,783,1,2949.199999988079,786566.5,7147,WL,B,1.0
6,3.815999984741211,distr,56184.00001525879,Mon Jun 23 2025 17:45:33 GMT-0500 (Central Daylight Time),790381.9000000358,B,o,O,o,849,1,865.9000000357628,789516.0,7147,WL,B,2.0
6,4.0329999923706055,distr,55967.000007629395,Mon Jun 23 2025 17:45:33 GMT-0500 (Central Daylight Time),790598.9000000358,B,oc,O,c,207,1,1082.9000000357628,789516.0,7147,WL,B,2.0
6,4.2829999923706055,distr,55717.000007629395,Mon Jun 23 2025 17:45:33 GMT-0500 (Central Daylight Time),790848.9000000358,B,oce,O,e,228,1,1332.9000000357628,789516.0,7147,WL,B,2.0
6,4.549999952316284,distr,55450.000047683716,Mon Jun 23 2025 17:45:33 GMT-0500 (Central Daylight Time),791115.8000000119,B,ocea,O,a,251,1,1599.800000011921,789516.0,7147,WL,B,2.0
6,4.849999904632568,distr,55150.00009536743,Mon Jun 23 2025 17:45:33 GMT-0500 (Central Daylight Time),791415.8000000119,B,ocean,O,n,287,1,1899.800000011921,789516.0,7147,WL,B,2.0
6,5.313999891281128,distr,54686.00010871887,Mon Jun 23 2025 17:45:33 GMT-0500 (Central Daylight Time),791880.0,B,oceanenter,O,enter,445,1,2364.0,789516.0,7147,WL,B,2.0
6,6.08299994468689,distr,53917.00005531311,Mon Jun 23 2025 17:45:33 GMT-0500 (Central Daylight Time),792649.0,B,p,O,p,748,1,768.6999999880791,791880.3000000119,7147,WL,B,3.0
6,6.33299994468689,distr,53667.00005531311,Mon Jun 23 2025 17:45:33 GMT-0500 (Central Daylight Time),792899.0,B,pa,O,a,244,1,1018.6999999880791,791880.3000000119,7147,WL,B,3.0
6,6.7809998989105225,distr,53219.00010108948,Mon Jun 23 2025 17:45:33 GMT-0500 (Central Daylight Time),793347.5,B,pal,O,l,432,1,1467.199999988079,791880.3000000119,7147,WL,B,3.0
6,7.297999858856201,distr,52702.0001411438,Mon Jun 23 2025 17:45:33 GMT-0500 (Central Daylight Time),793864.0,B,pala,O,a,503,1,1983.699999988079,791880.3000000119,7147,WL,B,3.0
6,7.697000026702881,distr,52302.99997329712,Mon Jun 23 2025 17:45:33 GMT-0500 (Central Daylight Time),794263.1000000238,B,palac,O,c,387,1,2382.800000011921,791880.3000000119,7147,WL,B,3.0
6,8.013999938964844,distr,51986.000061035156,Mon Jun 23 2025 17:45:33 GMT-0500 (Central Daylight Time),794579.9000000358,B,palace,O,e,302,1,2699.600000023842,791880.3000000119,7147,WL,B,3.0
6,8.44700002670288,distr,51552.99997329712,Mon Jun 23 2025 17:45:33 GMT-0500 (Central Daylight Time),795013.4000000358,B,palaceenter,O,enter,422,1,3133.100000023842,791880.3000000119,7147,WL,B,3.0
6,9.513999938964844,distr,50486.000061035156,Mon Jun 23 2025 17:45:33 GMT-0500 (Central Daylight Time),796080.1000000238,B,s,O,s,1056,1,1066.5,795013.6000000238,7147,WL,B,4.0
6,9.865000009536743,distr,50134.99999046326,Mon Jun 23 2025 17:45:33 GMT-0500 (Central Daylight Time),796430.6999999881,B,st,O,t,340,1,1417.0999999642372,795013.6000000238,7147,WL,B,4.0
6,10.36299991607666,distr,49637.00008392334,Mon Jun 23 2025 17:45:33 GMT-0500 (Central Daylight Time),796929.6000000238,B,ste,O,e,492,1,1916.0,795013.6000000238,7147,WL,B,4.0
6,10.6489999294281,distr,49351.0000705719,Mon Jun 23 2025 17:45:33 GMT-0500 (Central Daylight Time),797215.1999999881,B,stea,O,a,271,1,2201.599999964237,795013.6000000238,7147,WL,B,4.0
6,10.961999893188477,distr,49038.00010681152,Mon Jun 23 2025 17:45:33 GMT-0500 (Central Daylight Time),797528.5,B,steam,O,m,302,1,2514.899999976158,795013.6000000238,7147,WL,B,4.0
6,11.478999853134155,distr,48521.000146865845,Mon Jun 23 2025 17:45:33 GMT-0500 (Central Daylight Time),798044.8000000119,B,steamenter,O,enter,508,1,3031.199999988079,795013.6000000238,7147,WL,B,4.0
6,12.313999891281128,distr,47686.00010871887,Mon Jun 23 2025 17:45:33 GMT-0500 (Central Daylight Time),798880.0,B,d,O,d,815,1,835.0,798045.0,7147,WL,B,5.0
6,12.595999956130981,distr,47404.00004386902,Mon Jun 23 2025 17:45:33 GMT-0500 (Central Daylight Time),799162.4000000358,B,dr,O,r,266,1,1117.4000000357628,798045.0,7147,WL,B,5.0
6,12.830999851226807,distr,47169.00014877319,Mon Jun 23 2025 17:45:33 GMT-0500 (Central Daylight Time),799396.8000000119,B,dre,O,e,214,1,1351.800000011921,798045.0,7147,WL,B,5.0
6,13.13100004196167,distr,46868.99995803833,Mon Jun 23 2025 17:45:33 GMT-0500 (Central Daylight Time),799697.1999999881,B,dres,O,s,296,1,1652.199999988079,798045.0,7147,WL,B,5.0
6,13.378999948501587,distr,46621.00005149841,Mon Jun 23 2025 17:45:33 GMT-0500 (Central Daylight Time),799945.3000000119,B,dress,O,s,235,1,1900.300000011921,798045.0,7147,WL,B,5.0
6,14.029000043869019,distr,45970.99995613098,Mon Jun 23 2025 17:45:33 GMT-0500 (Central Daylight Time),800595.1999999881,B,dressenter,O,enter,635,1,2550.199999988079,798045.0,7147,WL,B,5.0
6,14.796000003814697,distr,45203.9999961853,Mon Jun 23 2025 17:45:33 GMT-0500 (Central Daylight Time),801362.5,B,l,O,l,746,1,767.0999999642372,800595.4000000358,7147,WL,B,6.0
6,15.09500002861023,distr,44904.99997138977,Mon Jun 23 2025 17:45:33 GMT-0500 (Central Daylight Time),801661.6000000238,B,li,O,i,289,1,1066.199999988079,800595.4000000358,7147,WL,B,6.0
6,15.376999855041504,distr,44623.000144958496,Mon Jun 23 2025 17:45:33 GMT-0500 (Central Daylight Time),801943.3000000119,B,lip,O,p,271,1,1347.8999999761581,800595.4000000358,7147,WL,B,6.0
6,16.72699999809265,distr,43273.00000190735,Mon Jun 23 2025 17:45:33 GMT-0500 (Central Daylight Time),803293.5,B,lipenter,O,enter,1342,1,2698.099999964237,800595.4000000358,7147,WL,B,6.0
6,17.74399995803833,distr,42256.00004196167,Mon Jun 23 2025 17:45:33 GMT-0500 (Central Daylight Time),804310.4000000358,B,a,O,a,999,1,1016.6000000238419,803293.8000000119,7147,WL,B,7.0
6,18.17799997329712,distr,41822.00002670288,Mon Jun 23 2025 17:45:33 GMT-0500 (Central Daylight Time),804744.5,B,ar,O,r,411,1,1450.699999988079,803293.8000000119,7147,WL,B,7.0
6,18.544999837875366,distr,41455.000162124634,Mon Jun 23 2025 17:45:33 GMT-0500 (Central Daylight Time),805111.6000000238,B,arm,O,m,355,1,1817.800000011921,803293.8000000119,7147,WL,B,7.0
6,19.027999877929688,distr,40972.00012207031,Mon Jun 23 2025 17:45:33 GMT-0500 (Central Daylight Time),805593.9000000358,B,army,O,y,469,1,2300.100000023842,803293.8000000119,7147,WL,B,7.0
6,19.493000030517578,distr,40506.99996948242,Mon Jun 23 2025 17:45:33 GMT-0500 (Central Daylight Time),806059.1999999881,B,armyenter,O,enter,450,1,2765.399999976158,803293.8000000119,7147,WL,B,7.0
6,20.30999994277954,distr,39690.00005722046,Mon Jun 23 2025 17:45:33 GMT-0500 (Central Daylight Time),806876.1999999881,B,r,O,r,812,1,816.6999999880791,806059.5,7147,WL,B,8.0
6,20.628000020980835,distr,39371.999979019165,Mon Jun 23 2025 17:45:33 GMT-0500 (Central Daylight Time),807193.6999999881,B,ro,O,o,305,1,1134.199999988079,806059.5,7147,WL,B,8.0
6,20.944000005722046,distr,39055.999994277954,Mon Jun 23 2025 17:45:33 GMT-0500 (Central Daylight Time),807510.6000000238,B,roc,O,c,298,1,1451.1000000238419,806059.5,7147,WL,B,8.0
6,21.243000030517578,distr,38756.99996948242,Mon Jun 23 2025 17:45:33 GMT-0500 (Central Daylight Time),807808.8000000119,B,rock,O,k,284,1,1749.300000011921,806059.5,7147,WL,B,8.0
6,21.924999952316284,distr,38075.000047683716,Mon Jun 23 2025 17:45:33 GMT-0500 (Central Daylight Time),808491.1999999881,B,rockenter,O,enter,675,1,2431.699999988079,806059.5,7147,WL,B,8.0
6,23.908999919891357,distr,36091.00008010864,Mon Jun 23 2025 17:45:33 GMT-0500 (Central Daylight Time),810474.8000000119,B,v,O,v,1978,1,1983.300000011921,808491.5,7147,WL,B,9.0
6,24.175999879837036,distr,35824.000120162964,Mon Jun 23 2025 17:45:33 GMT-0500 (Central Daylight Time),810742.1999999881,B,vi,O,i,258,1,2250.699999988079,808491.5,7147,WL,B,9.0
6,24.509999990463257,distr,35490.00000953674,Mon Jun 23 2025 17:45:33 GMT-0500 (Central Daylight Time),811075.6999999881,B,vil,O,l,315,1,2584.199999988079,808491.5,7147,WL,B,9.0
6,24.675999879837036,distr,35324.000120162964,Mon Jun 23 2025 17:45:33 GMT-0500 (Central Daylight Time),811242.5,B,vill,O,l,151,1,2751.0,808491.5,7147,WL,B,9.0
6,24.85800004005432,distr,35141.99995994568,Mon Jun 23 2025 17:45:33 GMT-0500 (Central Daylight Time),811424.6000000238,B,villa,O,a,168,1,2933.100000023842,808491.5,7147,WL,B,9.0
6,25.177000045776367,distr,34822.99995422363,Mon Jun 23 2025 17:45:33 GMT-0500 (Central Daylight Time),811742.9000000358,B,villag,O,g,308,1,3251.400000035763,808491.5,7147,WL,B,9.0
6,25.424999952316284,distr,34575.000047683716,Mon Jun 23 2025 17:45:33 GMT-0500 (Central Daylight Time),811990.6000000238,B,village,O,e,237,1,3499.100000023842,808491.5,7147,WL,B,9.0
6,26.30900001525879,distr,33690.99998474121,Mon Jun 23 2025 17:45:33 GMT-0500 (Central Daylight Time),812875.4000000358,B,villageenter,O,enter,879,1,4383.900000035763,808491.5,7147,WL,B,9.0
6,46.5,distr,13500.0,Mon Jun 23 2025 17:45:33 GMT-0500 (Central Daylight Time),833067.4000000358,B,f,O,f,20178,1,20191.80000001192,812875.6000000238,7147,WL,B,10.0
6,46.76699995994568,distr,13233.000040054321,Mon Jun 23 2025 17:45:33 GMT-0500 (Central Daylight Time),833334.4000000358,B,fr,O,r,258,1,20458.80000001192,812875.6000000238,7147,WL,B,10.0
6,47.03399991989136,distr,12966.000080108643,Mon Jun 23 2025 17:45:33 GMT-0500 (Central Daylight Time),833601.8000000119,B,fri,O,i,253,1,20726.19999998808,812875.6000000238,7147,WL,B,10.0
6,47.36699986457825,distr,12633.000135421753,Mon Jun 23 2025 17:45:33 GMT-0500 (Central Daylight Time),833934.8000000119,B,frie,O,e,322,1,21059.19999998808,812875.6000000238,7147,WL,B,10.0
6,47.61699986457825,distr,12383.000135421753,Mon Jun 23 2025 17:45:33 GMT-0500 (Central Daylight Time),834184.9000000358,B,frien,O,n,236,1,21309.30000001192,812875.6000000238,7147,WL,B,10.0
6,47.8989999294281,distr,12101.0000705719,Mon Jun 23 2025 17:45:33 GMT-0500 (Central Daylight Time),834466.5,B,friend,O,d,275,1,21590.899999976158,812875.6000000238,7147,WL,B,10.0
6,48.282999992370605,distr,11717.000007629395,Mon Jun 23 2025 17:45:33 GMT-0500 (Central Daylight Time),834850.8000000119,B,friendenter,O,enter,378,1,21975.19999998808,812875.6000000238,7147,WL,B,10.0
6,60.01199984550476,distr,-11.999845504760742,Mon Jun 23 2025 17:45:33 GMT-0500 (Central Daylight Time),846580.4000000358,B,None,O,None,11724,1,11729.300000011921,834851.1000000238,7147,WL,B,11.0
7,4.863999843597412,immed,55136.00015640259,Mon Jun 23 2025 17:45:33 GMT-0500 (Central Daylight Time),864274.0,A,s,O,s,4847,1,4864.0,859410.0,7147,WL,B,1.0
7,5.181999921798706,immed,54818.000078201294,Mon Jun 23 2025 17:45:33 GMT-0500 (Central Daylight Time),864592.1999999881,A,st,O,t,298,1,5182.199999988079,859410.0,7147,WL,B,1.0
7,5.430999994277954,immed,54569.000005722046,Mon Jun 23 2025 17:45:33 GMT-0500 (Central Daylight Time),864840.6999999881,A,str,O,r,236,1,5430.699999988079,859410.0,7147,WL,B,1.0
7,5.697000026702881,immed,54302.99997329712,Mon Jun 23 2025 17:45:33 GMT-0500 (Central Daylight Time),865107.1999999881,A,stre,O,e,250,1,5697.199999988079,859410.0,7147,WL,B,1.0
7,5.881999969482422,immed,54118.00003051758,Mon Jun 23 2025 17:45:33 GMT-0500 (Central Daylight Time),865291.8000000119,A,stree,O,e,169,1,5881.800000011921,859410.0,7147,WL,B,1.0
7,6.497999906539917,immed,53502.00009346008,Mon Jun 23 2025 17:45:33 GMT-0500 (Central Daylight Time),865907.6999999881,A,street,O,t,609,1,6497.699999988079,859410.0,7147,WL,B,1.0
7,7.7170000076293945,immed,52282.999992370605,Mon Jun 23 2025 17:45:33 GMT-0500 (Central Daylight Time),867126.8000000119,A,streetenter,O,enter,1199,1,7716.800000011921,859410.0,7147,WL,B,1.0
7,9.631999969482422,immed,50368.00003051758,Mon Jun 23 2025 17:45:33 GMT-0500 (Central Daylight Time),869041.9000000358,A,g,O,g,1909,1,1914.800000011921,867127.1000000238,7147,WL,B,2.0
7,9.861999988555908,immed,50138.00001144409,Mon Jun 23 2025 17:45:33 GMT-0500 (Central Daylight Time),869271.5,A,gr,O,r,208,1,2144.399999976158,867127.1000000238,7147,WL,B,2.0
7,10.212999820709229,immed,49787.00017929077,Mon Jun 23 2025 17:45:33 GMT-0500 (Central Daylight Time),869622.9000000358,A,gra,O,a,343,1,2495.800000011921,867127.1000000238,7147,WL,B,2.0
7,10.546000003814697,immed,49453.9999961853,Mon Jun 23 2025 17:45:33 GMT-0500 (Central Daylight Time),869956.3000000119,A,gras,O,s,317,1,2829.199999988079,867127.1000000238,7147,WL,B,2.0
7,10.745999813079834,immed,49254.000186920166,Mon Jun 23 2025 17:45:33 GMT-0500 (Central Daylight Time),870156.1000000238,A,grass,O,s,189,1,3029.0,867127.1000000238,7147,WL,B,2.0
7,11.128000020980835,immed,48871.999979019165,Mon Jun 23 2025 17:45:33 GMT-0500 (Central Daylight Time),870538.1999999881,A,grassenter,O,enter,377,1,3411.099999964237,867127.1000000238,7147,WL,B,2.0
7,12.211999893188477,immed,47788.00010681152,Mon Jun 23 2025 17:45:33 GMT-0500 (Central Daylight Time),871622.1000000238,A,d,O,d,1074,1,1083.699999988079,870538.4000000358,7147,WL,B,3.0
7,12.513999938964844,immed,47486.000061035156,Mon Jun 23 2025 17:45:33 GMT-0500 (Central Daylight Time),871924.0,A,do,O,o,296,1,1385.5999999642372,870538.4000000358,7147,WL,B,3.0
7,12.69700002670288,immed,47302.99997329712,Mon Jun 23 2025 17:45:33 GMT-0500 (Central Daylight Time),872106.4000000358,A,doo,O,o,175,1,1568.0,870538.4000000358,7147,WL,B,3.0
7,12.94599986076355,immed,47054.00013923645,Mon Jun 23 2025 17:45:33 GMT-0500 (Central Daylight Time),872355.8000000119,A,door,O,r,232,1,1817.3999999761581,870538.4000000358,7147,WL,B,3.0
7,13.628999948501587,immed,46371.00005149841,Mon Jun 23 2025 17:45:33 GMT-0500 (Central Daylight Time),873039.3000000119,A,doorenter,O,enter,671,1,2500.899999976158,870538.4000000358,7147,WL,B,3.0
7,19.20899987220764,immed,40791.00012779236,Mon Jun 23 2025 17:45:33 GMT-0500 (Central Daylight Time),878619.0,A,w,O,w,5565,1,5579.5,873039.5,7147,WL,B,4.0
7,19.460999965667725,immed,40539.000034332275,Mon Jun 23 2025 17:45:33 GMT-0500 (Central Daylight Time),878870.5,A,wi,O,i,232,1,5831.0,873039.5,7147,WL,B,4.0
7,19.893999814987183,immed,40106.00018501282,Mon Jun 23 2025 17:45:33 GMT-0500 (Central Daylight Time),879303.5,A,wif,O,f,421,1,6264.0,873039.5,7147,WL,B,4.0
7,20.176999807357788,immed,39823.00019264221,Mon Jun 23 2025 17:45:33 GMT-0500 (Central Daylight Time),879586.8000000119,A,wife,O,e,268,1,6547.300000011921,873039.5,7147,WL,B,4.0
7,20.45899987220764,immed,39541.00012779236,Mon Jun 23 2025 17:45:33 GMT-0500 (Central Daylight Time),879869.0,A,wifeenter,O,enter,265,1,6829.5,873039.5,7147,WL,B,4.0
7,20.776999950408936,immed,39223.000049591064,Mon Jun 23 2025 17:45:33 GMT-0500 (Central Daylight Time),880187.3000000119,A,w,O,w,313,1,318.0,879869.3000000119,7147,WL,B,5.0
7,21.008999824523926,immed,38991.000175476074,Mon Jun 23 2025 17:45:33 GMT-0500 (Central Daylight Time),880419.4000000358,A,wi,O,i,223,1,550.1000000238419,879869.3000000119,7147,WL,B,5.0
7,21.210000038146973,immed,38789.99996185303,Mon Jun 23 2025 17:45:33 GMT-0500 (Central Daylight Time),880619.9000000358,A,win,O,n,193,1,750.6000000238419,879869.3000000119,7147,WL,B,5.0
7,21.493000030517578,immed,38506.99996948242,Mon Jun 23 2025 17:45:33 GMT-0500 (Central Daylight Time),880902.4000000358,A,wind,O,d,262,1,1033.1000000238419,879869.3000000119,7147,WL,B,5.0
7,21.743000030517578,immed,38256.99996948242,Mon Jun 23 2025 17:45:33 GMT-0500 (Central Daylight Time),881153.0,A,windo,O,o,238,1,1283.699999988079,879869.3000000119,7147,WL,B,5.0
7,22.491999864578247,immed,37508.00013542175,Mon Jun 23 2025 17:45:33 GMT-0500 (Central Daylight Time),881902.3000000119,A,window,O,w,738,1,2033.0,879869.3000000119,7147,WL,B,5.0
7,23.276000022888184,immed,36723.99997711182,Mon Jun 23 2025 17:45:33 GMT-0500 (Central Daylight Time),882686.4000000358,A,windowenter,O,enter,767,1,2817.100000023842,879869.3000000119,7147,WL,B,5.0
7,24.628000020980835,immed,35371.999979019165,Mon Jun 23 2025 17:45:33 GMT-0500 (Central Daylight Time),884038.3000000119,A,a,O,a,1347,1,1351.699999988079,882686.6000000238,7147,WL,B,6.0
7,24.89299988746643,immed,35107.00011253357,Mon Jun 23 2025 17:45:33 GMT-0500 (Central Daylight Time),884302.8000000119,A,ar,O,r,247,1,1616.199999988079,882686.6000000238,7147,WL,B,6.0
7,25.575999975204468,immed,34424.00002479553,Mon Jun 23 2025 17:45:33 GMT-0500 (Central Daylight Time),884985.8000000119,A,arm,O,m,677,1,2299.199999988079,882686.6000000238,7147,WL,B,6.0
7,25.972999811172485,immed,34027.000188827515,Mon Jun 23 2025 17:45:33 GMT-0500 (Central Daylight Time),885382.9000000358,A,armenter,O,enter,384,1,2696.300000011921,882686.6000000238,7147,WL,B,6.0
7,26.776000022888184,immed,33223.99997711182,Mon Jun 23 2025 17:45:33 GMT-0500 (Central Daylight Time),886186.1999999881,A,s,O,s,800,1,803.0999999642372,885383.1000000238,7147,WL,B,7.0
7,27.19099998474121,immed,32809.00001525879,Mon Jun 23 2025 17:45:33 GMT-0500 (Central Daylight Time),886600.5,A,sk,O,k,392,1,1217.3999999761581,885383.1000000238,7147,WL,B,7.0
7,27.473999977111816,immed,32526.000022888184,Mon Jun 23 2025 17:45:33 GMT-0500 (Central Daylight Time),886883.6999999881,A,ski,O,i,276,1,1500.5999999642372,885383.1000000238,7147,WL,B,7.0
7,27.79199981689453,immed,32208.00018310547,Mon Jun 23 2025 17:45:33 GMT-0500 (Central Daylight Time),887201.6999999881,A,skin,O,n,310,1,1818.5999999642372,885383.1000000238,7147,WL,B,7.0
7,28.158999919891357,immed,31841.000080108643,Mon Jun 23 2025 17:45:33 GMT-0500 (Central Daylight Time),887568.9000000358,A,skinenter,O,enter,352,1,2185.800000011921,885383.1000000238,7147,WL,B,7.0
7,29.43999981880188,immed,30560.00018119812,Mon Jun 23 2025 17:45:33 GMT-0500 (Central Daylight Time),888849.9000000358,A,f,O,f,1267,1,1280.800000011921,887569.1000000238,7147,WL,B,8.0
7,29.621999979019165,immed,30378.000020980835,Mon Jun 23 2025 17:45:33 GMT-0500 (Central Daylight Time),889033.6999999881,A,fi,O,i,169,1,1464.5999999642372,887569.1000000238,7147,WL,B,8.0
7,29.83799982070923,immed,30162.00017929077,Mon Jun 23 2025 17:45:33 GMT-0500 (Central Daylight Time),889249.8000000119,A,fir,O,r,202,1,1680.699999988079,887569.1000000238,7147,WL,B,8.0
7,30.00600004196167,immed,29993.99995803833,Mon Jun 23 2025 17:45:33 GMT-0500 (Central Daylight Time),889417.8000000119,A,fire,O,e,162,1,1848.699999988079,887569.1000000238,7147,WL,B,8.0
7,30.33899998664856,immed,29661.00001335144,Mon Jun 23 2025 17:45:33 GMT-0500 (Central Daylight Time),889750.4000000358,A,fireenter,O,enter,321,1,2181.300000011921,887569.1000000238,7147,WL,B,8.0
7,31.304999828338623,immed,28695.000171661377,Mon Jun 23 2025 17:45:33 GMT-0500 (Central Daylight Time),890716.3000000119,A,p,O,p,951,1,965.6999999880791,889750.6000000238,7147,WL,B,9.0
7,31.621999979019165,immed,28378.000020980835,Mon Jun 23 2025 17:45:33 GMT-0500 (Central Daylight Time),891033.1000000238,A,pi,O,i,295,1,1282.5,889750.6000000238,7147,WL,B,9.0
7,31.907999992370605,immed,28092.000007629395,Mon Jun 23 2025 17:45:33 GMT-0500 (Central Daylight Time),891319.9000000358,A,pip,O,p,279,1,1569.300000011921,889750.6000000238,7147,WL,B,9.0
7,32.58699989318848,immed,27413.000106811523,Mon Jun 23 2025 17:45:33 GMT-0500 (Central Daylight Time),891998.4000000358,A,pipe,O,e,671,1,2247.800000011921,889750.6000000238,7147,WL,B,9.0
7,33.15299987792969,immed,26847.000122070312,Mon Jun 23 2025 17:45:33 GMT-0500 (Central Daylight Time),892565.0,A,pipeenter,O,enter,550,1,2814.399999976158,889750.6000000238,7147,WL,B,9.0
7,33.86999988555908,immed,26130.000114440918,Mon Jun 23 2025 17:45:33 GMT-0500 (Central Daylight Time),893281.6000000238,A,c,O,c,703,1,716.3000000119209,892565.3000000119,7147,WL,B,10.0
7,34.13800001144409,immed,25861.99998855591,Mon Jun 23 2025 17:45:33 GMT-0500 (Central Daylight Time),893549.5,A,ca,O,a,251,1,984.1999999880791,892565.3000000119,7147,WL,B,10.0
7,34.519999980926514,immed,25480.000019073486,Mon Jun 23 2025 17:45:33 GMT-0500 (Central Daylight Time),893931.6999999881,A,cab,O,b,375,1,1366.3999999761581,892565.3000000119,7147,WL,B,10.0
7,34.769999980926514,immed,25230.000019073486,Mon Jun 23 2025 17:45:33 GMT-0500 (Central Daylight Time),894182.0,A,cabi,O,i,241,1,1616.699999988079,892565.3000000119,7147,WL,B,10.0
7,34.97000002861023,immed,25029.99997138977,Mon Jun 23 2025 17:45:33 GMT-0500 (Central Daylight Time),894381.8000000119,A,cabin,O,n,178,1,1816.5,892565.3000000119,7147,WL,B,10.0
7,35.269999980926514,immed,24730.000019073486,Mon Jun 23 2025 17:45:33 GMT-0500 (Central Daylight Time),894681.1999999881,A,cabinenter,O,enter,285,1,2115.899999976158,892565.3000000119,7147,WL,B,10.0
7,35.66799998283386,immed,24332.000017166138,Mon Jun 23 2025 17:45:33 GMT-0500 (Central Daylight Time),895079.6000000238,A,l,O,l,386,1,398.19999998807907,894681.4000000358,7147,WL,B,11.0
7,35.9210000038147,immed,24078.999996185303,Mon Jun 23 2025 17:45:33 GMT-0500 (Central Daylight Time),895332.1999999881,A,la,O,a,238,1,650.7999999523163,894681.4000000358,7147,WL,B,11.0
7,36.353999853134155,immed,23646.000146865845,Mon Jun 23 2025 17:45:33 GMT-0500 (Central Daylight Time),895766.0,A,lak,O,k,414,1,1084.5999999642372,894681.4000000358,7147,WL,B,11.0
7,36.65499997138977,immed,23345.00002861023,Mon Jun 23 2025 17:45:33 GMT-0500 (Central Daylight Time),896066.1000000238,A,lake,O,e,280,1,1384.699999988079,894681.4000000358,7147,WL,B,11.0
7,37.168999910354614,immed,22831.000089645386,Mon Jun 23 2025 17:45:33 GMT-0500 (Central Daylight Time),896580.4000000358,A,lakeenter,O,enter,493,1,1899.0,894681.4000000358,7147,WL,B,11.0
7,39.15299987792969,immed,20847.000122070312,Mon Jun 23 2025 17:45:33 GMT-0500 (Central Daylight Time),898564.6000000238,A,c,O,c,1969,1,1984.0,896580.6000000238,7147,WL,B,12.0
7,39.38800001144409,immed,20611.99998855591,Mon Jun 23 2025 17:45:33 GMT-0500 (Central Daylight Time),898799.4000000358,A,cl,O,l,215,1,2218.800000011921,896580.6000000238,7147,WL,B,12.0
7,39.63599991798401,immed,20364.00008201599,Mon Jun 23 2025 17:45:33 GMT-0500 (Central Daylight Time),899048.0,A,clo,O,o,223,1,2467.399999976158,896580.6000000238,7147,WL,B,12.0
7,39.819000005722046,immed,20180.999994277954,Mon Jun 23 2025 17:45:33 GMT-0500 (Central Daylight Time),899230.6000000238,A,cloc,O,c,159,1,2650.0,896580.6000000238,7147,WL,B,12.0
7,40.001999855041504,immed,19998.000144958496,Mon Jun 23 2025 17:45:33 GMT-0500 (Central Daylight Time),899413.6000000238,A,clock,O,k,163,1,2833.0,896580.6000000238,7147,WL,B,12.0
7,40.38499999046326,immed,19615.000009536743,Mon Jun 23 2025 17:45:33 GMT-0500 (Central Daylight Time),899796.6999999881,A,clockenter,O,enter,378,1,3216.099999964237,896580.6000000238,7147,WL,B,12.0
7,46.26699995994568,immed,13733.000040054321,Mon Jun 23 2025 17:45:33 GMT-0500 (Central Daylight Time),905679.0,A,p,O,p,5864,1,5882.0,899797.0,7147,WL,B,13.0
7,47.14999985694885,immed,12850.000143051147,Mon Jun 23 2025 17:45:33 GMT-0500 (Central Daylight Time),906561.5,A,pu,O,u,861,1,6764.5,899797.0,7147,WL,B,13.0
7,47.51799988746643,immed,12482.00011253357,Mon Jun 23 2025 17:45:33 GMT-0500 (Central Daylight Time),906929.5,A,pup,O,p,360,1,7132.5,899797.0,7147,WL,B,13.0
7,47.75099992752075,immed,12249.000072479248,Mon Jun 23 2025 17:45:33 GMT-0500 (Central Daylight Time),907162.8000000119,A,pupi,O,i,219,1,7365.800000011921,899797.0,7147,WL,B,13.0
7,48.01699995994568,immed,11983.000040054321,Mon Jun 23 2025 17:45:33 GMT-0500 (Central Daylight Time),907428.9000000358,A,pupil,O,l,254,1,7631.900000035763,899797.0,7147,WL,B,13.0
7,48.348999977111816,immed,11651.000022888184,Mon Jun 23 2025 17:45:33 GMT-0500 (Central Daylight Time),907760.1000000238,A,pupilenter,O,enter,314,1,7963.100000023842,899797.0,7147,WL,B,13.0
7,60.01300001144409,immed,-13.000011444091797,Mon Jun 23 2025 17:45:33 GMT-0500 (Central Daylight Time),919424.6000000238,A,None,O,None,11659,1,11664.100000023842,907760.5,7147,WL,B,14.0
