Number,acc_sum,block,block_c,block_cond,con_img,correct,correct_response,datetime,endtime,jitter,project,response,response_time,row_sel,session_number,start_end,starttime,subject_id,task,task_vers,trial
4,1,prac,1,A,circle.png,1,z,Mon Nov 03 2025 17:09:40 GMT-0600 (Central Standard Time),69826.0,1400,I,z,678,4,1,2860.5999999996275,66965.40000000037,9999,NTS,C,1
6,2,prac,1,A,circle.png,1,m,Mon Nov 03 2025 17:09:40 GMT-0600 (Central Standard Time),73124.90000000037,1900,I,m,612,5,1,3291.4000000003725,69833.5,9999,NTS,C,2
8,3,prac,1,A,circle.png,1,m,Mon Nov 03 2025 17:09:40 GMT-0600 (Central Standard Time),76140.5,1600,I,m,620,7,1,3010.0,73130.5,9999,NTS,C,3
7,4,prac,1,A,circle.png,1,m,Mon Nov 03 2025 17:09:40 GMT-0600 (Central Standard Time),79406.59999999963,1700,I,m,777,6,1,3260.199999999255,76146.40000000037,9999,NTS,C,4
2,5,prac,1,A,circle.png,1,z,Mon Nov 03 2025 17:09:40 GMT-0600 (Central Standard Time),82622.0,2000,I,z,417,2,1,3210.4000000003725,79411.59999999963,9999,NTS,C,5
6,6,prac,1,A,circle.png,1,m,Mon Nov 03 2025 17:09:40 GMT-0600 (Central Standard Time),86037.59999999963,1900,I,m,719,5,1,3409.7999999988824,82627.80000000075,9999,NTS,C,6
1,7,prac,1,A,circle.png,1,z,Mon Nov 03 2025 17:09:40 GMT-0600 (Central Standard Time),88437.0,1000,I,z,604,1,1,2394.5,86042.5,9999,NTS,C,7
8,8,prac,1,A,circle.png,1,m,Mon Nov 03 2025 17:09:40 GMT-0600 (Central Standard Time),91335.59999999963,1600,I,m,499,7,1,2893.5999999996275,88442.0,9999,NTS,C,8
9,9,prac,1,A,circle.png,1,m,Mon Nov 03 2025 17:09:40 GMT-0600 (Central Standard Time),94135.09999999963,1500,I,m,509,8,1,2793.7999999988824,91341.30000000075,9999,NTS,C,9
3,10,prac,1,A,circle.png,1,z,Mon Nov 03 2025 17:09:40 GMT-0600 (Central Standard Time),96652.09999999963,1200,I,z,529,3,1,2511.5999999996275,94140.5,9999,NTS,C,10
3,11,prac,1,A,circle.png,1,z,Mon Nov 03 2025 17:09:40 GMT-0600 (Central Standard Time),99231.80000000075,1200,I,z,486,3,1,2574.5999999996275,96657.20000000112,9999,NTS,C,11
4,12,prac,1,A,circle.png,1,z,Mon Nov 03 2025 17:09:40 GMT-0600 (Central Standard Time),101949.30000000075,1400,I,z,527,4,1,2712.5,99236.80000000075,9999,NTS,C,12
9,1,prac,1,B,triangle.png,1,z,Mon Nov 03 2025 17:09:40 GMT-0600 (Central Standard Time),154966.0,1400,I,z,776,8,1,2961.5,152004.5,9999,NTS,C,1
1,2,prac,1,B,triangle.png,1,z,Mon Nov 03 2025 17:09:40 GMT-0600 (Central Standard Time),158448.0,1900,I,z,792,1,1,3474.699999999255,154973.30000000075,9999,NTS,C,2
2,3,prac,1,B,triangle.png,1,m,Mon Nov 03 2025 17:09:40 GMT-0600 (Central Standard Time),161547.30000000075,1700,I,m,606,2,1,3093.0999999996275,158454.20000000112,9999,NTS,C,3
2,4,prac,1,B,triangle.png,1,m,Mon Nov 03 2025 17:09:40 GMT-0600 (Central Standard Time),164630.90000000037,1700,I,m,602,2,1,3078.5,161552.40000000037,9999,NTS,C,4
4,5,prac,1,B,triangle.png,1,m,Mon Nov 03 2025 17:09:40 GMT-0600 (Central Standard Time),167628.80000000075,1500,I,m,704,4,1,2992.2000000011176,164636.59999999963,9999,NTS,C,5
6,6,prac,1,B,triangle.png,1,m,Mon Nov 03 2025 17:09:40 GMT-0600 (Central Standard Time),170644.0,1000,I,m,1247,5,1,3009.5,167634.5,9999,NTS,C,6
8,7,prac,1,B,triangle.png,1,m,Mon Nov 03 2025 17:09:40 GMT-0600 (Central Standard Time),173376.90000000037,1200,I,m,741,7,1,2726.5999999996275,170650.30000000075,9999,NTS,C,7
7,8,prac,1,B,triangle.png,1,z,Mon Nov 03 2025 17:09:40 GMT-0600 (Central Standard Time),176825.90000000037,2000,I,z,655,6,1,3444.0999999996275,173381.80000000075,9999,NTS,C,8
1,9,prac,1,B,triangle.png,1,z,Mon Nov 03 2025 17:09:40 GMT-0600 (Central Standard Time),180058.20000000112,1900,I,z,539,1,1,3227.300000000745,176830.90000000037,9999,NTS,C,9
9,10,prac,1,B,triangle.png,1,z,Mon Nov 03 2025 17:09:40 GMT-0600 (Central Standard Time),183140.59999999963,1400,I,z,895,8,1,3077.0999999996275,180063.5,9999,NTS,C,10
8,10,prac,1,B,triangle.png,0,m,Mon Nov 03 2025 17:09:40 GMT-0600 (Central Standard Time),185673.09999999963,1200,I,z,548,7,1,2527.5999999996275,183145.5,9999,NTS,C,11
3,11,prac,1,B,triangle.png,1,z,Mon Nov 03 2025 17:09:40 GMT-0600 (Central Standard Time),188838.70000000112,1600,I,z,776,3,1,3160.60000000149,185678.09999999963,9999,NTS,C,12
7,1,prac,2,B,triangle.png,1,z,Mon Nov 03 2025 17:09:40 GMT-0600 (Central Standard Time),194720.30000000075,2000,I,z,832,6,1,3610.9000000003725,191109.40000000037,9999,NTS,C,1
8,2,prac,2,B,triangle.png,1,m,Mon Nov 03 2025 17:09:40 GMT-0600 (Central Standard Time),197352.5,1200,I,m,649,7,1,2625.5,194727.0,9999,NTS,C,2
3,3,prac,2,B,triangle.png,1,z,Mon Nov 03 2025 17:09:40 GMT-0600 (Central Standard Time),200285.0,1600,I,z,536,3,1,2927.0,197358.0,9999,NTS,C,3
9,4,prac,2,B,triangle.png,1,z,Mon Nov 03 2025 17:09:40 GMT-0600 (Central Standard Time),203267.90000000037,1400,I,z,796,8,1,2978.0,200289.90000000037,9999,NTS,C,4
6,5,prac,2,B,triangle.png,1,m,Mon Nov 03 2025 17:09:40 GMT-0600 (Central Standard Time),205666.70000000112,1000,I,m,605,5,1,2394.2000000011176,203272.5,9999,NTS,C,5
4,6,prac,2,B,triangle.png,1,m,Mon Nov 03 2025 17:09:40 GMT-0600 (Central Standard Time),208549.20000000112,1500,I,m,587,4,1,2877.5,205671.70000000112,9999,NTS,C,6
1,7,prac,2,B,triangle.png,1,z,Mon Nov 03 2025 17:09:40 GMT-0600 (Central Standard Time),211698.30000000075,1900,I,z,457,1,1,3144.4000000003725,208553.90000000037,9999,NTS,C,7
9,7,prac,2,B,triangle.png,0,z,Mon Nov 03 2025 17:09:40 GMT-0600 (Central Standard Time),214647.30000000075,1400,I,m,750,8,1,2944.5,211702.80000000075,9999,NTS,C,8
3,8,prac,2,B,triangle.png,1,z,Mon Nov 03 2025 17:09:40 GMT-0600 (Central Standard Time),217763.09999999963,1600,I,z,745,3,1,3110.5,214652.59999999963,9999,NTS,C,9
2,9,prac,2,B,triangle.png,1,m,Mon Nov 03 2025 17:09:40 GMT-0600 (Central Standard Time),221245.40000000037,1700,I,m,986,2,1,3476.199999999255,217769.20000000112,9999,NTS,C,10
6,10,prac,2,B,triangle.png,1,m,Mon Nov 03 2025 17:09:40 GMT-0600 (Central Standard Time),223762.20000000112,1000,I,m,724,5,1,2512.4000000003725,221249.80000000075,9999,NTS,C,11
1,11,prac,2,B,triangle.png,1,z,Mon Nov 03 2025 17:09:40 GMT-0600 (Central Standard Time),226993.30000000075,1900,I,z,549,1,1,3226.5,223766.80000000075,9999,NTS,C,12
2,1,test,1,A,circle.png,1,z,Mon Nov 03 2025 17:09:40 GMT-0600 (Central Standard Time),239723.80000000075,2000,I,z,798,2,1,2812.5,236911.30000000075,9999,NTS,C,1
1,2,test,1,A,circle.png,1,z,Mon Nov 03 2025 17:09:40 GMT-0600 (Central Standard Time),241322.59999999963,1000,I,z,574,1,1,1594.2999999988824,239728.30000000075,9999,NTS,C,2
2,3,test,1,A,circle.png,1,z,Mon Nov 03 2025 17:09:40 GMT-0600 (Central Standard Time),243871.20000000112,2000,I,z,526,2,1,2545.2000000011176,241326.0,9999,NTS,C,3
4,4,test,1,A,circle.png,1,z,Mon Nov 03 2025 17:09:40 GMT-0600 (Central Standard Time),246287.5,1400,I,z,994,4,1,2412.5999999996275,243874.90000000037,9999,NTS,C,4
6,5,test,1,A,circle.png,1,m,Mon Nov 03 2025 17:09:40 GMT-0600 (Central Standard Time),249119.80000000075,1900,I,m,901,5,1,2828.7000000011176,246291.09999999963,9999,NTS,C,5
3,6,test,1,A,circle.png,1,z,Mon Nov 03 2025 17:09:40 GMT-0600 (Central Standard Time),251135.70000000112,1200,I,z,784,3,1,2012.1000000014901,249123.59999999963,9999,NTS,C,6
3,7,test,1,A,circle.png,1,z,Mon Nov 03 2025 17:09:40 GMT-0600 (Central Standard Time),252885.30000000075,1200,I,z,529,3,1,1745.4000000003725,251139.90000000037,9999,NTS,C,7
9,8,test,1,A,circle.png,1,m,Mon Nov 03 2025 17:09:40 GMT-0600 (Central Standard Time),254901.40000000037,1500,I,m,496,8,1,2012.199999999255,252889.20000000112,9999,NTS,C,8
6,9,test,1,A,circle.png,1,m,Mon Nov 03 2025 17:09:40 GMT-0600 (Central Standard Time),257600.5,1900,I,m,767,5,1,2695.699999999255,254904.80000000075,9999,NTS,C,9
1,10,test,1,A,circle.png,1,z,Mon Nov 03 2025 17:09:40 GMT-0600 (Central Standard Time),259233.40000000037,1000,I,z,609,1,1,1629.199999999255,257604.20000000112,9999,NTS,C,10
7,11,test,1,A,circle.png,1,m,Mon Nov 03 2025 17:09:40 GMT-0600 (Central Standard Time),261498.90000000037,1700,I,m,548,6,1,2261.800000000745,259237.09999999963,9999,NTS,C,11
9,12,test,1,A,circle.png,1,m,Mon Nov 03 2025 17:09:40 GMT-0600 (Central Standard Time),263548.5999999996,1500,I,m,521,8,1,2045.699999999255,261502.90000000037,9999,NTS,C,12
4,13,test,1,A,circle.png,1,z,Mon Nov 03 2025 17:09:40 GMT-0600 (Central Standard Time),265531.4000000004,1400,I,z,556,4,1,1978.9000000003725,263552.5,9999,NTS,C,13
8,14,test,1,A,circle.png,1,m,Mon Nov 03 2025 17:09:40 GMT-0600 (Central Standard Time),267713.9000000004,1600,I,m,565,7,1,2178.9000000003725,265535.0,9999,NTS,C,14
4,14,test,1,A,circle.png,0,z,Mon Nov 03 2025 17:09:40 GMT-0600 (Central Standard Time),270413.2000000011,1400,I,m,1271,4,1,2695.800000000745,267717.4000000004,9999,NTS,C,15
8,15,test,1,A,circle.png,1,m,Mon Nov 03 2025 17:09:40 GMT-0600 (Central Standard Time),273379.0,1600,I,m,1339,7,1,2962.199999999255,270416.80000000075,9999,NTS,C,16
3,16,test,1,A,circle.png,1,z,Mon Nov 03 2025 17:09:40 GMT-0600 (Central Standard Time),275644.80000000075,1200,I,z,1046,3,1,2262.0,273382.80000000075,9999,NTS,C,17
4,17,test,1,A,circle.png,1,z,Mon Nov 03 2025 17:09:40 GMT-0600 (Central Standard Time),278261.0,1400,I,z,1195,4,1,2612.199999999255,275648.80000000075,9999,NTS,C,18
2,18,test,1,A,circle.png,1,z,Mon Nov 03 2025 17:09:40 GMT-0600 (Central Standard Time),281309.9000000004,2000,I,z,1021,2,1,3044.699999999255,278265.2000000011,9999,NTS,C,19
2,19,test,1,A,circle.png,1,z,Mon Nov 03 2025 17:09:40 GMT-0600 (Central Standard Time),284025.5,2000,I,z,699,2,1,2711.9000000003725,281313.5999999996,9999,NTS,C,20
1,20,test,1,A,circle.png,1,z,Mon Nov 03 2025 17:09:40 GMT-0600 (Central Standard Time),285625.0,1000,I,z,566,1,1,1595.4000000003725,284029.5999999996,9999,NTS,C,21
3,21,test,1,A,circle.png,1,z,Mon Nov 03 2025 17:09:40 GMT-0600 (Central Standard Time),287407.80000000075,1200,I,z,560,3,1,1779.2000000011176,285628.5999999996,9999,NTS,C,22
7,22,test,1,A,circle.png,1,m,Mon Nov 03 2025 17:09:40 GMT-0600 (Central Standard Time),289757.0999999996,1700,I,m,622,6,1,2345.0999999996275,287412.0,9999,NTS,C,23
6,23,test,1,A,circle.png,1,m,Mon Nov 03 2025 17:09:40 GMT-0600 (Central Standard Time),292356.30000000075,1900,I,m,672,5,1,2595.2000000011176,289761.0999999996,9999,NTS,C,24
6,1,test,1,B,triangle.png,1,m,Mon Nov 03 2025 17:09:40 GMT-0600 (Central Standard Time),303419.5,1500,I,m,1140,13,1,2662.7999999988824,300756.7000000011,9999,NTS,C,1
8,2,test,1,B,triangle.png,1,m,Mon Nov 03 2025 17:09:40 GMT-0600 (Central Standard Time),305718.9000000004,1700,I,m,577,15,1,2295.5,303423.4000000004,9999,NTS,C,2
3,3,test,1,B,triangle.png,1,z,Mon Nov 03 2025 17:09:40 GMT-0600 (Central Standard Time),308418.0,2000,I,z,675,11,1,2695.4000000003725,305722.5999999996,9999,NTS,C,3
6,4,test,1,B,triangle.png,1,m,Mon Nov 03 2025 17:09:40 GMT-0600 (Central Standard Time),310117.4000000004,1000,I,m,671,5,1,1695.9000000003725,308421.5,9999,NTS,C,4
1,5,test,1,B,triangle.png,1,z,Mon Nov 03 2025 17:09:40 GMT-0600 (Central Standard Time),312583.30000000075,1900,I,z,536,1,1,2462.4000000003725,310120.9000000004,9999,NTS,C,5
8,6,test,1,B,triangle.png,1,m,Mon Nov 03 2025 17:09:40 GMT-0600 (Central Standard Time),314615.9000000004,1200,I,m,802,7,1,2028.5999999996275,312587.30000000075,9999,NTS,C,6
4,7,test,1,B,triangle.png,1,m,Mon Nov 03 2025 17:09:40 GMT-0600 (Central Standard Time),317215.30000000075,1500,I,m,1068,4,1,2595.0,314620.30000000075,9999,NTS,C,7
6,8,test,1,B,triangle.png,1,m,Mon Nov 03 2025 17:09:40 GMT-0600 (Central Standard Time),319297.9000000004,1500,I,m,550,13,1,2079.0,317218.9000000004,9999,NTS,C,8
7,9,test,1,B,triangle.png,1,z,Mon Nov 03 2025 17:09:40 GMT-0600 (Central Standard Time),321897.2000000011,1600,I,z,976,14,1,2595.7000000011176,319301.5,9999,NTS,C,9
2,10,test,1,B,triangle.png,1,m,Mon Nov 03 2025 17:09:40 GMT-0600 (Central Standard Time),324613.0,1700,I,m,997,2,1,2712.2999999988824,321900.7000000011,9999,NTS,C,10
7,11,test,1,B,triangle.png,1,z,Mon Nov 03 2025 17:09:40 GMT-0600 (Central Standard Time),327562.0,2000,I,z,925,6,1,2945.4000000003725,324616.5999999996,9999,NTS,C,11
3,12,test,1,B,triangle.png,1,z,Mon Nov 03 2025 17:09:40 GMT-0600 (Central Standard Time),330044.5,1600,I,z,863,3,1,2478.5999999996275,327565.9000000004,9999,NTS,C,12
7,13,test,1,B,triangle.png,1,z,Mon Nov 03 2025 17:09:40 GMT-0600 (Central Standard Time),332860.30000000075,2000,I,z,797,6,1,2812.2000000011176,330048.0999999996,9999,NTS,C,13
1,14,test,1,B,triangle.png,1,z,Mon Nov 03 2025 17:09:40 GMT-0600 (Central Standard Time),334986.0999999996,1400,I,z,692,9,1,2122.199999999255,332863.9000000004,9999,NTS,C,14
3,15,test,1,B,triangle.png,1,z,Mon Nov 03 2025 17:09:40 GMT-0600 (Central Standard Time),337225.30000000075,1600,I,z,600,3,1,2232.5,334992.80000000075,9999,NTS,C,15
9,16,test,1,B,triangle.png,1,z,Mon Nov 03 2025 17:09:40 GMT-0600 (Central Standard Time),339658.0,1400,I,z,1016,8,1,2428.9000000003725,337229.0999999996,9999,NTS,C,16
2,17,test,1,B,triangle.png,1,m,Mon Nov 03 2025 17:09:40 GMT-0600 (Central Standard Time),342207.30000000075,1700,I,m,826,2,1,2544.5,339662.80000000075,9999,NTS,C,17
3,18,test,1,B,triangle.png,1,z,Mon Nov 03 2025 17:09:40 GMT-0600 (Central Standard Time),344706.4000000004,2000,I,z,482,11,1,2495.5999999996275,342210.80000000075,9999,NTS,C,18
4,19,test,1,B,triangle.png,1,m,Mon Nov 03 2025 17:09:40 GMT-0600 (Central Standard Time),346839.4000000004,1500,I,m,603,4,1,2129.300000000745,344710.0999999996,9999,NTS,C,19
8,20,test,1,B,triangle.png,1,m,Mon Nov 03 2025 17:09:40 GMT-0600 (Central Standard Time),349188.5999999996,1700,I,m,630,15,1,2345.699999999255,346842.9000000004,9999,NTS,C,20
9,21,test,1,B,triangle.png,1,z,Mon Nov 03 2025 17:09:40 GMT-0600 (Central Standard Time),351754.30000000075,1900,I,z,649,16,1,2562.2000000011176,349192.0999999996,9999,NTS,C,21
2,22,test,1,B,triangle.png,1,m,Mon Nov 03 2025 17:09:40 GMT-0600 (Central Standard Time),353936.9000000004,1200,I,m,959,10,1,2179.199999999255,351757.7000000011,9999,NTS,C,22
4,23,test,1,B,triangle.png,1,m,Mon Nov 03 2025 17:09:40 GMT-0600 (Central Standard Time),355602.9000000004,1000,I,m,648,12,1,1662.300000000745,353940.5999999996,9999,NTS,C,23
8,24,test,1,B,triangle.png,1,m,Mon Nov 03 2025 17:09:40 GMT-0600 (Central Standard Time),357385.80000000075,1200,I,m,565,7,1,1779.300000000745,355606.5,9999,NTS,C,24
1,1,prac,1,C,circle.png,1,z,Mon Nov 03 2025 17:09:40 GMT-0600 (Central Standard Time),426864.30000000075,1700,I,z,1457,1,1,3944.300000000745,422920.0,9999,NTS,C,1
3,2,prac,1,C,triangle.png,1,z,Mon Nov 03 2025 17:09:40 GMT-0600 (Central Standard Time),430129.80000000075,1500,I,z,972,3,1,3259.2000000011176,426870.5999999996,9999,NTS,C,2
7,2,prac,1,C,triangle.png,0,z,Mon Nov 03 2025 17:09:40 GMT-0600 (Central Standard Time),433628.80000000075,1200,I,None,1516,6,1,3494.4000000003725,430134.4000000004,9999,NTS,C,3
6,3,prac,1,C,circle.png,1,m,Mon Nov 03 2025 17:09:40 GMT-0600 (Central Standard Time),437294.5,2000,I,m,877,5,1,3660.5999999996275,433633.9000000004,9999,NTS,C,4
8,4,prac,1,C,triangle.png,1,m,Mon Nov 03 2025 17:09:40 GMT-0600 (Central Standard Time),440377.0,1400,I,m,891,7,1,3077.9000000003725,437299.0999999996,9999,NTS,C,5
4,5,prac,1,C,circle.png,1,z,Mon Nov 03 2025 17:09:40 GMT-0600 (Central Standard Time),442875.7000000011,1000,I,z,705,4,1,2493.9000000003725,440381.80000000075,9999,NTS,C,6
1,6,prac,1,C,circle.png,1,z,Mon Nov 03 2025 17:09:40 GMT-0600 (Central Standard Time),445991.9000000004,1700,I,z,617,1,1,3111.0,442880.9000000004,9999,NTS,C,7
3,7,prac,1,C,triangle.png,1,z,Mon Nov 03 2025 17:09:40 GMT-0600 (Central Standard Time),449424.0,1500,I,z,1133,3,1,3427.0999999996275,445996.9000000004,9999,NTS,C,8
9,7,prac,1,C,circle.png,0,m,Mon Nov 03 2025 17:09:40 GMT-0600 (Central Standard Time),453556.0,1900,I,z,1442,8,1,4127.0999999996275,449428.9000000004,9999,NTS,C,9
2,7,prac,1,C,triangle.png,0,m,Mon Nov 03 2025 17:09:40 GMT-0600 (Central Standard Time),457104.80000000075,1600,I,z,1165,2,1,3544.0,453560.80000000075,9999,NTS,C,10
4,7,prac,1,C,circle.png,0,z,Mon Nov 03 2025 17:09:40 GMT-0600 (Central Standard Time),460403.80000000075,1000,I,None,1516,4,1,3293.9000000003725,457109.9000000004,9999,NTS,C,11
7,8,prac,1,C,triangle.png,1,z,Mon Nov 03 2025 17:09:40 GMT-0600 (Central Standard Time),463402.9000000004,1200,I,z,1014,6,1,2994.199999999255,460408.7000000011,9999,NTS,C,12
1,1,prac,2,C,circle.png,1,z,Mon Nov 03 2025 17:09:40 GMT-0600 (Central Standard Time),470800.5999999996,1700,I,z,992,1,1,3478.0999999996275,467322.5,9999,NTS,C,1
6,2,prac,2,C,circle.png,1,m,Mon Nov 03 2025 17:09:40 GMT-0600 (Central Standard Time),474616.0,2000,I,m,1025,5,1,3810.199999999255,470805.80000000075,9999,NTS,C,2
4,3,prac,2,C,circle.png,1,z,Mon Nov 03 2025 17:09:40 GMT-0600 (Central Standard Time),477098.4000000004,1000,I,z,708,4,1,2475.4000000003725,474623.0,9999,NTS,C,3
9,4,prac,2,C,circle.png,1,m,Mon Nov 03 2025 17:09:40 GMT-0600 (Central Standard Time),480531.0,1900,I,m,747,8,1,3427.699999999255,477103.30000000075,9999,NTS,C,4
7,5,prac,2,C,triangle.png,1,z,Mon Nov 03 2025 17:09:40 GMT-0600 (Central Standard Time),483496.7000000011,1200,I,z,967,6,1,2960.9000000003725,480535.80000000075,9999,NTS,C,5
6,6,prac,2,C,circle.png,1,m,Mon Nov 03 2025 17:09:40 GMT-0600 (Central Standard Time),487012.2000000011,2000,I,m,721,5,1,3510.7000000011176,483501.5,9999,NTS,C,6
1,7,prac,2,C,circle.png,1,z,Mon Nov 03 2025 17:09:40 GMT-0600 (Central Standard Time),490060.9000000004,1700,I,z,561,1,1,3041.300000000745,487019.5999999996,9999,NTS,C,7
8,8,prac,2,C,triangle.png,1,m,Mon Nov 03 2025 17:09:40 GMT-0600 (Central Standard Time),493043.5,1400,I,m,788,7,1,2977.199999999255,490066.30000000075,9999,NTS,C,8
8,9,prac,2,C,triangle.png,1,m,Mon Nov 03 2025 17:09:40 GMT-0600 (Central Standard Time),495926.0999999996,1400,I,m,694,7,1,2877.5999999996275,493048.5,9999,NTS,C,9
2,10,prac,2,C,triangle.png,1,m,Mon Nov 03 2025 17:09:40 GMT-0600 (Central Standard Time),499424.9000000004,1600,I,m,1115,2,1,3494.0999999996275,495930.80000000075,9999,NTS,C,10
7,11,prac,2,C,triangle.png,1,z,Mon Nov 03 2025 17:09:40 GMT-0600 (Central Standard Time),502207.4000000004,1200,I,z,784,6,1,2777.5999999996275,499429.80000000075,9999,NTS,C,11
3,12,prac,2,C,triangle.png,1,z,Mon Nov 03 2025 17:09:40 GMT-0600 (Central Standard Time),505156.4000000004,1500,I,z,654,3,1,2944.0,502212.4000000004,9999,NTS,C,12
4,0,test,1,C,triangle.png,0,m,Mon Nov 03 2025 17:09:40 GMT-0600 (Central Standard Time),544194.2000000011,1500,I,None,1516,12,1,3029.0,541165.2000000011,9999,NTS,C,1
6,1,test,1,C,triangle.png,1,m,Mon Nov 03 2025 17:09:40 GMT-0600 (Central Standard Time),546543.5999999996,1000,I,m,1327,13,1,2345.0,544198.5999999996,9999,NTS,C,2
2,1,test,1,C,triangle.png,0,m,Mon Nov 03 2025 17:09:40 GMT-0600 (Central Standard Time),550075.7000000011,2000,I,None,1516,2,1,3528.4000000003725,546547.3000000007,9999,NTS,C,3
4,2,test,1,C,circle.png,1,z,Mon Nov 03 2025 17:09:40 GMT-0600 (Central Standard Time),552208.2000000011,1400,I,z,702,4,1,2127.7000000011176,550080.5,9999,NTS,C,4
8,3,test,1,C,circle.png,1,m,Mon Nov 03 2025 17:09:40 GMT-0600 (Central Standard Time),554274.2000000011,1200,I,m,848,15,1,2062.0,552212.2000000011,9999,NTS,C,5
4,4,test,1,C,triangle.png,1,m,Mon Nov 03 2025 17:09:40 GMT-0600 (Central Standard Time),556540.3000000007,1500,I,m,746,20,1,2262.5999999996275,554277.7000000011,9999,NTS,C,6
9,5,test,1,C,triangle.png,1,z,Mon Nov 03 2025 17:09:40 GMT-0600 (Central Standard Time),558689.7000000011,1400,I,z,725,16,1,2146.0,556543.7000000011,9999,NTS,C,7
7,6,test,1,C,triangle.png,1,z,Mon Nov 03 2025 17:09:40 GMT-0600 (Central Standard Time),561105.7000000011,1700,I,z,692,22,1,2411.9000000003725,558693.8000000007,9999,NTS,C,8
7,7,test,1,C,circle.png,1,m,Mon Nov 03 2025 17:09:40 GMT-0600 (Central Standard Time),563871.5,2000,I,m,736,14,1,2762.2999999988824,561109.2000000011,9999,NTS,C,9
2,8,test,1,C,circle.png,1,z,Mon Nov 03 2025 17:09:40 GMT-0600 (Central Standard Time),566253.9000000004,1700,I,z,662,18,1,2378.699999999255,563875.2000000011,9999,NTS,C,10
8,9,test,1,C,triangle.png,1,m,Mon Nov 03 2025 17:09:40 GMT-0600 (Central Standard Time),569169.5,1600,I,m,1292,23,1,2911.5,566258.0,9999,NTS,C,11
1,10,test,1,C,triangle.png,1,z,Mon Nov 03 2025 17:09:40 GMT-0600 (Central Standard Time),571702.3000000007,1900,I,z,612,17,1,2529.0,569173.3000000007,9999,NTS,C,12
2,11,test,1,C,circle.png,1,z,Mon Nov 03 2025 17:09:40 GMT-0600 (Central Standard Time),574334.9000000004,1700,I,z,911,10,1,2628.5999999996275,571706.3000000007,9999,NTS,C,13
3,12,test,1,C,triangle.png,1,z,Mon Nov 03 2025 17:09:40 GMT-0600 (Central Standard Time),576284.3000000007,1200,I,z,723,3,1,1945.7000000011176,574338.5999999996,9999,NTS,C,14
1,13,test,1,C,circle.png,1,z,Mon Nov 03 2025 17:09:40 GMT-0600 (Central Standard Time),578066.9000000004,1000,I,z,757,1,1,1778.5999999996275,576288.3000000007,9999,NTS,C,15
7,14,test,1,C,triangle.png,1,z,Mon Nov 03 2025 17:09:40 GMT-0600 (Central Standard Time),581065.8000000007,1700,I,z,1267,6,1,2994.4000000003725,578071.4000000004,9999,NTS,C,16
3,15,test,1,C,circle.png,1,z,Mon Nov 03 2025 17:09:40 GMT-0600 (Central Standard Time),583781.5999999996,1600,I,z,1096,19,1,2712.0999999996275,581069.5,9999,NTS,C,17
6,16,test,1,C,circle.png,1,m,Mon Nov 03 2025 17:09:40 GMT-0600 (Central Standard Time),586597.5,1900,I,m,895,21,1,2812.0999999996275,583785.4000000004,9999,NTS,C,18
1,17,test,1,C,triangle.png,1,z,Mon Nov 03 2025 17:09:40 GMT-0600 (Central Standard Time),589080.3000000007,1900,I,z,552,9,1,2478.9000000003725,586601.4000000004,9999,NTS,C,19
9,18,test,1,C,circle.png,1,m,Mon Nov 03 2025 17:09:40 GMT-0600 (Central Standard Time),591912.7000000011,1500,I,m,1300,8,1,2828.5,589084.2000000011,9999,NTS,C,20
3,19,test,1,C,circle.png,1,z,Mon Nov 03 2025 17:09:40 GMT-0600 (Central Standard Time),594428.9000000004,1600,I,z,889,11,1,2512.0,591916.9000000004,9999,NTS,C,21
9,20,test,1,C,circle.png,1,m,Mon Nov 03 2025 17:09:40 GMT-0600 (Central Standard Time),596594.3000000007,1500,I,m,641,24,1,2162.2000000011176,594432.0999999996,9999,NTS,C,22
6,21,test,1,C,circle.png,1,m,Mon Nov 03 2025 17:09:40 GMT-0600 (Central Standard Time),599260.2000000011,1900,I,m,747,5,1,2662.2000000011176,596598.0,9999,NTS,C,23
8,22,test,1,C,triangle.png,1,m,Mon Nov 03 2025 17:09:40 GMT-0600 (Central Standard Time),602042.8000000007,1600,I,m,1157,7,1,2778.9000000003725,599263.9000000004,9999,NTS,C,24
7,1,test,2,C,triangle.png,1,z,Mon Nov 03 2025 17:09:40 GMT-0600 (Central Standard Time),612789.5999999996,1700,I,z,1246,6,1,2962.5999999996275,609827.0,9999,NTS,C,1
6,2,test,2,C,triangle.png,1,m,Mon Nov 03 2025 17:09:40 GMT-0600 (Central Standard Time),614638.7000000011,1000,I,m,828,13,1,1844.800000000745,612793.9000000004,9999,NTS,C,2
8,3,test,2,C,circle.png,1,m,Mon Nov 03 2025 17:09:40 GMT-0600 (Central Standard Time),616854.9000000004,1200,I,m,986,23,1,2212.5999999996275,614642.3000000007,9999,NTS,C,3
6,4,test,2,C,circle.png,1,m,Mon Nov 03 2025 17:09:40 GMT-0600 (Central Standard Time),619403.9000000004,1900,I,m,623,5,1,2545.4000000003725,616858.5,9999,NTS,C,4
9,5,test,2,C,triangle.png,1,z,Mon Nov 03 2025 17:09:40 GMT-0600 (Central Standard Time),621670.0,1400,I,z,838,24,1,2261.7999999988824,619408.2000000011,9999,NTS,C,5
1,6,test,2,C,triangle.png,1,z,Mon Nov 03 2025 17:09:40 GMT-0600 (Central Standard Time),624135.9000000004,1900,I,z,535,17,1,2461.9000000003725,621674.0,9999,NTS,C,6
4,7,test,2,C,triangle.png,1,m,Mon Nov 03 2025 17:09:40 GMT-0600 (Central Standard Time),626734.9000000004,1500,I,m,1078,20,1,2594.9000000003725,624140.0,9999,NTS,C,7
3,8,test,2,C,triangle.png,1,z,Mon Nov 03 2025 17:09:40 GMT-0600 (Central Standard Time),628600.9000000004,1200,I,z,642,3,1,1861.9000000003725,626739.0,9999,NTS,C,8
2,9,test,2,C,circle.png,1,z,Mon Nov 03 2025 17:09:40 GMT-0600 (Central Standard Time),631283.8000000007,1700,I,z,956,10,1,2679.2000000011176,628604.5999999996,9999,NTS,C,9
9,10,test,2,C,circle.png,1,m,Mon Nov 03 2025 17:09:40 GMT-0600 (Central Standard Time),633832.9000000004,1500,I,m,1018,8,1,2545.0999999996275,631287.8000000007,9999,NTS,C,10
4,11,test,2,C,circle.png,1,z,Mon Nov 03 2025 17:09:40 GMT-0600 (Central Standard Time),636198.7000000011,1400,I,z,937,4,1,2362.10000000149,633836.5999999996,9999,NTS,C,11
9,11,test,2,C,triangle.png,0,z,Mon Nov 03 2025 17:09:40 GMT-0600 (Central Standard Time),639131.2000000011,1400,I,None,1515,16,1,2928.60000000149,636202.5999999996,9999,NTS,C,12
3,12,test,2,C,circle.png,1,z,Mon Nov 03 2025 17:09:40 GMT-0600 (Central Standard Time),641613.7000000011,1600,I,z,853,19,1,2479.0,639134.7000000011,9999,NTS,C,13
2,13,test,2,C,circle.png,1,z,Mon Nov 03 2025 17:09:40 GMT-0600 (Central Standard Time),644396.4000000004,1700,I,z,1056,18,1,2779.0999999996275,641617.3000000007,9999,NTS,C,14
7,13,test,2,C,circle.png,0,m,Mon Nov 03 2025 17:09:40 GMT-0600 (Central Standard Time),647661.9000000004,2000,I,z,1245,22,1,3261.5999999996275,644400.3000000007,9999,NTS,C,15
6,13,test,2,C,triangle.png,0,m,Mon Nov 03 2025 17:09:40 GMT-0600 (Central Standard Time),650194.4000000004,1000,I,None,1516,21,1,2528.699999999255,647665.7000000011,9999,NTS,C,16
1,14,test,2,C,circle.png,1,z,Mon Nov 03 2025 17:09:40 GMT-0600 (Central Standard Time),651810.4000000004,1000,I,z,599,1,1,1611.9000000003725,650198.5,9999,NTS,C,17
8,15,test,2,C,triangle.png,1,m,Mon Nov 03 2025 17:09:40 GMT-0600 (Central Standard Time),654459.5,1600,I,m,1031,7,1,2645.7999999988824,651813.7000000011,9999,NTS,C,18
4,15,test,2,C,triangle.png,0,m,Mon Nov 03 2025 17:09:40 GMT-0600 (Central Standard Time),657358.8000000007,1500,I,z,1378,12,1,2895.0999999996275,654463.7000000011,9999,NTS,C,19
3,16,test,2,C,circle.png,1,z,Mon Nov 03 2025 17:09:40 GMT-0600 (Central Standard Time),659541.5,1600,I,z,562,11,1,2178.5999999996275,657362.9000000004,9999,NTS,C,20
7,16,test,2,C,circle.png,0,m,Mon Nov 03 2025 17:09:40 GMT-0600 (Central Standard Time),662423.8000000007,2000,I,z,860,14,1,2878.5,659545.3000000007,9999,NTS,C,21
8,17,test,2,C,circle.png,1,m,Mon Nov 03 2025 17:09:40 GMT-0600 (Central Standard Time),664306.5999999996,1200,I,m,658,15,1,1878.8999999985099,662427.7000000011,9999,NTS,C,22
1,18,test,2,C,triangle.png,1,z,Mon Nov 03 2025 17:09:40 GMT-0600 (Central Standard Time),666972.5,1900,I,z,747,9,1,2661.7999999988824,664310.7000000011,9999,NTS,C,23
2,19,test,2,C,triangle.png,1,m,Mon Nov 03 2025 17:09:40 GMT-0600 (Central Standard Time),670304.5999999996,2000,I,m,1300,2,1,3328.5999999996275,666976.0,9999,NTS,C,24
3,1,test,3,C,triangle.png,1,z,Mon Nov 03 2025 17:09:40 GMT-0600 (Central Standard Time),674070.3000000007,1200,I,z,1045,3,1,2263.2000000011176,671807.0999999996,9999,NTS,C,1
6,2,test,3,C,circle.png,1,m,Mon Nov 03 2025 17:09:40 GMT-0600 (Central Standard Time),676736.0999999996,1900,I,m,735,5,1,2661.2999999988824,674074.8000000007,9999,NTS,C,2
6,3,test,3,C,triangle.png,1,m,Mon Nov 03 2025 17:09:40 GMT-0600 (Central Standard Time),679035.7000000011,1000,I,m,1273,13,1,2295.800000000745,676739.9000000004,9999,NTS,C,3
7,4,test,3,C,circle.png,1,m,Mon Nov 03 2025 17:09:40 GMT-0600 (Central Standard Time),682035.5999999996,2000,I,m,982,14,1,2996.0999999996275,679039.5,9999,NTS,C,4
4,5,test,3,C,triangle.png,1,m,Mon Nov 03 2025 17:09:40 GMT-0600 (Central Standard Time),684383.8000000007,1500,I,m,827,12,1,2344.300000000745,682039.5,9999,NTS,C,5
1,6,test,3,C,circle.png,1,z,Mon Nov 03 2025 17:09:40 GMT-0600 (Central Standard Time),686316.4000000004,1000,I,z,914,17,1,1928.699999999255,684387.7000000011,9999,NTS,C,6
3,7,test,3,C,triangle.png,1,z,Mon Nov 03 2025 17:09:40 GMT-0600 (Central Standard Time),688598.7000000011,1200,I,z,1063,19,1,2278.7000000011176,686320.0,9999,NTS,C,7
3,8,test,3,C,circle.png,1,z,Mon Nov 03 2025 17:09:40 GMT-0600 (Central Standard Time),691298.0,1600,I,z,1074,11,1,2695.5,688602.5,9999,NTS,C,8
9,8,test,3,C,triangle.png,0,z,Mon Nov 03 2025 17:09:40 GMT-0600 (Central Standard Time),694230.7000000011,1400,I,None,1516,16,1,2928.9000000003725,691301.8000000007,9999,NTS,C,9
2,8,test,3,C,circle.png,0,z,Mon Nov 03 2025 17:09:40 GMT-0600 (Central Standard Time),697463.0999999996,1700,I,None,1516,10,1,3228.7999999988824,694234.3000000007,9999,NTS,C,10
9,9,test,3,C,circle.png,1,m,Mon Nov 03 2025 17:09:40 GMT-0600 (Central Standard Time),700362.3000000007,1500,I,m,1382,24,1,2895.300000000745,697467.0,9999,NTS,C,11
2,9,test,3,C,triangle.png,0,m,Mon Nov 03 2025 17:09:40 GMT-0600 (Central Standard Time),703894.0999999996,2000,I,None,1516,2,1,3528.0999999996275,700366.0,9999,NTS,C,12
7,9,test,3,C,triangle.png,0,z,Mon Nov 03 2025 17:09:40 GMT-0600 (Central Standard Time),706861.0,1700,I,m,1239,22,1,2963.2999999988824,703897.7000000011,9999,NTS,C,13
1,10,test,3,C,triangle.png,1,z,Mon Nov 03 2025 17:09:40 GMT-0600 (Central Standard Time),709892.0999999996,1900,I,z,1106,9,1,3027.0999999996275,706865.0,9999,NTS,C,14
9,11,test,3,C,circle.png,1,m,Mon Nov 03 2025 17:09:40 GMT-0600 (Central Standard Time),712358.0999999996,1500,I,m,937,8,1,2462.0999999996275,709896.0,9999,NTS,C,15
8,12,test,3,C,triangle.png,1,m,Mon Nov 03 2025 17:09:40 GMT-0600 (Central Standard Time),714840.5999999996,1600,I,m,860,23,1,2478.7999999988824,712361.8000000007,9999,NTS,C,16
1,13,test,3,C,circle.png,1,z,Mon Nov 03 2025 17:09:40 GMT-0600 (Central Standard Time),716439.9000000004,1000,I,z,568,1,1,1595.4000000003725,714844.5,9999,NTS,C,17
6,14,test,3,C,circle.png,1,m,Mon Nov 03 2025 17:09:40 GMT-0600 (Central Standard Time),719072.8000000007,1900,I,m,702,21,1,2628.5999999996275,716444.2000000011,9999,NTS,C,18
4,15,test,3,C,circle.png,1,z,Mon Nov 03 2025 17:09:40 GMT-0600 (Central Standard Time),721589.8000000007,1400,I,z,1097,20,1,2512.4000000003725,719077.4000000004,9999,NTS,C,19
2,15,test,3,C,triangle.png,0,m,Mon Nov 03 2025 17:09:40 GMT-0600 (Central Standard Time),724554.4000000004,2000,I,z,941,18,1,2960.9000000003725,721593.5,9999,NTS,C,20
4,16,test,3,C,circle.png,1,z,Mon Nov 03 2025 17:09:40 GMT-0600 (Central Standard Time),727170.5999999996,1400,I,z,1183,4,1,2612.2999999988824,724558.3000000007,9999,NTS,C,21
8,17,test,3,C,circle.png,1,m,Mon Nov 03 2025 17:09:40 GMT-0600 (Central Standard Time),729303.0,1200,I,m,903,15,1,2128.7999999988824,727174.2000000011,9999,NTS,C,22
8,17,test,3,C,triangle.png,0,m,Mon Nov 03 2025 17:09:40 GMT-0600 (Central Standard Time),732435.2000000011,1600,I,None,1515,7,1,3128.4000000003725,729306.8000000007,9999,NTS,C,23
7,17,test,3,C,triangle.png,0,z,Mon Nov 03 2025 17:09:40 GMT-0600 (Central Standard Time),735667.5999999996,1700,I,None,1516,6,1,3228.699999999255,732438.9000000004,9999,NTS,C,24
6,1,test,4,C,triangle.png,1,m,Mon Nov 03 2025 17:09:40 GMT-0600 (Central Standard Time),777154.5999999996,1000,I,m,999,13,1,2012.699999999255,775141.9000000004,9999,NTS,C,1
9,2,test,4,C,triangle.png,1,z,Mon Nov 03 2025 17:09:40 GMT-0600 (Central Standard Time),779370.8000000007,1400,I,z,791,16,1,2211.5999999996275,777159.2000000011,9999,NTS,C,2
7,3,test,4,C,triangle.png,1,z,Mon Nov 03 2025 17:09:40 GMT-0600 (Central Standard Time),781836.8000000007,1700,I,z,739,22,1,2462.4000000003725,779374.4000000004,9999,NTS,C,3
9,4,test,4,C,circle.png,1,m,Mon Nov 03 2025 17:09:40 GMT-0600 (Central Standard Time),784235.8000000007,1500,I,m,881,24,1,2395.5,781840.3000000007,9999,NTS,C,4
7,5,test,4,C,triangle.png,1,z,Mon Nov 03 2025 17:09:40 GMT-0600 (Central Standard Time),786668.3000000007,1700,I,z,714,6,1,2428.300000000745,784240.0,9999,NTS,C,5
8,6,test,4,C,circle.png,1,m,Mon Nov 03 2025 17:09:40 GMT-0600 (Central Standard Time),788801.0,1200,I,m,901,15,1,2128.199999999255,786672.8000000007,9999,NTS,C,6
4,6,test,4,C,triangle.png,0,m,Mon Nov 03 2025 17:09:40 GMT-0600 (Central Standard Time),791833.0999999996,1500,I,None,1515,12,1,3027.89999999851,788805.2000000011,9999,NTS,C,7
1,7,test,4,C,triangle.png,1,z,Mon Nov 03 2025 17:09:40 GMT-0600 (Central Standard Time),794415.9000000004,1900,I,z,660,9,1,2578.0999999996275,791837.8000000007,9999,NTS,C,8
3,8,test,4,C,triangle.png,1,z,Mon Nov 03 2025 17:09:40 GMT-0600 (Central Standard Time),796315.5,1200,I,z,673,19,1,1896.199999999255,794419.3000000007,9999,NTS,C,9
4,8,test,4,C,circle.png,0,z,Mon Nov 03 2025 17:09:40 GMT-0600 (Central Standard Time),798464.5999999996,1400,I,m,718,20,1,2145.199999999255,796319.4000000004,9999,NTS,C,10
2,9,test,4,C,circle.png,1,z,Mon Nov 03 2025 17:09:40 GMT-0600 (Central Standard Time),801163.8000000007,1700,I,z,980,10,1,2695.2000000011176,798468.5999999996,9999,NTS,C,11
9,10,test,4,C,circle.png,1,m,Mon Nov 03 2025 17:09:40 GMT-0600 (Central Standard Time),803379.8000000007,1500,I,m,690,8,1,2212.2000000011176,801167.5999999996,9999,NTS,C,12
4,11,test,4,C,circle.png,1,z,Mon Nov 03 2025 17:09:40 GMT-0600 (Central Standard Time),805595.8000000007,1400,I,z,790,4,1,2212.4000000003725,803383.4000000004,9999,NTS,C,13
2,12,test,4,C,triangle.png,1,m,Mon Nov 03 2025 17:09:40 GMT-0600 (Central Standard Time),809011.0,2000,I,m,1398,2,1,3411.5999999996275,805599.4000000004,9999,NTS,C,14
7,13,test,4,C,circle.png,1,m,Mon Nov 03 2025 17:09:40 GMT-0600 (Central Standard Time),812143.5999999996,2000,I,m,1102,14,1,3129.0,809014.5999999996,9999,NTS,C,15
2,14,test,4,C,triangle.png,1,m,Mon Nov 03 2025 17:09:40 GMT-0600 (Central Standard Time),815442.4000000004,2000,I,m,1282,18,1,3295.0,812147.4000000004,9999,NTS,C,16
3,15,test,4,C,circle.png,1,z,Mon Nov 03 2025 17:09:40 GMT-0600 (Central Standard Time),818075.3000000007,1600,I,z,1007,11,1,2629.0999999996275,815446.2000000011,9999,NTS,C,17
3,16,test,4,C,triangle.png,1,z,Mon Nov 03 2025 17:09:40 GMT-0600 (Central Standard Time),820357.9000000004,1200,I,z,1054,3,1,2279.0999999996275,818078.8000000007,9999,NTS,C,18
1,17,test,4,C,circle.png,1,z,Mon Nov 03 2025 17:09:40 GMT-0600 (Central Standard Time),822323.8000000007,1000,I,z,947,1,1,1962.4000000003725,820361.4000000004,9999,NTS,C,19
6,18,test,4,C,circle.png,1,m,Mon Nov 03 2025 17:09:40 GMT-0600 (Central Standard Time),825456.0999999996,1900,I,m,1202,5,1,3128.2999999988824,822327.8000000007,9999,NTS,C,20
8,19,test,4,C,triangle.png,1,m,Mon Nov 03 2025 17:09:40 GMT-0600 (Central Standard Time),828571.8000000007,1600,I,m,1489,23,1,3111.9000000003725,825459.9000000004,9999,NTS,C,21
6,20,test,4,C,circle.png,1,m,Mon Nov 03 2025 17:09:40 GMT-0600 (Central Standard Time),831337.9000000004,1900,I,m,834,21,1,2762.0,828575.9000000004,9999,NTS,C,22
8,21,test,4,C,triangle.png,1,m,Mon Nov 03 2025 17:09:40 GMT-0600 (Central Standard Time),833970.0,1600,I,m,1015,7,1,2628.199999999255,831341.8000000007,9999,NTS,C,23
1,22,test,4,C,circle.png,1,z,Mon Nov 03 2025 17:09:40 GMT-0600 (Central Standard Time),835636.0,1000,I,z,647,17,1,1662.199999999255,833973.8000000007,9999,NTS,C,24
