acc_sum,block,block_c,change,condition,correct,correct_response,datetime,endtime,face,project,response,response_time,row_sel,session_number,start_end,starttime,subject_id,task,task_vers,trial
0,prac,1,,1-Back,,,Mon Jun 22 2026 09:26:52 GMT-0500 (Central Daylight Time),,124_o_f_d_a.png,I,space,3738,1,3,,,8075,VNB,A,0
1,prac,1,0.0,1-Back,1.0,m,Mon Jun 22 2026 09:26:52 GMT-0500 (Central Daylight Time),116238.69999999925,071_y_f_n_a.png,I,m,1232,2,3,2040.4000000022352,114198.29999999702,8075,VNB,A,1
2,prac,1,0.0,1-Back,1.0,m,Mon Jun 22 2026 09:26:52 GMT-0500 (Central Daylight Time),117955.79999999702,165_m_m_h_a.png,I,m,934,3,3,1713.2999999970198,116242.5,8075,VNB,A,2
3,prac,1,0.0,1-Back,1.0,m,Mon Jun 22 2026 09:26:52 GMT-0500 (Central Daylight Time),119571.0,109_y_m_d_a.png,I,m,806,4,3,1606.7000000029802,117964.29999999702,8075,VNB,A,3
4,prac,1,0.0,1-Back,1.0,m,Mon Jun 22 2026 09:26:52 GMT-0500 (Central Daylight Time),121320.0,124_o_f_n_a.png,I,m,916,5,3,1745.300000000745,119574.69999999925,8075,VNB,A,4
5,prac,1,1.0,1-Back,1.0,z,Mon Jun 22 2026 09:26:52 GMT-0500 (Central Daylight Time),123053.09999999776,109_y_m_n_a.png,I,z,911,6,3,1724.8999999985099,121328.19999999925,8075,VNB,A,5
6,prac,1,0.0,1-Back,1.0,m,Mon Jun 22 2026 09:26:52 GMT-0500 (Central Daylight Time),124767.69999999925,039_o_m_h_a.png,I,m,832,7,3,1710.199999999255,123057.5,8075,VNB,A,6
7,prac,1,0.0,1-Back,1.0,m,Mon Jun 22 2026 09:26:52 GMT-0500 (Central Daylight Time),126552.0,139_m_f_d_a.png,I,m,977,8,3,1776.1000000014901,124775.89999999851,8075,VNB,A,7
8,prac,1,1.0,1-Back,1.0,z,Mon Jun 22 2026 09:26:52 GMT-0500 (Central Daylight Time),128384.59999999776,071_y_f_d_a.png,I,z,1022,9,3,1828.5,126556.09999999776,8075,VNB,A,8
9,prac,1,0.0,1-Back,1.0,m,Mon Jun 22 2026 09:26:52 GMT-0500 (Central Daylight Time),130001.0,165_m_m_n_a.png,I,m,815,10,3,1608.300000000745,128392.69999999925,8075,VNB,A,9
10,prac,1,0.0,1-Back,1.0,m,Mon Jun 22 2026 09:26:52 GMT-0500 (Central Daylight Time),131617.19999999925,124_o_f_h_a.png,I,m,787,11,3,1612.199999999255,130005.0,8075,VNB,A,10
11,prac,1,0.0,1-Back,1.0,m,Mon Jun 22 2026 09:26:52 GMT-0500 (Central Daylight Time),133116.79999999702,109_y_m_d_a.png,I,m,713,12,3,1491.7999999970198,131625.0,8075,VNB,A,11
0,test,1,0.0,1-Back,,,Mon Jun 22 2026 09:26:52 GMT-0500 (Central Daylight Time),133116.79999999702,071_y_f_d_a.png,I,space,4775,1,3,1491.7999999970198,131625.0,8075,VNB,A,0
1,test,1,0.0,1-Back,1.0,m,Mon Jun 22 2026 09:26:52 GMT-0500 (Central Daylight Time),148712.0,139_m_f_n_a.png,I,m,753,2,3,1780.1000000014901,146931.8999999985,8075,VNB,A,1
2,test,1,0.0,1-Back,1.0,m,Mon Jun 22 2026 09:26:52 GMT-0500 (Central Daylight Time),150444.3999999985,039_o_m_h_a.png,I,m,706,3,3,1729.6000000014901,148714.79999999702,8075,VNB,A,2
3,test,1,1.0,1-Back,1.0,z,Mon Jun 22 2026 09:26:52 GMT-0500 (Central Daylight Time),152344.09999999776,165_m_m_h_a.png,I,z,877,4,3,1896.5999999977648,150447.5,8075,VNB,A,3
4,test,1,0.0,1-Back,1.0,m,Mon Jun 22 2026 09:26:52 GMT-0500 (Central Daylight Time),154009.79999999702,124_o_f_n_a.png,I,m,649,5,3,1662.8999999985099,152346.8999999985,8075,VNB,A,4
5,test,1,0.0,1-Back,1.0,m,Mon Jun 22 2026 09:26:52 GMT-0500 (Central Daylight Time),156459.3999999985,109_y_m_d_a.png,I,m,1423,6,3,2447.199999999255,154012.19999999925,8075,VNB,A,5
6,test,1,1.0,1-Back,1.0,z,Mon Jun 22 2026 09:26:52 GMT-0500 (Central Daylight Time),158475.3999999985,139_m_f_d_a.png,I,z,989,7,3,2013.300000000745,156462.09999999776,8075,VNB,A,6
7,test,1,0.0,1-Back,1.0,m,Mon Jun 22 2026 09:26:52 GMT-0500 (Central Daylight Time),160291.29999999702,071_y_f_h_a.png,I,m,790,8,3,1813.0999999977648,158478.19999999925,8075,VNB,A,7
8,test,1,0.0,1-Back,1.0,m,Mon Jun 22 2026 09:26:52 GMT-0500 (Central Daylight Time),162624.0,039_o_m_n_a.png,I,m,1301,9,3,2329.400000002235,160294.59999999776,8075,VNB,A,8
9,test,1,0.0,1-Back,1.0,m,Mon Jun 22 2026 09:26:52 GMT-0500 (Central Daylight Time),164590.09999999776,109_y_m_h_a.png,I,m,938,10,3,1963.5999999977648,162626.5,8075,VNB,A,9
10,test,1,0.0,1-Back,1.0,m,Mon Jun 22 2026 09:26:52 GMT-0500 (Central Daylight Time),166457.0,039_o_m_d_a.png,I,m,842,11,3,1864.300000000745,164592.69999999925,8075,VNB,A,10
11,test,1,1.0,1-Back,1.0,z,Mon Jun 22 2026 09:26:52 GMT-0500 (Central Daylight Time),168472.29999999702,124_o_f_d_a.png,I,z,985,12,3,2012.5999999977648,166459.69999999925,8075,VNB,A,11
12,test,1,0.0,1-Back,1.0,m,Mon Jun 22 2026 09:26:52 GMT-0500 (Central Daylight Time),170538.29999999702,165_m_m_n_a.png,I,m,1033,13,3,2063.39999999851,168474.8999999985,8075,VNB,A,12
13,test,1,1.0,1-Back,1.0,z,Mon Jun 22 2026 09:26:52 GMT-0500 (Central Daylight Time),172503.79999999702,071_y_f_n_a.png,I,z,934,14,3,1962.7999999970198,170541.0,8075,VNB,A,13
14,test,1,0.0,1-Back,1.0,m,Mon Jun 22 2026 09:26:52 GMT-0500 (Central Daylight Time),174170.5,139_m_f_h_a.png,I,m,641,15,3,1663.4000000022352,172507.09999999776,8075,VNB,A,14
15,test,1,0.0,1-Back,1.0,m,Mon Jun 22 2026 09:26:52 GMT-0500 (Central Daylight Time),176669.59999999776,165_m_m_d_a.png,I,m,1471,16,3,2496.599999997765,174173.0,8075,VNB,A,15
16,test,1,0.0,1-Back,1.0,m,Mon Jun 22 2026 09:26:52 GMT-0500 (Central Daylight Time),178718.59999999776,109_y_m_n_a.png,I,m,1019,17,3,2045.800000000745,176672.79999999702,8075,VNB,A,16
17,test,1,0.0,1-Back,1.0,m,Mon Jun 22 2026 09:26:52 GMT-0500 (Central Daylight Time),180501.79999999702,124_o_f_h_a.png,I,m,761,18,3,1780.699999999255,178721.09999999776,8075,VNB,A,17
0,test,2,0.0,1-Back,,,Mon Jun 22 2026 09:26:52 GMT-0500 (Central Daylight Time),180501.79999999702,109_y_m_n_a.png,I,space,988,1,3,1780.699999999255,178721.09999999776,8075,VNB,A,0
1,test,2,0.0,1-Back,1.0,m,Mon Jun 22 2026 09:26:52 GMT-0500 (Central Daylight Time),185450.19999999925,071_y_f_h_a.png,I,m,916,2,3,1928.300000000745,183521.8999999985,8075,VNB,A,1
2,test,2,1.0,1-Back,1.0,m,Mon Jun 22 2026 09:26:52 GMT-0500 (Central Daylight Time),187782.79999999702,039_o_m_n_a.png,I,m,1311,3,3,2329.7999999970198,185453.0,8075,VNB,A,2
3,test,2,0.0,1-Back,1.0,m,Mon Jun 22 2026 09:26:52 GMT-0500 (Central Daylight Time),189865.19999999925,139_m_f_d_a.png,I,m,1058,4,3,2079.5,187785.69999999925,8075,VNB,A,3
4,test,2,0.0,1-Back,1.0,z,Mon Jun 22 2026 09:26:52 GMT-0500 (Central Daylight Time),191864.59999999776,165_m_m_d_a.png,I,z,975,5,3,1994.800000000745,189869.79999999702,8075,VNB,A,4
5,test,2,0.0,1-Back,1.0,m,Mon Jun 22 2026 09:26:52 GMT-0500 (Central Daylight Time),193664.3999999985,109_y_m_h_a.png,I,m,776,6,3,1797.3999999985099,191867.0,8075,VNB,A,5
6,test,2,1.0,1-Back,1.0,z,Mon Jun 22 2026 09:26:52 GMT-0500 (Central Daylight Time),195461.09999999776,124_o_f_h_a.png,I,z,780,7,3,1793.8999999985099,193667.19999999925,8075,VNB,A,6
7,test,2,0.0,1-Back,1.0,m,Mon Jun 22 2026 09:26:52 GMT-0500 (Central Daylight Time),197446.5,139_m_f_n_a.png,I,m,962,8,3,1980.0,195466.5,8075,VNB,A,7
8,test,2,0.0,1-Back,1.0,m,Mon Jun 22 2026 09:26:52 GMT-0500 (Central Daylight Time),199778.8999999985,071_y_f_d_a.png,I,m,1307,9,3,2330.10000000149,197448.79999999702,8075,VNB,A,8
9,test,2,0.0,1-Back,1.0,m,Mon Jun 22 2026 09:26:52 GMT-0500 (Central Daylight Time),201761.69999999925,165_m_m_n_a.png,I,m,966,10,3,1980.300000000745,199781.3999999985,8075,VNB,A,9
9,test,2,1.0,1-Back,0.0,m,Mon Jun 22 2026 09:26:52 GMT-0500 (Central Daylight Time),204794.29999999702,139_m_f_h_a.png,I,None,2016,11,3,3028.199999999255,201766.09999999776,8075,VNB,A,10
10,test,2,0.0,1-Back,1.0,z,Mon Jun 22 2026 09:26:52 GMT-0500 (Central Daylight Time),206576.8999999985,039_o_m_h_a.png,I,z,759,12,3,1779.800000000745,204797.09999999776,8075,VNB,A,11
11,test,2,0.0,1-Back,1.0,m,Mon Jun 22 2026 09:26:52 GMT-0500 (Central Daylight Time),208393.29999999702,109_y_m_d_a.png,I,m,793,13,3,1814.0,206579.29999999702,8075,VNB,A,12
12,test,2,0.0,1-Back,1.0,m,Mon Jun 22 2026 09:26:52 GMT-0500 (Central Daylight Time),210292.3999999985,124_o_f_n_a.png,I,m,872,14,3,1894.6000000014901,208397.79999999702,8075,VNB,A,13
13,test,2,0.0,1-Back,1.0,z,Mon Jun 22 2026 09:26:52 GMT-0500 (Central Daylight Time),212375.0,071_y_f_n_a.png,I,z,1053,15,3,2079.900000002235,210295.09999999776,8075,VNB,A,14
14,test,2,1.0,1-Back,1.0,m,Mon Jun 22 2026 09:26:52 GMT-0500 (Central Daylight Time),214424.3999999985,165_m_m_h_a.png,I,m,1017,16,3,2046.6000000014901,212377.79999999702,8075,VNB,A,15
15,test,2,0.0,1-Back,1.0,m,Mon Jun 22 2026 09:26:52 GMT-0500 (Central Daylight Time),216173.79999999702,124_o_f_d_a.png,I,m,721,17,3,1745.5,214428.29999999702,8075,VNB,A,16
16,test,2,1.0,1-Back,1.0,z,Mon Jun 22 2026 09:26:52 GMT-0500 (Central Daylight Time),217956.79999999702,039_o_m_d_a.png,I,z,756,18,3,1780.0999999977648,216176.69999999925,8075,VNB,A,17
0,test,3,1.0,1-Back,,,Mon Jun 22 2026 09:26:52 GMT-0500 (Central Daylight Time),217956.79999999702,124_o_f_h_a.png,I,space,1209,1,3,1780.0999999977648,216176.69999999925,8075,VNB,A,0
1,test,3,0.0,1-Back,1.0,m,Mon Jun 22 2026 09:26:52 GMT-0500 (Central Daylight Time),223705.8999999985,139_m_f_d_a.png,I,m,1425,2,3,2445.89999999851,221260.0,8075,VNB,A,1
2,test,3,1.0,1-Back,1.0,m,Mon Jun 22 2026 09:26:52 GMT-0500 (Central Daylight Time),225721.0,165_m_m_n_a.png,I,m,982,3,3,2012.1000000014901,223708.8999999985,8075,VNB,A,2
3,test,3,0.0,1-Back,1.0,z,Mon Jun 22 2026 09:26:52 GMT-0500 (Central Daylight Time),227653.5,124_o_f_n_a.png,I,z,904,4,3,1930.1000000014901,225723.3999999985,8075,VNB,A,3
4,test,3,1.0,1-Back,1.0,m,Mon Jun 22 2026 09:26:52 GMT-0500 (Central Daylight Time),229369.59999999776,039_o_m_d_a.png,I,m,699,5,3,1713.0999999977648,227656.5,8075,VNB,A,4
5,test,3,0.0,1-Back,1.0,m,Mon Jun 22 2026 09:26:52 GMT-0500 (Central Daylight Time),231302.3999999985,071_y_f_h_a.png,I,m,911,6,3,1930.3999999985099,229372.0,8075,VNB,A,5
6,test,3,0.0,1-Back,1.0,z,Mon Jun 22 2026 09:26:52 GMT-0500 (Central Daylight Time),233068.3999999985,109_y_m_h_a.png,I,z,739,7,3,1763.3999999985099,231305.0,8075,VNB,A,6
7,test,3,0.0,1-Back,1.0,m,Mon Jun 22 2026 09:26:52 GMT-0500 (Central Daylight Time),234734.79999999702,139_m_f_n_a.png,I,m,637,8,3,1664.0,233070.79999999702,8075,VNB,A,7
8,test,3,0.0,1-Back,1.0,m,Mon Jun 22 2026 09:26:52 GMT-0500 (Central Daylight Time),236417.3999999985,071_y_f_d_a.png,I,m,665,9,3,1680.199999999255,234737.19999999925,8075,VNB,A,8
9,test,3,1.0,1-Back,1.0,m,Mon Jun 22 2026 09:26:52 GMT-0500 (Central Daylight Time),238267.19999999925,039_o_m_n_a.png,I,m,824,10,3,1847.5,236419.69999999925,8075,VNB,A,9
10,test,3,0.0,1-Back,1.0,m,Mon Jun 22 2026 09:26:52 GMT-0500 (Central Daylight Time),239949.69999999925,165_m_m_h_a.png,I,m,660,11,3,1679.0,238270.69999999925,8075,VNB,A,10
10,test,3,0.0,1-Back,0.0,z,Mon Jun 22 2026 09:26:52 GMT-0500 (Central Daylight Time),241799.0,139_m_f_h_a.png,I,m,819,12,3,1846.300000000745,239952.69999999925,8075,VNB,A,11
11,test,3,1.0,1-Back,1.0,m,Mon Jun 22 2026 09:26:52 GMT-0500 (Central Daylight Time),243465.5,124_o_f_d_a.png,I,m,630,13,3,1663.6000000014901,241801.8999999985,8075,VNB,A,12
12,test,3,0.0,1-Back,1.0,z,Mon Jun 22 2026 09:26:52 GMT-0500 (Central Daylight Time),245347.8999999985,165_m_m_d_a.png,I,z,856,14,3,1879.6000000014901,243468.29999999702,8075,VNB,A,13
13,test,3,0.0,1-Back,1.0,m,Mon Jun 22 2026 09:26:52 GMT-0500 (Central Daylight Time),247081.09999999776,109_y_m_n_a.png,I,m,710,15,3,1730.0999999977648,245351.0,8075,VNB,A,14
14,test,3,1.0,1-Back,1.0,m,Mon Jun 22 2026 09:26:52 GMT-0500 (Central Daylight Time),248897.29999999702,039_o_m_h_a.png,I,m,792,16,3,1813.8999999985099,247083.3999999985,8075,VNB,A,15
15,test,3,0.0,1-Back,1.0,m,Mon Jun 22 2026 09:26:52 GMT-0500 (Central Daylight Time),250563.29999999702,109_y_m_d_a.png,I,m,640,17,3,1663.0999999977648,248900.19999999925,8075,VNB,A,16
16,test,3,1.0,1-Back,1.0,m,Mon Jun 22 2026 09:26:52 GMT-0500 (Central Daylight Time),252296.0,071_y_f_n_a.png,I,m,702,18,3,1730.1000000014901,250565.8999999985,8075,VNB,A,17
0,test,4,1.0,1-Back,,,Mon Jun 22 2026 09:26:52 GMT-0500 (Central Daylight Time),252296.0,165_m_m_d_a.png,I,space,1016,1,3,1730.1000000014901,250565.8999999985,8075,VNB,A,0
1,test,4,0.0,1-Back,1.0,z,Mon Jun 22 2026 09:26:52 GMT-0500 (Central Daylight Time),257227.8999999985,039_o_m_d_a.png,I,z,855,2,3,1879.0,255348.8999999985,8075,VNB,A,1
2,test,4,0.0,1-Back,1.0,m,Mon Jun 22 2026 09:26:52 GMT-0500 (Central Daylight Time),258844.0,109_y_m_h_a.png,I,m,590,3,3,1613.7000000029802,257230.29999999702,8075,VNB,A,2
3,test,4,0.0,1-Back,1.0,m,Mon Jun 22 2026 09:26:52 GMT-0500 (Central Daylight Time),260594.19999999925,139_m_f_n_a.png,I,m,716,4,3,1747.4000000022352,258846.79999999702,8075,VNB,A,3
4,test,4,1.0,1-Back,1.0,m,Mon Jun 22 2026 09:26:52 GMT-0500 (Central Daylight Time),263059.3999999985,124_o_f_h_a.png,I,m,1447,5,3,2462.699999999255,260596.69999999925,8075,VNB,A,4
5,test,4,0.0,1-Back,1.0,m,Mon Jun 22 2026 09:26:52 GMT-0500 (Central Daylight Time),265058.59999999776,165_m_m_n_a.png,I,m,974,6,3,1996.800000000745,263061.799999997,8075,VNB,A,5
6,test,4,0.0,1-Back,1.0,m,Mon Jun 22 2026 09:26:52 GMT-0500 (Central Daylight Time),267107.799999997,109_y_m_d_a.png,I,m,901,7,3,2046.7999999970198,265061.0,8075,VNB,A,6
7,test,4,1.0,1-Back,1.0,z,Mon Jun 22 2026 09:26:52 GMT-0500 (Central Daylight Time),268907.299999997,071_y_f_d_a.png,I,z,781,8,3,1796.8999999985099,267110.3999999985,8075,VNB,A,7
8,test,4,0.0,1-Back,1.0,m,Mon Jun 22 2026 09:26:52 GMT-0500 (Central Daylight Time),270590.299999997,139_m_f_h_a.png,I,m,662,9,3,1680.0999999977648,268910.19999999925,8075,VNB,A,8
9,test,4,0.0,1-Back,1.0,z,Mon Jun 22 2026 09:26:52 GMT-0500 (Central Daylight Time),272589.69999999925,039_o_m_h_a.png,I,z,979,10,3,1996.699999999255,270593.0,8075,VNB,A,9
10,test,4,1.0,1-Back,1.0,m,Mon Jun 22 2026 09:26:52 GMT-0500 (Central Daylight Time),274539.09999999776,124_o_f_n_a.png,I,m,924,11,3,1945.5999999977648,272593.5,8075,VNB,A,10
11,test,4,0.0,1-Back,1.0,m,Mon Jun 22 2026 09:26:52 GMT-0500 (Central Daylight Time),276404.799999997,139_m_f_d_a.png,I,m,837,12,3,1862.8999999985099,274541.8999999985,8075,VNB,A,11
12,test,4,0.0,1-Back,1.0,m,Mon Jun 22 2026 09:26:52 GMT-0500 (Central Daylight Time),278521.0,071_y_f_n_a.png,I,m,1093,13,3,2112.900000002235,276408.09999999776,8075,VNB,A,12
13,test,4,0.0,1-Back,1.0,m,Mon Jun 22 2026 09:26:52 GMT-0500 (Central Daylight Time),280353.59999999776,124_o_f_d_a.png,I,m,815,14,3,1830.0999999977648,278523.5,8075,VNB,A,13
14,test,4,0.0,1-Back,1.0,m,Mon Jun 22 2026 09:26:52 GMT-0500 (Central Daylight Time),282269.8999999985,071_y_f_h_a.png,I,m,887,15,3,1914.1000000014901,280355.799999997,8075,VNB,A,14
15,test,4,1.0,1-Back,1.0,z,Mon Jun 22 2026 09:26:52 GMT-0500 (Central Daylight Time),284235.8999999985,165_m_m_h_a.png,I,z,940,16,3,1963.6000000014901,282272.299999997,8075,VNB,A,15
16,test,4,0.0,1-Back,1.0,m,Mon Jun 22 2026 09:26:52 GMT-0500 (Central Daylight Time),285985.19999999925,039_o_m_n_a.png,I,m,717,17,3,1746.699999999255,284238.5,8075,VNB,A,16
16,test,4,1.0,1-Back,0.0,z,Mon Jun 22 2026 09:26:52 GMT-0500 (Central Daylight Time),288084.799999997,109_y_m_n_a.png,I,m,1080,18,3,2097.099999997765,285987.69999999925,8075,VNB,A,17
0,test,5,1.0,1-Back,,,Mon Jun 22 2026 09:26:52 GMT-0500 (Central Daylight Time),288084.799999997,039_o_m_n_a.png,I,space,1021,1,3,2097.099999997765,285987.69999999925,8075,VNB,A,0
1,test,5,1.0,1-Back,1.0,m,Mon Jun 22 2026 09:26:52 GMT-0500 (Central Daylight Time),293049.69999999925,124_o_f_h_a.png,I,m,884,2,3,1911.800000000745,291137.8999999985,8075,VNB,A,1
2,test,5,0.0,1-Back,1.0,m,Mon Jun 22 2026 09:26:52 GMT-0500 (Central Daylight Time),294833.59999999776,109_y_m_d_a.png,I,m,759,3,3,1781.3999999985099,293052.19999999925,8075,VNB,A,2
3,test,5,0.0,1-Back,1.0,z,Mon Jun 22 2026 09:26:52 GMT-0500 (Central Daylight Time),296582.0,039_o_m_d_a.png,I,z,729,4,3,1745.6000000014901,294836.3999999985,8075,VNB,A,3
4,test,5,0.0,1-Back,1.0,m,Mon Jun 22 2026 09:26:52 GMT-0500 (Central Daylight Time),298581.5,139_m_f_h_a.png,I,m,979,5,3,1996.4000000022352,296585.09999999776,8075,VNB,A,4
5,test,5,0.0,1-Back,1.0,m,Mon Jun 22 2026 09:26:52 GMT-0500 (Central Daylight Time),300331.8999999985,071_y_f_n_a.png,I,m,731,6,3,1747.8999999985099,298584.0,8075,VNB,A,5
5,test,5,1.0,1-Back,0.0,z,Mon Jun 22 2026 09:26:52 GMT-0500 (Central Daylight Time),302381.19999999925,124_o_f_n_a.png,I,m,1023,7,3,2046.699999999255,300334.5,8075,VNB,A,6
6,test,5,0.0,1-Back,1.0,m,Mon Jun 22 2026 09:26:52 GMT-0500 (Central Daylight Time),304213.0,139_m_f_d_a.png,I,m,804,8,3,1829.1000000014901,302383.8999999985,8075,VNB,A,7
7,test,5,0.0,1-Back,1.0,m,Mon Jun 22 2026 09:26:52 GMT-0500 (Central Daylight Time),305995.799999997,109_y_m_h_a.png,I,m,757,9,3,1780.3999999985099,304215.3999999985,8075,VNB,A,8
8,test,5,0.0,1-Back,1.0,m,Mon Jun 22 2026 09:26:52 GMT-0500 (Central Daylight Time),307712.0,071_y_f_d_a.png,I,m,694,10,3,1713.5,305998.5,8075,VNB,A,9
9,test,5,0.0,1-Back,1.0,m,Mon Jun 22 2026 09:26:52 GMT-0500 (Central Daylight Time),309561.59999999776,165_m_m_n_a.png,I,m,816,11,3,1847.199999999255,307714.3999999985,8075,VNB,A,10
10,test,5,1.0,1-Back,1.0,z,Mon Jun 22 2026 09:26:52 GMT-0500 (Central Daylight Time),311494.09999999776,139_m_f_n_a.png,I,z,911,12,3,1930.0,309564.09999999776,8075,VNB,A,11
11,test,5,0.0,1-Back,1.0,m,Mon Jun 22 2026 09:26:52 GMT-0500 (Central Daylight Time),313143.59999999776,039_o_m_h_a.png,I,m,626,13,3,1647.0,311496.59999999776,8075,VNB,A,12
12,test,5,0.0,1-Back,1.0,z,Mon Jun 22 2026 09:26:52 GMT-0500 (Central Daylight Time),315092.8999999985,165_m_m_h_a.png,I,z,922,14,3,1946.8999999985099,313146.0,8075,VNB,A,13
13,test,5,1.0,1-Back,1.0,m,Mon Jun 22 2026 09:26:52 GMT-0500 (Central Daylight Time),316775.799999997,124_o_f_d_a.png,I,m,660,15,3,1680.3999999985099,315095.3999999985,8075,VNB,A,14
14,test,5,0.0,1-Back,1.0,m,Mon Jun 22 2026 09:26:52 GMT-0500 (Central Daylight Time),318441.8999999985,109_y_m_n_a.png,I,m,642,16,3,1663.6000000014901,316778.299999997,8075,VNB,A,15
15,test,5,0.0,1-Back,1.0,m,Mon Jun 22 2026 09:26:52 GMT-0500 (Central Daylight Time),320324.5,071_y_f_h_a.png,I,m,856,17,3,1880.300000000745,318444.19999999925,8075,VNB,A,16
16,test,5,0.0,1-Back,1.0,m,Mon Jun 22 2026 09:26:52 GMT-0500 (Central Daylight Time),322290.69999999925,165_m_m_d_a.png,I,m,941,18,3,1963.6000000014901,320327.09999999776,8075,VNB,A,17
0,prac,1,0.0,2-Back,,,Mon Jun 22 2026 09:26:52 GMT-0500 (Central Daylight Time),322290.69999999925,139_m_f_n_a.png,I,space,2769,1,3,1963.6000000014901,320327.09999999776,8075,VNB,A,0
0,prac,1,0.0,2-Back,,,Mon Jun 22 2026 09:26:52 GMT-0500 (Central Daylight Time),322290.69999999925,124_o_f_h_a.png,I,space,2769,2,3,1963.6000000014901,320327.09999999776,8075,VNB,A,0
1,prac,1,0.0,2-Back,1.0,m,Mon Jun 22 2026 09:26:52 GMT-0500 (Central Daylight Time),399083.5,039_o_m_d_a.png,I,m,1243,3,3,2045.800000000745,397037.69999999925,8075,VNB,A,1
2,prac,1,1.0,2-Back,1.0,z,Mon Jun 22 2026 09:26:52 GMT-0500 (Central Daylight Time),400999.3999999985,165_m_m_h_a.png,I,z,1100,4,3,1908.699999999255,399090.69999999925,8075,VNB,A,2
3,prac,1,0.0,2-Back,1.0,m,Mon Jun 22 2026 09:26:52 GMT-0500 (Central Daylight Time),403282.19999999925,071_y_f_n_a.png,I,m,1483,5,3,2278.900000002235,401003.299999997,8075,VNB,A,3
4,prac,1,1.0,2-Back,1.0,z,Mon Jun 22 2026 09:26:52 GMT-0500 (Central Daylight Time),405264.69999999925,039_o_m_h_a.png,I,z,1196,6,3,1978.9000000022352,403285.799999997,8075,VNB,A,4
5,prac,1,1.0,2-Back,1.0,z,Mon Jun 22 2026 09:26:52 GMT-0500 (Central Daylight Time),407577.09999999776,109_y_m_n_a.png,I,z,1406,7,3,2308.5,405268.59999999776,8075,VNB,A,5
6,prac,1,0.0,2-Back,1.0,m,Mon Jun 22 2026 09:26:52 GMT-0500 (Central Daylight Time),409829.8999999985,139_m_f_d_a.png,I,m,1439,8,3,2248.5,407581.3999999985,8075,VNB,A,6
7,prac,1,0.0,2-Back,1.0,m,Mon Jun 22 2026 09:26:52 GMT-0500 (Central Daylight Time),412046.0,124_o_f_d_a.png,I,m,1380,9,3,2208.7000000029802,409837.299999997,8075,VNB,A,7
8,prac,1,0.0,2-Back,1.0,m,Mon Jun 22 2026 09:26:52 GMT-0500 (Central Daylight Time),414061.8999999985,165_m_m_h_a.png,I,m,1240,10,3,2011.8999999985099,412050.0,8075,VNB,A,8
8,prac,1,1.0,2-Back,0.0,z,Mon Jun 22 2026 09:26:52 GMT-0500 (Central Daylight Time),416844.5,071_y_f_d_a.png,I,m,1983,11,3,2778.900000002235,414065.59999999776,8075,VNB,A,9
9,prac,1,0.0,2-Back,1.0,m,Mon Jun 22 2026 09:26:52 GMT-0500 (Central Daylight Time),418943.799999997,039_o_m_n_a.png,I,m,1298,12,3,2095.5,416848.299999997,8075,VNB,A,10
0,test,1,0.0,2-Back,,,Mon Jun 22 2026 09:26:52 GMT-0500 (Central Daylight Time),418943.799999997,109_y_m_h_a.png,I,space,3849,1,3,2095.5,416848.299999997,8075,VNB,A,0
0,test,1,0.0,2-Back,,,Mon Jun 22 2026 09:26:52 GMT-0500 (Central Daylight Time),418943.799999997,124_o_f_n_a.png,I,space,3849,2,3,2095.5,416848.299999997,8075,VNB,A,0
1,test,1,0.0,2-Back,1.0,z,Mon Jun 22 2026 09:26:52 GMT-0500 (Central Daylight Time),437538.0,039_o_m_h_a.png,I,z,1708,3,3,2729.900000002235,434808.09999999776,8075,VNB,A,1
2,test,1,0.0,2-Back,1.0,m,Mon Jun 22 2026 09:26:52 GMT-0500 (Central Daylight Time),439537.299999997,139_m_f_d_a.png,I,m,975,4,3,1997.0,437540.299999997,8075,VNB,A,2
3,test,1,1.0,2-Back,1.0,m,Mon Jun 22 2026 09:26:52 GMT-0500 (Central Daylight Time),441986.5,109_y_m_n_a.png,I,m,1424,5,3,2446.60000000149,439539.8999999985,8075,VNB,A,3
4,test,1,0.0,2-Back,1.0,z,Mon Jun 22 2026 09:26:52 GMT-0500 (Central Daylight Time),443802.3999999985,071_y_f_d_a.png,I,z,799,6,3,1813.5,441988.8999999985,8075,VNB,A,4
5,test,1,0.0,2-Back,1.0,m,Mon Jun 22 2026 09:26:52 GMT-0500 (Central Daylight Time),446201.799999997,165_m_m_h_a.png,I,m,1375,7,3,2397.099999997765,443804.69999999925,8075,VNB,A,5
6,test,1,1.0,2-Back,1.0,m,Mon Jun 22 2026 09:26:52 GMT-0500 (Central Daylight Time),448334.09999999776,071_y_f_n_a.png,I,m,1111,8,3,2129.5,446204.59999999776,8075,VNB,A,6
7,test,1,0.0,2-Back,1.0,z,Mon Jun 22 2026 09:26:52 GMT-0500 (Central Daylight Time),450101.19999999925,124_o_f_h_a.png,I,z,747,9,3,1764.6000000014901,448336.59999999776,8075,VNB,A,7
8,test,1,0.0,2-Back,1.0,m,Mon Jun 22 2026 09:26:52 GMT-0500 (Central Daylight Time),452084.09999999776,039_o_m_d_a.png,I,m,965,10,3,1980.3999999985099,450103.69999999925,8075,VNB,A,8
9,test,1,1.0,2-Back,1.0,m,Mon Jun 22 2026 09:26:52 GMT-0500 (Central Daylight Time),453999.299999997,165_m_m_d_a.png,I,m,894,11,3,1912.5999999977648,452086.69999999925,8075,VNB,A,9
10,test,1,0.0,2-Back,1.0,m,Mon Jun 22 2026 09:26:52 GMT-0500 (Central Daylight Time),455998.59999999776,139_m_f_n_a.png,I,m,970,12,3,1996.699999999255,454001.8999999985,8075,VNB,A,10
11,test,1,0.0,2-Back,1.0,m,Mon Jun 22 2026 09:26:52 GMT-0500 (Central Daylight Time),458314.59999999776,071_y_f_h_a.png,I,m,1290,13,3,2313.300000000745,456001.299999997,8075,VNB,A,11
12,test,1,0.0,2-Back,1.0,z,Mon Jun 22 2026 09:26:52 GMT-0500 (Central Daylight Time),460747.09999999776,165_m_m_n_a.png,I,z,1407,14,3,2430.0,458317.09999999776,8075,VNB,A,12
12,test,1,0.0,2-Back,0.0,m,Mon Jun 22 2026 09:26:52 GMT-0500 (Central Daylight Time),463729.69999999925,109_y_m_d_a.png,I,z,1949,15,3,2979.699999999255,460750.0,8075,VNB,A,13
12,test,1,1.0,2-Back,0.0,m,Mon Jun 22 2026 09:26:52 GMT-0500 (Central Daylight Time),466762.299999997,139_m_f_h_a.png,I,None,2016,16,3,3030.099999997765,463732.19999999925,8075,VNB,A,14
13,test,1,0.0,2-Back,1.0,z,Mon Jun 22 2026 09:26:52 GMT-0500 (Central Daylight Time),468761.5,124_o_f_d_a.png,I,z,975,17,3,1994.6000000014901,466766.8999999985,8075,VNB,A,15
14,test,1,0.0,2-Back,1.0,m,Mon Jun 22 2026 09:26:52 GMT-0500 (Central Daylight Time),470827.3999999985,039_o_m_n_a.png,I,m,1040,18,3,2063.5,468763.8999999985,8075,VNB,A,16
0,test,2,0.0,2-Back,,,Mon Jun 22 2026 09:26:52 GMT-0500 (Central Daylight Time),470827.3999999985,165_m_m_h_a.png,I,space,5470,1,3,2063.5,468763.8999999985,8075,VNB,A,0
0,test,2,0.0,2-Back,,,Mon Jun 22 2026 09:26:52 GMT-0500 (Central Daylight Time),470827.3999999985,071_y_f_n_a.png,I,space,5470,2,3,2063.5,468763.8999999985,8075,VNB,A,0
1,test,2,1.0,2-Back,1.0,z,Mon Jun 22 2026 09:26:52 GMT-0500 (Central Daylight Time),483657.5,124_o_f_h_a.png,I,z,1166,3,3,2181.0,481476.5,8075,VNB,A,1
2,test,2,0.0,2-Back,1.0,m,Mon Jun 22 2026 09:26:52 GMT-0500 (Central Daylight Time),485989.3999999985,039_o_m_d_a.png,I,m,1312,4,3,2329.699999999255,483659.69999999925,8075,VNB,A,2
3,test,2,0.0,2-Back,1.0,m,Mon Jun 22 2026 09:26:52 GMT-0500 (Central Daylight Time),487922.299999997,139_m_f_d_a.png,I,m,908,5,3,1930.2999999970198,485992.0,8075,VNB,A,3
4,test,2,0.0,2-Back,1.0,m,Mon Jun 22 2026 09:26:52 GMT-0500 (Central Daylight Time),490204.59999999776,109_y_m_h_a.png,I,m,1263,6,3,2280.0,487924.59999999776,8075,VNB,A,4
5,test,2,0.0,2-Back,1.0,m,Mon Jun 22 2026 09:26:52 GMT-0500 (Central Daylight Time),492754.0,124_o_f_n_a.png,I,m,1524,7,3,2546.7000000029802,490207.299999997,8075,VNB,A,5
6,test,2,1.0,2-Back,1.0,z,Mon Jun 22 2026 09:26:52 GMT-0500 (Central Daylight Time),494570.19999999925,039_o_m_h_a.png,I,z,783,8,3,1813.6000000014901,492756.59999999776,8075,VNB,A,6
7,test,2,0.0,2-Back,1.0,m,Mon Jun 22 2026 09:26:52 GMT-0500 (Central Daylight Time),496569.299999997,071_y_f_d_a.png,I,m,966,9,3,1996.5,494572.799999997,8075,VNB,A,7
8,test,2,0.0,2-Back,1.0,m,Mon Jun 22 2026 09:26:52 GMT-0500 (Central Daylight Time),499451.69999999925,109_y_m_d_a.png,I,m,1864,10,3,2880.10000000149,496571.59999999776,8075,VNB,A,8
9,test,2,0.0,2-Back,1.0,m,Mon Jun 22 2026 09:26:52 GMT-0500 (Central Daylight Time),501467.799999997,165_m_m_n_a.png,I,m,989,11,3,2013.7999999970198,499454.0,8075,VNB,A,9
10,test,2,0.0,2-Back,1.0,m,Mon Jun 22 2026 09:26:52 GMT-0500 (Central Daylight Time),503317.3999999985,139_m_f_h_a.png,I,m,829,12,3,1846.8999999985099,501470.5,8075,VNB,A,10
11,test,2,1.0,2-Back,1.0,z,Mon Jun 22 2026 09:26:52 GMT-0500 (Central Daylight Time),505283.5,039_o_m_n_a.png,I,z,940,13,3,1963.4000000022352,503320.09999999776,8075,VNB,A,11
12,test,2,0.0,2-Back,1.0,m,Mon Jun 22 2026 09:26:52 GMT-0500 (Central Daylight Time),507599.3999999985,124_o_f_d_a.png,I,m,1294,14,3,2313.60000000149,505285.799999997,8075,VNB,A,12
13,test,2,0.0,2-Back,1.0,m,Mon Jun 22 2026 09:26:52 GMT-0500 (Central Daylight Time),509765.09999999776,071_y_f_h_a.png,I,m,1138,15,3,2163.39999999851,507601.69999999925,8075,VNB,A,13
14,test,2,0.0,2-Back,1.0,z,Mon Jun 22 2026 09:26:52 GMT-0500 (Central Daylight Time),511614.69999999925,165_m_m_d_a.png,I,z,827,16,3,1846.800000000745,509767.8999999985,8075,VNB,A,14
15,test,2,0.0,2-Back,1.0,m,Mon Jun 22 2026 09:26:52 GMT-0500 (Central Daylight Time),513531.69999999925,109_y_m_n_a.png,I,m,898,17,3,1914.4000000022352,511617.299999997,8075,VNB,A,15
16,test,2,1.0,2-Back,1.0,m,Mon Jun 22 2026 09:26:52 GMT-0500 (Central Daylight Time),515981.19999999925,139_m_f_n_a.png,I,m,1430,18,3,2447.0,513534.19999999925,8075,VNB,A,16
0,test,3,1.0,2-Back,,,Mon Jun 22 2026 09:26:52 GMT-0500 (Central Daylight Time),515981.19999999925,039_o_m_n_a.png,I,space,1068,1,3,2447.0,513534.19999999925,8075,VNB,A,0
0,test,3,1.0,2-Back,,,Mon Jun 22 2026 09:26:52 GMT-0500 (Central Daylight Time),515981.19999999925,124_o_f_d_a.png,I,space,1068,2,3,2447.0,513534.19999999925,8075,VNB,A,0
1,test,3,0.0,2-Back,1.0,m,Mon Jun 22 2026 09:26:52 GMT-0500 (Central Daylight Time),524027.59999999776,071_y_f_h_a.png,I,m,890,3,3,1912.5,522115.09999999776,8075,VNB,A,1
2,test,3,0.0,2-Back,1.0,z,Mon Jun 22 2026 09:26:52 GMT-0500 (Central Daylight Time),525860.299999997,139_m_f_d_a.png,I,z,806,4,3,1830.2999999970198,524030.0,8075,VNB,A,2
3,test,3,1.0,2-Back,1.0,m,Mon Jun 22 2026 09:26:52 GMT-0500 (Central Daylight Time),527892.799999997,109_y_m_n_a.png,I,m,1011,5,3,2030.199999999255,525862.5999999978,8075,VNB,A,3
4,test,3,0.0,2-Back,1.0,m,Mon Jun 22 2026 09:26:52 GMT-0500 (Central Daylight Time),530291.8999999985,039_o_m_h_a.png,I,m,1380,6,3,2396.699999999255,527895.1999999993,8075,VNB,A,4
5,test,3,0.0,2-Back,1.0,z,Mon Jun 22 2026 09:26:52 GMT-0500 (Central Daylight Time),532275.6999999993,071_y_f_n_a.png,I,z,964,7,3,1981.4000000022352,530294.299999997,8075,VNB,A,5
6,test,3,1.0,2-Back,1.0,m,Mon Jun 22 2026 09:26:52 GMT-0500 (Central Daylight Time),534174.1999999993,165_m_m_d_a.png,I,m,871,8,3,1895.6000000014901,532278.5999999978,8075,VNB,A,6
6,test,3,0.0,2-Back,0.0,m,Mon Jun 22 2026 09:26:52 GMT-0500 (Central Daylight Time),536756.799999997,109_y_m_d_a.png,I,z,1563,9,3,2580.2999999970198,534176.5,8075,VNB,A,7
7,test,3,0.0,2-Back,1.0,m,Mon Jun 22 2026 09:26:52 GMT-0500 (Central Daylight Time),538873.0,124_o_f_h_a.png,I,m,1084,10,3,2113.800000000745,536759.1999999993,8075,VNB,A,8
8,test,3,1.0,2-Back,1.0,m,Mon Jun 22 2026 09:26:52 GMT-0500 (Central Daylight Time),540888.6999999993,139_m_f_n_a.png,I,m,991,11,3,2011.5,538877.1999999993,8075,VNB,A,9
9,test,3,1.0,2-Back,1.0,z,Mon Jun 22 2026 09:26:52 GMT-0500 (Central Daylight Time),542955.799999997,165_m_m_h_a.png,I,z,1048,12,3,2064.699999999255,540891.0999999978,8075,VNB,A,10
10,test,3,0.0,2-Back,1.0,m,Mon Jun 22 2026 09:26:52 GMT-0500 (Central Daylight Time),545170.799999997,071_y_f_d_a.png,I,m,1191,13,3,2212.39999999851,542958.3999999985,8075,VNB,A,11
11,test,3,0.0,2-Back,1.0,m,Mon Jun 22 2026 09:26:52 GMT-0500 (Central Daylight Time),547653.299999997,124_o_f_n_a.png,I,m,1453,14,3,2479.89999999851,545173.3999999985,8075,VNB,A,12
12,test,3,0.0,2-Back,1.0,z,Mon Jun 22 2026 09:26:52 GMT-0500 (Central Daylight Time),549586.8999999985,039_o_m_d_a.png,I,z,915,15,3,1930.8999999985099,547656.0,8075,VNB,A,13
13,test,3,1.0,2-Back,1.0,m,Mon Jun 22 2026 09:26:52 GMT-0500 (Central Daylight Time),551435.5,139_m_f_h_a.png,I,m,824,16,3,1845.800000000745,549589.6999999993,8075,VNB,A,14
14,test,3,0.0,2-Back,1.0,m,Mon Jun 22 2026 09:26:52 GMT-0500 (Central Daylight Time),553835.8999999985,165_m_m_n_a.png,I,m,1373,17,3,2396.199999999255,551439.6999999993,8075,VNB,A,15
15,test,3,0.0,2-Back,1.0,z,Mon Jun 22 2026 09:26:52 GMT-0500 (Central Daylight Time),555884.0999999978,109_y_m_h_a.png,I,z,1031,18,3,2045.0999999977648,553839.0,8075,VNB,A,16
0,test,4,0.0,2-Back,,,Mon Jun 22 2026 09:26:52 GMT-0500 (Central Daylight Time),555884.0999999978,139_m_f_n_a.png,I,space,1076,1,3,2045.0999999977648,553839.0,8075,VNB,A,0
0,test,4,0.0,2-Back,,,Mon Jun 22 2026 09:26:52 GMT-0500 (Central Daylight Time),555884.0999999978,039_o_m_n_a.png,I,space,1076,2,3,2045.0999999977648,553839.0,8075,VNB,A,0
1,test,4,1.0,2-Back,1.0,m,Mon Jun 22 2026 09:26:52 GMT-0500 (Central Daylight Time),563998.299999997,109_y_m_h_a.png,I,m,944,3,3,1963.7999999970198,562034.5,8075,VNB,A,1
2,test,4,1.0,2-Back,1.0,m,Mon Jun 22 2026 09:26:52 GMT-0500 (Central Daylight Time),566797.3999999985,124_o_f_d_a.png,I,m,1779,4,3,2796.699999999255,564000.6999999993,8075,VNB,A,2
3,test,4,0.0,2-Back,1.0,z,Mon Jun 22 2026 09:26:52 GMT-0500 (Central Daylight Time),568780.0,039_o_m_h_a.png,I,z,956,5,3,1978.6000000014901,566801.3999999985,8075,VNB,A,3
4,test,4,0.0,2-Back,1.0,m,Mon Jun 22 2026 09:26:52 GMT-0500 (Central Daylight Time),571379.0999999978,165_m_m_n_a.png,I,m,1580,6,3,2596.39999999851,568782.6999999993,8075,VNB,A,4
5,test,4,0.0,2-Back,1.0,m,Mon Jun 22 2026 09:26:52 GMT-0500 (Central Daylight Time),574428.299999997,139_m_f_d_a.png,I,m,1932,7,3,3047.0,571381.299999997,8075,VNB,A,5
5,test,4,0.0,2-Back,0.0,z,Mon Jun 22 2026 09:26:52 GMT-0500 (Central Daylight Time),577460.8999999985,071_y_f_n_a.png,I,None,2016,8,3,3030.10000000149,574430.799999997,8075,VNB,A,6
6,test,4,1.0,2-Back,1.0,m,Mon Jun 22 2026 09:26:52 GMT-0500 (Central Daylight Time),579443.5,124_o_f_h_a.png,I,m,957,9,3,1979.9000000022352,577463.5999999978,8075,VNB,A,7
7,test,4,0.0,2-Back,1.0,m,Mon Jun 22 2026 09:26:52 GMT-0500 (Central Daylight Time),581476.0999999978,165_m_m_h_a.png,I,m,1014,10,3,2030.0,579446.0999999978,8075,VNB,A,8
8,test,4,0.0,2-Back,1.0,m,Mon Jun 22 2026 09:26:52 GMT-0500 (Central Daylight Time),583592.0999999978,071_y_f_d_a.png,I,m,1084,11,3,2112.89999999851,581479.1999999993,8075,VNB,A,9
9,test,4,0.0,2-Back,1.0,m,Mon Jun 22 2026 09:26:52 GMT-0500 (Central Daylight Time),585358.0999999978,109_y_m_n_a.png,I,m,737,12,3,1763.5,583594.5999999978,8075,VNB,A,10
10,test,4,0.0,2-Back,1.0,z,Mon Jun 22 2026 09:26:52 GMT-0500 (Central Daylight Time),587141.0999999978,039_o_m_d_a.png,I,z,762,13,3,1780.5,585360.5999999978,8075,VNB,A,11
11,test,4,1.0,2-Back,1.0,m,Mon Jun 22 2026 09:26:52 GMT-0500 (Central Daylight Time),589073.5999999978,139_m_f_h_a.png,I,m,899,14,3,1929.699999999255,587143.8999999985,8075,VNB,A,12
12,test,4,1.0,2-Back,1.0,m,Mon Jun 22 2026 09:26:52 GMT-0500 (Central Daylight Time),591206.3999999985,071_y_f_h_a.png,I,m,1112,15,3,2130.199999999255,589076.1999999993,8075,VNB,A,13
12,test,4,0.0,2-Back,0.0,m,Mon Jun 22 2026 09:26:52 GMT-0500 (Central Daylight Time),593138.6999999993,124_o_f_n_a.png,I,z,914,16,3,1929.800000000745,591208.8999999985,8075,VNB,A,14
13,test,4,0.0,2-Back,1.0,m,Mon Jun 22 2026 09:26:52 GMT-0500 (Central Daylight Time),595289.5999999978,109_y_m_d_a.png,I,m,1117,17,3,2148.300000000745,593141.299999997,8075,VNB,A,15
14,test,4,1.0,2-Back,1.0,m,Mon Jun 22 2026 09:26:52 GMT-0500 (Central Daylight Time),597555.5999999978,165_m_m_d_a.png,I,m,1240,18,3,2263.39999999851,595292.1999999993,8075,VNB,A,16
0,test,5,1.0,2-Back,,,Mon Jun 22 2026 09:26:52 GMT-0500 (Central Daylight Time),597555.5999999978,071_y_f_d_a.png,I,space,1333,1,3,2263.39999999851,595292.1999999993,8075,VNB,A,0
0,test,5,1.0,2-Back,,,Mon Jun 22 2026 09:26:52 GMT-0500 (Central Daylight Time),597555.5999999978,124_o_f_h_a.png,I,space,1333,2,3,2263.39999999851,595292.1999999993,8075,VNB,A,0
1,test,5,1.0,2-Back,1.0,z,Mon Jun 22 2026 09:26:52 GMT-0500 (Central Daylight Time),606018.5,039_o_m_d_a.png,I,z,1000,3,3,2029.7000000029802,603988.799999997,8075,VNB,A,1
2,test,5,1.0,2-Back,1.0,m,Mon Jun 22 2026 09:26:52 GMT-0500 (Central Daylight Time),608268.5999999978,139_m_f_n_a.png,I,m,1230,4,3,2247.89999999851,606020.6999999993,8075,VNB,A,2
3,test,5,0.0,2-Back,1.0,m,Mon Jun 22 2026 09:26:52 GMT-0500 (Central Daylight Time),610533.299999997,165_m_m_h_a.png,I,m,1245,5,3,2262.199999999255,608271.0999999978,8075,VNB,A,3
4,test,5,0.0,2-Back,1.0,z,Mon Jun 22 2026 09:26:52 GMT-0500 (Central Daylight Time),612566.299999997,071_y_f_n_a.png,I,z,1012,6,3,2030.0999999977648,610536.1999999993,8075,VNB,A,4
5,test,5,0.0,2-Back,1.0,m,Mon Jun 22 2026 09:26:52 GMT-0500 (Central Daylight Time),614515.6999999993,124_o_f_d_a.png,I,m,931,7,3,1947.0,612568.6999999993,8075,VNB,A,5
5,test,5,0.0,2-Back,0.0,m,Mon Jun 22 2026 09:26:52 GMT-0500 (Central Daylight Time),617181.5999999978,039_o_m_h_a.png,I,z,1646,8,3,2663.099999997765,614518.5,8075,VNB,A,6
5,test,5,1.0,2-Back,0.0,z,Mon Jun 22 2026 09:26:52 GMT-0500 (Central Daylight Time),620214.0,139_m_f_d_a.png,I,None,2015,9,3,3029.800000000745,617184.1999999993,8075,VNB,A,7
6,test,5,0.0,2-Back,1.0,m,Mon Jun 22 2026 09:26:52 GMT-0500 (Central Daylight Time),622247.0,109_y_m_n_a.png,I,m,1002,10,3,2030.6000000014901,620216.3999999985,8075,VNB,A,8
7,test,5,0.0,2-Back,1.0,m,Mon Jun 22 2026 09:26:52 GMT-0500 (Central Daylight Time),624729.299999997,165_m_m_n_a.png,I,m,1450,11,3,2479.89999999851,622249.3999999985,8075,VNB,A,9
8,test,5,0.0,2-Back,1.0,m,Mon Jun 22 2026 09:26:52 GMT-0500 (Central Daylight Time),627028.3999999985,071_y_f_h_a.png,I,m,1280,12,3,2296.39999999851,624732.0,8075,VNB,A,10
9,test,5,0.0,2-Back,1.0,m,Mon Jun 22 2026 09:26:52 GMT-0500 (Central Daylight Time),628977.6999999993,109_y_m_d_a.png,I,m,924,13,3,1947.0,627030.6999999993,8075,VNB,A,11
10,test,5,1.0,2-Back,1.0,z,Mon Jun 22 2026 09:26:52 GMT-0500 (Central Daylight Time),630793.799999997,139_m_f_h_a.png,I,z,798,14,3,1813.699999999255,628980.0999999978,8075,VNB,A,12
11,test,5,0.0,2-Back,1.0,m,Mon Jun 22 2026 09:26:52 GMT-0500 (Central Daylight Time),632793.299999997,039_o_m_n_a.png,I,m,966,15,3,1996.7999999970198,630796.5,8075,VNB,A,13
12,test,5,0.0,2-Back,1.0,m,Mon Jun 22 2026 09:26:52 GMT-0500 (Central Daylight Time),635292.5999999978,165_m_m_d_a.png,I,m,1471,16,3,2496.800000000745,632795.799999997,8075,VNB,A,14
13,test,5,0.0,2-Back,1.0,z,Mon Jun 22 2026 09:26:52 GMT-0500 (Central Daylight Time),637808.5,124_o_f_n_a.png,I,z,1484,17,3,2513.2000000029802,635295.299999997,8075,VNB,A,15
14,test,5,1.0,2-Back,1.0,m,Mon Jun 22 2026 09:26:52 GMT-0500 (Central Daylight Time),639757.799999997,109_y_m_h_a.png,I,m,930,18,3,1947.0,637810.799999997,8075,VNB,A,16
