acc_sum,block,block_c,condition,correct,correct_response,datetime,endtime,flanker,jitter,project,response,response_test_buffer_response,response_test_target_response,response_time,response_time_test_buffer_response,response_time_test_target_response,row_sel,session_number,start_end,starttime,subject_id,target,task,task_vers,time_test_buffer,time_test_buffer_response,time_test_constants,time_test_flanker,time_test_jitter,time_test_logger,time_test_target,time_test_target_response,time_test_variables,trial
1,prac,1,con,1,z,Tue May 13 2025 13:05:57 GMT-0500 (Central Daylight Time),82413.5,rage,1000,I,z,,,835,,,15,1,3145.5,79268.0,8047,rage,AF,B,,,,,,,,,,1
2,prac,1,inc,1,z,Tue May 13 2025 13:05:57 GMT-0500 (Central Daylight Time),85444.79999995232,window,1100,I,z,,,626,,,16,1,3025.599999964237,82419.19999998808,8047,temper,AF,B,,,,,,,,,,2
3,prac,1,con,1,m,Tue May 13 2025 13:05:57 GMT-0500 (Central Daylight Time),88194.0,step,800,I,m,,,648,,,1,1,2744.100000023842,85449.89999997616,8047,step,AF,B,,,,,,,,,,3
4,prac,1,inc,1,m,Tue May 13 2025 13:05:57 GMT-0500 (Central Daylight Time),91026.39999997616,elated,900,I,m,,,630,,,6,1,2827.399999976158,88199.0,8047,napkin,AF,B,,,,,,,,,,4
5,prac,1,con,1,m,Tue May 13 2025 13:05:57 GMT-0500 (Central Daylight Time),93909.0,bell,1000,I,m,,,569,,,3,1,2877.300000011921,91031.69999998808,8047,bell,AF,B,,,,,,,,,,5
6,prac,1,inc,1,z,Tue May 13 2025 13:05:57 GMT-0500 (Central Daylight Time),96824.59999996424,napkin,1100,I,z,,,515,,,12,1,2910.800000011921,93913.79999995232,8047,friend,AF,B,,,,,,,,,,6
7,prac,1,con,1,z,Tue May 13 2025 13:05:57 GMT-0500 (Central Daylight Time),99607.0,love,1000,I,z,,,466,,,11,1,2777.900000035763,96829.09999996424,8047,love,AF,B,,,,,,,,,,7
8,prac,1,inc,1,m,Tue May 13 2025 13:05:57 GMT-0500 (Central Daylight Time),102339.5,kind,900,I,m,,,522,,,2,1,2727.800000011921,99611.69999998808,8047,rock,AF,B,,,,,,,,,,8
9,prac,1,con,1,z,Tue May 13 2025 13:05:57 GMT-0500 (Central Daylight Time),105222.0,elated,800,I,z,,,767,,,9,1,2877.800000011921,102344.19999998808,8047,elated,AF,B,,,,,,,,,,9
10,prac,1,inc,1,m,Tue May 13 2025 13:05:57 GMT-0500 (Central Daylight Time),108237.89999997616,brutal,1100,I,m,,,603,,,8,1,3010.800000011921,105227.09999996424,8047,window,AF,B,,,,,,,,,,10
11,prac,1,con,1,m,Tue May 13 2025 13:05:57 GMT-0500 (Central Daylight Time),111270.19999998808,remote,1000,I,m,,,725,,,7,1,3027.400000035763,108242.79999995232,8047,remote,AF,B,,,,,,,,,,11
12,prac,1,inc,1,z,Tue May 13 2025 13:05:57 GMT-0500 (Central Daylight Time),113952.69999998808,rock,900,I,z,,,466,,,10,1,2678.100000023842,111274.59999996424,8047,kind,AF,B,,,,,,,,,,12
13,prac,1,con,1,z,Tue May 13 2025 13:05:57 GMT-0500 (Central Daylight Time),116551.89999997616,brutal,800,I,z,,,483,,,13,1,2595.0,113956.89999997616,8047,brutal,AF,B,,,,,,,,,,13
14,prac,1,inc,1,m,Tue May 13 2025 13:05:57 GMT-0500 (Central Daylight Time),119618.09999996424,hate,1100,I,m,,,657,,,4,1,3061.599999964237,116556.5,8047,film,AF,B,,,,,,,,,,14
15,prac,1,con,1,m,Tue May 13 2025 13:05:57 GMT-0500 (Central Daylight Time),122450.09999996424,jacket,800,I,m,,,723,,,5,1,2827.800000011921,119622.29999995232,8047,jacket,AF,B,,,,,,,,,,15
16,prac,1,inc,1,z,Tue May 13 2025 13:05:57 GMT-0500 (Central Daylight Time),125400.09999996424,film,900,I,z,,,743,,,14,1,2945.599999964237,122454.5,8047,hate,AF,B,,,,,,,,,,16
1,test,1,con,1,m,Tue May 13 2025 13:05:57 GMT-0500 (Central Daylight Time),140427.79999995232,rock,900,I,m,m,None,456,257.0,199.0,74,1,1896.2999999523163,138531.5,8047,rock,AF,B,137462,137462,135833,136746,135833,137729,137263,137263,137729,1
2,test,1,con,1,z,Tue May 13 2025 13:05:57 GMT-0500 (Central Daylight Time),142393.89999997616,love,1000,I,z,z,None,425,225.0,200.0,19,1,1961.5,140432.39999997616,8047,love,AF,B,139462,139462,137733,138745,137734,139695,139262,139262,139695,2
3,test,1,con,1,m,Tue May 13 2025 13:05:57 GMT-0500 (Central Daylight Time),144509.69999998808,step,1000,I,m,m,None,571,371.0,200.0,67,1,2111.300000011921,142398.39999997616,8047,step,AF,B,141428,141428,139699,140712,139700,141811,141228,141228,141811,3
4,test,1,inc,1,m,Tue May 13 2025 13:05:57 GMT-0500 (Central Daylight Time),146392.5,elated,800,I,m,m,None,543,343.0,200.0,101,1,1878.7000000476837,144513.79999995232,8047,jacket,AF,B,143344,143344,141815,142628,141815,143694,143144,143144,143693,4
5,test,1,con,1,m,Tue May 13 2025 13:05:57 GMT-0500 (Central Daylight Time),148408.5,napkin,1000,I,m,m,None,475,276.0,199.0,107,1,2012.0,146396.5,8047,napkin,AF,B,145427,145427,143698,144710,143698,145710,145227,145227,145710,5
6,test,1,inc,1,m,Tue May 13 2025 13:05:57 GMT-0500 (Central Daylight Time),150474.59999996424,love,1000,I,m,m,None,523,324.0,199.0,87,1,2062.0,148412.59999996424,8047,bell,AF,B,147443,147443,145714,146726,145714,147776,147243,147243,147776,6
7,test,1,inc,1,z,Tue May 13 2025 13:05:57 GMT-0500 (Central Daylight Time),152273.89999997616,jacket,800,I,z,z,None,458,258.0,200.0,5,1,1794.800000011921,150479.09999996424,8047,elated,AF,B,149309,149309,147780,148592,147781,149575,149109,149109,149575,7
8,test,1,con,1,m,Tue May 13 2025 13:05:57 GMT-0500 (Central Daylight Time),154290.0,remote,1000,I,m,m,None,483,283.0,200.0,115,1,2011.7000000476837,152278.29999995232,8047,remote,AF,B,151308,151308,149579,150592,149580,151591,151108,151108,151591,8
9,test,1,inc,1,z,Tue May 13 2025 13:05:57 GMT-0500 (Central Daylight Time),156372.69999998808,remote,1000,I,z,z,None,539,339.0,200.0,63,1,2078.300000011921,154294.39999997616,8047,temper,AF,B,153324,153324,151595,152608,151596,153674,153124,153124,153674,9
10,test,1,con,1,m,Tue May 13 2025 13:05:57 GMT-0500 (Central Daylight Time),158505.5,rock,1000,I,m,m,None,582,383.0,199.0,75,1,2128.7000000476837,156376.79999995232,8047,rock,AF,B,155407,155407,153678,154690,153678,155807,155207,155207,155807,10
11,test,1,inc,1,z,Tue May 13 2025 13:05:57 GMT-0500 (Central Daylight Time),160538.19999998808,remote,1000,I,z,z,None,482,283.0,199.0,7,1,2028.4000000357628,158509.79999995232,8047,elated,AF,B,157540,157540,155811,156823,155811,157839,157340,157340,157839,11
11,test,1,con,0,z,Tue May 13 2025 13:05:57 GMT-0500 (Central Daylight Time),162537.59999996424,temper,900,I,m,m,None,551,351.0,200.0,58,1,1995.0999999642372,160542.5,8047,temper,AF,B,159472,159472,157844,158756,157844,159839,159272,159272,159839,12
12,test,1,con,1,m,Tue May 13 2025 13:05:57 GMT-0500 (Central Daylight Time),164553.59999996424,bell,900,I,m,m,None,566,367.0,199.0,82,1,2012.0,162541.59999996424,8047,bell,AF,B,161472,161472,159843,160755,159843,161855,161272,161272,161855,13
13,test,1,inc,1,z,Tue May 13 2025 13:05:57 GMT-0500 (Central Daylight Time),166652.89999997616,bell,1000,I,z,z,None,562,363.0,199.0,47,1,2095.100000023842,164557.79999995232,8047,hate,AF,B,163588,163588,161859,162871,161859,163954,163388,163388,163954,14
14,test,1,inc,1,z,Tue May 13 2025 13:05:57 GMT-0500 (Central Daylight Time),168918.79999995232,window,1100,I,z,z,None,619,420.0,199.0,64,1,2261.7999999523163,166657.0,8047,temper,AF,B,165787,165787,163958,165070,163959,166220,165587,165587,166220,15
15,test,1,con,1,z,Tue May 13 2025 13:05:57 GMT-0500 (Central Daylight Time),170701.69999998808,temper,800,I,z,z,None,438,238.0,200.0,57,1,1778.800000011921,168922.89999997616,8047,temper,AF,B,167753,167753,166224,167036,166224,168003,167553,167553,168003,16
16,test,1,inc,1,z,Tue May 13 2025 13:05:57 GMT-0500 (Central Daylight Time),172717.69999998808,jacket,800,I,z,z,None,678,479.0,199.0,37,1,2011.1000000238419,170706.59999996424,8047,brutal,AF,B,169536,169536,168008,168820,168008,170019,169336,169336,170019,17
17,test,1,con,1,z,Tue May 13 2025 13:05:57 GMT-0500 (Central Daylight Time),174883.59999996424,elated,1000,I,z,z,None,622,423.0,199.0,3,1,2161.899999976158,172721.69999998808,8047,elated,AF,B,171752,171752,170023,171035,170023,172185,171552,171552,172185,18
18,test,1,con,1,m,Tue May 13 2025 13:05:57 GMT-0500 (Central Daylight Time),176882.79999995232,window,1000,I,m,m,None,464,265.0,199.0,123,1,1995.2999999523163,174887.5,8047,window,AF,B,173918,173918,172189,173201,172189,174184,173718,173718,174184,19
19,test,1,inc,1,m,Tue May 13 2025 13:05:57 GMT-0500 (Central Daylight Time),178965.5,kind,900,I,m,m,None,646,446.0,200.0,94,1,2078.5,176887.0,8047,film,AF,B,175817,175817,174188,175101,174188,176267,175617,175617,176267,20
20,test,1,con,1,z,Tue May 13 2025 13:05:57 GMT-0500 (Central Daylight Time),181031.59999996424,friend,1100,I,z,z,None,418,219.0,199.0,28,1,2062.099999964237,178969.5,8047,friend,AF,B,178100,178100,176271,177383,176271,178333,177900,177900,178333,21
21,test,1,inc,1,z,Tue May 13 2025 13:05:57 GMT-0500 (Central Daylight Time),183247.69999998808,window,1100,I,z,z,None,450,244.0,206.0,8,1,2210.5,181037.19999998808,8047,elated,AF,B,180299,180299,178338,179449,178339,180549,180093,180093,180549,22
22,test,1,inc,1,m,Tue May 13 2025 13:05:57 GMT-0500 (Central Daylight Time),185446.89999997616,temper,1000,I,m,m,None,660,461.0,199.0,119,1,2194.100000023842,183252.79999995232,8047,remote,AF,B,182282,182282,180554,181565,180555,182748,182082,182082,182748,23
23,test,1,inc,1,m,Tue May 13 2025 13:05:57 GMT-0500 (Central Daylight Time),187496.19999998808,brutal,900,I,m,m,None,610,410.0,200.0,110,1,2045.1000000238419,185451.09999996424,8047,napkin,AF,B,184381,184381,182752,183665,182752,184797,184181,184181,184797,24
24,test,1,inc,1,m,Tue May 13 2025 13:05:57 GMT-0500 (Central Daylight Time),189495.5,brutal,900,I,m,m,None,551,351.0,200.0,102,1,1995.2000000476837,187500.29999995232,8047,jacket,AF,B,186431,186431,184801,185714,184802,186797,186230,186230,186796,25
25,test,1,inc,1,z,Tue May 13 2025 13:05:57 GMT-0500 (Central Daylight Time),191661.39999997616,window,1100,I,z,z,None,520,321.0,199.0,40,1,2161.899999976158,189499.5,8047,brutal,AF,B,188629,188629,186801,187913,186801,188962,188429,188430,188962,26
26,test,1,con,1,z,Tue May 13 2025 13:05:57 GMT-0500 (Central Daylight Time),193660.89999997616,love,900,I,z,z,None,555,355.0,200.0,18,1,1995.3999999761581,191665.5,8047,love,AF,B,190596,190596,188967,189880,188967,190962,190396,190396,190962,27
27,test,1,inc,1,z,Tue May 13 2025 13:05:57 GMT-0500 (Central Daylight Time),195710.5,napkin,900,I,z,z,None,604,404.0,200.0,38,1,2045.1000000238419,193665.39999997616,8047,brutal,AF,B,192595,192595,190966,191879,190967,193012,192395,192395,193011,28
28,test,1,con,1,z,Tue May 13 2025 13:05:57 GMT-0500 (Central Daylight Time),197626.5,kind,800,I,z,z,None,573,374.0,199.0,9,1,1912.1000000238419,195714.39999997616,8047,kind,AF,B,194545,194545,193015,193828,193016,194928,194345,194345,194928,29
29,test,1,con,1,z,Tue May 13 2025 13:05:57 GMT-0500 (Central Daylight Time),199775.79999995232,brutal,1100,I,z,z,None,502,303.0,199.0,36,1,2145.5,197630.29999995232,8047,brutal,AF,B,196760,196760,194931,196044,194932,197077,196561,196561,197077,30
30,test,1,con,1,m,Tue May 13 2025 13:05:57 GMT-0500 (Central Daylight Time),201591.69999998808,film,800,I,m,m,None,469,269.0,200.0,89,1,1811.9000000357628,199779.79999995232,8047,film,AF,B,198610,198610,197081,197893,197081,198893,198410,198410,198893,31
31,test,1,inc,1,m,Tue May 13 2025 13:05:57 GMT-0500 (Central Daylight Time),203657.79999995232,kind,900,I,m,m,None,625,425.0,200.0,70,1,2062.099999964237,201595.69999998808,8047,step,AF,B,200526,200526,198897,199810,198897,200959,200326,200326,200959,32
32,test,1,inc,1,m,Tue May 13 2025 13:05:57 GMT-0500 (Central Daylight Time),205790.59999996424,hate,1100,I,m,m,None,495,295.0,200.0,72,1,2128.800000011921,203661.79999995232,8047,step,AF,B,202792,202792,200963,202075,200963,203092,202592,202592,203092,33
33,test,1,inc,1,z,Tue May 13 2025 13:05:57 GMT-0500 (Central Daylight Time),207789.79999995232,rock,900,I,z,z,None,561,362.0,199.0,54,1,1995.5,205794.29999995232,8047,rage,AF,B,204725,204725,203095,204008,203096,205091,204525,204525,205091,34
34,test,1,inc,1,m,Tue May 13 2025 13:05:57 GMT-0500 (Central Daylight Time),209906.09999996424,love,1000,I,m,m,None,583,383.0,200.0,95,1,2112.300000011921,207793.79999995232,8047,film,AF,B,206824,206824,205095,206107,205095,207207,206624,206624,207207,35
35,test,1,con,1,m,Tue May 13 2025 13:05:57 GMT-0500 (Central Daylight Time),211955.39999997616,napkin,800,I,m,m,None,707,507.0,200.0,105,1,2045.699999988079,209909.69999998808,8047,napkin,AF,B,208740,208740,207211,208024,207211,209256,208540,208540,209256,36
36,test,1,con,1,m,Tue May 13 2025 13:05:57 GMT-0500 (Central Daylight Time),213871.39999997616,jacket,900,I,m,m,None,478,278.0,200.0,98,1,1912.199999988079,211959.19999998808,8047,jacket,AF,B,210889,210889,209260,210173,209260,211172,210689,210689,211172,37
37,test,1,inc,1,z,Tue May 13 2025 13:05:57 GMT-0500 (Central Daylight Time),215870.69999998808,rock,900,I,z,z,None,561,362.0,199.0,22,1,1995.4000000357628,213875.29999995232,8047,love,AF,B,212805,212805,211176,212089,211177,213172,212606,212606,213172,38
38,test,1,inc,1,m,Tue May 13 2025 13:05:57 GMT-0500 (Central Daylight Time),218170.19999998808,friend,1100,I,m,m,None,649,450.0,199.0,120,1,2295.600000023842,215874.59999996424,8047,remote,AF,B,215005,215005,213176,214289,213176,215471,214805,214805,215471,39
39,test,1,con,1,m,Tue May 13 2025 13:05:57 GMT-0500 (Central Daylight Time),220135.89999997616,remote,900,I,m,m,None,527,327.0,200.0,114,1,1961.6000000238419,218174.29999995232,8047,remote,AF,B,217104,217104,215475,216388,215476,217437,216904,216904,217437,40
40,test,1,inc,1,z,Tue May 13 2025 13:05:57 GMT-0500 (Central Daylight Time),222152.0,bell,1000,I,z,z,None,477,277.0,200.0,15,1,2012.4000000357628,220139.59999996424,8047,kind,AF,B,219170,219170,217441,218454,217441,219453,218970,218970,219453,41
41,test,1,con,1,m,Tue May 13 2025 13:05:57 GMT-0500 (Central Daylight Time),224368.0,rock,1100,I,m,m,None,577,377.0,200.0,76,1,2212.100000023842,222155.89999997616,8047,rock,AF,B,221286,221286,219457,220570,219457,221669,221086,221086,221669,42
42,test,1,con,1,z,Tue May 13 2025 13:05:57 GMT-0500 (Central Daylight Time),226367.39999997616,brutal,800,I,z,z,None,661,461.0,200.0,33,1,1995.1000000238419,224372.29999995232,8047,brutal,AF,B,223202,223202,221673,222486,221674,223668,223002,223002,223668,43
43,test,1,inc,1,m,Tue May 13 2025 13:05:57 GMT-0500 (Central Daylight Time),228583.39999997616,hate,1100,I,m,m,None,577,378.0,199.0,88,1,2212.199999988079,226371.19999998808,8047,bell,AF,B,225501,225501,223672,224785,223673,225884,225302,225302,225884,44
44,test,1,con,1,m,Tue May 13 2025 13:05:57 GMT-0500 (Central Daylight Time),230932.79999995232,remote,1100,I,m,m,None,705,505.0,200.0,116,1,2345.2999999523163,228587.5,8047,remote,AF,B,227717,227718,225888,227015,225889,228234,227517,227517,228234,45
45,test,1,con,1,m,Tue May 13 2025 13:05:57 GMT-0500 (Central Daylight Time),233299.0,window,1100,I,m,m,None,723,524.0,199.0,124,1,2362.5,230936.5,8047,window,AF,B,230067,230067,228238,229350,228238,230600,229867,229867,230600,46
46,test,1,con,1,z,Tue May 13 2025 13:05:57 GMT-0500 (Central Daylight Time),235114.5,elated,800,I,z,z,None,481,281.0,200.0,1,1,1811.6000000238419,233302.89999997616,8047,elated,AF,B,232134,232134,230604,231416,230604,232416,231933,231933,232416,47
47,test,1,con,1,z,Tue May 13 2025 13:05:57 GMT-0500 (Central Daylight Time),236964.19999998808,hate,800,I,z,z,None,514,314.0,200.0,41,1,1846.1000000238419,235118.09999996424,8047,hate,AF,B,233949,233949,232419,233232,232419,234265,233749,233749,234265,48
48,test,1,inc,1,m,Tue May 13 2025 13:05:57 GMT-0500 (Central Daylight Time),239013.5,kind,900,I,m,m,None,613,413.0,200.0,86,1,2045.4000000357628,236968.09999996424,8047,bell,AF,B,235898,235898,234269,235182,234269,236315,235698,235698,236315,49
49,test,1,con,1,z,Tue May 13 2025 13:05:57 GMT-0500 (Central Daylight Time),241262.79999995232,kind,1100,I,z,z,None,603,404.0,199.0,12,1,2245.399999976158,239017.39999997616,8047,kind,AF,B,238147,238147,236318,237431,236319,238564,237948,237948,238564,50
50,test,1,inc,1,z,Tue May 13 2025 13:05:57 GMT-0500 (Central Daylight Time),243262.0,rock,900,I,z,z,None,554,354.0,200.0,14,1,1995.4000000357628,241266.59999996424,8047,kind,AF,B,240197,240197,238568,239481,238568,240563,239997,239997,240563,51
51,test,1,inc,1,z,Tue May 13 2025 13:05:57 GMT-0500 (Central Daylight Time),245211.79999995232,step,800,I,z,z,None,606,406.0,200.0,53,1,1945.8999999761581,243265.89999997616,8047,rage,AF,B,242097,242097,240567,241380,240567,242513,241896,241896,242513,52
52,test,1,inc,1,z,Tue May 13 2025 13:05:57 GMT-0500 (Central Daylight Time),247060.79999995232,step,800,I,z,z,None,504,305.0,199.0,45,1,1845.0999999642372,245215.69999998808,8047,hate,AF,B,244046,244046,242517,243329,242517,244362,243846,243846,244362,53
53,test,1,inc,1,z,Tue May 13 2025 13:05:57 GMT-0500 (Central Daylight Time),248943.59999996424,jacket,800,I,z,z,None,536,336.0,200.0,29,1,1879.0,247064.59999996424,8047,friend,AF,B,245895,245895,244366,245179,244366,246245,245695,245695,246245,54
54,test,1,con,1,z,Tue May 13 2025 13:05:57 GMT-0500 (Central Daylight Time),250959.39999997616,hate,1000,I,z,z,None,468,268.0,200.0,43,1,2012.0,248947.39999997616,8047,hate,AF,B,247978,247978,246248,247261,246249,248260,247778,247778,248260,55
55,test,1,inc,1,m,Tue May 13 2025 13:05:57 GMT-0500 (Central Daylight Time),252909.0,rage,800,I,m,m,None,613,413.0,200.0,69,1,1945.5,250963.5,8047,step,AF,B,249794,249794,248265,249077,248265,250210,249594,249594,250210,56
56,test,1,inc,1,m,Tue May 13 2025 13:05:57 GMT-0500 (Central Daylight Time),254808.5,brutal,900,I,m,m,None,460,260.0,200.0,126,1,1895.5,252913.0,8047,window,AF,B,251843,251843,250214,251127,250214,252110,251643,251643,252110,57
57,test,1,inc,1,z,Tue May 13 2025 13:05:57 GMT-0500 (Central Daylight Time),256708.89999997616,rock,900,I,z,z,None,463,264.0,199.0,46,1,1896.6000000238419,254812.29999995232,8047,hate,AF,B,253743,253743,252113,253026,252114,254010,253543,253543,254010,58
58,test,1,con,1,z,Tue May 13 2025 13:05:57 GMT-0500 (Central Daylight Time),258873.89999997616,temper,1000,I,z,z,None,625,425.0,200.0,59,1,2161.300000011921,256712.59999996424,8047,temper,AF,B,255742,255742,254014,255026,254014,256175,255542,255542,256175,59
59,test,1,inc,1,m,Tue May 13 2025 13:05:57 GMT-0500 (Central Daylight Time),260806.69999998808,elated,800,I,m,m,None,595,395.0,200.0,117,1,1928.9000000357628,258877.79999995232,8047,remote,AF,B,257708,257708,256179,256992,256179,258108,257508,257508,258108,60
60,test,1,inc,1,z,Tue May 13 2025 13:05:57 GMT-0500 (Central Daylight Time),262972.59999996424,remote,1000,I,z,z,None,621,422.0,199.0,39,1,2162.099999964237,260810.5,8047,brutal,AF,B,259841,259841,258112,259124,258112,260274,259641,259641,260274,61
61,test,1,inc,1,m,Tue May 13 2025 13:05:57 GMT-0500 (Central Daylight Time),264955.2999999523,kind,900,I,m,m,None,548,348.0,200.0,78,1,1978.699999988079,262976.59999996424,8047,rock,AF,B,261907,261907,260278,261190,260278,262256,261707,261707,262256,62
62,test,1,con,1,m,Tue May 13 2025 13:05:57 GMT-0500 (Central Daylight Time),267121.5,film,900,I,m,m,None,717,518.0,199.0,90,1,2162.300000011921,264959.1999999881,8047,film,AF,B,263889,263889,262260,263173,262261,264423,263690,263690,264423,63
63,test,1,con,1,m,Tue May 13 2025 13:05:57 GMT-0500 (Central Daylight Time),269420.5,bell,1000,I,m,m,None,755,555.0,200.0,83,1,2295.2000000476837,267125.2999999523,8047,bell,AF,B,266155,266155,264426,265439,264427,266722,265955,265955,266722,64
64,test,1,inc,1,m,Tue May 13 2025 13:05:57 GMT-0500 (Central Daylight Time),271370.0,rage,800,I,m,m,None,616,416.0,200.0,93,1,1945.6000000238419,269424.39999997616,8047,film,AF,B,268255,268255,266725,267539,266726,268671,268055,268055,268671,65
65,test,1,con,1,z,Tue May 13 2025 13:05:57 GMT-0500 (Central Daylight Time),273519.1999999881,friend,900,I,z,z,None,711,511.0,200.0,26,1,2145.400000035763,271373.7999999523,8047,friend,AF,B,270304,270304,268675,269588,268675,270820,270104,270104,270820,66
66,test,1,inc,1,z,Tue May 13 2025 13:05:57 GMT-0500 (Central Daylight Time),275702.09999996424,bell,1000,I,z,z,None,645,446.0,199.0,55,1,2179.0,273523.09999996424,8047,rage,AF,B,272553,272553,270824,271837,270825,273003,272354,272354,273003,67
67,test,1,con,1,z,Tue May 13 2025 13:05:57 GMT-0500 (Central Daylight Time),277568.2999999523,rage,900,I,z,z,None,427,227.0,200.0,50,1,1862.199999988079,275706.09999996424,8047,rage,AF,B,274636,274636,273007,273920,273007,274869,274436,274436,274869,68
68,test,1,con,1,m,Tue May 13 2025 13:05:57 GMT-0500 (Central Daylight Time),279467.39999997616,window,900,I,m,m,None,465,265.0,200.0,122,1,1895.300000011921,277572.09999996424,8047,window,AF,B,276502,276502,274873,275786,274874,276768,276302,276302,276768,69
69,test,1,con,1,z,Tue May 13 2025 13:05:57 GMT-0500 (Central Daylight Time),281516.7999999523,elated,900,I,z,z,None,605,406.0,199.0,2,1,2045.5,279471.2999999523,8047,elated,AF,B,278401,278401,276772,277685,276773,278818,278202,278202,278818,70
70,test,1,con,1,m,Tue May 13 2025 13:05:57 GMT-0500 (Central Daylight Time),283449.59999996424,bell,800,I,m,m,None,584,384.0,200.0,81,1,1929.0,281520.59999996424,8047,bell,AF,B,280351,280351,278822,279635,278822,280751,280151,280151,280751,71
71,test,1,inc,1,z,Tue May 13 2025 13:05:57 GMT-0500 (Central Daylight Time),285615.2999999523,film,1100,I,z,z,None,526,327.0,199.0,56,1,2161.899999976158,283453.39999997616,8047,rage,AF,B,282584,282584,280754,281867,280755,282916,282384,282384,282916,72
72,test,1,con,1,z,Tue May 13 2025 13:05:57 GMT-0500 (Central Daylight Time),287764.89999997616,brutal,1000,I,z,z,None,612,413.0,199.0,35,1,2145.800000011921,285619.09999996424,8047,brutal,AF,B,284650,284650,282920,283933,282920,285066,284450,284450,285066,73
73,test,1,inc,1,z,Tue May 13 2025 13:05:57 GMT-0500 (Central Daylight Time),289780.7999999523,napkin,900,I,z,z,None,572,372.0,200.0,30,1,2011.7999999523163,287769.0,8047,friend,AF,B,286699,286699,285070,285983,285070,287082,286499,286499,287082,74
74,test,1,con,1,z,Tue May 13 2025 13:05:57 GMT-0500 (Central Daylight Time),291597.0,rage,800,I,z,z,None,472,272.0,200.0,49,1,1812.4000000357628,289784.59999996424,8047,rage,AF,B,288615,288615,287086,287899,287086,288898,288415,288415,288898,75
75,test,1,con,1,m,Tue May 13 2025 13:05:57 GMT-0500 (Central Daylight Time),293762.7999999523,napkin,1100,I,m,m,None,524,324.0,200.0,108,1,2162.199999988079,291600.59999996424,8047,napkin,AF,B,290731,290731,288902,290015,288902,291064,290531,290531,291064,76
76,test,1,con,1,z,Tue May 13 2025 13:05:57 GMT-0500 (Central Daylight Time),295928.89999997616,kind,900,I,z,z,None,717,517.0,200.0,10,1,2162.300000011921,293766.59999996424,8047,kind,AF,B,292697,292697,291068,291981,291068,293230,292497,292497,293230,77
77,test,1,inc,1,m,Tue May 13 2025 13:05:57 GMT-0500 (Central Daylight Time),297828.0,elated,800,I,m,m,None,564,364.0,200.0,125,1,1895.1000000238419,295932.89999997616,8047,window,AF,B,294763,294763,293234,294047,293234,295129,294563,294563,295129,78
78,test,1,con,1,m,Tue May 13 2025 13:05:57 GMT-0500 (Central Daylight Time),299894.39999997616,rock,800,I,m,m,None,727,528.0,199.0,73,1,2062.399999976158,297832.0,8047,rock,AF,B,296663,296663,295133,295946,295133,297195,296463,296463,297195,79
79,test,1,inc,1,z,Tue May 13 2025 13:05:57 GMT-0500 (Central Daylight Time),302060.5,remote,1000,I,z,z,None,630,431.0,199.0,31,1,2162.400000035763,299898.09999996424,8047,friend,AF,B,298928,298928,297199,298212,297200,299362,298729,298729,299362,80
80,test,1,con,1,m,Tue May 13 2025 13:05:57 GMT-0500 (Central Daylight Time),304043.0,remote,800,I,m,m,None,648,449.0,199.0,113,1,1978.800000011921,302064.1999999881,8047,remote,AF,B,300894,300894,299365,300178,299366,301344,300695,300695,301344,81
81,test,1,con,1,z,Tue May 13 2025 13:05:57 GMT-0500 (Central Daylight Time),305909.2999999523,friend,800,I,z,z,None,530,330.0,200.0,25,1,1862.5999999642372,304046.6999999881,8047,friend,AF,B,302877,302877,301348,302161,301348,303210,302677,302677,303210,82
82,test,1,inc,1,z,Tue May 13 2025 13:05:57 GMT-0500 (Central Daylight Time),308191.6999999881,film,1100,I,z,z,None,636,436.0,200.0,16,1,2278.199999988079,305913.5,8047,kind,AF,B,305043,305043,303215,304328,303215,305493,304843,304843,305493,83
83,test,1,con,1,m,Tue May 13 2025 13:05:57 GMT-0500 (Central Daylight Time),310224.5,step,900,I,m,m,None,592,392.0,200.0,66,1,2028.800000011921,308195.6999999881,8047,step,AF,B,307126,307126,305497,306409,305497,307526,306926,306926,307526,84
84,test,1,con,1,z,Tue May 13 2025 13:05:57 GMT-0500 (Central Daylight Time),312257.1999999881,hate,900,I,z,z,None,584,383.0,201.0,42,1,2028.6000000238419,310228.59999996424,8047,hate,AF,B,309160,309160,307530,308442,307530,309558,308958,308958,309558,85
85,test,1,inc,1,m,Tue May 13 2025 13:05:57 GMT-0500 (Central Daylight Time),314406.59999996424,temper,1000,I,m,m,None,604,404.0,200.0,111,1,2145.699999988079,312260.89999997616,8047,napkin,AF,B,311291,311291,309562,310575,309562,311708,311091,311091,311708,86
86,test,1,con,1,m,Tue May 13 2025 13:05:57 GMT-0500 (Central Daylight Time),316322.5,jacket,800,I,m,m,None,574,375.0,199.0,97,1,1912.0,314410.5,8047,jacket,AF,B,313240,313240,311712,312524,311712,313624,313041,313041,313624,87
87,test,1,con,1,z,Tue May 13 2025 13:05:57 GMT-0500 (Central Daylight Time),318505.09999996424,kind,1000,I,z,z,None,634,435.0,199.0,11,1,2179.0,316326.09999996424,8047,kind,AF,B,315356,315356,313627,314640,313627,315806,315157,315157,315806,88
88,test,1,con,1,z,Tue May 13 2025 13:05:57 GMT-0500 (Central Daylight Time),320737.6999999881,rage,1000,I,z,z,None,692,492.0,200.0,51,1,2228.300000011921,318509.39999997616,8047,rage,AF,B,317539,317539,315810,316823,315811,318039,317339,317339,318039,89
89,test,1,inc,1,z,Tue May 13 2025 13:05:57 GMT-0500 (Central Daylight Time),322870.59999996424,film,1100,I,z,z,None,495,295.0,200.0,48,1,2129.300000011921,320741.2999999523,8047,hate,AF,B,319872,319872,318042,319156,318043,320172,319672,319672,320172,90
90,test,1,inc,1,m,Tue May 13 2025 13:05:57 GMT-0500 (Central Daylight Time),325036.5,love,1000,I,m,m,None,606,406.0,200.0,71,1,2162.300000011921,322874.1999999881,8047,step,AF,B,321921,321921,320175,321216,320176,322338,321721,321721,322338,91
91,test,1,inc,1,m,Tue May 13 2025 13:05:57 GMT-0500 (Central Daylight Time),327335.7999999523,hate,1100,I,m,m,None,659,460.0,199.0,80,1,2295.5,325040.2999999523,8047,rock,AF,B,324171,324171,322341,323454,322342,324637,323971,323971,324637,92
92,test,1,inc,1,m,Tue May 13 2025 13:05:57 GMT-0500 (Central Daylight Time),329251.5,elated,800,I,m,m,None,581,381.0,200.0,109,1,1912.0,327339.5,8047,napkin,AF,B,326170,326170,324641,325454,324641,326553,325970,325970,326553,93
93,test,1,con,1,z,Tue May 13 2025 13:05:57 GMT-0500 (Central Daylight Time),331434.6999999881,friend,1000,I,z,z,None,640,440.0,200.0,27,1,2179.600000023842,329255.09999996424,8047,friend,AF,B,328286,328286,326556,327569,326557,328736,328086,328086,328736,94
94,test,1,con,1,m,Tue May 13 2025 13:05:57 GMT-0500 (Central Daylight Time),333517.09999996424,film,1100,I,m,m,None,437,238.0,199.0,92,1,2078.399999976158,331438.6999999881,8047,film,AF,B,330569,330569,328740,329852,328740,330818,330369,330369,330818,95
95,test,1,inc,1,z,Tue May 13 2025 13:05:57 GMT-0500 (Central Daylight Time),335616.59999996424,bell,1000,I,z,z,None,552,352.0,200.0,23,1,2095.599999964237,333521.0,8047,love,AF,B,332551,332551,330822,331835,330822,332918,332351,332351,332918,96
96,test,1,con,1,m,Tue May 13 2025 13:05:57 GMT-0500 (Central Daylight Time),337582.59999996424,window,800,I,m,m,None,620,419.0,201.0,121,1,1962.199999988079,335620.39999997616,8047,window,AF,B,334452,334452,332921,333734,332922,334884,334251,334251,334884,97
97,test,1,con,1,m,Tue May 13 2025 13:05:57 GMT-0500 (Central Daylight Time),339898.2999999523,step,1100,I,m,m,None,681,482.0,199.0,68,1,2312.0,337586.2999999523,8047,step,AF,B,336717,336717,334887,336000,334888,337199,336517,336517,337199,98
98,test,1,con,1,m,Tue May 13 2025 13:05:57 GMT-0500 (Central Daylight Time),342130.89999997616,bell,1100,I,m,m,None,598,399.0,199.0,84,1,2228.800000011921,339902.09999996424,8047,bell,AF,B,339032,339032,337203,338316,337204,339432,338833,338833,339432,99
99,test,1,inc,1,z,Tue May 13 2025 13:05:57 GMT-0500 (Central Daylight Time),344013.7999999523,jacket,800,I,z,z,None,538,338.0,200.0,61,1,1879.2999999523163,342134.5,8047,temper,AF,B,340965,340965,339436,340249,339436,341315,340765,340765,341315,100
100,test,1,inc,1,z,Tue May 13 2025 13:05:57 GMT-0500 (Central Daylight Time),346296.5,window,1100,I,z,z,None,633,434.0,199.0,32,1,2279.0,344017.5,8047,friend,AF,B,343148,343148,341319,342432,341319,343598,342948,342948,343598,101
101,test,1,inc,1,z,Tue May 13 2025 13:05:57 GMT-0500 (Central Daylight Time),348212.5,napkin,900,I,z,z,None,494,280.0,214.0,62,1,1912.1000000238419,346300.39999997616,8047,temper,AF,B,345231,345231,343601,344514,343602,345514,345016,345016,345514,102
102,test,1,inc,1,z,Tue May 13 2025 13:05:57 GMT-0500 (Central Daylight Time),350228.39999997616,napkin,900,I,z,z,None,579,380.0,199.0,6,1,2011.8999999761581,348216.5,8047,elated,AF,B,347147,347147,345518,346430,345518,347529,346947,346947,347529,103
103,test,1,inc,1,z,Tue May 13 2025 13:05:57 GMT-0500 (Central Daylight Time),352094.59999996424,step,800,I,z,z,None,527,328.0,199.0,21,1,1862.5,350232.09999996424,8047,love,AF,B,349063,349063,347533,348346,347533,349396,348863,348863,349396,104
104,test,1,con,1,m,Tue May 13 2025 13:05:57 GMT-0500 (Central Daylight Time),354093.89999997616,step,800,I,m,m,None,662,462.0,200.0,65,1,1995.5,352098.39999997616,8047,step,AF,B,350929,350929,349399,350212,349400,351395,350729,350729,351395,105
105,test,1,inc,1,m,Tue May 13 2025 13:05:57 GMT-0500 (Central Daylight Time),356293.2999999523,friend,1100,I,m,m,None,555,355.0,200.0,112,1,2195.699999988079,354097.59999996424,8047,napkin,AF,B,353228,353228,351399,352512,351399,353594,353028,353028,353594,106
106,test,1,inc,1,m,Tue May 13 2025 13:05:57 GMT-0500 (Central Daylight Time),358376.89999997616,temper,1000,I,m,m,None,542,343.0,199.0,103,1,2079.600000023842,356297.2999999523,8047,jacket,AF,B,355327,355327,353598,354611,353599,355678,355128,355128,355678,107
107,test,1,inc,1,z,Tue May 13 2025 13:05:57 GMT-0500 (Central Daylight Time),360591.7999999523,film,1100,I,z,z,None,577,377.0,200.0,24,1,2210.899999976158,358380.89999997616,8047,love,AF,B,357510,357510,355682,356794,355682,357893,357310,357310,357893,108
108,test,1,inc,1,m,Tue May 13 2025 13:05:57 GMT-0500 (Central Daylight Time),362858.0,hate,1100,I,m,m,None,617,417.0,200.0,96,1,2262.300000011921,360595.6999999881,8047,film,AF,B,359726,359726,357897,359010,357897,360159,359526,359526,360159,109
109,test,1,con,1,z,Tue May 13 2025 13:05:57 GMT-0500 (Central Daylight Time),365040.59999996424,hate,1100,I,z,z,None,543,343.0,200.0,44,1,2178.599999964237,362862.0,8047,hate,AF,B,361992,361992,360163,361276,360163,362342,361792,361792,362342,110
110,test,1,con,1,z,Tue May 13 2025 13:05:57 GMT-0500 (Central Daylight Time),367156.6999999881,rage,1100,I,z,z,None,471,272.0,199.0,52,1,2111.800000011921,365044.89999997616,8047,rage,AF,B,364175,364175,362346,363458,362346,364458,363975,363975,364458,111
111,test,1,con,1,z,Tue May 13 2025 13:05:57 GMT-0500 (Central Daylight Time),368922.5,love,800,I,z,z,None,432,232.0,200.0,17,1,1762.1000000238419,367160.39999997616,8047,love,AF,B,365991,365991,364461,365274,364462,366224,365791,365791,366223,112
112,test,1,con,1,z,Tue May 13 2025 13:05:57 GMT-0500 (Central Daylight Time),371055.1999999881,temper,1100,I,z,z,None,495,295.0,200.0,60,1,2129.300000011921,368925.89999997616,8047,temper,AF,B,368057,368057,366227,367340,366227,368356,367857,367857,368356,113
113,test,1,inc,1,m,Tue May 13 2025 13:05:57 GMT-0500 (Central Daylight Time),373138.1999999881,friend,1100,I,m,m,None,450,250.0,200.0,128,1,2078.600000023842,371059.59999996424,8047,window,AF,B,370189,370189,368361,369473,368361,370439,369989,369989,370439,114
114,test,1,inc,1,z,Tue May 13 2025 13:05:57 GMT-0500 (Central Daylight Time),375070.59999996424,step,800,I,z,z,None,586,387.0,199.0,13,1,1928.5999999642372,373142.0,8047,kind,AF,B,371972,371972,370443,371256,370443,372372,371773,371773,372372,115
115,test,1,inc,1,m,Tue May 13 2025 13:05:57 GMT-0500 (Central Daylight Time),377186.89999997616,friend,1100,I,m,m,None,474,274.0,200.0,104,1,2112.5,375074.39999997616,8047,jacket,AF,B,374205,374205,372375,373488,372376,374488,374005,374005,374488,116
116,test,1,con,1,z,Tue May 13 2025 13:05:57 GMT-0500 (Central Daylight Time),379169.59999996424,brutal,900,I,z,z,None,542,342.0,200.0,34,1,1979.0999999642372,377190.5,8047,brutal,AF,B,376121,376121,374492,375405,374492,376471,375921,375921,376471,117
117,test,1,inc,1,m,Tue May 13 2025 13:05:57 GMT-0500 (Central Daylight Time),381352.2999999523,temper,1000,I,m,m,None,642,443.0,199.0,127,1,2179.0,379173.2999999523,8047,window,AF,B,378204,378204,376474,377487,376475,378653,378004,378004,378653,118
118,test,1,con,1,m,Tue May 13 2025 13:05:57 GMT-0500 (Central Daylight Time),383585.0,jacket,1000,I,m,m,None,693,493.0,200.0,99,1,2229.0,381356.0,8047,jacket,AF,B,380386,380386,378657,379670,378657,380886,380186,380186,380886,119
119,test,1,inc,1,m,Tue May 13 2025 13:05:57 GMT-0500 (Central Daylight Time),385700.89999997616,love,1000,I,m,m,None,580,380.0,200.0,79,1,2111.800000011921,383589.09999996424,8047,rock,AF,B,382619,382619,380890,381903,380890,383002,382419,382419,383002,120
120,test,1,inc,1,m,Tue May 13 2025 13:05:57 GMT-0500 (Central Daylight Time),387817.0,brutal,900,I,m,m,None,676,476.0,200.0,118,1,2112.300000011921,385704.6999999881,8047,remote,AF,B,384635,384635,383006,383918,383006,385118,384435,384435,385118,121
121,test,1,con,1,z,Tue May 13 2025 13:05:57 GMT-0500 (Central Daylight Time),389949.5,elated,1100,I,z,z,None,496,296.0,200.0,4,1,2128.5,387821.0,8047,elated,AF,B,386951,386951,385122,386235,385122,387251,386751,386751,387251,122
122,test,1,inc,1,m,Tue May 13 2025 13:05:57 GMT-0500 (Central Daylight Time),391798.7999999523,rage,800,I,m,m,None,510,311.0,199.0,77,1,1845.699999988079,389953.09999996424,8047,rock,AF,B,388784,388784,387254,388067,387254,389100,388584,388584,389100,123
123,test,1,inc,1,m,Tue May 13 2025 13:05:57 GMT-0500 (Central Daylight Time),393748.39999997616,rage,800,I,m,m,None,606,406.0,200.0,85,1,1945.199999988079,391803.1999999881,8047,bell,AF,B,390633,390633,389104,389917,389105,391049,390433,390433,391049,124
124,test,1,con,1,m,Tue May 13 2025 13:05:57 GMT-0500 (Central Daylight Time),395914.09999996424,film,1000,I,m,m,None,640,441.0,199.0,91,1,2162.0,393752.09999996424,8047,film,AF,B,392766,392766,391053,392060,391053,393215,392566,392566,393215,125
125,test,1,con,1,m,Tue May 13 2025 13:05:57 GMT-0500 (Central Daylight Time),398080.1999999881,jacket,1100,I,m,m,None,519,319.0,200.0,100,1,2162.100000023842,395918.09999996424,8047,jacket,AF,B,395048,395048,393219,394332,393219,395381,394848,394848,395381,126
126,test,1,con,1,m,Tue May 13 2025 13:05:57 GMT-0500 (Central Daylight Time),399963.0,napkin,900,I,m,m,None,441,241.0,200.0,106,1,1879.1000000238419,398083.89999997616,8047,napkin,AF,B,397014,397014,395385,396298,395385,397264,396814,396814,397264,127
127,test,1,con,1,z,Tue May 13 2025 13:05:57 GMT-0500 (Central Daylight Time),401995.6999999881,love,1100,I,z,z,None,398,198.0,200.0,20,1,2029.0,399966.6999999881,8047,love,AF,B,399097,399097,397268,398381,397268,399297,398897,398897,399297,128
