acc_sum,block,block_c,change,condition,correct,correct_response,datetime,endtime,face,project,response,response_time,row_sel,session_number,start_end,starttime,subject_id,task,task_vers,trial
0,prac,1,,1-Back,,,Tue Apr 28 2026 17:40:33 GMT-0500 (Central Daylight Time),,005_o_f_d_a.png,I,space,3679,1,,,,8068,VNB,B,0
0,prac,1,0.0,1-Back,0.0,m,Tue Apr 28 2026 17:40:33 GMT-0500 (Central Daylight Time),171734.89999997616,020_y_f_n_a.png,I,None,2016,2,,2870.2000000476837,168864.69999992847,8068,VNB,B,1
0,prac,1,0.0,1-Back,0.0,m,Tue Apr 28 2026 17:40:33 GMT-0500 (Central Daylight Time),174617.0,007_m_m_h_a.png,I,None,2016,3,,2877.8000000715256,171739.19999992847,8068,VNB,B,2
1,prac,1,0.0,1-Back,1.0,m,Tue Apr 28 2026 17:40:33 GMT-0500 (Central Daylight Time),177350.89999997616,016_y_m_d_a.png,I,m,1841,4,,2724.5,174626.39999997616,8068,VNB,B,3
2,prac,1,0.0,1-Back,1.0,m,Tue Apr 28 2026 17:40:33 GMT-0500 (Central Daylight Time),179565.89999997616,005_o_f_n_a.png,I,m,1342,5,,2211.600000023842,177354.29999995232,8068,VNB,B,4
2,prac,1,1.0,1-Back,0.0,z,Tue Apr 28 2026 17:40:33 GMT-0500 (Central Daylight Time),181582.10000002384,016_y_m_n_a.png,I,m,1118,6,,2007.8000000715256,179574.29999995232,8068,VNB,B,5
2,prac,1,0.0,1-Back,0.0,m,Tue Apr 28 2026 17:40:33 GMT-0500 (Central Daylight Time),184430.69999992847,004_o_m_h_a.png,I,None,2003,7,,2843.899999976158,181586.79999995232,8068,VNB,B,6
3,prac,1,0.0,1-Back,1.0,m,Tue Apr 28 2026 17:40:33 GMT-0500 (Central Daylight Time),185397.60000002384,011_m_f_d_a.png,I,m,87,8,,958.4000000953674,184439.19999992847,8068,VNB,B,7
3,prac,1,1.0,1-Back,0.0,z,Tue Apr 28 2026 17:40:33 GMT-0500 (Central Daylight Time),188230.89999997616,020_y_f_d_a.png,I,None,2001,9,,2829.7999999523163,185401.10000002384,8068,VNB,B,8
3,prac,1,0.0,1-Back,0.0,m,Tue Apr 28 2026 17:40:33 GMT-0500 (Central Daylight Time),191128.79999995232,007_m_m_n_a.png,I,None,2013,10,,2888.399999976158,188240.39999997616,8068,VNB,B,9
4,prac,1,0.0,1-Back,1.0,m,Tue Apr 28 2026 17:40:33 GMT-0500 (Central Daylight Time),193457.10000002384,005_o_f_h_a.png,I,m,1378,11,,2324.2000000476837,191132.89999997616,8068,VNB,B,10
5,prac,1,0.0,1-Back,1.0,m,Tue Apr 28 2026 17:40:33 GMT-0500 (Central Daylight Time),195927.5,016_y_m_d_a.png,I,m,1581,12,,2461.2000000476837,193466.29999995232,8068,VNB,B,11
0,prac,2,0.0,1-Back,,,Tue Apr 28 2026 17:40:33 GMT-0500 (Central Daylight Time),195927.5,005_o_f_d_a.png,I,a,6942,1,,2461.2000000476837,193466.29999995232,8068,VNB,B,0
1,prac,2,0.0,1-Back,1.0,m,Tue Apr 28 2026 17:40:33 GMT-0500 (Central Daylight Time),207924.60000002384,020_y_f_n_a.png,I,m,1164,2,,2007.3000000715256,205917.29999995232,8068,VNB,B,1
2,prac,2,0.0,1-Back,1.0,m,Tue Apr 28 2026 17:40:33 GMT-0500 (Central Daylight Time),210389.69999992847,007_m_m_h_a.png,I,m,1595,3,,2461.5,207928.19999992847,8068,VNB,B,2
3,prac,2,0.0,1-Back,1.0,m,Tue Apr 28 2026 17:40:33 GMT-0500 (Central Daylight Time),212555.60000002384,016_y_m_d_a.png,I,m,1378,4,,2157.600000023842,210398.0,8068,VNB,B,3
3,prac,2,0.0,1-Back,0.0,m,Tue Apr 28 2026 17:40:33 GMT-0500 (Central Daylight Time),215421.0,005_o_f_n_a.png,I,None,2008,5,,2861.8000000715256,212559.19999992847,8068,VNB,B,4
3,prac,2,1.0,1-Back,0.0,z,Tue Apr 28 2026 17:40:33 GMT-0500 (Central Daylight Time),218320.29999995232,016_y_m_n_a.png,I,None,2017,6,,2890.1999999284744,215430.10000002384,8068,VNB,B,5
4,prac,2,0.0,1-Back,1.0,m,Tue Apr 28 2026 17:40:33 GMT-0500 (Central Daylight Time),220736.29999995232,004_o_m_h_a.png,I,m,1554,7,,2412.100000023842,218324.19999992847,8068,VNB,B,6
5,prac,2,0.0,1-Back,1.0,m,Tue Apr 28 2026 17:40:33 GMT-0500 (Central Daylight Time),223302.10000002384,011_m_f_d_a.png,I,m,1688,8,,2558.0,220744.10000002384,8068,VNB,B,7
6,prac,2,1.0,1-Back,1.0,z,Tue Apr 28 2026 17:40:33 GMT-0500 (Central Daylight Time),226118.0,020_y_f_d_a.png,I,z,1953,9,,2812.600000023842,223305.39999997616,8068,VNB,B,8
7,prac,2,0.0,1-Back,1.0,m,Tue Apr 28 2026 17:40:33 GMT-0500 (Central Daylight Time),228550.29999995232,007_m_m_n_a.png,I,m,1534,10,,2422.5,226127.79999995232,8068,VNB,B,9
8,prac,2,0.0,1-Back,1.0,m,Tue Apr 28 2026 17:40:33 GMT-0500 (Central Daylight Time),230766.60000002384,005_o_f_h_a.png,I,m,1351,11,,2212.8000000715256,228553.79999995232,8068,VNB,B,10
9,prac,2,0.0,1-Back,1.0,m,Tue Apr 28 2026 17:40:33 GMT-0500 (Central Daylight Time),232782.5,016_y_m_d_a.png,I,m,1117,12,,2007.2000000476837,230775.29999995232,8068,VNB,B,11
0,test,1,0.0,1-Back,,,Tue Apr 28 2026 17:40:33 GMT-0500 (Central Daylight Time),232782.5,020_y_f_d_a.png,I,space,2976,1,,2007.2000000476837,230775.29999995232,8068,VNB,B,0
1,test,1,0.0,1-Back,1.0,m,Tue Apr 28 2026 17:40:33 GMT-0500 (Central Daylight Time),245595.10000002384,011_m_f_n_a.png,I,m,1805,2,,2824.4000000953674,242770.69999992847,8068,VNB,B,1
2,test,1,0.0,1-Back,1.0,m,Tue Apr 28 2026 17:40:33 GMT-0500 (Central Daylight Time),248294.39999997616,004_o_m_h_a.png,I,m,1676,3,,2696.7999999523163,245597.60000002384,8068,VNB,B,2
3,test,1,1.0,1-Back,1.0,z,Tue Apr 28 2026 17:40:33 GMT-0500 (Central Daylight Time),250544.10000002384,007_m_m_h_a.png,I,z,1218,4,,2242.9000000953674,248301.19999992847,8068,VNB,B,3
4,test,1,0.0,1-Back,1.0,m,Tue Apr 28 2026 17:40:33 GMT-0500 (Central Daylight Time),252892.89999997616,005_o_f_n_a.png,I,m,1329,5,,2346.399999976158,250546.5,8068,VNB,B,4
5,test,1,0.0,1-Back,1.0,m,Tue Apr 28 2026 17:40:33 GMT-0500 (Central Daylight Time),255492.19999992847,016_y_m_d_a.png,I,m,1571,6,,2593.0,252899.19999992847,8068,VNB,B,5
6,test,1,1.0,1-Back,1.0,z,Tue Apr 28 2026 17:40:33 GMT-0500 (Central Daylight Time),258407.60000002384,011_m_f_d_a.png,I,z,1883,7,,2912.9000000953674,255494.69999992847,8068,VNB,B,6
7,test,1,0.0,1-Back,1.0,m,Tue Apr 28 2026 17:40:33 GMT-0500 (Central Daylight Time),261023.5,020_y_f_h_a.png,I,m,1582,8,,2610.5,258413.0,8068,VNB,B,7
8,test,1,0.0,1-Back,1.0,m,Tue Apr 28 2026 17:40:33 GMT-0500 (Central Daylight Time),263173.0,004_o_m_n_a.png,I,m,1129,9,,2146.899999976158,261026.10000002384,8068,VNB,B,8
9,test,1,0.0,1-Back,1.0,m,Tue Apr 28 2026 17:40:33 GMT-0500 (Central Daylight Time),265988.6999999285,016_y_m_h_a.png,I,m,1669,10,,2809.399999976158,263179.2999999523,8068,VNB,B,9
9,test,1,0.0,1-Back,0.0,m,Tue Apr 28 2026 17:40:33 GMT-0500 (Central Daylight Time),269021.0,004_o_m_d_a.png,I,None,2016,11,,3029.8000000715256,265991.1999999285,8068,VNB,B,10
10,test,1,1.0,1-Back,1.0,z,Tue Apr 28 2026 17:40:33 GMT-0500 (Central Daylight Time),271420.39999997616,005_o_f_d_a.png,I,z,1378,12,,2394.5,269025.89999997616,8068,VNB,B,11
11,test,1,0.0,1-Back,1.0,m,Tue Apr 28 2026 17:40:33 GMT-0500 (Central Daylight Time),273787.1999999285,007_m_m_n_a.png,I,m,1347,13,,2364.399999976158,271422.7999999523,8068,VNB,B,12
12,test,1,1.0,1-Back,1.0,z,Tue Apr 28 2026 17:40:33 GMT-0500 (Central Daylight Time),276518.6999999285,020_y_f_n_a.png,I,z,1702,14,,2724.399999976158,273794.2999999523,8068,VNB,B,13
13,test,1,0.0,1-Back,1.0,m,Tue Apr 28 2026 17:40:33 GMT-0500 (Central Daylight Time),278784.60000002384,011_m_f_h_a.png,I,m,1234,15,,2263.3000000715256,276521.2999999523,8068,VNB,B,14
14,test,1,0.0,1-Back,1.0,m,Tue Apr 28 2026 17:40:33 GMT-0500 (Central Daylight Time),281200.60000002384,007_m_m_d_a.png,I,m,1399,16,,2409.4000000953674,278791.1999999285,8068,VNB,B,15
14,test,1,0.0,1-Back,0.0,m,Tue Apr 28 2026 17:40:33 GMT-0500 (Central Daylight Time),283333.2999999523,016_y_m_n_a.png,I,z,1111,17,,2130.5,281202.7999999523,8068,VNB,B,16
15,test,1,0.0,1-Back,1.0,m,Tue Apr 28 2026 17:40:33 GMT-0500 (Central Daylight Time),285649.1999999285,005_o_f_h_a.png,I,m,1291,18,,2310.2999999523163,283338.89999997616,8068,VNB,B,17
0,test,2,0.0,1-Back,,,Tue Apr 28 2026 17:40:33 GMT-0500 (Central Daylight Time),285649.1999999285,016_y_m_n_a.png,I,space,2262,1,,2310.2999999523163,283338.89999997616,8068,VNB,B,0
1,test,2,0.0,1-Back,1.0,m,Tue Apr 28 2026 17:40:33 GMT-0500 (Central Daylight Time),292413.2999999523,020_y_f_h_a.png,I,m,1443,2,,2458.6999999284744,289954.60000002384,8068,VNB,B,1
2,test,2,1.0,1-Back,1.0,m,Tue Apr 28 2026 17:40:33 GMT-0500 (Central Daylight Time),294531.0,004_o_m_n_a.png,I,m,1090,3,,2115.3000000715256,292415.6999999285,8068,VNB,B,2
3,test,2,0.0,1-Back,1.0,m,Tue Apr 28 2026 17:40:33 GMT-0500 (Central Daylight Time),296779.10000002384,011_m_f_d_a.png,I,m,1222,4,,2242.100000023842,294537.0,8068,VNB,B,3
3,test,2,0.0,1-Back,0.0,z,Tue Apr 28 2026 17:40:33 GMT-0500 (Central Daylight Time),299579.10000002384,007_m_m_d_a.png,I,m,1782,5,,2797.3000000715256,296781.7999999523,8068,VNB,B,4
4,test,2,0.0,1-Back,1.0,m,Tue Apr 28 2026 17:40:33 GMT-0500 (Central Daylight Time),301494.1999999285,016_y_m_h_a.png,I,m,894,6,,1909.7999999523163,299584.39999997616,8068,VNB,B,5
5,test,2,1.0,1-Back,1.0,z,Tue Apr 28 2026 17:40:33 GMT-0500 (Central Daylight Time),303743.1999999285,005_o_f_h_a.png,I,z,1225,7,,2246.5999999046326,301496.60000002384,8068,VNB,B,6
6,test,2,0.0,1-Back,1.0,m,Tue Apr 28 2026 17:40:33 GMT-0500 (Central Daylight Time),306025.89999997616,011_m_f_n_a.png,I,m,1265,8,,2274.899999976158,303751.0,8068,VNB,B,7
7,test,2,0.0,1-Back,1.0,m,Tue Apr 28 2026 17:40:33 GMT-0500 (Central Daylight Time),308125.60000002384,020_y_f_d_a.png,I,m,1068,9,,2097.0,306028.60000002384,8068,VNB,B,8
8,test,2,0.0,1-Back,1.0,m,Tue Apr 28 2026 17:40:33 GMT-0500 (Central Daylight Time),310608.89999997616,007_m_m_n_a.png,I,m,1467,10,,2479.0,308129.89999997616,8068,VNB,B,9
9,test,2,1.0,1-Back,1.0,m,Tue Apr 28 2026 17:40:33 GMT-0500 (Central Daylight Time),313240.60000002384,011_m_f_h_a.png,I,m,1606,11,,2629.4000000953674,310611.1999999285,8068,VNB,B,10
10,test,2,0.0,1-Back,1.0,z,Tue Apr 28 2026 17:40:33 GMT-0500 (Central Daylight Time),315590.39999997616,004_o_m_h_a.png,I,z,1328,12,,2344.600000023842,313245.7999999523,8068,VNB,B,11
11,test,2,0.0,1-Back,1.0,m,Tue Apr 28 2026 17:40:33 GMT-0500 (Central Daylight Time),317456.10000002384,016_y_m_d_a.png,I,m,834,13,,1863.5,315592.60000002384,8068,VNB,B,12
11,test,2,0.0,1-Back,0.0,m,Tue Apr 28 2026 17:40:33 GMT-0500 (Central Daylight Time),320338.5,005_o_f_n_a.png,I,z,1856,14,,2877.3000000715256,317461.1999999285,8068,VNB,B,13
11,test,2,0.0,1-Back,0.0,z,Tue Apr 28 2026 17:40:33 GMT-0500 (Central Daylight Time),323287.39999997616,020_y_f_n_a.png,I,m,1926,15,,2946.399999976158,320341.0,8068,VNB,B,14
12,test,2,1.0,1-Back,1.0,m,Tue Apr 28 2026 17:40:33 GMT-0500 (Central Daylight Time),325603.39999997616,007_m_m_h_a.png,I,m,1297,16,,2310.899999976158,323292.5,8068,VNB,B,15
13,test,2,0.0,1-Back,1.0,m,Tue Apr 28 2026 17:40:33 GMT-0500 (Central Daylight Time),328152.7999999523,005_o_f_d_a.png,I,m,1525,17,,2546.899999976158,325605.89999997616,8068,VNB,B,16
14,test,2,1.0,1-Back,1.0,z,Tue Apr 28 2026 17:40:33 GMT-0500 (Central Daylight Time),330151.89999997616,004_o_m_d_a.png,I,z,967,18,,1993.7000000476837,328158.1999999285,8068,VNB,B,17
0,test,3,1.0,1-Back,,,Tue Apr 28 2026 17:40:33 GMT-0500 (Central Daylight Time),330151.89999997616,005_o_f_h_a.png,I,space,1377,1,,1993.7000000476837,328158.1999999285,8068,VNB,B,0
1,test,3,0.0,1-Back,1.0,m,Tue Apr 28 2026 17:40:33 GMT-0500 (Central Daylight Time),335983.5,011_m_f_d_a.png,I,m,1317,2,,2343.2000000476837,333640.2999999523,8068,VNB,B,1
2,test,3,1.0,1-Back,1.0,m,Tue Apr 28 2026 17:40:33 GMT-0500 (Central Daylight Time),338516.10000002384,007_m_m_n_a.png,I,m,1504,3,,2530.0,335986.10000002384,8068,VNB,B,2
3,test,3,0.0,1-Back,1.0,z,Tue Apr 28 2026 17:40:33 GMT-0500 (Central Daylight Time),340981.89999997616,005_o_f_n_a.png,I,z,1436,4,,2459.7999999523163,338522.10000002384,8068,VNB,B,3
4,test,3,1.0,1-Back,1.0,m,Tue Apr 28 2026 17:40:33 GMT-0500 (Central Daylight Time),342881.1999999285,004_o_m_d_a.png,I,m,866,5,,1896.8999999761581,340984.2999999523,8068,VNB,B,4
4,test,3,0.0,1-Back,0.0,m,Tue Apr 28 2026 17:40:33 GMT-0500 (Central Daylight Time),345014.10000002384,020_y_f_h_a.png,I,z,1111,6,,2126.8000000715256,342887.2999999523,8068,VNB,B,5
5,test,3,0.0,1-Back,1.0,z,Tue Apr 28 2026 17:40:33 GMT-0500 (Central Daylight Time),347396.2999999523,016_y_m_h_a.png,I,z,1354,7,,2378.600000023842,345017.6999999285,8068,VNB,B,6
6,test,3,0.0,1-Back,1.0,m,Tue Apr 28 2026 17:40:33 GMT-0500 (Central Daylight Time),349745.5,011_m_f_n_a.png,I,m,1331,8,,2343.100000023842,347402.39999997616,8068,VNB,B,7
7,test,3,0.0,1-Back,1.0,m,Tue Apr 28 2026 17:40:33 GMT-0500 (Central Daylight Time),351961.5,020_y_f_d_a.png,I,m,1199,9,,2213.5,349748.0,8068,VNB,B,8
7,test,3,1.0,1-Back,0.0,m,Tue Apr 28 2026 17:40:33 GMT-0500 (Central Daylight Time),354994.1999999285,004_o_m_n_a.png,I,None,2016,10,,3027.1999999284744,351967.0,8068,VNB,B,9
8,test,3,0.0,1-Back,1.0,m,Tue Apr 28 2026 17:40:33 GMT-0500 (Central Daylight Time),357660.0,007_m_m_h_a.png,I,m,1638,11,,2663.399999976158,354996.60000002384,8068,VNB,B,10
9,test,3,0.0,1-Back,1.0,z,Tue Apr 28 2026 17:40:33 GMT-0500 (Central Daylight Time),359809.1999999285,011_m_f_h_a.png,I,z,1083,12,,2144.2999999523163,357664.89999997616,8068,VNB,B,11
10,test,3,1.0,1-Back,1.0,m,Tue Apr 28 2026 17:40:33 GMT-0500 (Central Daylight Time),362325.0,005_o_f_d_a.png,I,m,1486,13,,2513.100000023842,359811.89999997616,8068,VNB,B,12
11,test,3,0.0,1-Back,1.0,z,Tue Apr 28 2026 17:40:33 GMT-0500 (Central Daylight Time),364924.60000002384,007_m_m_d_a.png,I,z,1570,14,,2593.7000000476837,362330.89999997616,8068,VNB,B,13
12,test,3,0.0,1-Back,1.0,m,Tue Apr 28 2026 17:40:33 GMT-0500 (Central Daylight Time),367523.5,016_y_m_n_a.png,I,m,1579,15,,2596.5,364927.0,8068,VNB,B,14
13,test,3,1.0,1-Back,1.0,m,Tue Apr 28 2026 17:40:33 GMT-0500 (Central Daylight Time),369722.89999997616,004_o_m_h_a.png,I,m,1173,16,,2193.7000000476837,367529.1999999285,8068,VNB,B,15
14,test,3,0.0,1-Back,1.0,m,Tue Apr 28 2026 17:40:33 GMT-0500 (Central Daylight Time),371639.10000002384,016_y_m_d_a.png,I,m,893,17,,1913.9000000953674,369725.1999999285,8068,VNB,B,16
15,test,3,1.0,1-Back,1.0,m,Tue Apr 28 2026 17:40:33 GMT-0500 (Central Daylight Time),374621.2999999523,020_y_f_n_a.png,I,m,1961,18,,2976.0,371645.2999999523,8068,VNB,B,17
0,test,4,1.0,1-Back,,,Tue Apr 28 2026 17:40:33 GMT-0500 (Central Daylight Time),374621.2999999523,007_m_m_d_a.png,I,space,1539,1,,2976.0,371645.2999999523,8068,VNB,B,0
0,test,4,0.0,1-Back,0.0,z,Tue Apr 28 2026 17:40:33 GMT-0500 (Central Daylight Time),381169.60000002384,004_o_m_d_a.png,I,m,1965,2,,2975.0,378194.60000002384,8068,VNB,B,1
1,test,4,0.0,1-Back,1.0,m,Tue Apr 28 2026 17:40:33 GMT-0500 (Central Daylight Time),383501.7999999523,016_y_m_h_a.png,I,m,1209,3,,2329.399999976158,381172.39999997616,8068,VNB,B,2
2,test,4,0.0,1-Back,1.0,m,Tue Apr 28 2026 17:40:33 GMT-0500 (Central Daylight Time),385417.6999999285,011_m_f_n_a.png,I,m,898,4,,1910.5,383507.1999999285,8068,VNB,B,3
3,test,4,1.0,1-Back,1.0,m,Tue Apr 28 2026 17:40:33 GMT-0500 (Central Daylight Time),387400.60000002384,005_o_f_h_a.png,I,m,965,5,,1980.5,385420.10000002384,8068,VNB,B,4
4,test,4,0.0,1-Back,1.0,m,Tue Apr 28 2026 17:40:33 GMT-0500 (Central Daylight Time),389966.2999999523,007_m_m_n_a.png,I,m,1535,6,,2560.6999999284744,387405.60000002384,8068,VNB,B,5
4,test,4,0.0,1-Back,0.0,m,Tue Apr 28 2026 17:40:33 GMT-0500 (Central Daylight Time),392799.0,016_y_m_d_a.png,I,z,1801,7,,2829.899999976158,389969.10000002384,8068,VNB,B,6
5,test,4,1.0,1-Back,1.0,z,Tue Apr 28 2026 17:40:33 GMT-0500 (Central Daylight Time),395198.2999999523,020_y_f_d_a.png,I,z,1377,8,,2393.100000023842,392805.1999999285,8068,VNB,B,7
6,test,4,0.0,1-Back,1.0,m,Tue Apr 28 2026 17:40:33 GMT-0500 (Central Daylight Time),397064.39999997616,011_m_f_h_a.png,I,m,833,9,,1863.5,395200.89999997616,8068,VNB,B,8
6,test,4,0.0,1-Back,0.0,z,Tue Apr 28 2026 17:40:33 GMT-0500 (Central Daylight Time),399613.39999997616,004_o_m_h_a.png,I,m,1519,10,,2544.0,397069.39999997616,8068,VNB,B,9
7,test,4,1.0,1-Back,1.0,m,Tue Apr 28 2026 17:40:33 GMT-0500 (Central Daylight Time),401713.0,005_o_f_n_a.png,I,m,1067,11,,2097.2000000476837,399615.7999999523,8068,VNB,B,10
8,test,4,0.0,1-Back,1.0,m,Tue Apr 28 2026 17:40:33 GMT-0500 (Central Daylight Time),403962.2999999523,011_m_f_d_a.png,I,m,1224,12,,2243.7999999523163,401718.5,8068,VNB,B,11
9,test,4,0.0,1-Back,1.0,m,Tue Apr 28 2026 17:40:33 GMT-0500 (Central Daylight Time),405980.1999999285,020_y_f_n_a.png,I,m,990,13,,2015.3999999761581,403964.7999999523,8068,VNB,B,12
10,test,4,0.0,1-Back,1.0,m,Tue Apr 28 2026 17:40:33 GMT-0500 (Central Daylight Time),408593.7999999523,005_o_f_d_a.png,I,m,1598,14,,2609.399999976158,405984.39999997616,8068,VNB,B,13
11,test,4,0.0,1-Back,1.0,m,Tue Apr 28 2026 17:40:33 GMT-0500 (Central Daylight Time),411143.1999999285,020_y_f_h_a.png,I,m,1518,15,,2546.6999999284744,408596.5,8068,VNB,B,14
12,test,4,1.0,1-Back,1.0,z,Tue Apr 28 2026 17:40:33 GMT-0500 (Central Daylight Time),413259.1999999285,007_m_m_h_a.png,I,z,1097,16,,2110.0999999046326,411149.10000002384,8068,VNB,B,15
13,test,4,0.0,1-Back,1.0,m,Tue Apr 28 2026 17:40:33 GMT-0500 (Central Daylight Time),415825.0,004_o_m_n_a.png,I,m,1541,17,,2563.399999976158,413261.60000002384,8068,VNB,B,16
14,test,4,1.0,1-Back,1.0,z,Tue Apr 28 2026 17:40:33 GMT-0500 (Central Daylight Time),418307.5,016_y_m_n_a.png,I,z,1454,18,,2477.0,415830.5,8068,VNB,B,17
0,test,5,1.0,1-Back,,,Tue Apr 28 2026 17:40:33 GMT-0500 (Central Daylight Time),418307.5,004_o_m_n_a.png,I,space,1421,1,,2477.0,415830.5,8068,VNB,B,0
1,test,5,1.0,1-Back,1.0,m,Tue Apr 28 2026 17:40:33 GMT-0500 (Central Daylight Time),424022.39999997616,005_o_f_h_a.png,I,m,1243,2,,2260.5,421761.89999997616,8068,VNB,B,1
2,test,5,0.0,1-Back,1.0,m,Tue Apr 28 2026 17:40:33 GMT-0500 (Central Daylight Time),426638.39999997616,016_y_m_d_a.png,I,m,1586,3,,2613.399999976158,424025.0,8068,VNB,B,2
3,test,5,0.0,1-Back,1.0,z,Tue Apr 28 2026 17:40:33 GMT-0500 (Central Daylight Time),428854.5,004_o_m_d_a.png,I,z,1186,4,,2210.2000000476837,426644.2999999523,8068,VNB,B,3
4,test,5,0.0,1-Back,1.0,m,Tue Apr 28 2026 17:40:33 GMT-0500 (Central Daylight Time),431136.89999997616,011_m_f_h_a.png,I,m,1258,5,,2280.0,428856.89999997616,8068,VNB,B,4
5,test,5,0.0,1-Back,1.0,m,Tue Apr 28 2026 17:40:33 GMT-0500 (Central Daylight Time),433569.2999999523,020_y_f_n_a.png,I,m,1415,6,,2428.1999999284744,431141.10000002384,8068,VNB,B,5
6,test,5,1.0,1-Back,1.0,z,Tue Apr 28 2026 17:40:33 GMT-0500 (Central Daylight Time),435752.5,005_o_f_n_a.png,I,z,1150,7,,2180.7000000476837,433571.7999999523,8068,VNB,B,6
7,test,5,0.0,1-Back,1.0,m,Tue Apr 28 2026 17:40:33 GMT-0500 (Central Daylight Time),437635.10000002384,011_m_f_d_a.png,I,m,856,8,,1876.8000000715256,435758.2999999523,8068,VNB,B,7
7,test,5,0.0,1-Back,0.0,m,Tue Apr 28 2026 17:40:33 GMT-0500 (Central Daylight Time),440134.0,016_y_m_h_a.png,I,z,1469,9,,2496.399999976158,437637.60000002384,8068,VNB,B,8
8,test,5,0.0,1-Back,1.0,m,Tue Apr 28 2026 17:40:33 GMT-0500 (Central Daylight Time),443033.2999999523,020_y_f_d_a.png,I,m,1882,10,,2895.6999999284744,440137.60000002384,8068,VNB,B,9
9,test,5,0.0,1-Back,1.0,m,Tue Apr 28 2026 17:40:33 GMT-0500 (Central Daylight Time),445582.5,007_m_m_n_a.png,I,m,1526,11,,2546.8000000715256,443035.6999999285,8068,VNB,B,10
10,test,5,1.0,1-Back,1.0,z,Tue Apr 28 2026 17:40:33 GMT-0500 (Central Daylight Time),447665.0,011_m_f_n_a.png,I,z,1065,12,,2077.3000000715256,445587.6999999285,8068,VNB,B,11
11,test,5,0.0,1-Back,1.0,m,Tue Apr 28 2026 17:40:33 GMT-0500 (Central Daylight Time),450164.5,004_o_m_h_a.png,I,m,1478,13,,2497.2000000476837,447667.2999999523,8068,VNB,B,12
12,test,5,0.0,1-Back,1.0,z,Tue Apr 28 2026 17:40:33 GMT-0500 (Central Daylight Time),452213.6999999285,007_m_m_h_a.png,I,z,1028,14,,2043.5,450170.1999999285,8068,VNB,B,13
13,test,5,1.0,1-Back,1.0,m,Tue Apr 28 2026 17:40:33 GMT-0500 (Central Daylight Time),454113.10000002384,005_o_f_d_a.png,I,m,883,15,,1897.2000000476837,452215.89999997616,8068,VNB,B,14
14,test,5,0.0,1-Back,1.0,m,Tue Apr 28 2026 17:40:33 GMT-0500 (Central Daylight Time),456862.1999999285,016_y_m_n_a.png,I,m,1720,16,,2743.5999999046326,454118.60000002384,8068,VNB,B,15
15,test,5,0.0,1-Back,1.0,m,Tue Apr 28 2026 17:40:33 GMT-0500 (Central Daylight Time),459861.60000002384,020_y_f_h_a.png,I,m,1970,17,,2996.5,456865.10000002384,8068,VNB,B,16
16,test,5,0.0,1-Back,1.0,m,Tue Apr 28 2026 17:40:33 GMT-0500 (Central Daylight Time),462177.0,007_m_m_d_a.png,I,m,1299,18,,2311.3000000715256,459865.6999999285,8068,VNB,B,17
0,prac,1,0.0,2-Back,,,Tue Apr 28 2026 17:40:33 GMT-0500 (Central Daylight Time),462177.0,011_m_f_n_a.png,I,space,1627,1,,2311.3000000715256,459865.6999999285,8068,VNB,B,0
0,prac,1,0.0,2-Back,,,Tue Apr 28 2026 17:40:33 GMT-0500 (Central Daylight Time),462177.0,005_o_f_h_a.png,I,space,1627,2,,2311.3000000715256,459865.6999999285,8068,VNB,B,0
1,prac,1,0.0,2-Back,1.0,m,Tue Apr 28 2026 17:40:33 GMT-0500 (Central Daylight Time),612630.3999999762,004_o_m_d_a.png,I,m,1590,3,,2446.100000023842,610184.2999999523,8068,VNB,B,1
1,prac,1,1.0,2-Back,0.0,z,Tue Apr 28 2026 17:40:33 GMT-0500 (Central Daylight Time),615512.5,007_m_m_h_a.png,I,None,2015,4,,2875.600000023842,612636.8999999762,8068,VNB,B,2
1,prac,1,0.0,2-Back,0.0,m,Tue Apr 28 2026 17:40:33 GMT-0500 (Central Daylight Time),618361.6999999285,020_y_f_n_a.png,I,None,2001,5,,2845.899999976158,615515.7999999523,8068,VNB,B,3
1,prac,1,1.0,2-Back,0.0,z,Tue Apr 28 2026 17:40:33 GMT-0500 (Central Daylight Time),620960.8999999762,004_o_m_h_a.png,I,m,1823,6,,2591.7000000476837,618369.1999999285,8068,VNB,B,4
1,prac,1,1.0,2-Back,0.0,z,Tue Apr 28 2026 17:40:33 GMT-0500 (Central Daylight Time),623426.6000000238,016_y_m_n_a.png,I,m,1597,7,,2462.2000000476837,620964.3999999762,8068,VNB,B,5
2,prac,1,0.0,2-Back,1.0,m,Tue Apr 28 2026 17:40:33 GMT-0500 (Central Daylight Time),625876.1000000238,011_m_f_d_a.png,I,m,1571,8,,2441.3000000715256,623434.7999999523,8068,VNB,B,6
2,prac,1,0.0,2-Back,0.0,m,Tue Apr 28 2026 17:40:33 GMT-0500 (Central Daylight Time),628358.2999999523,005_o_f_d_a.png,I,z,1607,9,,2478.899999976158,625879.3999999762,8068,VNB,B,7
3,prac,1,0.0,2-Back,1.0,m,Tue Apr 28 2026 17:40:33 GMT-0500 (Central Daylight Time),630624.3999999762,007_m_m_h_a.png,I,m,1483,10,,2258.7000000476837,628365.6999999285,8068,VNB,B,8
4,prac,1,1.0,2-Back,1.0,z,Tue Apr 28 2026 17:40:33 GMT-0500 (Central Daylight Time),633023.8999999762,020_y_f_d_a.png,I,z,1543,11,,2396.399999976158,630627.5,8068,VNB,B,9
5,prac,1,0.0,2-Back,1.0,m,Tue Apr 28 2026 17:40:33 GMT-0500 (Central Daylight Time),635722.8999999762,004_o_m_n_a.png,I,m,1838,12,,2693.0,633029.8999999762,8068,VNB,B,10
0,prac,2,0.0,2-Back,,,Tue Apr 28 2026 17:40:33 GMT-0500 (Central Daylight Time),635722.8999999762,011_m_f_n_a.png,I,a,7722,1,,2693.0,633029.8999999762,8068,VNB,B,0
0,prac,2,0.0,2-Back,,,Tue Apr 28 2026 17:40:33 GMT-0500 (Central Daylight Time),635722.8999999762,005_o_f_h_a.png,I,a,7722,2,,2693.0,633029.8999999762,8068,VNB,B,0
0,prac,2,0.0,2-Back,0.0,m,Tue Apr 28 2026 17:40:33 GMT-0500 (Central Daylight Time),651534.6000000238,004_o_m_d_a.png,I,None,2004,3,,2844.5,648690.1000000238,8068,VNB,B,1
0,prac,2,1.0,2-Back,0.0,z,Tue Apr 28 2026 17:40:33 GMT-0500 (Central Daylight Time),654317.1000000238,007_m_m_h_a.png,I,None,2009,4,,2775.5,651541.6000000238,8068,VNB,B,2
0,prac,2,0.0,2-Back,0.0,m,Tue Apr 28 2026 17:40:33 GMT-0500 (Central Daylight Time),657167.0,020_y_f_n_a.png,I,None,2001,5,,2845.7000000476837,654321.2999999523,8068,VNB,B,3
0,prac,2,1.0,2-Back,0.0,z,Tue Apr 28 2026 17:40:33 GMT-0500 (Central Daylight Time),659548.6999999285,004_o_m_h_a.png,I,m,1522,6,,2373.5,657175.1999999285,8068,VNB,B,4
1,prac,2,1.0,2-Back,1.0,z,Tue Apr 28 2026 17:40:33 GMT-0500 (Central Daylight Time),661531.6999999285,016_y_m_n_a.png,I,z,1115,7,,1979.6999999284744,659552.0,8068,VNB,B,5
1,prac,2,0.0,2-Back,0.0,m,Tue Apr 28 2026 17:40:33 GMT-0500 (Central Daylight Time),663397.7999999523,011_m_f_d_a.png,I,z,993,8,,1857.5,661540.2999999523,8068,VNB,B,6
2,prac,2,0.0,2-Back,1.0,m,Tue Apr 28 2026 17:40:33 GMT-0500 (Central Daylight Time),665496.8999999762,005_o_f_d_a.png,I,m,1231,9,,2095.899999976158,663401.0,8068,VNB,B,7
2,prac,2,0.0,2-Back,0.0,m,Tue Apr 28 2026 17:40:33 GMT-0500 (Central Daylight Time),667579.6000000238,007_m_m_h_a.png,I,z,1295,10,,2073.8000000715256,665505.7999999523,8068,VNB,B,8
2,prac,2,1.0,2-Back,0.0,z,Tue Apr 28 2026 17:40:33 GMT-0500 (Central Daylight Time),669095.7999999523,020_y_f_d_a.png,I,m,659,11,,1512.6999999284744,667583.1000000238,8068,VNB,B,9
2,prac,2,0.0,2-Back,0.0,m,Tue Apr 28 2026 17:40:33 GMT-0500 (Central Daylight Time),670811.8999999762,004_o_m_n_a.png,I,z,860,12,,1708.7000000476837,669103.1999999285,8068,VNB,B,10
0,test,1,0.0,2-Back,,,Tue Apr 28 2026 17:40:33 GMT-0500 (Central Daylight Time),670811.8999999762,016_y_m_h_a.png,I,space,1279,1,,1708.7000000476837,669103.1999999285,8068,VNB,B,0
0,test,1,0.0,2-Back,,,Tue Apr 28 2026 17:40:33 GMT-0500 (Central Daylight Time),670811.8999999762,005_o_f_n_a.png,I,space,1279,2,,1708.7000000476837,669103.1999999285,8068,VNB,B,0
1,test,1,0.0,2-Back,1.0,z,Tue Apr 28 2026 17:40:33 GMT-0500 (Central Daylight Time),687656.7999999523,004_o_m_h_a.png,I,z,1308,3,,2330.100000023842,685326.6999999285,8068,VNB,B,1
2,test,1,0.0,2-Back,1.0,m,Tue Apr 28 2026 17:40:33 GMT-0500 (Central Daylight Time),690439.1999999285,011_m_f_d_a.png,I,m,1752,4,,2778.399999976158,687660.7999999523,8068,VNB,B,2
3,test,1,1.0,2-Back,1.0,m,Tue Apr 28 2026 17:40:33 GMT-0500 (Central Daylight Time),693304.8999999762,016_y_m_n_a.png,I,m,1833,5,,2863.2999999523163,690441.6000000238,8068,VNB,B,3
4,test,1,0.0,2-Back,1.0,z,Tue Apr 28 2026 17:40:33 GMT-0500 (Central Daylight Time),695888.3999999762,020_y_f_d_a.png,I,z,1560,6,,2578.0,693310.3999999762,8068,VNB,B,4
4,test,1,0.0,2-Back,0.0,m,Tue Apr 28 2026 17:40:33 GMT-0500 (Central Daylight Time),698919.7999999523,007_m_m_h_a.png,I,None,2016,7,,3028.7999999523163,695891.0,8068,VNB,B,5
5,test,1,1.0,2-Back,1.0,m,Tue Apr 28 2026 17:40:33 GMT-0500 (Central Daylight Time),701735.6000000238,020_y_f_n_a.png,I,m,1793,8,,2809.8000000715256,698925.7999999523,8068,VNB,B,6
5,test,1,0.0,2-Back,0.0,z,Tue Apr 28 2026 17:40:33 GMT-0500 (Central Daylight Time),704767.7999999523,005_o_f_h_a.png,I,None,2016,9,,3029.5,701738.2999999523,8068,VNB,B,7
5,test,1,0.0,2-Back,0.0,m,Tue Apr 28 2026 17:40:33 GMT-0500 (Central Daylight Time),707800.2999999523,004_o_m_d_a.png,I,None,2016,10,,3027.6999999284744,704772.6000000238,8068,VNB,B,8
6,test,1,1.0,2-Back,1.0,m,Tue Apr 28 2026 17:40:33 GMT-0500 (Central Daylight Time),709966.0,007_m_m_d_a.png,I,m,1136,11,,2163.399999976158,707802.6000000238,8068,VNB,B,9
7,test,1,0.0,2-Back,1.0,m,Tue Apr 28 2026 17:40:33 GMT-0500 (Central Daylight Time),712765.5,011_m_f_n_a.png,I,m,1778,12,,2793.600000023842,709971.8999999762,8068,VNB,B,10
8,test,1,0.0,2-Back,1.0,m,Tue Apr 28 2026 17:40:33 GMT-0500 (Central Daylight Time),715448.3999999762,020_y_f_h_a.png,I,m,1666,13,,2680.399999976158,712768.0,8068,VNB,B,11
8,test,1,0.0,2-Back,0.0,z,Tue Apr 28 2026 17:40:33 GMT-0500 (Central Daylight Time),718263.5,007_m_m_n_a.png,I,m,1793,14,,2809.0,715454.5,8068,VNB,B,12
9,test,1,0.0,2-Back,1.0,m,Tue Apr 28 2026 17:40:33 GMT-0500 (Central Daylight Time),721279.5,016_y_m_d_a.png,I,m,1993,15,,3013.600000023842,718265.8999999762,8068,VNB,B,13
10,test,1,1.0,2-Back,1.0,m,Tue Apr 28 2026 17:40:33 GMT-0500 (Central Daylight Time),723611.8999999762,011_m_f_h_a.png,I,m,1313,16,,2327.2000000476837,721284.6999999285,8068,VNB,B,14
11,test,1,0.0,2-Back,1.0,z,Tue Apr 28 2026 17:40:33 GMT-0500 (Central Daylight Time),725661.3999999762,005_o_f_d_a.png,I,z,1020,17,,2046.7999999523163,723614.6000000238,8068,VNB,B,15
11,test,1,0.0,2-Back,0.0,m,Tue Apr 28 2026 17:40:33 GMT-0500 (Central Daylight Time),728693.7999999523,004_o_m_n_a.png,I,None,2016,18,,3026.399999976158,725667.3999999762,8068,VNB,B,16
0,test,2,0.0,2-Back,,,Tue Apr 28 2026 17:40:33 GMT-0500 (Central Daylight Time),728693.7999999523,007_m_m_h_a.png,I,space,1298,1,,3026.399999976158,725667.3999999762,8068,VNB,B,0
0,test,2,0.0,2-Back,,,Tue Apr 28 2026 17:40:33 GMT-0500 (Central Daylight Time),728693.7999999523,020_y_f_n_a.png,I,space,1298,2,,3026.399999976158,725667.3999999762,8068,VNB,B,0
1,test,2,1.0,2-Back,1.0,z,Tue Apr 28 2026 17:40:33 GMT-0500 (Central Daylight Time),737357.6999999285,005_o_f_h_a.png,I,z,1137,3,,2163.399999976158,735194.2999999523,8068,VNB,B,1
2,test,2,0.0,2-Back,1.0,m,Tue Apr 28 2026 17:40:33 GMT-0500 (Central Daylight Time),739923.3999999762,004_o_m_d_a.png,I,m,1547,4,,2561.2000000476837,737362.1999999285,8068,VNB,B,2
3,test,2,0.0,2-Back,1.0,m,Tue Apr 28 2026 17:40:33 GMT-0500 (Central Daylight Time),742755.6999999285,011_m_f_d_a.png,I,m,1812,5,,2829.7999999523163,739925.8999999762,8068,VNB,B,3
3,test,2,0.0,2-Back,0.0,m,Tue Apr 28 2026 17:40:33 GMT-0500 (Central Daylight Time),745371.7999999523,016_y_m_h_a.png,I,z,1588,6,,2610.600000023842,742761.1999999285,8068,VNB,B,4
4,test,2,0.0,2-Back,1.0,m,Tue Apr 28 2026 17:40:33 GMT-0500 (Central Daylight Time),747587.6999999285,005_o_f_n_a.png,I,m,1196,7,,2213.5999999046326,745374.1000000238,8068,VNB,B,5
5,test,2,1.0,2-Back,1.0,z,Tue Apr 28 2026 17:40:33 GMT-0500 (Central Daylight Time),749670.2999999523,004_o_m_h_a.png,I,z,1052,8,,2076.7999999523163,747593.5,8068,VNB,B,6
5,test,2,0.0,2-Back,0.0,m,Tue Apr 28 2026 17:40:33 GMT-0500 (Central Daylight Time),752286.5,020_y_f_d_a.png,I,z,1586,9,,2613.7000000476837,749672.7999999523,8068,VNB,B,7
5,test,2,0.0,2-Back,0.0,m,Tue Apr 28 2026 17:40:33 GMT-0500 (Central Daylight Time),754369.1000000238,016_y_m_d_a.png,I,z,1057,10,,2078.0,752291.1000000238,8068,VNB,B,8
6,test,2,0.0,2-Back,1.0,m,Tue Apr 28 2026 17:40:33 GMT-0500 (Central Daylight Time),756385.0,007_m_m_n_a.png,I,m,983,11,,2013.3999999761581,754371.6000000238,8068,VNB,B,9
7,test,2,0.0,2-Back,1.0,m,Tue Apr 28 2026 17:40:33 GMT-0500 (Central Daylight Time),758835.1999999285,011_m_f_h_a.png,I,m,1431,12,,2445.0999999046326,756390.1000000238,8068,VNB,B,10
7,test,2,1.0,2-Back,0.0,z,Tue Apr 28 2026 17:40:33 GMT-0500 (Central Daylight Time),761833.2999999523,004_o_m_n_a.png,I,m,1966,13,,2995.1999999284744,758838.1000000238,8068,VNB,B,11
7,test,2,0.0,2-Back,0.0,m,Tue Apr 28 2026 17:40:33 GMT-0500 (Central Daylight Time),764765.7999999523,005_o_f_d_a.png,I,z,1910,14,,2928.1999999284744,761837.6000000238,8068,VNB,B,12
8,test,2,0.0,2-Back,1.0,m,Tue Apr 28 2026 17:40:33 GMT-0500 (Central Daylight Time),767781.5,020_y_f_h_a.png,I,m,1993,15,,3013.3000000715256,764768.1999999285,8068,VNB,B,13
8,test,2,0.0,2-Back,0.0,z,Tue Apr 28 2026 17:40:33 GMT-0500 (Central Daylight Time),770814.1000000238,007_m_m_d_a.png,I,None,2016,16,,3027.8000000715256,767786.2999999523,8068,VNB,B,14
8,test,2,0.0,2-Back,0.0,m,Tue Apr 28 2026 17:40:33 GMT-0500 (Central Daylight Time),772980.8999999762,016_y_m_n_a.png,I,z,1139,17,,2164.2000000476837,770816.6999999285,8068,VNB,B,15
9,test,2,1.0,2-Back,1.0,m,Tue Apr 28 2026 17:40:33 GMT-0500 (Central Daylight Time),775495.7999999523,011_m_f_n_a.png,I,m,1484,18,,2510.6999999284744,772985.1000000238,8068,VNB,B,16
0,test,3,1.0,2-Back,,,Tue Apr 28 2026 17:40:33 GMT-0500 (Central Daylight Time),775495.7999999523,004_o_m_n_a.png,I,space,1833,1,,2510.6999999284744,772985.1000000238,8068,VNB,B,0
0,test,3,1.0,2-Back,,,Tue Apr 28 2026 17:40:33 GMT-0500 (Central Daylight Time),775495.7999999523,005_o_f_d_a.png,I,space,1833,2,,2510.6999999284744,772985.1000000238,8068,VNB,B,0
1,test,3,0.0,2-Back,1.0,m,Tue Apr 28 2026 17:40:33 GMT-0500 (Central Daylight Time),785159.1000000238,020_y_f_h_a.png,I,m,1735,3,,2763.100000023842,782396.0,8068,VNB,B,1
1,test,3,0.0,2-Back,0.0,z,Tue Apr 28 2026 17:40:33 GMT-0500 (Central Daylight Time),787592.0,011_m_f_d_a.png,I,m,1400,4,,2425.3000000715256,785166.6999999285,8068,VNB,B,2
1,test,3,1.0,2-Back,0.0,m,Tue Apr 28 2026 17:40:33 GMT-0500 (Central Daylight Time),790623.8999999762,016_y_m_n_a.png,I,None,2016,5,,3029.399999976158,787594.5,8068,VNB,B,3
2,test,3,0.0,2-Back,1.0,m,Tue Apr 28 2026 17:40:33 GMT-0500 (Central Daylight Time),792906.8999999762,004_o_m_h_a.png,I,m,1256,6,,2278.2000000476837,790628.6999999285,8068,VNB,B,4
3,test,3,0.0,2-Back,1.0,z,Tue Apr 28 2026 17:40:33 GMT-0500 (Central Daylight Time),795822.6000000238,020_y_f_n_a.png,I,z,1885,7,,2912.9000000953674,792909.6999999285,8068,VNB,B,5
3,test,3,1.0,2-Back,0.0,m,Tue Apr 28 2026 17:40:33 GMT-0500 (Central Daylight Time),798155.2999999523,007_m_m_d_a.png,I,z,1313,8,,2328.7999999523163,795826.5,8068,VNB,B,6
3,test,3,0.0,2-Back,0.0,m,Tue Apr 28 2026 17:40:33 GMT-0500 (Central Daylight Time),800254.6000000238,016_y_m_d_a.png,I,z,1077,9,,2096.8000000715256,798157.7999999523,8068,VNB,B,7
3,test,3,0.0,2-Back,0.0,m,Tue Apr 28 2026 17:40:33 GMT-0500 (Central Daylight Time),803287.1000000238,005_o_f_h_a.png,I,None,2016,10,,3025.4000000953674,800261.6999999285,8068,VNB,B,8
4,test,3,1.0,2-Back,1.0,m,Tue Apr 28 2026 17:40:33 GMT-0500 (Central Daylight Time),805986.1000000238,011_m_f_n_a.png,I,m,1673,11,,2696.4000000953674,803289.6999999285,8068,VNB,B,9
5,test,3,1.0,2-Back,1.0,z,Tue Apr 28 2026 17:40:33 GMT-0500 (Central Daylight Time),807868.6999999285,007_m_m_h_a.png,I,z,861,12,,1876.3999999761581,805992.2999999523,8068,VNB,B,10
5,test,3,0.0,2-Back,0.0,m,Tue Apr 28 2026 17:40:33 GMT-0500 (Central Daylight Time),810468.1999999285,020_y_f_d_a.png,I,z,1572,13,,2596.7999999523163,807871.3999999762,8068,VNB,B,11
6,test,3,0.0,2-Back,1.0,m,Tue Apr 28 2026 17:40:33 GMT-0500 (Central Daylight Time),812684.0,005_o_f_n_a.png,I,m,1188,14,,2210.2000000476837,810473.7999999523,8068,VNB,B,12
6,test,3,0.0,2-Back,0.0,z,Tue Apr 28 2026 17:40:33 GMT-0500 (Central Daylight Time),815716.1999999285,004_o_m_d_a.png,I,None,2015,15,,3029.6999999284744,812686.5,8068,VNB,B,13
7,test,3,1.0,2-Back,1.0,m,Tue Apr 28 2026 17:40:33 GMT-0500 (Central Daylight Time),817499.0,011_m_f_h_a.png,I,m,756,16,,1775.8999999761581,815723.1000000238,8068,VNB,B,14
8,test,3,0.0,2-Back,1.0,m,Tue Apr 28 2026 17:40:33 GMT-0500 (Central Daylight Time),819515.1999999285,007_m_m_n_a.png,I,m,997,17,,2013.6999999284744,817501.5,8068,VNB,B,15
9,test,3,0.0,2-Back,1.0,z,Tue Apr 28 2026 17:40:33 GMT-0500 (Central Daylight Time),821248.0,016_y_m_h_a.png,I,z,699,18,,1728.8000000715256,819519.1999999285,8068,VNB,B,16
0,test,4,0.0,2-Back,,,Tue Apr 28 2026 17:40:33 GMT-0500 (Central Daylight Time),821248.0,011_m_f_n_a.png,I,space,1216,1,,1728.8000000715256,819519.1999999285,8068,VNB,B,0
0,test,4,0.0,2-Back,,,Tue Apr 28 2026 17:40:33 GMT-0500 (Central Daylight Time),821248.0,004_o_m_n_a.png,I,space,1216,2,,1728.8000000715256,819519.1999999285,8068,VNB,B,0
1,test,4,1.0,2-Back,1.0,m,Tue Apr 28 2026 17:40:33 GMT-0500 (Central Daylight Time),830070.6999999285,016_y_m_h_a.png,I,m,1375,3,,2388.899999976158,827681.7999999523,8068,VNB,B,1
2,test,4,1.0,2-Back,1.0,m,Tue Apr 28 2026 17:40:33 GMT-0500 (Central Daylight Time),832377.6000000238,005_o_f_d_a.png,I,m,1298,4,,2300.7000000476837,830076.8999999762,8068,VNB,B,2
3,test,4,0.0,2-Back,1.0,z,Tue Apr 28 2026 17:40:33 GMT-0500 (Central Daylight Time),834493.6999999285,004_o_m_h_a.png,I,z,1095,5,,2113.7999999523163,832379.8999999762,8068,VNB,B,3
4,test,4,0.0,2-Back,1.0,m,Tue Apr 28 2026 17:40:33 GMT-0500 (Central Daylight Time),836943.1999999285,007_m_m_n_a.png,I,m,1417,6,,2442.2999999523163,834500.8999999762,8068,VNB,B,4
5,test,4,0.0,2-Back,1.0,m,Tue Apr 28 2026 17:40:33 GMT-0500 (Central Daylight Time),839492.3999999762,011_m_f_d_a.png,I,m,1529,7,,2546.600000023842,836945.7999999523,8068,VNB,B,5
6,test,4,0.0,2-Back,1.0,z,Tue Apr 28 2026 17:40:33 GMT-0500 (Central Daylight Time),842158.1000000238,020_y_f_n_a.png,I,z,1636,8,,2660.9000000953674,839497.1999999285,8068,VNB,B,6
7,test,4,1.0,2-Back,1.0,m,Tue Apr 28 2026 17:40:33 GMT-0500 (Central Daylight Time),844624.5,005_o_f_h_a.png,I,m,1449,9,,2463.8000000715256,842160.6999999285,8068,VNB,B,7
8,test,4,0.0,2-Back,1.0,m,Tue Apr 28 2026 17:40:33 GMT-0500 (Central Daylight Time),847490.7999999523,007_m_m_h_a.png,I,m,1848,10,,2861.5,844629.2999999523,8068,VNB,B,8
9,test,4,0.0,2-Back,1.0,m,Tue Apr 28 2026 17:40:33 GMT-0500 (Central Daylight Time),849688.6999999285,020_y_f_d_a.png,I,m,1182,11,,2195.0999999046326,847493.6000000238,8068,VNB,B,9
9,test,4,0.0,2-Back,0.0,m,Tue Apr 28 2026 17:40:33 GMT-0500 (Central Daylight Time),852721.6000000238,016_y_m_n_a.png,I,None,2016,12,,3028.2000000476837,849693.3999999762,8068,VNB,B,10
9,test,4,0.0,2-Back,0.0,z,Tue Apr 28 2026 17:40:33 GMT-0500 (Central Daylight Time),855120.7999999523,004_o_m_d_a.png,I,m,1374,13,,2396.5,852724.2999999523,8068,VNB,B,11
9,test,4,1.0,2-Back,0.0,m,Tue Apr 28 2026 17:40:33 GMT-0500 (Central Daylight Time),856953.5,011_m_f_h_a.png,I,z,808,14,,1826.8000000715256,855126.6999999285,8068,VNB,B,12
9,test,4,1.0,2-Back,0.0,m,Tue Apr 28 2026 17:40:33 GMT-0500 (Central Daylight Time),858869.6999999285,020_y_f_h_a.png,I,z,885,15,,1913.6999999284744,856956.0,8068,VNB,B,13
10,test,4,0.0,2-Back,1.0,m,Tue Apr 28 2026 17:40:33 GMT-0500 (Central Daylight Time),860968.7999999523,005_o_f_n_a.png,I,m,1066,16,,2091.399999976158,858877.3999999762,8068,VNB,B,14
10,test,4,0.0,2-Back,0.0,m,Tue Apr 28 2026 17:40:33 GMT-0500 (Central Daylight Time),864001.6000000238,016_y_m_d_a.png,I,None,2017,17,,3030.5,860971.1000000238,8068,VNB,B,15
11,test,4,1.0,2-Back,1.0,m,Tue Apr 28 2026 17:40:33 GMT-0500 (Central Daylight Time),866333.7999999523,007_m_m_d_a.png,I,m,1302,18,,2325.2999999523163,864008.5,8068,VNB,B,16
0,test,5,1.0,2-Back,,,Tue Apr 28 2026 17:40:33 GMT-0500 (Central Daylight Time),866333.7999999523,020_y_f_d_a.png,I,space,1171,1,,2325.2999999523163,864008.5,8068,VNB,B,0
0,test,5,1.0,2-Back,,,Tue Apr 28 2026 17:40:33 GMT-0500 (Central Daylight Time),866333.7999999523,005_o_f_h_a.png,I,space,1171,2,,2325.2999999523163,864008.5,8068,VNB,B,0
1,test,5,1.0,2-Back,1.0,z,Tue Apr 28 2026 17:40:33 GMT-0500 (Central Daylight Time),875164.2999999523,004_o_m_d_a.png,I,z,1421,3,,2446.6999999284744,872717.6000000238,8068,VNB,B,1
2,test,5,1.0,2-Back,1.0,m,Tue Apr 28 2026 17:40:33 GMT-0500 (Central Daylight Time),877663.6999999285,011_m_f_n_a.png,I,m,1467,4,,2493.7999999523163,875169.8999999762,8068,VNB,B,2
3,test,5,0.0,2-Back,1.0,m,Tue Apr 28 2026 17:40:33 GMT-0500 (Central Daylight Time),880662.6000000238,007_m_m_h_a.png,I,m,1968,5,,2996.5,877666.1000000238,8068,VNB,B,3
3,test,5,0.0,2-Back,0.0,z,Tue Apr 28 2026 17:40:33 GMT-0500 (Central Daylight Time),883662.0,020_y_f_n_a.png,I,m,1967,6,,2994.3000000715256,880667.6999999285,8068,VNB,B,4
3,test,5,0.0,2-Back,0.0,m,Tue Apr 28 2026 17:40:33 GMT-0500 (Central Daylight Time),886694.0,005_o_f_d_a.png,I,None,2016,7,,3029.600000023842,883664.3999999762,8068,VNB,B,5
4,test,5,0.0,2-Back,1.0,m,Tue Apr 28 2026 17:40:33 GMT-0500 (Central Daylight Time),889276.7999999523,004_o_m_h_a.png,I,m,1562,8,,2578.899999976158,886697.8999999762,8068,VNB,B,6
5,test,5,1.0,2-Back,1.0,z,Tue Apr 28 2026 17:40:33 GMT-0500 (Central Daylight Time),891875.8999999762,011_m_f_d_a.png,I,z,1579,9,,2596.5,889279.3999999762,8068,VNB,B,7
5,test,5,0.0,2-Back,0.0,m,Tue Apr 28 2026 17:40:33 GMT-0500 (Central Daylight Time),894908.3999999762,016_y_m_n_a.png,I,None,2016,10,,3025.7000000476837,891882.6999999285,8068,VNB,B,8
5,test,5,0.0,2-Back,0.0,m,Tue Apr 28 2026 17:40:33 GMT-0500 (Central Daylight Time),897440.7999999523,007_m_m_n_a.png,I,z,1516,11,,2530.100000023842,894910.6999999285,8068,VNB,B,9
5,test,5,0.0,2-Back,0.0,m,Tue Apr 28 2026 17:40:33 GMT-0500 (Central Daylight Time),899723.3999999762,020_y_f_h_a.png,I,z,1263,12,,2278.7000000476837,897444.6999999285,8068,VNB,B,10
6,test,5,0.0,2-Back,1.0,m,Tue Apr 28 2026 17:40:33 GMT-0500 (Central Daylight Time),902355.8999999762,016_y_m_d_a.png,I,m,1562,13,,2630.0,899725.8999999762,8068,VNB,B,11
6,test,5,1.0,2-Back,0.0,z,Tue Apr 28 2026 17:40:33 GMT-0500 (Central Daylight Time),905371.7999999523,011_m_f_h_a.png,I,m,1996,14,,3012.100000023842,902359.6999999285,8068,VNB,B,12
6,test,5,0.0,2-Back,0.0,m,Tue Apr 28 2026 17:40:33 GMT-0500 (Central Daylight Time),908403.8999999762,004_o_m_n_a.png,I,None,2016,15,,3029.899999976158,905374.0,8068,VNB,B,13
6,test,5,0.0,2-Back,0.0,m,Tue Apr 28 2026 17:40:33 GMT-0500 (Central Daylight Time),910803.2999999523,007_m_m_d_a.png,I,z,1373,16,,2393.399999976158,908409.8999999762,8068,VNB,B,14
7,test,5,0.0,2-Back,1.0,z,Tue Apr 28 2026 17:40:33 GMT-0500 (Central Daylight Time),912486.0,005_o_f_n_a.png,I,z,661,17,,1680.1000000238419,910805.8999999762,8068,VNB,B,15
7,test,5,1.0,2-Back,0.0,m,Tue Apr 28 2026 17:40:33 GMT-0500 (Central Daylight Time),914035.3999999762,016_y_m_h_a.png,I,z,522,18,,1545.1000000238419,912490.2999999523,8068,VNB,B,16
