Q,Q1,Q2,Q3,Q4,acc_sum,block,block_c,correct,correct_response,datetime,endtime,project,response,response_time,row_sel,session_number,squiggle1,squiggle1x,squiggle1y,squiggle2,squiggle2x,squiggle2y,squiggle3,squiggle3x,squiggle3y,squiggle4,squiggle4x,squiggle4y,start_end,starttime,subject_id,target_congruent,task,task_vers,testsquiggle,testsquigglex,testsquiggley,time_practice_delay,time_practice_fixation,time_practice_stimuli,time_practice_study,time_test_delay,time_test_fixation,time_test_stimuli,time_test_study,trial
1,1,0,0,0,0,prac,1,0,z,Fri Apr 03 2026 11:07:17 GMT-0500 (Central Daylight Time),168958.29999998212,O,m,1466,1,,116.bmp,-120,-120,117.bmp,120,-120,118.bmp,-120,120,119.bmp,120,120,10274.5,158683.79999998212,7771,yes,SM,A,116.bmp,-120,-120,161926,155900,163941,157913,,,,,1
3,0,0,1,0,0,prac,1,0,m,Fri Apr 03 2026 11:07:17 GMT-0500 (Central Daylight Time),179772.40000000596,O,None,2015,2,,120.bmp,-120,-120,121.bmp,120,-120,122.bmp,-120,120,123.bmp,120,120,10811.300000011921,168961.09999999404,7771,no,SM,A,123.bmp,-120,120,172192,166177,174207,168190,,,,,2
4,0,0,0,1,1,prac,1,1,m,Fri Apr 03 2026 11:07:17 GMT-0500 (Central Daylight Time),189735.29999998212,O,m,1149,3,,124.bmp,-120,-120,125.bmp,120,-120,126.bmp,-120,120,127.bmp,120,120,9958.59999999404,179776.69999998808,7771,no,SM,A,124.bmp,120,120,183021,176993,185036,179004,,,,,3
2,0,1,0,0,2,prac,1,1,z,Fri Apr 03 2026 11:07:17 GMT-0500 (Central Daylight Time),199850.69999998808,O,z,1296,4,,128.bmp,-120,-120,129.bmp,120,-120,130.bmp,-120,120,131.bmp,120,120,10109.59999999404,189741.09999999404,7771,yes,SM,A,129.bmp,120,-120,192983,186957,195000,188968,,,,,4
3,0,0,1,0,3,prac,1,1,z,Fri Apr 03 2026 11:07:17 GMT-0500 (Central Daylight Time),210030.69999998808,O,z,1370,5,,132.bmp,-120,-120,133.bmp,120,-120,134.bmp,-120,120,135.bmp,120,120,10175.09999999404,199855.59999999404,7771,yes,SM,A,134.bmp,-120,120,203098,197072,205111,199082,,,,,5
1,1,0,0,0,4,prac,1,1,m,Fri Apr 03 2026 11:07:17 GMT-0500 (Central Daylight Time),220144.29999998212,O,m,1299,6,,136.bmp,-120,-120,137.bmp,120,-120,138.bmp,-120,120,139.bmp,120,120,10109.699999988079,210034.59999999404,7771,no,SM,A,139.bmp,-120,-120,213277,207251,215294,209263,,,,,6
2,0,1,0,0,5,prac,1,1,m,Fri Apr 03 2026 11:07:17 GMT-0500 (Central Daylight Time),230190.09999999404,O,m,1225,7,,140.bmp,-120,-120,141.bmp,120,-120,142.bmp,-120,120,143.bmp,120,120,10042.09999999404,220148.0,7771,no,SM,A,140.bmp,120,-120,223391,217364,225407,219375,,,,,7
4,0,0,0,1,5,prac,1,0,z,Fri Apr 03 2026 11:07:17 GMT-0500 (Central Daylight Time),240602.90000000596,O,m,1585,8,,144.bmp,-120,-120,145.bmp,120,-120,146.bmp,-120,120,147.bmp,120,120,10408.200000017881,230194.69999998808,7771,yes,SM,A,147.bmp,120,120,233438,227411,235454,229422,,,,,8
4,0,0,0,1,1,test,1,1,m,Fri Apr 03 2026 11:07:17 GMT-0500 (Central Daylight Time),286340.59999999404,O,m,1265,1,,148.bmp,-120,-120,149.bmp,120,-120,150.bmp,-120,120,143.bmp,120,120,9314.40000000596,277026.1999999881,7771,no,SM,A,150.bmp,120,120,233438,227411,235454,229422,280273.0,274242.0,282288.0,276257.0,1
2,0,1,0,0,2,test,1,1,m,Fri Apr 03 2026 11:07:17 GMT-0500 (Central Daylight Time),296301.2999999821,O,m,1911,2,,101.bmp,-120,-120,102.bmp,120,-120,103.bmp,-120,120,104.bmp,120,120,9958.0,286343.2999999821,7771,no,SM,A,103.bmp,120,-120,233438,227411,235454,229422,289588.0,283560.0,291601.0,285571.0,2
1,1,0,0,0,3,test,1,1,z,Fri Apr 03 2026 11:07:17 GMT-0500 (Central Daylight Time),305548.09999999404,O,z,1185,3,,105.bmp,-120,-120,106.bmp,120,-120,107.bmp,-120,120,108.bmp,120,120,9242.59999999404,296305.5,7771,yes,SM,A,105.bmp,-120,-120,233438,227411,235454,229422,299550.0,293522.0,301565.0,295534.0,3
3,0,0,1,0,4,test,1,1,m,Fri Apr 03 2026 11:07:17 GMT-0500 (Central Daylight Time),314849.0,O,m,1236,4,,109.bmp,-120,-120,110.bmp,120,-120,111.bmp,-120,120,112.bmp,120,120,9297.40000000596,305551.59999999404,7771,no,SM,A,109.bmp,-120,120,233438,227411,235454,229422,308796.0,302768.0,310812.0,304781.0,4
2,0,1,0,0,5,test,1,1,z,Fri Apr 03 2026 11:07:17 GMT-0500 (Central Daylight Time),324427.0,O,z,1530,5,,113.bmp,-120,-120,114.bmp,120,-120,115.bmp,-120,120,116.bmp,120,120,9574.300000011921,314852.6999999881,7771,yes,SM,A,114.bmp,120,-120,233438,227411,235454,229422,318093.0,312069.0,320111.0,314081.0,5
3,0,0,1,0,5,test,1,0,z,Fri Apr 03 2026 11:07:17 GMT-0500 (Central Daylight Time),334473.0,O,None,2014,6,,117.bmp,-120,-120,118.bmp,120,-120,119.bmp,-120,120,120.bmp,120,120,10041.700000017881,324431.2999999821,7771,yes,SM,A,119.bmp,-120,120,233438,227411,235454,229422,327673.0,321648.0,329675.0,323659.0,6
4,0,0,0,1,5,test,1,0,z,Fri Apr 03 2026 11:07:17 GMT-0500 (Central Daylight Time),344536.09999999404,O,None,2015,7,,121.bmp,-120,-120,122.bmp,120,-120,123.bmp,-120,120,124.bmp,120,120,10058.199999988079,334477.90000000596,7771,yes,SM,A,124.bmp,120,120,233438,227411,235454,229422,337721.0,331694.0,339737.0,333706.0,7
2,0,1,0,0,5,test,1,0,m,Fri Apr 03 2026 11:07:17 GMT-0500 (Central Daylight Time),354600.90000000596,O,None,2016,8,,125.bmp,-120,-120,126.bmp,120,-120,127.bmp,-120,120,128.bmp,120,120,10061.200000017881,344539.6999999881,7771,no,SM,A,125.bmp,120,-120,233438,227411,235454,229422,347786.0,341756.0,349801.0,343770.0,8
3,0,0,1,0,6,test,1,1,m,Fri Apr 03 2026 11:07:17 GMT-0500 (Central Daylight Time),363980.6999999881,O,m,1342,9,,129.bmp,-120,-120,130.bmp,120,-120,131.bmp,-120,120,132.bmp,120,120,9375.799999982119,354604.90000000596,7771,no,SM,A,130.bmp,-120,120,233438,227411,235454,229422,357848.0,351821.0,359849.0,353834.0,9
4,0,0,0,1,6,test,1,0,z,Fri Apr 03 2026 11:07:17 GMT-0500 (Central Daylight Time),373460.09999999404,O,m,1419,10,,137.bmp,-120,-120,138.bmp,120,-120,139.bmp,-120,120,140.bmp,120,120,9476.59999999404,363983.5,7771,yes,SM,A,140.bmp,120,120,233438,227411,235454,229422,367228.0,361200.0,369244.0,363214.0,10
3,0,0,1,0,7,test,1,1,z,Fri Apr 03 2026 11:07:17 GMT-0500 (Central Daylight Time),382756.40000000596,O,z,1242,11,,133.bmp,-120,-120,134.bmp,120,-120,135.bmp,-120,120,136.bmp,120,120,9292.40000000596,373464.0,7771,yes,SM,A,135.bmp,-120,120,233438,227411,235454,229422,376709.0,370680.0,378725.0,372693.0,11
2,0,1,0,0,8,test,1,1,m,Fri Apr 03 2026 11:07:17 GMT-0500 (Central Daylight Time),392253.59999999404,O,m,1433,12,,141.bmp,-120,-120,142.bmp,120,-120,143.bmp,-120,120,144.bmp,120,120,9494.699999988079,382758.90000000596,7771,no,SM,A,141.bmp,120,-120,233438,227411,235454,229422,386005.0,379975.0,388022.0,381990.0,12
3,0,0,1,0,9,test,1,1,m,Fri Apr 03 2026 11:07:17 GMT-0500 (Central Daylight Time),401450.7999999821,O,m,1137,13,,145.bmp,-120,-120,146.bmp,120,-120,147.bmp,-120,120,148.bmp,120,120,9193.799999982119,392257.0,7771,no,SM,A,146.bmp,-120,120,233438,227411,235454,229422,395502.0,389473.0,397518.0,391487.0,13
1,1,0,0,0,10,test,1,1,z,Fri Apr 03 2026 11:07:17 GMT-0500 (Central Daylight Time),410814.7999999821,O,z,1299,14,,149.bmp,-120,-120,150.bmp,120,-120,104.bmp,-120,120,101.bmp,120,120,9361.0,401453.7999999821,7771,yes,SM,A,149.bmp,-120,-120,233438,227411,235454,229422,404699.0,398670.0,406716.0,400685.0,14
4,0,0,0,1,10,test,1,0,m,Fri Apr 03 2026 11:07:17 GMT-0500 (Central Daylight Time),420461.7999999821,O,z,1592,15,,110.bmp,-120,-120,111.bmp,120,-120,112.bmp,-120,120,113.bmp,120,120,9640.199999988079,410821.59999999404,7771,no,SM,A,111.bmp,120,120,233438,227411,235454,229422,414062.0,408038.0,416079.0,410048.0,15
1,1,0,0,0,11,test,1,1,m,Fri Apr 03 2026 11:07:17 GMT-0500 (Central Daylight Time),429658.6999999881,O,m,1137,16,,102.bmp,-120,-120,103.bmp,120,-120,104.bmp,-120,120,105.bmp,120,120,9189.799999982119,420468.90000000596,7771,no,SM,A,105.bmp,-120,-120,233438,227411,235454,229422,423709.0,417685.0,425725.0,419694.0,16
3,0,0,1,0,12,test,1,1,m,Fri Apr 03 2026 11:07:17 GMT-0500 (Central Daylight Time),439572.2999999821,O,m,1851,17,,122.bmp,-120,-120,123.bmp,120,-120,124.bmp,-120,120,125.bmp,120,120,9906.399999976158,429665.90000000596,7771,no,SM,A,122.bmp,-120,120,233438,227411,235454,229422,432907.0,426882.0,434924.0,428892.0,17
1,1,0,0,0,13,test,1,1,z,Fri Apr 03 2026 11:07:17 GMT-0500 (Central Daylight Time),448901.7999999821,O,z,1274,18,,106.bmp,-120,-120,107.bmp,120,-120,108.bmp,-120,120,109.bmp,120,120,9325.299999982119,439576.5,7771,yes,SM,A,106.bmp,-120,-120,233438,227411,235454,229422,442819.0,436793.0,444837.0,438805.0,18
2,0,1,0,0,13,test,1,0,z,Fri Apr 03 2026 11:07:17 GMT-0500 (Central Daylight Time),458950.2999999821,O,None,2015,19,,126.bmp,-120,-120,127.bmp,120,-120,128.bmp,-120,120,129.bmp,120,120,10046.299999982119,448904.0,7771,yes,SM,A,127.bmp,120,-120,233438,227411,235454,229422,452149.0,446120.0,454151.0,448135.0,19
3,0,0,1,0,14,test,1,1,z,Fri Apr 03 2026 11:07:17 GMT-0500 (Central Daylight Time),468712.2999999821,O,z,1705,20,,130.bmp,-120,-120,131.bmp,120,-120,132.bmp,-120,120,133.bmp,120,120,9757.5,458954.7999999821,7771,yes,SM,A,132.bmp,-120,120,233438,227411,235454,229422,462197.0,456171.0,464214.0,458182.0,20
1,1,0,0,0,15,test,1,1,m,Fri Apr 03 2026 11:07:17 GMT-0500 (Central Daylight Time),478360.7999999821,O,m,1583,21,,114.bmp,-120,-120,115.bmp,120,-120,116.bmp,-120,120,117.bmp,120,120,9646.5,468714.2999999821,7771,no,SM,A,116.bmp,-120,-120,233438,227411,235454,229422,471961.0,465931.0,473978.0,467946.0,21
4,0,0,0,1,16,test,1,1,z,Fri Apr 03 2026 11:07:17 GMT-0500 (Central Daylight Time),488089.5,O,z,1671,22,,118.bmp,-120,-120,119.bmp,120,-120,120.bmp,-120,120,121.bmp,120,120,9724.800000011921,478364.6999999881,7771,yes,SM,A,121.bmp,120,120,233438,227411,235454,229422,481608.0,475581.0,483624.0,477593.0,22
1,1,0,0,0,17,test,1,1,m,Fri Apr 03 2026 11:07:17 GMT-0500 (Central Daylight Time),497437.6999999881,O,m,1293,23,,134.bmp,-120,-120,135.bmp,120,-120,136.bmp,-120,120,137.bmp,120,120,9345.0,488092.6999999881,7771,no,SM,A,137.bmp,-120,-120,233438,227411,235454,229422,491338.0,485309.0,493355.0,487324.0,23
2,0,1,0,0,17,test,1,0,z,Fri Apr 03 2026 11:07:17 GMT-0500 (Central Daylight Time),507367.09999999404,O,m,1866,24,,142.bmp,-120,-120,143.bmp,120,-120,144.bmp,-120,120,145.bmp,120,120,9925.40000000596,497441.6999999881,7771,yes,SM,A,143.bmp,120,-120,233438,227411,235454,229422,500686.0,494658.0,502701.0,496671.0,24
4,0,0,0,1,18,test,1,1,m,Fri Apr 03 2026 11:07:17 GMT-0500 (Central Daylight Time),516781.1999999881,O,m,1359,25,,146.bmp,-120,-120,147.bmp,120,-120,148.bmp,-120,120,149.bmp,120,120,9411.59999999404,507369.59999999404,7771,no,SM,A,148.bmp,120,120,233438,227411,235454,229422,510616.0,504586.0,512632.0,506600.0,25
1,1,0,0,0,18,test,1,0,z,Fri Apr 03 2026 11:07:17 GMT-0500 (Central Daylight Time),526378.400000006,O,m,1537,26,,138.bmp,-120,-120,139.bmp,120,-120,140.bmp,-120,120,141.bmp,120,120,9593.90000000596,516784.5,7771,yes,SM,A,138.bmp,-120,-120,233438,227411,235454,229422,520031.0,514001.0,522046.0,516014.0,26
4,0,0,0,1,19,test,1,1,z,Fri Apr 03 2026 11:07:17 GMT-0500 (Central Daylight Time),536209.1999999881,O,z,1774,27,,150.bmp,-120,-120,111.bmp,120,-120,101.bmp,-120,120,102.bmp,120,120,9826.299999982119,526382.900000006,7771,yes,SM,A,102.bmp,120,120,233438,227411,235454,229422,529625.0,523599.0,531642.0,525611.0,27
3,0,0,1,0,19,test,1,0,m,Fri Apr 03 2026 11:07:17 GMT-0500 (Central Daylight Time),546271.5,O,None,2015,28,,103.bmp,-120,-120,104.bmp,120,-120,105.bmp,-120,120,106.bmp,120,120,10060.09999999404,536211.400000006,7771,no,SM,A,103.bmp,-120,120,233438,227411,235454,229422,539456.0,533428.0,541472.0,535440.0,28
2,0,1,0,0,20,test,1,1,z,Fri Apr 03 2026 11:07:17 GMT-0500 (Central Daylight Time),555586.1999999881,O,z,1255,29,,107.bmp,-120,-120,108.bmp,120,-120,109.bmp,-120,120,110.bmp,120,120,9308.199999988079,546278.0,7771,yes,SM,A,108.bmp,120,-120,233438,227411,235454,229422,549520.0,543494.0,551536.0,545503.0,29
3,0,0,1,0,21,test,1,1,z,Fri Apr 03 2026 11:07:17 GMT-0500 (Central Daylight Time),564715.1999999881,O,z,1084,30,,111.bmp,-120,-120,112.bmp,120,-120,113.bmp,-120,120,114.bmp,120,120,9124.5,555590.6999999881,7771,yes,SM,A,113.bmp,-120,120,233438,227411,235454,229422,558821.0,552807.0,560834.0,554819.0,30
1,1,0,0,0,22,test,1,1,z,Fri Apr 03 2026 11:07:17 GMT-0500 (Central Daylight Time),574646.1999999881,O,z,1872,31,,115.bmp,-120,-120,116.bmp,120,-120,117.bmp,-120,120,118.bmp,120,120,9927.90000000596,564718.2999999821,7771,yes,SM,A,115.bmp,-120,-120,233438,227411,235454,229422,567964.0,561935.0,569983.0,563948.0,31
2,0,1,0,0,23,test,1,1,m,Fri Apr 03 2026 11:07:17 GMT-0500 (Central Daylight Time),583994.5,O,m,1316,32,,119.bmp,-120,-120,120.bmp,120,-120,121.bmp,-120,120,122.bmp,120,120,9343.90000000596,574650.599999994,7771,no,SM,A,119.bmp,120,-120,233438,227411,235454,229422,577893.0,571867.0,579894.0,573879.0,32
4,0,0,0,1,23,test,1,0,z,Fri Apr 03 2026 11:07:17 GMT-0500 (Central Daylight Time),594057.099999994,O,None,2015,33,,131.bmp,-120,-120,132.bmp,120,-120,133.bmp,-120,120,134.bmp,120,120,10058.09999999404,583999.0,7771,yes,SM,A,134.bmp,120,120,233438,227411,235454,229422,587242.0,581215.0,589258.0,583226.0,33
2,0,1,0,0,24,test,1,1,z,Fri Apr 03 2026 11:07:17 GMT-0500 (Central Daylight Time),603303.0,O,z,1198,34,,123.bmp,-120,-120,124.bmp,120,-120,125.bmp,-120,120,126.bmp,120,120,9241.09999999404,594061.900000006,7771,yes,SM,A,124.bmp,120,-120,233438,227411,235454,229422,597305.0,591278.0,599321.0,593289.0,34
4,0,0,0,1,25,test,1,1,m,Fri Apr 03 2026 11:07:17 GMT-0500 (Central Daylight Time),612668.2999999821,O,m,1302,35,,127.bmp,-120,-120,128.bmp,120,-120,129.bmp,-120,120,130.bmp,120,120,9362.799999982119,603305.5,7771,no,SM,A,129.bmp,120,120,233438,227411,235454,229422,606552.0,600522.0,608569.0,602536.0,35
3,0,0,1,0,25,test,1,0,m,Fri Apr 03 2026 11:07:17 GMT-0500 (Central Daylight Time),622729.5,O,None,2015,36,,135.bmp,-120,-120,136.bmp,120,-120,137.bmp,-120,120,138.bmp,120,120,10056.59999999404,612672.900000006,7771,no,SM,A,135.bmp,-120,120,233438,227411,235454,229422,615915.0,609889.0,617930.0,611901.0,36
1,1,0,0,0,26,test,1,1,m,Fri Apr 03 2026 11:07:17 GMT-0500 (Central Daylight Time),631846.6999999881,O,m,1051,37,,139.bmp,-120,-120,140.bmp,120,-120,141.bmp,-120,120,142.bmp,120,120,9113.59999999404,622733.099999994,7771,no,SM,A,140.bmp,-120,-120,233438,227411,235454,229422,625978.0,619949.0,627996.0,621964.0,37
2,0,1,0,0,27,test,1,1,m,Fri Apr 03 2026 11:07:17 GMT-0500 (Central Daylight Time),641142.599999994,O,m,1248,38,,143.bmp,-120,-120,144.bmp,120,-120,145.bmp,-120,120,146.bmp,120,120,9292.5,631850.099999994,7771,no,SM,A,145.bmp,120,-120,233438,227411,235454,229422,635093.0,629066.0,637110.0,631077.0,38
4,0,0,0,1,27,test,1,0,z,Fri Apr 03 2026 11:07:17 GMT-0500 (Central Daylight Time),651171.7999999821,O,m,1985,39,,147.bmp,-120,-120,148.bmp,120,-120,149.bmp,-120,120,150.bmp,120,120,10025.699999988079,641146.099999994,7771,yes,SM,A,150.bmp,120,120,233438,227411,235454,229422,644389.0,638362.0,646390.0,640374.0,39
3,0,0,1,0,28,test,1,1,m,Fri Apr 03 2026 11:07:17 GMT-0500 (Central Daylight Time),660634.6999999881,O,m,1412,40,,104.bmp,-120,-120,105.bmp,120,-120,106.bmp,-120,120,107.bmp,120,120,9459.90000000596,651174.7999999821,7771,no,SM,A,105.bmp,-120,120,233438,227411,235454,229422,654419.0,648391.0,656435.0,650406.0,40
1,1,0,0,0,29,test,1,1,z,Fri Apr 03 2026 11:07:17 GMT-0500 (Central Daylight Time),670015.6999999881,O,z,1334,41,,108.bmp,-120,-120,109.bmp,120,-120,110.bmp,-120,120,111.bmp,120,120,9376.5,660639.1999999881,7771,yes,SM,A,108.bmp,-120,-120,233438,227411,235454,229422,663869.0,657855.0,665882.0,659868.0,41
4,0,0,0,1,30,test,1,1,z,Fri Apr 03 2026 11:07:17 GMT-0500 (Central Daylight Time),679412.6999999881,O,z,1341,42,,112.bmp,-120,-120,113.bmp,120,-120,114.bmp,-120,120,115.bmp,120,120,9392.09999999404,670020.599999994,7771,yes,SM,A,115.bmp,120,120,233438,227411,235454,229422,673264.0,667237.0,675281.0,669250.0,42
1,1,0,0,0,30,test,1,0,z,Fri Apr 03 2026 11:07:17 GMT-0500 (Central Daylight Time),689475.599999994,O,None,2015,43,,116.bmp,-120,-120,117.bmp,120,-120,118.bmp,-120,120,119.bmp,120,120,10058.0,679417.599999994,7771,yes,SM,A,116.bmp,-120,-120,233438,227411,235454,229422,682660.0,676634.0,684676.0,678646.0,43
4,0,0,0,1,31,test,1,1,m,Fri Apr 03 2026 11:07:17 GMT-0500 (Central Daylight Time),698739.7999999821,O,m,1203,44,,104.bmp,-120,-120,101.bmp,120,-120,102.bmp,-120,120,103.bmp,120,120,9258.699999988079,689481.099999994,7771,no,SM,A,104.bmp,120,120,233438,227411,235454,229422,692724.0,686697.0,694740.0,688709.0,44
1,1,0,0,0,32,test,1,1,m,Fri Apr 03 2026 11:07:17 GMT-0500 (Central Daylight Time),708120.400000006,O,m,1322,45,,128.bmp,-120,-120,129.bmp,120,-120,130.bmp,-120,120,131.bmp,120,120,9377.40000000596,698743.0,7771,no,SM,A,131.bmp,-120,-120,233438,227411,235454,229422,701988.0,695959.0,704004.0,697972.0,45
1,1,0,0,0,33,test,1,1,m,Fri Apr 03 2026 11:07:17 GMT-0500 (Central Daylight Time),717483.2999999821,O,m,1303,46,,120.bmp,-120,-120,121.bmp,120,-120,122.bmp,-120,120,123.bmp,120,120,9360.699999988079,708122.599999994,7771,no,SM,A,121.bmp,-120,-120,233438,227411,235454,229422,711368.0,705339.0,713385.0,707354.0,46
3,0,0,1,0,34,test,1,1,z,Fri Apr 03 2026 11:07:17 GMT-0500 (Central Daylight Time),727114.0,O,z,1571,47,,124.bmp,-120,-120,125.bmp,120,-120,126.bmp,-120,120,127.bmp,120,120,9626.700000017881,717487.2999999821,7771,yes,SM,A,126.bmp,-120,120,233438,227411,235454,229422,720731.0,714704.0,722748.0,716716.0,47
3,0,0,1,0,35,test,1,1,z,Fri Apr 03 2026 11:07:17 GMT-0500 (Central Daylight Time),736345.599999994,O,z,1183,48,,140.bmp,-120,-120,141.bmp,120,-120,142.bmp,-120,120,143.bmp,120,120,9229.40000000596,727116.1999999881,7771,yes,SM,A,142.bmp,-120,120,233438,227411,235454,229422,730361.0,724332.0,732378.0,726346.0,48
2,0,1,0,0,36,test,1,1,z,Fri Apr 03 2026 11:07:17 GMT-0500 (Central Daylight Time),745674.599999994,O,z,1286,49,,136.bmp,-120,-120,137.bmp,120,-120,138.bmp,-120,120,139.bmp,120,120,9324.800000011921,736349.7999999821,7771,yes,SM,A,137.bmp,120,-120,233438,227411,235454,229422,739592.0,733566.0,741593.0,735578.0,49
3,0,0,1,0,36,test,1,0,m,Fri Apr 03 2026 11:07:17 GMT-0500 (Central Daylight Time),755172.5,O,z,1446,50,,132.bmp,-120,-120,133.bmp,120,-120,134.bmp,-120,120,135.bmp,120,120,9495.300000011921,745677.1999999881,7771,no,SM,A,132.bmp,-120,120,233438,227411,235454,229422,748922.0,742893.0,750938.0,744906.0,50
2,0,1,0,0,37,test,1,1,z,Fri Apr 03 2026 11:07:17 GMT-0500 (Central Daylight Time),764634.900000006,O,z,1411,51,,144.bmp,-120,-120,145.bmp,120,-120,146.bmp,-120,120,147.bmp,120,120,9459.0,755175.900000006,7771,yes,SM,A,145.bmp,120,-120,233438,227411,235454,229422,758419.0,752392.0,760436.0,754404.0,51
4,0,0,0,1,38,test,1,1,m,Fri Apr 03 2026 11:07:17 GMT-0500 (Central Daylight Time),773865.400000006,O,m,1172,52,,148.bmp,-120,-120,149.bmp,120,-120,150.bmp,-120,120,131.bmp,120,120,9223.600000023842,764641.7999999821,7771,no,SM,A,148.bmp,120,120,233438,227411,235454,229422,767884.0,761858.0,769899.0,763870.0,52
3,0,0,1,0,39,test,1,1,z,Fri Apr 03 2026 11:07:17 GMT-0500 (Central Daylight Time),783296.900000006,O,z,1383,53,,101.bmp,-120,-120,102.bmp,120,-120,103.bmp,-120,120,104.bmp,120,120,9426.300000011921,773870.599999994,7771,yes,SM,A,103.bmp,-120,120,233438,227411,235454,229422,777113.0,771087.0,779129.0,773099.0,53
1,1,0,0,0,39,test,1,0,m,Fri Apr 03 2026 11:07:17 GMT-0500 (Central Daylight Time),793359.1999999881,O,None,2015,54,,105.bmp,-120,-120,106.bmp,120,-120,107.bmp,-120,120,108.bmp,120,120,10058.59999999404,783300.599999994,7771,no,SM,A,107.bmp,-120,-120,233438,227411,235454,229422,786544.0,780517.0,788560.0,782528.0,54
4,0,0,0,1,40,test,1,1,z,Fri Apr 03 2026 11:07:17 GMT-0500 (Central Daylight Time),803373.7999999821,O,z,1960,55,,109.bmp,-120,-120,110.bmp,120,-120,111.bmp,-120,120,112.bmp,120,120,10008.199999988079,793365.599999994,7771,yes,SM,A,112.bmp,120,120,233438,227411,235454,229422,796607.0,790582.0,798624.0,792592.0,55
2,0,1,0,0,41,test,1,1,m,Fri Apr 03 2026 11:07:17 GMT-0500 (Central Daylight Time),813336.400000006,O,m,1914,56,,113.bmp,-120,-120,114.bmp,120,-120,115.bmp,-120,120,116.bmp,120,120,9959.600000023842,803376.7999999821,7771,no,SM,A,113.bmp,120,-120,233438,227411,235454,229422,806620.0,800593.0,808637.0,802606.0,56
4,0,0,0,1,42,test,1,1,m,Fri Apr 03 2026 11:07:17 GMT-0500 (Central Daylight Time),823015.2999999821,O,m,1622,57,,117.bmp,-120,-120,118.bmp,120,-120,119.bmp,-120,120,120.bmp,120,120,9675.5,813339.7999999821,7771,no,SM,A,118.bmp,120,120,233438,227411,235454,229422,816584.0,810556.0,818599.0,812569.0,57
3,0,0,1,0,43,test,1,1,z,Fri Apr 03 2026 11:07:17 GMT-0500 (Central Daylight Time),832497.7999999821,O,z,1422,58,,121.bmp,-120,-120,122.bmp,120,-120,123.bmp,-120,120,124.bmp,120,120,9479.59999999404,823018.1999999881,7771,yes,SM,A,123.bmp,-120,120,233438,227411,235454,229422,826265.0,820235.0,828282.0,822249.0,58
2,0,1,0,0,43,test,1,0,m,Fri Apr 03 2026 11:07:17 GMT-0500 (Central Daylight Time),842544.900000006,O,None,2016,59,,125.bmp,-120,-120,126.bmp,120,-120,127.bmp,-120,120,128.bmp,120,120,10044.0,832500.900000006,7771,no,SM,A,128.bmp,120,-120,233438,227411,235454,229422,835728.0,829717.0,837745.0,831727.0,59
1,1,0,0,0,44,test,1,1,z,Fri Apr 03 2026 11:07:17 GMT-0500 (Central Daylight Time),852139.7999999821,O,z,1559,60,,129.bmp,-120,-120,130.bmp,120,-120,131.bmp,-120,120,132.bmp,120,120,9591.0,842548.7999999821,7771,yes,SM,A,129.bmp,-120,-120,233438,227411,235454,229422,845791.0,839765.0,847792.0,841776.0,60
2,0,1,0,0,45,test,1,1,z,Fri Apr 03 2026 11:07:17 GMT-0500 (Central Daylight Time),861388.400000006,O,z,1186,61,,133.bmp,-120,-120,134.bmp,120,-120,135.bmp,-120,120,136.bmp,120,120,9246.0,852142.400000006,7771,yes,SM,A,134.bmp,120,-120,233438,227411,235454,229422,855390.0,849359.0,857405.0,851374.0,61
4,0,0,0,1,45,test,1,0,z,Fri Apr 03 2026 11:07:17 GMT-0500 (Central Daylight Time),871318.1999999881,O,m,1877,62,,141.bmp,-120,-120,142.bmp,120,-120,143.bmp,-120,120,144.bmp,120,120,9926.699999988079,861391.5,7771,yes,SM,A,144.bmp,120,120,233438,227411,235454,229422,864636.0,858608.0,866651.0,860621.0,62
1,1,0,0,0,45,test,1,0,m,Fri Apr 03 2026 11:07:17 GMT-0500 (Central Daylight Time),880747.7999999821,O,z,1377,63,,145.bmp,-120,-120,146.bmp,120,-120,147.bmp,-120,120,148.bmp,120,120,9426.59999999404,871321.1999999881,7771,no,SM,A,145.bmp,-120,120,233438,227411,235454,229422,874566.0,868537.0,876582.0,870551.0,63
2,0,1,0,0,46,test,1,1,z,Fri Apr 03 2026 11:07:17 GMT-0500 (Central Daylight Time),890278.1999999881,O,z,1467,64,,149.bmp,-120,-120,150.bmp,120,-120,112.bmp,-120,120,101.bmp,120,120,9527.199999988079,880751.0,7771,yes,SM,A,150.bmp,120,-120,233438,227411,235454,229422,883997.0,877967.0,886012.0,879982.0,64
4,0,0,0,1,47,test,1,1,m,Fri Apr 03 2026 11:07:17 GMT-0500 (Central Daylight Time),899726.0,O,m,1394,65,,102.bmp,-120,-120,103.bmp,120,-120,104.bmp,-120,120,105.bmp,120,120,9442.0,890284.0,7771,no,SM,A,104.bmp,120,120,233438,227411,235454,229422,893526.0,887500.0,895543.0,889511.0,65
3,0,0,1,0,48,test,1,1,m,Fri Apr 03 2026 11:07:17 GMT-0500 (Central Daylight Time),909153.900000006,O,m,1377,66,,106.bmp,-120,-120,107.bmp,120,-120,108.bmp,-120,120,109.bmp,120,120,9423.90000000596,899730.0,7771,no,SM,A,109.bmp,-120,120,233438,227411,235454,229422,902974.0,896946.0,904989.0,898960.0,66
2,0,1,0,0,49,test,1,1,m,Fri Apr 03 2026 11:07:17 GMT-0500 (Central Daylight Time),918836.5,O,m,1619,67,,137.bmp,-120,-120,138.bmp,120,-120,139.bmp,-120,120,140.bmp,120,120,9680.700000017881,909155.7999999821,7771,no,SM,A,139.bmp,120,-120,233438,227411,235454,229422,912404.0,906372.0,914420.0,908388.0,67
3,0,0,1,0,50,test,1,1,z,Fri Apr 03 2026 11:07:17 GMT-0500 (Central Daylight Time),928283.2999999821,O,z,1395,68,,110.bmp,-120,-120,111.bmp,120,-120,112.bmp,-120,120,113.bmp,120,120,9442.299999982119,918841.0,7771,yes,SM,A,112.bmp,-120,120,233438,227411,235454,229422,922083.0,916057.0,924100.0,918069.0,68
1,1,0,0,0,51,test,1,1,m,Fri Apr 03 2026 11:07:17 GMT-0500 (Central Daylight Time),937297.400000006,O,m,966,69,,114.bmp,-120,-120,115.bmp,120,-120,116.bmp,-120,120,117.bmp,120,120,9010.800000011921,928286.599999994,7771,no,SM,A,115.bmp,-120,-120,233438,227411,235454,229422,931531.0,925503.0,933545.0,927517.0,69
2,0,1,0,0,52,test,1,1,m,Fri Apr 03 2026 11:07:17 GMT-0500 (Central Daylight Time),946527.900000006,O,m,1165,70,,118.bmp,-120,-120,119.bmp,120,-120,120.bmp,-120,120,121.bmp,120,120,9226.0,937301.900000006,7771,no,SM,A,120.bmp,120,-120,233438,227411,235454,229422,940545.0,934518.0,942562.0,936530.0,70
4,0,0,0,1,53,test,1,1,z,Fri Apr 03 2026 11:07:17 GMT-0500 (Central Daylight Time),956440.400000006,O,z,1855,71,,122.bmp,-120,-120,123.bmp,120,-120,124.bmp,-120,120,125.bmp,120,120,9907.700000017881,946532.6999999881,7771,yes,SM,A,125.bmp,120,120,233438,227411,235454,229422,949776.0,943749.0,951792.0,945760.0,71
1,1,0,0,0,54,test,1,1,z,Fri Apr 03 2026 11:07:17 GMT-0500 (Central Daylight Time),965721.099999994,O,z,1224,72,,126.bmp,-120,-120,127.bmp,120,-120,128.bmp,-120,120,129.bmp,120,120,9277.59999999404,956443.5,7771,yes,SM,A,126.bmp,-120,-120,233438,227411,235454,229422,959689.0,953660.0,961705.0,955673.0,72
2,0,1,0,0,55,test,1,1,z,Fri Apr 03 2026 11:07:17 GMT-0500 (Central Daylight Time),975085.900000006,O,z,1318,73,,130.bmp,-120,-120,131.bmp,120,-120,132.bmp,-120,120,133.bmp,120,120,9362.100000023842,965723.7999999821,7771,yes,SM,A,131.bmp,120,-120,233438,227411,235454,229422,968967.0,962940.0,970969.0,964954.0,73
4,0,0,0,1,56,test,1,1,m,Fri Apr 03 2026 11:07:17 GMT-0500 (Central Daylight Time),984182.5,O,m,1041,74,,134.bmp,-120,-120,135.bmp,120,-120,136.bmp,-120,120,137.bmp,120,120,9093.09999999404,975089.400000006,7771,no,SM,A,136.bmp,120,120,233438,227411,235454,229422,978333.0,972306.0,980350.0,974317.0,74
2,0,1,0,0,57,test,1,1,m,Fri Apr 03 2026 11:07:17 GMT-0500 (Central Daylight Time),993679.5,O,m,1434,75,,138.bmp,-120,-120,139.bmp,120,-120,140.bmp,-120,120,141.bmp,120,120,9492.800000011921,984186.6999999881,7771,no,SM,A,141.bmp,120,-120,233438,227411,235454,229422,987430.0,981403.0,989446.0,983415.0,75
1,1,0,0,0,58,test,1,1,z,Fri Apr 03 2026 11:07:17 GMT-0500 (Central Daylight Time),1003193.1999999881,O,z,1456,76,,142.bmp,-120,-120,143.bmp,120,-120,144.bmp,-120,120,145.bmp,120,120,9510.59999999404,993682.599999994,7771,yes,SM,A,142.bmp,-120,-120,233438,227411,235454,229422,996927.0,990899.0,998944.0,992913.0,76
3,0,0,1,0,58,test,1,0,z,Fri Apr 03 2026 11:07:17 GMT-0500 (Central Daylight Time),1012839.5,O,m,1614,77,,150.bmp,-120,-120,111.bmp,120,-120,101.bmp,-120,120,102.bmp,120,120,9642.5,1003197.0,7771,yes,SM,A,101.bmp,-120,120,233438,227411,235454,229422,1006427.0,1000413.0,1008441.0,1002426.0,77
1,1,0,0,0,59,test,1,1,m,Fri Apr 03 2026 11:07:17 GMT-0500 (Central Daylight Time),1022003.599999994,O,m,1120,78,,146.bmp,-120,-120,147.bmp,120,-120,148.bmp,-120,120,149.bmp,120,120,9159.300000011921,1012844.2999999821,7771,no,SM,A,147.bmp,-120,-120,233438,227411,235454,229422,1016085.0,1010060.0,1018087.0,1012073.0,78
4,0,0,0,1,60,test,1,1,m,Fri Apr 03 2026 11:07:17 GMT-0500 (Central Daylight Time),1031249.7999999821,O,m,1198,79,,107.bmp,-120,-120,108.bmp,120,-120,109.bmp,-120,120,110.bmp,120,120,9241.399999976158,1022008.400000006,7771,no,SM,A,107.bmp,120,120,233438,227411,235454,229422,1025250.0,1019225.0,1027265.0,1021236.0,79
3,0,0,1,0,61,test,1,1,m,Fri Apr 03 2026 11:07:17 GMT-0500 (Central Daylight Time),1040797.099999994,O,m,1494,80,,103.bmp,-120,-120,104.bmp,120,-120,105.bmp,-120,120,106.bmp,120,120,9544.0,1031253.099999994,7771,no,SM,A,106.bmp,-120,120,233438,227411,235454,229422,1034498.0,1028469.0,1036514.0,1030483.0,80
