Q,Q1,Q2,Q3,Q4,acc_sum,block,block_c,correct,correct_response,datetime,endtime,project,response,response_time,row_sel,session_number,squiggle1,squiggle1x,squiggle1y,squiggle2,squiggle2x,squiggle2y,squiggle3,squiggle3x,squiggle3y,squiggle4,squiggle4x,squiggle4y,start_end,starttime,subject_id,target_congruent,task,task_vers,testsquiggle,testsquigglex,testsquiggley,time_practice_delay,time_practice_fixation,time_practice_stimuli,time_practice_study,time_test_delay,time_test_fixation,time_test_stimuli,time_test_study,trial
1,1,0,0,0,0,prac,1,0,z,Wed May 27 2026 16:24:05 GMT-0500 (Central Daylight Time),161848.70000000298,I,None,2015,1,1,116.bmp,-120,-120,117.bmp,120,-120,118.bmp,-120,120,119.bmp,120,120,10827.0,151021.70000000298,8101,yes,SM,A,116.bmp,-120,-120,151799,145771,153816,147784,,,,,1
3,0,0,1,0,0,prac,1,0,m,Wed May 27 2026 16:24:05 GMT-0500 (Central Daylight Time),172678.70000000298,I,None,2015,2,1,120.bmp,-120,-120,121.bmp,120,-120,122.bmp,-120,120,123.bmp,120,120,10825.90000000596,161852.79999999702,8101,no,SM,A,123.bmp,-120,120,162629,156602,164645,158614,,,,,2
4,0,0,0,1,0,prac,1,0,m,Wed May 27 2026 16:24:05 GMT-0500 (Central Daylight Time),183508.70000000298,I,None,2015,3,1,124.bmp,-120,-120,125.bmp,120,-120,126.bmp,-120,120,127.bmp,120,120,10825.60000000894,172683.09999999404,8101,no,SM,A,124.bmp,120,120,173459,167432,175477,169444,,,,,3
2,0,1,0,0,0,prac,1,0,z,Wed May 27 2026 16:24:05 GMT-0500 (Central Daylight Time),194072.09999999404,I,m,1742,4,1,128.bmp,-120,-120,129.bmp,120,-120,130.bmp,-120,120,131.bmp,120,120,10559.59999999404,183512.5,8101,yes,SM,A,129.bmp,120,-120,184289,178262,186305,180274,,,,,4
3,0,0,1,0,1,prac,1,1,z,Wed May 27 2026 16:24:05 GMT-0500 (Central Daylight Time),204585.39999999106,I,z,1705,5,1,132.bmp,-120,-120,133.bmp,120,-120,134.bmp,-120,120,135.bmp,120,120,10509.699999988079,194075.70000000298,8101,yes,SM,A,134.bmp,-120,120,194853,188825,196869,190837,,,,,5
1,1,0,0,0,1,prac,1,0,m,Wed May 27 2026 16:24:05 GMT-0500 (Central Daylight Time),215416.09999999404,I,None,2016,6,1,136.bmp,-120,-120,137.bmp,120,-120,138.bmp,-120,120,139.bmp,120,120,10826.89999999106,204589.20000000298,8101,no,SM,A,139.bmp,-120,-120,205369,199338,207382,201351,,,,,6
2,0,1,0,0,2,prac,1,1,m,Wed May 27 2026 16:24:05 GMT-0500 (Central Daylight Time),225845.39999999106,I,m,1611,7,1,140.bmp,-120,-120,141.bmp,120,-120,142.bmp,-120,120,143.bmp,120,120,10425.39999999106,215420.0,8101,no,SM,A,140.bmp,120,-120,216196,210169,218212,212181,,,,,7
4,0,0,0,1,3,prac,1,1,z,Wed May 27 2026 16:24:05 GMT-0500 (Central Daylight Time),236325.5,I,z,1661,8,1,144.bmp,-120,-120,145.bmp,120,-120,146.bmp,-120,120,147.bmp,120,120,10476.10000000894,225849.39999999106,8101,yes,SM,A,147.bmp,120,120,226626,220599,228642,222611,,,,,8
4,0,0,0,1,0,test,1,0,m,Wed May 27 2026 16:24:05 GMT-0500 (Central Daylight Time),259968.20000000298,I,z,1676,1,1,148.bmp,-120,-120,149.bmp,120,-120,150.bmp,-120,120,143.bmp,120,120,9727.800000011921,250240.39999999106,8101,no,SM,A,150.bmp,120,120,226626,220599,228642,222611,251018.0,244990.0,253035.0,247003.0,1
2,0,1,0,0,1,test,1,1,m,Wed May 27 2026 16:24:05 GMT-0500 (Central Daylight Time),269465.09999999404,I,m,1441,2,1,101.bmp,-120,-120,102.bmp,120,-120,103.bmp,-120,120,104.bmp,120,120,9492.39999999106,259972.70000000298,8101,no,SM,A,103.bmp,120,-120,226626,220599,228642,222611,260749.0,254722.0,262765.0,256733.0,2
1,1,0,0,0,2,test,1,1,z,Wed May 27 2026 16:24:05 GMT-0500 (Central Daylight Time),279411.89999999106,I,z,1897,3,1,105.bmp,-120,-120,106.bmp,120,-120,107.bmp,-120,120,108.bmp,120,120,9943.29999999702,269468.59999999404,8101,yes,SM,A,105.bmp,-120,-120,226626,220599,228642,222611,270246.0,264218.0,272262.0,266230.0,3
3,0,0,1,0,2,test,1,0,m,Wed May 27 2026 16:24:05 GMT-0500 (Central Daylight Time),288625.799999997,I,z,1150,4,1,109.bmp,-120,-120,110.bmp,120,-120,111.bmp,-120,120,112.bmp,120,120,9209.79999999702,279416.0,8101,no,SM,A,109.bmp,-120,120,226626,220599,228642,222611,280192.0,274165.0,282209.0,276177.0,4
2,0,1,0,0,2,test,1,0,z,Wed May 27 2026 16:24:05 GMT-0500 (Central Daylight Time),297899.89999999106,I,m,1226,5,1,113.bmp,-120,-120,114.bmp,120,-120,115.bmp,-120,120,116.bmp,120,120,9270.79999999702,288629.09999999404,8101,yes,SM,A,114.bmp,120,-120,226626,220599,228642,222611,289406.0,283378.0,291423.0,285391.0,5
3,0,0,1,0,3,test,1,1,z,Wed May 27 2026 16:24:05 GMT-0500 (Central Daylight Time),307552.89999999106,I,z,1600,6,1,117.bmp,-120,-120,118.bmp,120,-120,119.bmp,-120,120,120.bmp,120,120,9649.699999988079,297903.200000003,8101,yes,SM,A,119.bmp,-120,120,226626,220599,228642,222611,298670.0,292653.0,300686.0,294656.0,6
4,0,0,0,1,4,test,1,1,z,Wed May 27 2026 16:24:05 GMT-0500 (Central Daylight Time),317266.700000003,I,z,1664,7,1,121.bmp,-120,-120,122.bmp,120,-120,123.bmp,-120,120,124.bmp,120,120,9710.70000000298,307556.0,8101,yes,SM,A,124.bmp,120,120,226626,220599,228642,222611,308334.0,302305.0,310350.0,304318.0,7
2,0,1,0,0,5,test,1,1,m,Wed May 27 2026 16:24:05 GMT-0500 (Central Daylight Time),326913.5,I,m,1598,8,1,125.bmp,-120,-120,126.bmp,120,-120,127.bmp,-120,120,128.bmp,120,120,9643.40000000596,317270.09999999404,8101,no,SM,A,125.bmp,120,-120,226626,220599,228642,222611,318047.0,312019.0,320064.0,314032.0,8
3,0,0,1,0,5,test,1,0,m,Wed May 27 2026 16:24:05 GMT-0500 (Central Daylight Time),336977.299999997,I,None,2016,9,1,129.bmp,-120,-120,130.bmp,120,-120,131.bmp,-120,120,132.bmp,120,120,10060.5,326916.799999997,8101,no,SM,A,130.bmp,-120,120,226626,220599,228642,222611,327694.0,321666.0,329710.0,323679.0,9
4,0,0,0,1,5,test,1,0,z,Wed May 27 2026 16:24:05 GMT-0500 (Central Daylight Time),347024.0,I,None,2001,10,1,137.bmp,-120,-120,138.bmp,120,-120,139.bmp,-120,120,140.bmp,120,120,10042.90000000596,336981.09999999404,8101,yes,SM,A,140.bmp,120,120,226626,220599,228642,222611,337758.0,331730.0,339772.0,333743.0,10
3,0,0,1,0,6,test,1,1,z,Wed May 27 2026 16:24:05 GMT-0500 (Central Daylight Time),356538.39999999106,I,z,1466,11,1,133.bmp,-120,-120,134.bmp,120,-120,135.bmp,-120,120,136.bmp,120,120,9510.59999999404,347027.799999997,8101,yes,SM,A,135.bmp,-120,120,226626,220599,228642,222611,347805.0,341777.0,349821.0,343789.0,11
2,0,1,0,0,7,test,1,1,m,Wed May 27 2026 16:24:05 GMT-0500 (Central Daylight Time),366134.799999997,I,m,1544,12,1,141.bmp,-120,-120,142.bmp,120,-120,143.bmp,-120,120,144.bmp,120,120,9592.79999999702,356542.0,8101,no,SM,A,141.bmp,120,-120,226626,220599,228642,222611,357318.0,351291.0,359335.0,353304.0,12
3,0,0,1,0,7,test,1,0,m,Wed May 27 2026 16:24:05 GMT-0500 (Central Daylight Time),376198.299999997,I,None,2015,13,1,145.bmp,-120,-120,146.bmp,120,-120,147.bmp,-120,120,148.bmp,120,120,10060.09999999404,366138.200000003,8101,no,SM,A,146.bmp,-120,120,226626,220599,228642,222611,366915.0,360887.0,368932.0,362900.0,13
1,1,0,0,0,8,test,1,1,z,Wed May 27 2026 16:24:05 GMT-0500 (Central Daylight Time),386011.89999999106,I,z,1764,14,1,149.bmp,-120,-120,150.bmp,120,-120,104.bmp,-120,120,101.bmp,120,120,9809.5,376202.39999999106,8101,yes,SM,A,149.bmp,-120,-120,226626,220599,228642,222611,376979.0,370952.0,378995.0,372963.0,14
4,0,0,0,1,8,test,1,0,m,Wed May 27 2026 16:24:05 GMT-0500 (Central Daylight Time),396075.59999999404,I,None,2016,15,1,110.bmp,-120,-120,111.bmp,120,-120,112.bmp,-120,120,113.bmp,120,120,10059.0,386016.59999999404,8101,no,SM,A,111.bmp,120,120,226626,220599,228642,222611,386792.0,380766.0,388809.0,382777.0,15
1,1,0,0,0,9,test,1,1,m,Wed May 27 2026 16:24:05 GMT-0500 (Central Daylight Time),406005.700000003,I,m,1871,16,1,102.bmp,-120,-120,103.bmp,120,-120,104.bmp,-120,120,105.bmp,120,120,9926.5,396079.200000003,8101,no,SM,A,105.bmp,-120,-120,226626,220599,228642,222611,396856.0,390828.0,398872.0,392841.0,16
3,0,0,1,0,10,test,1,1,m,Wed May 27 2026 16:24:05 GMT-0500 (Central Daylight Time),415036.0,I,m,971,17,1,122.bmp,-120,-120,123.bmp,120,-120,124.bmp,-120,120,125.bmp,120,120,9027.10000000894,406008.89999999106,8101,no,SM,A,122.bmp,-120,120,226626,220599,228642,222611,406786.0,400758.0,408803.0,402771.0,17
1,1,0,0,0,11,test,1,1,z,Wed May 27 2026 16:24:05 GMT-0500 (Central Daylight Time),424767.59999999404,I,z,1677,18,1,106.bmp,-120,-120,107.bmp,120,-120,108.bmp,-120,120,109.bmp,120,120,9728.0,415039.59999999404,8101,yes,SM,A,106.bmp,-120,-120,226626,220599,228642,222611,415817.0,409789.0,417833.0,411801.0,18
2,0,1,0,0,11,test,1,0,z,Wed May 27 2026 16:24:05 GMT-0500 (Central Daylight Time),433897.0,I,m,1076,19,1,126.bmp,-120,-120,127.bmp,120,-120,128.bmp,-120,120,129.bmp,120,120,9125.60000000894,424771.39999999106,8101,yes,SM,A,127.bmp,120,-120,226626,220599,228642,222611,425547.0,419521.0,427563.0,421532.0,19
3,0,0,1,0,12,test,1,1,z,Wed May 27 2026 16:24:05 GMT-0500 (Central Daylight Time),442993.700000003,I,z,1064,20,1,130.bmp,-120,-120,131.bmp,120,-120,132.bmp,-120,120,133.bmp,120,120,9092.90000000596,433900.799999997,8101,yes,SM,A,132.bmp,-120,120,226626,220599,228642,222611,434677.0,428650.0,436678.0,430662.0,20
1,1,0,0,0,12,test,1,0,m,Wed May 27 2026 16:24:05 GMT-0500 (Central Daylight Time),452975.200000003,I,z,1919,21,1,114.bmp,-120,-120,115.bmp,120,-120,116.bmp,-120,120,117.bmp,120,120,9978.60000000894,442996.59999999404,8101,no,SM,A,116.bmp,-120,-120,226626,220599,228642,222611,443775.0,437746.0,445792.0,439759.0,21
4,0,0,0,1,12,test,1,0,z,Wed May 27 2026 16:24:05 GMT-0500 (Central Daylight Time),462254.59999999404,I,m,1219,22,1,118.bmp,-120,-120,119.bmp,120,-120,120.bmp,-120,120,121.bmp,120,120,9276.0,452978.59999999404,8101,yes,SM,A,121.bmp,120,120,226626,220599,228642,222611,453755.0,447728.0,455771.0,449739.0,22
1,1,0,0,0,12,test,1,0,m,Wed May 27 2026 16:24:05 GMT-0500 (Central Daylight Time),472018.200000003,I,z,1707,23,1,134.bmp,-120,-120,135.bmp,120,-120,136.bmp,-120,120,137.bmp,120,120,9760.300000011921,462257.89999999106,8101,no,SM,A,137.bmp,-120,-120,226626,220599,228642,222611,463036.0,457007.0,465051.0,459020.0,23
2,0,1,0,0,13,test,1,1,z,Wed May 27 2026 16:24:05 GMT-0500 (Central Daylight Time),481515.09999999404,I,z,1440,24,1,142.bmp,-120,-120,143.bmp,120,-120,144.bmp,-120,120,145.bmp,120,120,9493.20000000298,472021.89999999106,8101,yes,SM,A,143.bmp,120,-120,226626,220599,228642,222611,472799.0,466771.0,474815.0,468783.0,24
4,0,0,0,1,13,test,1,0,m,Wed May 27 2026 16:24:05 GMT-0500 (Central Daylight Time),491345.5,I,z,1767,25,1,146.bmp,-120,-120,147.bmp,120,-120,148.bmp,-120,120,149.bmp,120,120,9826.60000000894,481518.89999999106,8101,no,SM,A,148.bmp,120,120,226626,220599,228642,222611,482296.0,476268.0,484312.0,478281.0,25
1,1,0,0,0,13,test,1,0,z,Wed May 27 2026 16:24:05 GMT-0500 (Central Daylight Time),501409.200000003,I,None,2016,26,1,138.bmp,-120,-120,139.bmp,120,-120,140.bmp,-120,120,141.bmp,120,120,10060.300000011921,491348.89999999106,8101,yes,SM,A,138.bmp,-120,-120,226626,220599,228642,222611,492126.0,486098.0,494142.0,488111.0,26
4,0,0,0,1,14,test,1,1,z,Wed May 27 2026 16:24:05 GMT-0500 (Central Daylight Time),510689.299999997,I,z,1216,27,1,150.bmp,-120,-120,111.bmp,120,-120,101.bmp,-120,120,102.bmp,120,120,9275.79999999702,501413.5,8101,yes,SM,A,102.bmp,120,120,226626,220599,228642,222611,502190.0,496163.0,504206.0,498174.0,27
3,0,0,1,0,15,test,1,1,m,Wed May 27 2026 16:24:05 GMT-0500 (Central Daylight Time),520153.299999997,I,m,1399,28,1,103.bmp,-120,-120,104.bmp,120,-120,105.bmp,-120,120,106.bmp,120,120,9460.0,510693.299999997,8101,no,SM,A,103.bmp,-120,120,226626,220599,228642,222611,511470.0,505443.0,513487.0,507455.0,28
2,0,1,0,0,16,test,1,1,z,Wed May 27 2026 16:24:05 GMT-0500 (Central Daylight Time),530033.299999997,I,z,1816,29,1,107.bmp,-120,-120,108.bmp,120,-120,109.bmp,-120,120,110.bmp,120,120,9876.09999999404,520157.200000003,8101,yes,SM,A,108.bmp,120,-120,226626,220599,228642,222611,520934.0,514906.0,522950.0,516919.0,29
3,0,0,1,0,17,test,1,1,z,Wed May 27 2026 16:24:05 GMT-0500 (Central Daylight Time),539963.299999997,I,z,1872,30,1,111.bmp,-120,-120,112.bmp,120,-120,113.bmp,-120,120,114.bmp,120,120,9925.59999999404,530037.700000003,8101,yes,SM,A,113.bmp,-120,120,226626,220599,228642,222611,530814.0,524787.0,532830.0,526798.0,30
1,1,0,0,0,18,test,1,1,z,Wed May 27 2026 16:24:05 GMT-0500 (Central Daylight Time),549477.099999994,I,z,1463,31,1,115.bmp,-120,-120,116.bmp,120,-120,117.bmp,-120,120,118.bmp,120,120,9510.5,539966.599999994,8101,yes,SM,A,115.bmp,-120,-120,226626,220599,228642,222611,540744.0,534716.0,542760.0,536729.0,31
2,0,1,0,0,19,test,1,1,m,Wed May 27 2026 16:24:05 GMT-0500 (Central Daylight Time),559390.700000003,I,m,1876,32,1,119.bmp,-120,-120,120.bmp,120,-120,121.bmp,-120,120,122.bmp,120,120,9910.300000011921,549480.3999999911,8101,no,SM,A,119.bmp,120,-120,226626,220599,228642,222611,550258.0,544230.0,552259.0,546243.0,32
4,0,0,0,1,19,test,1,0,z,Wed May 27 2026 16:24:05 GMT-0500 (Central Daylight Time),569454.3999999911,I,None,2015,33,1,131.bmp,-120,-120,132.bmp,120,-120,133.bmp,-120,120,134.bmp,120,120,10060.199999988079,559394.200000003,8101,yes,SM,A,134.bmp,120,120,226626,220599,228642,222611,560171.0,554144.0,562188.0,556156.0,33
2,0,1,0,0,20,test,1,1,z,Wed May 27 2026 16:24:05 GMT-0500 (Central Daylight Time),578768.0,I,z,1260,34,1,123.bmp,-120,-120,124.bmp,120,-120,125.bmp,-120,120,126.bmp,120,120,9309.90000000596,569458.099999994,8101,yes,SM,A,124.bmp,120,-120,226626,220599,228642,222611,570235.0,564207.0,572251.0,566220.0,34
4,0,0,0,1,20,test,1,0,m,Wed May 27 2026 16:24:05 GMT-0500 (Central Daylight Time),588815.0,I,None,2016,35,1,127.bmp,-120,-120,128.bmp,120,-120,129.bmp,-120,120,130.bmp,120,120,10043.29999999702,578771.700000003,8101,no,SM,A,129.bmp,120,120,226626,220599,228642,222611,579532.0,573521.0,581548.0,575528.0,35
3,0,0,1,0,20,test,1,0,m,Wed May 27 2026 16:24:05 GMT-0500 (Central Daylight Time),598378.200000003,I,z,1514,36,1,135.bmp,-120,-120,136.bmp,120,-120,137.bmp,-120,120,138.bmp,120,120,9559.70000000298,588818.5,8101,no,SM,A,135.bmp,-120,120,226626,220599,228642,222611,589596.0,583568.0,591612.0,585580.0,36
1,1,0,0,0,20,test,1,0,m,Wed May 27 2026 16:24:05 GMT-0500 (Central Daylight Time),608108.8999999911,I,z,1605,37,1,139.bmp,-120,-120,140.bmp,120,-120,141.bmp,-120,120,142.bmp,120,120,9727.699999988079,598381.200000003,8101,no,SM,A,140.bmp,-120,-120,226626,220599,228642,222611,599236.0,593130.0,601242.0,595144.0,37
2,0,1,0,0,20,test,1,0,m,Wed May 27 2026 16:24:05 GMT-0500 (Central Daylight Time),617755.700000003,I,z,1589,38,1,143.bmp,-120,-120,144.bmp,120,-120,145.bmp,-120,120,146.bmp,120,120,9643.300000011921,608112.3999999911,8101,no,SM,A,145.bmp,120,-120,226626,220599,228642,222611,608891.0,602862.0,610906.0,604874.0,38
4,0,0,0,1,21,test,1,1,z,Wed May 27 2026 16:24:05 GMT-0500 (Central Daylight Time),627204.099999994,I,z,1398,39,1,147.bmp,-120,-120,148.bmp,120,-120,149.bmp,-120,120,150.bmp,120,120,9444.79999999702,617759.299999997,8101,yes,SM,A,150.bmp,120,120,226626,220599,228642,222611,618537.0,612508.0,620553.0,614521.0,39
3,0,0,1,0,22,test,1,1,m,Wed May 27 2026 16:24:05 GMT-0500 (Central Daylight Time),636799.799999997,I,m,1544,40,1,104.bmp,-120,-120,105.bmp,120,-120,106.bmp,-120,120,107.bmp,120,120,9592.40000000596,627207.3999999911,8101,no,SM,A,105.bmp,-120,120,226626,220599,228642,222611,627984.0,621957.0,629999.0,623968.0,40
1,1,0,0,0,23,test,1,1,z,Wed May 27 2026 16:24:05 GMT-0500 (Central Daylight Time),646130.3999999911,I,z,1274,41,1,108.bmp,-120,-120,109.bmp,120,-120,110.bmp,-120,120,111.bmp,120,120,9326.79999999702,636803.599999994,8101,yes,SM,A,108.bmp,-120,-120,226626,220599,228642,222611,637581.0,631553.0,639596.0,633565.0,41
4,0,0,0,1,24,test,1,1,z,Wed May 27 2026 16:24:05 GMT-0500 (Central Daylight Time),655860.700000003,I,z,1672,42,1,112.bmp,-120,-120,113.bmp,120,-120,114.bmp,-120,120,115.bmp,120,120,9727.10000000894,646133.599999994,8101,yes,SM,A,115.bmp,120,120,226626,220599,228642,222611,646911.0,640883.0,648927.0,642896.0,42
1,1,0,0,0,25,test,1,1,z,Wed May 27 2026 16:24:05 GMT-0500 (Central Daylight Time),664741.200000003,I,z,830,43,1,116.bmp,-120,-120,117.bmp,120,-120,118.bmp,-120,120,119.bmp,120,120,8876.800000011921,655864.3999999911,8101,yes,SM,A,116.bmp,-120,-120,226626,220599,228642,222611,656641.0,650614.0,658657.0,652626.0,43
4,0,0,0,1,25,test,1,0,m,Wed May 27 2026 16:24:05 GMT-0500 (Central Daylight Time),674804.799999997,I,None,2016,44,1,104.bmp,-120,-120,101.bmp,120,-120,102.bmp,-120,120,103.bmp,120,120,10060.20000000298,664744.599999994,8101,no,SM,A,104.bmp,120,120,226626,220599,228642,222611,665522.0,659494.0,667538.0,661506.0,44
1,1,0,0,0,25,test,1,0,m,Wed May 27 2026 16:24:05 GMT-0500 (Central Daylight Time),684868.200000003,I,None,2016,45,1,128.bmp,-120,-120,129.bmp,120,-120,130.bmp,-120,120,131.bmp,120,120,10060.0,674808.200000003,8101,no,SM,A,131.bmp,-120,-120,226626,220599,228642,222611,675585.0,669557.0,677601.0,671570.0,45
1,1,0,0,0,25,test,1,0,m,Wed May 27 2026 16:24:05 GMT-0500 (Central Daylight Time),694931.700000003,I,None,2016,46,1,120.bmp,-120,-120,121.bmp,120,-120,122.bmp,-120,120,123.bmp,120,120,10059.800000011921,684871.8999999911,8101,no,SM,A,121.bmp,-120,-120,226626,220599,228642,222611,685649.0,679621.0,687665.0,681634.0,46
3,0,0,1,0,26,test,1,1,z,Wed May 27 2026 16:24:05 GMT-0500 (Central Daylight Time),704795.200000003,I,z,1814,47,1,124.bmp,-120,-120,125.bmp,120,-120,126.bmp,-120,120,127.bmp,120,120,9860.0,694935.200000003,8101,yes,SM,A,126.bmp,-120,120,226626,220599,228642,222611,695712.0,689685.0,697728.0,691697.0,47
3,0,0,1,0,27,test,1,1,z,Wed May 27 2026 16:24:05 GMT-0500 (Central Daylight Time),714241.8999999911,I,z,1398,48,1,140.bmp,-120,-120,141.bmp,120,-120,142.bmp,-120,120,143.bmp,120,120,9443.199999988079,704798.700000003,8101,yes,SM,A,142.bmp,-120,120,226626,220599,228642,222611,705576.0,699548.0,707592.0,701560.0,48
2,0,1,0,0,28,test,1,1,z,Wed May 27 2026 16:24:05 GMT-0500 (Central Daylight Time),723806.099999994,I,z,1519,49,1,136.bmp,-120,-120,137.bmp,120,-120,138.bmp,-120,120,139.bmp,120,120,9560.39999999106,714245.700000003,8101,yes,SM,A,137.bmp,120,-120,226626,220599,228642,222611,715023.0,708995.0,717032.0,711008.0,49
3,0,0,1,0,28,test,1,0,m,Wed May 27 2026 16:24:05 GMT-0500 (Central Daylight Time),732852.799999997,I,z,996,50,1,132.bmp,-120,-120,133.bmp,120,-120,134.bmp,-120,120,135.bmp,120,120,9043.79999999702,723809.0,8101,no,SM,A,132.bmp,-120,120,226626,220599,228642,222611,724586.0,718558.0,726603.0,720571.0,50
2,0,1,0,0,29,test,1,1,z,Wed May 27 2026 16:24:05 GMT-0500 (Central Daylight Time),742299.8999999911,I,z,1397,51,1,144.bmp,-120,-120,145.bmp,120,-120,146.bmp,-120,120,147.bmp,120,120,9443.59999999404,732856.299999997,8101,yes,SM,A,145.bmp,120,-120,226626,220599,228642,222611,733634.0,727605.0,735650.0,729618.0,51
4,0,0,0,1,30,test,1,1,m,Wed May 27 2026 16:24:05 GMT-0500 (Central Daylight Time),752030.299999997,I,m,1670,52,1,148.bmp,-120,-120,149.bmp,120,-120,150.bmp,-120,120,131.bmp,120,120,9727.29999999702,742303.0,8101,no,SM,A,148.bmp,120,120,226626,220599,228642,222611,743081.0,737052.0,745097.0,739066.0,52
3,0,0,1,0,31,test,1,1,z,Wed May 27 2026 16:24:05 GMT-0500 (Central Daylight Time),761210.700000003,I,z,1132,53,1,101.bmp,-120,-120,102.bmp,120,-120,103.bmp,-120,120,104.bmp,120,120,9176.40000000596,752034.299999997,8101,yes,SM,A,103.bmp,-120,120,226626,220599,228642,222611,752811.0,746784.0,754827.0,748796.0,53
1,1,0,0,0,31,test,1,0,m,Wed May 27 2026 16:24:05 GMT-0500 (Central Daylight Time),771057.700000003,I,z,1777,54,1,105.bmp,-120,-120,106.bmp,120,-120,107.bmp,-120,120,108.bmp,120,120,9843.60000000894,761214.099999994,8101,no,SM,A,107.bmp,-120,-120,226626,220599,228642,222611,761992.0,755963.0,764022.0,757976.0,54
4,0,0,0,1,31,test,1,0,z,Wed May 27 2026 16:24:05 GMT-0500 (Central Daylight Time),781121.299999997,I,None,2016,55,1,109.bmp,-120,-120,110.bmp,120,-120,111.bmp,-120,120,112.bmp,120,120,10060.20000000298,771061.099999994,8101,yes,SM,A,112.bmp,120,120,226626,220599,228642,222611,771838.0,765810.0,773854.0,767824.0,55
2,0,1,0,0,31,test,1,0,m,Wed May 27 2026 16:24:05 GMT-0500 (Central Daylight Time),790768.0,I,z,1593,56,1,113.bmp,-120,-120,114.bmp,120,-120,115.bmp,-120,120,116.bmp,120,120,9643.10000000894,781124.8999999911,8101,no,SM,A,113.bmp,120,-120,226626,220599,228642,222611,781903.0,775874.0,783918.0,777887.0,56
4,0,0,0,1,32,test,1,1,m,Wed May 27 2026 16:24:05 GMT-0500 (Central Daylight Time),800531.5,I,m,1663,57,1,117.bmp,-120,-120,118.bmp,120,-120,119.bmp,-120,120,120.bmp,120,120,9759.90000000596,790771.599999994,8101,no,SM,A,118.bmp,120,120,226626,220599,228642,222611,791599.0,785521.0,793615.0,787598.0,57
3,0,0,1,0,32,test,1,0,z,Wed May 27 2026 16:24:05 GMT-0500 (Central Daylight Time),810595.3999999911,I,None,2015,58,1,121.bmp,-120,-120,122.bmp,120,-120,123.bmp,-120,120,124.bmp,120,120,10059.79999999702,800535.599999994,8101,yes,SM,A,123.bmp,-120,120,226626,220599,228642,222611,801312.0,795285.0,803329.0,797297.0,58
2,0,1,0,0,32,test,1,0,m,Wed May 27 2026 16:24:05 GMT-0500 (Central Daylight Time),820392.099999994,I,z,1743,59,1,125.bmp,-120,-120,126.bmp,120,-120,127.bmp,-120,120,128.bmp,120,120,9793.29999999702,810598.799999997,8101,no,SM,A,128.bmp,120,-120,226626,220599,228642,222611,811378.0,805348.0,813392.0,807361.0,59
1,1,0,0,0,32,test,1,0,z,Wed May 27 2026 16:24:05 GMT-0500 (Central Daylight Time),830456.099999994,I,None,2016,60,1,129.bmp,-120,-120,130.bmp,120,-120,131.bmp,-120,120,132.bmp,120,120,10060.70000000298,820395.3999999911,8101,yes,SM,A,129.bmp,-120,-120,226626,220599,228642,222611,821173.0,815145.0,823189.0,817159.0,60
2,0,1,0,0,32,test,1,0,z,Wed May 27 2026 16:24:05 GMT-0500 (Central Daylight Time),840502.700000003,I,None,2015,61,1,133.bmp,-120,-120,134.bmp,120,-120,135.bmp,-120,120,136.bmp,120,120,10043.40000000596,830459.299999997,8101,yes,SM,A,134.bmp,120,-120,226626,220599,228642,222611,831236.0,825209.0,833237.0,827221.0,61
4,0,0,0,1,32,test,1,0,z,Wed May 27 2026 16:24:05 GMT-0500 (Central Daylight Time),850566.200000003,I,None,2016,62,1,141.bmp,-120,-120,142.bmp,120,-120,143.bmp,-120,120,144.bmp,120,120,10060.10000000894,840506.099999994,8101,yes,SM,A,144.bmp,120,120,226626,220599,228642,222611,841283.0,835255.0,843299.0,837268.0,62
1,1,0,0,0,33,test,1,1,m,Wed May 27 2026 16:24:05 GMT-0500 (Central Daylight Time),860462.8999999911,I,m,1844,63,1,145.bmp,-120,-120,146.bmp,120,-120,147.bmp,-120,120,148.bmp,120,120,9893.09999999404,850569.799999997,8101,no,SM,A,145.bmp,-120,120,226626,220599,228642,222611,851347.0,845319.0,853363.0,847332.0,63
2,0,1,0,0,33,test,1,0,z,Wed May 27 2026 16:24:05 GMT-0500 (Central Daylight Time),870526.8999999911,I,None,2016,64,1,149.bmp,-120,-120,150.bmp,120,-120,112.bmp,-120,120,101.bmp,120,120,10061.09999999404,860465.799999997,8101,yes,SM,A,150.bmp,120,-120,226626,220599,228642,222611,861244.0,855215.0,863260.0,857229.0,64
4,0,0,0,1,33,test,1,0,m,Wed May 27 2026 16:24:05 GMT-0500 (Central Daylight Time),880590.200000003,I,None,2016,65,1,102.bmp,-120,-120,103.bmp,120,-120,104.bmp,-120,120,105.bmp,120,120,10060.20000000298,870530.0,8101,no,SM,A,104.bmp,120,120,226626,220599,228642,222611,871307.0,865279.0,873323.0,867292.0,65
3,0,0,1,0,34,test,1,1,m,Wed May 27 2026 16:24:05 GMT-0500 (Central Daylight Time),890103.700000003,I,m,1460,66,1,106.bmp,-120,-120,107.bmp,120,-120,108.bmp,-120,120,109.bmp,120,120,9510.10000000894,880593.599999994,8101,no,SM,A,109.bmp,-120,120,226626,220599,228642,222611,881371.0,875343.0,883387.0,877356.0,66
2,0,1,0,0,35,test,1,1,m,Wed May 27 2026 16:24:05 GMT-0500 (Central Daylight Time),899701.0,I,m,1539,67,1,137.bmp,-120,-120,138.bmp,120,-120,139.bmp,-120,120,140.bmp,120,120,9594.40000000596,890106.599999994,8101,no,SM,A,139.bmp,120,-120,226626,220599,228642,222611,890885.0,884856.0,892900.0,886869.0,67
3,0,0,1,0,36,test,1,1,z,Wed May 27 2026 16:24:05 GMT-0500 (Central Daylight Time),909597.700000003,I,z,1861,68,1,110.bmp,-120,-120,111.bmp,120,-120,112.bmp,-120,120,113.bmp,120,120,9893.300000011921,899704.3999999911,8101,yes,SM,A,112.bmp,-120,120,226626,220599,228642,222611,900481.0,894454.0,902482.0,896466.0,68
1,1,0,0,0,36,test,1,0,m,Wed May 27 2026 16:24:05 GMT-0500 (Central Daylight Time),919661.0,I,None,2015,69,1,114.bmp,-120,-120,115.bmp,120,-120,116.bmp,-120,120,117.bmp,120,120,10060.10000000894,909600.8999999911,8101,no,SM,A,115.bmp,-120,-120,226626,220599,228642,222611,910378.0,904350.0,912395.0,906363.0,69
2,0,1,0,0,36,test,1,0,m,Wed May 27 2026 16:24:05 GMT-0500 (Central Daylight Time),929724.5,I,None,2015,70,1,118.bmp,-120,-120,119.bmp,120,-120,120.bmp,-120,120,121.bmp,120,120,10059.70000000298,919664.799999997,8101,no,SM,A,120.bmp,120,-120,226626,220599,228642,222611,920442.0,914414.0,922458.0,916426.0,70
4,0,0,0,1,36,test,1,0,z,Wed May 27 2026 16:24:05 GMT-0500 (Central Daylight Time),939789.3999999911,I,None,2017,71,1,122.bmp,-120,-120,123.bmp,120,-120,124.bmp,-120,120,125.bmp,120,120,10061.199999988079,929728.200000003,8101,yes,SM,A,125.bmp,120,120,226626,220599,228642,222611,930505.0,924477.0,932521.0,926490.0,71
1,1,0,0,0,36,test,1,0,z,Wed May 27 2026 16:24:05 GMT-0500 (Central Daylight Time),949835.0,I,m,1990,72,1,126.bmp,-120,-120,127.bmp,120,-120,128.bmp,-120,120,129.bmp,120,120,10042.20000000298,939792.799999997,8101,yes,SM,A,126.bmp,-120,-120,226626,220599,228642,222611,940569.0,934542.0,942585.0,936553.0,72
2,0,1,0,0,36,test,1,0,z,Wed May 27 2026 16:24:05 GMT-0500 (Central Daylight Time),959965.200000003,I,None,2005,73,1,130.bmp,-120,-120,131.bmp,120,-120,132.bmp,-120,120,133.bmp,120,120,10126.20000000298,949839.0,8101,yes,SM,A,131.bmp,120,-120,226626,220599,228642,222611,950615.0,944588.0,952709.0,946601.0,73
4,0,0,0,1,37,test,1,1,m,Wed May 27 2026 16:24:05 GMT-0500 (Central Daylight Time),969512.099999994,I,m,1493,74,1,134.bmp,-120,-120,135.bmp,120,-120,136.bmp,-120,120,137.bmp,120,120,9543.70000000298,959968.3999999911,8101,no,SM,A,136.bmp,120,120,226626,220599,228642,222611,960746.0,954718.0,962762.0,956731.0,74
2,0,1,0,0,37,test,1,0,m,Wed May 27 2026 16:24:05 GMT-0500 (Central Daylight Time),979575.599999994,I,None,2016,75,1,138.bmp,-120,-120,139.bmp,120,-120,140.bmp,-120,120,141.bmp,120,120,10060.39999999106,969515.200000003,8101,no,SM,A,141.bmp,120,-120,226626,220599,228642,222611,970293.0,964264.0,972309.0,966278.0,75
1,1,0,0,0,37,test,1,0,z,Wed May 27 2026 16:24:05 GMT-0500 (Central Daylight Time),989639.200000003,I,None,2016,76,1,142.bmp,-120,-120,143.bmp,120,-120,144.bmp,-120,120,145.bmp,120,120,10059.90000000596,979579.299999997,8101,yes,SM,A,142.bmp,-120,-120,226626,220599,228642,222611,980356.0,974329.0,982372.0,976341.0,76
3,0,0,1,0,38,test,1,1,z,Wed May 27 2026 16:24:05 GMT-0500 (Central Daylight Time),999253.0,I,z,1554,77,1,150.bmp,-120,-120,111.bmp,120,-120,101.bmp,-120,120,102.bmp,120,120,9610.29999999702,989642.700000003,8101,yes,SM,A,101.bmp,-120,120,226626,220599,228642,222611,990420.0,984392.0,992436.0,986404.0,77
1,1,0,0,0,38,test,1,0,m,Wed May 27 2026 16:24:05 GMT-0500 (Central Daylight Time),1009316.3999999911,I,None,2015,78,1,146.bmp,-120,-120,147.bmp,120,-120,148.bmp,-120,120,149.bmp,120,120,10059.699999988079,999256.700000003,8101,no,SM,A,147.bmp,-120,-120,226626,220599,228642,222611,1000034.0,994006.0,1002050.0,996018.0,78
4,0,0,0,1,39,test,1,1,m,Wed May 27 2026 16:24:05 GMT-0500 (Central Daylight Time),1018746.700000003,I,m,1374,79,1,107.bmp,-120,-120,108.bmp,120,-120,109.bmp,-120,120,110.bmp,120,120,9426.20000000298,1009320.5,8101,no,SM,A,107.bmp,120,120,226626,220599,228642,222611,1010097.0,1004070.0,1012113.0,1006081.0,79
3,0,0,1,0,40,test,1,1,m,Wed May 27 2026 16:24:05 GMT-0500 (Central Daylight Time),1028660.0,I,m,1854,80,1,103.bmp,-120,-120,104.bmp,120,-120,105.bmp,-120,120,106.bmp,120,120,9910.10000000894,1018749.8999999911,8101,no,SM,A,106.bmp,-120,120,226626,220599,228642,222611,1019527.0,1013499.0,1021544.0,1015512.0,80
