acc_sum,block,block_c,condition,correct,correct_response,datetime,endtime,flanker,jitter,project,response,response_test_buffer_response,response_test_target_response,response_time,response_time_test_buffer_response,response_time_test_target_response,row_sel,session_number,start_end,starttime,subject_id,target,task,task_vers,time_test_buffer,time_test_buffer_response,time_test_constants,time_test_flanker,time_test_jitter,time_test_logger,time_test_target,time_test_target_response,time_test_variables,trial
1,prac,1,inc,1,m,Fri Jun 06 2025 09:07:19 GMT-0500 (Central Daylight Time),133408.40000000596,cherry,900,I,m,,,798,,,10,1,2995.0,130413.40000000596,7166,copper,NF,A,,,,,,,,,,1
2,prac,1,inc,1,m,Fri Jun 06 2025 09:07:19 GMT-0500 (Central Daylight Time),136590.69999998808,raisin,1100,I,m,,,776,,,12,1,3176.899999976158,133413.80000001192,7166,cobalt,NF,A,,,,,,,,,,2
3,prac,1,con,1,z,Fri Jun 06 2025 09:07:19 GMT-0500 (Central Daylight Time),139489.59999999404,orange,1000,I,z,,,590,,,3,1,2894.2999999821186,136595.30000001192,7166,orange,NF,A,,,,,,,,,,3
4,prac,1,con,1,m,Fri Jun 06 2025 09:07:19 GMT-0500 (Central Daylight Time),142605.19999998808,silver,1000,I,m,,,810,,,11,1,3111.0,139494.19999998808,7166,silver,NF,A,,,,,,,,,,4
5,prac,1,inc,1,z,Fri Jun 06 2025 09:07:19 GMT-0500 (Central Daylight Time),145771.09999999404,lead,1100,I,z,,,755,,,8,1,3160.9000000059605,142610.19999998808,7166,plum,NF,A,,,,,,,,,,5
6,prac,1,inc,1,z,Fri Jun 06 2025 09:07:19 GMT-0500 (Central Daylight Time),148620.40000000596,iron,900,I,z,,,646,,,6,1,2844.5999999940395,145775.80000001192,7166,pear,NF,A,,,,,,,,,,6
7,prac,1,con,1,m,Fri Jun 06 2025 09:07:19 GMT-0500 (Central Daylight Time),151419.0,gold,800,I,m,,,696,,,13,1,2794.4000000059605,148624.59999999404,7166,gold,NF,A,,,,,,,,,,7
8,prac,1,inc,1,z,Fri Jun 06 2025 09:07:19 GMT-0500 (Central Daylight Time),154468.0,copper,900,I,z,,,845,,,2,1,3045.0,151423.0,7166,cherry,NF,A,,,,,,,,,,8
9,prac,1,inc,1,m,Fri Jun 06 2025 09:07:19 GMT-0500 (Central Daylight Time),157517.5,plum,1100,I,m,,,644,,,16,1,3045.5,154472.0,7166,lead,NF,A,,,,,,,,,,9
9,prac,1,con,0,z,Fri Jun 06 2025 09:07:19 GMT-0500 (Central Daylight Time),160616.40000000596,kiwi,1000,I,m,,,790,,,7,1,3094.2000000178814,157522.19999998808,7166,kiwi,NF,A,,,,,,,,,,10
10,prac,1,con,1,z,Fri Jun 06 2025 09:07:19 GMT-0500 (Central Daylight Time),163832.09999999404,banana,800,I,z,,,1116,,,1,1,3210.9000000059605,160621.19999998808,7166,banana,NF,A,,,,,,,,,,11
11,prac,1,con,1,z,Fri Jun 06 2025 09:07:19 GMT-0500 (Central Daylight Time),166581.30000001192,lime,800,I,z,,,636,,,5,1,2745.0,163836.30000001192,7166,lime,NF,A,,,,,,,,,,12
12,prac,1,con,1,m,Fri Jun 06 2025 09:07:19 GMT-0500 (Central Daylight Time),169663.59999999404,zinc,1000,I,m,,,767,,,15,1,3078.199999988079,166585.40000000596,7166,zinc,NF,A,,,,,,,,,,13
13,prac,1,con,1,m,Fri Jun 06 2025 09:07:19 GMT-0500 (Central Daylight Time),172596.0,bronze,800,I,m,,,829,,,9,1,2928.4000000059605,169667.59999999404,7166,bronze,NF,A,,,,,,,,,,14
14,prac,1,inc,1,z,Fri Jun 06 2025 09:07:19 GMT-0500 (Central Daylight Time),176061.59999999404,cobalt,1100,I,z,,,1061,,,4,1,3461.4000000059605,172600.19999998808,7166,raisin,NF,A,,,,,,,,,,15
15,prac,1,inc,1,m,Fri Jun 06 2025 09:07:19 GMT-0500 (Central Daylight Time),179043.90000000596,pear,900,I,m,,,663,,,14,1,2977.9000000059605,176066.0,7166,iron,NF,A,,,,,,,,,,16
1,test,1,inc,1,z,Fri Jun 06 2025 09:07:19 GMT-0500 (Central Daylight Time),203786.19999998808,silver,1000,I,z,z,None,1082,883.0,199.0,23,1,2612.7999999821186,201173.40000000596,7166,orange,NF,A,197716,197716,195986,197000,195987,198599,197517,197517,198599,1
2,test,1,con,1,m,Fri Jun 06 2025 09:07:19 GMT-0500 (Central Daylight Time),205885.59999999404,lead,900,I,m,m,None,678,479.0,199.0,122,1,2094.4000000059605,203791.19999998808,7166,lead,NF,A,200216,200216,198604,199515,198605,200699,200016,200016,200698,2
3,test,1,con,1,m,Fri Jun 06 2025 09:07:19 GMT-0500 (Central Daylight Time),208151.30000001192,lead,1000,I,m,m,None,727,528.0,199.0,123,1,2260.9000000059605,205890.40000000596,7166,lead,NF,A,202431,202431,200703,201715,200704,202964,202232,202232,202964,3
4,test,1,inc,1,m,Fri Jun 06 2025 09:07:19 GMT-0500 (Central Daylight Time),210234.09999999404,pear,900,I,m,m,None,642,442.0,200.0,118,1,2078.9000000059605,208155.19999998808,7166,zinc,NF,A,204597,204597,202968,203881,202969,205047,204397,204397,205047,4
5,test,1,inc,1,z,Fri Jun 06 2025 09:07:19 GMT-0500 (Central Daylight Time),212366.69999998808,zinc,1000,I,z,z,None,595,395.0,200.0,47,1,2128.899999976158,210237.80000001192,7166,pear,NF,A,206780,206780,205051,206064,205051,207180,206580,206580,207180,5
6,test,1,con,1,m,Fri Jun 06 2025 09:07:19 GMT-0500 (Central Daylight Time),214549.40000000596,cobalt,800,I,m,m,None,846,646.0,200.0,89,1,2178.7000000178814,212370.69999998808,7166,cobalt,NF,A,208713,208713,207184,207996,207184,209362,208513,208513,209362,6
7,test,1,inc,1,m,Fri Jun 06 2025 09:07:19 GMT-0500 (Central Daylight Time),216582.0,lime,800,I,m,m,None,694,495.0,199.0,109,1,2028.5,214553.5,7166,iron,NF,A,210896,210896,209367,210179,209367,211395,210696,210696,211395,7
8,test,1,con,1,z,Fri Jun 06 2025 09:07:19 GMT-0500 (Central Daylight Time),218597.90000000596,orange,800,I,z,z,None,679,479.0,200.0,17,1,2011.5999999940395,216586.30000001192,7166,orange,NF,A,212928,212928,211399,212212,211400,213411,212728,212728,213411,8
9,test,1,con,1,z,Fri Jun 06 2025 09:07:19 GMT-0500 (Central Daylight Time),220565.19999998808,pear,900,I,z,z,None,531,331.0,200.0,42,1,1963.2999999821186,218601.90000000596,7166,pear,NF,A,215044,215044,213415,214328,213415,215378,214844,214844,215378,9
10,test,1,inc,1,z,Fri Jun 06 2025 09:07:19 GMT-0500 (Central Daylight Time),222946.69999998808,lead,1100,I,z,z,None,741,541.0,200.0,56,1,2377.399999976158,220569.30000001192,7166,kiwi,NF,A,217210,217210,215382,216494,215383,217760,217010,217010,217760,10
11,test,1,con,1,z,Fri Jun 06 2025 09:07:19 GMT-0500 (Central Daylight Time),225295.90000000596,plum,1000,I,z,z,None,817,602.0,215.0,59,1,2344.800000011921,222951.09999999404,7166,plum,NF,A,219493,219493,217764,218776,217764,220109,219278,219278,220109,11
12,test,1,con,1,z,Fri Jun 06 2025 09:07:19 GMT-0500 (Central Daylight Time),227562.0,plum,1100,I,z,z,None,633,433.0,200.0,60,1,2261.5999999940395,225300.40000000596,7166,plum,NF,A,221942,221942,220113,221225,220114,222375,221742,221742,222375,12
13,test,1,con,1,m,Fri Jun 06 2025 09:07:19 GMT-0500 (Central Daylight Time),229794.69999998808,gold,1000,I,m,m,None,691,491.0,200.0,99,1,2229.0,227565.69999998808,7166,gold,NF,A,224108,224108,222379,223392,222379,224608,223908,223908,224608,13
14,test,1,con,1,z,Fri Jun 06 2025 09:07:19 GMT-0500 (Central Daylight Time),231927.19999998808,kiwi,1000,I,z,z,None,593,394.0,199.0,51,1,2128.5999999940395,229798.59999999404,7166,kiwi,NF,A,226340,226341,224612,225624,224612,226740,226141,226141,226740,14
15,test,1,con,1,z,Fri Jun 06 2025 09:07:19 GMT-0500 (Central Daylight Time),234126.5,pear,1000,I,z,z,None,661,462.0,199.0,43,1,2195.300000011921,231931.19999998808,7166,pear,NF,A,228473,228473,226744,227757,226745,228940,228274,228274,228940,15
16,test,1,con,1,m,Fri Jun 06 2025 09:07:19 GMT-0500 (Central Daylight Time),236142.59999999404,copper,800,I,m,m,None,677,477.0,200.0,73,1,2012.0999999940395,234130.5,7166,copper,NF,A,230474,230474,228944,229756,228944,230956,230273,230273,230956,16
17,test,1,con,1,m,Fri Jun 06 2025 09:07:19 GMT-0500 (Central Daylight Time),238175.19999998808,cobalt,1000,I,m,m,None,493,294.0,199.0,91,1,2028.699999988079,236146.5,7166,cobalt,NF,A,232689,232689,230960,231972,230960,232988,232489,232489,232988,17
18,test,1,inc,1,z,Fri Jun 06 2025 09:07:19 GMT-0500 (Central Daylight Time),240457.90000000596,lead,1100,I,z,z,None,650,450.0,200.0,48,1,2278.7000000178814,238179.19999998808,7166,pear,NF,A,234821,234821,232992,234105,232993,235271,234621,234621,235271,18
19,test,1,inc,1,m,Fri Jun 06 2025 09:07:19 GMT-0500 (Central Daylight Time),242906.90000000596,orange,1000,I,m,m,None,915,715.0,200.0,71,1,2445.0999999940395,240461.80000001192,7166,bronze,NF,A,237004,237004,235275,236288,235275,237720,236804,236804,237720,19
20,test,1,con,1,z,Fri Jun 06 2025 09:07:19 GMT-0500 (Central Daylight Time),245856.19999998808,kiwi,1100,I,z,z,None,1302,1102.0,200.0,52,1,2945.199999988079,242911.0,7166,kiwi,NF,A,239553,239553,237724,238837,237724,240669,239353,239353,240669,20
21,test,1,inc,1,m,Fri Jun 06 2025 09:07:19 GMT-0500 (Central Daylight Time),247949.90000000596,cherry,900,I,m,m,None,660,461.0,199.0,94,1,2089.4000000059605,245860.5,7166,cobalt,NF,A,242302,242302,240674,241586,240674,242763,242103,242103,242763,21
22,test,1,inc,1,z,Fri Jun 06 2025 09:07:19 GMT-0500 (Central Daylight Time),250071.5,copper,900,I,z,z,None,668,469.0,199.0,30,1,2115.0,247956.5,7166,raisin,NF,A,244402,244402,242770,243685,242770,244885,244202,244202,244885,22
23,test,1,inc,1,m,Fri Jun 06 2025 09:07:19 GMT-0500 (Central Daylight Time),251987.40000000596,lime,800,I,m,m,None,580,381.0,199.0,117,1,1911.5999999940395,250075.80000001192,7166,zinc,NF,A,246418,246418,244889,245701,244889,246800,246218,246218,246800,23
24,test,1,inc,1,z,Fri Jun 06 2025 09:07:19 GMT-0500 (Central Daylight Time),253986.90000000596,iron,900,I,z,z,None,556,357.0,199.0,38,1,1995.5999999940395,251991.30000001192,7166,lime,NF,A,248434,248434,246804,247717,246805,248800,248234,248234,248800,24
25,test,1,inc,1,z,Fri Jun 06 2025 09:07:19 GMT-0500 (Central Daylight Time),256419.40000000596,copper,900,I,z,z,None,998,798.0,200.0,14,1,2428.7000000178814,253990.69999998808,7166,cherry,NF,A,250433,250433,248804,249717,248804,251232,250233,250233,251232,25
26,test,1,con,1,m,Fri Jun 06 2025 09:07:19 GMT-0500 (Central Daylight Time),258352.19999998808,zinc,800,I,m,m,None,592,393.0,199.0,113,1,1928.8999999761581,256423.30000001192,7166,zinc,NF,A,252766,252766,251236,252049,251237,253165,252566,252566,253165,26
27,test,1,con,1,z,Fri Jun 06 2025 09:07:19 GMT-0500 (Central Daylight Time),260701.59999999404,orange,1100,I,z,z,None,712,513.0,199.0,20,1,2345.4000000059605,258356.19999998808,7166,orange,NF,A,254998,254998,253169,254282,253170,255515,254798,254799,255515,27
28,test,1,con,1,m,Fri Jun 06 2025 09:07:19 GMT-0500 (Central Daylight Time),263117.40000000596,iron,1100,I,m,m,None,778,579.0,199.0,108,1,2411.800000011921,260705.59999999404,7166,iron,NF,A,257347,257348,255519,256631,255519,257930,257148,257148,257930,28
29,test,1,con,1,z,Fri Jun 06 2025 09:07:19 GMT-0500 (Central Daylight Time),265599.8000000119,lime,1100,I,z,z,None,834,635.0,199.0,36,1,2478.600000023842,263121.1999999881,7166,lime,NF,A,259763,259763,257934,259047,257934,260413,259564,259564,260413,29
30,test,1,con,1,z,Fri Jun 06 2025 09:07:19 GMT-0500 (Central Daylight Time),267749.0,raisin,1100,I,z,z,None,511,312.0,199.0,28,1,2144.5999999940395,265604.40000000596,7166,raisin,NF,A,262246,262246,260417,261530,260419,262562,262046,262046,262562,30
31,test,1,inc,1,m,Fri Jun 06 2025 09:07:19 GMT-0500 (Central Daylight Time),270248.5,plum,1100,I,m,m,None,860,660.0,200.0,104,1,2495.699999988079,267752.8000000119,7166,gold,NF,A,264395,264395,262566,263679,262566,265062,264195,264195,265062,31
32,test,1,inc,1,z,Fri Jun 06 2025 09:07:19 GMT-0500 (Central Daylight Time),272181.09999999404,gold,800,I,z,z,None,602,388.0,214.0,53,1,1928.5999999940395,270252.5,7166,kiwi,NF,A,266595,266595,265066,265878,265066,266994,266380,266380,266994,32
33,test,1,inc,1,z,Fri Jun 06 2025 09:07:19 GMT-0500 (Central Daylight Time),274197.3000000119,gold,800,I,z,z,None,671,472.0,199.0,37,1,2012.4000000059605,272184.90000000596,7166,lime,NF,A,268527,268527,266998,267811,266998,269010,268328,268328,269010,33
34,test,1,con,1,z,Fri Jun 06 2025 09:07:19 GMT-0500 (Central Daylight Time),276263.09999999404,lime,1000,I,z,z,None,528,328.0,200.0,35,1,2062.199999988079,274200.90000000596,7166,lime,NF,A,270743,270743,269014,270027,269014,271076,270543,270543,271076,34
35,test,1,inc,1,z,Fri Jun 06 2025 09:07:19 GMT-0500 (Central Daylight Time),278345.8000000119,copper,900,I,z,z,None,640,441.0,199.0,6,1,2078.800000011921,276267.0,7166,banana,NF,A,272710,272710,271080,271993,271080,273159,272510,272510,273159,35
36,test,1,con,1,z,Fri Jun 06 2025 09:07:19 GMT-0500 (Central Daylight Time),280362.09999999404,raisin,900,I,z,z,None,567,367.0,200.0,26,1,2012.0999999940395,278350.0,7166,raisin,NF,A,274792,274792,273163,274076,273163,275175,274592,274592,275175,36
37,test,1,con,1,m,Fri Jun 06 2025 09:07:19 GMT-0500 (Central Daylight Time),282394.8000000119,lead,800,I,m,m,None,690,491.0,199.0,121,1,2028.6000000238419,280366.1999999881,7166,lead,NF,A,276708,276708,275179,275991,275179,277208,276508,276508,277208,37
38,test,1,inc,1,m,Fri Jun 06 2025 09:07:19 GMT-0500 (Central Daylight Time),284643.6999999881,plum,1100,I,m,m,None,604,405.0,199.0,128,1,2245.2999999821186,282398.40000000596,7166,lead,NF,A,279041,279041,277211,278324,277212,279457,278841,278841,279457,38
39,test,1,inc,1,z,Fri Jun 06 2025 09:07:19 GMT-0500 (Central Daylight Time),286809.90000000596,zinc,1000,I,z,z,None,633,433.0,200.0,39,1,2162.7000000178814,284647.1999999881,7166,lime,NF,A,281190,281190,279460,280474,279461,281623,280990,280990,281623,39
40,test,1,inc,1,z,Fri Jun 06 2025 09:07:19 GMT-0500 (Central Daylight Time),288975.8000000119,bronze,800,I,z,z,None,827,627.0,200.0,21,1,2161.800000011921,286814.0,7166,orange,NF,A,283156,283156,281627,282440,281627,283789,282956,282956,283789,40
41,test,1,con,1,z,Fri Jun 06 2025 09:07:19 GMT-0500 (Central Daylight Time),290993.5,kiwi,900,I,z,z,None,568,368.0,200.0,50,1,2014.0,288979.5,7166,kiwi,NF,A,285422,285422,283793,284706,283793,285807,285222,285222,285807,41
42,test,1,con,1,z,Fri Jun 06 2025 09:07:19 GMT-0500 (Central Daylight Time),293007.90000000596,cherry,800,I,z,z,None,677,477.0,200.0,9,1,2009.800000011921,290998.09999999404,7166,cherry,NF,A,287338,287338,285811,286622,285811,287821,287138,287138,287821,42
43,test,1,con,1,z,Fri Jun 06 2025 09:07:19 GMT-0500 (Central Daylight Time),295052.5,lime,800,I,z,z,None,711,511.0,200.0,33,1,2040.699999988079,293011.8000000119,7166,lime,NF,A,289354,289354,287825,288638,287825,289866,289154,289154,289866,43
44,test,1,inc,1,z,Fri Jun 06 2025 09:07:19 GMT-0500 (Central Daylight Time),297090.1999999881,copper,900,I,z,z,None,584,384.0,200.0,22,1,2033.7999999821186,295056.40000000596,7166,orange,NF,A,291503,291503,289869,290787,289870,291903,291303,291303,291903,44
45,test,1,inc,1,z,Fri Jun 06 2025 09:07:19 GMT-0500 (Central Daylight Time),299189.3000000119,silver,1000,I,z,z,None,555,355.0,200.0,31,1,2095.4000000059605,297093.90000000596,7166,raisin,NF,A,293636,293636,291907,292920,291907,294002,293436,293436,294002,45
46,test,1,inc,1,m,Fri Jun 06 2025 09:07:19 GMT-0500 (Central Daylight Time),301338.40000000596,plum,1100,I,m,m,None,507,308.0,199.0,112,1,2145.4000000059605,299193.0,7166,iron,NF,A,295835,295835,294006,295119,294006,296151,295636,295636,296151,46
47,test,1,inc,1,m,Fri Jun 06 2025 09:07:19 GMT-0500 (Central Daylight Time),303504.59999999404,kiwi,1000,I,m,m,None,625,426.0,199.0,103,1,2161.7999999821186,301342.8000000119,7166,gold,NF,A,297885,297885,296156,297168,296156,298318,297685,297685,298318,47
48,test,1,inc,1,z,Fri Jun 06 2025 09:07:19 GMT-0500 (Central Daylight Time),305487.3000000119,bronze,800,I,z,z,None,644,444.0,200.0,29,1,1978.800000011921,303508.5,7166,raisin,NF,A,299851,299851,298322,299135,298322,300300,299651,299651,300300,48
49,test,1,con,1,z,Fri Jun 06 2025 09:07:19 GMT-0500 (Central Daylight Time),307536.90000000596,banana,800,I,z,z,None,700,501.0,199.0,1,1,2046.0,305490.90000000596,7166,banana,NF,A,301834,301834,300304,301117,300304,302350,301634,301634,302350,49
50,test,1,con,1,m,Fri Jun 06 2025 09:07:19 GMT-0500 (Central Daylight Time),309685.6999999881,silver,800,I,m,m,None,811,611.0,200.0,81,1,2145.0999999940395,307540.59999999404,7166,silver,NF,A,303883,303883,302354,303166,302354,304499,303683,303683,304499,50
51,test,1,con,1,z,Fri Jun 06 2025 09:07:19 GMT-0500 (Central Daylight Time),312201.8000000119,banana,1100,I,z,z,None,867,667.0,200.0,4,1,2512.7000000178814,309689.09999999404,7166,banana,NF,A,306332,306332,304502,305616,304502,307015,306132,306132,307015,51
52,test,1,inc,1,z,Fri Jun 06 2025 09:07:19 GMT-0500 (Central Daylight Time),314401.1999999881,zinc,1000,I,z,z,None,659,459.0,200.0,55,1,2195.699999988079,312205.5,7166,kiwi,NF,A,308748,308748,307019,308032,307019,309214,308548,308548,309214,52
53,test,1,con,1,z,Fri Jun 06 2025 09:07:19 GMT-0500 (Central Daylight Time),316400.6999999881,raisin,1000,I,z,z,None,459,260.0,199.0,27,1,1995.7999999821186,314404.90000000596,7166,raisin,NF,A,310947,310947,309218,310231,309218,311214,310748,310748,311214,53
54,test,1,inc,1,m,Fri Jun 06 2025 09:07:19 GMT-0500 (Central Daylight Time),318649.6999999881,orange,1000,I,m,m,None,700,501.0,199.0,79,1,2244.7999999821186,316404.90000000596,7166,copper,NF,A,312946,312946,311218,312231,311218,313463,312747,312747,313463,54
55,test,1,inc,1,z,Fri Jun 06 2025 09:07:19 GMT-0500 (Central Daylight Time),320765.8000000119,silver,1000,I,z,z,None,579,379.0,200.0,7,1,2109.9000000059605,318655.90000000596,7166,banana,NF,A,315196,315196,313469,314480,313469,315579,314996,314996,315579,55
56,test,1,con,1,z,Fri Jun 06 2025 09:07:19 GMT-0500 (Central Daylight Time),323148.5,pear,1100,I,z,z,None,739,539.0,200.0,44,1,2378.9000000059605,320769.59999999404,7166,pear,NF,A,317412,317412,315583,316696,315583,317962,317212,317212,317962,56
57,test,1,con,1,m,Fri Jun 06 2025 09:07:19 GMT-0500 (Central Daylight Time),325397.59999999404,copper,1000,I,m,m,None,704,505.0,199.0,75,1,2245.4000000059605,323152.1999999881,7166,copper,NF,A,319694,319694,317965,318978,317966,320211,319495,319495,320211,57
58,test,1,inc,1,m,Fri Jun 06 2025 09:07:19 GMT-0500 (Central Daylight Time),327863.6999999881,plum,1100,I,m,m,None,827,627.0,200.0,120,1,2462.199999988079,325401.5,7166,zinc,NF,A,322044,322044,320215,321328,320215,322677,321844,321844,322677,58
59,test,1,inc,1,m,Fri Jun 06 2025 09:07:19 GMT-0500 (Central Daylight Time),329913.0,banana,800,I,m,m,None,700,501.0,199.0,77,1,2044.5,327868.5,7166,copper,NF,A,324210,324210,322682,323493,322682,324726,324010,324010,324726,59
60,test,1,con,1,m,Fri Jun 06 2025 09:07:19 GMT-0500 (Central Daylight Time),332028.8000000119,lead,1100,I,m,m,None,472,272.0,200.0,124,1,2112.2000000178814,329916.59999999404,7166,lead,NF,A,326559,326559,324730,325843,324730,326842,326359,326359,326842,60
61,test,1,inc,1,z,Fri Jun 06 2025 09:07:19 GMT-0500 (Central Daylight Time),334061.6999999881,iron,900,I,z,z,None,596,396.0,200.0,54,1,2029.199999988079,332032.5,7166,kiwi,NF,A,328475,328475,326846,327759,326846,328875,328275,328275,328875,61
62,test,1,inc,1,z,Fri Jun 06 2025 09:07:19 GMT-0500 (Central Daylight Time),336294.3000000119,cobalt,1100,I,z,z,None,595,395.0,200.0,24,1,2228.300000011921,334066.0,7166,orange,NF,A,330708,330708,328879,329991,328879,331107,330508,330508,331107,62
63,test,1,inc,1,z,Fri Jun 06 2025 09:07:19 GMT-0500 (Central Daylight Time),338310.40000000596,gold,800,I,z,z,None,677,478.0,199.0,45,1,2012.0999999940395,336298.3000000119,7166,pear,NF,A,332640,332641,331111,331924,331112,333123,332441,332441,333123,63
64,test,1,con,1,m,Fri Jun 06 2025 09:07:19 GMT-0500 (Central Daylight Time),340827.09999999404,bronze,1100,I,m,m,None,882,682.0,200.0,68,1,2513.199999988079,338313.90000000596,7166,bronze,NF,A,334957,334957,333127,334240,333127,335640,334756,334756,335640,64
65,test,1,con,1,m,Fri Jun 06 2025 09:07:19 GMT-0500 (Central Daylight Time),343225.6999999881,cobalt,1100,I,m,m,None,734,534.0,200.0,92,1,2394.699999988079,340831.0,7166,cobalt,NF,A,337489,337489,335644,336786,335644,338039,337289,337289,338039,65
66,test,1,con,1,m,Fri Jun 06 2025 09:07:19 GMT-0500 (Central Daylight Time),345158.09999999404,iron,800,I,m,m,None,594,395.0,199.0,105,1,1928.699999988079,343229.40000000596,7166,iron,NF,A,339571,339572,338042,338855,338043,339971,339372,339372,339971,66
67,test,1,con,1,z,Fri Jun 06 2025 09:07:19 GMT-0500 (Central Daylight Time),347291.0,plum,900,I,z,z,None,691,491.0,200.0,58,1,2129.0999999940395,345161.90000000596,7166,plum,NF,A,341604,341604,339975,340888,339975,342104,341404,341404,342104,67
68,test,1,inc,1,m,Fri Jun 06 2025 09:07:19 GMT-0500 (Central Daylight Time),349373.40000000596,lime,800,I,m,m,None,746,546.0,200.0,101,1,2078.5999999940395,347294.8000000119,7166,gold,NF,A,343637,343637,342108,342921,342108,344186,343437,343437,344186,68
69,test,1,con,1,m,Fri Jun 06 2025 09:07:19 GMT-0500 (Central Daylight Time),351372.8000000119,silver,900,I,m,m,None,554,355.0,199.0,82,1,1995.5,349377.3000000119,7166,silver,NF,A,345820,345820,344190,345103,344191,346186,345620,345620,346186,69
70,test,1,inc,1,z,Fri Jun 06 2025 09:07:19 GMT-0500 (Central Daylight Time),353306.0,bronze,800,I,z,z,None,600,400.0,200.0,13,1,1929.5,351376.5,7166,cherry,NF,A,347719,347719,346190,347003,346190,348119,347519,347519,348119,70
71,test,1,con,1,m,Fri Jun 06 2025 09:07:19 GMT-0500 (Central Daylight Time),355854.59999999404,iron,1000,I,m,m,None,1011,811.0,200.0,107,1,2545.199999988079,353309.40000000596,7166,iron,NF,A,349852,349852,348122,349135,348123,350668,349652,349652,350668,71
72,test,1,inc,1,z,Fri Jun 06 2025 09:07:19 GMT-0500 (Central Daylight Time),358154.09999999404,lead,1100,I,z,z,None,666,466.0,200.0,64,1,2295.7999999821186,355858.3000000119,7166,plum,NF,A,352501,352501,350671,351784,350672,352967,352301,352301,352967,72
73,test,1,con,1,m,Fri Jun 06 2025 09:07:19 GMT-0500 (Central Daylight Time),360503.3000000119,silver,1100,I,m,m,None,711,510.0,201.0,84,1,2345.5,358157.8000000119,7166,silver,NF,A,354801,354801,352971,354084,352971,355316,354600,354600,355316,73
74,test,1,inc,1,m,Fri Jun 06 2025 09:07:19 GMT-0500 (Central Daylight Time),362636.09999999404,pear,900,I,m,m,None,688,488.0,200.0,102,1,2129.199999988079,360506.90000000596,7166,gold,NF,A,356950,356951,355320,356233,355320,357449,356750,356750,357449,74
75,test,1,con,1,z,Fri Jun 06 2025 09:07:19 GMT-0500 (Central Daylight Time),364918.6999999881,orange,1000,I,z,z,None,737,537.0,200.0,19,1,2278.899999976158,362639.8000000119,7166,orange,NF,A,359182,359182,357453,358466,357453,359732,358982,358982,359732,75
76,test,1,con,1,m,Fri Jun 06 2025 09:07:19 GMT-0500 (Central Daylight Time),367034.59999999404,silver,1000,I,m,m,None,574,374.0,200.0,83,1,2112.0999999940395,364922.5,7166,silver,NF,A,361465,361465,359736,360748,359736,361848,361265,361265,361848,76
77,test,1,inc,1,m,Fri Jun 06 2025 09:07:19 GMT-0500 (Central Daylight Time),369383.90000000596,raisin,1100,I,m,m,None,701,502.0,199.0,96,1,2345.5,367038.40000000596,7166,cobalt,NF,A,363681,363681,361851,362964,361852,364197,363481,363481,364197,77
78,test,1,inc,1,z,Fri Jun 06 2025 09:07:19 GMT-0500 (Central Daylight Time),372033.1999999881,lead,1100,I,z,z,None,1001,801.0,200.0,40,1,2645.399999976158,369387.8000000119,7166,lime,NF,A,366030,366030,364201,365314,364201,366846,365830,365830,366846,78
79,test,1,inc,1,z,Fri Jun 06 2025 09:07:19 GMT-0500 (Central Daylight Time),374165.6999999881,iron,900,I,z,z,None,696,495.0,201.0,62,1,2128.699999988079,372037.0,7166,plum,NF,A,368480,368480,366850,367763,366850,368979,368279,368279,368979,79
80,test,1,con,1,m,Fri Jun 06 2025 09:07:19 GMT-0500 (Central Daylight Time),376431.6999999881,zinc,1000,I,m,m,None,727,527.0,200.0,115,1,2262.2999999821186,374169.40000000596,7166,zinc,NF,A,370712,370712,368982,369995,368983,371245,370512,370512,371245,80
81,test,1,inc,1,z,Fri Jun 06 2025 09:07:19 GMT-0500 (Central Daylight Time),378547.8000000119,iron,900,I,z,z,None,672,473.0,199.0,46,1,2112.300000011921,376435.5,7166,pear,NF,A,372878,372878,371249,372161,371249,373361,372678,372678,373361,81
82,test,1,con,1,m,Fri Jun 06 2025 09:07:19 GMT-0500 (Central Daylight Time),380897.0,zinc,1100,I,m,m,None,701,501.0,200.0,116,1,2345.300000011921,378551.6999999881,7166,zinc,NF,A,375194,375194,373365,374477,373365,375710,374994,374994,375710,82
83,test,1,con,1,z,Fri Jun 06 2025 09:07:19 GMT-0500 (Central Daylight Time),382929.6999999881,pear,800,I,z,z,None,684,484.0,200.0,41,1,2028.8999999761581,380900.8000000119,7166,pear,NF,A,377243,377243,375714,376527,375714,377743,377043,377043,377743,83
84,test,1,con,1,z,Fri Jun 06 2025 09:07:19 GMT-0500 (Central Daylight Time),385378.8000000119,banana,900,I,z,z,None,1014,814.0,200.0,2,1,2443.5,382935.3000000119,7166,banana,NF,A,379376,379376,377748,378659,377749,380192,379176,379176,380192,84
85,test,1,inc,1,z,Fri Jun 06 2025 09:07:19 GMT-0500 (Central Daylight Time),387878.09999999404,silver,1000,I,z,z,None,954,754.0,200.0,15,1,2494.699999988079,385383.40000000596,7166,cherry,NF,A,381925,381925,380196,381208,380197,382691,381725,381725,382691,85
86,test,1,inc,1,m,Fri Jun 06 2025 09:07:19 GMT-0500 (Central Daylight Time),390560.6999999881,raisin,1100,I,m,m,None,968,768.0,200.0,72,1,2678.899999976158,387881.8000000119,7166,bronze,NF,A,384591,384591,382695,383888,382695,385374,384391,384391,385374,86
87,test,1,inc,1,m,Fri Jun 06 2025 09:07:19 GMT-0500 (Central Daylight Time),392759.8000000119,kiwi,1000,I,m,m,None,659,460.0,199.0,119,1,2194.800000011921,390565.0,7166,zinc,NF,A,387107,387107,385378,386390,385378,387573,386907,386907,387573,87
88,test,1,inc,1,m,Fri Jun 06 2025 09:07:19 GMT-0500 (Central Daylight Time),394992.59999999404,cherry,900,I,m,m,None,785,585.0,200.0,70,1,2229.199999988079,392763.40000000596,7166,bronze,NF,A,389206,389206,387576,388490,387577,389806,389006,389006,389806,88
89,test,1,inc,1,z,Fri Jun 06 2025 09:07:19 GMT-0500 (Central Daylight Time),397358.40000000596,zinc,1000,I,z,z,None,827,628.0,199.0,63,1,2362.0999999940395,394996.3000000119,7166,plum,NF,A,391539,391539,389809,390823,389809,392171,391339,391339,392171,89
90,test,1,inc,1,m,Fri Jun 06 2025 09:07:19 GMT-0500 (Central Daylight Time),399657.90000000596,kiwi,1000,I,m,m,None,765,566.0,199.0,127,1,2295.9000000059605,397362.0,7166,lead,NF,A,393905,393905,392175,393188,392175,394471,393705,393705,394471,90
91,test,1,inc,1,m,Fri Jun 06 2025 09:07:19 GMT-0500 (Central Daylight Time),401956.6999999881,raisin,1100,I,m,m,None,655,455.0,200.0,88,1,2295.0999999940395,399661.59999999404,7166,silver,NF,A,396303,396303,394475,395587,394475,396770,396103,396103,396770,91
92,test,1,con,1,m,Fri Jun 06 2025 09:07:19 GMT-0500 (Central Daylight Time),403989.59999999404,iron,900,I,m,m,None,595,396.0,199.0,106,1,2029.2999999821186,401960.3000000119,7166,iron,NF,A,398403,398403,396773,397687,396774,398803,398204,398204,398803,92
93,test,1,con,1,z,Fri Jun 06 2025 09:07:19 GMT-0500 (Central Daylight Time),406288.90000000596,cherry,1100,I,z,z,None,651,451.0,200.0,12,1,2295.5999999940395,403993.3000000119,7166,cherry,NF,A,400636,400636,398806,399919,398807,401102,400436,400436,401102,93
94,test,1,inc,1,m,Fri Jun 06 2025 09:07:19 GMT-0500 (Central Daylight Time),408388.1999999881,pear,900,I,m,m,None,664,464.0,200.0,110,1,2095.5,406292.6999999881,7166,iron,NF,A,402735,402735,401106,402019,401106,403201,402535,402535,403201,94
95,test,1,inc,1,z,Fri Jun 06 2025 09:07:19 GMT-0500 (Central Daylight Time),410437.6999999881,gold,800,I,z,z,None,703,504.0,199.0,61,1,2045.5999999940395,408392.09999999404,7166,plum,NF,A,404735,404735,403205,404018,403205,405251,404535,404535,405251,95
96,test,1,con,1,z,Fri Jun 06 2025 09:07:19 GMT-0500 (Central Daylight Time),412649.8000000119,raisin,800,I,z,z,None,879,679.0,200.0,25,1,2208.300000011921,410441.5,7166,raisin,NF,A,406784,406784,405255,406067,405255,407463,406584,406584,407463,96
97,test,1,inc,1,m,Fri Jun 06 2025 09:07:19 GMT-0500 (Central Daylight Time),414686.40000000596,banana,800,I,m,m,None,695,495.0,200.0,69,1,2032.7000000178814,412653.6999999881,7166,bronze,NF,A,409000,409000,407467,408283,407467,409499,408800,408800,409499,97
98,test,1,con,1,m,Fri Jun 06 2025 09:07:19 GMT-0500 (Central Daylight Time),416969.0,cobalt,900,I,m,m,None,833,634.0,199.0,90,1,2278.9000000059605,414690.09999999404,7166,cobalt,NF,A,411133,411133,409503,410416,409503,411782,410933,410933,411782,98
99,test,1,con,1,m,Fri Jun 06 2025 09:07:19 GMT-0500 (Central Daylight Time),418868.5,zinc,900,I,m,m,None,454,255.0,199.0,114,1,1895.9000000059605,416972.59999999404,7166,zinc,NF,A,413416,413416,411786,412699,411786,413682,413216,413216,413682,99
100,test,1,inc,1,m,Fri Jun 06 2025 09:07:19 GMT-0500 (Central Daylight Time),421067.8000000119,orange,1000,I,m,m,None,665,465.0,200.0,95,1,2195.7000000178814,418872.09999999404,7166,cobalt,NF,A,415414,415414,413685,414698,413686,415881,415214,415214,415881,100
101,test,1,inc,1,z,Fri Jun 06 2025 09:07:19 GMT-0500 (Central Daylight Time),423016.90000000596,bronze,800,I,z,z,None,609,409.0,200.0,5,1,1945.5,421071.40000000596,7166,banana,NF,A,417414,417414,415884,416697,415885,417830,417214,417214,417830,101
102,test,1,inc,1,z,Fri Jun 06 2025 09:07:19 GMT-0500 (Central Daylight Time),425299.6999999881,cobalt,1100,I,z,z,None,648,448.0,200.0,8,1,2278.199999988079,423021.5,7166,banana,NF,A,419663,419663,417835,418947,417835,420113,419463,419463,420113,102
103,test,1,con,1,z,Fri Jun 06 2025 09:07:19 GMT-0500 (Central Daylight Time),427282.40000000596,lime,900,I,z,z,None,541,341.0,200.0,34,1,1979.0,425303.40000000596,7166,lime,NF,A,421746,421746,420116,421029,420117,422095,421546,421546,422095,103
104,test,1,inc,1,m,Fri Jun 06 2025 09:07:19 GMT-0500 (Central Daylight Time),429298.3000000119,cherry,900,I,m,m,None,581,382.0,199.0,86,1,2012.4000000059605,427285.90000000596,7166,silver,NF,A,423729,423729,422099,423012,422099,424111,423529,423529,424111,104
105,test,1,con,1,z,Fri Jun 06 2025 09:07:19 GMT-0500 (Central Daylight Time),431464.40000000596,cherry,900,I,z,z,None,725,510.0,215.0,10,1,2162.7000000178814,429301.6999999881,7166,cherry,NF,A,425761,425761,424115,425028,424115,426277,425546,425546,426277,105
106,test,1,inc,1,m,Fri Jun 06 2025 09:07:19 GMT-0500 (Central Daylight Time),433713.90000000596,orange,1000,I,m,m,None,716,516.0,200.0,87,1,2245.7000000178814,431468.1999999881,7166,silver,NF,A,428011,428011,426281,427294,426281,428527,427810,427810,428527,106
107,test,1,con,1,z,Fri Jun 06 2025 09:07:19 GMT-0500 (Central Daylight Time),435879.8000000119,plum,800,I,z,z,None,819,619.0,200.0,57,1,2162.0,433717.8000000119,7166,plum,NF,A,430060,430060,428531,429343,428531,430693,429860,429860,430693,107
108,test,1,con,1,m,Fri Jun 06 2025 09:07:19 GMT-0500 (Central Daylight Time),438278.6999999881,bronze,900,I,m,m,None,961,761.0,200.0,66,1,2395.0999999940395,435883.59999999404,7166,bronze,NF,A,432326,432326,430697,431610,430697,433092,432126,432126,433092,108
109,test,1,con,1,m,Fri Jun 06 2025 09:07:19 GMT-0500 (Central Daylight Time),440311.6999999881,gold,800,I,m,m,None,694,494.0,200.0,97,1,2029.0999999940395,438282.59999999404,7166,gold,NF,A,434625,434625,433096,433909,433096,435125,434425,434425,435125,109
110,test,1,inc,1,m,Fri Jun 06 2025 09:07:19 GMT-0500 (Central Daylight Time),442560.90000000596,cherry,900,I,m,m,None,800,601.0,199.0,78,1,2245.5,440315.40000000596,7166,copper,NF,A,436758,436758,435128,436042,435129,437374,436558,436558,437374,110
111,test,1,con,1,m,Fri Jun 06 2025 09:07:19 GMT-0500 (Central Daylight Time),444760.09999999404,gold,900,I,m,m,None,752,552.0,200.0,98,1,2195.199999988079,442564.90000000596,7166,gold,NF,A,439007,439007,437378,438291,437378,439573,438807,438807,439573,111
112,test,1,inc,1,m,Fri Jun 06 2025 09:07:19 GMT-0500 (Central Daylight Time),447026.09999999404,banana,800,I,m,m,None,917,717.0,200.0,85,1,2261.5999999940395,444764.5,7166,silver,NF,A,441106,441106,439578,440390,439578,441839,440906,440906,441839,112
113,test,1,inc,1,m,Fri Jun 06 2025 09:07:19 GMT-0500 (Central Daylight Time),449209.09999999404,kiwi,1000,I,m,m,None,643,443.0,200.0,111,1,2179.5,447029.59999999404,7166,iron,NF,A,443572,443572,441843,442856,441843,444022,443372,443372,444022,113
114,test,1,con,1,z,Fri Jun 06 2025 09:07:19 GMT-0500 (Central Daylight Time),451508.1999999881,banana,1000,I,z,z,None,756,556.0,200.0,3,1,2295.5999999940395,449212.59999999404,7166,banana,NF,A,445755,445755,444026,445038,444026,446321,445555,445555,446321,114
115,test,1,con,1,m,Fri Jun 06 2025 09:07:19 GMT-0500 (Central Daylight Time),453890.8000000119,copper,900,I,m,m,None,941,741.0,200.0,74,1,2378.4000000059605,451512.40000000596,7166,copper,NF,A,447954,447954,446325,447238,446326,448704,447754,447754,448704,115
116,test,1,con,1,m,Fri Jun 06 2025 09:07:19 GMT-0500 (Central Daylight Time),455906.90000000596,bronze,800,I,m,m,None,674,474.0,200.0,65,1,2012.300000011921,453894.59999999404,7166,bronze,NF,A,450237,450237,448708,449520,448708,450720,450037,450037,450720,116
117,test,1,con,1,m,Fri Jun 06 2025 09:07:19 GMT-0500 (Central Daylight Time),458622.5,copper,1100,I,m,m,None,1070,870.0,200.0,76,1,2711.699999988079,455910.8000000119,7166,copper,NF,A,452553,452553,450724,451836,450724,453436,452353,452353,453436,117
118,test,1,con,1,z,Fri Jun 06 2025 09:07:19 GMT-0500 (Central Daylight Time),460688.59999999404,kiwi,800,I,z,z,None,738,526.0,212.0,49,1,2062.5,458626.09999999404,7166,kiwi,NF,A,454969,454969,453439,454252,453439,455502,454756,454756,455502,118
119,test,1,con,1,m,Fri Jun 06 2025 09:07:19 GMT-0500 (Central Daylight Time),462904.5,bronze,1000,I,m,m,None,676,476.0,200.0,67,1,2212.0999999940395,460692.40000000596,7166,bronze,NF,A,457235,457235,455505,456518,455506,457718,457035,457035,457718,119
120,test,1,inc,1,m,Fri Jun 06 2025 09:07:19 GMT-0500 (Central Daylight Time),465070.5,pear,900,I,m,m,None,720,521.0,199.0,126,1,2162.0999999940395,462908.40000000596,7166,lead,NF,A,459350,459350,457721,458634,457722,459884,459151,459151,459884,120
121,test,1,inc,1,m,Fri Jun 06 2025 09:07:19 GMT-0500 (Central Daylight Time),467936.3000000119,raisin,1100,I,m,m,None,1225,1026.0,199.0,80,1,2862.100000023842,465074.1999999881,7166,copper,NF,A,461717,461717,459887,461000,459888,462749,461517,461517,462749,121
122,test,1,con,1,z,Fri Jun 06 2025 09:07:19 GMT-0500 (Central Daylight Time),470352.0,cherry,1000,I,z,z,None,877,677.0,200.0,11,1,2412.0,467940.0,7166,cherry,NF,A,464482,464482,462753,463766,462753,465165,464282,464282,465165,122
123,test,1,inc,1,z,Fri Jun 06 2025 09:07:19 GMT-0500 (Central Daylight Time),472551.3000000119,cobalt,1100,I,z,z,None,551,352.0,199.0,16,1,2195.600000023842,470355.6999999881,7166,cherry,NF,A,466998,466998,465169,466281,465169,467364,466798,466798,467364,123
124,test,1,con,1,z,Fri Jun 06 2025 09:07:19 GMT-0500 (Central Daylight Time),474517.59999999404,orange,900,I,z,z,None,528,329.0,199.0,18,1,1962.7999999821186,472554.8000000119,7166,orange,NF,A,468998,468998,467368,468281,467368,469331,468797,468798,469331,124
125,test,1,inc,1,m,Fri Jun 06 2025 09:07:19 GMT-0500 (Central Daylight Time),476450.3000000119,banana,800,I,m,m,None,598,399.0,199.0,93,1,1929.300000011921,474521.0,7166,cobalt,NF,A,470863,470864,469334,470147,469334,471263,470664,470664,471263,125
126,test,1,inc,1,z,Fri Jun 06 2025 09:07:19 GMT-0500 (Central Daylight Time),478616.09999999404,cobalt,1100,I,z,z,None,534,335.0,199.0,32,1,2162.2999999821186,476453.8000000119,7166,raisin,NF,A,473079,473080,471267,472379,471267,473429,472880,472880,473429,126
127,test,1,con,1,m,Fri Jun 06 2025 09:07:19 GMT-0500 (Central Daylight Time),481065.3000000119,gold,1100,I,m,m,None,801,601.0,200.0,100,1,2445.300000011921,478620.0,7166,gold,NF,A,475262,475262,473433,474546,473433,475878,475062,475062,475878,127
128,test,1,inc,1,m,Fri Jun 06 2025 09:07:19 GMT-0500 (Central Daylight Time),483148.0,lime,800,I,m,m,None,738,539.0,199.0,125,1,2079.300000011921,481068.6999999881,7166,lead,NF,A,477412,477412,475882,476696,475882,477961,477212,477212,477961,128
