acc_sum,block_c,block_dur,condition,correct,correct_response,countdown,datetime,endtime,project,response,response_time,response_time_test1_response,response_time_test2_response,row_sel,same,session_number,start_end,starttime,stim1,stim2,subject_id,task,task_vers,time_test1,time_test2,trial
1,1,0.0,prac,1,m,30000.0,Tue Feb 10 2026 13:40:42 GMT-0500 (Eastern Standard Time),40388.89999961853,I,m,1370,,,6,no,2,2892.2999992370605,37496.60000038147,practrial6.png,practrial6b.png,9029,PC,A,,,1
2,1,0.0,prac,1,m,30000.0,Tue Feb 10 2026 13:40:42 GMT-0500 (Eastern Standard Time),43305.300000190735,I,m,1382,,,4,no,2,2908.0,40397.300000190735,practrial4.png,practrial4b.png,9029,PC,A,,,2
3,1,0.0,prac,1,z,30000.0,Tue Feb 10 2026 13:40:42 GMT-0500 (Eastern Standard Time),45938.60000038147,I,z,1108,,,5,yes,2,2625.5,43313.10000038147,practrial5.png,practrial5.png,9029,PC,A,,,3
4,1,0.0,prac,1,z,30000.0,Tue Feb 10 2026 13:40:42 GMT-0500 (Eastern Standard Time),48788.5,I,z,1319,,,3,yes,2,2839.800000190735,45948.699999809265,practrial3.png,practrial3.png,9029,PC,A,,,4
5,1,0.0,prac,1,m,30000.0,Tue Feb 10 2026 13:40:42 GMT-0500 (Eastern Standard Time),51438.60000038147,I,m,1110,,,2,no,2,2641.2000007629395,48797.39999961853,practrial2.png,practrial2b.png,9029,PC,A,,,5
6,1,0.0,prac,1,z,30000.0,Tue Feb 10 2026 13:40:42 GMT-0500 (Eastern Standard Time),54038.60000038147,I,z,1070,,,1,yes,2,2592.2000007629395,51446.39999961853,practrial1.png,practrial1.png,9029,PC,A,,,6
1,1,1.2680001258850098,test,1,z,28731.99987411499,Tue Feb 10 2026 13:40:42 GMT-0500 (Eastern Standard Time),61405.699999809265,I,z,1255,1255,,1,yes,2,1264.5999994277954,60141.10000038147,test1trial1.png,test1trial1.png,9029,PC,A,56272,,1
2,1,2.4179999828338623,test,1,m,27582.000017166138,Tue Feb 10 2026 13:40:42 GMT-0500 (Eastern Standard Time),62555.39999961853,I,m,1134,1134,,2,no,2,1142.0,61413.39999961853,test1trial2.png,test1trial2b.png,9029,PC,A,57545,,2
3,1,3.4839999675750732,test,1,z,26516.000032424927,Tue Feb 10 2026 13:40:42 GMT-0500 (Eastern Standard Time),63621.89999961853,I,z,1039,1039,,3,yes,2,1056.6999998092651,62565.199999809265,test1trial3.png,test1trial3.png,9029,PC,A,58696,,3
4,1,4.4679999351501465,test,1,m,25532.000064849854,Tue Feb 10 2026 13:40:42 GMT-0500 (Eastern Standard Time),64605.300000190735,I,m,967,967,,4,no,2,976.3000001907349,63629.0,test1trial4.png,test1trial4b.png,9029,PC,A,59760,,4
5,1,5.568000078201294,test,1,z,24431.999921798706,Tue Feb 10 2026 13:40:42 GMT-0500 (Eastern Standard Time),65705.30000019073,I,z,1088,1088,,5,yes,2,1093.5,64611.800000190735,test1trial5.png,test1trial5.png,9029,PC,A,60743,,5
6,1,7.0340001583099365,test,1,m,22965.999841690063,Tue Feb 10 2026 13:40:42 GMT-0500 (Eastern Standard Time),67171.89999961853,I,m,1442,1442,,6,no,2,1458.3999996185303,65713.5,test1trial6.png,test1trial6b.png,9029,PC,A,61845,,6
7,1,8.167999982833862,test,1,z,21832.000017166138,Tue Feb 10 2026 13:40:42 GMT-0500 (Eastern Standard Time),68305.30000019073,I,z,1114,1114,,7,yes,2,1127.0,67178.30000019073,test1trial7.png,test1trial7.png,9029,PC,A,63309,,7
7,1,9.434000015258789,test,0,m,20565.99998474121,Tue Feb 10 2026 13:40:42 GMT-0500 (Eastern Standard Time),69571.89999961853,I,z,1243,1243,,8,no,2,1259.0999994277954,68312.80000019073,test1trial8.png,test1trial8b.png,9029,PC,A,64444,,8
8,1,10.634000062942505,test,1,z,19365.999937057495,Tue Feb 10 2026 13:40:42 GMT-0500 (Eastern Standard Time),70772.0,I,z,1177,1177,,9,yes,2,1192.8999996185303,69579.10000038147,test1trial9.png,test1trial9.png,9029,PC,A,65710,,9
9,1,11.568000078201294,test,1,m,18431.999921798706,Tue Feb 10 2026 13:40:42 GMT-0500 (Eastern Standard Time),71705.39999961853,I,m,920,920,,10,no,2,925.7999992370605,70779.60000038147,test1trial10.png,test1trial10b.png,9029,PC,A,66911,,10
10,1,12.568000078201294,test,1,z,17431.999921798706,Tue Feb 10 2026 13:40:42 GMT-0500 (Eastern Standard Time),72705.39999961853,I,z,979,979,,11,yes,2,992.0,71713.39999961853,test1trial11.png,test1trial11.png,9029,PC,A,67844,,11
11,1,14.284000158309937,test,1,m,15715.999841690063,Tue Feb 10 2026 13:40:42 GMT-0500 (Eastern Standard Time),74421.19999980927,I,m,1699,1699,,12,no,2,1709.3999996185303,72711.80000019073,test1trial12.png,test1trial12b.png,9029,PC,A,68843,,12
12,1,15.317000150680542,test,1,m,14682.999849319458,Tue Feb 10 2026 13:40:42 GMT-0500 (Eastern Standard Time),75454.60000038147,I,m,1016,1016,,13,no,2,1028.5,74426.10000038147,test1trial13.png,test1trial13b.png,9029,PC,A,70557,,13
13,1,16.568000078201294,test,1,m,13431.999921798706,Tue Feb 10 2026 13:40:42 GMT-0500 (Eastern Standard Time),76705.10000038147,I,m,1233,1233,,14,no,2,1245.9000005722046,75459.19999980927,test1trial14.png,test1trial14b.png,9029,PC,A,71590,,14
14,1,17.549999952316284,test,1,z,12450.000047683716,Tue Feb 10 2026 13:40:42 GMT-0500 (Eastern Standard Time),77688.0,I,z,966,966,,15,yes,2,971.8000001907349,76716.19999980927,test1trial15.png,test1trial15.png,9029,PC,A,72849,,15
15,1,18.534000158309937,test,1,m,11465.999841690063,Tue Feb 10 2026 13:40:42 GMT-0500 (Eastern Standard Time),78671.80000019073,I,m,968,968,,16,no,2,980.1999998092651,77691.60000038147,test1trial16.png,test1trial16b.png,9029,PC,A,73823,,16
16,1,19.91700005531311,test,1,z,10082.99994468689,Tue Feb 10 2026 13:40:42 GMT-0500 (Eastern Standard Time),80055.0,I,z,1374,1374,,17,yes,2,1376.6999998092651,78678.30000019073,test1trial17.png,test1trial17.png,9029,PC,A,74809,,17
17,1,21.26800012588501,test,1,m,8731.99987411499,Tue Feb 10 2026 13:40:42 GMT-0500 (Eastern Standard Time),81405.30000019073,I,m,1334,1334,,18,no,2,1343.0,80062.30000019073,test1trial18.png,test1trial18b.png,9029,PC,A,76193,,18
18,1,22.967999935150146,test,1,m,7032.0000648498535,Tue Feb 10 2026 13:40:42 GMT-0500 (Eastern Standard Time),83105.30000019073,I,m,1679,1679,,19,no,2,1693.1999998092651,81412.10000038147,test1trial19.png,test1trial19b.png,9029,PC,A,77544,,19
19,1,24.000999927520752,test,1,z,5999.000072479248,Tue Feb 10 2026 13:40:42 GMT-0500 (Eastern Standard Time),84138.69999980927,I,z,1021,1021,,20,yes,2,1027.1999998092651,83111.5,test1trial20.png,test1trial20.png,9029,PC,A,79242,,20
20,1,25.1010000705719,test,1,z,4898.999929428101,Tue Feb 10 2026 13:40:42 GMT-0500 (Eastern Standard Time),85238.30000019073,I,z,1090,1090,,21,yes,2,1092.4000005722046,84145.89999961853,test1trial21.png,test1trial21.png,9029,PC,A,80277,,21
20,1,26.26800012588501,test,0,z,3731.9998741149902,Tue Feb 10 2026 13:40:42 GMT-0500 (Eastern Standard Time),86405.30000019073,I,m,1143,1143,,22,yes,2,1160.9000005722046,85244.39999961853,test1trial22.png,test1trial22.png,9029,PC,A,81376,,22
21,1,27.167999982833862,test,1,z,2832.0000171661377,Tue Feb 10 2026 13:40:42 GMT-0500 (Eastern Standard Time),87305.19999980927,I,z,888,888,,23,yes,2,893.3000001907349,86411.89999961853,test1trial23.png,test1trial23.png,9029,PC,A,82543,,23
22,1,28.28500008583069,test,1,z,1714.9999141693115,Tue Feb 10 2026 13:40:42 GMT-0500 (Eastern Standard Time),88422.19999980927,I,z,1110,1110,,24,yes,2,1110.6999998092651,87311.5,test1trial24.png,test1trial24.png,9029,PC,A,83442,,24
23,1,29.750999927520752,test,1,m,249.00007247924805,Tue Feb 10 2026 13:40:42 GMT-0500 (Eastern Standard Time),89888.5,I,m,1442,1442,,25,no,2,1457.1000003814697,88431.39999961853,test1trial25.png,test1trial25b.png,9029,PC,A,84564,,25
23,1,30.01800012588501,test,0,m,-18.000125885009766,Tue Feb 10 2026 13:40:42 GMT-0500 (Eastern Standard Time),90155.39999961853,I,None,258,258,,26,no,2,260.3999996185303,89895.0,test1trial26.png,test1trial26b.png,9029,PC,A,86026,,26
1,2,1.25,test,1,m,28750.0,Tue Feb 10 2026 13:40:42 GMT-0500 (Eastern Standard Time),94755.69999980927,I,m,1228,,1228.0,1,no,2,4860.699999809265,89895.0,test2trial1.png,test2trial1b.png,9029,PC,A,,89643.0,1
2,2,2.4830000400543213,test,1,m,27516.99995994568,Tue Feb 10 2026 13:40:42 GMT-0500 (Eastern Standard Time),95988.60000038147,I,m,1208,,1208.0,2,no,2,6093.60000038147,89895.0,test2trial2.png,test2trial2b.png,9029,PC,A,,90895.0,2
2,2,3.9830000400543213,test,0,z,26016.99995994568,Tue Feb 10 2026 13:40:42 GMT-0500 (Eastern Standard Time),97488.60000038147,I,m,1481,,1481.0,3,yes,2,7593.60000038147,89895.0,test2trial3.png,test2trial3.png,9029,PC,A,,92126.0,3
3,2,4.849999904632568,test,1,z,25150.00009536743,Tue Feb 10 2026 13:40:42 GMT-0500 (Eastern Standard Time),98355.30000019073,I,z,842,,842.0,4,yes,2,8460.300000190735,89895.0,test2trial4.png,test2trial4.png,9029,PC,A,,93629.0,4
4,2,6.183000087738037,test,1,z,23816.999912261963,Tue Feb 10 2026 13:40:42 GMT-0500 (Eastern Standard Time),99688.39999961853,I,z,1323,,1323.0,5,yes,2,9793.39999961853,89895.0,test2trial5.png,test2trial5.png,9029,PC,A,,94493.0,5
5,2,7.716000080108643,test,1,z,22283.999919891357,Tue Feb 10 2026 13:40:42 GMT-0500 (Eastern Standard Time),101221.89999961853,I,z,1525,,1525.0,6,yes,2,11326.89999961853,89895.0,test2trial6.png,test2trial6.png,9029,PC,A,,95826.0,6
6,2,8.865999937057495,test,1,m,21134.000062942505,Tue Feb 10 2026 13:40:42 GMT-0500 (Eastern Standard Time),102372.0,I,m,1122,,1122.0,7,no,2,12477.0,89895.0,test2trial7.png,test2trial7b.png,9029,PC,A,,97365.0,7
7,2,10.065999984741211,test,1,m,19934.00001525879,Tue Feb 10 2026 13:40:42 GMT-0500 (Eastern Standard Time),103571.5,I,m,1176,,1176.0,8,no,2,13676.5,89895.0,test2trial8.png,test2trial8b.png,9029,PC,A,,98510.0,8
8,2,11.5,test,1,z,18500.0,Tue Feb 10 2026 13:40:42 GMT-0500 (Eastern Standard Time),105005.19999980927,I,z,1420,,1420.0,9,yes,2,15110.199999809265,89895.0,test2trial9.png,test2trial9.png,9029,PC,A,,99707.0,9
9,2,12.400000095367432,test,1,z,17599.99990463257,Tue Feb 10 2026 13:40:42 GMT-0500 (Eastern Standard Time),105905.30000019073,I,z,878,,878.0,10,yes,2,16010.300000190735,89895.0,test2trial10.png,test2trial10.png,9029,PC,A,,101145.0,10
10,2,13.532999992370605,test,1,m,16467.000007629395,Tue Feb 10 2026 13:40:42 GMT-0500 (Eastern Standard Time),107038.60000038147,I,m,1115,,1115.0,11,no,2,17143.60000038147,89895.0,test2trial11.png,test2trial11b.png,9029,PC,A,,102043.0,11
11,2,15.450000047683716,test,1,m,14549.999952316284,Tue Feb 10 2026 13:40:42 GMT-0500 (Eastern Standard Time),108955.19999980927,I,m,1903,,1903.0,12,no,2,19060.199999809265,89895.0,test2trial12.png,test2trial12b.png,9029,PC,A,,103176.0,12
12,2,16.799999952316284,test,1,z,13200.000047683716,Tue Feb 10 2026 13:40:42 GMT-0500 (Eastern Standard Time),110305.19999980927,I,z,1330,,1330.0,13,yes,2,20410.199999809265,89895.0,test2trial13.png,test2trial13.png,9029,PC,A,,105094.0,13
12,2,18.41600012779236,test,0,m,11583.999872207642,Tue Feb 10 2026 13:40:42 GMT-0500 (Eastern Standard Time),111922.0,I,z,1595,,1595.0,14,no,2,22027.0,89895.0,test2trial14.png,test2trial14b.png,9029,PC,A,,106444.0,14
13,2,20.132999897003174,test,1,m,9867.000102996826,Tue Feb 10 2026 13:40:42 GMT-0500 (Eastern Standard Time),113638.30000019073,I,m,1707,,1707.0,15,no,2,23743.300000190735,89895.0,test2trial15.png,test2trial15b.png,9029,PC,A,,108060.0,15
14,2,21.716000080108643,test,1,m,8283.999919891357,Tue Feb 10 2026 13:40:42 GMT-0500 (Eastern Standard Time),115222.0,I,m,1575,,1575.0,16,no,2,25327.0,89895.0,test2trial16.png,test2trial16b.png,9029,PC,A,,109776.0,16
15,2,23.33400011062622,test,1,z,6665.999889373779,Tue Feb 10 2026 13:40:42 GMT-0500 (Eastern Standard Time),116839.30000019073,I,z,1606,,1606.0,17,yes,2,26944.300000190735,89895.0,test2trial17.png,test2trial17.png,9029,PC,A,,111361.0,17
16,2,24.615999937057495,test,1,z,5384.000062942505,Tue Feb 10 2026 13:40:42 GMT-0500 (Eastern Standard Time),118121.89999961853,I,z,1266,,1266.0,18,yes,2,28226.89999961853,89895.0,test2trial18.png,test2trial18.png,9029,PC,A,,112981.0,18
17,2,25.749000072479248,test,1,z,4250.999927520752,Tue Feb 10 2026 13:40:42 GMT-0500 (Eastern Standard Time),119255.0,I,z,1124,,1124.0,19,yes,2,29360.0,89895.0,test2trial19.png,test2trial19.png,9029,PC,A,,114259.0,19
18,2,26.933000087738037,test,1,z,3066.999912261963,Tue Feb 10 2026 13:40:42 GMT-0500 (Eastern Standard Time),120438.30000019073,I,z,1176,,1176.0,20,yes,2,30543.300000190735,89895.0,test2trial20.png,test2trial20.png,9029,PC,A,,115392.0,20
19,2,28.683000087738037,test,1,z,1316.999912261963,Tue Feb 10 2026 13:40:42 GMT-0500 (Eastern Standard Time),122188.60000038147,I,z,1735,,1735.0,21,yes,2,32293.60000038147,89895.0,test2trial21.png,test2trial21.png,9029,PC,A,,116576.0,21
19,2,30.016000032424927,test,0,m,-16.000032424926758,Tue Feb 10 2026 13:40:42 GMT-0500 (Eastern Standard Time),123521.89999961853,I,None,1325,,1325.0,22,no,2,33626.89999961853,89895.0,test2trial22.png,test2trial22b.png,9029,PC,A,,118327.0,22
