Number,acc_sum,block,block_c,block_cond,con_img,correct,correct_response,datetime,endtime,jitter,project,response,response_time,row_sel,session_number,start_end,starttime,subject_id,task,task_vers,trial
9,1,prac,1,A,circle.png,1,m,Wed Aug 06 2025 17:38:10 GMT-0500 (Central Daylight Time),66643.39999997616,1500,I,m,754,8,2,3043.599999964237,63599.80000001192,8037,NTS,A,1
4,2,prac,1,A,circle.png,1,z,Wed Aug 06 2025 17:38:10 GMT-0500 (Central Daylight Time),69542.39999997616,1400,I,z,709,4,2,2892.099999964237,66650.30000001192,8037,NTS,A,2
3,3,prac,1,A,circle.png,1,z,Wed Aug 06 2025 17:38:10 GMT-0500 (Central Daylight Time),72175.09999996424,1200,I,z,642,3,2,2627.5,69547.59999996424,8037,NTS,A,3
7,4,prac,1,A,circle.png,1,m,Wed Aug 06 2025 17:38:10 GMT-0500 (Central Daylight Time),75257.59999996424,1700,I,m,590,6,2,3076.5,72181.09999996424,8037,NTS,A,4
8,5,prac,1,A,circle.png,1,m,Wed Aug 06 2025 17:38:10 GMT-0500 (Central Daylight Time),78206.39999997616,1600,I,m,552,7,2,2943.099999964237,75263.30000001192,8037,NTS,A,5
8,6,prac,1,A,circle.png,1,m,Wed Aug 06 2025 17:38:10 GMT-0500 (Central Daylight Time),81172.09999996424,1600,I,m,571,7,2,2960.5,78211.59999996424,8037,NTS,A,6
9,7,prac,1,A,circle.png,1,m,Wed Aug 06 2025 17:38:10 GMT-0500 (Central Daylight Time),84037.5,1500,I,m,577,8,2,2860.0,81177.5,8037,NTS,A,7
2,7,prac,1,A,circle.png,0,z,Wed Aug 06 2025 17:38:10 GMT-0500 (Central Daylight Time),87170.30000001192,2000,I,m,347,2,2,3127.400000035763,84042.89999997616,8037,NTS,A,8
3,8,prac,1,A,circle.png,1,z,Wed Aug 06 2025 17:38:10 GMT-0500 (Central Daylight Time),90019.30000001192,1200,I,z,863,3,2,2842.2000000476837,87177.09999996424,8037,NTS,A,9
1,9,prac,1,A,circle.png,1,z,Wed Aug 06 2025 17:38:10 GMT-0500 (Central Daylight Time),92385.09999996424,1000,I,z,574,1,2,2360.399999976158,90024.69999998808,8037,NTS,A,10
7,10,prac,1,A,circle.png,1,m,Wed Aug 06 2025 17:38:10 GMT-0500 (Central Daylight Time),95467.59999996424,1700,I,m,596,6,2,3077.199999988079,92390.39999997616,8037,NTS,A,11
6,11,prac,1,A,circle.png,1,m,Wed Aug 06 2025 17:38:10 GMT-0500 (Central Daylight Time),98816.69999998808,1900,I,m,657,5,2,3342.899999976158,95473.80000001192,8037,NTS,A,12
6,1,prac,1,B,triangle.png,1,m,Wed Aug 06 2025 17:38:10 GMT-0500 (Central Daylight Time),152827.5,1000,I,m,1191,5,2,2972.5,149855.0,8037,NTS,A,1
9,2,prac,1,B,triangle.png,1,z,Wed Aug 06 2025 17:38:10 GMT-0500 (Central Daylight Time),155848.80000001192,1400,I,z,825,8,2,3014.900000035763,152833.89999997616,8037,NTS,A,2
9,3,prac,1,B,triangle.png,1,z,Wed Aug 06 2025 17:38:10 GMT-0500 (Central Daylight Time),158664.5,1400,I,z,617,8,2,2810.699999988079,155853.80000001192,8037,NTS,A,3
2,4,prac,1,B,triangle.png,1,m,Wed Aug 06 2025 17:38:10 GMT-0500 (Central Daylight Time),161829.89999997616,1700,I,m,669,2,2,3160.399999976158,158669.5,8037,NTS,A,4
8,5,prac,1,B,triangle.png,1,m,Wed Aug 06 2025 17:38:10 GMT-0500 (Central Daylight Time),164429.0,1200,I,m,604,7,2,2593.800000011921,161835.19999998808,8037,NTS,A,5
4,6,prac,1,B,triangle.png,1,m,Wed Aug 06 2025 17:38:10 GMT-0500 (Central Daylight Time),167478.30000001192,1500,I,m,752,4,2,3042.100000023842,164436.19999998808,8037,NTS,A,6
7,7,prac,1,B,triangle.png,1,z,Wed Aug 06 2025 17:38:10 GMT-0500 (Central Daylight Time),170910.69999998808,2000,I,z,635,6,2,3427.199999988079,167483.5,8037,NTS,A,7
1,8,prac,1,B,triangle.png,1,z,Wed Aug 06 2025 17:38:10 GMT-0500 (Central Daylight Time),174209.69999998808,1900,I,z,607,1,2,3294.0,170915.69999998808,8037,NTS,A,8
6,9,prac,1,B,triangle.png,1,m,Wed Aug 06 2025 17:38:10 GMT-0500 (Central Daylight Time),176842.0,1000,I,m,840,5,2,2627.400000035763,174214.59999996424,8037,NTS,A,9
8,10,prac,1,B,triangle.png,1,m,Wed Aug 06 2025 17:38:10 GMT-0500 (Central Daylight Time),179507.89999997616,1200,I,m,680,7,2,2660.599999964237,176847.30000001192,8037,NTS,A,10
3,11,prac,1,B,triangle.png,1,z,Wed Aug 06 2025 17:38:10 GMT-0500 (Central Daylight Time),182473.80000001192,1600,I,z,574,3,2,2960.400000035763,179513.39999997616,8037,NTS,A,11
3,12,prac,1,B,triangle.png,1,z,Wed Aug 06 2025 17:38:10 GMT-0500 (Central Daylight Time),185522.5,1600,I,z,656,3,2,3042.800000011921,182479.69999998808,8037,NTS,A,12
4,0,test,1,A,circle.png,0,z,Wed Aug 06 2025 17:38:10 GMT-0500 (Central Daylight Time),206183.0,1400,I,None,1516,4,2,2929.0,203254.0,8037,NTS,A,1
7,1,test,1,A,circle.png,1,m,Wed Aug 06 2025 17:38:10 GMT-0500 (Central Daylight Time),208533.09999996424,1700,I,m,622,6,2,2345.899999976158,206187.19999998808,8037,NTS,A,2
2,2,test,1,A,circle.png,1,z,Wed Aug 06 2025 17:38:10 GMT-0500 (Central Daylight Time),211164.59999996424,2000,I,z,605,2,2,2627.699999988079,208536.89999997616,8037,NTS,A,3
4,3,test,1,A,circle.png,1,z,Wed Aug 06 2025 17:38:10 GMT-0500 (Central Daylight Time),213530.5,1400,I,z,941,4,2,2362.100000023842,211168.39999997616,8037,NTS,A,4
6,4,test,1,A,circle.png,1,m,Wed Aug 06 2025 17:38:10 GMT-0500 (Central Daylight Time),216079.89999997616,1900,I,m,627,5,2,2544.899999976158,213535.0,8037,NTS,A,5
8,5,test,1,A,circle.png,1,m,Wed Aug 06 2025 17:38:10 GMT-0500 (Central Daylight Time),218445.59999996424,1600,I,m,745,7,2,2362.099999964237,216083.5,8037,NTS,A,6
8,6,test,1,A,circle.png,1,m,Wed Aug 06 2025 17:38:10 GMT-0500 (Central Daylight Time),220811.69999998808,1600,I,m,748,7,2,2362.399999976158,218449.30000001192,8037,NTS,A,7
1,7,test,1,A,circle.png,1,z,Wed Aug 06 2025 17:38:10 GMT-0500 (Central Daylight Time),222694.19999998808,1000,I,z,853,1,2,1878.699999988079,220815.5,8037,NTS,A,8
9,8,test,1,A,circle.png,1,m,Wed Aug 06 2025 17:38:10 GMT-0500 (Central Daylight Time),225160.39999997616,1500,I,m,943,8,2,2462.599999964237,222697.80000001192,8037,NTS,A,9
7,9,test,1,A,circle.png,1,m,Wed Aug 06 2025 17:38:10 GMT-0500 (Central Daylight Time),227676.09999996424,1700,I,m,797,6,2,2512.0,225164.09999996424,8037,NTS,A,10
3,10,test,1,A,circle.png,1,z,Wed Aug 06 2025 17:38:10 GMT-0500 (Central Daylight Time),229808.69999998808,1200,I,z,909,3,2,2129.0,227679.69999998808,8037,NTS,A,11
2,11,test,1,A,circle.png,1,z,Wed Aug 06 2025 17:38:10 GMT-0500 (Central Daylight Time),232558.0,2000,I,z,729,2,2,2745.300000011921,229812.69999998808,8037,NTS,A,12
2,12,test,1,A,circle.png,1,z,Wed Aug 06 2025 17:38:10 GMT-0500 (Central Daylight Time),235140.39999997616,2000,I,z,555,2,2,2578.399999976158,232562.0,8037,NTS,A,13
1,13,test,1,A,circle.png,1,z,Wed Aug 06 2025 17:38:10 GMT-0500 (Central Daylight Time),236889.80000001192,1000,I,z,725,1,2,1745.300000011921,235144.5,8037,NTS,A,14
8,14,test,1,A,circle.png,1,m,Wed Aug 06 2025 17:38:10 GMT-0500 (Central Daylight Time),239072.5,1600,I,m,551,7,2,2178.5,236894.0,8037,NTS,A,15
6,15,test,1,A,circle.png,1,m,Wed Aug 06 2025 17:38:10 GMT-0500 (Central Daylight Time),241538.30000001192,1900,I,m,549,5,2,2462.0,239076.30000001192,8037,NTS,A,16
1,16,test,1,A,circle.png,1,z,Wed Aug 06 2025 17:38:10 GMT-0500 (Central Daylight Time),243254.59999996424,1000,I,z,687,1,2,1712.7999999523163,241541.80000001192,8037,NTS,A,17
2,17,test,1,A,circle.png,1,z,Wed Aug 06 2025 17:38:10 GMT-0500 (Central Daylight Time),246003.80000001192,2000,I,z,723,2,2,2745.600000023842,243258.19999998808,8037,NTS,A,18
8,18,test,1,A,circle.png,1,m,Wed Aug 06 2025 17:38:10 GMT-0500 (Central Daylight Time),248219.5,1600,I,m,590,7,2,2212.300000011921,246007.19999998808,8037,NTS,A,19
9,19,test,1,A,circle.png,1,m,Wed Aug 06 2025 17:38:10 GMT-0500 (Central Daylight Time),250285.69999998808,1500,I,m,537,8,2,2062.600000023842,248223.09999996424,8037,NTS,A,20
3,20,test,1,A,circle.png,1,z,Wed Aug 06 2025 17:38:10 GMT-0500 (Central Daylight Time),252035.30000001192,1200,I,z,524,3,2,1746.1000000238419,250289.19999998808,8037,NTS,A,21
3,21,test,1,A,circle.png,1,z,Wed Aug 06 2025 17:38:10 GMT-0500 (Central Daylight Time),253851.0,1200,I,z,598,3,2,1811.9000000357628,252039.09999996424,8037,NTS,A,22
4,22,test,1,A,circle.png,1,z,Wed Aug 06 2025 17:38:10 GMT-0500 (Central Daylight Time),255667.5,1400,I,z,390,4,2,1813.300000011921,253854.19999998808,8037,NTS,A,23
3,23,test,1,A,circle.png,1,z,Wed Aug 06 2025 17:38:10 GMT-0500 (Central Daylight Time),257516.80000001192,1200,I,z,629,3,2,1845.7000000476837,255671.09999996424,8037,NTS,A,24
4,1,test,1,B,triangle.png,1,m,Wed Aug 06 2025 17:38:10 GMT-0500 (Central Daylight Time),272695.0,1000,I,m,978,12,2,1995.9000000357628,270699.09999996424,8037,NTS,A,1
9,2,test,1,B,triangle.png,1,z,Wed Aug 06 2025 17:38:10 GMT-0500 (Central Daylight Time),275544.3000000119,1900,I,z,918,16,2,2844.900000035763,272699.39999997616,8037,NTS,A,2
7,3,test,1,B,triangle.png,1,z,Wed Aug 06 2025 17:38:10 GMT-0500 (Central Daylight Time),278143.5,2000,I,z,569,6,2,2594.900000035763,275548.59999996424,8037,NTS,A,3
2,4,test,1,B,triangle.png,1,m,Wed Aug 06 2025 17:38:10 GMT-0500 (Central Daylight Time),280109.8000000119,1200,I,m,738,10,2,1962.1000000238419,278147.6999999881,8037,NTS,A,4
6,5,test,1,B,triangle.png,1,m,Wed Aug 06 2025 17:38:10 GMT-0500 (Central Daylight Time),282242.39999997616,1500,I,m,616,13,2,2129.0,280113.39999997616,8037,NTS,A,5
8,6,test,1,B,triangle.png,1,m,Wed Aug 06 2025 17:38:10 GMT-0500 (Central Daylight Time),284291.59999996424,1200,I,m,823,7,2,2045.5999999642372,282246.0,8037,NTS,A,6
3,7,test,1,B,triangle.png,1,z,Wed Aug 06 2025 17:38:10 GMT-0500 (Central Daylight Time),287041.09999996424,1600,I,z,1118,3,2,2745.699999988079,284295.39999997616,8037,NTS,A,7
1,8,test,1,B,triangle.png,1,z,Wed Aug 06 2025 17:38:10 GMT-0500 (Central Daylight Time),289540.0,1900,I,z,581,1,2,2495.400000035763,287044.59999996424,8037,NTS,A,8
2,9,test,1,B,triangle.png,1,m,Wed Aug 06 2025 17:38:10 GMT-0500 (Central Daylight Time),291906.09999996424,1700,I,m,641,2,2,2362.5,289543.59999996424,8037,NTS,A,9
1,10,test,1,B,triangle.png,1,z,Wed Aug 06 2025 17:38:10 GMT-0500 (Central Daylight Time),294065.39999997616,1400,I,z,743,9,2,2155.599999964237,291909.8000000119,8037,NTS,A,10
4,11,test,1,B,triangle.png,1,m,Wed Aug 06 2025 17:38:10 GMT-0500 (Central Daylight Time),296138.0,1500,I,m,558,4,2,2068.800000011921,294069.1999999881,8037,NTS,A,11
4,12,test,1,B,triangle.png,1,m,Wed Aug 06 2025 17:38:10 GMT-0500 (Central Daylight Time),297670.8000000119,1000,I,m,511,12,2,1528.9000000357628,296141.89999997616,8037,NTS,A,12
7,13,test,1,B,triangle.png,1,z,Wed Aug 06 2025 17:38:10 GMT-0500 (Central Daylight Time),299853.1999999881,1600,I,z,563,14,2,2178.899999976158,297674.3000000119,8037,NTS,A,13
6,14,test,1,B,triangle.png,1,m,Wed Aug 06 2025 17:38:10 GMT-0500 (Central Daylight Time),301569.39999997616,1000,I,m,684,5,2,1712.5999999642372,299856.8000000119,8037,NTS,A,14
1,15,test,1,B,triangle.png,1,z,Wed Aug 06 2025 17:38:10 GMT-0500 (Central Daylight Time),304052.09999996424,1900,I,z,564,1,2,2478.899999976158,301573.1999999881,8037,NTS,A,15
9,15,test,1,B,triangle.png,0,z,Wed Aug 06 2025 17:38:10 GMT-0500 (Central Daylight Time),306551.09999996424,1900,I,m,570,16,2,2495.199999988079,304055.89999997616,8037,NTS,A,16
3,15,test,1,B,triangle.png,0,z,Wed Aug 06 2025 17:38:10 GMT-0500 (Central Daylight Time),308900.6999999881,1600,I,m,722,3,2,2345.800000011921,306554.89999997616,8037,NTS,A,17
8,16,test,1,B,triangle.png,1,m,Wed Aug 06 2025 17:38:10 GMT-0500 (Central Daylight Time),311783.5,1700,I,m,1153,15,2,2879.100000023842,308904.39999997616,8037,NTS,A,18
6,17,test,1,B,triangle.png,1,m,Wed Aug 06 2025 17:38:10 GMT-0500 (Central Daylight Time),313732.5,1000,I,m,930,5,2,1945.699999988079,311786.8000000119,8037,NTS,A,19
6,18,test,1,B,triangle.png,1,m,Wed Aug 06 2025 17:38:10 GMT-0500 (Central Daylight Time),315931.8000000119,1500,I,m,681,13,2,2195.800000011921,313736.0,8037,NTS,A,20
3,19,test,1,B,triangle.png,1,z,Wed Aug 06 2025 17:38:10 GMT-0500 (Central Daylight Time),318547.3000000119,2000,I,z,598,11,2,2611.7000000476837,315935.59999996424,8037,NTS,A,21
8,20,test,1,B,triangle.png,1,m,Wed Aug 06 2025 17:38:10 GMT-0500 (Central Daylight Time),320930.09999996424,1700,I,m,650,15,2,2378.7999999523163,318551.3000000119,8037,NTS,A,22
9,21,test,1,B,triangle.png,1,z,Wed Aug 06 2025 17:38:10 GMT-0500 (Central Daylight Time),323146.09999996424,1400,I,z,799,8,2,2212.399999976158,320933.6999999881,8037,NTS,A,23
2,22,test,1,B,triangle.png,1,m,Wed Aug 06 2025 17:38:10 GMT-0500 (Central Daylight Time),325228.89999997616,1200,I,m,853,10,2,2079.399999976158,323149.5,8037,NTS,A,24
3,0,prac,1,C,triangle.png,0,z,Wed Aug 06 2025 17:38:10 GMT-0500 (Central Daylight Time),392424.1999999881,1500,I,None,1516,3,2,3794.0,388630.1999999881,8037,NTS,A,1
1,1,prac,1,C,circle.png,1,z,Wed Aug 06 2025 17:38:10 GMT-0500 (Central Daylight Time),395756.6999999881,1700,I,z,845,1,2,3327.100000023842,392429.59999996424,8037,NTS,A,2
9,2,prac,1,C,circle.png,1,m,Wed Aug 06 2025 17:38:10 GMT-0500 (Central Daylight Time),399289.09999996424,1900,I,m,841,8,2,3527.599999964237,395761.5,8037,NTS,A,3
7,2,prac,1,C,triangle.png,0,z,Wed Aug 06 2025 17:38:10 GMT-0500 (Central Daylight Time),402104.6999999881,1200,I,m,817,6,2,2810.699999988079,399294.0,8037,NTS,A,4
6,3,prac,1,C,circle.png,1,m,Wed Aug 06 2025 17:38:10 GMT-0500 (Central Daylight Time),406186.6999999881,2000,I,m,1289,5,2,4077.199999988079,402109.5,8037,NTS,A,5
3,4,prac,1,C,triangle.png,1,z,Wed Aug 06 2025 17:38:10 GMT-0500 (Central Daylight Time),409652.1999999881,1500,I,z,1179,3,2,3460.600000023842,406191.59999996424,8037,NTS,A,6
8,4,prac,1,C,triangle.png,0,m,Wed Aug 06 2025 17:38:10 GMT-0500 (Central Daylight Time),413301.1999999881,1400,I,z,1453,7,2,3644.0,409657.1999999881,8037,NTS,A,7
1,4,prac,1,C,circle.png,0,z,Wed Aug 06 2025 17:38:10 GMT-0500 (Central Daylight Time),417300.0,1700,I,None,1515,1,2,3993.900000035763,413306.09999996424,8037,NTS,A,8
7,4,prac,1,C,triangle.png,0,z,Wed Aug 06 2025 17:38:10 GMT-0500 (Central Daylight Time),420799.8000000119,1200,I,None,1516,6,2,3494.800000011921,417305.0,8037,NTS,A,9
2,5,prac,1,C,triangle.png,1,m,Wed Aug 06 2025 17:38:10 GMT-0500 (Central Daylight Time),424097.8000000119,1600,I,m,915,2,2,3293.0,420804.8000000119,8037,NTS,A,10
4,6,prac,1,C,circle.png,1,z,Wed Aug 06 2025 17:38:10 GMT-0500 (Central Daylight Time),426980.3000000119,1000,I,z,1096,4,2,2877.2000000476837,424103.09999996424,8037,NTS,A,11
2,6,prac,1,C,triangle.png,0,m,Wed Aug 06 2025 17:38:10 GMT-0500 (Central Daylight Time),430279.1999999881,1600,I,z,901,2,2,3294.100000023842,426985.09999996424,8037,NTS,A,12
3,0,prac,2,C,triangle.png,0,z,Wed Aug 06 2025 17:38:10 GMT-0500 (Central Daylight Time),443491.89999997616,1500,I,None,1516,3,2,3792.599999964237,439699.3000000119,8037,NTS,A,1
9,0,prac,2,C,circle.png,0,m,Wed Aug 06 2025 17:38:10 GMT-0500 (Central Daylight Time),447557.0,1900,I,z,1378,8,2,4059.600000023842,443497.39999997616,8037,NTS,A,2
6,1,prac,2,C,circle.png,1,m,Wed Aug 06 2025 17:38:10 GMT-0500 (Central Daylight Time),451406.6999999881,2000,I,m,1061,5,2,3845.100000023842,447561.59999996424,8037,NTS,A,3
4,2,prac,2,C,circle.png,1,z,Wed Aug 06 2025 17:38:10 GMT-0500 (Central Daylight Time),454338.39999997616,1000,I,z,1140,4,2,2927.0,451411.39999997616,8037,NTS,A,4
7,3,prac,2,C,triangle.png,1,z,Wed Aug 06 2025 17:38:10 GMT-0500 (Central Daylight Time),457237.3000000119,1200,I,z,903,6,2,2894.2000000476837,454343.09999996424,8037,NTS,A,5
8,3,prac,2,C,triangle.png,0,m,Wed Aug 06 2025 17:38:10 GMT-0500 (Central Daylight Time),460785.89999997616,1400,I,z,1356,7,2,3543.699999988079,457242.1999999881,8037,NTS,A,6
2,3,prac,2,C,triangle.png,0,m,Wed Aug 06 2025 17:38:10 GMT-0500 (Central Daylight Time),464635.1999999881,1600,I,z,1455,2,2,3844.5,460790.6999999881,8037,NTS,A,7
7,3,prac,2,C,triangle.png,0,z,Wed Aug 06 2025 17:38:10 GMT-0500 (Central Daylight Time),467867.5,1200,I,m,1246,6,2,3227.5,464640.0,8037,NTS,A,8
6,4,prac,2,C,circle.png,1,m,Wed Aug 06 2025 17:38:10 GMT-0500 (Central Daylight Time),471483.1999999881,2000,I,m,830,5,2,3609.100000023842,467874.09999996424,8037,NTS,A,9
8,4,prac,2,C,triangle.png,0,m,Wed Aug 06 2025 17:38:10 GMT-0500 (Central Daylight Time),475181.8000000119,1400,I,None,1516,7,2,3693.800000011921,471488.0,8037,NTS,A,10
4,4,prac,2,C,circle.png,0,z,Wed Aug 06 2025 17:38:10 GMT-0500 (Central Daylight Time),478480.8000000119,1000,I,None,1516,4,2,3293.900000035763,475186.89999997616,8037,NTS,A,11
1,4,prac,2,C,circle.png,0,z,Wed Aug 06 2025 17:38:10 GMT-0500 (Central Daylight Time),482602.5,1700,I,None,1516,1,2,4117.100000023842,478485.39999997616,8037,NTS,A,12
8,0,prac,3,C,triangle.png,0,m,Wed Aug 06 2025 17:38:10 GMT-0500 (Central Daylight Time),494958.89999997616,1400,I,None,1515,7,2,3694.699999988079,491264.1999999881,8037,NTS,A,1
4,1,prac,3,C,circle.png,1,z,Wed Aug 06 2025 17:38:10 GMT-0500 (Central Daylight Time),497858.1999999881,1000,I,z,1115,4,2,2893.899999976158,494964.3000000119,8037,NTS,A,2
7,1,prac,3,C,triangle.png,0,z,Wed Aug 06 2025 17:38:10 GMT-0500 (Central Daylight Time),501273.59999996424,1200,I,m,1432,6,2,3411.0,497862.59999996424,8037,NTS,A,3
3,2,prac,3,C,triangle.png,1,z,Wed Aug 06 2025 17:38:10 GMT-0500 (Central Daylight Time),505005.6999999881,1500,I,z,1436,3,2,3727.5,501278.1999999881,8037,NTS,A,4
3,3,prac,3,C,triangle.png,1,z,Wed Aug 06 2025 17:38:10 GMT-0500 (Central Daylight Time),508171.59999996424,1500,I,z,880,3,2,3161.099999964237,505010.5,8037,NTS,A,5
1,4,prac,3,C,circle.png,1,z,Wed Aug 06 2025 17:38:10 GMT-0500 (Central Daylight Time),511587.0,1700,I,z,922,1,2,3410.600000023842,508176.39999997616,8037,NTS,A,6
6,5,prac,3,C,circle.png,1,m,Wed Aug 06 2025 17:38:10 GMT-0500 (Central Daylight Time),515152.5,2000,I,m,783,5,2,3560.900000035763,511591.59999996424,8037,NTS,A,7
8,6,prac,3,C,triangle.png,1,m,Wed Aug 06 2025 17:38:10 GMT-0500 (Central Daylight Time),518168.3000000119,1400,I,m,825,7,2,3010.900000035763,515157.39999997616,8037,NTS,A,8
7,7,prac,3,C,triangle.png,1,z,Wed Aug 06 2025 17:38:10 GMT-0500 (Central Daylight Time),521450.59999996424,1200,I,z,1297,6,2,3275.7999999523163,518174.8000000119,8037,NTS,A,9
9,8,prac,3,C,circle.png,1,m,Wed Aug 06 2025 17:38:10 GMT-0500 (Central Daylight Time),525200.3999999762,1900,I,m,1051,8,2,3744.899999976158,521455.5,8037,NTS,A,10
2,9,prac,3,C,triangle.png,1,m,Wed Aug 06 2025 17:38:10 GMT-0500 (Central Daylight Time),528764.8999999762,1600,I,m,1178,2,2,3559.5,525205.3999999762,8037,NTS,A,11
4,10,prac,3,C,circle.png,1,z,Wed Aug 06 2025 17:38:10 GMT-0500 (Central Daylight Time),531814.0999999642,1000,I,z,1253,4,2,3044.5,528769.5999999642,8037,NTS,A,12
9,1,test,1,C,circle.png,1,m,Wed Aug 06 2025 17:38:10 GMT-0500 (Central Daylight Time),543693.5999999642,1500,I,m,1079,8,2,2596.0,541097.5999999642,8037,NTS,A,1
6,2,test,1,C,circle.png,1,m,Wed Aug 06 2025 17:38:10 GMT-0500 (Central Daylight Time),546675.8000000119,1900,I,m,1056,21,2,2978.2000000476837,543697.5999999642,8037,NTS,A,2
8,2,test,1,C,circle.png,0,m,Wed Aug 06 2025 17:38:10 GMT-0500 (Central Daylight Time),549408.1999999881,1200,I,None,1515,15,2,2728.600000023842,546679.5999999642,8037,NTS,A,3
8,3,test,1,C,triangle.png,1,m,Wed Aug 06 2025 17:38:10 GMT-0500 (Central Daylight Time),552190.8999999762,1600,I,m,1153,23,2,2779.0,549411.8999999762,8037,NTS,A,4
2,3,test,1,C,triangle.png,0,m,Wed Aug 06 2025 17:38:10 GMT-0500 (Central Daylight Time),555390.0,2000,I,z,1171,2,2,3194.400000035763,552195.5999999642,8037,NTS,A,5
3,4,test,1,C,circle.png,1,z,Wed Aug 06 2025 17:38:10 GMT-0500 (Central Daylight Time),558222.1999999881,1600,I,z,1204,11,2,2827.199999988079,555395.0,8037,NTS,A,6
2,5,test,1,C,circle.png,1,z,Wed Aug 06 2025 17:38:10 GMT-0500 (Central Daylight Time),560888.0,1700,I,z,943,18,2,2662.100000023842,558225.8999999762,8037,NTS,A,7
7,6,test,1,C,triangle.png,1,z,Wed Aug 06 2025 17:38:10 GMT-0500 (Central Daylight Time),563920.3999999762,1700,I,z,1302,6,2,3028.699999988079,560891.6999999881,8037,NTS,A,8
9,7,test,1,C,circle.png,1,m,Wed Aug 06 2025 17:38:10 GMT-0500 (Central Daylight Time),566419.6999999881,1500,I,m,981,24,2,2495.600000023842,563924.0999999642,8037,NTS,A,9
9,8,test,1,C,triangle.png,1,z,Wed Aug 06 2025 17:38:10 GMT-0500 (Central Daylight Time),569002.0999999642,1400,I,z,1158,16,2,2578.5,566423.5999999642,8037,NTS,A,10
4,9,test,1,C,circle.png,1,z,Wed Aug 06 2025 17:38:10 GMT-0500 (Central Daylight Time),571368.0999999642,1400,I,z,943,4,2,2362.2999999523163,569005.8000000119,8037,NTS,A,11
1,9,test,1,C,triangle.png,0,z,Wed Aug 06 2025 17:38:10 GMT-0500 (Central Daylight Time),574584.0,1900,I,m,1293,9,2,3212.199999988079,571371.8000000119,8037,NTS,A,12
6,9,test,1,C,triangle.png,0,m,Wed Aug 06 2025 17:38:10 GMT-0500 (Central Daylight Time),577116.3000000119,1000,I,None,1516,13,2,2528.5,574587.8000000119,8037,NTS,A,13
3,9,test,1,C,triangle.png,0,z,Wed Aug 06 2025 17:38:10 GMT-0500 (Central Daylight Time),579849.0,1200,I,None,1516,3,2,2728.600000023842,577120.3999999762,8037,NTS,A,14
7,9,test,1,C,circle.png,0,m,Wed Aug 06 2025 17:38:10 GMT-0500 (Central Daylight Time),583381.0999999642,2000,I,None,1516,14,2,3528.5,579852.5999999642,8037,NTS,A,15
8,9,test,1,C,triangle.png,0,m,Wed Aug 06 2025 17:38:10 GMT-0500 (Central Daylight Time),586513.1999999881,1600,I,None,1515,7,2,3128.600000023842,583384.5999999642,8037,NTS,A,16
7,9,test,1,C,triangle.png,0,z,Wed Aug 06 2025 17:38:10 GMT-0500 (Central Daylight Time),589745.5999999642,1700,I,None,1516,22,2,3228.7999999523163,586516.8000000119,8037,NTS,A,17
4,9,test,1,C,triangle.png,0,m,Wed Aug 06 2025 17:38:10 GMT-0500 (Central Daylight Time),592778.1999999881,1500,I,None,1516,12,2,3028.399999976158,589749.8000000119,8037,NTS,A,18
6,9,test,1,C,circle.png,0,m,Wed Aug 06 2025 17:38:10 GMT-0500 (Central Daylight Time),596210.3999999762,1900,I,None,1516,5,2,3428.5,592781.8999999762,8037,NTS,A,19
1,10,test,1,C,circle.png,1,z,Wed Aug 06 2025 17:38:10 GMT-0500 (Central Daylight Time),598359.6999999881,1000,I,z,1127,1,2,2145.699999988079,596214.0,8037,NTS,A,20
1,10,test,1,C,triangle.png,0,z,Wed Aug 06 2025 17:38:10 GMT-0500 (Central Daylight Time),601808.5999999642,1900,I,None,1503,17,2,3444.599999964237,598364.0,8037,NTS,A,21
4,10,test,1,C,triangle.png,0,m,Wed Aug 06 2025 17:38:10 GMT-0500 (Central Daylight Time),604841.1999999881,1500,I,None,1516,20,2,3028.800000011921,601812.3999999762,8037,NTS,A,22
3,10,test,1,C,circle.png,0,z,Wed Aug 06 2025 17:38:10 GMT-0500 (Central Daylight Time),607973.1999999881,1600,I,None,1516,19,2,3128.5,604844.6999999881,8037,NTS,A,23
2,10,test,1,C,circle.png,0,z,Wed Aug 06 2025 17:38:10 GMT-0500 (Central Daylight Time),611205.6999999881,1700,I,None,1516,10,2,3229.0,607976.6999999881,8037,NTS,A,24
3,0,test,2,C,circle.png,0,z,Wed Aug 06 2025 17:38:10 GMT-0500 (Central Daylight Time),618336.6999999881,1600,I,None,1516,19,2,3129.300000011921,615207.3999999762,8037,NTS,A,1
6,0,test,2,C,circle.png,0,m,Wed Aug 06 2025 17:38:10 GMT-0500 (Central Daylight Time),621769.0,1900,I,None,1516,5,2,3427.699999988079,618341.3000000119,8037,NTS,A,2
2,0,test,2,C,triangle.png,0,m,Wed Aug 06 2025 17:38:10 GMT-0500 (Central Daylight Time),625351.5,2000,I,None,1505,2,2,3578.699999988079,621772.8000000119,8037,NTS,A,3
4,0,test,2,C,triangle.png,0,m,Wed Aug 06 2025 17:38:10 GMT-0500 (Central Daylight Time),628383.5999999642,1500,I,None,1516,12,2,3028.399999976158,625355.1999999881,8037,NTS,A,4
9,0,test,2,C,triangle.png,0,z,Wed Aug 06 2025 17:38:10 GMT-0500 (Central Daylight Time),631315.8999999762,1400,I,None,1516,16,2,2928.5,628387.3999999762,8037,NTS,A,5
2,1,test,2,C,circle.png,1,z,Wed Aug 06 2025 17:38:10 GMT-0500 (Central Daylight Time),634448.5,1700,I,z,1402,10,2,3128.900000035763,631319.5999999642,8037,NTS,A,6
7,1,test,2,C,circle.png,0,m,Wed Aug 06 2025 17:38:10 GMT-0500 (Central Daylight Time),637980.5999999642,2000,I,None,1515,22,2,3528.0,634452.5999999642,8037,NTS,A,7
1,1,test,2,C,triangle.png,0,z,Wed Aug 06 2025 17:38:10 GMT-0500 (Central Daylight Time),641412.6999999881,1900,I,None,1516,9,2,3428.600000023842,637984.0999999642,8037,NTS,A,8
3,1,test,2,C,triangle.png,0,z,Wed Aug 06 2025 17:38:10 GMT-0500 (Central Daylight Time),644145.1999999881,1200,I,None,1516,3,2,2728.899999976158,641416.3000000119,8037,NTS,A,9
1,1,test,2,C,triangle.png,0,z,Wed Aug 06 2025 17:38:10 GMT-0500 (Central Daylight Time),647572.3999999762,1900,I,None,1510,17,2,3423.300000011921,644149.0999999642,8037,NTS,A,10
3,2,test,2,C,circle.png,1,z,Wed Aug 06 2025 17:38:10 GMT-0500 (Central Daylight Time),650543.0,1600,I,z,1336,11,2,2966.699999988079,647576.3000000119,8037,NTS,A,11
8,3,test,2,C,circle.png,1,m,Wed Aug 06 2025 17:38:10 GMT-0500 (Central Daylight Time),653009.0,1200,I,m,1234,23,2,2462.5,650546.5,8037,NTS,A,12
9,4,test,2,C,circle.png,1,m,Wed Aug 06 2025 17:38:10 GMT-0500 (Central Daylight Time),655741.5999999642,1500,I,m,1204,8,2,2728.899999976158,653012.6999999881,8037,NTS,A,13
7,5,test,2,C,circle.png,1,m,Wed Aug 06 2025 17:38:10 GMT-0500 (Central Daylight Time),658724.0,2000,I,m,956,14,2,2978.699999988079,655745.3000000119,8037,NTS,A,14
4,6,test,2,C,triangle.png,1,m,Wed Aug 06 2025 17:38:10 GMT-0500 (Central Daylight Time),661456.3000000119,1500,I,m,1209,20,2,2728.7000000476837,658727.5999999642,8037,NTS,A,15
7,6,test,2,C,triangle.png,0,z,Wed Aug 06 2025 17:38:10 GMT-0500 (Central Daylight Time),664688.8000000119,1700,I,None,1516,6,2,3229.100000023842,661459.6999999881,8037,NTS,A,16
4,6,test,2,C,circle.png,0,z,Wed Aug 06 2025 17:38:10 GMT-0500 (Central Daylight Time),667621.0999999642,1400,I,None,1516,4,2,2928.599999964237,664692.5,8037,NTS,A,17
8,7,test,2,C,circle.png,1,m,Wed Aug 06 2025 17:38:10 GMT-0500 (Central Daylight Time),670220.3000000119,1200,I,m,1380,15,2,2595.5,667624.8000000119,8037,NTS,A,18
6,8,test,2,C,triangle.png,1,m,Wed Aug 06 2025 17:38:10 GMT-0500 (Central Daylight Time),672603.0,1000,I,m,1357,13,2,2378.800000011921,670224.1999999881,8037,NTS,A,19
2,9,test,2,C,circle.png,1,z,Wed Aug 06 2025 17:38:10 GMT-0500 (Central Daylight Time),675585.5999999642,1700,I,z,1251,18,2,2978.899999976158,672606.6999999881,8037,NTS,A,20
9,10,test,2,C,triangle.png,1,z,Wed Aug 06 2025 17:38:10 GMT-0500 (Central Daylight Time),678351.0999999642,1400,I,z,1344,24,2,2761.699999988079,675589.3999999762,8037,NTS,A,21
1,11,test,2,C,circle.png,1,z,Wed Aug 06 2025 17:38:10 GMT-0500 (Central Daylight Time),680483.8999999762,1000,I,z,1114,1,2,2128.399999976158,678355.5,8037,NTS,A,22
6,11,test,2,C,triangle.png,0,m,Wed Aug 06 2025 17:38:10 GMT-0500 (Central Daylight Time),682883.0,1000,I,z,1374,21,2,2394.900000035763,680488.0999999642,8037,NTS,A,23
8,11,test,2,C,triangle.png,0,m,Wed Aug 06 2025 17:38:10 GMT-0500 (Central Daylight Time),686015.3999999762,1600,I,None,1515,7,2,3128.699999988079,682886.6999999881,8037,NTS,A,24
8,1,test,3,C,circle.png,1,m,Wed Aug 06 2025 17:38:10 GMT-0500 (Central Daylight Time),692730.1999999881,1200,I,m,1233,15,2,2446.300000011921,690283.8999999762,8037,NTS,A,1
2,2,test,3,C,triangle.png,1,m,Wed Aug 06 2025 17:38:10 GMT-0500 (Central Daylight Time),696245.3999999762,2000,I,m,1488,2,2,3511.199999988079,692734.1999999881,8037,NTS,A,2
9,3,test,3,C,circle.png,1,m,Wed Aug 06 2025 17:38:10 GMT-0500 (Central Daylight Time),698978.1999999881,1500,I,m,1200,24,2,2728.5,696249.6999999881,8037,NTS,A,3
4,4,test,3,C,circle.png,1,z,Wed Aug 06 2025 17:38:10 GMT-0500 (Central Daylight Time),701477.0999999642,1400,I,z,1080,4,2,2494.7999999523163,698982.3000000119,8037,NTS,A,4
1,5,test,3,C,circle.png,1,z,Wed Aug 06 2025 17:38:10 GMT-0500 (Central Daylight Time),703776.5999999642,1000,I,z,1276,1,2,2295.899999976158,701480.6999999881,8037,NTS,A,5
3,5,test,3,C,triangle.png,0,z,Wed Aug 06 2025 17:38:10 GMT-0500 (Central Daylight Time),706508.8999999762,1200,I,None,1516,3,2,2728.599999964237,703780.3000000119,8037,NTS,A,6
1,5,test,3,C,triangle.png,0,z,Wed Aug 06 2025 17:38:10 GMT-0500 (Central Daylight Time),709474.6999999881,1900,I,m,1041,9,2,2962.199999988079,706512.5,8037,NTS,A,7
7,6,test,3,C,circle.png,1,m,Wed Aug 06 2025 17:38:10 GMT-0500 (Central Daylight Time),712506.8999999762,2000,I,m,1015,14,2,3028.599999964237,709478.3000000119,8037,NTS,A,8
6,6,test,3,C,triangle.png,0,m,Wed Aug 06 2025 17:38:10 GMT-0500 (Central Daylight Time),715039.6999999881,1000,I,None,1516,13,2,2529.300000011921,712510.3999999762,8037,NTS,A,9
2,7,test,3,C,circle.png,1,z,Wed Aug 06 2025 17:38:10 GMT-0500 (Central Daylight Time),717888.8000000119,1700,I,z,1118,10,2,2845.400000035763,715043.3999999762,8037,NTS,A,10
7,8,test,3,C,triangle.png,1,z,Wed Aug 06 2025 17:38:10 GMT-0500 (Central Daylight Time),720971.1999999881,1700,I,z,1357,6,2,3077.699999988079,717893.5,8037,NTS,A,11
3,8,test,3,C,circle.png,0,z,Wed Aug 06 2025 17:38:10 GMT-0500 (Central Daylight Time),724103.5,1600,I,None,1516,11,2,3128.600000023842,720974.8999999762,8037,NTS,A,12
1,8,test,3,C,circle.png,0,z,Wed Aug 06 2025 17:38:10 GMT-0500 (Central Daylight Time),726636.0999999642,1000,I,None,1516,17,2,2528.7999999523163,724107.3000000119,8037,NTS,A,13
2,8,test,3,C,triangle.png,0,m,Wed Aug 06 2025 17:38:10 GMT-0500 (Central Daylight Time),730168.3000000119,2000,I,None,1516,18,2,3528.0,726640.3000000119,8037,NTS,A,14
8,9,test,3,C,triangle.png,1,m,Wed Aug 06 2025 17:38:10 GMT-0500 (Central Daylight Time),732884.0,1600,I,m,1097,7,2,2711.900000035763,730172.0999999642,8037,NTS,A,15
8,10,test,3,C,triangle.png,1,m,Wed Aug 06 2025 17:38:10 GMT-0500 (Central Daylight Time),735583.3000000119,1600,I,m,1077,23,2,2695.2000000476837,732888.0999999642,8037,NTS,A,16
3,11,test,3,C,triangle.png,1,z,Wed Aug 06 2025 17:38:10 GMT-0500 (Central Daylight Time),738032.3000000119,1200,I,z,1218,19,2,2445.400000035763,735586.8999999762,8037,NTS,A,17
6,12,test,3,C,circle.png,1,m,Wed Aug 06 2025 17:38:10 GMT-0500 (Central Daylight Time),740898.0,1900,I,m,941,21,2,2861.900000035763,738036.0999999642,8037,NTS,A,18
9,13,test,3,C,triangle.png,1,z,Wed Aug 06 2025 17:38:10 GMT-0500 (Central Daylight Time),743514.1999999881,1400,I,z,1183,16,2,2612.100000023842,740902.0999999642,8037,NTS,A,19
6,14,test,3,C,circle.png,1,m,Wed Aug 06 2025 17:38:10 GMT-0500 (Central Daylight Time),746679.8000000119,1900,I,m,1244,5,2,3162.100000023842,743517.6999999881,8037,NTS,A,20
4,15,test,3,C,triangle.png,1,m,Wed Aug 06 2025 17:38:10 GMT-0500 (Central Daylight Time),749312.0999999642,1500,I,m,1110,12,2,2628.699999988079,746683.3999999762,8037,NTS,A,21
9,16,test,3,C,circle.png,1,m,Wed Aug 06 2025 17:38:10 GMT-0500 (Central Daylight Time),751978.1999999881,1500,I,m,1141,8,2,2662.199999988079,749316.0,8037,NTS,A,22
7,16,test,3,C,triangle.png,0,z,Wed Aug 06 2025 17:38:10 GMT-0500 (Central Daylight Time),755210.1999999881,1700,I,None,1516,22,2,3228.199999988079,751982.0,8037,NTS,A,23
4,16,test,3,C,circle.png,0,z,Wed Aug 06 2025 17:38:10 GMT-0500 (Central Daylight Time),758143.0,1400,I,None,1516,20,2,2929.199999988079,755213.8000000119,8037,NTS,A,24
7,1,test,4,C,circle.png,1,m,Wed Aug 06 2025 17:38:10 GMT-0500 (Central Daylight Time),763807.6999999881,2000,I,m,911,14,2,2929.699999988079,760878.0,8037,NTS,A,1
7,2,test,4,C,triangle.png,1,z,Wed Aug 06 2025 17:38:10 GMT-0500 (Central Daylight Time),766973.1999999881,1700,I,z,1438,6,2,3161.600000023842,763811.5999999642,8037,NTS,A,2
6,3,test,4,C,circle.png,1,m,Wed Aug 06 2025 17:38:10 GMT-0500 (Central Daylight Time),769872.3000000119,1900,I,m,968,21,2,2895.7000000476837,766976.5999999642,8037,NTS,A,3
3,4,test,4,C,circle.png,1,z,Wed Aug 06 2025 17:38:10 GMT-0500 (Central Daylight Time),772688.3000000119,1600,I,z,1185,11,2,2812.300000011921,769876.0,8037,NTS,A,4
2,5,test,4,C,triangle.png,1,m,Wed Aug 06 2025 17:38:10 GMT-0500 (Central Daylight Time),776120.5,2000,I,m,1401,18,2,3428.5,772692.0,8037,NTS,A,5
6,6,test,4,C,circle.png,1,m,Wed Aug 06 2025 17:38:10 GMT-0500 (Central Daylight Time),778952.8999999762,1900,I,m,909,5,2,2828.699999988079,776124.1999999881,8037,NTS,A,6
2,6,test,4,C,triangle.png,0,m,Wed Aug 06 2025 17:38:10 GMT-0500 (Central Daylight Time),782485.3999999762,2000,I,None,1516,2,2,3528.899999976158,778956.5,8037,NTS,A,7
8,7,test,4,C,circle.png,1,m,Wed Aug 06 2025 17:38:10 GMT-0500 (Central Daylight Time),784784.5,1200,I,m,1069,15,2,2295.699999988079,782488.8000000119,8037,NTS,A,8
3,7,test,4,C,triangle.png,0,z,Wed Aug 06 2025 17:38:10 GMT-0500 (Central Daylight Time),787516.8000000119,1200,I,None,1516,3,2,2728.7000000476837,784788.0999999642,8037,NTS,A,9
7,8,test,4,C,triangle.png,1,z,Wed Aug 06 2025 17:38:10 GMT-0500 (Central Daylight Time),790415.8999999762,1700,I,z,1169,22,2,2895.199999988079,787520.6999999881,8037,NTS,A,10
4,9,test,4,C,triangle.png,1,m,Wed Aug 06 2025 17:38:10 GMT-0500 (Central Daylight Time),792998.3999999762,1500,I,m,1062,12,2,2578.800000011921,790419.5999999642,8037,NTS,A,11
4,10,test,4,C,circle.png,1,z,Wed Aug 06 2025 17:38:10 GMT-0500 (Central Daylight Time),795565.1999999881,1400,I,z,1139,20,2,2562.800000011921,793002.3999999762,8037,NTS,A,12
9,10,test,4,C,triangle.png,0,z,Wed Aug 06 2025 17:38:10 GMT-0500 (Central Daylight Time),797946.8000000119,1400,I,m,957,16,2,2377.900000035763,795568.8999999762,8037,NTS,A,13
6,11,test,4,C,triangle.png,1,m,Wed Aug 06 2025 17:38:10 GMT-0500 (Central Daylight Time),800346.1999999881,1000,I,m,1366,13,2,2395.699999988079,797950.5,8037,NTS,A,14
8,12,test,4,C,triangle.png,1,m,Wed Aug 06 2025 17:38:10 GMT-0500 (Central Daylight Time),802828.8000000119,1600,I,m,855,7,2,2478.900000035763,800349.8999999762,8037,NTS,A,15
1,13,test,4,C,circle.png,1,z,Wed Aug 06 2025 17:38:10 GMT-0500 (Central Daylight Time),805078.1999999881,1000,I,z,1221,1,2,2245.399999976158,802832.8000000119,8037,NTS,A,16
1,14,test,4,C,triangle.png,1,z,Wed Aug 06 2025 17:38:10 GMT-0500 (Central Daylight Time),808193.8000000119,1900,I,z,1192,9,2,3112.100000023842,805081.6999999881,8037,NTS,A,17
9,15,test,4,C,circle.png,1,m,Wed Aug 06 2025 17:38:10 GMT-0500 (Central Daylight Time),810792.6999999881,1500,I,m,1076,24,2,2594.800000011921,808197.8999999762,8037,NTS,A,18
1,15,test,4,C,circle.png,0,z,Wed Aug 06 2025 17:38:10 GMT-0500 (Central Daylight Time),813325.5,1000,I,None,1516,17,2,2529.199999988079,810796.3000000119,8037,NTS,A,19
4,16,test,4,C,circle.png,1,z,Wed Aug 06 2025 17:38:10 GMT-0500 (Central Daylight Time),816191.0999999642,1400,I,z,1435,4,2,2862.099999964237,813329.0,8037,NTS,A,20
8,17,test,4,C,triangle.png,1,m,Wed Aug 06 2025 17:38:10 GMT-0500 (Central Daylight Time),818690.3999999762,1600,I,m,866,23,2,2495.599999964237,816194.8000000119,8037,NTS,A,21
2,18,test,4,C,circle.png,1,z,Wed Aug 06 2025 17:38:10 GMT-0500 (Central Daylight Time),821689.5999999642,1700,I,z,1275,10,2,2995.2999999523163,818694.3000000119,8037,NTS,A,22
3,19,test,4,C,triangle.png,1,z,Wed Aug 06 2025 17:38:10 GMT-0500 (Central Daylight Time),824155.0999999642,1200,I,z,1240,19,2,2461.899999976158,821693.1999999881,8037,NTS,A,23
9,20,test,4,C,circle.png,1,m,Wed Aug 06 2025 17:38:10 GMT-0500 (Central Daylight Time),826854.8000000119,1500,I,m,1170,8,2,2696.0,824158.8000000119,8037,NTS,A,24
