Number,acc_sum,block,block_c,block_cond,con_img,correct,correct_response,datetime,endtime,jitter,project,response,response_time,row_sel,session_number,start_end,starttime,subject_id,task,task_vers,trial
9,1,prac,1,A,circle.png,1,m,Tue Dec 30 2025 17:51:59 GMT-0600 (Central Standard Time),41072.09999996424,1500,I,m,981,8,3,3260.099999964237,37812.0,8037,NTS,C,1
4,2,prac,1,A,circle.png,1,z,Tue Dec 30 2025 17:51:59 GMT-0600 (Central Standard Time),44055.39999997616,1400,I,z,792,4,3,2975.300000011921,41080.09999996424,8037,NTS,C,2
7,3,prac,1,A,circle.png,1,m,Tue Dec 30 2025 17:51:59 GMT-0600 (Central Standard Time),47337.0,1700,I,m,797,6,3,3276.400000035763,44060.59999996424,8037,NTS,C,3
7,4,prac,1,A,circle.png,1,m,Tue Dec 30 2025 17:51:59 GMT-0600 (Central Standard Time),50602.80000001192,1700,I,m,779,6,3,3260.600000023842,47342.19999998808,8037,NTS,C,4
8,5,prac,1,A,circle.png,1,m,Tue Dec 30 2025 17:51:59 GMT-0600 (Central Standard Time),53635.09999996424,1600,I,m,646,7,3,3026.699999988079,50608.39999997616,8037,NTS,C,5
1,6,prac,1,A,circle.png,1,z,Tue Dec 30 2025 17:51:59 GMT-0600 (Central Standard Time),55967.30000001192,1000,I,z,534,1,3,2325.900000035763,53641.39999997616,8037,NTS,C,6
6,7,prac,1,A,circle.png,1,m,Tue Dec 30 2025 17:51:59 GMT-0600 (Central Standard Time),59183.0,1900,I,m,532,5,3,3210.199999988079,55972.80000001192,8037,NTS,C,7
9,8,prac,1,A,circle.png,1,m,Tue Dec 30 2025 17:51:59 GMT-0600 (Central Standard Time),62065.69999998808,1500,I,m,597,8,3,2877.399999976158,59188.30000001192,8037,NTS,C,8
2,9,prac,1,A,circle.png,1,z,Tue Dec 30 2025 17:51:59 GMT-0600 (Central Standard Time),65414.30000001192,2000,I,z,559,2,3,3342.600000023842,62071.69999998808,8037,NTS,C,9
8,10,prac,1,A,circle.png,1,m,Tue Dec 30 2025 17:51:59 GMT-0600 (Central Standard Time),68396.89999997616,1600,I,m,594,7,3,2977.099999964237,65419.80000001192,8037,NTS,C,10
1,11,prac,1,A,circle.png,1,z,Tue Dec 30 2025 17:51:59 GMT-0600 (Central Standard Time),70830.69999998808,1000,I,z,635,1,3,2428.800000011921,68401.89999997616,8037,NTS,C,11
3,12,prac,1,A,circle.png,1,z,Tue Dec 30 2025 17:51:59 GMT-0600 (Central Standard Time),73362.19999998808,1200,I,z,538,3,3,2526.199999988079,70836.0,8037,NTS,C,12
1,1,prac,1,B,triangle.png,1,z,Tue Dec 30 2025 17:51:59 GMT-0600 (Central Standard Time),93222.5,1900,I,z,950,1,3,3643.900000035763,89578.59999996424,8037,NTS,C,1
9,1,prac,1,B,triangle.png,0,z,Tue Dec 30 2025 17:51:59 GMT-0600 (Central Standard Time),96338.09999996424,1400,I,m,929,8,3,3110.199999988079,93227.89999997616,8037,NTS,C,2
3,2,prac,1,B,triangle.png,1,z,Tue Dec 30 2025 17:51:59 GMT-0600 (Central Standard Time),99753.89999997616,1600,I,z,1031,3,3,3410.899999976158,96343.0,8037,NTS,C,3
4,3,prac,1,B,triangle.png,1,m,Tue Dec 30 2025 17:51:59 GMT-0600 (Central Standard Time),102886.09999996424,1500,I,m,834,4,3,3127.0,99759.09999996424,8037,NTS,C,4
6,4,prac,1,B,triangle.png,1,m,Tue Dec 30 2025 17:51:59 GMT-0600 (Central Standard Time),105651.80000001192,1000,I,m,977,5,3,2760.600000023842,102891.19999998808,8037,NTS,C,5
4,5,prac,1,B,triangle.png,1,m,Tue Dec 30 2025 17:51:59 GMT-0600 (Central Standard Time),108601.09999996424,1500,I,m,664,4,3,2944.0,105657.09999996424,8037,NTS,C,6
8,6,prac,1,B,triangle.png,1,m,Tue Dec 30 2025 17:51:59 GMT-0600 (Central Standard Time),111183.59999996424,1200,I,m,592,7,3,2577.699999988079,108605.89999997616,8037,NTS,C,7
2,7,prac,1,B,triangle.png,1,m,Tue Dec 30 2025 17:51:59 GMT-0600 (Central Standard Time),114415.80000001192,1700,I,m,733,2,3,3227.0,111188.80000001192,8037,NTS,C,8
7,8,prac,1,B,triangle.png,1,z,Tue Dec 30 2025 17:51:59 GMT-0600 (Central Standard Time),118281.19999998808,2000,I,z,1072,6,3,3860.600000023842,114420.59999996424,8037,NTS,C,9
2,9,prac,1,B,triangle.png,1,m,Tue Dec 30 2025 17:51:59 GMT-0600 (Central Standard Time),121680.5,1700,I,m,907,2,3,3394.199999988079,118286.30000001192,8037,NTS,C,10
3,10,prac,1,B,triangle.png,1,z,Tue Dec 30 2025 17:51:59 GMT-0600 (Central Standard Time),125029.30000001192,1600,I,z,952,3,3,3343.900000035763,121685.39999997616,8037,NTS,C,11
6,11,prac,1,B,triangle.png,1,m,Tue Dec 30 2025 17:51:59 GMT-0600 (Central Standard Time),127528.39999997616,1000,I,m,714,5,3,2492.899999976158,125035.5,8037,NTS,C,12
6,1,test,1,A,circle.png,1,m,Tue Dec 30 2025 17:51:59 GMT-0600 (Central Standard Time),145434.39999997616,1900,I,m,794,5,3,2705.699999988079,142728.69999998808,8037,NTS,C,1
9,2,test,1,A,circle.png,1,m,Tue Dec 30 2025 17:51:59 GMT-0600 (Central Standard Time),147655.39999997616,1500,I,m,693,8,3,2216.399999976158,145439.0,8037,NTS,C,2
2,3,test,1,A,circle.png,1,z,Tue Dec 30 2025 17:51:59 GMT-0600 (Central Standard Time),150337.59999996424,2000,I,z,665,2,3,2678.599999964237,147659.0,8037,NTS,C,3
2,4,test,1,A,circle.png,1,z,Tue Dec 30 2025 17:51:59 GMT-0600 (Central Standard Time),153020.39999997616,2000,I,z,664,2,3,2679.300000011921,150341.09999996424,8037,NTS,C,4
8,5,test,1,A,circle.png,1,m,Tue Dec 30 2025 17:51:59 GMT-0600 (Central Standard Time),155319.69999998808,1600,I,m,676,7,3,2295.5,153024.19999998808,8037,NTS,C,5
4,6,test,1,A,circle.png,1,z,Tue Dec 30 2025 17:51:59 GMT-0600 (Central Standard Time),157669.09999996424,1400,I,z,919,4,3,2345.7999999523163,155323.30000001192,8037,NTS,C,6
7,7,test,1,A,circle.png,1,m,Tue Dec 30 2025 17:51:59 GMT-0600 (Central Standard Time),160184.80000001192,1700,I,m,790,6,3,2511.800000011921,157673.0,8037,NTS,C,7
4,8,test,1,A,circle.png,1,z,Tue Dec 30 2025 17:51:59 GMT-0600 (Central Standard Time),162451.19999998808,1400,I,z,839,4,3,2262.800000011921,160188.39999997616,8037,NTS,C,8
3,9,test,1,A,circle.png,1,z,Tue Dec 30 2025 17:51:59 GMT-0600 (Central Standard Time),164333.80000001192,1200,I,z,654,3,3,1879.0,162454.80000001192,8037,NTS,C,9
7,10,test,1,A,circle.png,1,m,Tue Dec 30 2025 17:51:59 GMT-0600 (Central Standard Time),166782.59999996424,1700,I,m,717,6,3,2445.099999964237,164337.5,8037,NTS,C,10
2,11,test,1,A,circle.png,1,z,Tue Dec 30 2025 17:51:59 GMT-0600 (Central Standard Time),169964.80000001192,2000,I,z,1162,2,3,3178.7000000476837,166786.09999996424,8037,NTS,C,11
8,12,test,1,A,circle.png,1,m,Tue Dec 30 2025 17:51:59 GMT-0600 (Central Standard Time),172280.89999997616,1600,I,m,699,7,3,2312.099999964237,169968.80000001192,8037,NTS,C,12
1,13,test,1,A,circle.png,1,z,Tue Dec 30 2025 17:51:59 GMT-0600 (Central Standard Time),174147.09999996424,1000,I,z,847,1,3,1862.5999999642372,172284.5,8037,NTS,C,13
9,14,test,1,A,circle.png,1,m,Tue Dec 30 2025 17:51:59 GMT-0600 (Central Standard Time),176363.0,1500,I,m,697,8,3,2212.100000023842,174150.89999997616,8037,NTS,C,14
7,15,test,1,A,circle.png,1,m,Tue Dec 30 2025 17:51:59 GMT-0600 (Central Standard Time),179145.30000001192,1700,I,m,1065,6,3,2778.5,176366.80000001192,8037,NTS,C,15
3,16,test,1,A,circle.png,1,z,Tue Dec 30 2025 17:51:59 GMT-0600 (Central Standard Time),180961.59999996424,1200,I,z,598,3,3,1812.8999999761581,179148.69999998808,8037,NTS,C,16
6,17,test,1,A,circle.png,1,m,Tue Dec 30 2025 17:51:59 GMT-0600 (Central Standard Time),183610.59999996424,1900,I,m,723,5,3,2644.899999976158,180965.69999998808,8037,NTS,C,17
8,18,test,1,A,circle.png,1,m,Tue Dec 30 2025 17:51:59 GMT-0600 (Central Standard Time),185910.39999997616,1600,I,m,669,7,3,2295.899999976158,183614.5,8037,NTS,C,18
1,19,test,1,A,circle.png,1,z,Tue Dec 30 2025 17:51:59 GMT-0600 (Central Standard Time),187592.69999998808,1000,I,z,658,1,3,1678.6000000238419,185914.09999996424,8037,NTS,C,19
7,20,test,1,A,circle.png,1,m,Tue Dec 30 2025 17:51:59 GMT-0600 (Central Standard Time),189808.89999997616,1700,I,m,491,6,3,2212.599999964237,187596.30000001192,8037,NTS,C,20
1,21,test,1,A,circle.png,1,z,Tue Dec 30 2025 17:51:59 GMT-0600 (Central Standard Time),191625.0,1000,I,z,784,1,3,1812.6000000238419,189812.39999997616,8037,NTS,C,21
6,22,test,1,A,circle.png,1,m,Tue Dec 30 2025 17:51:59 GMT-0600 (Central Standard Time),194040.89999997616,1900,I,m,490,5,3,2412.300000011921,191628.59999996424,8037,NTS,C,22
2,23,test,1,A,circle.png,1,z,Tue Dec 30 2025 17:51:59 GMT-0600 (Central Standard Time),196656.69999998808,2000,I,z,599,2,3,2612.199999988079,194044.5,8037,NTS,C,23
6,24,test,1,A,circle.png,1,m,Tue Dec 30 2025 17:51:59 GMT-0600 (Central Standard Time),199039.19999998808,1900,I,m,451,5,3,2379.0,196660.19999998808,8037,NTS,C,24
9,0,test,1,B,triangle.png,0,z,Tue Dec 30 2025 17:51:59 GMT-0600 (Central Standard Time),211385.09999996424,1400,I,m,598,8,3,2012.7999999523163,209372.30000001192,8037,NTS,C,1
1,1,test,1,B,triangle.png,1,z,Tue Dec 30 2025 17:51:59 GMT-0600 (Central Standard Time),213584.80000001192,1400,I,z,766,9,3,2195.7000000476837,211389.09999996424,8037,NTS,C,2
7,2,test,1,B,triangle.png,1,z,Tue Dec 30 2025 17:51:59 GMT-0600 (Central Standard Time),216616.80000001192,2000,I,z,1015,6,3,3028.400000035763,213588.39999997616,8037,NTS,C,3
7,3,test,1,B,triangle.png,1,z,Tue Dec 30 2025 17:51:59 GMT-0600 (Central Standard Time),218733.0,1600,I,z,488,14,3,2112.600000023842,216620.39999997616,8037,NTS,C,4
4,4,test,1,B,triangle.png,1,m,Tue Dec 30 2025 17:51:59 GMT-0600 (Central Standard Time),221032.39999997616,1500,I,m,775,4,3,2295.699999988079,218736.69999998808,8037,NTS,C,5
4,5,test,1,B,triangle.png,1,m,Tue Dec 30 2025 17:51:59 GMT-0600 (Central Standard Time),222715.30000001192,1000,I,m,664,12,3,1679.300000011921,221036.0,8037,NTS,C,6
8,6,test,1,B,triangle.png,1,m,Tue Dec 30 2025 17:51:59 GMT-0600 (Central Standard Time),225131.19999998808,1700,I,m,697,15,3,2412.399999976158,222718.80000001192,8037,NTS,C,7
1,7,test,1,B,triangle.png,1,z,Tue Dec 30 2025 17:51:59 GMT-0600 (Central Standard Time),227097.19999998808,1400,I,z,541,9,3,1962.5,225134.69999998808,8037,NTS,C,8
6,8,test,1,B,triangle.png,1,m,Tue Dec 30 2025 17:51:59 GMT-0600 (Central Standard Time),228896.5,1000,I,m,766,5,3,1795.800000011921,227100.69999998808,8037,NTS,C,9
9,9,test,1,B,triangle.png,1,z,Tue Dec 30 2025 17:51:59 GMT-0600 (Central Standard Time),231312.69999998808,1400,I,z,999,8,3,2412.199999988079,228900.5,8037,NTS,C,10
9,10,test,1,B,triangle.png,1,z,Tue Dec 30 2025 17:51:59 GMT-0600 (Central Standard Time),233778.39999997616,1900,I,z,548,16,3,2462.199999988079,231316.19999998808,8037,NTS,C,11
8,11,test,1,B,triangle.png,1,m,Tue Dec 30 2025 17:51:59 GMT-0600 (Central Standard Time),235627.69999998808,1200,I,m,622,7,3,1845.3999999761581,233782.30000001192,8037,NTS,C,12
3,12,test,1,B,triangle.png,1,z,Tue Dec 30 2025 17:51:59 GMT-0600 (Central Standard Time),237977.19999998808,1600,I,z,725,3,3,2345.600000023842,235631.59999996424,8037,NTS,C,13
6,13,test,1,B,triangle.png,1,m,Tue Dec 30 2025 17:51:59 GMT-0600 (Central Standard Time),239906.80000001192,1000,I,m,913,5,3,1926.0,237980.80000001192,8037,NTS,C,14
2,13,test,1,B,triangle.png,0,m,Tue Dec 30 2025 17:51:59 GMT-0600 (Central Standard Time),241792.89999997616,1200,I,z,651,10,3,1881.8999999761581,239911.0,8037,NTS,C,15
1,14,test,1,B,triangle.png,1,z,Tue Dec 30 2025 17:51:59 GMT-0600 (Central Standard Time),244425.0,1900,I,z,708,1,3,2628.400000035763,241796.59999996424,8037,NTS,C,16
3,15,test,1,B,triangle.png,1,z,Tue Dec 30 2025 17:51:59 GMT-0600 (Central Standard Time),247440.59999996424,2000,I,z,1000,11,3,3011.699999988079,244428.89999997616,8037,NTS,C,17
9,15,test,1,B,triangle.png,0,z,Tue Dec 30 2025 17:51:59 GMT-0600 (Central Standard Time),250073.09999996424,1900,I,m,716,16,3,2628.5,247444.59999996424,8037,NTS,C,18
3,16,test,1,B,triangle.png,1,z,Tue Dec 30 2025 17:51:59 GMT-0600 (Central Standard Time),252605.80000001192,2000,I,z,511,11,3,2529.2000000476837,250076.59999996424,8037,NTS,C,19
2,17,test,1,B,triangle.png,1,m,Tue Dec 30 2025 17:51:59 GMT-0600 (Central Standard Time),254971.80000001192,1700,I,m,639,2,3,2362.5,252609.30000001192,8037,NTS,C,20
1,18,test,1,B,triangle.png,1,z,Tue Dec 30 2025 17:51:59 GMT-0600 (Central Standard Time),257470.80000001192,1900,I,z,577,1,3,2495.2000000476837,254975.59999996424,8037,NTS,C,21
8,19,test,1,B,triangle.png,1,m,Tue Dec 30 2025 17:51:59 GMT-0600 (Central Standard Time),259437.09999996424,1200,I,m,737,7,3,1962.5999999642372,257474.5,8037,NTS,C,22
6,20,test,1,B,triangle.png,1,m,Tue Dec 30 2025 17:51:59 GMT-0600 (Central Standard Time),261786.30000001192,1500,I,m,823,13,3,2345.7000000476837,259440.59999996424,8037,NTS,C,23
6,21,test,1,B,triangle.png,1,m,Tue Dec 30 2025 17:51:59 GMT-0600 (Central Standard Time),263885.59999996424,1500,I,m,556,13,3,2095.699999988079,261789.89999997616,8037,NTS,C,24
1,1,prac,1,C,circle.png,1,z,Tue Dec 30 2025 17:51:59 GMT-0600 (Central Standard Time),292309.89999997616,1700,I,z,1176,1,3,3660.5,288649.39999997616,8037,NTS,C,1
9,1,prac,1,C,circle.png,0,m,Tue Dec 30 2025 17:51:59 GMT-0600 (Central Standard Time),296058.6999999881,1900,I,z,1054,8,3,3743.899999976158,292314.8000000119,8037,NTS,C,2
8,2,prac,1,C,triangle.png,1,m,Tue Dec 30 2025 17:51:59 GMT-0600 (Central Standard Time),299474.59999996424,1400,I,m,1222,7,3,3411.099999964237,296063.5,8037,NTS,C,3
6,3,prac,1,C,circle.png,1,m,Tue Dec 30 2025 17:51:59 GMT-0600 (Central Standard Time),303240.0,2000,I,m,981,5,3,3759.600000023842,299480.39999997616,8037,NTS,C,4
8,4,prac,1,C,triangle.png,1,m,Tue Dec 30 2025 17:51:59 GMT-0600 (Central Standard Time),306406.59999996424,1400,I,m,992,7,3,3161.199999988079,303245.39999997616,8037,NTS,C,5
3,5,prac,1,C,triangle.png,1,z,Tue Dec 30 2025 17:51:59 GMT-0600 (Central Standard Time),309921.3000000119,1500,I,z,1230,3,3,3509.900000035763,306411.39999997616,8037,NTS,C,6
4,6,prac,1,C,circle.png,1,z,Tue Dec 30 2025 17:51:59 GMT-0600 (Central Standard Time),312753.5,1000,I,z,1039,4,3,2826.600000023842,309926.89999997616,8037,NTS,C,7
7,6,prac,1,C,triangle.png,0,z,Tue Dec 30 2025 17:51:59 GMT-0600 (Central Standard Time),315837.1999999881,1200,I,m,1087,6,3,3078.800000011921,312758.39999997616,8037,NTS,C,8
3,6,prac,1,C,triangle.png,0,z,Tue Dec 30 2025 17:51:59 GMT-0600 (Central Standard Time),319534.89999997616,1500,I,m,1416,3,3,3692.5,315842.39999997616,8037,NTS,C,9
7,7,prac,1,C,triangle.png,1,z,Tue Dec 30 2025 17:51:59 GMT-0600 (Central Standard Time),322850.89999997616,1200,I,z,1330,6,3,3311.0,319539.89999997616,8037,NTS,C,10
9,8,prac,1,C,circle.png,1,m,Tue Dec 30 2025 17:51:59 GMT-0600 (Central Standard Time),326566.0,1900,I,m,1018,8,3,3710.300000011921,322855.6999999881,8037,NTS,C,11
2,8,prac,1,C,triangle.png,0,m,Tue Dec 30 2025 17:51:59 GMT-0600 (Central Standard Time),330464.6999999881,1600,I,None,1516,2,3,3893.800000011921,326570.89999997616,8037,NTS,C,12
2,1,test,1,C,circle.png,1,z,Tue Dec 30 2025 17:51:59 GMT-0600 (Central Standard Time),348908.8000000119,1700,I,z,1120,10,3,2845.600000023842,346063.1999999881,8037,NTS,C,1
2,2,test,1,C,circle.png,1,z,Tue Dec 30 2025 17:51:59 GMT-0600 (Central Standard Time),351308.1999999881,1700,I,z,672,18,3,2394.800000011921,348913.39999997616,8037,NTS,C,2
7,3,test,1,C,triangle.png,1,z,Tue Dec 30 2025 17:51:59 GMT-0600 (Central Standard Time),354057.39999997616,1700,I,z,1024,22,3,2745.599999964237,351311.8000000119,8037,NTS,C,3
6,4,test,1,C,circle.png,1,m,Tue Dec 30 2025 17:51:59 GMT-0600 (Central Standard Time),357056.3000000119,1900,I,m,1067,21,3,2995.400000035763,354060.89999997616,8037,NTS,C,4
8,5,test,1,C,circle.png,1,m,Tue Dec 30 2025 17:51:59 GMT-0600 (Central Standard Time),359022.0,1200,I,m,743,15,3,1961.800000011921,357060.1999999881,8037,NTS,C,5
1,5,test,1,C,triangle.png,0,z,Tue Dec 30 2025 17:51:59 GMT-0600 (Central Standard Time),362038.09999996424,1900,I,m,1094,17,3,3012.0,359026.09999996424,8037,NTS,C,6
2,5,test,1,C,triangle.png,0,m,Tue Dec 30 2025 17:51:59 GMT-0600 (Central Standard Time),365170.39999997616,2000,I,z,1115,2,3,3128.599999964237,362041.8000000119,8037,NTS,C,7
4,6,test,1,C,triangle.png,1,m,Tue Dec 30 2025 17:51:59 GMT-0600 (Central Standard Time),367603.09999996424,1500,I,m,906,20,3,2429.199999988079,365173.89999997616,8037,NTS,C,8
8,7,test,1,C,triangle.png,1,m,Tue Dec 30 2025 17:51:59 GMT-0600 (Central Standard Time),370085.8000000119,1600,I,m,854,23,3,2478.600000023842,367607.1999999881,8037,NTS,C,9
9,8,test,1,C,circle.png,1,m,Tue Dec 30 2025 17:51:59 GMT-0600 (Central Standard Time),372584.89999997616,1500,I,m,967,24,3,2494.800000011921,370090.09999996424,8037,NTS,C,10
4,9,test,1,C,circle.png,1,z,Tue Dec 30 2025 17:51:59 GMT-0600 (Central Standard Time),375033.89999997616,1400,I,z,1032,4,3,2445.099999964237,372588.8000000119,8037,NTS,C,11
7,10,test,1,C,circle.png,1,m,Tue Dec 30 2025 17:51:59 GMT-0600 (Central Standard Time),377949.8000000119,2000,I,m,887,14,3,2912.2000000476837,375037.59999996424,8037,NTS,C,12
3,10,test,1,C,triangle.png,0,z,Tue Dec 30 2025 17:51:59 GMT-0600 (Central Standard Time),380198.89999997616,1200,I,m,1027,3,3,2245.300000011921,377953.59999996424,8037,NTS,C,13
9,11,test,1,C,circle.png,1,m,Tue Dec 30 2025 17:51:59 GMT-0600 (Central Standard Time),382648.3000000119,1500,I,m,925,8,3,2445.5,380202.8000000119,8037,NTS,C,14
1,12,test,1,C,triangle.png,1,z,Tue Dec 30 2025 17:51:59 GMT-0600 (Central Standard Time),385530.8000000119,1900,I,z,964,9,3,2878.7000000476837,382652.09999996424,8037,NTS,C,15
9,13,test,1,C,triangle.png,1,z,Tue Dec 30 2025 17:51:59 GMT-0600 (Central Standard Time),387646.8000000119,1400,I,z,685,16,3,2112.0,385534.8000000119,8037,NTS,C,16
8,14,test,1,C,triangle.png,1,m,Tue Dec 30 2025 17:51:59 GMT-0600 (Central Standard Time),390012.6999999881,1600,I,m,738,7,3,2361.899999976158,387650.8000000119,8037,NTS,C,17
3,15,test,1,C,circle.png,1,z,Tue Dec 30 2025 17:51:59 GMT-0600 (Central Standard Time),392678.6999999881,1600,I,z,1036,19,3,2662.300000011921,390016.39999997616,8037,NTS,C,18
6,16,test,1,C,circle.png,1,m,Tue Dec 30 2025 17:51:59 GMT-0600 (Central Standard Time),395877.59999996424,1900,I,m,1278,5,3,3195.099999964237,392682.5,8037,NTS,C,19
7,17,test,1,C,triangle.png,1,z,Tue Dec 30 2025 17:51:59 GMT-0600 (Central Standard Time),398860.89999997616,1700,I,z,1263,6,3,2979.599999964237,395881.3000000119,8037,NTS,C,20
1,18,test,1,C,circle.png,1,z,Tue Dec 30 2025 17:51:59 GMT-0600 (Central Standard Time),400526.09999996424,1000,I,z,636,1,3,1661.2999999523163,398864.8000000119,8037,NTS,C,21
3,19,test,1,C,circle.png,1,z,Tue Dec 30 2025 17:51:59 GMT-0600 (Central Standard Time),402958.5,1600,I,z,801,11,3,2428.5,400530.0,8037,NTS,C,22
4,20,test,1,C,triangle.png,1,m,Tue Dec 30 2025 17:51:59 GMT-0600 (Central Standard Time),405557.8000000119,1500,I,m,1078,12,3,2595.5,402962.3000000119,8037,NTS,C,23
6,21,test,1,C,triangle.png,1,m,Tue Dec 30 2025 17:51:59 GMT-0600 (Central Standard Time),407424.09999996424,1000,I,m,834,13,3,1862.5999999642372,405561.5,8037,NTS,C,24
8,1,test,2,C,triangle.png,1,m,Tue Dec 30 2025 17:51:59 GMT-0600 (Central Standard Time),416387.89999997616,1600,I,m,1213,7,3,2828.899999976158,413559.0,8037,NTS,C,1
9,1,test,2,C,triangle.png,0,z,Tue Dec 30 2025 17:51:59 GMT-0600 (Central Standard Time),418687.3000000119,1400,I,m,869,16,3,2294.900000035763,416392.39999997616,8037,NTS,C,2
2,2,test,2,C,circle.png,1,z,Tue Dec 30 2025 17:51:59 GMT-0600 (Central Standard Time),421286.09999996424,1700,I,z,878,10,3,2595.099999964237,418691.0,8037,NTS,C,3
4,3,test,2,C,circle.png,1,z,Tue Dec 30 2025 17:51:59 GMT-0600 (Central Standard Time),423469.0,1400,I,z,753,4,3,2179.100000023842,421289.89999997616,8037,NTS,C,4
1,4,test,2,C,circle.png,1,z,Tue Dec 30 2025 17:51:59 GMT-0600 (Central Standard Time),425152.0,1000,I,z,660,1,3,1679.199999988079,423472.8000000119,8037,NTS,C,5
6,5,test,2,C,circle.png,1,m,Tue Dec 30 2025 17:51:59 GMT-0600 (Central Standard Time),428184.09999996424,1900,I,m,1108,5,3,3028.099999964237,425156.0,8037,NTS,C,6
1,6,test,2,C,triangle.png,1,z,Tue Dec 30 2025 17:51:59 GMT-0600 (Central Standard Time),430983.1999999881,1900,I,z,868,9,3,2795.399999976158,428187.8000000119,8037,NTS,C,7
9,7,test,2,C,triangle.png,1,z,Tue Dec 30 2025 17:51:59 GMT-0600 (Central Standard Time),433198.89999997616,1400,I,z,793,24,3,2211.5,430987.39999997616,8037,NTS,C,8
2,8,test,2,C,triangle.png,1,m,Tue Dec 30 2025 17:51:59 GMT-0600 (Central Standard Time),436131.5,2000,I,m,914,2,3,2928.900000035763,433202.59999996424,8037,NTS,C,9
2,9,test,2,C,circle.png,1,z,Tue Dec 30 2025 17:51:59 GMT-0600 (Central Standard Time),438780.8000000119,1700,I,z,929,18,3,2645.600000023842,436135.1999999881,8037,NTS,C,10
3,10,test,2,C,circle.png,1,z,Tue Dec 30 2025 17:51:59 GMT-0600 (Central Standard Time),441196.6999999881,1600,I,z,796,19,3,2411.899999976158,438784.8000000119,8037,NTS,C,11
3,11,test,2,C,circle.png,1,z,Tue Dec 30 2025 17:51:59 GMT-0600 (Central Standard Time),443562.39999997616,1600,I,z,748,11,3,2361.800000011921,441200.59999996424,8037,NTS,C,12
4,12,test,2,C,triangle.png,1,m,Tue Dec 30 2025 17:51:59 GMT-0600 (Central Standard Time),445961.5,1500,I,m,882,20,3,2395.199999988079,443566.3000000119,8037,NTS,C,13
6,13,test,2,C,triangle.png,1,m,Tue Dec 30 2025 17:51:59 GMT-0600 (Central Standard Time),447611.09999996424,1000,I,m,631,13,3,1646.199999988079,445964.89999997616,8037,NTS,C,14
7,14,test,2,C,triangle.png,1,z,Tue Dec 30 2025 17:51:59 GMT-0600 (Central Standard Time),450027.1999999881,1700,I,z,688,6,3,2412.199999988079,447615.0,8037,NTS,C,15
6,15,test,2,C,triangle.png,1,m,Tue Dec 30 2025 17:51:59 GMT-0600 (Central Standard Time),451991.39999997616,1000,I,m,947,21,3,1960.300000011921,450031.09999996424,8037,NTS,C,16
8,16,test,2,C,circle.png,1,m,Tue Dec 30 2025 17:51:59 GMT-0600 (Central Standard Time),454192.6999999881,1200,I,m,974,23,3,2197.199999988079,451995.5,8037,NTS,C,17
7,17,test,2,C,circle.png,1,m,Tue Dec 30 2025 17:51:59 GMT-0600 (Central Standard Time),457375.0,2000,I,m,1160,14,3,3178.600000023842,454196.39999997616,8037,NTS,C,18
3,17,test,2,C,triangle.png,0,z,Tue Dec 30 2025 17:51:59 GMT-0600 (Central Standard Time),459707.5,1200,I,m,1105,3,3,2328.800000011921,457378.6999999881,8037,NTS,C,19
1,18,test,2,C,triangle.png,1,z,Tue Dec 30 2025 17:51:59 GMT-0600 (Central Standard Time),462239.89999997616,1900,I,z,609,17,3,2528.699999988079,459711.1999999881,8037,NTS,C,20
7,19,test,2,C,circle.png,1,m,Tue Dec 30 2025 17:51:59 GMT-0600 (Central Standard Time),465672.5,2000,I,m,1409,22,3,3428.400000035763,462244.09999996424,8037,NTS,C,21
4,20,test,2,C,triangle.png,1,m,Tue Dec 30 2025 17:51:59 GMT-0600 (Central Standard Time),468088.39999997616,1500,I,m,883,12,3,2412.199999988079,465676.1999999881,8037,NTS,C,22
9,21,test,2,C,circle.png,1,m,Tue Dec 30 2025 17:51:59 GMT-0600 (Central Standard Time),470637.39999997616,1500,I,m,1020,8,3,2545.399999976158,468092.0,8037,NTS,C,23
8,22,test,2,C,circle.png,1,m,Tue Dec 30 2025 17:51:59 GMT-0600 (Central Standard Time),472869.89999997616,1200,I,m,1003,15,3,2228.800000011921,470641.09999996424,8037,NTS,C,24
4,1,test,3,C,circle.png,1,z,Tue Dec 30 2025 17:51:59 GMT-0600 (Central Standard Time),478335.3000000119,1400,I,z,1027,4,3,2446.7000000476837,475888.59999996424,8037,NTS,C,1
9,2,test,3,C,circle.png,1,m,Tue Dec 30 2025 17:51:59 GMT-0600 (Central Standard Time),480851.0,1500,I,m,989,8,3,2511.900000035763,478339.09999996424,8037,NTS,C,2
4,3,test,3,C,triangle.png,1,m,Tue Dec 30 2025 17:51:59 GMT-0600 (Central Standard Time),483316.59999996424,1500,I,m,945,12,3,2462.099999964237,480854.5,8037,NTS,C,3
1,4,test,3,C,triangle.png,1,z,Tue Dec 30 2025 17:51:59 GMT-0600 (Central Standard Time),486299.09999996424,1900,I,z,1064,9,3,2978.5,483320.59999996424,8037,NTS,C,4
8,5,test,3,C,triangle.png,1,m,Tue Dec 30 2025 17:51:59 GMT-0600 (Central Standard Time),489165.0,1600,I,m,1237,7,3,2862.100000023842,486302.89999997616,8037,NTS,C,5
1,6,test,3,C,circle.png,1,z,Tue Dec 30 2025 17:51:59 GMT-0600 (Central Standard Time),490764.5,1000,I,z,579,17,3,1595.6000000238419,489168.89999997616,8037,NTS,C,6
2,7,test,3,C,circle.png,1,z,Tue Dec 30 2025 17:51:59 GMT-0600 (Central Standard Time),493713.5,1700,I,z,1232,10,3,2945.300000011921,490768.1999999881,8037,NTS,C,7
6,8,test,3,C,circle.png,1,m,Tue Dec 30 2025 17:51:59 GMT-0600 (Central Standard Time),496262.6999999881,1900,I,m,627,5,3,2545.100000023842,493717.59999996424,8037,NTS,C,8
3,9,test,3,C,triangle.png,1,z,Tue Dec 30 2025 17:51:59 GMT-0600 (Central Standard Time),498862.0,1200,I,z,1378,3,3,2595.400000035763,496266.59999996424,8037,NTS,C,9
3,10,test,3,C,triangle.png,1,z,Tue Dec 30 2025 17:51:59 GMT-0600 (Central Standard Time),500661.59999996424,1200,I,z,577,19,3,1795.8999999761581,498865.6999999881,8037,NTS,C,10
8,11,test,3,C,triangle.png,1,m,Tue Dec 30 2025 17:51:59 GMT-0600 (Central Standard Time),503077.0,1600,I,m,787,23,3,2411.699999988079,500665.3000000119,8037,NTS,C,11
4,12,test,3,C,circle.png,1,z,Tue Dec 30 2025 17:51:59 GMT-0600 (Central Standard Time),505393.39999997616,1400,I,z,891,20,3,2312.599999964237,503080.8000000119,8037,NTS,C,12
8,13,test,3,C,circle.png,1,m,Tue Dec 30 2025 17:51:59 GMT-0600 (Central Standard Time),507625.8000000119,1200,I,m,1006,15,3,2228.400000035763,505397.39999997616,8037,NTS,C,13
1,14,test,3,C,circle.png,1,z,Tue Dec 30 2025 17:51:59 GMT-0600 (Central Standard Time),509325.39999997616,1000,I,z,678,1,3,1695.8999999761581,507629.5,8037,NTS,C,14
6,15,test,3,C,triangle.png,1,m,Tue Dec 30 2025 17:51:59 GMT-0600 (Central Standard Time),511141.5,1000,I,m,795,13,3,1812.5,509329.0,8037,NTS,C,15
2,15,test,3,C,triangle.png,0,m,Tue Dec 30 2025 17:51:59 GMT-0600 (Central Standard Time),514223.89999997616,2000,I,z,1050,2,3,3078.699999988079,511145.1999999881,8037,NTS,C,16
6,16,test,3,C,circle.png,1,m,Tue Dec 30 2025 17:51:59 GMT-0600 (Central Standard Time),517089.1999999881,1900,I,m,949,21,3,2860.899999976158,514228.3000000119,8037,NTS,C,17
7,17,test,3,C,triangle.png,1,z,Tue Dec 30 2025 17:51:59 GMT-0600 (Central Standard Time),519638.6999999881,1700,I,z,819,6,3,2545.699999988079,517093.0,8037,NTS,C,18
2,18,test,3,C,triangle.png,1,m,Tue Dec 30 2025 17:51:59 GMT-0600 (Central Standard Time),522848.0,2000,I,m,1192,18,3,3205.600000023842,519642.39999997616,8037,NTS,C,19
3,19,test,3,C,circle.png,1,z,Tue Dec 30 2025 17:51:59 GMT-0600 (Central Standard Time),525503.5,1600,I,z,1042,11,3,2650.699999988079,522852.8000000119,8037,NTS,C,20
9,19,test,3,C,circle.png,0,m,Tue Dec 30 2025 17:51:59 GMT-0600 (Central Standard Time),528152.5,1500,I,z,1125,24,3,2645.300000011921,525507.1999999881,8037,NTS,C,21
9,20,test,3,C,triangle.png,1,z,Tue Dec 30 2025 17:51:59 GMT-0600 (Central Standard Time),530368.5999999642,1400,I,z,791,16,3,2212.2999999523163,528156.3000000119,8037,NTS,C,22
7,21,test,3,C,circle.png,1,m,Tue Dec 30 2025 17:51:59 GMT-0600 (Central Standard Time),533501.1999999881,2000,I,m,1112,14,3,3128.899999976158,530372.3000000119,8037,NTS,C,23
7,22,test,3,C,triangle.png,1,z,Tue Dec 30 2025 17:51:59 GMT-0600 (Central Standard Time),535850.3000000119,1700,I,z,622,22,3,2345.5,533504.8000000119,8037,NTS,C,24
8,1,test,4,C,triangle.png,1,m,Tue Dec 30 2025 17:51:59 GMT-0600 (Central Standard Time),542098.5,1600,I,m,1006,23,3,2630.0,539468.5,8037,NTS,C,1
8,1,test,4,C,circle.png,0,m,Tue Dec 30 2025 17:51:59 GMT-0600 (Central Standard Time),544181.0,1200,I,z,862,15,3,2078.300000011921,542102.6999999881,8037,NTS,C,2
6,1,test,4,C,circle.png,0,m,Tue Dec 30 2025 17:51:59 GMT-0600 (Central Standard Time),547180.0999999642,1900,I,z,1072,21,3,2995.5,544184.5999999642,8037,NTS,C,3
6,2,test,4,C,triangle.png,1,m,Tue Dec 30 2025 17:51:59 GMT-0600 (Central Standard Time),549279.5,1000,I,m,1075,13,3,2095.5,547184.0,8037,NTS,C,4
4,3,test,4,C,circle.png,1,z,Tue Dec 30 2025 17:51:59 GMT-0600 (Central Standard Time),551512.3000000119,1400,I,z,809,4,3,2228.900000035763,549283.3999999762,8037,NTS,C,5
9,4,test,4,C,circle.png,1,m,Tue Dec 30 2025 17:51:59 GMT-0600 (Central Standard Time),553761.3999999762,1500,I,m,724,8,3,2245.399999976158,551516.0,8037,NTS,C,6
7,4,test,4,C,triangle.png,0,z,Tue Dec 30 2025 17:51:59 GMT-0600 (Central Standard Time),556527.1999999881,1700,I,m,1035,6,3,2761.5,553765.6999999881,8037,NTS,C,7
2,5,test,4,C,circle.png,1,z,Tue Dec 30 2025 17:51:59 GMT-0600 (Central Standard Time),559193.0,1700,I,z,941,10,3,2661.800000011921,556531.1999999881,8037,NTS,C,8
7,5,test,4,C,triangle.png,0,z,Tue Dec 30 2025 17:51:59 GMT-0600 (Central Standard Time),561908.6999999881,1700,I,m,987,22,3,2711.600000023842,559197.0999999642,8037,NTS,C,9
9,6,test,4,C,circle.png,1,m,Tue Dec 30 2025 17:51:59 GMT-0600 (Central Standard Time),564541.1999999881,1500,I,m,1112,24,3,2628.899999976158,561912.3000000119,8037,NTS,C,10
1,7,test,4,C,triangle.png,1,z,Tue Dec 30 2025 17:51:59 GMT-0600 (Central Standard Time),567058.3000000119,1900,I,z,598,9,3,2512.900000035763,564545.3999999762,8037,NTS,C,11
9,8,test,4,C,triangle.png,1,z,Tue Dec 30 2025 17:51:59 GMT-0600 (Central Standard Time),569489.5999999642,1400,I,z,1007,16,3,2427.5,567062.0999999642,8037,NTS,C,12
4,9,test,4,C,circle.png,1,z,Tue Dec 30 2025 17:51:59 GMT-0600 (Central Standard Time),571655.8000000119,1400,I,z,741,20,3,2162.0,569493.8000000119,8037,NTS,C,13
2,10,test,4,C,triangle.png,1,m,Tue Dec 30 2025 17:51:59 GMT-0600 (Central Standard Time),574738.3000000119,2000,I,m,1057,2,3,3078.300000011921,571660.0,8037,NTS,C,14
3,10,test,4,C,circle.png,0,z,Tue Dec 30 2025 17:51:59 GMT-0600 (Central Standard Time),577420.6999999881,1600,I,m,1062,11,3,2678.5,574742.1999999881,8037,NTS,C,15
6,11,test,4,C,circle.png,1,m,Tue Dec 30 2025 17:51:59 GMT-0600 (Central Standard Time),580136.5,1900,I,m,783,5,3,2712.0,577424.5,8037,NTS,C,16
7,12,test,4,C,circle.png,1,m,Tue Dec 30 2025 17:51:59 GMT-0600 (Central Standard Time),583035.5999999642,2000,I,m,870,14,3,2895.199999988079,580140.3999999762,8037,NTS,C,17
8,12,test,4,C,triangle.png,0,m,Tue Dec 30 2025 17:51:59 GMT-0600 (Central Standard Time),585568.0999999642,1600,I,z,910,7,3,2528.7999999523163,583039.3000000119,8037,NTS,C,18
1,13,test,4,C,circle.png,1,z,Tue Dec 30 2025 17:51:59 GMT-0600 (Central Standard Time),587300.8000000119,1000,I,z,704,1,3,1728.6000000238419,585572.1999999881,8037,NTS,C,19
2,14,test,4,C,triangle.png,1,m,Tue Dec 30 2025 17:51:59 GMT-0600 (Central Standard Time),590466.6999999881,2000,I,m,1138,18,3,3162.300000011921,587304.3999999762,8037,NTS,C,20
1,15,test,4,C,circle.png,1,z,Tue Dec 30 2025 17:51:59 GMT-0600 (Central Standard Time),592132.6999999881,1000,I,z,646,17,3,1662.199999988079,590470.5,8037,NTS,C,21
4,16,test,4,C,triangle.png,1,m,Tue Dec 30 2025 17:51:59 GMT-0600 (Central Standard Time),594315.3000000119,1500,I,m,660,12,3,2178.900000035763,592136.3999999762,8037,NTS,C,22
3,17,test,4,C,triangle.png,1,z,Tue Dec 30 2025 17:51:59 GMT-0600 (Central Standard Time),596264.8000000119,1200,I,z,725,3,3,1945.6000000238419,594319.1999999881,8037,NTS,C,23
3,18,test,4,C,triangle.png,1,z,Tue Dec 30 2025 17:51:59 GMT-0600 (Central Standard Time),598380.8999999762,1200,I,z,886,19,3,2112.300000011921,596268.5999999642,8037,NTS,C,24
