block_c,block_dur,condition,countdown,datetime,endtime,list,multichar_response,project,response,response_time,session_number,start_end,starttime,subject_id,task,task_vers,trial
,,,,Thu Dec 11 2025 16:36:24 GMT-0600 (Central Standard Time),,,,O,space,402,,,,7717,WL,B,
prac,,0,,Thu Dec 11 2025 16:36:24 GMT-0600 (Central Standard Time),,NA,b,O,b,3515,,,,7717,WL,B,1.0
prac,,0,,Thu Dec 11 2025 16:36:24 GMT-0600 (Central Standard Time),,NA,bo,O,o,331,,,,7717,WL,B,1.0
prac,,0,,Thu Dec 11 2025 16:36:24 GMT-0600 (Central Standard Time),,NA,boo,O,o,148,,,,7717,WL,B,1.0
prac,,0,,Thu Dec 11 2025 16:36:24 GMT-0600 (Central Standard Time),,NA,boos,O,s,885,,,,7717,WL,B,1.0
prac,,0,,Thu Dec 11 2025 16:36:24 GMT-0600 (Central Standard Time),,NA,boost,O,t,99,,,,7717,WL,B,1.0
prac,,0,,Thu Dec 11 2025 16:36:24 GMT-0600 (Central Standard Time),,NA,boostenter,O,enter,1162,,,,7717,WL,B,1.0
1,0.8660001754760742,learn,59133.999824523926,Thu Dec 11 2025 16:36:24 GMT-0600 (Central Standard Time),113045.0,A,s,O,s,850,,866.1999999880791,112178.80000001192,7717,WL,B,1.0
1,1.1000001430511475,learn,58899.99985694885,Thu Dec 11 2025 16:36:24 GMT-0600 (Central Standard Time),113278.30000001192,A,st,O,t,224,,1099.5,112178.80000001192,7717,WL,B,1.0
1,1.4320001602172852,learn,58567.999839782715,Thu Dec 11 2025 16:36:24 GMT-0600 (Central Standard Time),113611.0,A,str,O,r,320,,1432.199999988079,112178.80000001192,7717,WL,B,1.0
1,1.6990001201629639,learn,58300.999879837036,Thu Dec 11 2025 16:36:24 GMT-0600 (Central Standard Time),113877.70000004768,A,stre,O,e,260,,1698.9000000357628,112178.80000001192,7717,WL,B,1.0
1,1.9490001201629639,learn,58050.999879837036,Thu Dec 11 2025 16:36:24 GMT-0600 (Central Standard Time),114127.80000001192,A,stree,O,e,231,,1949.0,112178.80000001192,7717,WL,B,1.0
1,2.2660000324249268,learn,57733.99996757507,Thu Dec 11 2025 16:36:24 GMT-0600 (Central Standard Time),114444.60000002384,A,street,O,t,301,,2265.800000011921,112178.80000001192,7717,WL,B,1.0
1,2.616000175476074,learn,57383.999824523926,Thu Dec 11 2025 16:36:24 GMT-0600 (Central Standard Time),114794.70000004768,A,streetenter,O,enter,345,,2615.900000035763,112178.80000001192,7717,WL,B,1.0
1,2.950000047683716,learn,57049.999952316284,Thu Dec 11 2025 16:36:24 GMT-0600 (Central Standard Time),115128.10000002384,A,g,O,g,325,,333.10000002384186,114795.0,7717,WL,B,2.0
1,3.2170000076293945,learn,56782.999992370605,Thu Dec 11 2025 16:36:24 GMT-0600 (Central Standard Time),115395.70000004768,A,gr,O,r,254,,600.7000000476837,114795.0,7717,WL,B,2.0
1,3.3570001125335693,learn,56642.99988746643,Thu Dec 11 2025 16:36:24 GMT-0600 (Central Standard Time),115535.5,A,gra,O,a,118,,740.5,114795.0,7717,WL,B,2.0
1,3.5830001831054688,learn,56416.99981689453,Thu Dec 11 2025 16:36:24 GMT-0600 (Central Standard Time),115761.30000001192,A,gras,O,s,207,,966.3000000119209,114795.0,7717,WL,B,2.0
1,3.8330001831054688,learn,56166.99981689453,Thu Dec 11 2025 16:36:24 GMT-0600 (Central Standard Time),116011.80000001192,A,grass,O,s,236,,1216.800000011921,114795.0,7717,WL,B,2.0
1,4.979000091552734,learn,55020.999908447266,Thu Dec 11 2025 16:36:24 GMT-0600 (Central Standard Time),117157.80000001192,A,grassenter,O,enter,1128,,2362.800000011921,114795.0,7717,WL,B,2.0
1,5.396000146865845,learn,54603.999853134155,Thu Dec 11 2025 16:36:24 GMT-0600 (Central Standard Time),117575.10000002384,A,d,O,d,401,,416.89999997615814,117158.20000004768,7717,WL,B,3.0
1,6.7790000438690186,learn,53220.99995613098,Thu Dec 11 2025 16:36:24 GMT-0600 (Central Standard Time),118958.10000002384,A,do,O,o,1370,,1799.8999999761581,117158.20000004768,7717,WL,B,3.0
1,6.9120001792907715,learn,53087.99982070923,Thu Dec 11 2025 16:36:24 GMT-0600 (Central Standard Time),119091.20000004768,A,doo,O,o,125,,1933.0,117158.20000004768,7717,WL,B,3.0
1,7.397000074386597,learn,52602.9999256134,Thu Dec 11 2025 16:36:24 GMT-0600 (Central Standard Time),119576.40000003576,A,door,O,r,463,,2418.199999988079,117158.20000004768,7717,WL,B,3.0
1,8.430000066757202,learn,51569.9999332428,Thu Dec 11 2025 16:36:24 GMT-0600 (Central Standard Time),120608.90000003576,A,doorenter,O,enter,1011,,3450.699999988079,117158.20000004768,7717,WL,B,3.0
1,9.330000162124634,learn,50669.999837875366,Thu Dec 11 2025 16:36:24 GMT-0600 (Central Standard Time),121508.80000001192,A,a,O,a,884,,899.5999999642372,120609.20000004768,7717,WL,B,4.0
1,9.52999997138977,learn,50470.00002861023,Thu Dec 11 2025 16:36:24 GMT-0600 (Central Standard Time),121709.10000002384,A,ar,O,r,185,,1099.8999999761581,120609.20000004768,7717,WL,B,4.0
1,10.031000137329102,learn,49968.9998626709,Thu Dec 11 2025 16:36:24 GMT-0600 (Central Standard Time),122209.70000004768,A,arm,O,m,481,,1600.5,120609.20000004768,7717,WL,B,4.0
1,10.88100004196167,learn,49118.99995803833,Thu Dec 11 2025 16:36:24 GMT-0600 (Central Standard Time),123059.90000003576,A,armenter,O,enter,835,,2450.699999988079,120609.20000004768,7717,WL,B,4.0
1,11.396000146865845,learn,48603.999853134155,Thu Dec 11 2025 16:36:24 GMT-0600 (Central Standard Time),123574.80000001192,A,w,O,w,498,,514.5,123060.30000001192,7717,WL,B,5.0
1,11.629000186920166,learn,48370.999813079834,Thu Dec 11 2025 16:36:24 GMT-0600 (Central Standard Time),123808.10000002384,A,wi,O,i,208,,747.8000000119209,123060.30000001192,7717,WL,B,5.0
1,11.812000036239624,learn,48187.999963760376,Thu Dec 11 2025 16:36:24 GMT-0600 (Central Standard Time),123991.40000003576,A,wif,O,f,168,,931.1000000238419,123060.30000001192,7717,WL,B,5.0
1,11.996000051498413,learn,48003.99994850159,Thu Dec 11 2025 16:36:24 GMT-0600 (Central Standard Time),124174.40000003576,A,wife,O,e,170,,1114.1000000238419,123060.30000001192,7717,WL,B,5.0
1,12.312999963760376,learn,47687.000036239624,Thu Dec 11 2025 16:36:24 GMT-0600 (Central Standard Time),124491.70000004768,A,wifeenter,O,enter,298,,1431.4000000357628,123060.30000001192,7717,WL,B,5.0
1,12.663000106811523,learn,47336.99989318848,Thu Dec 11 2025 16:36:24 GMT-0600 (Central Standard Time),124842.0,A,s,O,s,337,,350.0,124492.0,7717,WL,B,6.0
1,12.897000074386597,learn,47102.9999256134,Thu Dec 11 2025 16:36:24 GMT-0600 (Central Standard Time),125075.60000002384,A,st,O,t,206,,583.6000000238419,124492.0,7717,WL,B,6.0
1,13.062000036239624,learn,46937.999963760376,Thu Dec 11 2025 16:36:24 GMT-0600 (Central Standard Time),125241.0,A,sta,O,a,144,,749.0,124492.0,7717,WL,B,6.0
1,13.312000036239624,learn,46687.999963760376,Thu Dec 11 2025 16:36:24 GMT-0600 (Central Standard Time),125491.40000003576,A,star,O,r,241,,999.4000000357628,124492.0,7717,WL,B,6.0
1,13.913000106811523,learn,46086.99989318848,Thu Dec 11 2025 16:36:24 GMT-0600 (Central Standard Time),126091.90000003576,A,starenter,O,enter,582,,1599.9000000357628,124492.0,7717,WL,B,6.0
1,14.92900013923645,learn,45070.99986076355,Thu Dec 11 2025 16:36:24 GMT-0600 (Central Standard Time),127107.70000004768,A,p,O,p,1008,,1015.5,126092.20000004768,7717,WL,B,7.0
1,15.245000123977661,learn,44754.99987602234,Thu Dec 11 2025 16:36:24 GMT-0600 (Central Standard Time),127423.60000002384,A,pi,O,i,304,,1331.3999999761581,126092.20000004768,7717,WL,B,7.0
1,15.67799997329712,learn,44322.00002670288,Thu Dec 11 2025 16:36:24 GMT-0600 (Central Standard Time),127856.60000002384,A,pip,O,p,418,,1764.3999999761581,126092.20000004768,7717,WL,B,7.0
1,16.32800006866455,learn,43671.99993133545,Thu Dec 11 2025 16:36:24 GMT-0600 (Central Standard Time),128506.70000004768,A,pipe,O,e,635,,2414.5,126092.20000004768,7717,WL,B,7.0
1,16.843000173568726,learn,43156.999826431274,Thu Dec 11 2025 16:36:24 GMT-0600 (Central Standard Time),129022.20000004768,A,pipeenter,O,enter,504,,2930.0,126092.20000004768,7717,WL,B,7.0
1,17.528000116348267,learn,42471.99988365173,Thu Dec 11 2025 16:36:24 GMT-0600 (Central Standard Time),129707.10000002384,A,l,O,l,678,,684.6000000238419,129022.5,7717,WL,B,8.0
1,17.761000156402588,learn,42238.99984359741,Thu Dec 11 2025 16:36:24 GMT-0600 (Central Standard Time),129939.90000003576,A,la,O,a,214,,917.4000000357628,129022.5,7717,WL,B,8.0
1,17.97699999809265,learn,42023.00000190735,Thu Dec 11 2025 16:36:24 GMT-0600 (Central Standard Time),130155.90000003576,A,lak,O,k,208,,1133.4000000357628,129022.5,7717,WL,B,8.0
1,18.292999982833862,learn,41707.00001716614,Thu Dec 11 2025 16:36:24 GMT-0600 (Central Standard Time),130471.70000004768,A,lake,O,e,303,,1449.2000000476837,129022.5,7717,WL,B,8.0
1,18.62600016593933,learn,41373.99983406067,Thu Dec 11 2025 16:36:24 GMT-0600 (Central Standard Time),130804.70000004768,A,lakeenter,O,enter,319,,1782.2000000476837,129022.5,7717,WL,B,8.0
1,18.993000030517578,learn,41006.99996948242,Thu Dec 11 2025 16:36:24 GMT-0600 (Central Standard Time),131172.40000003576,A,f,O,f,360,,367.4000000357628,130805.0,7717,WL,B,9.0
1,19.261000156402588,learn,40738.99984359741,Thu Dec 11 2025 16:36:24 GMT-0600 (Central Standard Time),131439.40000003576,A,fi,O,i,245,,634.4000000357628,130805.0,7717,WL,B,9.0
1,19.527000188827515,learn,40472.999811172485,Thu Dec 11 2025 16:36:24 GMT-0600 (Central Standard Time),131705.70000004768,A,fir,O,r,244,,900.7000000476837,130805.0,7717,WL,B,9.0
1,19.89400005340576,learn,40105.99994659424,Thu Dec 11 2025 16:36:24 GMT-0600 (Central Standard Time),132072.5,A,fire,O,e,353,,1267.5,130805.0,7717,WL,B,9.0
1,23.009000062942505,learn,36990.999937057495,Thu Dec 11 2025 16:36:24 GMT-0600 (Central Standard Time),135188.0,A,fireenter,O,enter,3105,,4383.0,130805.0,7717,WL,B,9.0
1,27.009000062942505,learn,32990.999937057495,Thu Dec 11 2025 16:36:24 GMT-0600 (Central Standard Time),139188.0,A,l,O,l,3994,,3999.699999988079,135188.30000001192,7717,WL,B,10.0
1,27.157999992370605,learn,32842.000007629395,Thu Dec 11 2025 16:36:24 GMT-0600 (Central Standard Time),139336.80000001192,A,la,O,a,131,,4148.5,135188.30000001192,7717,WL,B,10.0
1,27.27400016784668,learn,32725.99983215332,Thu Dec 11 2025 16:36:24 GMT-0600 (Central Standard Time),139453.0,A,lak,O,k,98,,4264.699999988079,135188.30000001192,7717,WL,B,10.0
1,27.407999992370605,learn,32592.000007629395,Thu Dec 11 2025 16:36:24 GMT-0600 (Central Standard Time),139586.70000004768,A,lake,O,e,107,,4398.400000035763,135188.30000001192,7717,WL,B,10.0
1,28.157999992370605,learn,31842.000007629395,Thu Dec 11 2025 16:36:24 GMT-0600 (Central Standard Time),140336.5,A,lakeenter,O,enter,737,,5148.199999988079,135188.30000001192,7717,WL,B,10.0
1,54.2810001373291,learn,5718.999862670898,Thu Dec 11 2025 16:36:24 GMT-0600 (Central Standard Time),166460.0,A,enter,O,enter,26118,,26123.099999964237,140336.90000003576,7717,WL,B,11.0
1,55.63199996948242,learn,4368.000030517578,Thu Dec 11 2025 16:36:24 GMT-0600 (Central Standard Time),167810.90000003576,A,enter,O,enter,1337,,1350.6000000238419,166460.30000001192,7717,WL,B,12.0
1,56.5310001373291,learn,3468.9998626708984,Thu Dec 11 2025 16:36:24 GMT-0600 (Central Standard Time),168710.30000001192,A,enter,O,enter,891,,899.0999999642372,167811.20000004768,7717,WL,B,13.0
1,57.08200001716614,learn,2917.9999828338623,Thu Dec 11 2025 16:36:24 GMT-0600 (Central Standard Time),169261.30000001192,A,enter,O,enter,545,,550.6999999880791,168710.60000002384,7717,WL,B,14.0
1,57.63300013542175,learn,2366.999864578247,Thu Dec 11 2025 16:36:24 GMT-0600 (Central Standard Time),169812.20000004768,A,enter,O,enter,545,,550.6000000238419,169261.60000002384,7717,WL,B,15.0
2,0.6830000877380371,learn,59316.99991226196,Thu Dec 11 2025 16:36:24 GMT-0600 (Central Standard Time),241503.80000001192,A,w,O,w,673,,682.8000000119209,240821.0,7717,WL,B,1.0
2,0.8659999370574951,learn,59134.000062942505,Thu Dec 11 2025 16:36:24 GMT-0600 (Central Standard Time),241687.0,A,wi,O,i,166,,866.0,240821.0,7717,WL,B,1.0
2,1.0329999923706055,learn,58967.000007629395,Thu Dec 11 2025 16:36:24 GMT-0600 (Central Standard Time),241853.30000001192,A,win,O,n,158,,1032.300000011921,240821.0,7717,WL,B,1.0
2,1.25,learn,58750.0,Thu Dec 11 2025 16:36:24 GMT-0600 (Central Standard Time),242070.40000003576,A,wind,O,d,202,,1249.4000000357628,240821.0,7717,WL,B,1.0
2,1.383000135421753,learn,58616.99986457825,Thu Dec 11 2025 16:36:24 GMT-0600 (Central Standard Time),242204.10000002384,A,windo,O,o,129,,1383.1000000238419,240821.0,7717,WL,B,1.0
2,1.6000001430511475,learn,58399.99985694885,Thu Dec 11 2025 16:36:24 GMT-0600 (Central Standard Time),242420.30000001192,A,window,O,w,203,,1599.300000011921,240821.0,7717,WL,B,1.0
2,2.2170000076293945,learn,57782.999992370605,Thu Dec 11 2025 16:36:24 GMT-0600 (Central Standard Time),243038.10000002384,A,windowc,O,c,596,,2217.100000023842,240821.0,7717,WL,B,1.0
2,2.3989999294281006,learn,57601.0000705719,Thu Dec 11 2025 16:36:24 GMT-0600 (Central Standard Time),243220.10000002384,A,windowci,O,i,166,,2399.100000023842,240821.0,7717,WL,B,1.0
2,2.8320000171661377,learn,57167.99998283386,Thu Dec 11 2025 16:36:24 GMT-0600 (Central Standard Time),243652.70000004768,A,windowcit,O,t,414,,2831.7000000476837,240821.0,7717,WL,B,1.0
2,3.000999927520752,learn,56999.00007247925,Thu Dec 11 2025 16:36:24 GMT-0600 (Central Standard Time),243821.5,A,windowcity,O,y,151,,3000.5,240821.0,7717,WL,B,1.0
2,5.082000017166138,learn,54917.99998283386,Thu Dec 11 2025 16:36:24 GMT-0600 (Central Standard Time),245902.60000002384,A,windowcityp,O,p,2065,,5081.600000023842,240821.0,7717,WL,B,1.0
2,5.265000104904175,learn,54734.999895095825,Thu Dec 11 2025 16:36:24 GMT-0600 (Central Standard Time),246085.40000003576,A,windowcitypi,O,i,173,,5264.400000035763,240821.0,7717,WL,B,1.0
2,5.480999946594238,learn,54519.00005340576,Thu Dec 11 2025 16:36:24 GMT-0600 (Central Standard Time),246302.10000002384,A,windowcitypip,O,p,207,,5481.100000023842,240821.0,7717,WL,B,1.0
2,5.814000129699707,learn,54185.99987030029,Thu Dec 11 2025 16:36:24 GMT-0600 (Central Standard Time),246634.5,A,windowcitypipe,O,e,325,,5813.5,240821.0,7717,WL,B,1.0
2,6.664000034332275,learn,53335.999965667725,Thu Dec 11 2025 16:36:24 GMT-0600 (Central Standard Time),247485.20000004768,A,windowcitypipes,O,s,836,,6664.200000047684,240821.0,7717,WL,B,1.0
2,6.8480000495910645,learn,53151.999950408936,Thu Dec 11 2025 16:36:24 GMT-0600 (Central Standard Time),247668.20000004768,A,windowcitypipesk,O,k,167,,6847.200000047684,240821.0,7717,WL,B,1.0
2,7.049000024795532,learn,52950.99997520447,Thu Dec 11 2025 16:36:24 GMT-0600 (Central Standard Time),247869.40000003576,A,windowcitypipeski,O,i,183,,7048.400000035763,240821.0,7717,WL,B,1.0
2,7.281000137329102,learn,52718.9998626709,Thu Dec 11 2025 16:36:24 GMT-0600 (Central Standard Time),248101.90000003576,A,windowcitypipeskin,O,n,215,,7280.900000035763,240821.0,7717,WL,B,1.0
2,7.781000137329102,learn,52218.9998626709,Thu Dec 11 2025 16:36:24 GMT-0600 (Central Standard Time),248601.70000004768,A,windowcitypipeskinf,O,f,484,,7780.700000047684,240821.0,7717,WL,B,1.0
2,7.947999954223633,learn,52052.00004577637,Thu Dec 11 2025 16:36:24 GMT-0600 (Central Standard Time),248769.10000002384,A,windowcitypipeskinfi,O,i,154,,7948.100000023842,240821.0,7717,WL,B,1.0
2,8.164000034332275,learn,51835.999965667725,Thu Dec 11 2025 16:36:24 GMT-0600 (Central Standard Time),248984.80000001192,A,windowcitypipeskinfir,O,r,204,,8163.800000011921,240821.0,7717,WL,B,1.0
2,8.449000120162964,learn,51550.999879837036,Thu Dec 11 2025 16:36:24 GMT-0600 (Central Standard Time),249269.30000001192,A,windowcitypipeskinfire,O,e,265,,8448.300000011921,240821.0,7717,WL,B,1.0
2,8.980999946594238,learn,51019.00005340576,Thu Dec 11 2025 16:36:24 GMT-0600 (Central Standard Time),249801.5,A,windowcitypipeskinfireenter,O,enter,509,,8980.5,240821.0,7717,WL,B,1.0
2,9.347000122070312,learn,50652.99987792969,Thu Dec 11 2025 16:36:24 GMT-0600 (Central Standard Time),250167.60000002384,A,s,O,s,348,,365.89999997615814,249801.70000004768,7717,WL,B,2.0
2,9.531000137329102,learn,50468.9998626709,Thu Dec 11 2025 16:36:24 GMT-0600 (Central Standard Time),250351.60000002384,A,st,O,t,173,,549.8999999761581,249801.70000004768,7717,WL,B,2.0
2,9.763000011444092,learn,50236.99998855591,Thu Dec 11 2025 16:36:24 GMT-0600 (Central Standard Time),250584.10000002384,A,str,O,r,212,,782.3999999761581,249801.70000004768,7717,WL,B,2.0
2,9.898000001907349,learn,50101.99999809265,Thu Dec 11 2025 16:36:24 GMT-0600 (Central Standard Time),250718.80000001192,A,stre,O,e,126,,917.0999999642372,249801.70000004768,7717,WL,B,2.0
2,10.098000049591064,learn,49901.999950408936,Thu Dec 11 2025 16:36:24 GMT-0600 (Central Standard Time),250919.90000003576,A,stree,O,e,189,,1118.199999988079,249801.70000004768,7717,WL,B,2.0
2,10.36300015449524,learn,49636.99984550476,Thu Dec 11 2025 16:36:24 GMT-0600 (Central Standard Time),251183.90000003576,A,street,O,t,253,,1382.199999988079,249801.70000004768,7717,WL,B,2.0
2,10.680000066757202,learn,49319.9999332428,Thu Dec 11 2025 16:36:24 GMT-0600 (Central Standard Time),251501.10000002384,A,streetenter,O,enter,298,,1699.3999999761581,249801.70000004768,7717,WL,B,2.0
2,11.11300015449524,learn,48886.99984550476,Thu Dec 11 2025 16:36:24 GMT-0600 (Central Standard Time),251933.80000001192,A,g,O,g,425,,432.5,251501.30000001192,7717,WL,B,3.0
2,11.36300015449524,learn,48636.99984550476,Thu Dec 11 2025 16:36:24 GMT-0600 (Central Standard Time),252183.90000003576,A,gr,O,r,232,,682.6000000238419,251501.30000001192,7717,WL,B,3.0
2,11.463000059127808,learn,48536.99994087219,Thu Dec 11 2025 16:36:24 GMT-0600 (Central Standard Time),252283.60000002384,A,gra,O,a,84,,782.3000000119209,251501.30000001192,7717,WL,B,3.0
2,11.680000066757202,learn,48319.9999332428,Thu Dec 11 2025 16:36:24 GMT-0600 (Central Standard Time),252500.90000003576,A,gras,O,s,208,,999.6000000238419,251501.30000001192,7717,WL,B,3.0
2,11.946000099182129,learn,48053.99990081787,Thu Dec 11 2025 16:36:24 GMT-0600 (Central Standard Time),252766.30000001192,A,grass,O,s,247,,1265.0,251501.30000001192,7717,WL,B,3.0
2,12.230000019073486,learn,47769.999980926514,Thu Dec 11 2025 16:36:24 GMT-0600 (Central Standard Time),253050.5,A,grassenter,O,enter,270,,1549.199999988079,251501.30000001192,7717,WL,B,3.0
2,13.546000003814697,learn,46453.9999961853,Thu Dec 11 2025 16:36:24 GMT-0600 (Central Standard Time),254366.20000004768,A,d,O,d,1298,,1315.4000000357628,253050.80000001192,7717,WL,B,4.0
2,13.76200008392334,learn,46237.99991607666,Thu Dec 11 2025 16:36:24 GMT-0600 (Central Standard Time),254582.5,A,do,O,o,208,,1531.699999988079,253050.80000001192,7717,WL,B,4.0
2,13.962000131607056,learn,46037.999868392944,Thu Dec 11 2025 16:36:24 GMT-0600 (Central Standard Time),254782.40000003576,A,doo,O,o,189,,1731.6000000238419,253050.80000001192,7717,WL,B,4.0
2,14.17900013923645,learn,45820.99986076355,Thu Dec 11 2025 16:36:24 GMT-0600 (Central Standard Time),254999.60000002384,A,door,O,r,201,,1948.800000011921,253050.80000001192,7717,WL,B,4.0
2,14.446000099182129,learn,45553.99990081787,Thu Dec 11 2025 16:36:24 GMT-0600 (Central Standard Time),255266.60000002384,A,doorenter,O,enter,247,,2215.800000011921,253050.80000001192,7717,WL,B,4.0
2,14.745000123977661,learn,45254.99987602234,Thu Dec 11 2025 16:36:24 GMT-0600 (Central Standard Time),255565.90000003576,A,a,O,a,290,,299.10000002384186,255266.80000001192,7717,WL,B,5.0
2,15.062000036239624,learn,44937.999963760376,Thu Dec 11 2025 16:36:24 GMT-0600 (Central Standard Time),255882.90000003576,A,ar,O,r,310,,616.1000000238419,255266.80000001192,7717,WL,B,5.0
2,15.729000091552734,learn,44270.999908447266,Thu Dec 11 2025 16:36:24 GMT-0600 (Central Standard Time),256549.70000004768,A,arm,O,m,657,,1282.9000000357628,255266.80000001192,7717,WL,B,5.0
2,16.49500012397766,learn,43504.99987602234,Thu Dec 11 2025 16:36:24 GMT-0600 (Central Standard Time),257315.90000003576,A,armenter,O,enter,749,,2049.100000023842,255266.80000001192,7717,WL,B,5.0
2,19.026999950408936,learn,40973.000049591064,Thu Dec 11 2025 16:36:24 GMT-0600 (Central Standard Time),259847.70000004768,A,l,O,l,2515,,2531.7000000476837,257316.0,7717,WL,B,6.0
2,19.177000045776367,learn,40822.99995422363,Thu Dec 11 2025 16:36:24 GMT-0600 (Central Standard Time),259998.0,A,la,O,a,133,,2682.0,257316.0,7717,WL,B,6.0
2,19.3270001411438,learn,40672.9998588562,Thu Dec 11 2025 16:36:24 GMT-0600 (Central Standard Time),260148.0,A,lak,O,k,131,,2832.0,257316.0,7717,WL,B,6.0
2,19.55999994277954,learn,40440.00005722046,Thu Dec 11 2025 16:36:24 GMT-0600 (Central Standard Time),260381.10000002384,A,lake,O,e,225,,3065.100000023842,257316.0,7717,WL,B,6.0
2,20.06500005722046,learn,39934.99994277954,Thu Dec 11 2025 16:36:24 GMT-0600 (Central Standard Time),260885.20000004768,A,lakeenter,O,enter,489,,3569.2000000476837,257316.0,7717,WL,B,6.0
2,20.509999990463257,learn,39490.00000953674,Thu Dec 11 2025 16:36:24 GMT-0600 (Central Standard Time),261330.80000001192,A,c,O,c,425,,445.30000001192093,260885.5,7717,WL,B,7.0
2,20.627000093460083,learn,39372.99990653992,Thu Dec 11 2025 16:36:24 GMT-0600 (Central Standard Time),261447.60000002384,A,ca,O,a,96,,562.1000000238419,260885.5,7717,WL,B,7.0
2,20.960999965667725,learn,39039.000034332275,Thu Dec 11 2025 16:36:24 GMT-0600 (Central Standard Time),261781.30000001192,A,cab,O,b,326,,895.8000000119209,260885.5,7717,WL,B,7.0
2,21.111000061035156,learn,38888.999938964844,Thu Dec 11 2025 16:36:24 GMT-0600 (Central Standard Time),261931.5,A,cabi,O,i,128,,1046.0,260885.5,7717,WL,B,7.0
2,21.243000030517578,learn,38756.99996948242,Thu Dec 11 2025 16:36:24 GMT-0600 (Central Standard Time),262063.90000003576,A,cabin,O,n,124,,1178.4000000357628,260885.5,7717,WL,B,7.0
2,22.427000045776367,learn,37572.99995422363,Thu Dec 11 2025 16:36:24 GMT-0600 (Central Standard Time),263247.3000000119,A,cabinenter,O,enter,1171,,2361.800000011921,260885.5,7717,WL,B,7.0
2,24.89199995994568,learn,35108.00004005432,Thu Dec 11 2025 16:36:24 GMT-0600 (Central Standard Time),265713.0,A,s,O,s,2447,,2465.399999976158,263247.60000002384,7717,WL,B,8.0
2,25.009999990463257,learn,34990.00000953674,Thu Dec 11 2025 16:36:24 GMT-0600 (Central Standard Time),265830.40000003576,A,sk,O,k,105,,2582.800000011921,263247.60000002384,7717,WL,B,8.0
2,25.242000102996826,learn,34757.999897003174,Thu Dec 11 2025 16:36:24 GMT-0600 (Central Standard Time),266063.0,A,ski,O,i,215,,2815.399999976158,263247.60000002384,7717,WL,B,8.0
2,25.325000047683716,learn,34674.999952316284,Thu Dec 11 2025 16:36:24 GMT-0600 (Central Standard Time),266145.7000000477,A,skin,O,n,61,,2898.100000023842,263247.60000002384,7717,WL,B,8.0
2,26.05900001525879,learn,33940.99998474121,Thu Dec 11 2025 16:36:24 GMT-0600 (Central Standard Time),266879.60000002384,A,skinenter,O,enter,714,,3632.0,263247.60000002384,7717,WL,B,8.0
2,32.20799994468689,learn,27792.00005531311,Thu Dec 11 2025 16:36:24 GMT-0600 (Central Standard Time),273028.7000000477,A,p,O,p,6142,,6148.800000011921,266879.90000003576,7717,WL,B,9.0
2,32.35700011253357,learn,27642.99988746643,Thu Dec 11 2025 16:36:24 GMT-0600 (Central Standard Time),273177.2000000477,A,pu,O,u,135,,6297.300000011921,266879.90000003576,7717,WL,B,9.0
2,32.5550000667572,learn,27444.999933242798,Thu Dec 11 2025 16:36:24 GMT-0600 (Central Standard Time),273376.2000000477,A,pup,O,p,179,,6496.300000011921,266879.90000003576,7717,WL,B,9.0
2,32.75500011444092,learn,27244.999885559082,Thu Dec 11 2025 16:36:24 GMT-0600 (Central Standard Time),273576.2000000477,A,pupi,O,i,191,,6696.300000011921,266879.90000003576,7717,WL,B,9.0
2,33.15700006484985,learn,26842.999935150146,Thu Dec 11 2025 16:36:24 GMT-0600 (Central Standard Time),273977.60000002384,A,pupil,O,l,391,,7097.699999988079,266879.90000003576,7717,WL,B,9.0
2,33.73900008201599,learn,26260.99991798401,Thu Dec 11 2025 16:36:24 GMT-0600 (Central Standard Time),274559.8000000119,A,pupilenter,O,enter,560,,7679.899999976158,266879.90000003576,7717,WL,B,9.0
2,41.47000002861023,learn,18529.99997138977,Thu Dec 11 2025 16:36:24 GMT-0600 (Central Standard Time),282291.0,A,w,O,w,7717,,7730.799999952316,274560.2000000477,7717,WL,B,10.0
2,41.67199993133545,learn,18328.00006866455,Thu Dec 11 2025 16:36:24 GMT-0600 (Central Standard Time),282493.10000002384,A,wi,O,i,197,,7932.899999976158,274560.2000000477,7717,WL,B,10.0
2,41.88700008392334,learn,18112.99991607666,Thu Dec 11 2025 16:36:24 GMT-0600 (Central Standard Time),282707.8000000119,A,win,O,n,200,,8147.599999964237,274560.2000000477,7717,WL,B,10.0
2,42.28699994087219,learn,17713.000059127808,Thu Dec 11 2025 16:36:24 GMT-0600 (Central Standard Time),283107.8000000119,A,wind,O,d,395,,8547.599999964237,274560.2000000477,7717,WL,B,10.0
2,42.45300006866455,learn,17546.99993133545,Thu Dec 11 2025 16:36:24 GMT-0600 (Central Standard Time),283273.90000003576,A,windo,O,o,155,,8713.699999988079,274560.2000000477,7717,WL,B,10.0
2,42.587000131607056,learn,17412.999868392944,Thu Dec 11 2025 16:36:24 GMT-0600 (Central Standard Time),283407.3000000119,A,window,O,w,124,,8847.099999964237,274560.2000000477,7717,WL,B,10.0
2,43.3199999332428,learn,16680.000066757202,Thu Dec 11 2025 16:36:24 GMT-0600 (Central Standard Time),284140.7000000477,A,windowenter,O,enter,719,,9580.5,274560.2000000477,7717,WL,B,10.0
2,43.90300011634827,learn,16096.999883651733,Thu Dec 11 2025 16:36:24 GMT-0600 (Central Standard Time),284724.0,A,enter,O,enter,568,,583.0999999642372,284140.90000003576,7717,WL,B,11.0
2,50.95099997520447,learn,9049.000024795532,Thu Dec 11 2025 16:36:24 GMT-0600 (Central Standard Time),291771.5,A,c,O,c,7033,,7047.299999952316,284724.2000000477,7717,WL,B,12.0
2,51.051000118255615,learn,8948.999881744385,Thu Dec 11 2025 16:36:24 GMT-0600 (Central Standard Time),291871.60000002384,A,ci,O,i,80,,7147.399999976158,284724.2000000477,7717,WL,B,12.0
2,51.301000118255615,learn,8698.999881744385,Thu Dec 11 2025 16:36:24 GMT-0600 (Central Standard Time),292121.90000003576,A,cit,O,t,229,,7397.699999988079,284724.2000000477,7717,WL,B,12.0
2,51.38300013542175,learn,8616.999864578247,Thu Dec 11 2025 16:36:24 GMT-0600 (Central Standard Time),292203.7000000477,A,city,O,y,77,,7479.5,284724.2000000477,7717,WL,B,12.0
2,52.200000047683716,learn,7799.999952316284,Thu Dec 11 2025 16:36:24 GMT-0600 (Central Standard Time),293020.8000000119,A,cityenter,O,enter,801,,8296.599999964237,284724.2000000477,7717,WL,B,12.0
2,60.013999938964844,learn,-13.99993896484375,Thu Dec 11 2025 16:36:24 GMT-0600 (Central Standard Time),300835.5,A,None,O,None,7809,,7814.399999976158,293021.10000002384,7717,WL,B,13.0
3,0.9670000076293945,learn,59032.999992370605,Thu Dec 11 2025 16:36:24 GMT-0600 (Central Standard Time),370147.60000002384,A,s,O,s,962,,967.3000000119209,369180.3000000119,7717,WL,B,1.0
3,1.1490001678466797,learn,58850.99983215332,Thu Dec 11 2025 16:36:24 GMT-0600 (Central Standard Time),370329.7000000477,A,sk,O,k,168,,1149.4000000357628,369180.3000000119,7717,WL,B,1.0
3,1.5329999923706055,learn,58467.000007629395,Thu Dec 11 2025 16:36:24 GMT-0600 (Central Standard Time),370713.0,A,ski,O,i,372,,1532.699999988079,369180.3000000119,7717,WL,B,1.0
3,1.8320000171661377,learn,58167.99998283386,Thu Dec 11 2025 16:36:24 GMT-0600 (Central Standard Time),371012.60000002384,A,skin,O,n,277,,1832.300000011921,369180.3000000119,7717,WL,B,1.0
3,2.2339999675750732,learn,57766.00003242493,Thu Dec 11 2025 16:36:24 GMT-0600 (Central Standard Time),371414.7000000477,A,skinf,O,f,394,,2234.400000035763,369180.3000000119,7717,WL,B,1.0
3,2.381999969482422,learn,57618.00003051758,Thu Dec 11 2025 16:36:24 GMT-0600 (Central Standard Time),371562.40000003576,A,skinfi,O,i,134,,2382.100000023842,369180.3000000119,7717,WL,B,1.0
3,2.5820000171661377,learn,57417.99998283386,Thu Dec 11 2025 16:36:24 GMT-0600 (Central Standard Time),371762.5,A,skinfir,O,r,187,,2582.199999988079,369180.3000000119,7717,WL,B,1.0
3,3.449000120162964,learn,56550.999879837036,Thu Dec 11 2025 16:36:24 GMT-0600 (Central Standard Time),372629.3000000119,A,skinfi,O,backspace,850,,3449.0,369180.3000000119,7717,WL,B,1.0
3,3.8480000495910645,learn,56151.999950408936,Thu Dec 11 2025 16:36:24 GMT-0600 (Central Standard Time),373028.0,A,skinf,O,backspace,393,,3847.699999988079,369180.3000000119,7717,WL,B,1.0
3,4.182000160217285,learn,55817.999839782715,Thu Dec 11 2025 16:36:24 GMT-0600 (Central Standard Time),373362.2000000477,A,skin,O,backspace,321,,4181.900000035763,369180.3000000119,7717,WL,B,1.0
3,5.18500018119812,learn,54814.99981880188,Thu Dec 11 2025 16:36:24 GMT-0600 (Central Standard Time),374364.90000003576,A,skinenter,O,enter,998,,5184.600000023842,369180.3000000119,7717,WL,B,1.0
3,5.814000129699707,learn,54185.99987030029,Thu Dec 11 2025 16:36:24 GMT-0600 (Central Standard Time),374994.0,A,f,O,f,617,,628.6999999880791,374365.3000000119,7717,WL,B,2.0
3,6.014000177383423,learn,53985.99982261658,Thu Dec 11 2025 16:36:24 GMT-0600 (Central Standard Time),375194.5,A,fi,O,i,189,,829.1999999880791,374365.3000000119,7717,WL,B,2.0
3,6.186000108718872,learn,53813.99989128113,Thu Dec 11 2025 16:36:24 GMT-0600 (Central Standard Time),375366.0,A,fir,O,r,165,,1000.6999999880791,374365.3000000119,7717,WL,B,2.0
3,6.348999977111816,learn,53651.00002288818,Thu Dec 11 2025 16:36:24 GMT-0600 (Central Standard Time),375529.2000000477,A,fire,O,e,152,,1163.9000000357628,374365.3000000119,7717,WL,B,2.0
3,6.631999969482422,learn,53368.00003051758,Thu Dec 11 2025 16:36:24 GMT-0600 (Central Standard Time),375812.0,A,fireenter,O,enter,275,,1446.699999988079,374365.3000000119,7717,WL,B,2.0
3,7.065000057220459,learn,52934.99994277954,Thu Dec 11 2025 16:36:24 GMT-0600 (Central Standard Time),376245.10000002384,A,c,O,c,427,,432.89999997615814,375812.2000000477,7717,WL,B,3.0
3,7.281000137329102,learn,52718.9998626709,Thu Dec 11 2025 16:36:24 GMT-0600 (Central Standard Time),376461.60000002384,A,cl,O,l,200,,649.3999999761581,375812.2000000477,7717,WL,B,3.0
3,7.480000019073486,learn,52519.999980926514,Thu Dec 11 2025 16:36:24 GMT-0600 (Central Standard Time),376660.8000000119,A,clo,O,o,194,,848.5999999642372,375812.2000000477,7717,WL,B,3.0
3,7.71399998664856,learn,52286.00001335144,Thu Dec 11 2025 16:36:24 GMT-0600 (Central Standard Time),376894.7000000477,A,cloc,O,c,224,,1082.5,375812.2000000477,7717,WL,B,3.0
3,7.981000185012817,learn,52018.99981498718,Thu Dec 11 2025 16:36:24 GMT-0600 (Central Standard Time),377161.40000003576,A,clock,O,k,245,,1349.199999988079,375812.2000000477,7717,WL,B,3.0
3,8.879000186920166,learn,51120.999813079834,Thu Dec 11 2025 16:36:24 GMT-0600 (Central Standard Time),378059.7000000477,A,clockenter,O,enter,878,,2247.5,375812.2000000477,7717,WL,B,3.0
3,9.46500015258789,learn,50534.99984741211,Thu Dec 11 2025 16:36:24 GMT-0600 (Central Standard Time),378645.3000000119,A,s,O,s,579,,585.3000000119209,378060.0,7717,WL,B,4.0
3,9.680000066757202,learn,50319.9999332428,Thu Dec 11 2025 16:36:24 GMT-0600 (Central Standard Time),378860.3000000119,A,st,O,t,207,,800.3000000119209,378060.0,7717,WL,B,4.0
3,9.94700002670288,learn,50052.99997329712,Thu Dec 11 2025 16:36:24 GMT-0600 (Central Standard Time),379127.0,A,str,O,r,249,,1067.0,378060.0,7717,WL,B,4.0
3,10.19700002670288,learn,49802.99997329712,Thu Dec 11 2025 16:36:24 GMT-0600 (Central Standard Time),379376.90000003576,A,stre,O,e,237,,1316.9000000357628,378060.0,7717,WL,B,4.0
3,10.397000074386597,learn,49602.9999256134,Thu Dec 11 2025 16:36:24 GMT-0600 (Central Standard Time),379577.5,A,stree,O,e,186,,1517.5,378060.0,7717,WL,B,4.0
3,10.713000059127808,learn,49286.99994087219,Thu Dec 11 2025 16:36:24 GMT-0600 (Central Standard Time),379893.40000003576,A,street,O,t,295,,1833.4000000357628,378060.0,7717,WL,B,4.0
3,10.996999979019165,learn,49003.000020980835,Thu Dec 11 2025 16:36:24 GMT-0600 (Central Standard Time),380177.40000003576,A,streetenter,O,enter,262,,2117.400000035763,378060.0,7717,WL,B,4.0
3,11.398000001907349,learn,48601.99999809265,Thu Dec 11 2025 16:36:24 GMT-0600 (Central Standard Time),380578.60000002384,A,g,O,g,383,,400.89999997615814,380177.7000000477,7717,WL,B,5.0
3,11.647000074386597,learn,48352.9999256134,Thu Dec 11 2025 16:36:24 GMT-0600 (Central Standard Time),380827.2000000477,A,gr,O,r,238,,649.5,380177.7000000477,7717,WL,B,5.0
3,11.980000019073486,learn,48019.999980926514,Thu Dec 11 2025 16:36:24 GMT-0600 (Central Standard Time),381160.2000000477,A,gra,O,a,322,,982.5,380177.7000000477,7717,WL,B,5.0
3,12.213000059127808,learn,47786.99994087219,Thu Dec 11 2025 16:36:24 GMT-0600 (Central Standard Time),381393.2000000477,A,gras,O,s,219,,1215.5,380177.7000000477,7717,WL,B,5.0
3,12.446000099182129,learn,47553.99990081787,Thu Dec 11 2025 16:36:24 GMT-0600 (Central Standard Time),381626.2000000477,A,grass,O,s,219,,1448.5,380177.7000000477,7717,WL,B,5.0
3,12.663000106811523,learn,47336.99989318848,Thu Dec 11 2025 16:36:24 GMT-0600 (Central Standard Time),381843.40000003576,A,grassenter,O,enter,193,,1665.699999988079,380177.7000000477,7717,WL,B,5.0
3,12.861000061035156,learn,47138.999938964844,Thu Dec 11 2025 16:36:24 GMT-0600 (Central Standard Time),382041.8000000119,A,a,O,a,187,,198.19999998807907,381843.60000002384,7717,WL,B,6.0
3,13.128000020980835,learn,46871.999979019165,Thu Dec 11 2025 16:36:24 GMT-0600 (Central Standard Time),382308.60000002384,A,ar,O,r,258,,465.0,381843.60000002384,7717,WL,B,6.0
3,13.479000091552734,learn,46520.999908447266,Thu Dec 11 2025 16:36:24 GMT-0600 (Central Standard Time),382659.7000000477,A,arm,O,m,336,,816.1000000238419,381843.60000002384,7717,WL,B,6.0
3,14.077000141143799,learn,45922.9998588562,Thu Dec 11 2025 16:36:24 GMT-0600 (Central Standard Time),383257.7000000477,A,armenter,O,enter,577,,1414.1000000238419,381843.60000002384,7717,WL,B,6.0
3,14.479000091552734,learn,45520.999908447266,Thu Dec 11 2025 16:36:24 GMT-0600 (Central Standard Time),383658.90000003576,A,d,O,d,387,,401.0,383257.90000003576,7717,WL,B,7.0
3,14.812000036239624,learn,45187.999963760376,Thu Dec 11 2025 16:36:24 GMT-0600 (Central Standard Time),383992.3000000119,A,do,O,o,314,,734.3999999761581,383257.90000003576,7717,WL,B,7.0
3,15.01200008392334,learn,44987.99991607666,Thu Dec 11 2025 16:36:24 GMT-0600 (Central Standard Time),384192.0,A,doo,O,o,180,,934.0999999642372,383257.90000003576,7717,WL,B,7.0
3,15.330000162124634,learn,44669.999837875366,Thu Dec 11 2025 16:36:24 GMT-0600 (Central Standard Time),384510.7000000477,A,door,O,r,299,,1252.800000011921,383257.90000003576,7717,WL,B,7.0
3,15.680000066757202,learn,44319.9999332428,Thu Dec 11 2025 16:36:24 GMT-0600 (Central Standard Time),384860.3000000119,A,doorenter,O,enter,341,,1602.3999999761581,383257.90000003576,7717,WL,B,7.0
3,17.644999980926514,learn,42355.000019073486,Thu Dec 11 2025 16:36:24 GMT-0600 (Central Standard Time),386825.5,A,a,O,a,1954,,1965.0,384860.5,7717,WL,B,8.0
3,17.844000101089478,learn,42155.99989891052,Thu Dec 11 2025 16:36:24 GMT-0600 (Central Standard Time),387024.10000002384,A,ar,O,r,179,,2163.600000023842,384860.5,7717,WL,B,8.0
3,18.094000101089478,learn,41905.99989891052,Thu Dec 11 2025 16:36:24 GMT-0600 (Central Standard Time),387274.40000003576,A,arm,O,m,228,,2413.900000035763,384860.5,7717,WL,B,8.0
3,18.72699999809265,learn,41273.00000190735,Thu Dec 11 2025 16:36:24 GMT-0600 (Central Standard Time),387907.60000002384,A,armenter,O,enter,610,,3047.100000023842,384860.5,7717,WL,B,8.0
3,19.127000093460083,learn,40872.99990653992,Thu Dec 11 2025 16:36:24 GMT-0600 (Central Standard Time),388307.60000002384,A,s,O,s,387,,399.80000001192093,387907.8000000119,7717,WL,B,9.0
3,19.546000003814697,learn,40453.9999961853,Thu Dec 11 2025 16:36:24 GMT-0600 (Central Standard Time),388726.0,A,st,O,t,403,,818.1999999880791,387907.8000000119,7717,WL,B,9.0
3,19.72699999809265,learn,40273.00000190735,Thu Dec 11 2025 16:36:24 GMT-0600 (Central Standard Time),388907.0,A,sta,O,a,157,,999.1999999880791,387907.8000000119,7717,WL,B,9.0
3,19.99399995803833,learn,40006.00004196167,Thu Dec 11 2025 16:36:24 GMT-0600 (Central Standard Time),389174.60000002384,A,star,O,r,249,,1266.800000011921,387907.8000000119,7717,WL,B,9.0
3,20.39400005340576,learn,39605.99994659424,Thu Dec 11 2025 16:36:24 GMT-0600 (Central Standard Time),389573.8000000119,A,starenter,O,enter,385,,1666.0,387907.8000000119,7717,WL,B,9.0
3,21.042999982833862,learn,38957.00001716614,Thu Dec 11 2025 16:36:24 GMT-0600 (Central Standard Time),390223.10000002384,A,w,O,w,634,,649.0,389574.10000002384,7717,WL,B,10.0
3,21.210000038146973,learn,38789.99996185303,Thu Dec 11 2025 16:36:24 GMT-0600 (Central Standard Time),390390.60000002384,A,wi,O,i,150,,816.5,389574.10000002384,7717,WL,B,10.0
3,21.37600016593933,learn,38623.99983406067,Thu Dec 11 2025 16:36:24 GMT-0600 (Central Standard Time),390556.60000002384,A,wif,O,f,152,,982.5,389574.10000002384,7717,WL,B,10.0
3,21.608999967575073,learn,38391.00003242493,Thu Dec 11 2025 16:36:24 GMT-0600 (Central Standard Time),390789.2000000477,A,wife,O,e,212,,1215.1000000238419,389574.10000002384,7717,WL,B,10.0
3,21.926000118255615,learn,38073.999881744385,Thu Dec 11 2025 16:36:24 GMT-0600 (Central Standard Time),391106.40000003576,A,wifeenter,O,enter,306,,1532.300000011921,389574.10000002384,7717,WL,B,10.0
3,22.311000108718872,learn,37688.99989128113,Thu Dec 11 2025 16:36:24 GMT-0600 (Central Standard Time),391491.40000003576,A,w,O,w,364,,384.69999998807907,391106.7000000477,7717,WL,B,11.0
3,22.627000093460083,learn,37372.99990653992,Thu Dec 11 2025 16:36:24 GMT-0600 (Central Standard Time),391807.0,A,wi,O,i,305,,700.2999999523163,391106.7000000477,7717,WL,B,11.0
3,22.79200005531311,learn,37207.99994468689,Thu Dec 11 2025 16:36:24 GMT-0600 (Central Standard Time),391972.7000000477,A,win,O,n,159,,866.0,391106.7000000477,7717,WL,B,11.0
3,23.14300012588501,learn,36856.99987411499,Thu Dec 11 2025 16:36:24 GMT-0600 (Central Standard Time),392323.0,A,wind,O,d,345,,1216.2999999523163,391106.7000000477,7717,WL,B,11.0
3,23.47699999809265,learn,36523.00000190735,Thu Dec 11 2025 16:36:24 GMT-0600 (Central Standard Time),392656.90000003576,A,windo,O,o,310,,1550.199999988079,391106.7000000477,7717,WL,B,11.0
3,23.77500009536743,learn,36224.99990463257,Thu Dec 11 2025 16:36:24 GMT-0600 (Central Standard Time),392955.8000000119,A,window,O,w,292,,1849.0999999642372,391106.7000000477,7717,WL,B,11.0
3,24.424000024795532,learn,35575.99997520447,Thu Dec 11 2025 16:36:24 GMT-0600 (Central Standard Time),393604.5,A,windowenter,O,enter,640,,2497.7999999523163,391106.7000000477,7717,WL,B,11.0
3,27.125,learn,32875.0,Thu Dec 11 2025 16:36:24 GMT-0600 (Central Standard Time),396305.40000003576,A,c,O,c,2681,,2700.5,393604.90000003576,7717,WL,B,12.0
3,27.324000120162964,learn,32675.999879837036,Thu Dec 11 2025 16:36:24 GMT-0600 (Central Standard Time),396504.2000000477,A,ci,O,i,189,,2899.300000011921,393604.90000003576,7717,WL,B,12.0
3,27.60800004005432,learn,32391.99995994568,Thu Dec 11 2025 16:36:24 GMT-0600 (Central Standard Time),396788.40000003576,A,cit,O,t,275,,3183.5,393604.90000003576,7717,WL,B,12.0
3,27.70800018310547,learn,32291.99981689453,Thu Dec 11 2025 16:36:24 GMT-0600 (Central Standard Time),396888.10000002384,A,city,O,y,79,,3283.199999988079,393604.90000003576,7717,WL,B,12.0
3,28.125,learn,31875.0,Thu Dec 11 2025 16:36:24 GMT-0600 (Central Standard Time),397305.0,A,cityenter,O,enter,404,,3700.099999964237,393604.90000003576,7717,WL,B,12.0
3,28.824000120162964,learn,31175.999879837036,Thu Dec 11 2025 16:36:24 GMT-0600 (Central Standard Time),398004.0,A,p,O,p,685,,698.7999999523163,397305.2000000477,7717,WL,B,13.0
3,28.992000102996826,learn,31007.999897003174,Thu Dec 11 2025 16:36:24 GMT-0600 (Central Standard Time),398172.8000000119,A,pu,O,u,153,,867.5999999642372,397305.2000000477,7717,WL,B,13.0
3,29.189000129699707,learn,30810.999870300293,Thu Dec 11 2025 16:36:24 GMT-0600 (Central Standard Time),398369.10000002384,A,pup,O,p,180,,1063.8999999761581,397305.2000000477,7717,WL,B,13.0
3,29.374000072479248,learn,30625.999927520752,Thu Dec 11 2025 16:36:24 GMT-0600 (Central Standard Time),398554.3000000119,A,pupi,O,i,182,,1249.0999999642372,397305.2000000477,7717,WL,B,13.0
3,29.77400016784668,learn,30225.99983215332,Thu Dec 11 2025 16:36:24 GMT-0600 (Central Standard Time),398954.90000003576,A,pupil,O,l,388,,1649.699999988079,397305.2000000477,7717,WL,B,13.0
3,30.240000009536743,learn,29759.999990463257,Thu Dec 11 2025 16:36:24 GMT-0600 (Central Standard Time),399420.7000000477,A,pupilenter,O,enter,444,,2115.5,397305.2000000477,7717,WL,B,13.0
3,30.624000072479248,learn,29375.999927520752,Thu Dec 11 2025 16:36:24 GMT-0600 (Central Standard Time),399804.0,A,c,O,c,369,,383.0,399421.0,7717,WL,B,14.0
3,30.77400016784668,learn,29225.99983215332,Thu Dec 11 2025 16:36:24 GMT-0600 (Central Standard Time),399954.2000000477,A,ca,O,a,128,,533.2000000476837,399421.0,7717,WL,B,14.0
3,31.00600004196167,learn,28993.99995803833,Thu Dec 11 2025 16:36:24 GMT-0600 (Central Standard Time),400186.7000000477,A,cab,O,b,218,,765.7000000476837,399421.0,7717,WL,B,14.0
3,31.174000024795532,learn,28825.999975204468,Thu Dec 11 2025 16:36:24 GMT-0600 (Central Standard Time),400355.3000000119,A,cabi,O,i,155,,934.3000000119209,399421.0,7717,WL,B,14.0
3,31.35700011253357,learn,28642.99988746643,Thu Dec 11 2025 16:36:24 GMT-0600 (Central Standard Time),400537.2000000477,A,cabin,O,n,170,,1116.2000000476837,399421.0,7717,WL,B,14.0
3,31.789000034332275,learn,28210.999965667725,Thu Dec 11 2025 16:36:24 GMT-0600 (Central Standard Time),400969.2000000477,A,cabinenter,O,enter,411,,1548.2000000476837,399421.0,7717,WL,B,14.0
3,32.25600004196167,learn,27743.99995803833,Thu Dec 11 2025 16:36:24 GMT-0600 (Central Standard Time),401436.3000000119,A,l,O,l,452,,466.89999997615814,400969.40000003576,7717,WL,B,15.0
3,32.44000005722046,learn,27559.99994277954,Thu Dec 11 2025 16:36:24 GMT-0600 (Central Standard Time),401620.40000003576,A,la,O,a,161,,651.0,400969.40000003576,7717,WL,B,15.0
3,32.69000005722046,learn,27309.99994277954,Thu Dec 11 2025 16:36:24 GMT-0600 (Central Standard Time),401870.5,A,lak,O,k,228,,901.0999999642372,400969.40000003576,7717,WL,B,15.0
3,32.88800001144409,learn,27111.99998855591,Thu Dec 11 2025 16:36:24 GMT-0600 (Central Standard Time),402068.8000000119,A,lake,O,e,189,,1099.3999999761581,400969.40000003576,7717,WL,B,15.0
3,33.42300009727478,learn,26576.99990272522,Thu Dec 11 2025 16:36:24 GMT-0600 (Central Standard Time),402602.8000000119,A,lakeenter,O,enter,521,,1633.3999999761581,400969.40000003576,7717,WL,B,15.0
4,1.183000087738037,learn,58816.99991226196,Thu Dec 11 2025 16:36:24 GMT-0600 (Central Standard Time),477263.90000003576,A,l,O,l,1174,,1183.4000000357628,476080.5,7717,WL,B,1.0
4,1.4819998741149902,learn,58518.00012588501,Thu Dec 11 2025 16:36:24 GMT-0600 (Central Standard Time),477563.40000003576,A,la,O,a,277,,1482.9000000357628,476080.5,7717,WL,B,1.0
4,1.6489999294281006,learn,58351.0000705719,Thu Dec 11 2025 16:36:24 GMT-0600 (Central Standard Time),477729.90000003576,A,lak,O,k,145,,1649.4000000357628,476080.5,7717,WL,B,1.0
4,1.930999994277954,learn,58069.000005722046,Thu Dec 11 2025 16:36:24 GMT-0600 (Central Standard Time),478012.5,A,lake,O,e,267,,1932.0,476080.5,7717,WL,B,1.0
4,3.7809998989105225,learn,56219.00010108948,Thu Dec 11 2025 16:36:24 GMT-0600 (Central Standard Time),479861.60000002384,A,lakeenter,O,enter,1839,,3781.100000023842,476080.5,7717,WL,B,1.0
4,4.379999876022339,learn,55620.00012397766,Thu Dec 11 2025 16:36:24 GMT-0600 (Central Standard Time),480460.5,A,p,O,p,592,,598.6999999880791,479861.8000000119,7717,WL,B,2.0
4,4.664000034332275,learn,55335.999965667725,Thu Dec 11 2025 16:36:24 GMT-0600 (Central Standard Time),480745.40000003576,A,pi,O,i,263,,883.6000000238419,479861.8000000119,7717,WL,B,2.0
4,4.980000019073486,learn,55019.999980926514,Thu Dec 11 2025 16:36:24 GMT-0600 (Central Standard Time),481060.8000000119,A,pip,O,p,310,,1199.0,479861.8000000119,7717,WL,B,2.0
4,5.263999938964844,learn,54736.000061035156,Thu Dec 11 2025 16:36:24 GMT-0600 (Central Standard Time),481344.5,A,pipe,O,e,274,,1482.699999988079,479861.8000000119,7717,WL,B,2.0
4,6.079999923706055,learn,53920.000076293945,Thu Dec 11 2025 16:36:24 GMT-0600 (Central Standard Time),482161.40000003576,A,pipeenter,O,enter,807,,2299.600000023842,479861.8000000119,7717,WL,B,2.0
4,7.046000003814697,learn,52953.9999961853,Thu Dec 11 2025 16:36:24 GMT-0600 (Central Standard Time),483127.5,A,f,O,f,958,,965.8999999761581,482161.60000002384,7717,WL,B,3.0
4,7.263000011444092,learn,52736.99998855591,Thu Dec 11 2025 16:36:24 GMT-0600 (Central Standard Time),483344.60000002384,A,fi,O,i,198,,1183.0,482161.60000002384,7717,WL,B,3.0
4,7.463000059127808,learn,52536.99994087219,Thu Dec 11 2025 16:36:24 GMT-0600 (Central Standard Time),483543.8000000119,A,fir,O,r,178,,1382.199999988079,482161.60000002384,7717,WL,B,3.0
4,7.680000066757202,learn,52319.9999332428,Thu Dec 11 2025 16:36:24 GMT-0600 (Central Standard Time),483760.8000000119,A,fire,O,e,205,,1599.199999988079,482161.60000002384,7717,WL,B,3.0
4,7.980000019073486,learn,52019.999980926514,Thu Dec 11 2025 16:36:24 GMT-0600 (Central Standard Time),484060.60000002384,A,fireenter,O,enter,282,,1899.0,482161.60000002384,7717,WL,B,3.0
4,8.578999996185303,learn,51421.0000038147,Thu Dec 11 2025 16:36:24 GMT-0600 (Central Standard Time),484659.90000003576,A,s,O,s,593,,599.1000000238419,484060.8000000119,7717,WL,B,4.0
4,8.828999996185303,learn,51171.0000038147,Thu Dec 11 2025 16:36:24 GMT-0600 (Central Standard Time),484909.8000000119,A,sk,O,k,231,,849.0,484060.8000000119,7717,WL,B,4.0
4,9.111999988555908,learn,50888.00001144409,Thu Dec 11 2025 16:36:24 GMT-0600 (Central Standard Time),485193.2000000477,A,ski,O,i,262,,1132.4000000357628,484060.8000000119,7717,WL,B,4.0
4,9.296000003814697,learn,50703.9999961853,Thu Dec 11 2025 16:36:24 GMT-0600 (Central Standard Time),485376.60000002384,A,skin,O,n,169,,1315.800000011921,484060.8000000119,7717,WL,B,4.0
4,10.162999868392944,learn,49837.000131607056,Thu Dec 11 2025 16:36:24 GMT-0600 (Central Standard Time),486244.0,A,skinenter,O,enter,846,,2183.199999988079,484060.8000000119,7717,WL,B,4.0
4,10.84500002861023,learn,49154.99997138977,Thu Dec 11 2025 16:36:24 GMT-0600 (Central Standard Time),486925.90000003576,A,c,O,c,674,,681.6999999880791,486244.2000000477,7717,WL,B,5.0
4,10.979000091552734,learn,49020.999908447266,Thu Dec 11 2025 16:36:24 GMT-0600 (Central Standard Time),487059.60000002384,A,cl,O,l,125,,815.3999999761581,486244.2000000477,7717,WL,B,5.0
4,11.210999965667725,learn,48789.000034332275,Thu Dec 11 2025 16:36:24 GMT-0600 (Central Standard Time),487292.5,A,clo,O,o,215,,1048.2999999523163,486244.2000000477,7717,WL,B,5.0
4,11.444999933242798,learn,48555.0000667572,Thu Dec 11 2025 16:36:24 GMT-0600 (Central Standard Time),487525.60000002384,A,cloc,O,c,214,,1281.3999999761581,486244.2000000477,7717,WL,B,5.0
4,11.59500002861023,learn,48404.99997138977,Thu Dec 11 2025 16:36:24 GMT-0600 (Central Standard Time),487675.90000003576,A,clock,O,k,129,,1431.699999988079,486244.2000000477,7717,WL,B,5.0
4,12.128000020980835,learn,47871.999979019165,Thu Dec 11 2025 16:36:24 GMT-0600 (Central Standard Time),488209.10000002384,A,clockenter,O,enter,518,,1964.8999999761581,486244.2000000477,7717,WL,B,5.0
4,13.226999998092651,learn,46773.00000190735,Thu Dec 11 2025 16:36:24 GMT-0600 (Central Standard Time),489308.5,A,s,O,s,1085,,1099.0999999642372,488209.40000003576,7717,WL,B,6.0
4,13.477999925613403,learn,46522.0000743866,Thu Dec 11 2025 16:36:24 GMT-0600 (Central Standard Time),489558.60000002384,A,st,O,t,235,,1349.199999988079,488209.40000003576,7717,WL,B,6.0
4,13.74399995803833,learn,46256.00004196167,Thu Dec 11 2025 16:36:24 GMT-0600 (Central Standard Time),489824.90000003576,A,str,O,r,252,,1615.5,488209.40000003576,7717,WL,B,6.0
4,14.010999917984009,learn,45989.00008201599,Thu Dec 11 2025 16:36:24 GMT-0600 (Central Standard Time),490091.7000000477,A,stre,O,e,258,,1882.300000011921,488209.40000003576,7717,WL,B,6.0
4,14.226999998092651,learn,45773.00000190735,Thu Dec 11 2025 16:36:24 GMT-0600 (Central Standard Time),490308.10000002384,A,stree,O,e,209,,2098.699999988079,488209.40000003576,7717,WL,B,6.0
4,14.526999950408936,learn,45473.000049591064,Thu Dec 11 2025 16:36:24 GMT-0600 (Central Standard Time),490608.0,A,street,O,t,286,,2398.599999964237,488209.40000003576,7717,WL,B,6.0
4,15.127000093460083,learn,44872.99990653992,Thu Dec 11 2025 16:36:24 GMT-0600 (Central Standard Time),491208.2000000477,A,streetenter,O,enter,578,,2998.800000011921,488209.40000003576,7717,WL,B,6.0
4,15.943000078201294,learn,44056.999921798706,Thu Dec 11 2025 16:36:24 GMT-0600 (Central Standard Time),492024.2000000477,A,g,O,g,806,,815.7000000476837,491208.5,7717,WL,B,7.0
4,16.210000038146973,learn,43789.99996185303,Thu Dec 11 2025 16:36:24 GMT-0600 (Central Standard Time),492290.90000003576,A,gr,O,r,244,,1082.4000000357628,491208.5,7717,WL,B,7.0
4,16.361000061035156,learn,43638.999938964844,Thu Dec 11 2025 16:36:24 GMT-0600 (Central Standard Time),492441.8000000119,A,gre,O,e,142,,1233.300000011921,491208.5,7717,WL,B,7.0
4,17.41000008583069,learn,42589.99991416931,Thu Dec 11 2025 16:36:24 GMT-0600 (Central Standard Time),493491.0,A,gr,O,backspace,1030,,2282.5,491208.5,7717,WL,B,7.0
4,17.64199995994568,learn,42358.00004005432,Thu Dec 11 2025 16:36:24 GMT-0600 (Central Standard Time),493723.40000003576,A,gra,O,a,219,,2514.900000035763,491208.5,7717,WL,B,7.0
4,17.859999895095825,learn,42140.000104904175,Thu Dec 11 2025 16:36:24 GMT-0600 (Central Standard Time),493941.2000000477,A,gras,O,s,212,,2732.7000000476837,491208.5,7717,WL,B,7.0
4,18.109999895095825,learn,41890.000104904175,Thu Dec 11 2025 16:36:24 GMT-0600 (Central Standard Time),494190.90000003576,A,grass,O,s,230,,2982.400000035763,491208.5,7717,WL,B,7.0
4,18.375999927520752,learn,41624.00007247925,Thu Dec 11 2025 16:36:24 GMT-0600 (Central Standard Time),494456.5,A,grassenter,O,enter,253,,3248.0,491208.5,7717,WL,B,7.0
4,19.79200005531311,learn,40207.99994468689,Thu Dec 11 2025 16:36:24 GMT-0600 (Central Standard Time),495873.0,A,d,O,d,1397,,1416.2999999523163,494456.7000000477,7717,WL,B,8.0
4,19.960000038146973,learn,40039.99996185303,Thu Dec 11 2025 16:36:24 GMT-0600 (Central Standard Time),496041.3000000119,A,do,O,o,152,,1584.5999999642372,494456.7000000477,7717,WL,B,8.0
4,20.175999879837036,learn,39824.000120162964,Thu Dec 11 2025 16:36:24 GMT-0600 (Central Standard Time),496257.2000000477,A,doo,O,o,193,,1800.5,494456.7000000477,7717,WL,B,8.0
4,20.41000008583069,learn,39589.99991416931,Thu Dec 11 2025 16:36:24 GMT-0600 (Central Standard Time),496490.8000000119,A,door,O,r,217,,2034.0999999642372,494456.7000000477,7717,WL,B,8.0
4,20.691999912261963,learn,39308.00008773804,Thu Dec 11 2025 16:36:24 GMT-0600 (Central Standard Time),496772.8000000119,A,doorenter,O,enter,270,,2316.099999964237,494456.7000000477,7717,WL,B,8.0
4,21.02500009536743,learn,38974.99990463257,Thu Dec 11 2025 16:36:24 GMT-0600 (Central Standard Time),497105.8000000119,A,a,O,a,321,,332.80000001192093,496773.0,7717,WL,B,9.0
4,21.591000080108643,learn,38408.99991989136,Thu Dec 11 2025 16:36:24 GMT-0600 (Central Standard Time),497672.40000003576,A,ar,O,r,546,,899.4000000357628,496773.0,7717,WL,B,9.0
4,21.924999952316284,learn,38075.000047683716,Thu Dec 11 2025 16:36:24 GMT-0600 (Central Standard Time),498005.60000002384,A,arm,O,m,320,,1232.6000000238419,496773.0,7717,WL,B,9.0
4,22.407999992370605,learn,37592.000007629395,Thu Dec 11 2025 16:36:24 GMT-0600 (Central Standard Time),498489.0,A,armenter,O,enter,469,,1716.0,496773.0,7717,WL,B,9.0
4,24.69099998474121,learn,35309.00001525879,Thu Dec 11 2025 16:36:24 GMT-0600 (Central Standard Time),500771.8000000119,A,w,O,w,2261,,2282.5,498489.3000000119,7717,WL,B,10.0
4,25.0239999294281,learn,34976.0000705719,Thu Dec 11 2025 16:36:24 GMT-0600 (Central Standard Time),501104.7000000477,A,wi,O,i,318,,2615.400000035763,498489.3000000119,7717,WL,B,10.0
4,25.19000005722046,learn,34809.99994277954,Thu Dec 11 2025 16:36:24 GMT-0600 (Central Standard Time),501271.3000000119,A,wif,O,f,143,,2782.0,498489.3000000119,7717,WL,B,10.0
4,25.407000064849854,learn,34592.99993515015,Thu Dec 11 2025 16:36:24 GMT-0600 (Central Standard Time),501487.8000000119,A,wife,O,e,200,,2998.5,498489.3000000119,7717,WL,B,10.0
4,25.67300009727478,learn,34326.99990272522,Thu Dec 11 2025 16:36:24 GMT-0600 (Central Standard Time),501754.3000000119,A,wifeenter,O,enter,259,,3265.0,498489.3000000119,7717,WL,B,10.0
4,25.990999937057495,learn,34009.000062942505,Thu Dec 11 2025 16:36:24 GMT-0600 (Central Standard Time),502071.5,A,w,O,w,299,,317.0,501754.5,7717,WL,B,11.0
4,26.240000009536743,learn,33759.99999046326,Thu Dec 11 2025 16:36:24 GMT-0600 (Central Standard Time),502321.2000000477,A,wi,O,i,227,,566.7000000476837,501754.5,7717,WL,B,11.0
4,26.407999992370605,learn,33592.000007629395,Thu Dec 11 2025 16:36:24 GMT-0600 (Central Standard Time),502488.90000003576,A,win,O,n,145,,734.4000000357628,501754.5,7717,WL,B,11.0
4,26.822999954223633,learn,33177.00004577637,Thu Dec 11 2025 16:36:24 GMT-0600 (Central Standard Time),502904.2000000477,A,wind,O,d,395,,1149.7000000476837,501754.5,7717,WL,B,11.0
4,27.08899998664856,learn,32911.00001335144,Thu Dec 11 2025 16:36:24 GMT-0600 (Central Standard Time),503170.3000000119,A,windo,O,o,242,,1415.800000011921,501754.5,7717,WL,B,11.0
4,27.35599994659424,learn,32644.00005340576,Thu Dec 11 2025 16:36:24 GMT-0600 (Central Standard Time),503437.2000000477,A,window,O,w,249,,1682.7000000476837,501754.5,7717,WL,B,11.0
4,27.973000049591064,learn,32026.999950408936,Thu Dec 11 2025 16:36:24 GMT-0600 (Central Standard Time),504054.10000002384,A,windowenter,O,enter,594,,2299.600000023842,501754.5,7717,WL,B,11.0
4,28.27300000190735,learn,31726.99999809265,Thu Dec 11 2025 16:36:24 GMT-0600 (Central Standard Time),504353.90000003576,A,s,O,s,288,,299.5,504054.40000003576,7717,WL,B,12.0
4,28.50600004196167,learn,31493.99995803833,Thu Dec 11 2025 16:36:24 GMT-0600 (Central Standard Time),504587.40000003576,A,st,O,t,208,,533.0,504054.40000003576,7717,WL,B,12.0
4,28.69000005722046,learn,31309.99994277954,Thu Dec 11 2025 16:36:24 GMT-0600 (Central Standard Time),504770.7000000477,A,sta,O,a,165,,716.3000000119209,504054.40000003576,7717,WL,B,12.0
4,28.98900008201599,learn,31010.99991798401,Thu Dec 11 2025 16:36:24 GMT-0600 (Central Standard Time),505069.90000003576,A,star,O,r,288,,1015.5,504054.40000003576,7717,WL,B,12.0
4,29.405999898910522,learn,30594.000101089478,Thu Dec 11 2025 16:36:24 GMT-0600 (Central Standard Time),505486.90000003576,A,starenter,O,enter,404,,1432.5,504054.40000003576,7717,WL,B,12.0
4,30.039000034332275,learn,29960.999965667725,Thu Dec 11 2025 16:36:24 GMT-0600 (Central Standard Time),506119.8000000119,A,c,O,c,615,,632.6999999880791,505487.10000002384,7717,WL,B,13.0
4,30.240000009536743,learn,29759.999990463257,Thu Dec 11 2025 16:36:24 GMT-0600 (Central Standard Time),506320.8000000119,A,ci,O,i,177,,833.6999999880791,505487.10000002384,7717,WL,B,13.0
4,30.555999994277954,learn,29444.000005722046,Thu Dec 11 2025 16:36:24 GMT-0600 (Central Standard Time),506636.60000002384,A,cit,O,t,305,,1149.5,505487.10000002384,7717,WL,B,13.0
4,30.822999954223633,learn,29177.000045776367,Thu Dec 11 2025 16:36:24 GMT-0600 (Central Standard Time),506904.10000002384,A,city,O,y,243,,1417.0,505487.10000002384,7717,WL,B,13.0
4,31.721999883651733,learn,28278.000116348267,Thu Dec 11 2025 16:36:24 GMT-0600 (Central Standard Time),507803.40000003576,A,cityenter,O,enter,891,,2316.300000011921,505487.10000002384,7717,WL,B,13.0
4,32.65499997138977,learn,27345.00002861023,Thu Dec 11 2025 16:36:24 GMT-0600 (Central Standard Time),508735.8000000119,A,l,O,l,923,,932.0,507803.8000000119,7717,WL,B,14.0
4,32.83800005912781,learn,27161.999940872192,Thu Dec 11 2025 16:36:24 GMT-0600 (Central Standard Time),508918.7000000477,A,la,O,a,171,,1114.9000000357628,507803.8000000119,7717,WL,B,14.0
4,33.05399990081787,learn,26946.00009918213,Thu Dec 11 2025 16:36:24 GMT-0600 (Central Standard Time),509135.5,A,lak,O,k,202,,1331.699999988079,507803.8000000119,7717,WL,B,14.0
4,33.27300000190735,learn,26726.99999809265,Thu Dec 11 2025 16:36:24 GMT-0600 (Central Standard Time),509354.3000000119,A,lake,O,e,205,,1550.5,507803.8000000119,7717,WL,B,14.0
4,35.037999868392944,learn,24962.000131607056,Thu Dec 11 2025 16:36:24 GMT-0600 (Central Standard Time),511118.7000000477,A,lakeenter,O,enter,1743,,3314.900000035763,507803.8000000119,7717,WL,B,14.0
4,35.736000061035156,learn,24263.999938964844,Thu Dec 11 2025 16:36:24 GMT-0600 (Central Standard Time),511816.90000003576,A,c,O,c,678,,697.9000000357628,511119.0,7717,WL,B,15.0
4,35.86899995803833,learn,24131.00004196167,Thu Dec 11 2025 16:36:24 GMT-0600 (Central Standard Time),511950.0,A,ca,O,a,118,,831.0,511119.0,7717,WL,B,15.0
4,36.2039999961853,learn,23796.000003814697,Thu Dec 11 2025 16:36:24 GMT-0600 (Central Standard Time),512284.5,A,cab,O,b,321,,1165.5,511119.0,7717,WL,B,15.0
4,36.40400004386902,learn,23595.99995613098,Thu Dec 11 2025 16:36:24 GMT-0600 (Central Standard Time),512485.2000000477,A,cabi,O,i,193,,1366.2000000476837,511119.0,7717,WL,B,15.0
4,36.687000036239624,learn,23312.999963760376,Thu Dec 11 2025 16:36:24 GMT-0600 (Central Standard Time),512768.3000000119,A,cabin,O,n,264,,1649.300000011921,511119.0,7717,WL,B,15.0
4,37.86899995803833,learn,22131.00004196167,Thu Dec 11 2025 16:36:24 GMT-0600 (Central Standard Time),513949.7000000477,A,cabinenter,O,enter,1170,,2830.7000000476837,511119.0,7717,WL,B,15.0
5,0.4330000877380371,learn,60000.0,Thu Dec 11 2025 16:36:24 GMT-0600 (Central Standard Time),584162.0,A,s,O,s,421,,432.7999999523163,583729.2000000477,7717,WL,B,1.0
5,0.749000072479248,learn,60000.0,Thu Dec 11 2025 16:36:24 GMT-0600 (Central Standard Time),584478.5,A,st,O,t,308,,749.2999999523163,583729.2000000477,7717,WL,B,1.0
5,1.065999984741211,learn,60000.0,Thu Dec 11 2025 16:36:24 GMT-0600 (Central Standard Time),584795.3000000119,A,str,O,r,312,,1066.0999999642372,583729.2000000477,7717,WL,B,1.0
5,1.3650000095367432,learn,60000.0,Thu Dec 11 2025 16:36:24 GMT-0600 (Central Standard Time),585094.5,A,stre,O,e,289,,1365.2999999523163,583729.2000000477,7717,WL,B,1.0
5,1.6150000095367432,learn,60000.0,Thu Dec 11 2025 16:36:24 GMT-0600 (Central Standard Time),585344.3000000119,A,stree,O,e,232,,1615.0999999642372,583729.2000000477,7717,WL,B,1.0
5,1.933000087738037,learn,60000.0,Thu Dec 11 2025 16:36:24 GMT-0600 (Central Standard Time),585661.9000000358,A,street,O,t,301,,1932.699999988079,583729.2000000477,7717,WL,B,1.0
5,2.499000072479248,learn,60000.0,Thu Dec 11 2025 16:36:24 GMT-0600 (Central Standard Time),586228.2000000477,A,streetenter,O,enter,559,,2499.0,583729.2000000477,7717,WL,B,1.0
5,2.9149999618530273,learn,60000.0,Thu Dec 11 2025 16:36:24 GMT-0600 (Central Standard Time),586644.3000000119,A,g,O,g,401,,415.80000001192093,586228.5,7717,WL,B,2.0
5,3.200000047683716,learn,60000.0,Thu Dec 11 2025 16:36:24 GMT-0600 (Central Standard Time),586929.3000000119,A,gr,O,r,271,,700.8000000119209,586228.5,7717,WL,B,2.0
5,3.381999969482422,learn,60000.0,Thu Dec 11 2025 16:36:24 GMT-0600 (Central Standard Time),587111.5,A,gra,O,a,162,,883.0,586228.5,7717,WL,B,2.0
5,3.631999969482422,learn,60000.0,Thu Dec 11 2025 16:36:24 GMT-0600 (Central Standard Time),587361.6000000238,A,gras,O,s,238,,1133.1000000238419,586228.5,7717,WL,B,2.0
5,3.931999921798706,learn,60000.0,Thu Dec 11 2025 16:36:24 GMT-0600 (Central Standard Time),587661.4000000358,A,grass,O,s,295,,1432.9000000357628,586228.5,7717,WL,B,2.0
5,4.799000024795532,learn,60000.0,Thu Dec 11 2025 16:36:24 GMT-0600 (Central Standard Time),588528.3000000119,A,grassenter,O,enter,857,,2299.800000011921,586228.5,7717,WL,B,2.0
5,5.716000080108643,learn,60000.0,Thu Dec 11 2025 16:36:24 GMT-0600 (Central Standard Time),589444.7000000477,A,d,O,d,902,,916.1000000238419,588528.6000000238,7717,WL,B,3.0
5,6.081000089645386,learn,60000.0,Thu Dec 11 2025 16:36:24 GMT-0600 (Central Standard Time),589810.1000000238,A,do,O,o,345,,1281.5,588528.6000000238,7717,WL,B,3.0
5,6.2809998989105225,learn,60000.0,Thu Dec 11 2025 16:36:24 GMT-0600 (Central Standard Time),590009.8000000119,A,doo,O,o,180,,1481.199999988079,588528.6000000238,7717,WL,B,3.0
5,7.697000026702881,learn,60000.0,Thu Dec 11 2025 16:36:24 GMT-0600 (Central Standard Time),591426.0,A,door,O,r,1403,,2897.399999976158,588528.6000000238,7717,WL,B,3.0
5,8.44700002670288,learn,60000.0,Thu Dec 11 2025 16:36:24 GMT-0600 (Central Standard Time),592175.9000000358,A,doorenter,O,enter,742,,3647.300000011921,588528.6000000238,7717,WL,B,3.0
5,8.846999883651733,learn,60000.0,Thu Dec 11 2025 16:36:24 GMT-0600 (Central Standard Time),592576.1000000238,A,a,O,a,382,,399.89999997615814,592176.2000000477,7717,WL,B,4.0
5,9.062999963760376,learn,60000.0,Thu Dec 11 2025 16:36:24 GMT-0600 (Central Standard Time),592792.7000000477,A,ar,O,r,205,,616.5,592176.2000000477,7717,WL,B,4.0
5,9.397000074386597,learn,60000.0,Thu Dec 11 2025 16:36:24 GMT-0600 (Central Standard Time),593125.9000000358,A,arm,O,m,316,,949.6999999880791,592176.2000000477,7717,WL,B,4.0
5,9.86299991607666,learn,60000.0,Thu Dec 11 2025 16:36:24 GMT-0600 (Central Standard Time),593592.4000000358,A,armenter,O,enter,457,,1416.199999988079,592176.2000000477,7717,WL,B,4.0
5,10.77999997138977,learn,60000.0,Thu Dec 11 2025 16:36:24 GMT-0600 (Central Standard Time),594509.1000000238,A,w,O,w,902,,916.5,593592.6000000238,7717,WL,B,5.0
5,11.045000076293945,learn,60000.0,Thu Dec 11 2025 16:36:24 GMT-0600 (Central Standard Time),594774.5,A,wf,O,f,248,,1181.8999999761581,593592.6000000238,7717,WL,B,5.0
5,14.043999910354614,learn,60000.0,Thu Dec 11 2025 16:36:24 GMT-0600 (Central Standard Time),597773.2000000477,A,w,O,backspace,2992,,4180.600000023842,593592.6000000238,7717,WL,B,5.0
5,14.894000053405762,learn,60000.0,Thu Dec 11 2025 16:36:24 GMT-0600 (Central Standard Time),598624.0,A,wi,O,i,832,,5031.399999976158,593592.6000000238,7717,WL,B,5.0
5,15.16100001335144,learn,60000.0,Thu Dec 11 2025 16:36:24 GMT-0600 (Central Standard Time),598890.4000000358,A,wif,O,f,260,,5297.800000011921,593592.6000000238,7717,WL,B,5.0
5,15.593999862670898,learn,60000.0,Thu Dec 11 2025 16:36:24 GMT-0600 (Central Standard Time),599323.7000000477,A,wife,O,e,419,,5731.100000023842,593592.6000000238,7717,WL,B,5.0
5,16.042999982833862,learn,60000.0,Thu Dec 11 2025 16:36:24 GMT-0600 (Central Standard Time),599772.6000000238,A,wifeenter,O,enter,433,,6180.0,593592.6000000238,7717,WL,B,5.0
5,16.628000020980835,learn,60000.0,Thu Dec 11 2025 16:36:24 GMT-0600 (Central Standard Time),600357.0,A,s,O,s,569,,584.1999999880791,599772.8000000119,7717,WL,B,6.0
5,16.97699999809265,learn,60000.0,Thu Dec 11 2025 16:36:24 GMT-0600 (Central Standard Time),600706.3000000119,A,st,O,t,336,,933.5,599772.8000000119,7717,WL,B,6.0
5,17.20899987220764,learn,60000.0,Thu Dec 11 2025 16:36:24 GMT-0600 (Central Standard Time),600939.0,A,sta,O,a,219,,1166.199999988079,599772.8000000119,7717,WL,B,6.0
5,17.47699999809265,learn,60000.0,Thu Dec 11 2025 16:36:24 GMT-0600 (Central Standard Time),601206.1000000238,A,star,O,r,258,,1433.300000011921,599772.8000000119,7717,WL,B,6.0
5,17.810999870300293,learn,60000.0,Thu Dec 11 2025 16:36:24 GMT-0600 (Central Standard Time),601540.7000000477,A,starenter,O,enter,330,,1767.9000000357628,599772.8000000119,7717,WL,B,6.0
5,18.2260000705719,learn,60000.0,Thu Dec 11 2025 16:36:24 GMT-0600 (Central Standard Time),601955.9000000358,A,w,O,w,402,,415.0,601540.9000000358,7717,WL,B,7.0
5,18.493000030517578,learn,60000.0,Thu Dec 11 2025 16:36:24 GMT-0600 (Central Standard Time),602222.4000000358,A,wi,O,i,250,,681.5,601540.9000000358,7717,WL,B,7.0
5,18.677000045776367,learn,60000.0,Thu Dec 11 2025 16:36:24 GMT-0600 (Central Standard Time),602406.9000000358,A,win,O,n,166,,866.0,601540.9000000358,7717,WL,B,7.0
5,18.92799997329712,learn,60000.0,Thu Dec 11 2025 16:36:24 GMT-0600 (Central Standard Time),602657.3000000119,A,wind,O,d,230,,1116.3999999761581,601540.9000000358,7717,WL,B,7.0
5,19.427000045776367,learn,60000.0,Thu Dec 11 2025 16:36:24 GMT-0600 (Central Standard Time),603156.6000000238,A,windo,O,o,482,,1615.699999988079,601540.9000000358,7717,WL,B,7.0
5,19.7260000705719,learn,60000.0,Thu Dec 11 2025 16:36:24 GMT-0600 (Central Standard Time),603455.2000000477,A,window,O,w,289,,1914.300000011921,601540.9000000358,7717,WL,B,7.0
5,20.30900001525879,learn,60000.0,Thu Dec 11 2025 16:36:24 GMT-0600 (Central Standard Time),604038.5,A,windowenter,O,enter,568,,2497.599999964237,601540.9000000358,7717,WL,B,7.0
5,20.710000038146973,learn,60000.0,Thu Dec 11 2025 16:36:24 GMT-0600 (Central Standard Time),604439.4000000358,A,c,O,c,383,,400.60000002384186,604038.8000000119,7717,WL,B,8.0
5,20.9760000705719,learn,60000.0,Thu Dec 11 2025 16:36:24 GMT-0600 (Central Standard Time),604705.5,A,ci,O,i,247,,666.6999999880791,604038.8000000119,7717,WL,B,8.0
5,21.27500009536743,learn,60000.0,Thu Dec 11 2025 16:36:24 GMT-0600 (Central Standard Time),605004.9000000358,A,cit,O,t,291,,966.1000000238419,604038.8000000119,7717,WL,B,8.0
5,21.509000062942505,learn,60000.0,Thu Dec 11 2025 16:36:24 GMT-0600 (Central Standard Time),605238.3000000119,A,city,O,y,221,,1199.5,604038.8000000119,7717,WL,B,8.0
5,22.04200005531311,learn,60000.0,Thu Dec 11 2025 16:36:24 GMT-0600 (Central Standard Time),605771.8000000119,A,cityenter,O,enter,514,,1733.0,604038.8000000119,7717,WL,B,8.0
5,23.70899987220764,learn,60000.0,Thu Dec 11 2025 16:36:24 GMT-0600 (Central Standard Time),607438.6000000238,A,p,O,p,1650,,1666.5,605772.1000000238,7717,WL,B,9.0
5,23.991999864578247,learn,60000.0,Thu Dec 11 2025 16:36:24 GMT-0600 (Central Standard Time),607721.4000000358,A,pu,O,u,262,,1949.300000011921,605772.1000000238,7717,WL,B,9.0
5,24.592000007629395,learn,60000.0,Thu Dec 11 2025 16:36:24 GMT-0600 (Central Standard Time),608321.6000000238,A,pup,O,p,577,,2549.5,605772.1000000238,7717,WL,B,9.0
5,25.27500009536743,learn,60000.0,Thu Dec 11 2025 16:36:24 GMT-0600 (Central Standard Time),609004.7000000477,A,pupi,O,i,663,,3232.600000023842,605772.1000000238,7717,WL,B,9.0
5,25.509000062942505,learn,60000.0,Thu Dec 11 2025 16:36:24 GMT-0600 (Central Standard Time),609238.3000000119,A,pupil,O,l,222,,3466.199999988079,605772.1000000238,7717,WL,B,9.0
5,25.891000032424927,learn,60000.0,Thu Dec 11 2025 16:36:24 GMT-0600 (Central Standard Time),609620.7000000477,A,pupilenter,O,enter,374,,3848.600000023842,605772.1000000238,7717,WL,B,9.0
5,27.223000049591064,learn,60000.0,Thu Dec 11 2025 16:36:24 GMT-0600 (Central Standard Time),610952.8000000119,A,c,O,c,1321,,1331.800000011921,609621.0,7717,WL,B,10.0
5,27.674000024795532,learn,60000.0,Thu Dec 11 2025 16:36:24 GMT-0600 (Central Standard Time),611403.7000000477,A,ca,O,a,445,,1782.7000000476837,609621.0,7717,WL,B,10.0
5,28.58999991416931,learn,60000.0,Thu Dec 11 2025 16:36:24 GMT-0600 (Central Standard Time),612319.2000000477,A,cab,O,b,905,,2698.2000000476837,609621.0,7717,WL,B,10.0
5,28.94000005722046,learn,60000.0,Thu Dec 11 2025 16:36:24 GMT-0600 (Central Standard Time),612669.0,A,cabi,O,i,333,,3048.0,609621.0,7717,WL,B,10.0
5,29.83899998664856,learn,60000.0,Thu Dec 11 2025 16:36:24 GMT-0600 (Central Standard Time),613568.4000000358,A,cabin,O,n,889,,3947.400000035763,609621.0,7717,WL,B,10.0
5,30.372999906539917,learn,60000.0,Thu Dec 11 2025 16:36:24 GMT-0600 (Central Standard Time),614102.4000000358,A,cabinenter,O,enter,526,,4481.400000035763,609621.0,7717,WL,B,10.0
5,30.938999891281128,learn,60000.0,Thu Dec 11 2025 16:36:24 GMT-0600 (Central Standard Time),614668.2000000477,A,l,O,l,551,,565.5,614102.7000000477,7717,WL,B,11.0
5,31.289000034332275,learn,60000.0,Thu Dec 11 2025 16:36:24 GMT-0600 (Central Standard Time),615018.4000000358,A,la,O,a,337,,915.6999999880791,614102.7000000477,7717,WL,B,11.0
5,31.573999881744385,learn,60000.0,Thu Dec 11 2025 16:36:24 GMT-0600 (Central Standard Time),615303.2000000477,A,lak,O,k,264,,1200.5,614102.7000000477,7717,WL,B,11.0
5,31.808000087738037,learn,60000.0,Thu Dec 11 2025 16:36:24 GMT-0600 (Central Standard Time),615538.0,A,lake,O,e,222,,1435.2999999523163,614102.7000000477,7717,WL,B,11.0
5,32.07200002670288,learn,60000.0,Thu Dec 11 2025 16:36:24 GMT-0600 (Central Standard Time),615801.4000000358,A,lakeenter,O,enter,251,,1698.699999988079,614102.7000000477,7717,WL,B,11.0
5,32.48900008201599,learn,60000.0,Thu Dec 11 2025 16:36:24 GMT-0600 (Central Standard Time),616218.0,A,p,O,p,396,,416.39999997615814,615801.6000000238,7717,WL,B,12.0
5,32.75499987602234,learn,60000.0,Thu Dec 11 2025 16:36:24 GMT-0600 (Central Standard Time),616484.5,A,pi,O,i,251,,682.8999999761581,615801.6000000238,7717,WL,B,12.0
5,33.10599994659424,learn,60000.0,Thu Dec 11 2025 16:36:24 GMT-0600 (Central Standard Time),616835.2000000477,A,pip,O,p,334,,1033.6000000238419,615801.6000000238,7717,WL,B,12.0
5,33.888999938964844,learn,60000.0,Thu Dec 11 2025 16:36:24 GMT-0600 (Central Standard Time),617618.6000000238,A,pipe,O,e,761,,1817.0,615801.6000000238,7717,WL,B,12.0
5,34.8050000667572,learn,60000.0,Thu Dec 11 2025 16:36:24 GMT-0600 (Central Standard Time),618534.3000000119,A,pipeenter,O,enter,898,,2732.699999988079,615801.6000000238,7717,WL,B,12.0
5,36.98699998855591,learn,60000.0,Thu Dec 11 2025 16:36:24 GMT-0600 (Central Standard Time),620716.3000000119,A,s,O,s,2161,,2181.699999988079,618534.6000000238,7717,WL,B,13.0
5,37.187000036239624,learn,60000.0,Thu Dec 11 2025 16:36:24 GMT-0600 (Central Standard Time),620916.6000000238,A,sk,O,k,191,,2382.0,618534.6000000238,7717,WL,B,13.0
5,37.437000036239624,learn,60000.0,Thu Dec 11 2025 16:36:24 GMT-0600 (Central Standard Time),621166.4000000358,A,ski,O,i,243,,2631.800000011921,618534.6000000238,7717,WL,B,13.0
5,37.63800001144409,learn,60000.0,Thu Dec 11 2025 16:36:24 GMT-0600 (Central Standard Time),621367.8000000119,A,skin,O,n,181,,2833.199999988079,618534.6000000238,7717,WL,B,13.0
5,39.085999965667725,learn,60000.0,Thu Dec 11 2025 16:36:24 GMT-0600 (Central Standard Time),622815.3000000119,A,skinenter,O,enter,1429,,4280.699999988079,618534.6000000238,7717,WL,B,13.0
5,40.15299987792969,learn,60000.0,Thu Dec 11 2025 16:36:24 GMT-0600 (Central Standard Time),623882.3000000119,A,f,O,f,1055,,1066.800000011921,622815.5,7717,WL,B,14.0
5,40.335999965667725,learn,60000.0,Thu Dec 11 2025 16:36:24 GMT-0600 (Central Standard Time),624065.6000000238,A,fi,O,i,172,,1250.1000000238419,622815.5,7717,WL,B,14.0
5,40.585999965667725,learn,60000.0,Thu Dec 11 2025 16:36:24 GMT-0600 (Central Standard Time),624315.9000000358,A,fir,O,r,241,,1500.4000000357628,622815.5,7717,WL,B,14.0
5,40.95199990272522,learn,60000.0,Thu Dec 11 2025 16:36:24 GMT-0600 (Central Standard Time),624681.5,A,fire,O,e,351,,1866.0,622815.5,7717,WL,B,14.0
5,41.335999965667725,learn,60000.0,Thu Dec 11 2025 16:36:24 GMT-0600 (Central Standard Time),625065.6000000238,A,fireenter,O,enter,370,,2250.100000023842,622815.5,7717,WL,B,14.0
5,42.18599987030029,learn,60000.0,Thu Dec 11 2025 16:36:24 GMT-0600 (Central Standard Time),625915.5,A,c,O,c,837,,849.5999999642372,625065.9000000358,7717,WL,B,15.0
5,42.418999910354614,learn,60000.0,Thu Dec 11 2025 16:36:24 GMT-0600 (Central Standard Time),626148.2000000477,A,cl,O,l,225,,1082.300000011921,625065.9000000358,7717,WL,B,15.0
5,42.63599991798401,learn,60000.0,Thu Dec 11 2025 16:36:24 GMT-0600 (Central Standard Time),626365.4000000358,A,clo,O,o,209,,1299.5,625065.9000000358,7717,WL,B,15.0
5,42.901999950408936,learn,60000.0,Thu Dec 11 2025 16:36:24 GMT-0600 (Central Standard Time),626631.6000000238,A,cloc,O,c,250,,1565.699999988079,625065.9000000358,7717,WL,B,15.0
5,43.05200004577637,learn,60000.0,Thu Dec 11 2025 16:36:24 GMT-0600 (Central Standard Time),626781.4000000358,A,clock,O,k,133,,1715.5,625065.9000000358,7717,WL,B,15.0
5,44.10199999809265,learn,60000.0,Thu Dec 11 2025 16:36:24 GMT-0600 (Central Standard Time),627831.8000000119,A,clockenter,O,enter,1038,,2765.899999976158,625065.9000000358,7717,WL,B,15.0
6,1.2180001735687256,distr,58781.999826431274,Thu Dec 11 2025 16:36:24 GMT-0600 (Central Standard Time),706373.7000000477,B,b,O,b,1200,,1217.5,705156.2000000477,7717,WL,B,1.0
6,1.4670000076293945,distr,58532.999992370605,Thu Dec 11 2025 16:36:24 GMT-0600 (Central Standard Time),706622.8000000119,B,ba,O,a,237,,1466.5999999642372,705156.2000000477,7717,WL,B,1.0
6,1.633000135421753,distr,58366.99986457825,Thu Dec 11 2025 16:36:24 GMT-0600 (Central Standard Time),706789.2000000477,B,bab,O,b,151,,1633.0,705156.2000000477,7717,WL,B,1.0
6,2.1000001430511475,distr,57899.99985694885,Thu Dec 11 2025 16:36:24 GMT-0600 (Central Standard Time),707255.8000000119,B,baby,O,y,447,,2099.599999964237,705156.2000000477,7717,WL,B,1.0
6,2.817000150680542,distr,57182.99984931946,Thu Dec 11 2025 16:36:24 GMT-0600 (Central Standard Time),707972.6000000238,B,babyenter,O,enter,709,,2816.399999976158,705156.2000000477,7717,WL,B,1.0
6,3.5500001907348633,distr,56449.99980926514,Thu Dec 11 2025 16:36:24 GMT-0600 (Central Standard Time),708706.4000000358,B,o,O,o,713,,733.5,707972.9000000358,7717,WL,B,2.0
6,3.802000045776367,distr,56197.99995422363,Thu Dec 11 2025 16:36:24 GMT-0600 (Central Standard Time),708958.0,B,oc,O,c,234,,985.0999999642372,707972.9000000358,7717,WL,B,2.0
6,4.082000017166138,distr,55917.99998283386,Thu Dec 11 2025 16:36:24 GMT-0600 (Central Standard Time),709238.2000000477,B,oce,O,e,263,,1265.300000011921,707972.9000000358,7717,WL,B,2.0
6,4.333000183105469,distr,55666.99981689453,Thu Dec 11 2025 16:36:24 GMT-0600 (Central Standard Time),709488.4000000358,B,ocea,O,a,238,,1515.5,707972.9000000358,7717,WL,B,2.0
6,4.699000120162964,distr,55300.999879837036,Thu Dec 11 2025 16:36:24 GMT-0600 (Central Standard Time),709855.2000000477,B,ocean,O,n,349,,1882.300000011921,707972.9000000358,7717,WL,B,2.0
6,5.815000057220459,distr,54184.99994277954,Thu Dec 11 2025 16:36:24 GMT-0600 (Central Standard Time),710971.2000000477,B,oceanenter,O,enter,1109,,2998.300000011921,707972.9000000358,7717,WL,B,2.0
6,6.7820000648498535,distr,53217.99993515015,Thu Dec 11 2025 16:36:24 GMT-0600 (Central Standard Time),711938.2000000477,B,l,O,l,955,,966.8000000119209,710971.4000000358,7717,WL,B,3.0
6,6.999000072479248,distr,53000.99992752075,Thu Dec 11 2025 16:36:24 GMT-0600 (Central Standard Time),712154.6000000238,B,li,O,i,210,,1183.199999988079,710971.4000000358,7717,WL,B,3.0
6,7.499000072479248,distr,52500.99992752075,Thu Dec 11 2025 16:36:24 GMT-0600 (Central Standard Time),712654.3000000119,B,lip,O,p,480,,1682.8999999761581,710971.4000000358,7717,WL,B,3.0
6,8.015000104904175,distr,51984.999895095825,Thu Dec 11 2025 16:36:24 GMT-0600 (Central Standard Time),713170.6000000238,B,lipenter,O,enter,503,,2199.199999988079,710971.4000000358,7717,WL,B,3.0
6,8.680999994277954,distr,51319.000005722046,Thu Dec 11 2025 16:36:24 GMT-0600 (Central Standard Time),713836.8000000119,B,b,O,b,652,,666.0,713170.8000000119,7717,WL,B,4.0
6,8.998000144958496,distr,51001.999855041504,Thu Dec 11 2025 16:36:24 GMT-0600 (Central Standard Time),714153.3000000119,B,ba,O,a,295,,982.5,713170.8000000119,7717,WL,B,4.0
6,9.315000057220459,distr,50684.99994277954,Thu Dec 11 2025 16:36:24 GMT-0600 (Central Standard Time),714470.5,B,bar,O,r,306,,1299.699999988079,713170.8000000119,7717,WL,B,4.0
6,9.71500015258789,distr,50284.99984741211,Thu Dec 11 2025 16:36:24 GMT-0600 (Central Standard Time),714870.4000000358,B,barenter,O,enter,390,,1699.6000000238419,713170.8000000119,7717,WL,B,4.0
6,10.198000192642212,distr,49801.99980735779,Thu Dec 11 2025 16:36:24 GMT-0600 (Central Standard Time),715354.0,B,p,O,p,464,,483.39999997615814,714870.6000000238,7717,WL,B,5.0
6,10.54800009727478,distr,49451.99990272522,Thu Dec 11 2025 16:36:24 GMT-0600 (Central Standard Time),715703.8000000119,B,pa,O,a,332,,833.1999999880791,714870.6000000238,7717,WL,B,5.0
6,10.79800009727478,distr,49201.99990272522,Thu Dec 11 2025 16:36:24 GMT-0600 (Central Standard Time),715953.9000000358,B,pal,O,l,231,,1083.300000011921,714870.6000000238,7717,WL,B,5.0
6,10.980000019073486,distr,49019.999980926514,Thu Dec 11 2025 16:36:24 GMT-0600 (Central Standard Time),716136.2000000477,B,pala,O,a,170,,1265.6000000238419,714870.6000000238,7717,WL,B,5.0
6,11.297000169754028,distr,48702.99983024597,Thu Dec 11 2025 16:36:24 GMT-0600 (Central Standard Time),716453.2000000477,B,palac,O,c,301,,1582.6000000238419,714870.6000000238,7717,WL,B,5.0
6,12.013000011444092,distr,47986.99998855591,Thu Dec 11 2025 16:36:24 GMT-0600 (Central Standard Time),717169.3000000119,B,palace,O,e,703,,2298.699999988079,714870.6000000238,7717,WL,B,5.0
6,14.296000003814697,distr,45703.9999961853,Thu Dec 11 2025 16:36:24 GMT-0600 (Central Standard Time),719451.8000000119,B,palaceenter,O,enter,2267,,4581.199999988079,714870.6000000238,7717,WL,B,5.0
6,15.430999994277954,distr,44569.000005722046,Thu Dec 11 2025 16:36:24 GMT-0600 (Central Standard Time),720586.6000000238,B,c,O,c,1122,,1134.5,719452.1000000238,7717,WL,B,6.0
6,15.763000011444092,distr,44236.99998855591,Thu Dec 11 2025 16:36:24 GMT-0600 (Central Standard Time),720918.7000000477,B,co,O,o,323,,1466.6000000238419,719452.1000000238,7717,WL,B,6.0
6,15.92900013923645,distr,44070.99986076355,Thu Dec 11 2025 16:36:24 GMT-0600 (Central Standard Time),721084.9000000358,B,coi,O,i,161,,1632.800000011921,719452.1000000238,7717,WL,B,6.0
6,16.213000059127808,distr,43786.99994087219,Thu Dec 11 2025 16:36:24 GMT-0600 (Central Standard Time),721368.6000000238,B,coin,O,n,264,,1916.5,719452.1000000238,7717,WL,B,6.0
6,17.27900004386902,distr,42720.99995613098,Thu Dec 11 2025 16:36:24 GMT-0600 (Central Standard Time),722435.4000000358,B,coinenter,O,enter,1052,,2983.300000011921,719452.1000000238,7717,WL,B,6.0
6,17.896000146865845,distr,42103.999853134155,Thu Dec 11 2025 16:36:24 GMT-0600 (Central Standard Time),723051.5,B,s,O,s,611,,615.8999999761581,722435.6000000238,7717,WL,B,7.0
6,18.16100001335144,distr,41838.99998664856,Thu Dec 11 2025 16:36:24 GMT-0600 (Central Standard Time),723317.2000000477,B,st,O,t,256,,881.6000000238419,722435.6000000238,7717,WL,B,7.0
6,18.545000076293945,distr,41454.999923706055,Thu Dec 11 2025 16:36:24 GMT-0600 (Central Standard Time),723701.2000000477,B,sto,O,o,368,,1265.6000000238419,722435.6000000238,7717,WL,B,7.0
6,18.76200008392334,distr,41237.99991607666,Thu Dec 11 2025 16:36:24 GMT-0600 (Central Standard Time),723917.7000000477,B,stor,O,r,193,,1482.1000000238419,722435.6000000238,7717,WL,B,7.0
6,19.094000101089478,distr,40905.99989891052,Thu Dec 11 2025 16:36:24 GMT-0600 (Central Standard Time),724250.3000000119,B,storm,O,m,309,,1814.699999988079,722435.6000000238,7717,WL,B,7.0
6,20.110000133514404,distr,39889.999866485596,Thu Dec 11 2025 16:36:24 GMT-0600 (Central Standard Time),725265.8000000119,B,stormenter,O,enter,993,,2830.199999988079,722435.6000000238,7717,WL,B,7.0
6,55.80000019073486,distr,4199.999809265137,Thu Dec 11 2025 16:36:24 GMT-0600 (Central Standard Time),760955.7000000477,B,enter,O,enter,35685,,35689.80000001192,725265.9000000358,7717,WL,B,8.0
6,56.48200011253357,distr,3517.9998874664307,Thu Dec 11 2025 16:36:24 GMT-0600 (Central Standard Time),761637.8000000119,B,enter,O,enter,665,,681.8000000119209,760956.0,7717,WL,B,9.0
6,56.88300013542175,distr,3116.999864578247,Thu Dec 11 2025 16:36:24 GMT-0600 (Central Standard Time),762038.9000000358,B,enter,O,enter,392,,400.80000001192093,761638.1000000238,7717,WL,B,10.0
6,57.25100016593933,distr,2748.999834060669,Thu Dec 11 2025 16:36:24 GMT-0600 (Central Standard Time),762406.8000000119,B,enter,O,enter,351,,367.69999998807907,762039.1000000238,7717,WL,B,11.0
6,57.599000215530396,distr,2400.9997844696045,Thu Dec 11 2025 16:36:24 GMT-0600 (Central Standard Time),762754.6000000238,B,enter,O,enter,344,,347.5,762407.1000000238,7717,WL,B,12.0
6,57.96500015258789,distr,2034.9998474121094,Thu Dec 11 2025 16:36:24 GMT-0600 (Central Standard Time),763120.8000000119,B,enter,O,enter,355,,365.89999997615814,762754.9000000358,7717,WL,B,13.0
6,58.35199999809265,distr,1648.0000019073486,Thu Dec 11 2025 16:36:24 GMT-0600 (Central Standard Time),763508.3000000119,B,enter,O,enter,366,,387.19999998807907,763121.1000000238,7717,WL,B,14.0
6,58.86500000953674,distr,1134.9999904632568,Thu Dec 11 2025 16:36:24 GMT-0600 (Central Standard Time),764021.3000000119,B,enter,O,enter,497,,512.6999999880791,763508.6000000238,7717,WL,B,15.0
7,1.1499998569488525,immed,58850.00014305115,Thu Dec 11 2025 16:36:24 GMT-0600 (Central Standard Time),772319.6000000238,A,s,O,s,1142,,1149.8999999761581,771169.7000000477,7717,WL,B,1.0
7,1.4829998016357422,immed,58517.00019836426,Thu Dec 11 2025 16:36:24 GMT-0600 (Central Standard Time),772652.7000000477,A,st,O,t,317,,1483.0,771169.7000000477,7717,WL,B,1.0
7,1.8309998512268066,immed,58169.00014877319,Thu Dec 11 2025 16:36:24 GMT-0600 (Central Standard Time),773001.4000000358,A,str,O,r,329,,1831.699999988079,771169.7000000477,7717,WL,B,1.0
7,2.063999891281128,immed,57936.00010871887,Thu Dec 11 2025 16:36:24 GMT-0600 (Central Standard Time),773234.2000000477,A,stre,O,e,226,,2064.5,771169.7000000477,7717,WL,B,1.0
7,2.2649998664855957,immed,57735.000133514404,Thu Dec 11 2025 16:36:24 GMT-0600 (Central Standard Time),773434.5,A,stree,O,e,187,,2264.7999999523163,771169.7000000477,7717,WL,B,1.0
7,2.4819998741149902,immed,57518.00012588501,Thu Dec 11 2025 16:36:24 GMT-0600 (Central Standard Time),773651.8000000119,A,street,O,t,203,,2482.099999964237,771169.7000000477,7717,WL,B,1.0
7,3.6480000019073486,immed,56351.99999809265,Thu Dec 11 2025 16:36:24 GMT-0600 (Central Standard Time),774817.7000000477,A,streetenter,O,enter,1152,,3648.0,771169.7000000477,7717,WL,B,1.0
7,3.9800000190734863,immed,56019.999980926514,Thu Dec 11 2025 16:36:24 GMT-0600 (Central Standard Time),775150.1000000238,A,g,O,g,324,,332.10000002384186,774818.0,7717,WL,B,2.0
7,4.263000011444092,immed,55736.99998855591,Thu Dec 11 2025 16:36:24 GMT-0600 (Central Standard Time),775433.0,A,gr,O,r,268,,615.0,774818.0,7717,WL,B,2.0
7,4.414000034332275,immed,55585.999965667725,Thu Dec 11 2025 16:36:24 GMT-0600 (Central Standard Time),775584.4000000358,A,gra,O,a,138,,766.4000000357628,774818.0,7717,WL,B,2.0
7,4.630999803543091,immed,55369.00019645691,Thu Dec 11 2025 16:36:24 GMT-0600 (Central Standard Time),775800.6000000238,A,gras,O,s,205,,982.6000000238419,774818.0,7717,WL,B,2.0
7,5.013999938964844,immed,54986.000061035156,Thu Dec 11 2025 16:36:24 GMT-0600 (Central Standard Time),776183.8000000119,A,grass,O,s,364,,1365.800000011921,774818.0,7717,WL,B,2.0
7,5.497999906539917,immed,54502.00009346008,Thu Dec 11 2025 16:36:24 GMT-0600 (Central Standard Time),776667.6000000238,A,grassenter,O,enter,469,,1849.6000000238419,774818.0,7717,WL,B,2.0
7,6.080999851226807,immed,53919.00014877319,Thu Dec 11 2025 16:36:24 GMT-0600 (Central Standard Time),777251.7000000477,A,d,O,d,579,,583.9000000357628,776667.8000000119,7717,WL,B,3.0
7,6.428999900817871,immed,53571.00009918213,Thu Dec 11 2025 16:36:24 GMT-0600 (Central Standard Time),777599.4000000358,A,do,O,o,335,,931.6000000238419,776667.8000000119,7717,WL,B,3.0
7,6.61299991607666,immed,53387.00008392334,Thu Dec 11 2025 16:36:24 GMT-0600 (Central Standard Time),777783.3000000119,A,doo,O,o,166,,1115.5,776667.8000000119,7717,WL,B,3.0
7,6.914000034332275,immed,53085.999965667725,Thu Dec 11 2025 16:36:24 GMT-0600 (Central Standard Time),778084.3000000119,A,door,O,r,293,,1416.5,776667.8000000119,7717,WL,B,3.0
7,7.263000011444092,immed,52736.99998855591,Thu Dec 11 2025 16:36:24 GMT-0600 (Central Standard Time),778433.7000000477,A,doorenter,O,enter,334,,1765.9000000357628,776667.8000000119,7717,WL,B,3.0
7,7.629999876022339,immed,52370.00012397766,Thu Dec 11 2025 16:36:24 GMT-0600 (Central Standard Time),778800.2000000477,A,a,O,a,356,,366.30000001192093,778433.9000000358,7717,WL,B,4.0
7,8.031999826431274,immed,51968.000173568726,Thu Dec 11 2025 16:36:24 GMT-0600 (Central Standard Time),779201.9000000358,A,ar,O,r,382,,768.0,778433.9000000358,7717,WL,B,4.0
7,8.429999828338623,immed,51570.00017166138,Thu Dec 11 2025 16:36:24 GMT-0600 (Central Standard Time),779600.2000000477,A,arm,O,m,380,,1166.300000011921,778433.9000000358,7717,WL,B,4.0
7,9.378999948501587,immed,50621.00005149841,Thu Dec 11 2025 16:36:24 GMT-0600 (Central Standard Time),780549.1000000238,A,armenter,O,enter,932,,2115.199999988079,778433.9000000358,7717,WL,B,4.0
7,10.113999843597412,immed,49886.00015640259,Thu Dec 11 2025 16:36:24 GMT-0600 (Central Standard Time),781283.9000000358,A,w,O,w,714,,734.5,780549.4000000358,7717,WL,B,5.0
7,10.328999996185303,immed,49671.0000038147,Thu Dec 11 2025 16:36:24 GMT-0600 (Central Standard Time),781499.5,A,wi,O,i,211,,950.0999999642372,780549.4000000358,7717,WL,B,5.0
7,10.61299991607666,immed,49387.00008392334,Thu Dec 11 2025 16:36:24 GMT-0600 (Central Standard Time),781783.2000000477,A,wif,O,f,276,,1233.800000011921,780549.4000000358,7717,WL,B,5.0
7,11.01199984550476,immed,48988.00015449524,Thu Dec 11 2025 16:36:24 GMT-0600 (Central Standard Time),782182.0,A,wife,O,e,391,,1632.5999999642372,780549.4000000358,7717,WL,B,5.0
7,11.460999965667725,immed,48539.000034332275,Thu Dec 11 2025 16:36:24 GMT-0600 (Central Standard Time),782631.7000000477,A,wifeenter,O,enter,439,,2082.300000011921,780549.4000000358,7717,WL,B,5.0
7,11.777999877929688,immed,48222.00012207031,Thu Dec 11 2025 16:36:24 GMT-0600 (Central Standard Time),782948.4000000358,A,s,O,s,311,,316.5,782631.9000000358,7717,WL,B,6.0
7,12.078999996185303,immed,47921.0000038147,Thu Dec 11 2025 16:36:24 GMT-0600 (Central Standard Time),783249.2000000477,A,st,O,t,281,,617.3000000119209,782631.9000000358,7717,WL,B,6.0
7,12.260999917984009,immed,47739.00008201599,Thu Dec 11 2025 16:36:24 GMT-0600 (Central Standard Time),783431.7000000477,A,sta,O,a,163,,799.8000000119209,782631.9000000358,7717,WL,B,6.0
7,12.49399995803833,immed,47506.00004196167,Thu Dec 11 2025 16:36:24 GMT-0600 (Central Standard Time),783664.6000000238,A,star,O,r,222,,1032.699999988079,782631.9000000358,7717,WL,B,6.0
7,12.84500002861023,immed,47154.99997138977,Thu Dec 11 2025 16:36:24 GMT-0600 (Central Standard Time),784015.7000000477,A,starenter,O,enter,342,,1383.800000011921,782631.9000000358,7717,WL,B,6.0
7,13.277999877929688,immed,46722.00012207031,Thu Dec 11 2025 16:36:24 GMT-0600 (Central Standard Time),784447.8000000119,A,w,O,w,414,,431.89999997615814,784015.9000000358,7717,WL,B,7.0
7,14.378999948501587,immed,45621.00005149841,Thu Dec 11 2025 16:36:24 GMT-0600 (Central Standard Time),785549.3000000119,A,wi,O,i,1087,,1533.3999999761581,784015.9000000358,7717,WL,B,7.0
7,14.679999828338623,immed,45320.00017166138,Thu Dec 11 2025 16:36:24 GMT-0600 (Central Standard Time),785850.0,A,win,O,n,281,,1834.0999999642372,784015.9000000358,7717,WL,B,7.0
7,14.926999807357788,immed,45073.00019264221,Thu Dec 11 2025 16:36:24 GMT-0600 (Central Standard Time),786097.6000000238,A,wind,O,d,238,,2081.699999988079,784015.9000000358,7717,WL,B,7.0
7,15.16100001335144,immed,44838.99998664856,Thu Dec 11 2025 16:36:24 GMT-0600 (Central Standard Time),786331.0,A,windo,O,o,229,,2315.099999964237,784015.9000000358,7717,WL,B,7.0
7,15.41100001335144,immed,44588.99998664856,Thu Dec 11 2025 16:36:24 GMT-0600 (Central Standard Time),786581.5,A,window,O,w,235,,2565.599999964237,784015.9000000358,7717,WL,B,7.0
7,15.64299988746643,immed,44357.00011253357,Thu Dec 11 2025 16:36:24 GMT-0600 (Central Standard Time),786813.5,A,windowenter,O,enter,228,,2797.599999964237,784015.9000000358,7717,WL,B,7.0
7,16.109999895095825,immed,43890.000104904175,Thu Dec 11 2025 16:36:24 GMT-0600 (Central Standard Time),787280.5,A,p,O,p,455,,466.69999998807907,786813.8000000119,7717,WL,B,8.0
7,16.47599983215332,immed,43524.00016784668,Thu Dec 11 2025 16:36:24 GMT-0600 (Central Standard Time),787646.0,A,pu,O,u,357,,832.1999999880791,786813.8000000119,7717,WL,B,8.0
7,16.792999982833862,immed,43207.00001716614,Thu Dec 11 2025 16:36:24 GMT-0600 (Central Standard Time),787962.9000000358,A,pup,O,p,303,,1149.1000000238419,786813.8000000119,7717,WL,B,8.0
7,17.060999870300293,immed,42939.00012969971,Thu Dec 11 2025 16:36:24 GMT-0600 (Central Standard Time),788231.1000000238,A,pupi,O,i,252,,1417.300000011921,786813.8000000119,7717,WL,B,8.0
7,17.692999839782715,immed,42307.000160217285,Thu Dec 11 2025 16:36:24 GMT-0600 (Central Standard Time),788863.2000000477,A,pupil,O,l,626,,2049.400000035763,786813.8000000119,7717,WL,B,8.0
7,18.14299988746643,immed,41857.00011253357,Thu Dec 11 2025 16:36:24 GMT-0600 (Central Standard Time),789313.1000000238,A,pupilenter,O,enter,430,,2499.300000011921,786813.8000000119,7717,WL,B,8.0
7,18.508999824523926,immed,41491.000175476074,Thu Dec 11 2025 16:36:24 GMT-0600 (Central Standard Time),789679.4000000358,A,c,O,c,357,,366.10000002384186,789313.3000000119,7717,WL,B,9.0
7,18.79199981689453,immed,41208.00018310547,Thu Dec 11 2025 16:36:24 GMT-0600 (Central Standard Time),789962.1000000238,A,ci,O,i,262,,648.8000000119209,789313.3000000119,7717,WL,B,9.0
7,19.009999990463257,immed,40990.00000953674,Thu Dec 11 2025 16:36:24 GMT-0600 (Central Standard Time),790179.9000000358,A,cit,O,t,203,,866.6000000238419,789313.3000000119,7717,WL,B,9.0
7,19.125999927520752,immed,40874.00007247925,Thu Dec 11 2025 16:36:24 GMT-0600 (Central Standard Time),790295.8000000119,A,city,O,y,98,,982.5,789313.3000000119,7717,WL,B,9.0
7,20.30900001525879,immed,39690.99998474121,Thu Dec 11 2025 16:36:24 GMT-0600 (Central Standard Time),791479.1000000238,A,cityenter,O,enter,1173,,2165.800000011921,789313.3000000119,7717,WL,B,9.0
7,21.575999975204468,immed,38424.00002479553,Thu Dec 11 2025 16:36:24 GMT-0600 (Central Standard Time),792746.0,A,l,O,l,1247,,1266.5999999642372,791479.4000000358,7717,WL,B,10.0
7,21.857999801635742,immed,38142.00019836426,Thu Dec 11 2025 16:36:24 GMT-0600 (Central Standard Time),793028.4000000358,A,la,O,a,267,,1549.0,791479.4000000358,7717,WL,B,10.0
7,22.026999950408936,immed,37973.000049591064,Thu Dec 11 2025 16:36:24 GMT-0600 (Central Standard Time),793197.2000000477,A,lak,O,k,164,,1717.800000011921,791479.4000000358,7717,WL,B,10.0
7,22.391000032424927,immed,37608.99996757507,Thu Dec 11 2025 16:36:24 GMT-0600 (Central Standard Time),793561.0,A,lake,O,e,344,,2081.599999964237,791479.4000000358,7717,WL,B,10.0
7,22.87399983406067,immed,37126.00016593933,Thu Dec 11 2025 16:36:24 GMT-0600 (Central Standard Time),794044.6000000238,A,lakeenter,O,enter,478,,2565.199999988079,791479.4000000358,7717,WL,B,10.0
7,24.1729998588562,immed,35827.0001411438,Thu Dec 11 2025 16:36:24 GMT-0600 (Central Standard Time),795343.3000000119,A,p,O,p,1290,,1298.3999999761581,794044.9000000358,7717,WL,B,11.0
7,24.4229998588562,immed,35577.0001411438,Thu Dec 11 2025 16:36:24 GMT-0600 (Central Standard Time),795593.6000000238,A,pi,O,i,239,,1548.699999988079,794044.9000000358,7717,WL,B,11.0
7,24.556999921798706,immed,35443.000078201294,Thu Dec 11 2025 16:36:24 GMT-0600 (Central Standard Time),795727.0,A,pip,O,p,117,,1682.0999999642372,794044.9000000358,7717,WL,B,11.0
7,25.073999881744385,immed,34926.000118255615,Thu Dec 11 2025 16:36:24 GMT-0600 (Central Standard Time),796244.2000000477,A,pipe,O,e,503,,2199.300000011921,794044.9000000358,7717,WL,B,11.0
7,25.35599994659424,immed,34644.00005340576,Thu Dec 11 2025 16:36:24 GMT-0600 (Central Standard Time),796526.4000000358,A,pipeenter,O,enter,274,,2481.5,794044.9000000358,7717,WL,B,11.0
7,25.990000009536743,immed,34009.99999046326,Thu Dec 11 2025 16:36:24 GMT-0600 (Central Standard Time),797160.5,A,c,O,c,616,,633.8999999761581,796526.6000000238,7717,WL,B,12.0
7,26.174000024795532,immed,33825.99997520447,Thu Dec 11 2025 16:36:24 GMT-0600 (Central Standard Time),797344.0,A,ca,O,a,165,,817.3999999761581,796526.6000000238,7717,WL,B,12.0
7,26.391000032424927,immed,33608.99996757507,Thu Dec 11 2025 16:36:24 GMT-0600 (Central Standard Time),797560.9000000358,A,cab,O,b,204,,1034.300000011921,796526.6000000238,7717,WL,B,12.0
7,26.58999991416931,immed,33410.00008583069,Thu Dec 11 2025 16:36:24 GMT-0600 (Central Standard Time),797760.0,A,cabi,O,i,187,,1233.3999999761581,796526.6000000238,7717,WL,B,12.0
7,26.77300000190735,immed,33226.99999809265,Thu Dec 11 2025 16:36:24 GMT-0600 (Central Standard Time),797943.5,A,cabin,O,n,174,,1416.8999999761581,796526.6000000238,7717,WL,B,12.0
7,27.929999828338623,immed,32070.000171661377,Thu Dec 11 2025 16:36:24 GMT-0600 (Central Standard Time),799100.6000000238,A,cabinenter,O,enter,1153,,2574.0,796526.6000000238,7717,WL,B,12.0
7,30.25499987602234,immed,29745.00012397766,Thu Dec 11 2025 16:36:24 GMT-0600 (Central Standard Time),801425.4000000358,A,s,O,s,2316,,2324.600000023842,799100.8000000119,7717,WL,B,13.0
7,30.421000003814697,immed,29578.999996185303,Thu Dec 11 2025 16:36:24 GMT-0600 (Central Standard Time),801591.6000000238,A,sk,O,k,156,,2490.800000011921,799100.8000000119,7717,WL,B,13.0
7,30.622999906539917,immed,29377.000093460083,Thu Dec 11 2025 16:36:24 GMT-0600 (Central Standard Time),801793.6000000238,A,ski,O,i,183,,2692.800000011921,799100.8000000119,7717,WL,B,13.0
7,30.804999828338623,immed,29195.000171661377,Thu Dec 11 2025 16:36:24 GMT-0600 (Central Standard Time),801975.6000000238,A,skin,O,n,171,,2874.800000011921,799100.8000000119,7717,WL,B,13.0
7,31.205999851226807,immed,28794.000148773193,Thu Dec 11 2025 16:36:24 GMT-0600 (Central Standard Time),802376.0,A,skinenter,O,enter,382,,3275.199999988079,799100.8000000119,7717,WL,B,13.0
7,32.07200002670288,immed,27927.99997329712,Thu Dec 11 2025 16:36:24 GMT-0600 (Central Standard Time),803242.4000000358,A,f,O,f,845,,866.1999999880791,802376.2000000477,7717,WL,B,14.0
7,32.25599980354309,immed,27744.00019645691,Thu Dec 11 2025 16:36:24 GMT-0600 (Central Standard Time),803425.9000000358,A,fi,O,i,173,,1049.699999988079,802376.2000000477,7717,WL,B,14.0
7,32.50599980354309,immed,27494.00019645691,Thu Dec 11 2025 16:36:24 GMT-0600 (Central Standard Time),803676.1000000238,A,fir,O,r,227,,1299.8999999761581,802376.2000000477,7717,WL,B,14.0
7,32.72199988365173,immed,27278.000116348267,Thu Dec 11 2025 16:36:24 GMT-0600 (Central Standard Time),803892.5,A,fire,O,e,209,,1516.2999999523163,802376.2000000477,7717,WL,B,14.0
7,33.4539999961853,immed,26546.000003814697,Thu Dec 11 2025 16:36:24 GMT-0600 (Central Standard Time),804624.6000000238,A,fireenter,O,enter,721,,2248.399999976158,802376.2000000477,7717,WL,B,14.0
7,33.855000019073486,immed,26144.999980926514,Thu Dec 11 2025 16:36:24 GMT-0600 (Central Standard Time),805025.2000000477,A,c,O,c,389,,400.30000001192093,804624.9000000358,7717,WL,B,15.0
7,34.30399990081787,immed,25696.00009918213,Thu Dec 11 2025 16:36:24 GMT-0600 (Central Standard Time),805473.9000000358,A,cl,O,l,436,,849.0,804624.9000000358,7717,WL,B,15.0
7,34.57099986076355,immed,25429.00013923645,Thu Dec 11 2025 16:36:24 GMT-0600 (Central Standard Time),805741.4000000358,A,clo,O,o,264,,1116.5,804624.9000000358,7717,WL,B,15.0
7,34.88800001144409,immed,25111.99998855591,Thu Dec 11 2025 16:36:24 GMT-0600 (Central Standard Time),806058.0,A,cloc,O,c,298,,1433.0999999642372,804624.9000000358,7717,WL,B,15.0
7,35.13800001144409,immed,24861.99998855591,Thu Dec 11 2025 16:36:24 GMT-0600 (Central Standard Time),806307.9000000358,A,clock,O,k,235,,1683.0,804624.9000000358,7717,WL,B,15.0
7,36.23599982261658,immed,23764.000177383423,Thu Dec 11 2025 16:36:24 GMT-0600 (Central Standard Time),807406.6000000238,A,clockenter,O,enter,1090,,2781.699999988079,804624.9000000358,7717,WL,B,15.0
