Q,Q1,Q2,Q3,Q4,acc_sum,block,block_c,correct,correct_response,datetime,endtime,project,response,response_time,row_sel,session_number,squiggle1,squiggle1x,squiggle1y,squiggle2,squiggle2x,squiggle2y,squiggle3,squiggle3x,squiggle3y,squiggle4,squiggle4x,squiggle4y,start_end,starttime,subject_id,target_congruent,task,task_vers,testsquiggle,testsquigglex,testsquiggley,time_practice_delay,time_practice_fixation,time_practice_stimuli,time_practice_study,time_test_delay,time_test_fixation,time_test_stimuli,time_test_study,trial
1,1,0,0,0,0,prac,1,0,z,Tue Mar 10 2026 15:19:59 GMT-0500 (Central Daylight Time),185239.20000000298,O,None,2016,1,1,116.bmp,-120,-120,117.bmp,120,-120,118.bmp,-120,120,119.bmp,120,120,10826.90000000596,174412.29999999702,7775,yes,SM,A,116.bmp,-120,-120,175098,169070,177114,171082,,,,,1
3,0,0,1,0,1,prac,1,1,m,Tue Mar 10 2026 15:19:59 GMT-0500 (Central Daylight Time),195735.79999999702,O,m,1670,2,1,120.bmp,-120,-120,121.bmp,120,-120,122.bmp,-120,120,123.bmp,120,120,10492.79999999702,185243.0,7775,no,SM,A,123.bmp,-120,120,185927,179900,187944,181912,,,,,2
4,0,0,0,1,1,prac,1,0,m,Tue Mar 10 2026 15:19:59 GMT-0500 (Central Daylight Time),206565.70000000298,O,None,2016,3,1,124.bmp,-120,-120,125.bmp,120,-120,126.bmp,-120,120,127.bmp,120,120,10826.0,195739.70000000298,7775,no,SM,A,124.bmp,120,120,196424,190397,198440,192409,,,,,3
2,0,1,0,0,1,prac,1,0,z,Tue Mar 10 2026 15:19:59 GMT-0500 (Central Daylight Time),217062.40000000596,O,m,1672,4,1,128.bmp,-120,-120,129.bmp,120,-120,130.bmp,-120,120,131.bmp,120,120,10492.800000011921,206569.59999999404,7775,yes,SM,A,129.bmp,120,-120,207254,201227,209270,203239,,,,,4
3,0,0,1,0,1,prac,1,0,z,Tue Mar 10 2026 15:19:59 GMT-0500 (Central Daylight Time),227676.0,O,m,1812,5,1,132.bmp,-120,-120,133.bmp,120,-120,134.bmp,-120,120,135.bmp,120,120,10610.0,217066.0,7775,yes,SM,A,134.bmp,-120,120,217751,211723,219767,213736,,,,,5
1,1,0,0,0,2,prac,1,1,m,Tue Mar 10 2026 15:19:59 GMT-0500 (Central Daylight Time),237722.70000000298,O,m,1217,6,1,136.bmp,-120,-120,137.bmp,120,-120,138.bmp,-120,120,139.bmp,120,120,10042.20000000298,227680.5,7775,no,SM,A,139.bmp,-120,-120,228364,222338,230381,224349,,,,,6
2,0,1,0,0,3,prac,1,1,m,Tue Mar 10 2026 15:19:59 GMT-0500 (Central Daylight Time),248285.90000000596,O,m,1738,7,1,140.bmp,-120,-120,141.bmp,120,-120,142.bmp,-120,120,143.bmp,120,120,10559.60000000894,237726.29999999702,7775,no,SM,A,140.bmp,120,-120,238411,232384,240428,234396,,,,,7
4,0,0,0,1,3,prac,1,0,z,Tue Mar 10 2026 15:19:59 GMT-0500 (Central Daylight Time),258849.40000000596,O,m,1744,8,1,144.bmp,-120,-120,145.bmp,120,-120,146.bmp,-120,120,147.bmp,120,120,10560.0,248289.40000000596,7775,yes,SM,A,147.bmp,120,120,248974,242947,250991,244959,,,,,8
4,0,0,0,1,1,test,1,1,m,Tue Mar 10 2026 15:19:59 GMT-0500 (Central Daylight Time),290589.5,O,m,1667,1,1,148.bmp,-120,-120,149.bmp,120,-120,150.bmp,-120,120,143.bmp,120,120,9728.0,280861.5,7775,no,SM,A,150.bmp,120,120,248974,242947,250991,244959,281548.0,275519.0,283564.0,277533.0,1
2,0,1,0,0,2,test,1,1,m,Tue Mar 10 2026 15:19:59 GMT-0500 (Central Daylight Time),300636.299999997,O,m,1983,2,1,101.bmp,-120,-120,102.bmp,120,-120,103.bmp,-120,120,104.bmp,120,120,10043.20000000298,290593.09999999404,7775,no,SM,A,103.bmp,120,-120,248974,242947,250991,244959,291278.0,285250.0,293295.0,287263.0,2
1,1,0,0,0,2,test,1,0,z,Tue Mar 10 2026 15:19:59 GMT-0500 (Central Daylight Time),310699.700000003,O,None,2016,3,1,105.bmp,-120,-120,106.bmp,120,-120,107.bmp,-120,120,108.bmp,120,120,10059.60000000894,300640.09999999404,7775,yes,SM,A,105.bmp,-120,-120,248974,242947,250991,244959,301325.0,295297.0,303341.0,297309.0,3
3,0,0,1,0,2,test,1,0,m,Tue Mar 10 2026 15:19:59 GMT-0500 (Central Daylight Time),320430.0,O,z,1682,4,1,109.bmp,-120,-120,110.bmp,120,-120,111.bmp,-120,120,112.bmp,120,120,9726.29999999702,310703.700000003,7775,no,SM,A,109.bmp,-120,120,248974,242947,250991,244959,311388.0,305361.0,313405.0,307373.0,4
2,0,1,0,0,3,test,1,1,z,Tue Mar 10 2026 15:19:59 GMT-0500 (Central Daylight Time),330227.09999999404,O,z,1744,5,1,113.bmp,-120,-120,114.bmp,120,-120,115.bmp,-120,120,116.bmp,120,120,9793.29999999702,320433.799999997,7775,yes,SM,A,114.bmp,120,-120,248974,242947,250991,244959,321119.0,315091.0,323135.0,317103.0,5
3,0,0,1,0,4,test,1,1,z,Tue Mar 10 2026 15:19:59 GMT-0500 (Central Daylight Time),339774.200000003,O,z,1490,6,1,117.bmp,-120,-120,118.bmp,120,-120,119.bmp,-120,120,120.bmp,120,120,9543.90000000596,330230.299999997,7775,yes,SM,A,119.bmp,-120,120,248974,242947,250991,244959,330916.0,324888.0,332932.0,326900.0,6
4,0,0,0,1,5,test,1,1,z,Tue Mar 10 2026 15:19:59 GMT-0500 (Central Daylight Time),349821.0,O,z,1992,7,1,121.bmp,-120,-120,122.bmp,120,-120,123.bmp,-120,120,124.bmp,120,120,10043.70000000298,339777.299999997,7775,yes,SM,A,124.bmp,120,120,248974,242947,250991,244959,340463.0,334434.0,342479.0,336448.0,7
2,0,1,0,0,6,test,1,1,m,Tue Mar 10 2026 15:19:59 GMT-0500 (Central Daylight Time),359535.59999999404,O,m,1664,8,1,125.bmp,-120,-120,126.bmp,120,-120,127.bmp,-120,120,128.bmp,120,120,9711.199999988079,349824.40000000596,7775,no,SM,A,125.bmp,120,-120,248974,242947,250991,244959,350509.0,344482.0,352526.0,346494.0,8
3,0,0,1,0,6,test,1,0,m,Tue Mar 10 2026 15:19:59 GMT-0500 (Central Daylight Time),369581.5,O,z,1983,9,1,129.bmp,-120,-120,130.bmp,120,-120,131.bmp,-120,120,132.bmp,120,120,10042.29999999702,359539.200000003,7775,no,SM,A,130.bmp,-120,120,248974,242947,250991,244959,360223.0,354196.0,362239.0,356208.0,9
4,0,0,0,1,7,test,1,1,z,Tue Mar 10 2026 15:19:59 GMT-0500 (Central Daylight Time),379062.0,O,z,1425,10,1,137.bmp,-120,-120,138.bmp,120,-120,139.bmp,-120,120,140.bmp,120,120,9477.09999999404,369584.90000000596,7775,yes,SM,A,140.bmp,120,120,248974,242947,250991,244959,370270.0,364242.0,372286.0,366254.0,10
3,0,0,1,0,8,test,1,1,z,Tue Mar 10 2026 15:19:59 GMT-0500 (Central Daylight Time),388808.700000003,O,z,1688,11,1,133.bmp,-120,-120,134.bmp,120,-120,135.bmp,-120,120,136.bmp,120,120,9743.10000000894,379065.59999999404,7775,yes,SM,A,135.bmp,-120,120,248974,242947,250991,244959,379751.0,373723.0,381766.0,375735.0,11
2,0,1,0,0,9,test,1,1,m,Tue Mar 10 2026 15:19:59 GMT-0500 (Central Daylight Time),397989.200000003,O,m,1125,12,1,141.bmp,-120,-120,142.bmp,120,-120,143.bmp,-120,120,144.bmp,120,120,9177.5,388811.700000003,7775,no,SM,A,141.bmp,120,-120,248974,242947,250991,244959,389497.0,383469.0,391513.0,385482.0,12
3,0,0,1,0,10,test,1,1,m,Tue Mar 10 2026 15:19:59 GMT-0500 (Central Daylight Time),407519.59999999404,O,m,1481,13,1,145.bmp,-120,-120,146.bmp,120,-120,147.bmp,-120,120,148.bmp,120,120,9526.39999999106,397993.200000003,7775,no,SM,A,146.bmp,-120,120,248974,242947,250991,244959,398678.0,392650.0,400694.0,394663.0,13
1,1,0,0,0,11,test,1,1,z,Tue Mar 10 2026 15:19:59 GMT-0500 (Central Daylight Time),417583.0,O,z,1929,14,1,149.bmp,-120,-120,150.bmp,120,-120,104.bmp,-120,120,101.bmp,120,120,10060.09999999404,407522.90000000596,7775,yes,SM,A,149.bmp,-120,-120,248974,242947,250991,244959,408208.0,402180.0,410302.0,404193.0,14
4,0,0,0,1,12,test,1,1,m,Tue Mar 10 2026 15:19:59 GMT-0500 (Central Daylight Time),427179.90000000596,O,m,1543,15,1,110.bmp,-120,-120,111.bmp,120,-120,112.bmp,-120,120,113.bmp,120,120,9593.10000000894,417586.799999997,7775,no,SM,A,111.bmp,120,120,248974,242947,250991,244959,418273.0,412244.0,420288.0,414257.0,15
1,1,0,0,0,12,test,1,0,m,Tue Mar 10 2026 15:19:59 GMT-0500 (Central Daylight Time),437143.59999999404,O,z,1906,16,1,102.bmp,-120,-120,103.bmp,120,-120,104.bmp,-120,120,105.bmp,120,120,9959.5,427184.09999999404,7775,no,SM,A,105.bmp,-120,-120,248974,242947,250991,244959,427869.0,421841.0,429885.0,423853.0,16
3,0,0,1,0,13,test,1,1,m,Tue Mar 10 2026 15:19:59 GMT-0500 (Central Daylight Time),446524.200000003,O,m,1268,17,1,122.bmp,-120,-120,123.bmp,120,-120,124.bmp,-120,120,125.bmp,120,120,9376.5,437147.700000003,7775,no,SM,A,122.bmp,-120,120,248974,242947,250991,244959,437882.0,431805.0,439899.0,433879.0,17
1,1,0,0,0,14,test,1,1,z,Tue Mar 10 2026 15:19:59 GMT-0500 (Central Daylight Time),456337.59999999404,O,z,1754,18,1,106.bmp,-120,-120,107.bmp,120,-120,108.bmp,-120,120,109.bmp,120,120,9810.5,446527.09999999404,7775,yes,SM,A,106.bmp,-120,-120,248974,242947,250991,244959,447213.0,441184.0,449229.0,443197.0,18
2,0,1,0,0,15,test,1,1,z,Tue Mar 10 2026 15:19:59 GMT-0500 (Central Daylight Time),465934.200000003,O,z,1548,19,1,126.bmp,-120,-120,127.bmp,120,-120,128.bmp,-120,120,129.bmp,120,120,9592.90000000596,456341.299999997,7775,yes,SM,A,127.bmp,120,-120,248974,242947,250991,244959,457026.0,450999.0,459043.0,453011.0,19
3,0,0,1,0,15,test,1,0,z,Tue Mar 10 2026 15:19:59 GMT-0500 (Central Daylight Time),475681.799999997,O,m,1688,20,1,130.bmp,-120,-120,131.bmp,120,-120,132.bmp,-120,120,133.bmp,120,120,9744.20000000298,465937.59999999404,7775,yes,SM,A,132.bmp,-120,120,248974,242947,250991,244959,466623.0,460595.0,468639.0,462608.0,20
1,1,0,0,0,16,test,1,1,m,Tue Mar 10 2026 15:19:59 GMT-0500 (Central Daylight Time),485678.40000000596,O,m,1931,21,1,114.bmp,-120,-120,115.bmp,120,-120,116.bmp,-120,120,117.bmp,120,120,9993.300000011921,475685.09999999404,7775,no,SM,A,116.bmp,-120,-120,248974,242947,250991,244959,476370.0,470342.0,478388.0,472355.0,21
4,0,0,0,1,17,test,1,1,z,Tue Mar 10 2026 15:19:59 GMT-0500 (Central Daylight Time),495442.0,O,z,1712,22,1,118.bmp,-120,-120,119.bmp,120,-120,120.bmp,-120,120,121.bmp,120,120,9761.0,485681.0,7775,yes,SM,A,121.bmp,120,120,248974,242947,250991,244959,486367.0,480338.0,488383.0,482352.0,22
1,1,0,0,0,18,test,1,1,m,Tue Mar 10 2026 15:19:59 GMT-0500 (Central Daylight Time),505372.299999997,O,m,1876,23,1,134.bmp,-120,-120,135.bmp,120,-120,136.bmp,-120,120,137.bmp,120,120,9926.89999999106,495445.40000000596,7775,no,SM,A,137.bmp,-120,-120,248974,242947,250991,244959,496131.0,490103.0,498147.0,492115.0,23
2,0,1,0,0,18,test,1,0,z,Tue Mar 10 2026 15:19:59 GMT-0500 (Central Daylight Time),515435.799999997,O,None,2016,24,1,142.bmp,-120,-120,143.bmp,120,-120,144.bmp,-120,120,145.bmp,120,120,10060.5,505375.299999997,7775,yes,SM,A,143.bmp,120,-120,248974,242947,250991,244959,506061.0,500033.0,508077.0,502046.0,24
4,0,0,0,1,19,test,1,1,m,Tue Mar 10 2026 15:19:59 GMT-0500 (Central Daylight Time),524732.900000006,O,m,1258,25,1,146.bmp,-120,-120,147.bmp,120,-120,148.bmp,-120,120,149.bmp,120,120,9293.10000000894,515439.799999997,7775,no,SM,A,148.bmp,120,120,248974,242947,250991,244959,516124.0,510097.0,518125.0,512109.0,25
1,1,0,0,0,19,test,1,0,z,Tue Mar 10 2026 15:19:59 GMT-0500 (Central Daylight Time),534330.099999994,O,m,1545,26,1,138.bmp,-120,-120,139.bmp,120,-120,140.bmp,-120,120,141.bmp,120,120,9593.59999999404,524736.5,7775,yes,SM,A,138.bmp,-120,-120,248974,242947,250991,244959,525421.0,519394.0,527438.0,521406.0,26
4,0,0,0,1,19,test,1,0,z,Tue Mar 10 2026 15:19:59 GMT-0500 (Central Daylight Time),543860.200000003,O,m,1475,27,1,150.bmp,-120,-120,111.bmp,120,-120,101.bmp,-120,120,102.bmp,120,120,9526.60000000894,534333.599999994,7775,yes,SM,A,102.bmp,120,120,248974,242947,250991,244959,535018.0,528991.0,537035.0,531003.0,27
3,0,0,1,0,20,test,1,1,m,Tue Mar 10 2026 15:19:59 GMT-0500 (Central Daylight Time),553257.299999997,O,m,1346,28,1,103.bmp,-120,-120,104.bmp,120,-120,105.bmp,-120,120,106.bmp,120,120,9393.89999999106,543863.400000006,7775,no,SM,A,103.bmp,-120,120,248974,242947,250991,244959,544550.0,538521.0,546565.0,540534.0,28
2,0,1,0,0,21,test,1,1,z,Tue Mar 10 2026 15:19:59 GMT-0500 (Central Daylight Time),562705.400000006,O,z,1397,29,1,107.bmp,-120,-120,108.bmp,120,-120,109.bmp,-120,120,110.bmp,120,120,9444.300000011921,553261.099999994,7775,yes,SM,A,108.bmp,120,-120,248974,242947,250991,244959,553946.0,547918.0,555962.0,549932.0,29
3,0,0,1,0,22,test,1,1,z,Tue Mar 10 2026 15:19:59 GMT-0500 (Central Daylight Time),572651.299999997,O,z,1894,30,1,111.bmp,-120,-120,112.bmp,120,-120,113.bmp,-120,120,114.bmp,120,120,9942.70000000298,562708.599999994,7775,yes,SM,A,113.bmp,-120,120,248974,242947,250991,244959,563393.0,557366.0,565409.0,559378.0,30
1,1,0,0,0,23,test,1,1,z,Tue Mar 10 2026 15:19:59 GMT-0500 (Central Daylight Time),582398.400000006,O,z,1683,31,1,115.bmp,-120,-120,116.bmp,120,-120,117.bmp,-120,120,118.bmp,120,120,9744.0,572654.400000006,7775,yes,SM,A,115.bmp,-120,-120,248974,242947,250991,244959,573341.0,567312.0,575356.0,569325.0,31
2,0,1,0,0,24,test,1,1,m,Tue Mar 10 2026 15:19:59 GMT-0500 (Central Daylight Time),591845.299999997,O,m,1392,32,1,119.bmp,-120,-120,120.bmp,120,-120,121.bmp,-120,120,122.bmp,120,120,9443.79999999702,582401.5,7775,no,SM,A,119.bmp,120,-120,248974,242947,250991,244959,583087.0,577059.0,585103.0,579073.0,32
4,0,0,0,1,25,test,1,1,z,Tue Mar 10 2026 15:19:59 GMT-0500 (Central Daylight Time),601625.700000003,O,z,1729,33,1,131.bmp,-120,-120,132.bmp,120,-120,133.bmp,-120,120,134.bmp,120,120,9777.29999999702,591848.400000006,7775,yes,SM,A,134.bmp,120,120,248974,242947,250991,244959,592534.0,586506.0,594550.0,588519.0,33
2,0,1,0,0,26,test,1,1,z,Tue Mar 10 2026 15:19:59 GMT-0500 (Central Daylight Time),611022.400000006,O,z,1341,34,1,123.bmp,-120,-120,124.bmp,120,-120,125.bmp,-120,120,126.bmp,120,120,9394.10000000894,601628.299999997,7775,yes,SM,A,124.bmp,120,-120,248974,242947,250991,244959,602314.0,596286.0,604330.0,598299.0,34
4,0,0,0,1,27,test,1,1,m,Tue Mar 10 2026 15:19:59 GMT-0500 (Central Daylight Time),620937.200000003,O,m,1864,35,1,127.bmp,-120,-120,128.bmp,120,-120,129.bmp,-120,120,130.bmp,120,120,9911.10000000894,611026.099999994,7775,no,SM,A,129.bmp,120,120,248974,242947,250991,244959,611711.0,605683.0,613727.0,607696.0,35
3,0,0,1,0,27,test,1,0,m,Tue Mar 10 2026 15:19:59 GMT-0500 (Central Daylight Time),630999.799999997,O,None,2016,36,1,135.bmp,-120,-120,136.bmp,120,-120,137.bmp,-120,120,138.bmp,120,120,10059.29999999702,620940.5,7775,no,SM,A,135.bmp,-120,120,248974,242947,250991,244959,621625.0,615598.0,623641.0,617610.0,36
1,1,0,0,0,28,test,1,1,m,Tue Mar 10 2026 15:19:59 GMT-0500 (Central Daylight Time),640697.0,O,m,1637,37,1,139.bmp,-120,-120,140.bmp,120,-120,141.bmp,-120,120,142.bmp,120,120,9694.0,631003.0,7775,no,SM,A,140.bmp,-120,-120,248974,242947,250991,244959,631688.0,625660.0,633705.0,627673.0,37
2,0,1,0,0,28,test,1,0,m,Tue Mar 10 2026 15:19:59 GMT-0500 (Central Daylight Time),650760.400000006,O,None,2016,38,1,143.bmp,-120,-120,144.bmp,120,-120,145.bmp,-120,120,146.bmp,120,120,10060.5,640699.900000006,7775,no,SM,A,145.bmp,120,-120,248974,242947,250991,244959,641385.0,635357.0,643401.0,637370.0,38
4,0,0,0,1,29,test,1,1,z,Tue Mar 10 2026 15:19:59 GMT-0500 (Central Daylight Time),660540.400000006,O,z,1718,39,1,147.bmp,-120,-120,148.bmp,120,-120,149.bmp,-120,120,150.bmp,120,120,9777.10000000894,650763.299999997,7775,yes,SM,A,150.bmp,120,120,248974,242947,250991,244959,651449.0,645421.0,653465.0,647434.0,39
3,0,0,1,0,29,test,1,0,m,Tue Mar 10 2026 15:19:59 GMT-0500 (Central Daylight Time),670454.099999994,O,z,1866,40,1,104.bmp,-120,-120,105.bmp,120,-120,106.bmp,-120,120,107.bmp,120,120,9907.59999999404,660546.5,7775,no,SM,A,105.bmp,-120,120,248974,242947,250991,244959,661229.0,655204.0,663245.0,657214.0,40
1,1,0,0,0,30,test,1,1,z,Tue Mar 10 2026 15:19:59 GMT-0500 (Central Daylight Time),679701.299999997,O,z,1199,41,1,108.bmp,-120,-120,109.bmp,120,-120,110.bmp,-120,120,111.bmp,120,120,9244.09999999404,670457.200000003,7775,yes,SM,A,108.bmp,-120,-120,248974,242947,250991,244959,671143.0,665114.0,673159.0,667127.0,41
4,0,0,0,1,31,test,1,1,z,Tue Mar 10 2026 15:19:59 GMT-0500 (Central Daylight Time),689481.200000003,O,z,1729,42,1,112.bmp,-120,-120,113.bmp,120,-120,114.bmp,-120,120,115.bmp,120,120,9776.90000000596,679704.299999997,7775,yes,SM,A,115.bmp,120,120,248974,242947,250991,244959,680390.0,674361.0,682406.0,676375.0,42
1,1,0,0,0,31,test,1,0,z,Tue Mar 10 2026 15:19:59 GMT-0500 (Central Daylight Time),699545.099999994,O,None,2016,43,1,116.bmp,-120,-120,117.bmp,120,-120,118.bmp,-120,120,119.bmp,120,120,10060.29999999702,689484.799999997,7775,yes,SM,A,116.bmp,-120,-120,248974,242947,250991,244959,690170.0,684142.0,692186.0,686156.0,43
4,0,0,0,1,32,test,1,1,m,Tue Mar 10 2026 15:19:59 GMT-0500 (Central Daylight Time),708558.799999997,O,m,950,44,1,104.bmp,-120,-120,101.bmp,120,-120,102.bmp,-120,120,103.bmp,120,120,9010.20000000298,699548.599999994,7775,no,SM,A,104.bmp,120,120,248974,242947,250991,244959,700233.0,694206.0,702250.0,696218.0,44
1,1,0,0,0,33,test,1,1,m,Tue Mar 10 2026 15:19:59 GMT-0500 (Central Daylight Time),718522.299999997,O,m,1912,45,1,128.bmp,-120,-120,129.bmp,120,-120,130.bmp,-120,120,131.bmp,120,120,9959.39999999106,708562.900000006,7775,no,SM,A,131.bmp,-120,-120,248974,242947,250991,244959,709248.0,703220.0,711263.0,705232.0,45
1,1,0,0,0,34,test,1,1,m,Tue Mar 10 2026 15:19:59 GMT-0500 (Central Daylight Time),727819.099999994,O,m,1236,46,1,120.bmp,-120,-120,121.bmp,120,-120,122.bmp,-120,120,123.bmp,120,120,9293.699999988079,718525.400000006,7775,no,SM,A,121.bmp,-120,-120,248974,242947,250991,244959,719211.0,713183.0,721227.0,715196.0,46
3,0,0,1,0,35,test,1,1,z,Tue Mar 10 2026 15:19:59 GMT-0500 (Central Daylight Time),737499.599999994,O,z,1627,47,1,124.bmp,-120,-120,125.bmp,120,-120,126.bmp,-120,120,127.bmp,120,120,9677.699999988079,727821.900000006,7775,yes,SM,A,126.bmp,-120,120,248974,242947,250991,244959,728508.0,722479.0,730524.0,724493.0,47
3,0,0,1,0,35,test,1,0,z,Tue Mar 10 2026 15:19:59 GMT-0500 (Central Daylight Time),747546.599999994,O,None,2014,48,1,140.bmp,-120,-120,141.bmp,120,-120,142.bmp,-120,120,143.bmp,120,120,10043.79999999702,737502.799999997,7775,yes,SM,A,142.bmp,-120,120,248974,242947,250991,244959,738188.0,732160.0,740190.0,734173.0,48
2,0,1,0,0,36,test,1,1,z,Tue Mar 10 2026 15:19:59 GMT-0500 (Central Daylight Time),757410.099999994,O,z,1804,49,1,136.bmp,-120,-120,137.bmp,120,-120,138.bmp,-120,120,139.bmp,120,120,9859.5,747550.599999994,7775,yes,SM,A,137.bmp,120,-120,248974,242947,250991,244959,748235.0,742208.0,750251.0,744220.0,49
3,0,0,1,0,37,test,1,1,m,Tue Mar 10 2026 15:19:59 GMT-0500 (Central Daylight Time),767040.299999997,O,m,1580,50,1,132.bmp,-120,-120,133.bmp,120,-120,134.bmp,-120,120,135.bmp,120,120,9626.59999999404,757413.700000003,7775,no,SM,A,132.bmp,-120,120,248974,242947,250991,244959,758099.0,752071.0,760115.0,754084.0,50
2,0,1,0,0,37,test,1,0,z,Tue Mar 10 2026 15:19:59 GMT-0500 (Central Daylight Time),776620.900000006,O,m,1484,51,1,144.bmp,-120,-120,145.bmp,120,-120,146.bmp,-120,120,147.bmp,120,120,9577.10000000894,767043.799999997,7775,yes,SM,A,145.bmp,120,-120,248974,242947,250991,244959,767763.0,761701.0,769779.0,763756.0,51
4,0,0,0,1,38,test,1,1,m,Tue Mar 10 2026 15:19:59 GMT-0500 (Central Daylight Time),785984.599999994,O,m,1305,52,1,148.bmp,-120,-120,149.bmp,120,-120,150.bmp,-120,120,131.bmp,120,120,9360.39999999106,776624.200000003,7775,no,SM,A,148.bmp,120,120,248974,242947,250991,244959,777309.0,771281.0,779326.0,773294.0,52
3,0,0,1,0,39,test,1,1,z,Tue Mar 10 2026 15:19:59 GMT-0500 (Central Daylight Time),795615.400000006,O,z,1574,53,1,101.bmp,-120,-120,102.bmp,120,-120,103.bmp,-120,120,104.bmp,120,120,9626.90000000596,785988.5,7775,yes,SM,A,103.bmp,-120,120,248974,242947,250991,244959,786673.0,780646.0,788689.0,782658.0,53
1,1,0,0,0,40,test,1,1,m,Tue Mar 10 2026 15:19:59 GMT-0500 (Central Daylight Time),804895.299999997,O,m,1223,54,1,105.bmp,-120,-120,106.bmp,120,-120,107.bmp,-120,120,108.bmp,120,120,9276.79999999702,795618.5,7775,no,SM,A,107.bmp,-120,-120,248974,242947,250991,244959,796304.0,790276.0,798320.0,792288.0,54
4,0,0,0,1,41,test,1,1,z,Tue Mar 10 2026 15:19:59 GMT-0500 (Central Daylight Time),814525.700000003,O,z,1567,55,1,109.bmp,-120,-120,110.bmp,120,-120,111.bmp,-120,120,112.bmp,120,120,9627.40000000596,804898.299999997,7775,yes,SM,A,112.bmp,120,120,248974,242947,250991,244959,805584.0,799556.0,807600.0,801569.0,55
2,0,1,0,0,41,test,1,0,m,Tue Mar 10 2026 15:19:59 GMT-0500 (Central Daylight Time),824405.700000003,O,z,1817,56,1,113.bmp,-120,-120,114.bmp,120,-120,115.bmp,-120,120,116.bmp,120,120,9877.10000000894,814528.599999994,7775,no,SM,A,113.bmp,120,-120,248974,242947,250991,244959,815214.0,809186.0,817230.0,811199.0,56
4,0,0,0,1,42,test,1,1,m,Tue Mar 10 2026 15:19:59 GMT-0500 (Central Daylight Time),834136.099999994,O,m,1680,57,1,117.bmp,-120,-120,118.bmp,120,-120,119.bmp,-120,120,120.bmp,120,120,9727.199999988079,824408.900000006,7775,no,SM,A,118.bmp,120,120,248974,242947,250991,244959,825095.0,819066.0,827111.0,821079.0,57
3,0,0,1,0,43,test,1,1,z,Tue Mar 10 2026 15:19:59 GMT-0500 (Central Daylight Time),844183.099999994,O,z,1990,58,1,121.bmp,-120,-120,122.bmp,120,-120,123.bmp,-120,120,124.bmp,120,120,10043.59999999404,834139.5,7775,yes,SM,A,123.bmp,-120,120,248974,242947,250991,244959,834825.0,828797.0,836841.0,830810.0,58
2,0,1,0,0,44,test,1,1,m,Tue Mar 10 2026 15:19:59 GMT-0500 (Central Daylight Time),853730.099999994,O,m,1493,59,1,125.bmp,-120,-120,126.bmp,120,-120,127.bmp,-120,120,128.bmp,120,120,9543.59999999404,844186.5,7775,no,SM,A,128.bmp,120,-120,248974,242947,250991,244959,844872.0,838844.0,846889.0,840856.0,59
1,1,0,0,0,45,test,1,1,z,Tue Mar 10 2026 15:19:59 GMT-0500 (Central Daylight Time),863354.299999997,O,z,1576,60,1,129.bmp,-120,-120,130.bmp,120,-120,131.bmp,-120,120,132.bmp,120,120,9620.70000000298,853733.599999994,7775,yes,SM,A,129.bmp,-120,-120,248974,242947,250991,244959,854419.0,848391.0,856435.0,850404.0,60
2,0,1,0,0,46,test,1,1,z,Tue Mar 10 2026 15:19:59 GMT-0500 (Central Daylight Time),873340.599999994,O,z,1934,61,1,133.bmp,-120,-120,134.bmp,120,-120,135.bmp,-120,120,136.bmp,120,120,9982.79999999702,863357.799999997,7775,yes,SM,A,134.bmp,120,-120,248974,242947,250991,244959,864032.0,858015.0,866049.0,860017.0,61
4,0,0,0,1,47,test,1,1,z,Tue Mar 10 2026 15:19:59 GMT-0500 (Central Daylight Time),883270.5,O,z,1882,62,1,141.bmp,-120,-120,142.bmp,120,-120,143.bmp,-120,120,144.bmp,120,120,9926.40000000596,873344.099999994,7775,yes,SM,A,144.bmp,120,120,248974,242947,250991,244959,874029.0,868001.0,876045.0,870014.0,62
1,1,0,0,0,48,test,1,1,m,Tue Mar 10 2026 15:19:59 GMT-0500 (Central Daylight Time),892901.0,O,m,1575,63,1,145.bmp,-120,-120,146.bmp,120,-120,147.bmp,-120,120,148.bmp,120,120,9627.70000000298,883273.299999997,7775,no,SM,A,145.bmp,-120,120,248974,242947,250991,244959,883959.0,877931.0,885976.0,879944.0,63
2,0,1,0,0,49,test,1,1,z,Tue Mar 10 2026 15:19:59 GMT-0500 (Central Daylight Time),902498.299999997,O,z,1538,64,1,149.bmp,-120,-120,150.bmp,120,-120,112.bmp,-120,120,101.bmp,120,120,9594.39999999106,892903.900000006,7775,yes,SM,A,150.bmp,120,-120,248974,242947,250991,244959,893590.0,887561.0,895606.0,889575.0,64
4,0,0,0,1,50,test,1,1,m,Tue Mar 10 2026 15:19:59 GMT-0500 (Central Daylight Time),912245.200000003,O,m,1699,65,1,102.bmp,-120,-120,103.bmp,120,-120,104.bmp,-120,120,105.bmp,120,120,9743.79999999702,902501.400000006,7775,no,SM,A,104.bmp,120,120,248974,242947,250991,244959,903187.0,897159.0,905188.0,899172.0,65
3,0,0,1,0,51,test,1,1,m,Tue Mar 10 2026 15:19:59 GMT-0500 (Central Daylight Time),921558.700000003,O,m,1257,66,1,106.bmp,-120,-120,107.bmp,120,-120,108.bmp,-120,120,109.bmp,120,120,9310.40000000596,912248.299999997,7775,no,SM,A,109.bmp,-120,120,248974,242947,250991,244959,912934.0,906906.0,914950.0,908918.0,66
2,0,1,0,0,52,test,1,1,m,Tue Mar 10 2026 15:19:59 GMT-0500 (Central Daylight Time),931155.900000006,O,m,1543,67,1,137.bmp,-120,-120,138.bmp,120,-120,139.bmp,-120,120,140.bmp,120,120,9594.300000011921,921561.599999994,7775,no,SM,A,139.bmp,120,-120,248974,242947,250991,244959,922248.0,916219.0,924264.0,918232.0,67
3,0,0,1,0,53,test,1,1,z,Tue Mar 10 2026 15:19:59 GMT-0500 (Central Daylight Time),940486.0,O,z,1282,68,1,110.bmp,-120,-120,111.bmp,120,-120,112.bmp,-120,120,113.bmp,120,120,9326.59999999404,931159.400000006,7775,yes,SM,A,112.bmp,-120,120,248974,242947,250991,244959,931844.0,925817.0,933861.0,927829.0,68
1,1,0,0,0,54,test,1,1,m,Tue Mar 10 2026 15:19:59 GMT-0500 (Central Daylight Time),949916.5,O,m,1376,69,1,114.bmp,-120,-120,115.bmp,120,-120,116.bmp,-120,120,117.bmp,120,120,9427.5,940489.0,7775,no,SM,A,115.bmp,-120,-120,248974,242947,250991,244959,941175.0,935146.0,943191.0,937159.0,69
2,0,1,0,0,54,test,1,0,m,Tue Mar 10 2026 15:19:59 GMT-0500 (Central Daylight Time),959913.200000003,O,z,1946,70,1,118.bmp,-120,-120,119.bmp,120,-120,120.bmp,-120,120,121.bmp,120,120,9993.90000000596,949919.299999997,7775,no,SM,A,120.bmp,120,-120,248974,242947,250991,244959,950608.0,944577.0,952621.0,946590.0,70
4,0,0,0,1,55,test,1,1,z,Tue Mar 10 2026 15:19:59 GMT-0500 (Central Daylight Time),969677.200000003,O,z,1700,71,1,122.bmp,-120,-120,123.bmp,120,-120,124.bmp,-120,120,125.bmp,120,120,9760.70000000298,959916.5,7775,yes,SM,A,125.bmp,120,120,248974,242947,250991,244959,960602.0,954574.0,962619.0,956588.0,71
1,1,0,0,0,56,test,1,1,z,Tue Mar 10 2026 15:19:59 GMT-0500 (Central Daylight Time),979024.5,O,z,1297,72,1,126.bmp,-120,-120,127.bmp,120,-120,128.bmp,-120,120,129.bmp,120,120,9344.59999999404,969679.900000006,7775,yes,SM,A,126.bmp,-120,-120,248974,242947,250991,244959,970366.0,964337.0,972382.0,966351.0,72
2,0,1,0,0,57,test,1,1,z,Tue Mar 10 2026 15:19:59 GMT-0500 (Central Daylight Time),988204.700000003,O,z,1126,73,1,130.bmp,-120,-120,131.bmp,120,-120,132.bmp,-120,120,133.bmp,120,120,9177.40000000596,979027.299999997,7775,yes,SM,A,131.bmp,120,-120,248974,242947,250991,244959,979713.0,973685.0,981729.0,975711.0,73
4,0,0,0,1,58,test,1,1,m,Tue Mar 10 2026 15:19:59 GMT-0500 (Central Daylight Time),998218.200000003,O,m,1962,74,1,134.bmp,-120,-120,135.bmp,120,-120,136.bmp,-120,120,137.bmp,120,120,10010.40000000596,988207.799999997,7775,no,SM,A,136.bmp,120,120,248974,242947,250991,244959,988893.0,982865.0,990909.0,984878.0,74
2,0,1,0,0,58,test,1,0,m,Tue Mar 10 2026 15:19:59 GMT-0500 (Central Daylight Time),1008281.799999997,O,None,2016,75,1,138.bmp,-120,-120,139.bmp,120,-120,140.bmp,-120,120,141.bmp,120,120,10060.70000000298,998221.099999994,7775,no,SM,A,141.bmp,120,-120,248974,242947,250991,244959,998907.0,992878.0,1000923.0,994892.0,75
1,1,0,0,0,59,test,1,1,z,Tue Mar 10 2026 15:19:59 GMT-0500 (Central Daylight Time),1017528.700000003,O,z,1188,76,1,142.bmp,-120,-120,143.bmp,120,-120,144.bmp,-120,120,145.bmp,120,120,9244.10000000894,1008284.599999994,7775,yes,SM,A,142.bmp,-120,-120,248974,242947,250991,244959,1008970.0,1002942.0,1010987.0,1004955.0,76
3,0,0,1,0,60,test,1,1,z,Tue Mar 10 2026 15:19:59 GMT-0500 (Central Daylight Time),1027376.700000003,O,z,1813,77,1,150.bmp,-120,-120,111.bmp,120,-120,101.bmp,-120,120,102.bmp,120,120,9844.90000000596,1017531.799999997,7775,yes,SM,A,101.bmp,-120,120,248974,242947,250991,244959,1018217.0,1012189.0,1020218.0,1014202.0,77
1,1,0,0,0,61,test,1,1,m,Tue Mar 10 2026 15:19:59 GMT-0500 (Central Daylight Time),1037022.799999997,O,m,1590,78,1,146.bmp,-120,-120,147.bmp,120,-120,148.bmp,-120,120,149.bmp,120,120,9642.79999999702,1027380.0,7775,no,SM,A,147.bmp,-120,-120,248974,242947,250991,244959,1028065.0,1022037.0,1030081.0,1024049.0,78
4,0,0,0,1,62,test,1,1,m,Tue Mar 10 2026 15:19:59 GMT-0500 (Central Daylight Time),1046752.900000006,O,m,1672,79,1,107.bmp,-120,-120,108.bmp,120,-120,109.bmp,-120,120,110.bmp,120,120,9726.5,1037026.400000006,7775,no,SM,A,107.bmp,120,120,248974,242947,250991,244959,1037711.0,1031684.0,1039727.0,1033696.0,79
3,0,0,1,0,63,test,1,1,m,Tue Mar 10 2026 15:19:59 GMT-0500 (Central Daylight Time),1056100.0,O,m,1293,80,1,103.bmp,-120,-120,104.bmp,120,-120,105.bmp,-120,120,106.bmp,120,120,9343.59999999404,1046756.400000006,7775,no,SM,A,106.bmp,-120,120,248974,242947,250991,244959,1047441.0,1041414.0,1049458.0,1043427.0,80
