acc_sum,block,block_c,change,condition,correct,correct_response,datetime,endtime,face,project,response,response_time,row_sel,session_number,start_end,starttime,subject_id,task,task_vers,trial
0,prac,1,,1-Back,,,Thu Apr 02 2026 10:27:59 GMT-0500 (Central Daylight Time),,005_o_f_d_a.png,O,space,5058,1,1,,,7789,VNB,B,0
1,prac,1,0.0,1-Back,1.0,m,Thu Apr 02 2026 10:27:59 GMT-0500 (Central Daylight Time),187437.90000000596,020_y_f_n_a.png,O,m,1301,2,1,2142.5999999940395,185295.30000001192,7789,VNB,B,1
2,prac,1,0.0,1-Back,1.0,m,Thu Apr 02 2026 10:27:59 GMT-0500 (Central Daylight Time),189800.80000001192,007_m_m_h_a.png,O,m,1500,3,1,2356.100000023842,187444.69999998808,7789,VNB,B,2
3,prac,1,0.0,1-Back,1.0,m,Thu Apr 02 2026 10:27:59 GMT-0500 (Central Daylight Time),191435.59999999404,016_y_m_d_a.png,O,m,742,4,1,1626.5999999940395,189809.0,7789,VNB,B,3
4,prac,1,0.0,1-Back,1.0,m,Thu Apr 02 2026 10:27:59 GMT-0500 (Central Daylight Time),193618.80000001192,005_o_f_n_a.png,O,m,1322,5,1,2177.0,191441.80000001192,7789,VNB,B,4
5,prac,1,1.0,1-Back,1.0,z,Thu Apr 02 2026 10:27:59 GMT-0500 (Central Daylight Time),195932.69999998808,016_y_m_n_a.png,O,z,1441,6,1,2305.2999999821186,193627.40000000596,7789,VNB,B,5
6,prac,1,0.0,1-Back,1.0,m,Thu Apr 02 2026 10:27:59 GMT-0500 (Central Daylight Time),197601.0,004_o_m_h_a.png,O,m,826,7,1,1664.699999988079,195936.30000001192,7789,VNB,B,6
6,prac,1,0.0,1-Back,0.0,m,Thu Apr 02 2026 10:27:59 GMT-0500 (Central Daylight Time),199949.09999999404,011_m_f_d_a.png,O,z,1498,8,1,2339.9000000059605,197609.19999998808,7789,VNB,B,7
6,prac,1,1.0,1-Back,0.0,z,Thu Apr 02 2026 10:27:59 GMT-0500 (Central Daylight Time),202784.19999998808,020_y_f_d_a.png,O,None,2001,9,1,2830.0999999940395,199954.09999999404,7789,VNB,B,8
7,prac,1,0.0,1-Back,1.0,m,Thu Apr 02 2026 10:27:59 GMT-0500 (Central Daylight Time),204582.40000000596,007_m_m_n_a.png,O,m,949,10,1,1792.300000011921,202790.09999999404,7789,VNB,B,9
7,prac,1,0.0,1-Back,0.0,m,Thu Apr 02 2026 10:27:59 GMT-0500 (Central Daylight Time),206363.69999998808,005_o_f_h_a.png,O,z,926,11,1,1778.0999999940395,204585.59999999404,7789,VNB,B,10
7,prac,1,0.0,1-Back,0.0,m,Thu Apr 02 2026 10:27:59 GMT-0500 (Central Daylight Time),209234.90000000596,016_y_m_d_a.png,O,None,2004,12,1,2862.9000000059605,206372.0,7789,VNB,B,11
0,prac,2,0.0,1-Back,,,Thu Apr 02 2026 10:27:59 GMT-0500 (Central Daylight Time),209234.90000000596,005_o_f_d_a.png,O,a,13647,1,1,2862.9000000059605,206372.0,7789,VNB,B,0
1,prac,2,0.0,1-Back,1.0,m,Thu Apr 02 2026 10:27:59 GMT-0500 (Central Daylight Time),228025.90000000596,020_y_f_n_a.png,O,m,1262,2,1,2098.4000000059605,225927.5,7789,VNB,B,1
2,prac,2,0.0,1-Back,1.0,m,Thu Apr 02 2026 10:27:59 GMT-0500 (Central Daylight Time),229974.5,007_m_m_h_a.png,O,m,1095,3,1,1939.199999988079,228035.30000001192,7789,VNB,B,2
3,prac,2,0.0,1-Back,1.0,m,Thu Apr 02 2026 10:27:59 GMT-0500 (Central Daylight Time),231573.40000000596,016_y_m_d_a.png,O,m,812,4,1,1595.7000000178814,229977.69999998808,7789,VNB,B,3
4,prac,2,0.0,1-Back,1.0,m,Thu Apr 02 2026 10:27:59 GMT-0500 (Central Daylight Time),233440.0,005_o_f_n_a.png,O,m,1012,5,1,1858.0,231582.0,7789,VNB,B,4
5,prac,2,1.0,1-Back,1.0,z,Thu Apr 02 2026 10:27:59 GMT-0500 (Central Daylight Time),235554.59999999404,016_y_m_n_a.png,O,z,1258,6,1,2111.2999999821186,233443.30000001192,7789,VNB,B,5
6,prac,2,0.0,1-Back,1.0,m,Thu Apr 02 2026 10:27:59 GMT-0500 (Central Daylight Time),237438.69999998808,004_o_m_h_a.png,O,m,1027,7,1,1874.5,235564.19999998808,7789,VNB,B,6
6,prac,2,0.0,1-Back,0.0,m,Thu Apr 02 2026 10:27:59 GMT-0500 (Central Daylight Time),239270.69999998808,011_m_f_d_a.png,O,z,984,8,1,1826.8999999761581,237443.80000001192,7789,VNB,B,7
7,prac,2,1.0,1-Back,1.0,z,Thu Apr 02 2026 10:27:59 GMT-0500 (Central Daylight Time),240969.5,020_y_f_d_a.png,O,z,851,9,1,1689.699999988079,239279.80000001192,7789,VNB,B,8
8,prac,2,0.0,1-Back,1.0,m,Thu Apr 02 2026 10:27:59 GMT-0500 (Central Daylight Time),242885.90000000596,007_m_m_n_a.png,O,m,1064,10,1,1912.5,240973.40000000596,7789,VNB,B,9
8,prac,2,0.0,1-Back,0.0,m,Thu Apr 02 2026 10:27:59 GMT-0500 (Central Daylight Time),244919.80000001192,005_o_f_h_a.png,O,z,1159,11,1,2022.4000000059605,242897.40000000596,7789,VNB,B,10
9,prac,2,0.0,1-Back,1.0,m,Thu Apr 02 2026 10:27:59 GMT-0500 (Central Daylight Time),247316.59999999404,016_y_m_d_a.png,O,m,1534,12,1,2393.4000000059605,244923.19999998808,7789,VNB,B,11
0,test,1,0.0,1-Back,,,Thu Apr 02 2026 10:27:59 GMT-0500 (Central Daylight Time),247316.59999999404,020_y_f_d_a.png,O,space,6210,1,1,2393.4000000059605,244923.19999998808,7789,VNB,B,0
1,test,1,0.0,1-Back,1.0,m,Thu Apr 02 2026 10:27:59 GMT-0500 (Central Daylight Time),266344.5,011_m_f_n_a.png,O,m,1139,2,1,2156.4000000059605,264188.09999999404,7789,VNB,B,1
2,test,1,0.0,1-Back,1.0,m,Thu Apr 02 2026 10:27:59 GMT-0500 (Central Daylight Time),268676.8000000119,004_o_m_h_a.png,O,m,1301,3,1,2328.600000023842,266348.1999999881,7789,VNB,B,2
3,test,1,1.0,1-Back,1.0,z,Thu Apr 02 2026 10:27:59 GMT-0500 (Central Daylight Time),270276.40000000596,007_m_m_h_a.png,O,z,576,4,1,1593.2000000178814,268683.1999999881,7789,VNB,B,3
4,test,1,0.0,1-Back,1.0,m,Thu Apr 02 2026 10:27:59 GMT-0500 (Central Daylight Time),272076.0,005_o_f_n_a.png,O,m,779,5,1,1796.199999988079,270279.8000000119,7789,VNB,B,4
4,test,1,0.0,1-Back,0.0,m,Thu Apr 02 2026 10:27:59 GMT-0500 (Central Daylight Time),274358.59999999404,016_y_m_d_a.png,O,z,1258,6,1,2279.0,272079.59999999404,7789,VNB,B,5
5,test,1,1.0,1-Back,1.0,z,Thu Apr 02 2026 10:27:59 GMT-0500 (Central Daylight Time),276157.5,011_m_f_d_a.png,O,z,768,7,1,1795.199999988079,274362.3000000119,7789,VNB,B,6
6,test,1,0.0,1-Back,1.0,m,Thu Apr 02 2026 10:27:59 GMT-0500 (Central Daylight Time),277973.6999999881,020_y_f_h_a.png,O,m,792,8,1,1807.8999999761581,276165.8000000119,7789,VNB,B,7
7,test,1,0.0,1-Back,1.0,m,Thu Apr 02 2026 10:27:59 GMT-0500 (Central Daylight Time),280623.5,004_o_m_n_a.png,O,m,1632,9,1,2646.199999988079,277977.3000000119,7789,VNB,B,8
8,test,1,0.0,1-Back,1.0,m,Thu Apr 02 2026 10:27:59 GMT-0500 (Central Daylight Time),282955.3000000119,016_y_m_h_a.png,O,m,1310,10,1,2326.100000023842,280629.1999999881,7789,VNB,B,9
9,test,1,0.0,1-Back,1.0,m,Thu Apr 02 2026 10:27:59 GMT-0500 (Central Daylight Time),285755.3000000119,004_o_m_d_a.png,O,m,1771,11,1,2796.300000011921,282959.0,7789,VNB,B,10
10,test,1,1.0,1-Back,1.0,z,Thu Apr 02 2026 10:27:59 GMT-0500 (Central Daylight Time),287639.09999999404,005_o_f_d_a.png,O,z,867,12,1,1875.7999999821186,285763.3000000119,7789,VNB,B,11
11,test,1,0.0,1-Back,1.0,m,Thu Apr 02 2026 10:27:59 GMT-0500 (Central Daylight Time),290253.8000000119,007_m_m_n_a.png,O,m,1593,13,1,2611.2000000178814,287642.59999999404,7789,VNB,B,12
11,test,1,1.0,1-Back,0.0,z,Thu Apr 02 2026 10:27:59 GMT-0500 (Central Daylight Time),292219.09999999404,020_y_f_n_a.png,O,m,935,14,1,1957.699999988079,290261.40000000596,7789,VNB,B,13
12,test,1,0.0,1-Back,1.0,m,Thu Apr 02 2026 10:27:59 GMT-0500 (Central Daylight Time),294568.3000000119,011_m_f_h_a.png,O,m,1329,15,1,2345.100000023842,292223.1999999881,7789,VNB,B,14
12,test,1,0.0,1-Back,0.0,m,Thu Apr 02 2026 10:27:59 GMT-0500 (Central Daylight Time),297601.3000000119,007_m_m_d_a.png,O,None,2016,16,1,3026.7000000178814,294574.59999999404,7789,VNB,B,15
13,test,1,0.0,1-Back,1.0,m,Thu Apr 02 2026 10:27:59 GMT-0500 (Central Daylight Time),300218.0,016_y_m_n_a.png,O,m,1590,17,1,2613.5,297604.5,7789,VNB,B,16
13,test,1,0.0,1-Back,0.0,m,Thu Apr 02 2026 10:27:59 GMT-0500 (Central Daylight Time),302233.0,005_o_f_h_a.png,O,z,981,18,1,2007.800000011921,300225.1999999881,7789,VNB,B,17
0,test,2,0.0,1-Back,,,Thu Apr 02 2026 10:27:59 GMT-0500 (Central Daylight Time),302233.0,016_y_m_n_a.png,O,space,2877,1,1,2007.800000011921,300225.1999999881,7789,VNB,B,0
1,test,2,0.0,1-Back,1.0,m,Thu Apr 02 2026 10:27:59 GMT-0500 (Central Daylight Time),309815.40000000596,020_y_f_h_a.png,O,m,1659,2,1,2675.0999999940395,307140.3000000119,7789,VNB,B,1
2,test,2,1.0,1-Back,1.0,m,Thu Apr 02 2026 10:27:59 GMT-0500 (Central Daylight Time),312212.8000000119,004_o_m_n_a.png,O,m,1376,3,1,2394.9000000059605,309817.90000000596,7789,VNB,B,2
2,test,2,0.0,1-Back,0.0,m,Thu Apr 02 2026 10:27:59 GMT-0500 (Central Daylight Time),315229.8000000119,011_m_f_d_a.png,O,None,2001,4,1,3008.9000000059605,312220.90000000596,7789,VNB,B,3
3,test,2,0.0,1-Back,1.0,z,Thu Apr 02 2026 10:27:59 GMT-0500 (Central Daylight Time),317612.09999999404,007_m_m_d_a.png,O,z,1351,5,1,2379.4000000059605,315232.6999999881,7789,VNB,B,4
4,test,2,0.0,1-Back,1.0,m,Thu Apr 02 2026 10:27:59 GMT-0500 (Central Daylight Time),319876.8000000119,016_y_m_h_a.png,O,m,1244,6,1,2257.9000000059605,317618.90000000596,7789,VNB,B,5
5,test,2,1.0,1-Back,1.0,z,Thu Apr 02 2026 10:27:59 GMT-0500 (Central Daylight Time),322009.8000000119,005_o_f_h_a.png,O,z,1111,7,1,2130.0,319879.8000000119,7789,VNB,B,6
6,test,2,0.0,1-Back,1.0,m,Thu Apr 02 2026 10:27:59 GMT-0500 (Central Daylight Time),323859.5,011_m_f_n_a.png,O,m,829,8,1,1843.199999988079,322016.3000000119,7789,VNB,B,7
6,test,2,0.0,1-Back,0.0,m,Thu Apr 02 2026 10:27:59 GMT-0500 (Central Daylight Time),325925.90000000596,020_y_f_d_a.png,O,z,1034,9,1,2063.5999999940395,323862.3000000119,7789,VNB,B,8
7,test,2,0.0,1-Back,1.0,m,Thu Apr 02 2026 10:27:59 GMT-0500 (Central Daylight Time),328225.59999999404,007_m_m_n_a.png,O,m,1272,10,1,2294.0,325931.59999999404,7789,VNB,B,9
8,test,2,1.0,1-Back,1.0,m,Thu Apr 02 2026 10:27:59 GMT-0500 (Central Daylight Time),330656.5,011_m_f_h_a.png,O,m,1412,11,1,2428.699999988079,328227.8000000119,7789,VNB,B,10
9,test,2,0.0,1-Back,1.0,z,Thu Apr 02 2026 10:27:59 GMT-0500 (Central Daylight Time),332390.1999999881,004_o_m_h_a.png,O,z,711,12,1,1728.8999999761581,330661.3000000119,7789,VNB,B,11
10,test,2,0.0,1-Back,1.0,m,Thu Apr 02 2026 10:27:59 GMT-0500 (Central Daylight Time),334339.0,016_y_m_d_a.png,O,m,928,13,1,1946.0999999940395,332392.90000000596,7789,VNB,B,12
11,test,2,0.0,1-Back,1.0,m,Thu Apr 02 2026 10:27:59 GMT-0500 (Central Daylight Time),337021.90000000596,005_o_f_n_a.png,O,m,1659,14,1,2675.9000000059605,334346.0,7789,VNB,B,13
12,test,2,0.0,1-Back,1.0,z,Thu Apr 02 2026 10:27:59 GMT-0500 (Central Daylight Time),339405.40000000596,020_y_f_n_a.png,O,z,1349,15,1,2380.300000011921,337025.09999999404,7789,VNB,B,14
13,test,2,1.0,1-Back,1.0,m,Thu Apr 02 2026 10:27:59 GMT-0500 (Central Daylight Time),341471.1999999881,007_m_m_h_a.png,O,m,1040,16,1,2058.2999999821186,339412.90000000596,7789,VNB,B,15
14,test,2,0.0,1-Back,1.0,m,Thu Apr 02 2026 10:27:59 GMT-0500 (Central Daylight Time),343653.59999999404,005_o_f_d_a.png,O,m,1150,17,1,2179.4000000059605,341474.1999999881,7789,VNB,B,16
15,test,2,1.0,1-Back,1.0,z,Thu Apr 02 2026 10:27:59 GMT-0500 (Central Daylight Time),345435.40000000596,004_o_m_d_a.png,O,z,761,18,1,1772.800000011921,343662.59999999404,7789,VNB,B,17
0,test,3,1.0,1-Back,,,Thu Apr 02 2026 10:27:59 GMT-0500 (Central Daylight Time),345435.40000000596,005_o_f_h_a.png,O,space,1570,1,1,1772.800000011921,343662.59999999404,7789,VNB,B,0
0,test,3,0.0,1-Back,0.0,m,Thu Apr 02 2026 10:27:59 GMT-0500 (Central Daylight Time),351068.0,011_m_f_d_a.png,O,z,943,2,1,1958.5999999940395,349109.40000000596,7789,VNB,B,1
1,test,3,1.0,1-Back,1.0,m,Thu Apr 02 2026 10:27:59 GMT-0500 (Central Daylight Time),353201.5,007_m_m_n_a.png,O,m,1115,3,1,2130.800000011921,351070.6999999881,7789,VNB,B,2
2,test,3,0.0,1-Back,1.0,z,Thu Apr 02 2026 10:27:59 GMT-0500 (Central Daylight Time),355616.59999999404,005_o_f_n_a.png,O,z,1390,4,1,2405.0999999940395,353211.5,7789,VNB,B,3
3,test,3,1.0,1-Back,1.0,m,Thu Apr 02 2026 10:27:59 GMT-0500 (Central Daylight Time),357866.3000000119,004_o_m_d_a.png,O,m,1219,5,1,2246.4000000059605,355619.90000000596,7789,VNB,B,4
4,test,3,0.0,1-Back,1.0,m,Thu Apr 02 2026 10:27:59 GMT-0500 (Central Daylight Time),360181.1999999881,020_y_f_h_a.png,O,m,1284,6,1,2309.0999999940395,357872.09999999404,7789,VNB,B,5
5,test,3,0.0,1-Back,1.0,z,Thu Apr 02 2026 10:27:59 GMT-0500 (Central Daylight Time),362081.90000000596,016_y_m_h_a.png,O,z,871,7,1,1896.300000011921,360185.59999999404,7789,VNB,B,6
6,test,3,0.0,1-Back,1.0,m,Thu Apr 02 2026 10:27:59 GMT-0500 (Central Daylight Time),363932.0,011_m_f_n_a.png,O,m,821,8,1,1842.800000011921,362089.1999999881,7789,VNB,B,7
7,test,3,0.0,1-Back,1.0,m,Thu Apr 02 2026 10:27:59 GMT-0500 (Central Daylight Time),366546.0,020_y_f_d_a.png,O,m,1595,9,1,2610.9000000059605,363935.09999999404,7789,VNB,B,8
8,test,3,1.0,1-Back,1.0,m,Thu Apr 02 2026 10:27:59 GMT-0500 (Central Daylight Time),369212.90000000596,004_o_m_n_a.png,O,m,1636,10,1,2661.800000011921,366551.09999999404,7789,VNB,B,9
9,test,3,0.0,1-Back,1.0,m,Thu Apr 02 2026 10:27:59 GMT-0500 (Central Daylight Time),372010.59999999404,007_m_m_h_a.png,O,m,1769,11,1,2790.4000000059605,369220.1999999881,7789,VNB,B,10
10,test,3,0.0,1-Back,1.0,z,Thu Apr 02 2026 10:27:59 GMT-0500 (Central Daylight Time),373576.40000000596,011_m_f_h_a.png,O,z,546,12,1,1559.5999999940395,372016.8000000119,7789,VNB,B,11
11,test,3,1.0,1-Back,1.0,m,Thu Apr 02 2026 10:27:59 GMT-0500 (Central Daylight Time),375409.40000000596,005_o_f_d_a.png,O,m,805,13,1,1830.800000011921,373578.59999999404,7789,VNB,B,12
12,test,3,0.0,1-Back,1.0,z,Thu Apr 02 2026 10:27:59 GMT-0500 (Central Daylight Time),377160.6999999881,007_m_m_d_a.png,O,z,731,14,1,1743.0,375417.6999999881,7789,VNB,B,13
13,test,3,0.0,1-Back,1.0,m,Thu Apr 02 2026 10:27:59 GMT-0500 (Central Daylight Time),379725.3000000119,016_y_m_n_a.png,O,m,1543,15,1,2560.800000011921,377164.5,7789,VNB,B,14
14,test,3,1.0,1-Back,1.0,m,Thu Apr 02 2026 10:27:59 GMT-0500 (Central Daylight Time),382023.6999999881,004_o_m_h_a.png,O,m,1272,16,1,2290.0999999940395,379733.59999999404,7789,VNB,B,15
15,test,3,0.0,1-Back,1.0,m,Thu Apr 02 2026 10:27:59 GMT-0500 (Central Daylight Time),384457.90000000596,016_y_m_d_a.png,O,m,1413,17,1,2430.4000000059605,382027.5,7789,VNB,B,16
16,test,3,1.0,1-Back,1.0,m,Thu Apr 02 2026 10:27:59 GMT-0500 (Central Daylight Time),386805.90000000596,020_y_f_n_a.png,O,m,1323,18,1,2337.9000000059605,384468.0,7789,VNB,B,17
0,test,4,1.0,1-Back,,,Thu Apr 02 2026 10:27:59 GMT-0500 (Central Daylight Time),386805.90000000596,007_m_m_d_a.png,O,space,1087,1,1,2337.9000000059605,384468.0,7789,VNB,B,0
1,test,4,0.0,1-Back,1.0,z,Thu Apr 02 2026 10:27:59 GMT-0500 (Central Daylight Time),391920.90000000596,004_o_m_d_a.png,O,z,980,2,1,1989.800000011921,389931.09999999404,7789,VNB,B,1
2,test,4,0.0,1-Back,1.0,m,Thu Apr 02 2026 10:27:59 GMT-0500 (Central Daylight Time),393736.59999999404,016_y_m_h_a.png,O,m,784,3,1,1812.5999999940395,391924.0,7789,VNB,B,2
3,test,4,0.0,1-Back,1.0,m,Thu Apr 02 2026 10:27:59 GMT-0500 (Central Daylight Time),395702.59999999404,011_m_f_n_a.png,O,m,940,4,1,1955.7999999821186,393746.8000000119,7789,VNB,B,3
4,test,4,1.0,1-Back,1.0,m,Thu Apr 02 2026 10:27:59 GMT-0500 (Central Daylight Time),398152.09999999404,005_o_f_h_a.png,O,m,1422,5,1,2447.5999999940395,395704.5,7789,VNB,B,4
5,test,4,0.0,1-Back,1.0,m,Thu Apr 02 2026 10:27:59 GMT-0500 (Central Daylight Time),400135.0,007_m_m_n_a.png,O,m,950,6,1,1974.0,398161.0,7789,VNB,B,5
5,test,4,0.0,1-Back,0.0,m,Thu Apr 02 2026 10:27:59 GMT-0500 (Central Daylight Time),403169.0,016_y_m_d_a.png,O,None,2017,7,1,3029.199999988079,400139.8000000119,7789,VNB,B,6
6,test,4,1.0,1-Back,1.0,z,Thu Apr 02 2026 10:27:59 GMT-0500 (Central Daylight Time),404950.5,020_y_f_d_a.png,O,z,749,8,1,1772.4000000059605,403178.09999999404,7789,VNB,B,7
6,test,4,0.0,1-Back,0.0,m,Thu Apr 02 2026 10:27:59 GMT-0500 (Central Daylight Time),407217.40000000596,011_m_f_h_a.png,O,z,1249,9,1,2262.7000000178814,404954.6999999881,7789,VNB,B,8
7,test,4,0.0,1-Back,1.0,z,Thu Apr 02 2026 10:27:59 GMT-0500 (Central Daylight Time),409198.6999999881,004_o_m_h_a.png,O,z,958,10,1,1973.3999999761581,407225.3000000119,7789,VNB,B,9
8,test,4,1.0,1-Back,1.0,m,Thu Apr 02 2026 10:27:59 GMT-0500 (Central Daylight Time),410898.6999999881,005_o_f_n_a.png,O,m,676,11,1,1697.3999999761581,409201.3000000119,7789,VNB,B,10
8,test,4,0.0,1-Back,0.0,m,Thu Apr 02 2026 10:27:59 GMT-0500 (Central Daylight Time),412980.40000000596,011_m_f_d_a.png,O,z,1057,12,1,2077.2000000178814,410903.1999999881,7789,VNB,B,11
9,test,4,0.0,1-Back,1.0,m,Thu Apr 02 2026 10:27:59 GMT-0500 (Central Daylight Time),415047.6999999881,020_y_f_n_a.png,O,m,1049,13,1,2064.899999976158,412982.8000000119,7789,VNB,B,12
9,test,4,0.0,1-Back,0.0,m,Thu Apr 02 2026 10:27:59 GMT-0500 (Central Daylight Time),417163.1999999881,005_o_f_d_a.png,O,z,1087,14,1,2106.7999999821186,415056.40000000596,7789,VNB,B,13
10,test,4,0.0,1-Back,1.0,m,Thu Apr 02 2026 10:27:59 GMT-0500 (Central Daylight Time),419045.0,020_y_f_h_a.png,O,m,849,15,1,1879.0,417166.0,7789,VNB,B,14
11,test,4,1.0,1-Back,1.0,z,Thu Apr 02 2026 10:27:59 GMT-0500 (Central Daylight Time),421094.5,007_m_m_h_a.png,O,z,1018,16,1,2044.5999999940395,419049.90000000596,7789,VNB,B,15
12,test,4,0.0,1-Back,1.0,m,Thu Apr 02 2026 10:27:59 GMT-0500 (Central Daylight Time),422879.40000000596,004_o_m_n_a.png,O,m,757,17,1,1781.300000011921,421098.09999999404,7789,VNB,B,16
12,test,4,1.0,1-Back,0.0,z,Thu Apr 02 2026 10:27:59 GMT-0500 (Central Daylight Time),424643.6999999881,016_y_m_n_a.png,O,m,745,18,1,1757.0,422886.6999999881,7789,VNB,B,17
0,test,5,1.0,1-Back,,,Thu Apr 02 2026 10:27:59 GMT-0500 (Central Daylight Time),424643.6999999881,004_o_m_n_a.png,O,space,1354,1,1,1757.0,422886.6999999881,7789,VNB,B,0
1,test,5,1.0,1-Back,1.0,m,Thu Apr 02 2026 10:27:59 GMT-0500 (Central Daylight Time),430526.1999999881,005_o_f_h_a.png,O,m,1468,2,1,2491.0,428035.1999999881,7789,VNB,B,1
2,test,5,0.0,1-Back,1.0,m,Thu Apr 02 2026 10:27:59 GMT-0500 (Central Daylight Time),432941.1999999881,016_y_m_d_a.png,O,m,1392,3,1,2411.5,430529.6999999881,7789,VNB,B,2
3,test,5,0.0,1-Back,1.0,z,Thu Apr 02 2026 10:27:59 GMT-0500 (Central Daylight Time),434741.40000000596,004_o_m_d_a.png,O,z,769,4,1,1793.300000011921,432948.09999999404,7789,VNB,B,3
4,test,5,0.0,1-Back,1.0,m,Thu Apr 02 2026 10:27:59 GMT-0500 (Central Daylight Time),436457.09999999404,011_m_f_h_a.png,O,m,697,5,1,1712.5999999940395,434744.5,7789,VNB,B,4
5,test,5,0.0,1-Back,1.0,m,Thu Apr 02 2026 10:27:59 GMT-0500 (Central Daylight Time),438306.5,020_y_f_n_a.png,O,m,822,6,1,1841.300000011921,436465.1999999881,7789,VNB,B,5
6,test,5,1.0,1-Back,1.0,z,Thu Apr 02 2026 10:27:59 GMT-0500 (Central Daylight Time),440122.0,005_o_f_n_a.png,O,z,786,7,1,1813.0,438309.0,7789,VNB,B,6
7,test,5,0.0,1-Back,1.0,m,Thu Apr 02 2026 10:27:59 GMT-0500 (Central Daylight Time),441939.40000000596,011_m_f_d_a.png,O,m,799,8,1,1810.7000000178814,440128.6999999881,7789,VNB,B,7
7,test,5,0.0,1-Back,0.0,m,Thu Apr 02 2026 10:27:59 GMT-0500 (Central Daylight Time),444204.1999999881,016_y_m_h_a.png,O,z,1244,9,1,2261.399999976158,441942.8000000119,7789,VNB,B,8
8,test,5,0.0,1-Back,1.0,m,Thu Apr 02 2026 10:27:59 GMT-0500 (Central Daylight Time),446755.3000000119,020_y_f_d_a.png,O,m,1517,10,1,2542.7000000178814,444212.59999999404,7789,VNB,B,9
9,test,5,0.0,1-Back,1.0,m,Thu Apr 02 2026 10:27:59 GMT-0500 (Central Daylight Time),449502.6999999881,007_m_m_n_a.png,O,m,1732,11,1,2744.699999988079,446758.0,7789,VNB,B,10
10,test,5,1.0,1-Back,1.0,z,Thu Apr 02 2026 10:27:59 GMT-0500 (Central Daylight Time),451735.59999999404,011_m_f_n_a.png,O,z,1208,12,1,2224.0,449511.59999999404,7789,VNB,B,11
11,test,5,0.0,1-Back,1.0,m,Thu Apr 02 2026 10:27:59 GMT-0500 (Central Daylight Time),454134.8000000119,004_o_m_h_a.png,O,m,1366,13,1,2397.2000000178814,451737.59999999404,7789,VNB,B,12
12,test,5,0.0,1-Back,1.0,z,Thu Apr 02 2026 10:27:59 GMT-0500 (Central Daylight Time),455984.1999999881,007_m_m_h_a.png,O,z,823,14,1,1842.2999999821186,454141.90000000596,7789,VNB,B,13
13,test,5,1.0,1-Back,1.0,m,Thu Apr 02 2026 10:27:59 GMT-0500 (Central Daylight Time),457785.40000000596,005_o_f_d_a.png,O,m,785,15,1,1798.800000011921,455986.59999999404,7789,VNB,B,14
14,test,5,0.0,1-Back,1.0,m,Thu Apr 02 2026 10:27:59 GMT-0500 (Central Daylight Time),459983.5,016_y_m_n_a.png,O,m,1183,16,1,2191.5999999940395,457791.90000000596,7789,VNB,B,15
15,test,5,0.0,1-Back,1.0,m,Thu Apr 02 2026 10:27:59 GMT-0500 (Central Daylight Time),462149.5,020_y_f_h_a.png,O,m,1144,17,1,2163.300000011921,459986.1999999881,7789,VNB,B,16
16,test,5,0.0,1-Back,1.0,m,Thu Apr 02 2026 10:27:59 GMT-0500 (Central Daylight Time),464482.3000000119,007_m_m_d_a.png,O,m,1307,18,1,2326.2000000178814,462156.09999999404,7789,VNB,B,17
0,prac,1,0.0,2-Back,,,Thu Apr 02 2026 10:27:59 GMT-0500 (Central Daylight Time),464482.3000000119,011_m_f_n_a.png,O,space,4283,1,1,2326.2000000178814,462156.09999999404,7789,VNB,B,0
0,prac,1,0.0,2-Back,,,Thu Apr 02 2026 10:27:59 GMT-0500 (Central Daylight Time),464482.3000000119,005_o_f_h_a.png,O,space,4283,2,1,2326.2000000178814,462156.09999999404,7789,VNB,B,0
0,prac,1,0.0,2-Back,0.0,m,Thu Apr 02 2026 10:27:59 GMT-0500 (Central Daylight Time),618315.599999994,004_o_m_d_a.png,O,z,1754,3,1,2594.5999999940395,615721.0,7789,VNB,B,1
1,prac,1,1.0,2-Back,1.0,z,Thu Apr 02 2026 10:27:59 GMT-0500 (Central Daylight Time),620948.3000000119,007_m_m_h_a.png,O,z,1748,4,1,2622.0,618326.3000000119,7789,VNB,B,2
2,prac,1,0.0,2-Back,1.0,m,Thu Apr 02 2026 10:27:59 GMT-0500 (Central Daylight Time),623413.6999999881,020_y_f_n_a.png,O,m,1616,5,1,2459.5999999940395,620954.099999994,7789,VNB,B,3
3,prac,1,1.0,2-Back,1.0,z,Thu Apr 02 2026 10:27:59 GMT-0500 (Central Daylight Time),626197.3000000119,004_o_m_h_a.png,O,z,1933,6,1,2773.100000023842,623424.1999999881,7789,VNB,B,4
3,prac,1,1.0,2-Back,0.0,z,Thu Apr 02 2026 10:27:59 GMT-0500 (Central Daylight Time),628215.6999999881,016_y_m_n_a.png,O,m,1155,7,1,2012.5,626203.1999999881,7789,VNB,B,5
3,prac,1,0.0,2-Back,0.0,m,Thu Apr 02 2026 10:27:59 GMT-0500 (Central Daylight Time),631077.900000006,011_m_f_d_a.png,O,None,2008,8,1,2855.5999999940395,628222.3000000119,7789,VNB,B,6
4,prac,1,0.0,2-Back,1.0,m,Thu Apr 02 2026 10:27:59 GMT-0500 (Central Daylight Time),633727.1999999881,005_o_f_d_a.png,O,m,1797,9,1,2641.0999999940395,631086.099999994,7789,VNB,B,7
4,prac,1,0.0,2-Back,0.0,m,Thu Apr 02 2026 10:27:59 GMT-0500 (Central Daylight Time),636509.6999999881,007_m_m_h_a.png,O,None,2007,10,1,2774.0,633735.6999999881,7789,VNB,B,8
5,prac,1,1.0,2-Back,1.0,z,Thu Apr 02 2026 10:27:59 GMT-0500 (Central Daylight Time),638624.1999999881,020_y_f_d_a.png,O,z,1268,11,1,2109.199999988079,636515.0,7789,VNB,B,9
5,prac,1,0.0,2-Back,0.0,m,Thu Apr 02 2026 10:27:59 GMT-0500 (Central Daylight Time),641460.099999994,004_o_m_n_a.png,O,None,2011,12,1,2828.199999988079,638631.900000006,7789,VNB,B,10
0,prac,2,0.0,2-Back,,,Thu Apr 02 2026 10:27:59 GMT-0500 (Central Daylight Time),641460.099999994,011_m_f_n_a.png,O,a,2189,1,1,2828.199999988079,638631.900000006,7789,VNB,B,0
0,prac,2,0.0,2-Back,,,Thu Apr 02 2026 10:27:59 GMT-0500 (Central Daylight Time),641460.099999994,005_o_f_h_a.png,O,a,2189,2,1,2828.199999988079,638631.900000006,7789,VNB,B,0
0,prac,2,0.0,2-Back,0.0,m,Thu Apr 02 2026 10:27:59 GMT-0500 (Central Daylight Time),651688.400000006,004_o_m_d_a.png,O,None,2015,3,1,2844.2000000178814,648844.1999999881,7789,VNB,B,1
1,prac,2,1.0,2-Back,1.0,z,Thu Apr 02 2026 10:27:59 GMT-0500 (Central Daylight Time),653737.6999999881,007_m_m_h_a.png,O,z,1264,4,1,2035.2999999821186,651702.400000006,7789,VNB,B,2
2,prac,2,0.0,2-Back,1.0,m,Thu Apr 02 2026 10:27:59 GMT-0500 (Central Daylight Time),656121.400000006,020_y_f_n_a.png,O,m,1533,5,1,2379.5,653741.900000006,7789,VNB,B,3
3,prac,2,1.0,2-Back,1.0,z,Thu Apr 02 2026 10:27:59 GMT-0500 (Central Daylight Time),658085.0,004_o_m_h_a.png,O,z,1113,6,1,1953.199999988079,656131.8000000119,7789,VNB,B,4
3,prac,2,1.0,2-Back,0.0,z,Thu Apr 02 2026 10:27:59 GMT-0500 (Central Daylight Time),660003.0,016_y_m_n_a.png,O,m,1042,7,1,1915.5,658087.5,7789,VNB,B,5
4,prac,2,0.0,2-Back,1.0,m,Thu Apr 02 2026 10:27:59 GMT-0500 (Central Daylight Time),662152.8000000119,011_m_f_d_a.png,O,m,1280,8,1,2139.100000023842,660013.6999999881,7789,VNB,B,6
4,prac,2,0.0,2-Back,0.0,m,Thu Apr 02 2026 10:27:59 GMT-0500 (Central Daylight Time),664935.1999999881,005_o_f_d_a.png,O,z,1934,9,1,2776.5,662158.6999999881,7789,VNB,B,7
4,prac,2,0.0,2-Back,0.0,m,Thu Apr 02 2026 10:27:59 GMT-0500 (Central Daylight Time),667718.1999999881,007_m_m_h_a.png,O,None,2006,10,1,2773.399999976158,664944.8000000119,7789,VNB,B,8
5,prac,2,1.0,2-Back,1.0,z,Thu Apr 02 2026 10:27:59 GMT-0500 (Central Daylight Time),670100.5,020_y_f_d_a.png,O,z,1522,11,1,2377.300000011921,667723.1999999881,7789,VNB,B,9
5,prac,2,0.0,2-Back,0.0,m,Thu Apr 02 2026 10:27:59 GMT-0500 (Central Daylight Time),672915.599999994,004_o_m_n_a.png,O,z,1970,12,1,2801.2999999821186,670114.3000000119,7789,VNB,B,10
0,test,1,0.0,2-Back,,,Thu Apr 02 2026 10:27:59 GMT-0500 (Central Daylight Time),672915.599999994,016_y_m_h_a.png,O,space,7884,1,1,2801.2999999821186,670114.3000000119,7789,VNB,B,0
0,test,1,0.0,2-Back,,,Thu Apr 02 2026 10:27:59 GMT-0500 (Central Daylight Time),672915.599999994,005_o_f_n_a.png,O,space,7884,2,1,2801.2999999821186,670114.3000000119,7789,VNB,B,0
1,test,1,0.0,2-Back,1.0,z,Thu Apr 02 2026 10:27:59 GMT-0500 (Central Daylight Time),701757.3000000119,004_o_m_h_a.png,O,z,1036,3,1,2060.9000000059605,699696.400000006,7789,VNB,B,1
1,test,1,0.0,2-Back,0.0,m,Thu Apr 02 2026 10:27:59 GMT-0500 (Central Daylight Time),704572.6999999881,011_m_f_d_a.png,O,z,1785,4,1,2807.899999976158,701764.8000000119,7789,VNB,B,2
2,test,1,1.0,2-Back,1.0,m,Thu Apr 02 2026 10:27:59 GMT-0500 (Central Daylight Time),707504.400000006,016_y_m_n_a.png,O,m,1907,5,1,2929.0999999940395,704575.3000000119,7789,VNB,B,3
3,test,1,0.0,2-Back,1.0,z,Thu Apr 02 2026 10:27:59 GMT-0500 (Central Daylight Time),710169.099999994,020_y_f_d_a.png,O,z,1637,6,1,2657.2999999821186,707511.8000000119,7789,VNB,B,4
3,test,1,0.0,2-Back,0.0,m,Thu Apr 02 2026 10:27:59 GMT-0500 (Central Daylight Time),713202.3000000119,007_m_m_h_a.png,O,None,2016,7,1,3030.800000011921,710171.5,7789,VNB,B,5
3,test,1,1.0,2-Back,0.0,m,Thu Apr 02 2026 10:27:59 GMT-0500 (Central Daylight Time),715551.6999999881,020_y_f_n_a.png,O,z,1316,8,1,2342.5,713209.1999999881,7789,VNB,B,6
3,test,1,0.0,2-Back,0.0,z,Thu Apr 02 2026 10:27:59 GMT-0500 (Central Daylight Time),717250.599999994,005_o_f_h_a.png,O,m,669,9,1,1695.7999999821186,715554.8000000119,7789,VNB,B,7
3,test,1,0.0,2-Back,0.0,m,Thu Apr 02 2026 10:27:59 GMT-0500 (Central Daylight Time),720267.0,004_o_m_d_a.png,O,None,2001,10,1,3008.800000011921,717258.1999999881,7789,VNB,B,8
3,test,1,1.0,2-Back,0.0,m,Thu Apr 02 2026 10:27:59 GMT-0500 (Central Daylight Time),722799.5,007_m_m_d_a.png,O,z,1507,11,1,2527.800000011921,720271.6999999881,7789,VNB,B,9
4,test,1,0.0,2-Back,1.0,m,Thu Apr 02 2026 10:27:59 GMT-0500 (Central Daylight Time),725780.6999999881,011_m_f_n_a.png,O,m,1956,12,1,2973.399999976158,722807.3000000119,7789,VNB,B,10
4,test,1,0.0,2-Back,0.0,m,Thu Apr 02 2026 10:27:59 GMT-0500 (Central Daylight Time),728314.599999994,020_y_f_h_a.png,O,z,1504,13,1,2531.4000000059605,725783.1999999881,7789,VNB,B,11
4,test,1,0.0,2-Back,0.0,z,Thu Apr 02 2026 10:27:59 GMT-0500 (Central Daylight Time),730913.599999994,007_m_m_n_a.png,O,m,1583,14,1,2591.9000000059605,728321.6999999881,7789,VNB,B,12
5,test,1,0.0,2-Back,1.0,m,Thu Apr 02 2026 10:27:59 GMT-0500 (Central Daylight Time),733879.0,016_y_m_d_a.png,O,m,1940,15,1,2962.9000000059605,730916.099999994,7789,VNB,B,13
5,test,1,1.0,2-Back,0.0,m,Thu Apr 02 2026 10:27:59 GMT-0500 (Central Daylight Time),736910.8000000119,011_m_f_h_a.png,O,None,2016,16,1,3020.100000023842,733890.6999999881,7789,VNB,B,14
6,test,1,0.0,2-Back,1.0,z,Thu Apr 02 2026 10:27:59 GMT-0500 (Central Daylight Time),738977.0,005_o_f_d_a.png,O,z,1039,17,1,2061.199999988079,736915.8000000119,7789,VNB,B,15
6,test,1,0.0,2-Back,0.0,m,Thu Apr 02 2026 10:27:59 GMT-0500 (Central Daylight Time),741860.1999999881,004_o_m_n_a.png,O,z,1862,18,1,2880.7999999821186,738979.400000006,7789,VNB,B,16
0,test,2,0.0,2-Back,,,Thu Apr 02 2026 10:27:59 GMT-0500 (Central Daylight Time),741860.1999999881,007_m_m_h_a.png,O,space,2657,1,1,2880.7999999821186,738979.400000006,7789,VNB,B,0
0,test,2,0.0,2-Back,,,Thu Apr 02 2026 10:27:59 GMT-0500 (Central Daylight Time),741860.1999999881,020_y_f_n_a.png,O,space,2657,2,1,2880.7999999821186,738979.400000006,7789,VNB,B,0
1,test,2,1.0,2-Back,1.0,z,Thu Apr 02 2026 10:27:59 GMT-0500 (Central Daylight Time),751489.5,005_o_f_h_a.png,O,z,738,3,1,1761.699999988079,749727.8000000119,7789,VNB,B,1
2,test,2,0.0,2-Back,1.0,m,Thu Apr 02 2026 10:27:59 GMT-0500 (Central Daylight Time),753787.599999994,004_o_m_d_a.png,O,m,1276,4,1,2288.4000000059605,751499.1999999881,7789,VNB,B,2
2,test,2,0.0,2-Back,0.0,m,Thu Apr 02 2026 10:27:59 GMT-0500 (Central Daylight Time),754886.900000006,011_m_f_d_a.png,O,z,83,5,1,1096.5999999940395,753790.3000000119,7789,VNB,B,3
3,test,2,0.0,2-Back,1.0,m,Thu Apr 02 2026 10:27:59 GMT-0500 (Central Daylight Time),757504.1999999881,016_y_m_h_a.png,O,m,1600,6,1,2613.699999988079,754890.5,7789,VNB,B,4
3,test,2,0.0,2-Back,0.0,m,Thu Apr 02 2026 10:27:59 GMT-0500 (Central Daylight Time),759870.099999994,005_o_f_n_a.png,O,z,1334,7,1,2362.699999988079,757507.400000006,7789,VNB,B,5
4,test,2,1.0,2-Back,1.0,z,Thu Apr 02 2026 10:27:59 GMT-0500 (Central Daylight Time),761453.1999999881,004_o_m_h_a.png,O,z,550,8,1,1573.3999999761581,759879.8000000119,7789,VNB,B,6
4,test,2,0.0,2-Back,0.0,m,Thu Apr 02 2026 10:27:59 GMT-0500 (Central Daylight Time),764118.900000006,020_y_f_d_a.png,O,z,1631,9,1,2660.7000000178814,761458.1999999881,7789,VNB,B,7
4,test,2,0.0,2-Back,0.0,m,Thu Apr 02 2026 10:27:59 GMT-0500 (Central Daylight Time),766801.5,016_y_m_d_a.png,O,z,1653,10,1,2674.5999999940395,764126.900000006,7789,VNB,B,8
5,test,2,0.0,2-Back,1.0,m,Thu Apr 02 2026 10:27:59 GMT-0500 (Central Daylight Time),768835.0,007_m_m_n_a.png,O,m,1004,11,1,2030.9000000059605,766804.099999994,7789,VNB,B,9
6,test,2,0.0,2-Back,1.0,m,Thu Apr 02 2026 10:27:59 GMT-0500 (Central Daylight Time),771517.3000000119,011_m_f_h_a.png,O,m,1660,12,1,2674.7000000178814,768842.599999994,7789,VNB,B,10
7,test,2,1.0,2-Back,1.0,z,Thu Apr 02 2026 10:27:59 GMT-0500 (Central Daylight Time),773998.6999999881,004_o_m_n_a.png,O,z,1455,13,1,2478.0,771520.6999999881,7789,VNB,B,11
8,test,2,0.0,2-Back,1.0,m,Thu Apr 02 2026 10:27:59 GMT-0500 (Central Daylight Time),775833.099999994,005_o_f_d_a.png,O,m,814,14,1,1828.4000000059605,774004.6999999881,7789,VNB,B,12
8,test,2,0.0,2-Back,0.0,m,Thu Apr 02 2026 10:27:59 GMT-0500 (Central Daylight Time),777783.1999999881,020_y_f_h_a.png,O,z,936,15,1,1948.199999988079,775835.0,7789,VNB,B,13
8,test,2,0.0,2-Back,0.0,z,Thu Apr 02 2026 10:27:59 GMT-0500 (Central Daylight Time),780563.599999994,007_m_m_d_a.png,O,m,1754,16,1,2776.0999999940395,777787.5,7789,VNB,B,14
8,test,2,0.0,2-Back,0.0,m,Thu Apr 02 2026 10:27:59 GMT-0500 (Central Daylight Time),783580.3000000119,016_y_m_n_a.png,O,z,1994,17,1,3013.4000000059605,780566.900000006,7789,VNB,B,15
9,test,2,1.0,2-Back,1.0,m,Thu Apr 02 2026 10:27:59 GMT-0500 (Central Daylight Time),786377.3000000119,011_m_f_n_a.png,O,m,1776,18,1,2787.5,783589.8000000119,7789,VNB,B,16
0,test,3,1.0,2-Back,,,Thu Apr 02 2026 10:27:59 GMT-0500 (Central Daylight Time),786377.3000000119,004_o_m_n_a.png,O,space,1532,1,1,2787.5,783589.8000000119,7789,VNB,B,0
0,test,3,1.0,2-Back,,,Thu Apr 02 2026 10:27:59 GMT-0500 (Central Daylight Time),786377.3000000119,005_o_f_d_a.png,O,space,1532,2,1,2787.5,783589.8000000119,7789,VNB,B,0
1,test,3,0.0,2-Back,1.0,m,Thu Apr 02 2026 10:27:59 GMT-0500 (Central Daylight Time),795908.3000000119,020_y_f_h_a.png,O,m,1924,3,1,2943.9000000059605,792964.400000006,7789,VNB,B,1
2,test,3,0.0,2-Back,1.0,z,Thu Apr 02 2026 10:27:59 GMT-0500 (Central Daylight Time),797991.8000000119,011_m_f_d_a.png,O,z,1064,4,1,2077.0,795914.8000000119,7789,VNB,B,2
2,test,3,1.0,2-Back,0.0,m,Thu Apr 02 2026 10:27:59 GMT-0500 (Central Daylight Time),800940.8000000119,016_y_m_n_a.png,O,z,1919,5,1,2946.600000023842,797994.1999999881,7789,VNB,B,3
3,test,3,0.0,2-Back,1.0,m,Thu Apr 02 2026 10:27:59 GMT-0500 (Central Daylight Time),803540.5,004_o_m_h_a.png,O,m,1576,6,1,2594.0,800946.5,7789,VNB,B,4
4,test,3,0.0,2-Back,1.0,z,Thu Apr 02 2026 10:27:59 GMT-0500 (Central Daylight Time),806355.400000006,020_y_f_n_a.png,O,z,1794,7,1,2812.5,803542.900000006,7789,VNB,B,5
5,test,3,1.0,2-Back,1.0,m,Thu Apr 02 2026 10:27:59 GMT-0500 (Central Daylight Time),808903.8000000119,007_m_m_d_a.png,O,m,1531,8,1,2541.600000023842,806362.1999999881,7789,VNB,B,6
5,test,3,0.0,2-Back,0.0,m,Thu Apr 02 2026 10:27:59 GMT-0500 (Central Daylight Time),811937.1999999881,016_y_m_d_a.png,O,None,2016,9,1,3030.199999988079,808907.0,7789,VNB,B,7
5,test,3,0.0,2-Back,0.0,m,Thu Apr 02 2026 10:27:59 GMT-0500 (Central Daylight Time),814337.900000006,005_o_f_h_a.png,O,z,1373,10,1,2391.0,811946.900000006,7789,VNB,B,8
5,test,3,1.0,2-Back,0.0,m,Thu Apr 02 2026 10:27:59 GMT-0500 (Central Daylight Time),817069.400000006,011_m_f_n_a.png,O,z,1702,11,1,2728.9000000059605,814340.5,7789,VNB,B,9
5,test,3,1.0,2-Back,0.0,z,Thu Apr 02 2026 10:27:59 GMT-0500 (Central Daylight Time),818802.3000000119,007_m_m_h_a.png,O,m,712,12,1,1724.800000011921,817077.5,7789,VNB,B,10
5,test,3,0.0,2-Back,0.0,m,Thu Apr 02 2026 10:27:59 GMT-0500 (Central Daylight Time),821616.8000000119,020_y_f_d_a.png,O,z,1796,13,1,2811.5,818805.3000000119,7789,VNB,B,11
6,test,3,0.0,2-Back,1.0,m,Thu Apr 02 2026 10:27:59 GMT-0500 (Central Daylight Time),823949.1999999881,005_o_f_n_a.png,O,m,1299,14,1,2323.2999999821186,821625.900000006,7789,VNB,B,12
7,test,3,0.0,2-Back,1.0,z,Thu Apr 02 2026 10:27:59 GMT-0500 (Central Daylight Time),825782.5,004_o_m_d_a.png,O,z,802,15,1,1831.4000000059605,823951.099999994,7789,VNB,B,13
7,test,3,1.0,2-Back,0.0,m,Thu Apr 02 2026 10:27:59 GMT-0500 (Central Daylight Time),828816.8000000119,011_m_f_h_a.png,O,None,2015,16,1,3027.4000000059605,825789.400000006,7789,VNB,B,14
7,test,3,0.0,2-Back,0.0,m,Thu Apr 02 2026 10:27:59 GMT-0500 (Central Daylight Time),831448.8000000119,007_m_m_n_a.png,O,z,1605,17,1,2628.7000000178814,828820.099999994,7789,VNB,B,15
7,test,3,0.0,2-Back,0.0,z,Thu Apr 02 2026 10:27:59 GMT-0500 (Central Daylight Time),832965.3000000119,016_y_m_h_a.png,O,m,486,18,1,1509.1000000238419,831456.1999999881,7789,VNB,B,16
0,test,4,0.0,2-Back,,,Thu Apr 02 2026 10:27:59 GMT-0500 (Central Daylight Time),832965.3000000119,011_m_f_n_a.png,O,space,1338,1,1,1509.1000000238419,831456.1999999881,7789,VNB,B,0
0,test,4,0.0,2-Back,,,Thu Apr 02 2026 10:27:59 GMT-0500 (Central Daylight Time),832965.3000000119,004_o_m_n_a.png,O,space,1338,2,1,1509.1000000238419,831456.1999999881,7789,VNB,B,0
1,test,4,1.0,2-Back,1.0,m,Thu Apr 02 2026 10:27:59 GMT-0500 (Central Daylight Time),841995.0,016_y_m_h_a.png,O,m,1452,3,1,2483.699999988079,839511.3000000119,7789,VNB,B,1
2,test,4,1.0,2-Back,1.0,m,Thu Apr 02 2026 10:27:59 GMT-0500 (Central Daylight Time),844510.0,005_o_f_d_a.png,O,m,1493,4,1,2510.199999988079,841999.8000000119,7789,VNB,B,2
3,test,4,0.0,2-Back,1.0,z,Thu Apr 02 2026 10:27:59 GMT-0500 (Central Daylight Time),846243.6999999881,004_o_m_h_a.png,O,z,703,5,1,1731.3999999761581,844512.3000000119,7789,VNB,B,3
4,test,4,0.0,2-Back,1.0,m,Thu Apr 02 2026 10:27:59 GMT-0500 (Central Daylight Time),848777.0,007_m_m_n_a.png,O,m,1508,6,1,2524.4000000059605,846252.599999994,7789,VNB,B,4
4,test,4,0.0,2-Back,0.0,m,Thu Apr 02 2026 10:27:59 GMT-0500 (Central Daylight Time),850574.599999994,011_m_f_d_a.png,O,z,774,7,1,1794.699999988079,848779.900000006,7789,VNB,B,5
4,test,4,0.0,2-Back,0.0,z,Thu Apr 02 2026 10:27:59 GMT-0500 (Central Daylight Time),852994.3000000119,020_y_f_n_a.png,O,m,1399,8,1,2411.9000000059605,850582.400000006,7789,VNB,B,6
5,test,4,1.0,2-Back,1.0,m,Thu Apr 02 2026 10:27:59 GMT-0500 (Central Daylight Time),855973.6999999881,005_o_f_h_a.png,O,m,1958,9,1,2975.899999976158,852997.8000000119,7789,VNB,B,7
5,test,4,0.0,2-Back,0.0,m,Thu Apr 02 2026 10:27:59 GMT-0500 (Central Daylight Time),859005.1999999881,007_m_m_h_a.png,O,None,2014,10,1,3024.5999999940395,855980.599999994,7789,VNB,B,8
6,test,4,0.0,2-Back,1.0,m,Thu Apr 02 2026 10:27:59 GMT-0500 (Central Daylight Time),861938.5,020_y_f_d_a.png,O,m,1910,11,1,2931.4000000059605,859007.099999994,7789,VNB,B,9
6,test,4,0.0,2-Back,0.0,m,Thu Apr 02 2026 10:27:59 GMT-0500 (Central Daylight Time),864135.5,016_y_m_n_a.png,O,z,1180,12,1,2190.9000000059605,861944.599999994,7789,VNB,B,10
7,test,4,0.0,2-Back,1.0,z,Thu Apr 02 2026 10:27:59 GMT-0500 (Central Daylight Time),866653.400000006,004_o_m_d_a.png,O,z,1484,13,1,2516.0999999940395,864137.3000000119,7789,VNB,B,11
7,test,4,1.0,2-Back,0.0,m,Thu Apr 02 2026 10:27:59 GMT-0500 (Central Daylight Time),869051.599999994,011_m_f_h_a.png,O,z,1369,14,1,2390.5999999940395,866661.0,7789,VNB,B,12
7,test,4,1.0,2-Back,0.0,m,Thu Apr 02 2026 10:27:59 GMT-0500 (Central Daylight Time),872035.6999999881,020_y_f_h_a.png,O,z,1963,15,1,2980.5,869055.1999999881,7789,VNB,B,13
8,test,4,0.0,2-Back,1.0,m,Thu Apr 02 2026 10:27:59 GMT-0500 (Central Daylight Time),874034.400000006,005_o_f_n_a.png,O,m,971,16,1,1992.300000011921,872042.099999994,7789,VNB,B,14
8,test,4,0.0,2-Back,0.0,m,Thu Apr 02 2026 10:27:59 GMT-0500 (Central Daylight Time),876550.3000000119,016_y_m_d_a.png,O,z,1491,17,1,2512.2000000178814,874038.099999994,7789,VNB,B,15
8,test,4,1.0,2-Back,0.0,m,Thu Apr 02 2026 10:27:59 GMT-0500 (Central Daylight Time),878467.6999999881,007_m_m_d_a.png,O,z,896,18,1,1911.8999999761581,876555.8000000119,7789,VNB,B,16
0,test,5,1.0,2-Back,,,Thu Apr 02 2026 10:27:59 GMT-0500 (Central Daylight Time),878467.6999999881,020_y_f_d_a.png,O,space,1707,1,1,1911.8999999761581,876555.8000000119,7789,VNB,B,0
0,test,5,1.0,2-Back,,,Thu Apr 02 2026 10:27:59 GMT-0500 (Central Daylight Time),878467.6999999881,005_o_f_h_a.png,O,space,1707,2,1,1911.8999999761581,876555.8000000119,7789,VNB,B,0
1,test,5,1.0,2-Back,1.0,z,Thu Apr 02 2026 10:27:59 GMT-0500 (Central Daylight Time),887662.6999999881,004_o_m_d_a.png,O,z,1265,3,1,2279.199999988079,885383.5,7789,VNB,B,1
2,test,5,1.0,2-Back,1.0,m,Thu Apr 02 2026 10:27:59 GMT-0500 (Central Daylight Time),889712.900000006,011_m_f_n_a.png,O,m,1026,4,1,2044.300000011921,887668.599999994,7789,VNB,B,2
2,test,5,0.0,2-Back,0.0,m,Thu Apr 02 2026 10:27:59 GMT-0500 (Central Daylight Time),891429.1999999881,007_m_m_h_a.png,O,z,685,5,1,1713.0999999940395,889716.099999994,7789,VNB,B,3
2,test,5,0.0,2-Back,0.0,z,Thu Apr 02 2026 10:27:59 GMT-0500 (Central Daylight Time),894111.400000006,020_y_f_n_a.png,O,m,1658,6,1,2674.0,891437.400000006,7789,VNB,B,4
2,test,5,0.0,2-Back,0.0,m,Thu Apr 02 2026 10:27:59 GMT-0500 (Central Daylight Time),896392.400000006,005_o_f_d_a.png,O,z,1263,7,1,2278.5999999940395,894113.8000000119,7789,VNB,B,5
3,test,5,0.0,2-Back,1.0,m,Thu Apr 02 2026 10:27:59 GMT-0500 (Central Daylight Time),898410.599999994,004_o_m_h_a.png,O,m,997,8,1,2013.199999988079,896397.400000006,7789,VNB,B,6
4,test,5,1.0,2-Back,1.0,z,Thu Apr 02 2026 10:27:59 GMT-0500 (Central Daylight Time),900825.6999999881,011_m_f_d_a.png,O,z,1388,9,1,2411.0999999940395,898414.599999994,7789,VNB,B,7
5,test,5,0.0,2-Back,1.0,m,Thu Apr 02 2026 10:27:59 GMT-0500 (Central Daylight Time),903373.5,016_y_m_n_a.png,O,m,1516,10,1,2541.4000000059605,900832.099999994,7789,VNB,B,8
6,test,5,0.0,2-Back,1.0,m,Thu Apr 02 2026 10:27:59 GMT-0500 (Central Daylight Time),906123.8000000119,007_m_m_n_a.png,O,m,1726,11,1,2748.4000000059605,903375.400000006,7789,VNB,B,9
7,test,5,0.0,2-Back,1.0,m,Thu Apr 02 2026 10:27:59 GMT-0500 (Central Daylight Time),908307.400000006,020_y_f_h_a.png,O,m,1152,12,1,2175.9000000059605,906131.5,7789,VNB,B,10
7,test,5,0.0,2-Back,0.0,m,Thu Apr 02 2026 10:27:59 GMT-0500 (Central Daylight Time),910039.5,016_y_m_d_a.png,O,z,707,13,1,1728.9000000059605,908310.599999994,7789,VNB,B,11
7,test,5,1.0,2-Back,0.0,z,Thu Apr 02 2026 10:27:59 GMT-0500 (Central Daylight Time),911822.099999994,011_m_f_h_a.png,O,m,757,14,1,1774.7999999821186,910047.3000000119,7789,VNB,B,12
7,test,5,0.0,2-Back,0.0,m,Thu Apr 02 2026 10:27:59 GMT-0500 (Central Daylight Time),914671.6999999881,004_o_m_n_a.png,O,z,1824,15,1,2847.199999988079,911824.5,7789,VNB,B,13
7,test,5,0.0,2-Back,0.0,m,Thu Apr 02 2026 10:27:59 GMT-0500 (Central Daylight Time),917255.400000006,007_m_m_d_a.png,O,z,1566,16,1,2577.5,914677.900000006,7789,VNB,B,14
8,test,5,0.0,2-Back,1.0,z,Thu Apr 02 2026 10:27:59 GMT-0500 (Central Daylight Time),919752.6999999881,005_o_f_n_a.png,O,z,1482,17,1,2494.5999999940395,917258.099999994,7789,VNB,B,15
9,test,5,1.0,2-Back,1.0,m,Thu Apr 02 2026 10:27:59 GMT-0500 (Central Daylight Time),922287.099999994,016_y_m_h_a.png,O,m,1502,18,1,2528.0999999940395,919759.0,7789,VNB,B,16
