acc_sum,block,block_c,block_cond,con_img,correct,correct_response,datetime,endtime,face,jitter,line,project,response,response_time,row_sel,session_number,start_end,starttime,subject_id,task,task_vers,trial
1,prac,1,A,haborder.png,1,m,Wed Sep 24 2025 14:00:50 GMT-0500 (Central Daylight Time),66989.79999999702,CFD-WM-028-005-HC.jpg,1400,solid,I,m,1086,7,2,3282.5999999940395,63707.20000000298,8056,ATS,C,1
2,prac,1,A,haborder.png,1,m,Wed Sep 24 2025 14:00:50 GMT-0500 (Central Daylight Time),69922.09999999404,CFD-WF-013-009-HC.jpg,1500,solid,I,m,649,11,2,6214.899999991059,63707.20000000298,8056,ATS,C,2
3,prac,1,A,haborder.png,1,z,Wed Sep 24 2025 14:00:50 GMT-0500 (Central Daylight Time),72921.09999999404,CFD-BM-043-014-A.jpg,1600,solid,I,z,599,2,2,9213.89999999106,63707.20000000298,8056,ATS,C,3
4,prac,1,A,haborder.png,1,z,Wed Sep 24 2025 14:00:50 GMT-0500 (Central Daylight Time),76503.5,CFD-WM-036-018-A.jpg,1900,solid,I,z,893,8,2,12796.29999999702,63707.20000000298,8056,ATS,C,4
5,prac,1,A,haborder.png,1,m,Wed Sep 24 2025 14:00:50 GMT-0500 (Central Daylight Time),80002.29999999702,CFD-BF-019-004-HC.jpg,2000,solid,I,m,708,5,2,16295.09999999404,63707.20000000298,8056,ATS,C,5
6,prac,1,A,haborder.png,1,z,Wed Sep 24 2025 14:00:50 GMT-0500 (Central Daylight Time),82568.09999999404,CFD-BF-031-020-A.jpg,1000,solid,I,z,775,4,2,18860.89999999106,63707.20000000298,8056,ATS,C,6
7,prac,1,A,haborder.png,1,m,Wed Sep 24 2025 14:00:50 GMT-0500 (Central Daylight Time),85667.09999999404,CFD-BM-034-035-HC.jpg,1700,solid,I,m,606,1,2,21959.89999999106,63707.20000000298,8056,ATS,C,7
8,prac,1,A,haborder.png,1,z,Wed Sep 24 2025 14:00:50 GMT-0500 (Central Daylight Time),88449.59999999404,CFD-BF-002-018-A.jpg,1200,solid,I,z,791,6,2,24742.39999999106,63707.20000000298,8056,ATS,C,8
9,prac,1,A,haborder.png,1,m,Wed Sep 24 2025 14:00:50 GMT-0500 (Central Daylight Time),91382.09999999404,CFD-BM-022-004-HC.jpg,1500,solid,I,m,637,3,2,27674.89999999106,63707.20000000298,8056,ATS,C,9
10,prac,1,A,haborder.png,1,m,Wed Sep 24 2025 14:00:50 GMT-0500 (Central Daylight Time),94547.70000000298,CFD-WM-035-036-HC.jpg,1700,solid,I,m,672,9,2,30840.5,63707.20000000298,8056,ATS,C,10
11,prac,1,A,haborder.png,1,z,Wed Sep 24 2025 14:00:50 GMT-0500 (Central Daylight Time),96930.09999999404,CFD-WF-023-013-A.jpg,1000,solid,I,z,598,12,2,33222.89999999106,63707.20000000298,8056,ATS,C,11
12,prac,1,A,haborder.png,1,z,Wed Sep 24 2025 14:00:50 GMT-0500 (Central Daylight Time),100079.09999999404,CFD-WF-037-016-A.jpg,1600,solid,I,z,751,10,2,36371.89999999106,63707.20000000298,8056,ATS,C,12
1,prac,1,B,mfborder.png,1,z,Wed Sep 24 2025 14:00:50 GMT-0500 (Central Daylight Time),129253.59999999404,CFD-WF-001-010-HC.jpg,1900,8,I,z,1154,dash,2,3848.7000000029802,125404.89999999106,8056,ATS,C,1
2,prac,1,B,mfborder.png,1,z,Wed Sep 24 2025 14:00:50 GMT-0500 (Central Daylight Time),131685.89999999106,CFD-WF-013-009-HC.jpg,1000,12,I,z,635,dash,2,6281.0,125404.89999999106,8056,ATS,C,2
3,prac,1,B,mfborder.png,1,z,Wed Sep 24 2025 14:00:50 GMT-0500 (Central Daylight Time),135285.0,CFD-WF-037-016-A.jpg,1500,11,I,z,1312,dash,2,9880.10000000894,125404.89999999106,8056,ATS,C,3
4,prac,1,B,mfborder.png,1,z,Wed Sep 24 2025 14:00:50 GMT-0500 (Central Daylight Time),138000.70000000298,CFD-BF-019-004-HC.jpg,1400,7,I,z,525,dash,2,12595.800000011921,125404.89999999106,8056,ATS,C,4
5,prac,1,B,mfborder.png,1,z,Wed Sep 24 2025 14:00:50 GMT-0500 (Central Daylight Time),140749.70000000298,CFD-BF-042-031-HC.jpg,1500,3,I,z,460,dash,2,15344.800000011921,125404.89999999106,8056,ATS,C,5
6,prac,1,B,mfborder.png,1,m,Wed Sep 24 2025 14:00:50 GMT-0500 (Central Daylight Time),144048.89999999106,CFD-BM-043-014-A.jpg,2000,5,I,m,508,dash,2,18644.0,125404.89999999106,8056,ATS,C,6
7,prac,1,B,mfborder.png,1,m,Wed Sep 24 2025 14:00:50 GMT-0500 (Central Daylight Time),147331.20000000298,CFD-BM-021-026-A.jpg,1600,2,I,m,897,dash,2,21926.30000001192,125404.89999999106,8056,ATS,C,7
8,prac,1,B,mfborder.png,1,m,Wed Sep 24 2025 14:00:50 GMT-0500 (Central Daylight Time),149996.89999999106,CFD-WM-034-040-A.jpg,1200,6,I,m,670,dash,2,24592.0,125404.89999999106,8056,ATS,C,8
9,prac,1,B,mfborder.png,1,m,Wed Sep 24 2025 14:00:50 GMT-0500 (Central Daylight Time),153196.09999999404,CFD-WM-035-036-HC.jpg,1600,10,I,m,806,dash,2,27791.20000000298,125404.89999999106,8056,ATS,C,9
10,prac,1,B,mfborder.png,1,m,Wed Sep 24 2025 14:00:50 GMT-0500 (Central Daylight Time),156378.5,CFD-WM-036-018-A.jpg,1700,9,I,m,698,dash,2,30973.60000000894,125404.89999999106,8056,ATS,C,10
11,prac,1,B,mfborder.png,1,m,Wed Sep 24 2025 14:00:50 GMT-0500 (Central Daylight Time),159410.59999999404,CFD-BM-022-004-HC.jpg,1700,1,I,m,540,dash,2,34005.70000000298,125404.89999999106,8056,ATS,C,11
12,prac,1,B,mfborder.png,1,z,Wed Sep 24 2025 14:00:50 GMT-0500 (Central Daylight Time),161893.20000000298,CFD-BF-031-020-A.jpg,1000,4,I,z,694,dash,2,36488.30000001192,125404.89999999106,8056,ATS,C,12
1,test,1,A,haborder.png,1,m,Wed Sep 24 2025 14:00:50 GMT-0500 (Central Daylight Time),176405.20000000298,CFD-WM-035-036-HC.jpg,1700,solid,I,m,706,9,2,2432.4000000059605,173972.79999999702,8056,ATS,C,1
2,test,1,A,haborder.png,1,m,Wed Sep 24 2025 14:00:50 GMT-0500 (Central Daylight Time),178588.09999999404,CFD-BM-022-004-HC.jpg,1500,solid,I,m,657,3,2,4615.29999999702,173972.79999999702,8056,ATS,C,2
3,test,1,A,haborder.png,1,m,Wed Sep 24 2025 14:00:50 GMT-0500 (Central Daylight Time),181303.59999999404,CFD-BF-019-004-HC.jpg,2000,solid,I,m,600,5,2,7330.79999999702,173972.79999999702,8056,ATS,C,3
4,test,1,A,haborder.png,1,z,Wed Sep 24 2025 14:00:50 GMT-0500 (Central Daylight Time),183653.0,CFD-WM-036-018-A.jpg,1900,solid,I,z,430,8,2,9680.20000000298,173972.79999999702,8056,ATS,C,4
5,test,1,A,haborder.png,1,z,Wed Sep 24 2025 14:00:50 GMT-0500 (Central Daylight Time),186018.70000000298,CFD-BM-043-014-A.jpg,1600,solid,I,z,749,2,2,12045.90000000596,173972.79999999702,8056,ATS,C,5
6,test,1,A,haborder.png,1,m,Wed Sep 24 2025 14:00:50 GMT-0500 (Central Daylight Time),188234.79999999702,CFD-WF-013-009-HC.jpg,1500,solid,I,m,683,11,2,14262.0,173972.79999999702,8056,ATS,C,6
7,test,1,A,haborder.png,1,z,Wed Sep 24 2025 14:00:50 GMT-0500 (Central Daylight Time),190500.89999999106,CFD-WF-037-016-A.jpg,1600,solid,I,z,648,10,2,16528.09999999404,173972.79999999702,8056,ATS,C,7
8,test,1,A,haborder.png,1,m,Wed Sep 24 2025 14:00:50 GMT-0500 (Central Daylight Time),192566.79999999702,CFD-BM-022-004-HC.jpg,1500,solid,I,m,546,3,2,18594.0,173972.79999999702,8056,ATS,C,8
9,test,1,A,haborder.png,1,z,Wed Sep 24 2025 14:00:50 GMT-0500 (Central Daylight Time),194299.59999999404,CFD-WF-023-013-A.jpg,1000,solid,I,z,706,12,2,20326.79999999702,173972.79999999702,8056,ATS,C,9
10,test,1,A,haborder.png,1,z,Wed Sep 24 2025 14:00:50 GMT-0500 (Central Daylight Time),195982.29999999702,CFD-BF-031-020-A.jpg,1000,solid,I,z,655,4,2,22009.5,173972.79999999702,8056,ATS,C,10
10,test,1,A,haborder.png,0,m,Wed Sep 24 2025 14:00:50 GMT-0500 (Central Daylight Time),197915.09999999404,CFD-WM-028-005-HC.jpg,1400,solid,I,z,508,7,2,23942.29999999702,173972.79999999702,8056,ATS,C,11
11,test,1,A,haborder.png,1,m,Wed Sep 24 2025 14:00:50 GMT-0500 (Central Daylight Time),200497.70000000298,CFD-BF-019-004-HC.jpg,2000,solid,I,m,550,5,2,26524.90000000596,173972.79999999702,8056,ATS,C,12
12,test,1,A,haborder.png,1,z,Wed Sep 24 2025 14:00:50 GMT-0500 (Central Daylight Time),202080.59999999404,CFD-BF-031-020-A.jpg,1000,solid,I,z,560,4,2,28107.79999999702,173972.79999999702,8056,ATS,C,13
13,test,1,A,haborder.png,1,z,Wed Sep 24 2025 14:00:50 GMT-0500 (Central Daylight Time),204746.5,CFD-WM-036-018-A.jpg,1900,solid,I,z,620,8,2,30773.70000000298,173972.79999999702,8056,ATS,C,14
14,test,1,A,haborder.png,1,z,Wed Sep 24 2025 14:00:50 GMT-0500 (Central Daylight Time),206629.09999999404,CFD-BF-002-018-A.jpg,1200,solid,I,z,664,6,2,32656.29999999702,173972.79999999702,8056,ATS,C,15
15,test,1,A,haborder.png,1,m,Wed Sep 24 2025 14:00:50 GMT-0500 (Central Daylight Time),208978.59999999404,CFD-BM-034-035-HC.jpg,1700,solid,I,m,624,1,2,35005.79999999702,173972.79999999702,8056,ATS,C,16
16,test,1,A,haborder.png,1,z,Wed Sep 24 2025 14:00:50 GMT-0500 (Central Daylight Time),211160.79999999702,CFD-WF-037-016-A.jpg,1600,solid,I,z,560,10,2,37188.0,173972.79999999702,8056,ATS,C,17
17,test,1,A,haborder.png,1,m,Wed Sep 24 2025 14:00:50 GMT-0500 (Central Daylight Time),213710.20000000298,CFD-BM-034-035-HC.jpg,1700,solid,I,m,829,1,2,39737.40000000596,173972.79999999702,8056,ATS,C,18
18,test,1,A,haborder.png,1,m,Wed Sep 24 2025 14:00:50 GMT-0500 (Central Daylight Time),215876.20000000298,CFD-WM-028-005-HC.jpg,1400,solid,I,m,747,7,2,41903.40000000596,173972.79999999702,8056,ATS,C,19
19,test,1,A,haborder.png,1,z,Wed Sep 24 2025 14:00:50 GMT-0500 (Central Daylight Time),217775.70000000298,CFD-BF-002-018-A.jpg,1200,solid,I,z,670,6,2,43802.90000000596,173972.79999999702,8056,ATS,C,20
20,test,1,A,haborder.png,1,z,Wed Sep 24 2025 14:00:50 GMT-0500 (Central Daylight Time),219791.70000000298,CFD-WF-023-013-A.jpg,1000,solid,I,z,994,12,2,45818.90000000596,173972.79999999702,8056,ATS,C,21
21,test,1,A,haborder.png,1,m,Wed Sep 24 2025 14:00:50 GMT-0500 (Central Daylight Time),221841.0,CFD-WF-013-009-HC.jpg,1500,solid,I,m,519,11,2,47868.20000000298,173972.79999999702,8056,ATS,C,22
22,test,1,A,haborder.png,1,m,Wed Sep 24 2025 14:00:50 GMT-0500 (Central Daylight Time),224056.70000000298,CFD-WM-035-036-HC.jpg,1700,solid,I,m,494,9,2,50083.90000000596,173972.79999999702,8056,ATS,C,23
23,test,1,A,haborder.png,1,z,Wed Sep 24 2025 14:00:50 GMT-0500 (Central Daylight Time),226239.70000000298,CFD-BM-043-014-A.jpg,1600,solid,I,z,553,2,2,52266.90000000596,173972.79999999702,8056,ATS,C,24
1,test,1,B,mfborder.png,1,z,Wed Sep 24 2025 14:00:50 GMT-0500 (Central Daylight Time),234370.29999999702,CFD-BF-019-004-HC.jpg,1400,dash,I,z,892,7,2,2315.7000000029802,232054.59999999404,8056,ATS,C,1
2,test,1,B,mfborder.png,1,z,Wed Sep 24 2025 14:00:50 GMT-0500 (Central Daylight Time),236103.09999999404,CFD-WF-013-009-HC.jpg,1000,dash,I,z,703,12,2,4048.5,232054.59999999404,8056,ATS,C,2
3,test,1,B,mfborder.png,1,m,Wed Sep 24 2025 14:00:50 GMT-0500 (Central Daylight Time),238302.59999999404,CFD-BM-022-004-HC.jpg,1700,dash,I,m,470,1,2,6248.0,232054.59999999404,8056,ATS,C,3
4,test,1,B,mfborder.png,1,m,Wed Sep 24 2025 14:00:50 GMT-0500 (Central Daylight Time),240534.89999999106,CFD-WM-036-018-A.jpg,1700,dash,I,m,504,9,2,8480.29999999702,232054.59999999404,8056,ATS,C,4
5,test,1,B,mfborder.png,1,z,Wed Sep 24 2025 14:00:50 GMT-0500 (Central Daylight Time),242567.89999999106,CFD-BF-042-031-HC.jpg,1500,dash,I,z,503,3,2,10513.29999999702,232054.59999999404,8056,ATS,C,5
6,test,1,B,mfborder.png,1,z,Wed Sep 24 2025 14:00:50 GMT-0500 (Central Daylight Time),245450.59999999404,CFD-WF-001-010-HC.jpg,1900,dash,I,z,950,8,2,13396.0,232054.59999999404,8056,ATS,C,6
7,test,1,B,mfborder.png,1,m,Wed Sep 24 2025 14:00:50 GMT-0500 (Central Daylight Time),247300.5,CFD-WM-034-040-A.jpg,1200,dash,I,m,632,6,2,15245.90000000596,232054.59999999404,8056,ATS,C,7
8,test,1,B,mfborder.png,1,z,Wed Sep 24 2025 14:00:50 GMT-0500 (Central Daylight Time),248999.20000000298,CFD-WF-013-009-HC.jpg,1000,dash,I,z,676,12,2,16944.60000000894,232054.59999999404,8056,ATS,C,8
9,test,1,B,mfborder.png,1,z,Wed Sep 24 2025 14:00:50 GMT-0500 (Central Daylight Time),251065.29999999702,CFD-WF-037-016-A.jpg,1500,dash,I,z,543,11,2,19010.70000000298,232054.59999999404,8056,ATS,C,9
10,test,1,B,mfborder.png,1,z,Wed Sep 24 2025 14:00:50 GMT-0500 (Central Daylight Time),252998.0,CFD-BF-019-004-HC.jpg,1400,dash,I,z,504,7,2,20943.40000000596,232054.59999999404,8056,ATS,C,10
11,test,1,B,mfborder.png,1,m,Wed Sep 24 2025 14:00:50 GMT-0500 (Central Daylight Time),254647.39999999106,CFD-WM-034-040-A.jpg,1200,dash,I,m,428,6,2,22592.79999999702,232054.59999999404,8056,ATS,C,11
12,test,1,B,mfborder.png,1,m,Wed Sep 24 2025 14:00:50 GMT-0500 (Central Daylight Time),256996.39999999106,CFD-WM-036-018-A.jpg,1700,dash,I,m,622,9,2,24941.79999999702,232054.59999999404,8056,ATS,C,12
13,test,1,B,mfborder.png,1,m,Wed Sep 24 2025 14:00:50 GMT-0500 (Central Daylight Time),259346.09999999404,CFD-WM-035-036-HC.jpg,1600,dash,I,m,717,10,2,27291.5,232054.59999999404,8056,ATS,C,13
14,test,1,B,mfborder.png,1,z,Wed Sep 24 2025 14:00:50 GMT-0500 (Central Daylight Time),260995.39999999106,CFD-BF-031-020-A.jpg,1000,dash,I,z,624,4,2,28940.79999999702,232054.59999999404,8056,ATS,C,14
15,test,1,B,mfborder.png,1,z,Wed Sep 24 2025 14:00:50 GMT-0500 (Central Daylight Time),263094.799999997,CFD-WF-037-016-A.jpg,1500,dash,I,z,579,11,2,31040.20000000298,232054.59999999404,8056,ATS,C,15
16,test,1,B,mfborder.png,1,m,Wed Sep 24 2025 14:00:50 GMT-0500 (Central Daylight Time),265644.0,CFD-BM-043-014-A.jpg,2000,dash,I,m,523,5,2,33589.40000000596,232054.59999999404,8056,ATS,C,16
17,test,1,B,mfborder.png,1,z,Wed Sep 24 2025 14:00:50 GMT-0500 (Central Daylight Time),267676.39999999106,CFD-BF-042-031-HC.jpg,1500,dash,I,z,509,3,2,35621.79999999702,232054.59999999404,8056,ATS,C,17
18,test,1,B,mfborder.png,1,z,Wed Sep 24 2025 14:00:50 GMT-0500 (Central Daylight Time),269242.700000003,CFD-BF-031-020-A.jpg,1000,dash,I,z,549,4,2,37188.10000000894,232054.59999999404,8056,ATS,C,18
19,test,1,B,mfborder.png,1,m,Wed Sep 24 2025 14:00:50 GMT-0500 (Central Daylight Time),271392.0,CFD-BM-021-026-A.jpg,1600,dash,I,m,520,2,2,39337.40000000596,232054.59999999404,8056,ATS,C,19
20,test,1,B,mfborder.png,1,m,Wed Sep 24 2025 14:00:50 GMT-0500 (Central Daylight Time),273824.89999999106,CFD-BM-022-004-HC.jpg,1700,dash,I,m,710,1,2,41770.29999999702,232054.59999999404,8056,ATS,C,20
21,test,1,B,mfborder.png,1,m,Wed Sep 24 2025 14:00:50 GMT-0500 (Central Daylight Time),275974.200000003,CFD-BM-021-026-A.jpg,1600,dash,I,m,521,2,2,43919.60000000894,232054.59999999404,8056,ATS,C,21
22,test,1,B,mfborder.png,1,m,Wed Sep 24 2025 14:00:50 GMT-0500 (Central Daylight Time),278806.299999997,CFD-BM-043-014-A.jpg,2000,dash,I,m,803,5,2,46751.70000000298,232054.59999999404,8056,ATS,C,22
23,test,1,B,mfborder.png,1,z,Wed Sep 24 2025 14:00:50 GMT-0500 (Central Daylight Time),281305.700000003,CFD-WF-001-010-HC.jpg,1900,dash,I,z,575,8,2,49251.10000000894,232054.59999999404,8056,ATS,C,23
24,test,1,B,mfborder.png,1,m,Wed Sep 24 2025 14:00:50 GMT-0500 (Central Daylight Time),283571.59999999404,CFD-WM-035-036-HC.jpg,1600,dash,I,m,641,10,2,51517.0,232054.59999999404,8056,ATS,C,24
0,prac,1,C,haborder.png,0,z,Wed Sep 24 2025 14:00:50 GMT-0500 (Central Daylight Time),304199.700000003,CFD-WF-037-016-A.jpg,1600,dash,I,m,1453,10,2,3849.9000000059605,300349.799999997,8056,ATS,C,1
1,prac,1,C,mfborder.png,1,m,Wed Sep 24 2025 14:00:50 GMT-0500 (Central Daylight Time),308480.59999999404,CFD-BM-034-035-HC.jpg,2000,solid,I,m,1492,10,2,8130.79999999702,300349.799999997,8056,ATS,C,2
2,prac,1,C,mfborder.png,1,m,Wed Sep 24 2025 14:00:50 GMT-0500 (Central Daylight Time),312045.799999997,CFD-WM-036-018-A.jpg,1700,solid,I,m,1078,10,2,11696.0,300349.799999997,8056,ATS,C,3
3,prac,1,C,mfborder.png,1,z,Wed Sep 24 2025 14:00:50 GMT-0500 (Central Daylight Time),315245.0,CFD-WF-013-009-HC.jpg,1600,dash,I,z,804,10,2,14895.20000000298,300349.799999997,8056,ATS,C,4
3,prac,1,C,haborder.png,0,m,Wed Sep 24 2025 14:00:50 GMT-0500 (Central Daylight Time),318543.799999997,CFD-WM-028-005-HC.jpg,1000,dash,I,None,1515,10,2,18194.0,300349.799999997,8056,ATS,C,5
4,prac,1,C,haborder.png,1,z,Wed Sep 24 2025 14:00:50 GMT-0500 (Central Daylight Time),322039.299999997,CFD-BF-002-018-A.jpg,1700,solid,I,z,975,10,2,21689.5,300349.799999997,8056,ATS,C,6
5,prac,1,C,haborder.png,1,z,Wed Sep 24 2025 14:00:50 GMT-0500 (Central Daylight Time),325425.09999999404,CFD-BF-031-020-A.jpg,1900,dash,I,z,692,10,2,25075.29999999702,300349.799999997,8056,ATS,C,7
5,prac,1,C,mfborder.png,0,z,Wed Sep 24 2025 14:00:50 GMT-0500 (Central Daylight Time),328307.59999999404,CFD-BF-019-004-HC.jpg,1000,dash,I,m,1089,10,2,27957.79999999702,300349.799999997,8056,ATS,C,8
5,prac,1,C,mfborder.png,0,z,Wed Sep 24 2025 14:00:50 GMT-0500 (Central Daylight Time),332106.299999997,CFD-WF-023-013-A.jpg,1500,solid,I,None,1516,10,2,31756.5,300349.799999997,8056,ATS,C,9
6,prac,1,C,haborder.png,1,m,Wed Sep 24 2025 14:00:50 GMT-0500 (Central Daylight Time),335138.799999997,CFD-WM-028-005-HC.jpg,1400,solid,I,m,840,10,2,34789.0,300349.799999997,8056,ATS,C,10
7,prac,1,C,haborder.png,1,m,Wed Sep 24 2025 14:00:50 GMT-0500 (Central Daylight Time),338004.89999999106,CFD-BM-022-004-HC.jpg,1500,solid,I,m,571,10,2,37655.09999999404,300349.799999997,8056,ATS,C,11
7,prac,1,C,mfborder.png,0,m,Wed Sep 24 2025 14:00:50 GMT-0500 (Central Daylight Time),340953.799999997,CFD-BM-043-014-A.jpg,1200,dash,I,z,965,10,2,40604.0,300349.799999997,8056,ATS,C,12
1,test,1,C,mfborder.png,1,z,Wed Sep 24 2025 14:00:50 GMT-0500 (Central Daylight Time),363779.799999997,CFD-BF-031-020-A.jpg,1600,dash,I,z,1073,2,2,2699.0,361080.799999997,8056,ATS,C,1
1,test,1,C,haborder.png,0,m,Wed Sep 24 2025 14:00:50 GMT-0500 (Central Daylight Time),366812.09999999404,CFD-WF-001-010-HC.jpg,1500,solid,I,None,1516,11,2,5731.29999999702,361080.799999997,8056,ATS,C,2
2,test,1,C,mfborder.png,1,m,Wed Sep 24 2025 14:00:50 GMT-0500 (Central Daylight Time),369961.09999999404,CFD-WM-034-040-A.jpg,2000,dash,I,m,1118,5,2,8880.29999999702,361080.799999997,8056,ATS,C,3
3,test,1,C,mfborder.png,1,z,Wed Sep 24 2025 14:00:50 GMT-0500 (Central Daylight Time),372826.799999997,CFD-BF-042-031-HC.jpg,1700,dash,I,z,1141,1,2,11746.0,361080.799999997,8056,ATS,C,4
3,test,1,C,haborder.png,0,z,Wed Sep 24 2025 14:00:50 GMT-0500 (Central Daylight Time),376260.39999999106,CFD-BM-043-014-A.jpg,1900,solid,I,None,1517,8,2,15179.59999999404,361080.799999997,8056,ATS,C,5
4,test,1,C,mfborder.png,1,m,Wed Sep 24 2025 14:00:50 GMT-0500 (Central Daylight Time),378358.39999999106,CFD-BM-022-004-HC.jpg,1200,dash,I,m,870,6,2,17277.59999999404,361080.799999997,8056,ATS,C,6
5,test,1,C,mfborder.png,1,z,Wed Sep 24 2025 14:00:50 GMT-0500 (Central Daylight Time),381374.200000003,CFD-WF-037-016-A.jpg,1500,dash,I,z,1488,3,2,20293.40000000596,361080.799999997,8056,ATS,C,7
6,test,1,C,haborder.png,1,m,Wed Sep 24 2025 14:00:50 GMT-0500 (Central Daylight Time),384240.09999999404,CFD-BF-019-004-HC.jpg,1600,solid,I,m,1235,10,2,23159.29999999702,361080.799999997,8056,ATS,C,8
7,test,1,C,haborder.png,1,z,Wed Sep 24 2025 14:00:50 GMT-0500 (Central Daylight Time),386889.39999999106,CFD-BM-021-026-A.jpg,1700,solid,I,z,917,9,2,25808.59999999404,361080.799999997,8056,ATS,C,9
8,test,1,C,mfborder.png,1,z,Wed Sep 24 2025 14:00:50 GMT-0500 (Central Daylight Time),389638.0,CFD-WF-037-016-A.jpg,1500,dash,I,z,1220,3,2,28557.20000000298,361080.799999997,8056,ATS,C,10
9,test,1,C,haborder.png,1,m,Wed Sep 24 2025 14:00:50 GMT-0500 (Central Daylight Time),392170.799999997,CFD-WF-001-010-HC.jpg,1500,solid,I,m,1008,11,2,31090.0,361080.799999997,8056,ATS,C,11
10,test,1,C,mfborder.png,1,m,Wed Sep 24 2025 14:00:50 GMT-0500 (Central Daylight Time),394220.09999999404,CFD-WM-035-036-HC.jpg,1000,dash,I,m,1031,4,2,33139.29999999702,361080.799999997,8056,ATS,C,12
11,test,1,C,haborder.png,1,z,Wed Sep 24 2025 14:00:50 GMT-0500 (Central Daylight Time),397086.0,CFD-BM-043-014-A.jpg,1900,solid,I,z,938,8,2,36005.20000000298,361080.799999997,8056,ATS,C,13
12,test,1,C,mfborder.png,1,m,Wed Sep 24 2025 14:00:50 GMT-0500 (Central Daylight Time),399202.0,CFD-WM-035-036-HC.jpg,1000,dash,I,m,1092,4,2,38121.20000000298,361080.799999997,8056,ATS,C,14
12,test,1,C,haborder.png,0,m,Wed Sep 24 2025 14:00:50 GMT-0500 (Central Daylight Time),401734.299999997,CFD-WF-013-009-HC.jpg,1000,solid,I,None,1515,12,2,40653.5,361080.799999997,8056,ATS,C,15
13,test,1,C,mfborder.png,1,z,Wed Sep 24 2025 14:00:50 GMT-0500 (Central Daylight Time),404317.0,CFD-BF-042-031-HC.jpg,1700,dash,I,z,863,1,2,43236.20000000298,361080.799999997,8056,ATS,C,16
13,test,1,C,mfborder.png,0,m,Wed Sep 24 2025 14:00:50 GMT-0500 (Central Daylight Time),407616.0,CFD-WM-034-040-A.jpg,2000,dash,I,z,1278,5,2,46535.20000000298,361080.799999997,8056,ATS,C,17
13,test,1,C,haborder.png,0,z,Wed Sep 24 2025 14:00:50 GMT-0500 (Central Daylight Time),410848.299999997,CFD-BM-021-026-A.jpg,1700,solid,I,None,1516,9,2,49767.5,361080.799999997,8056,ATS,C,18
14,test,1,C,mfborder.png,1,m,Wed Sep 24 2025 14:00:50 GMT-0500 (Central Daylight Time),413030.89999999106,CFD-BM-022-004-HC.jpg,1200,dash,I,m,954,6,2,51950.09999999404,361080.799999997,8056,ATS,C,19
15,test,1,C,haborder.png,1,z,Wed Sep 24 2025 14:00:50 GMT-0500 (Central Daylight Time),415714.200000003,CFD-WM-036-018-A.jpg,1400,solid,I,z,1267,7,2,54633.40000000596,361080.799999997,8056,ATS,C,20
16,test,1,C,mfborder.png,1,z,Wed Sep 24 2025 14:00:50 GMT-0500 (Central Daylight Time),418662.59999999404,CFD-BF-031-020-A.jpg,1600,dash,I,z,1329,2,2,57581.79999999702,361080.799999997,8056,ATS,C,21
17,test,1,C,haborder.png,1,m,Wed Sep 24 2025 14:00:50 GMT-0500 (Central Daylight Time),421461.59999999404,CFD-BF-019-004-HC.jpg,1600,solid,I,m,1180,10,2,60380.79999999702,361080.799999997,8056,ATS,C,22
18,test,1,C,haborder.png,1,m,Wed Sep 24 2025 14:00:50 GMT-0500 (Central Daylight Time),423361.0,CFD-WF-013-009-HC.jpg,1000,solid,I,m,876,12,2,62280.20000000298,361080.799999997,8056,ATS,C,23
18,test,1,C,haborder.png,0,z,Wed Sep 24 2025 14:00:50 GMT-0500 (Central Daylight Time),425677.0,CFD-WM-036-018-A.jpg,1400,solid,I,m,889,7,2,64596.20000000298,361080.799999997,8056,ATS,C,24
0,test,2,C,mfborder.png,0,m,Wed Sep 24 2025 14:00:50 GMT-0500 (Central Daylight Time),436607.0,CFD-BM-043-014-A.jpg,2000,dash,I,None,1516,5,2,3532.1000000089407,433074.89999999106,8056,ATS,C,1
1,test,2,C,haborder.png,1,z,Wed Sep 24 2025 14:00:50 GMT-0500 (Central Daylight Time),439056.0,CFD-WF-037-016-A.jpg,1700,solid,I,z,719,9,2,5981.100000008941,433074.89999999106,8056,ATS,C,2
2,test,2,C,haborder.png,1,m,Wed Sep 24 2025 14:00:50 GMT-0500 (Central Daylight Time),441222.0,CFD-WM-028-005-HC.jpg,1000,solid,I,m,1129,12,2,8147.100000008941,433074.89999999106,8056,ATS,C,3
3,test,2,C,haborder.png,1,z,Wed Sep 24 2025 14:00:50 GMT-0500 (Central Daylight Time),443871.39999999106,CFD-BF-002-018-A.jpg,1900,solid,I,z,728,8,2,10796.5,433074.89999999106,8056,ATS,C,4
4,test,2,C,haborder.png,1,m,Wed Sep 24 2025 14:00:50 GMT-0500 (Central Daylight Time),446187.0,CFD-BM-022-004-HC.jpg,1600,solid,I,m,683,10,2,13112.10000000894,433074.89999999106,8056,ATS,C,5
5,test,2,C,mfborder.png,1,z,Wed Sep 24 2025 14:00:50 GMT-0500 (Central Daylight Time),449302.799999997,CFD-WF-023-013-A.jpg,1600,dash,I,z,1495,2,2,16227.90000000596,433074.89999999106,8056,ATS,C,6
6,test,2,C,haborder.png,1,m,Wed Sep 24 2025 14:00:50 GMT-0500 (Central Daylight Time),451335.59999999404,CFD-WM-028-005-HC.jpg,1000,solid,I,m,1004,12,2,18260.70000000298,433074.89999999106,8056,ATS,C,7
7,test,2,C,mfborder.png,1,m,Wed Sep 24 2025 14:00:50 GMT-0500 (Central Daylight Time),453551.39999999106,CFD-BM-034-035-HC.jpg,1000,dash,I,m,1186,4,2,20476.5,433074.89999999106,8056,ATS,C,8
8,test,2,C,mfborder.png,1,m,Wed Sep 24 2025 14:00:50 GMT-0500 (Central Daylight Time),455284.5,CFD-BM-034-035-HC.jpg,1000,dash,I,m,706,4,2,22209.60000000894,433074.89999999106,8056,ATS,C,9
9,test,2,C,mfborder.png,1,z,Wed Sep 24 2025 14:00:50 GMT-0500 (Central Daylight Time),458200.0,CFD-WF-013-009-HC.jpg,1700,dash,I,z,1194,1,2,25125.10000000894,433074.89999999106,8056,ATS,C,10
10,test,2,C,mfborder.png,1,m,Wed Sep 24 2025 14:00:50 GMT-0500 (Central Daylight Time),461665.5,CFD-BM-043-014-A.jpg,2000,dash,I,m,1433,5,2,28590.60000000894,433074.89999999106,8056,ATS,C,11
11,test,2,C,mfborder.png,1,z,Wed Sep 24 2025 14:00:50 GMT-0500 (Central Daylight Time),464498.200000003,CFD-BF-019-004-HC.jpg,1500,dash,I,z,1300,3,2,31423.30000001192,433074.89999999106,8056,ATS,C,12
12,test,2,C,haborder.png,1,m,Wed Sep 24 2025 14:00:50 GMT-0500 (Central Daylight Time),466747.200000003,CFD-WM-028-005-HC.jpg,1500,solid,I,m,732,11,2,33672.30000001192,433074.89999999106,8056,ATS,C,13
13,test,2,C,haborder.png,1,z,Wed Sep 24 2025 14:00:50 GMT-0500 (Central Daylight Time),469746.39999999106,CFD-BF-002-018-A.jpg,1900,solid,I,z,1082,8,2,36671.5,433074.89999999106,8056,ATS,C,14
14,test,2,C,haborder.png,1,m,Wed Sep 24 2025 14:00:50 GMT-0500 (Central Daylight Time),472378.700000003,CFD-BM-022-004-HC.jpg,1600,solid,I,m,1015,10,2,39303.80000001192,433074.89999999106,8056,ATS,C,15
15,test,2,C,haborder.png,1,z,Wed Sep 24 2025 14:00:50 GMT-0500 (Central Daylight Time),475144.59999999404,CFD-BF-031-020-A.jpg,1400,solid,I,z,1335,7,2,42069.70000000298,433074.89999999106,8056,ATS,C,16
15,test,2,C,mfborder.png,0,m,Wed Sep 24 2025 14:00:50 GMT-0500 (Central Daylight Time),477877.200000003,CFD-WM-036-018-A.jpg,1200,dash,I,None,1516,6,2,44802.30000001192,433074.89999999106,8056,ATS,C,17
16,test,2,C,haborder.png,1,z,Wed Sep 24 2025 14:00:50 GMT-0500 (Central Daylight Time),480509.89999999106,CFD-BF-031-020-A.jpg,1400,solid,I,z,1213,7,2,47435.0,433074.89999999106,8056,ATS,C,18
16,test,2,C,mfborder.png,0,z,Wed Sep 24 2025 14:00:50 GMT-0500 (Central Daylight Time),483625.39999999106,CFD-WF-013-009-HC.jpg,1700,dash,I,m,1384,1,2,50550.5,433074.89999999106,8056,ATS,C,19
16,test,2,C,haborder.png,0,m,Wed Sep 24 2025 14:00:50 GMT-0500 (Central Daylight Time),486657.700000003,CFD-WM-028-005-HC.jpg,1500,solid,I,None,1516,11,2,53582.80000001192,433074.89999999106,8056,ATS,C,20
17,test,2,C,mfborder.png,1,z,Wed Sep 24 2025 14:00:50 GMT-0500 (Central Daylight Time),489606.89999999106,CFD-WF-023-013-A.jpg,1600,dash,I,z,1328,2,2,56532.0,433074.89999999106,8056,ATS,C,21
18,test,2,C,mfborder.png,1,m,Wed Sep 24 2025 14:00:50 GMT-0500 (Central Daylight Time),491939.200000003,CFD-WM-036-018-A.jpg,1200,dash,I,m,1107,6,2,58864.30000001192,433074.89999999106,8056,ATS,C,22
19,test,2,C,mfborder.png,1,z,Wed Sep 24 2025 14:00:50 GMT-0500 (Central Daylight Time),494788.59999999404,CFD-BF-019-004-HC.jpg,1500,dash,I,z,1322,3,2,61713.70000000298,433074.89999999106,8056,ATS,C,23
20,test,2,C,haborder.png,1,z,Wed Sep 24 2025 14:00:50 GMT-0500 (Central Daylight Time),497287.799999997,CFD-WF-037-016-A.jpg,1700,solid,I,z,778,9,2,64212.90000000596,433074.89999999106,8056,ATS,C,24
0,test,3,C,haborder.png,0,m,Wed Sep 24 2025 14:00:50 GMT-0500 (Central Daylight Time),511167.200000003,CFD-BF-019-004-HC.jpg,1600,solid,I,z,1304,10,2,2932.6000000089407,508234.59999999404,8056,ATS,C,1
1,test,3,C,haborder.png,1,m,Wed Sep 24 2025 14:00:50 GMT-0500 (Central Daylight Time),513532.59999999404,CFD-BF-019-004-HC.jpg,1600,solid,I,m,739,10,2,5298.0,508234.59999999404,8056,ATS,C,2
2,test,3,C,haborder.png,1,z,Wed Sep 24 2025 14:00:50 GMT-0500 (Central Daylight Time),515981.89999999106,CFD-BM-021-026-A.jpg,1700,solid,I,z,722,9,2,7747.29999999702,508234.59999999404,8056,ATS,C,3
3,test,3,C,mfborder.png,1,m,Wed Sep 24 2025 14:00:50 GMT-0500 (Central Daylight Time),519114.299999997,CFD-WM-034-040-A.jpg,2000,dash,I,m,1116,5,2,10879.70000000298,508234.59999999404,8056,ATS,C,4
4,test,3,C,haborder.png,1,z,Wed Sep 24 2025 14:00:50 GMT-0500 (Central Daylight Time),521946.799999997,CFD-BM-043-014-A.jpg,1900,solid,I,z,908,8,2,13712.20000000298,508234.59999999404,8056,ATS,C,5
5,test,3,C,mfborder.png,1,m,Wed Sep 24 2025 14:00:50 GMT-0500 (Central Daylight Time),524229.5,CFD-WM-035-036-HC.jpg,1000,dash,I,m,1264,4,2,15994.90000000596,508234.59999999404,8056,ATS,C,6
6,test,3,C,haborder.png,1,z,Wed Sep 24 2025 14:00:50 GMT-0500 (Central Daylight Time),526528.8999999911,CFD-WM-036-018-A.jpg,1400,solid,I,z,877,7,2,18294.29999999702,508234.59999999404,8056,ATS,C,7
7,test,3,C,haborder.png,1,m,Wed Sep 24 2025 14:00:50 GMT-0500 (Central Daylight Time),529344.700000003,CFD-WF-001-010-HC.jpg,1500,solid,I,m,1286,11,2,21110.10000000894,508234.59999999404,8056,ATS,C,8
8,test,3,C,haborder.png,1,m,Wed Sep 24 2025 14:00:50 GMT-0500 (Central Daylight Time),531327.200000003,CFD-WF-013-009-HC.jpg,1000,solid,I,m,962,12,2,23092.60000000894,508234.59999999404,8056,ATS,C,9
9,test,3,C,haborder.png,1,z,Wed Sep 24 2025 14:00:50 GMT-0500 (Central Daylight Time),534493.0,CFD-BM-021-026-A.jpg,1700,solid,I,z,1438,9,2,26258.40000000596,508234.59999999404,8056,ATS,C,10
10,test,3,C,haborder.png,1,z,Wed Sep 24 2025 14:00:50 GMT-0500 (Central Daylight Time),537375.299999997,CFD-BM-043-014-A.jpg,1900,solid,I,z,953,8,2,29140.70000000298,508234.59999999404,8056,ATS,C,11
11,test,3,C,haborder.png,1,m,Wed Sep 24 2025 14:00:50 GMT-0500 (Central Daylight Time),539158.099999994,CFD-WF-013-009-HC.jpg,1000,solid,I,m,762,12,2,30923.5,508234.59999999404,8056,ATS,C,12
12,test,3,C,mfborder.png,1,z,Wed Sep 24 2025 14:00:50 GMT-0500 (Central Daylight Time),542157.099999994,CFD-WF-037-016-A.jpg,1500,dash,I,z,1481,3,2,33922.5,508234.59999999404,8056,ATS,C,13
13,test,3,C,mfborder.png,1,z,Wed Sep 24 2025 14:00:50 GMT-0500 (Central Daylight Time),545056.099999994,CFD-BF-031-020-A.jpg,1600,dash,I,z,1269,2,2,36821.5,508234.59999999404,8056,ATS,C,14
13,test,3,C,mfborder.png,0,m,Wed Sep 24 2025 14:00:50 GMT-0500 (Central Daylight Time),548588.5,CFD-WM-034-040-A.jpg,2000,dash,I,None,1516,5,2,40353.90000000596,508234.59999999404,8056,ATS,C,15
14,test,3,C,mfborder.png,1,z,Wed Sep 24 2025 14:00:50 GMT-0500 (Central Daylight Time),551637.299999997,CFD-BF-042-031-HC.jpg,1700,dash,I,z,1329,1,2,43402.70000000298,508234.59999999404,8056,ATS,C,16
15,test,3,C,mfborder.png,1,m,Wed Sep 24 2025 14:00:50 GMT-0500 (Central Daylight Time),553503.299999997,CFD-WM-035-036-HC.jpg,1000,dash,I,m,836,4,2,45268.70000000298,508234.59999999404,8056,ATS,C,17
16,test,3,C,mfborder.png,1,z,Wed Sep 24 2025 14:00:50 GMT-0500 (Central Daylight Time),555802.8999999911,CFD-WF-037-016-A.jpg,1500,dash,I,z,767,3,2,47568.29999999702,508234.59999999404,8056,ATS,C,18
17,test,3,C,mfborder.png,1,m,Wed Sep 24 2025 14:00:50 GMT-0500 (Central Daylight Time),557749.799999997,CFD-BM-022-004-HC.jpg,1200,dash,I,m,730,6,2,49515.20000000298,508234.59999999404,8056,ATS,C,19
18,test,3,C,mfborder.png,1,z,Wed Sep 24 2025 14:00:50 GMT-0500 (Central Daylight Time),560051.299999997,CFD-BF-042-031-HC.jpg,1700,dash,I,z,573,1,2,51816.70000000298,508234.59999999404,8056,ATS,C,20
19,test,3,C,mfborder.png,1,m,Wed Sep 24 2025 14:00:50 GMT-0500 (Central Daylight Time),562000.799999997,CFD-BM-022-004-HC.jpg,1200,dash,I,m,718,6,2,53766.20000000298,508234.59999999404,8056,ATS,C,21
20,test,3,C,mfborder.png,1,z,Wed Sep 24 2025 14:00:50 GMT-0500 (Central Daylight Time),564433.299999997,CFD-BF-031-020-A.jpg,1600,dash,I,z,801,2,2,56198.70000000298,508234.59999999404,8056,ATS,C,22
21,test,3,C,haborder.png,1,m,Wed Sep 24 2025 14:00:50 GMT-0500 (Central Daylight Time),567415.799999997,CFD-WF-001-010-HC.jpg,1500,solid,I,m,1460,11,2,59181.20000000298,508234.59999999404,8056,ATS,C,23
22,test,3,C,haborder.png,1,z,Wed Sep 24 2025 14:00:50 GMT-0500 (Central Daylight Time),569931.599999994,CFD-WM-036-018-A.jpg,1400,solid,I,z,1090,7,2,61697.0,508234.59999999404,8056,ATS,C,24
1,test,4,C,haborder.png,1,z,Wed Sep 24 2025 14:00:50 GMT-0500 (Central Daylight Time),574348.3999999911,CFD-BF-002-018-A.jpg,1900,solid,I,z,1407,8,2,3333.699999988079,571014.700000003,8056,ATS,C,1
2,test,4,C,mfborder.png,1,m,Wed Sep 24 2025 14:00:50 GMT-0500 (Central Daylight Time),576729.3999999911,CFD-WM-036-018-A.jpg,1200,dash,I,m,1150,6,2,5714.699999988079,571014.700000003,8056,ATS,C,2
3,test,4,C,mfborder.png,1,m,Wed Sep 24 2025 14:00:50 GMT-0500 (Central Daylight Time),578862.5,CFD-BM-034-035-HC.jpg,1000,dash,I,m,1113,4,2,7847.79999999702,571014.700000003,8056,ATS,C,3
4,test,4,C,haborder.png,1,z,Wed Sep 24 2025 14:00:50 GMT-0500 (Central Daylight Time),581521.8999999911,CFD-BF-002-018-A.jpg,1900,solid,I,z,744,8,2,10507.199999988079,571014.700000003,8056,ATS,C,4
5,test,4,C,haborder.png,1,m,Wed Sep 24 2025 14:00:50 GMT-0500 (Central Daylight Time),583394.099999994,CFD-WM-028-005-HC.jpg,1000,solid,I,m,850,12,2,12379.39999999106,571014.700000003,8056,ATS,C,5
6,test,4,C,mfborder.png,1,z,Wed Sep 24 2025 14:00:50 GMT-0500 (Central Daylight Time),586143.099999994,CFD-WF-013-009-HC.jpg,1700,dash,I,z,1019,1,2,15128.39999999106,571014.700000003,8056,ATS,C,6
6,test,4,C,mfborder.png,0,z,Wed Sep 24 2025 14:00:50 GMT-0500 (Central Daylight Time),589276.0,CFD-WF-023-013-A.jpg,1600,dash,I,None,1516,2,2,18261.29999999702,571014.700000003,8056,ATS,C,7
7,test,4,C,haborder.png,1,z,Wed Sep 24 2025 14:00:50 GMT-0500 (Central Daylight Time),592358.0,CFD-WF-037-016-A.jpg,1700,solid,I,z,1354,9,2,21343.29999999702,571014.700000003,8056,ATS,C,8
7,test,4,C,mfborder.png,0,z,Wed Sep 24 2025 14:00:50 GMT-0500 (Central Daylight Time),595390.299999997,CFD-BF-019-004-HC.jpg,1500,dash,I,None,1516,3,2,24375.59999999404,571014.700000003,8056,ATS,C,9
8,test,4,C,haborder.png,1,z,Wed Sep 24 2025 14:00:50 GMT-0500 (Central Daylight Time),598072.799999997,CFD-BF-031-020-A.jpg,1400,solid,I,z,1260,7,2,27058.09999999404,571014.700000003,8056,ATS,C,10
9,test,4,C,haborder.png,1,m,Wed Sep 24 2025 14:00:50 GMT-0500 (Central Daylight Time),600655.5,CFD-WM-028-005-HC.jpg,1500,solid,I,m,1054,11,2,29640.79999999702,571014.700000003,8056,ATS,C,11
10,test,4,C,mfborder.png,1,m,Wed Sep 24 2025 14:00:50 GMT-0500 (Central Daylight Time),604170.700000003,CFD-BM-043-014-A.jpg,2000,dash,I,m,1498,5,2,33156.0,571014.700000003,8056,ATS,C,12
11,test,4,C,haborder.png,1,z,Wed Sep 24 2025 14:00:50 GMT-0500 (Central Daylight Time),606886.700000003,CFD-BF-031-020-A.jpg,1400,solid,I,z,1296,7,2,35872.0,571014.700000003,8056,ATS,C,13
12,test,4,C,mfborder.png,1,m,Wed Sep 24 2025 14:00:50 GMT-0500 (Central Daylight Time),609319.099999994,CFD-BM-034-035-HC.jpg,1000,dash,I,m,1404,4,2,38304.39999999106,571014.700000003,8056,ATS,C,14
13,test,4,C,mfborder.png,1,z,Wed Sep 24 2025 14:00:50 GMT-0500 (Central Daylight Time),612034.799999997,CFD-WF-023-013-A.jpg,1600,dash,I,z,1090,2,2,41020.09999999404,571014.700000003,8056,ATS,C,15
13,test,4,C,mfborder.png,0,z,Wed Sep 24 2025 14:00:50 GMT-0500 (Central Daylight Time),614601.3999999911,CFD-WF-013-009-HC.jpg,1700,dash,I,m,843,1,2,43586.69999998808,571014.700000003,8056,ATS,C,16
13,test,4,C,haborder.png,0,m,Wed Sep 24 2025 14:00:50 GMT-0500 (Central Daylight Time),617138.700000003,CFD-WM-028-005-HC.jpg,1000,solid,I,None,1516,12,2,46124.0,571014.700000003,8056,ATS,C,17
14,test,4,C,haborder.png,1,m,Wed Sep 24 2025 14:00:50 GMT-0500 (Central Daylight Time),619699.299999997,CFD-BM-022-004-HC.jpg,1600,solid,I,m,941,10,2,48684.59999999404,571014.700000003,8056,ATS,C,18
14,test,4,C,mfborder.png,0,m,Wed Sep 24 2025 14:00:50 GMT-0500 (Central Daylight Time),621815.200000003,CFD-WM-036-018-A.jpg,1200,dash,I,z,893,6,2,50800.5,571014.700000003,8056,ATS,C,19
15,test,4,C,mfborder.png,1,z,Wed Sep 24 2025 14:00:50 GMT-0500 (Central Daylight Time),624647.799999997,CFD-BF-019-004-HC.jpg,1500,dash,I,z,1303,3,2,53633.09999999404,571014.700000003,8056,ATS,C,20
16,test,4,C,haborder.png,1,m,Wed Sep 24 2025 14:00:50 GMT-0500 (Central Daylight Time),627346.799999997,CFD-WM-028-005-HC.jpg,1500,solid,I,m,1174,11,2,56332.09999999404,571014.700000003,8056,ATS,C,21
16,test,4,C,haborder.png,0,z,Wed Sep 24 2025 14:00:50 GMT-0500 (Central Daylight Time),630579.299999997,CFD-WF-037-016-A.jpg,1700,solid,I,None,1516,9,2,59564.59999999404,571014.700000003,8056,ATS,C,22
17,test,4,C,haborder.png,1,m,Wed Sep 24 2025 14:00:50 GMT-0500 (Central Daylight Time),633361.799999997,CFD-BM-022-004-HC.jpg,1600,solid,I,m,1159,10,2,62347.09999999404,571014.700000003,8056,ATS,C,23
18,test,4,C,mfborder.png,1,m,Wed Sep 24 2025 14:00:50 GMT-0500 (Central Daylight Time),636860.799999997,CFD-BM-043-014-A.jpg,2000,dash,I,m,1481,5,2,65846.09999999404,571014.700000003,8056,ATS,C,24
