acc_sum,block,block_c,change,condition,correct,correct_response,datetime,endtime,face,project,response,response_time,row_sel,session_number,start_end,starttime,subject_id,task,task_vers,trial
0,prac,1,,1-Back,,,Tue Apr 21 2026 17:44:31 GMT-0500 (Central Daylight Time),,124_o_f_d_a.png,I,space,14689,1,3,,,8076,VNB,A,0
1,prac,1,0.0,1-Back,1.0,m,Tue Apr 21 2026 17:44:31 GMT-0500 (Central Daylight Time),146711.0,071_y_f_n_a.png,I,m,1141,2,3,1941.0,144770.0,8076,VNB,A,1
2,prac,1,0.0,1-Back,1.0,m,Tue Apr 21 2026 17:44:31 GMT-0500 (Central Daylight Time),148760.40000000596,165_m_m_h_a.png,I,m,1251,3,3,2043.0999999940395,146717.30000001192,8076,VNB,A,2
3,prac,1,0.0,1-Back,1.0,m,Tue Apr 21 2026 17:44:31 GMT-0500 (Central Daylight Time),150626.59999999404,109_y_m_d_a.png,I,m,1051,4,3,1858.699999988079,148767.90000000596,8076,VNB,A,3
4,prac,1,0.0,1-Back,1.0,m,Tue Apr 21 2026 17:44:31 GMT-0500 (Central Daylight Time),152625.90000000596,124_o_f_n_a.png,I,m,1161,5,3,1992.5999999940395,150633.30000001192,8076,VNB,A,4
5,prac,1,1.0,1-Back,1.0,z,Tue Apr 21 2026 17:44:31 GMT-0500 (Central Daylight Time),154408.80000001192,109_y_m_n_a.png,I,z,977,6,3,1775.6000000238419,152633.19999998808,8076,VNB,A,5
6,prac,1,0.0,1-Back,1.0,m,Tue Apr 21 2026 17:44:31 GMT-0500 (Central Daylight Time),155941.5,039_o_m_h_a.png,I,m,721,7,3,1525.199999988079,154416.30000001192,8076,VNB,A,6
7,prac,1,0.0,1-Back,1.0,m,Tue Apr 21 2026 17:44:31 GMT-0500 (Central Daylight Time),157657.5,139_m_f_d_a.png,I,m,900,8,3,1708.199999988079,155949.30000001192,8076,VNB,A,7
8,prac,1,1.0,1-Back,1.0,z,Tue Apr 21 2026 17:44:31 GMT-0500 (Central Daylight Time),159490.40000000596,071_y_f_d_a.png,I,z,1025,9,3,1825.9000000059605,157664.5,8076,VNB,A,8
9,prac,1,0.0,1-Back,1.0,m,Tue Apr 21 2026 17:44:31 GMT-0500 (Central Daylight Time),161039.80000001192,165_m_m_n_a.png,I,m,743,10,3,1542.300000011921,159497.5,8076,VNB,A,9
10,prac,1,0.0,1-Back,1.0,m,Tue Apr 21 2026 17:44:31 GMT-0500 (Central Daylight Time),162772.69999998808,124_o_f_h_a.png,I,m,914,11,3,1725.5999999940395,161047.09999999404,8076,VNB,A,10
11,prac,1,0.0,1-Back,1.0,m,Tue Apr 21 2026 17:44:31 GMT-0500 (Central Daylight Time),164555.40000000596,109_y_m_d_a.png,I,m,997,12,3,1774.800000011921,162780.59999999404,8076,VNB,A,11
0,test,1,0.0,1-Back,,,Tue Apr 21 2026 17:44:31 GMT-0500 (Central Daylight Time),164555.40000000596,071_y_f_d_a.png,I,space,10806,1,3,1774.800000011921,162780.59999999404,8076,VNB,A,0
1,test,1,0.0,1-Back,1.0,m,Tue Apr 21 2026 17:44:31 GMT-0500 (Central Daylight Time),184982.5,139_m_f_n_a.png,I,m,928,2,3,1944.0,183038.5,8076,VNB,A,1
2,test,1,0.0,1-Back,1.0,m,Tue Apr 21 2026 17:44:31 GMT-0500 (Central Daylight Time),186732.59999999404,039_o_m_h_a.png,I,m,731,3,3,1745.199999988079,184987.40000000596,8076,VNB,A,2
3,test,1,1.0,1-Back,1.0,z,Tue Apr 21 2026 17:44:31 GMT-0500 (Central Daylight Time),188664.5,165_m_m_h_a.png,I,z,910,4,3,1928.0,186736.5,8076,VNB,A,3
4,test,1,0.0,1-Back,1.0,m,Tue Apr 21 2026 17:44:31 GMT-0500 (Central Daylight Time),190314.30000001192,124_o_f_n_a.png,I,m,626,5,3,1644.800000011921,188669.5,8076,VNB,A,4
5,test,1,0.0,1-Back,1.0,m,Tue Apr 21 2026 17:44:31 GMT-0500 (Central Daylight Time),192280.0,109_y_m_d_a.png,I,m,944,6,3,1962.0999999940395,190317.90000000596,8076,VNB,A,5
6,test,1,1.0,1-Back,1.0,z,Tue Apr 21 2026 17:44:31 GMT-0500 (Central Daylight Time),194279.40000000596,139_m_f_d_a.png,I,z,977,7,3,1995.2000000178814,192284.19999998808,8076,VNB,A,6
7,test,1,0.0,1-Back,1.0,m,Tue Apr 21 2026 17:44:31 GMT-0500 (Central Daylight Time),196130.0,071_y_f_h_a.png,I,m,818,8,3,1846.4000000059605,194283.59999999404,8076,VNB,A,7
8,test,1,0.0,1-Back,1.0,m,Tue Apr 21 2026 17:44:31 GMT-0500 (Central Daylight Time),197928.19999998808,039_o_m_n_a.png,I,m,769,9,3,1794.5,196133.69999998808,8076,VNB,A,8
9,test,1,0.0,1-Back,1.0,m,Tue Apr 21 2026 17:44:31 GMT-0500 (Central Daylight Time),199994.40000000596,109_y_m_h_a.png,I,m,1049,10,3,2061.7000000178814,197932.69999998808,8076,VNB,A,9
10,test,1,0.0,1-Back,1.0,m,Tue Apr 21 2026 17:44:31 GMT-0500 (Central Daylight Time),201743.80000001192,039_o_m_d_a.png,I,m,719,11,3,1745.300000011921,199998.5,8076,VNB,A,10
11,test,1,1.0,1-Back,1.0,z,Tue Apr 21 2026 17:44:31 GMT-0500 (Central Daylight Time),203626.69999998808,124_o_f_d_a.png,I,z,867,12,3,1878.0999999940395,201748.59999999404,8076,VNB,A,11
12,test,1,0.0,1-Back,1.0,m,Tue Apr 21 2026 17:44:31 GMT-0500 (Central Daylight Time),205542.5,165_m_m_n_a.png,I,m,895,13,3,1911.300000011921,203631.19999998808,8076,VNB,A,12
13,test,1,1.0,1-Back,1.0,z,Tue Apr 21 2026 17:44:31 GMT-0500 (Central Daylight Time),207492.0,071_y_f_n_a.png,I,z,921,14,3,1944.9000000059605,205547.09999999404,8076,VNB,A,13
14,test,1,0.0,1-Back,1.0,m,Tue Apr 21 2026 17:44:31 GMT-0500 (Central Daylight Time),209074.69999998808,139_m_f_h_a.png,I,m,556,15,3,1578.3999999761581,207496.30000001192,8076,VNB,A,14
15,test,1,0.0,1-Back,1.0,m,Tue Apr 21 2026 17:44:31 GMT-0500 (Central Daylight Time),210841.09999999404,165_m_m_d_a.png,I,m,742,16,3,1762.199999988079,209078.90000000596,8076,VNB,A,15
16,test,1,0.0,1-Back,1.0,m,Tue Apr 21 2026 17:44:31 GMT-0500 (Central Daylight Time),213056.80000001192,109_y_m_n_a.png,I,m,1185,17,3,2210.600000023842,210846.19999998808,8076,VNB,A,16
17,test,1,0.0,1-Back,1.0,m,Tue Apr 21 2026 17:44:31 GMT-0500 (Central Daylight Time),214689.59999999404,124_o_f_h_a.png,I,m,600,18,3,1628.7999999821186,213060.80000001192,8076,VNB,A,17
0,test,2,0.0,1-Back,,,Tue Apr 21 2026 17:44:31 GMT-0500 (Central Daylight Time),214689.59999999404,109_y_m_n_a.png,I,space,2216,1,3,1628.7999999821186,213060.80000001192,8076,VNB,A,0
1,test,2,0.0,1-Back,1.0,m,Tue Apr 21 2026 17:44:31 GMT-0500 (Central Daylight Time),220737.80000001192,071_y_f_h_a.png,I,m,767,2,3,1795.6000000238419,218942.19999998808,8076,VNB,A,1
2,test,2,1.0,1-Back,1.0,m,Tue Apr 21 2026 17:44:31 GMT-0500 (Central Daylight Time),222270.59999999404,039_o_m_n_a.png,I,m,504,3,3,1528.199999988079,220742.40000000596,8076,VNB,A,2
2,test,2,0.0,1-Back,0.0,m,Tue Apr 21 2026 17:44:31 GMT-0500 (Central Daylight Time),224019.69999998808,139_m_f_d_a.png,I,z,731,4,3,1744.8999999761581,222274.80000001192,8076,VNB,A,3
3,test,2,0.0,1-Back,1.0,z,Tue Apr 21 2026 17:44:31 GMT-0500 (Central Daylight Time),225986.30000001192,165_m_m_d_a.png,I,z,932,5,3,1962.1000000238419,224024.19999998808,8076,VNB,A,4
4,test,2,0.0,1-Back,1.0,m,Tue Apr 21 2026 17:44:31 GMT-0500 (Central Daylight Time),227868.90000000596,109_y_m_h_a.png,I,m,863,6,3,1878.5,225990.40000000596,8076,VNB,A,5
5,test,2,1.0,1-Back,1.0,z,Tue Apr 21 2026 17:44:31 GMT-0500 (Central Daylight Time),229801.69999998808,124_o_f_h_a.png,I,z,909,7,3,1929.199999988079,227872.5,8076,VNB,A,6
6,test,2,0.0,1-Back,1.0,m,Tue Apr 21 2026 17:44:31 GMT-0500 (Central Daylight Time),231501.0,139_m_f_n_a.png,I,m,679,8,3,1694.699999988079,229806.30000001192,8076,VNB,A,7
7,test,2,0.0,1-Back,1.0,m,Tue Apr 21 2026 17:44:31 GMT-0500 (Central Daylight Time),233333.90000000596,071_y_f_d_a.png,I,m,804,9,3,1828.4000000059605,231505.5,8076,VNB,A,8
8,test,2,0.0,1-Back,1.0,m,Tue Apr 21 2026 17:44:31 GMT-0500 (Central Daylight Time),235083.0,165_m_m_n_a.png,I,m,732,10,3,1745.0,233338.0,8076,VNB,A,9
9,test,2,1.0,1-Back,1.0,m,Tue Apr 21 2026 17:44:31 GMT-0500 (Central Daylight Time),236749.5,139_m_f_h_a.png,I,m,638,11,3,1662.199999988079,235087.30000001192,8076,VNB,A,10
10,test,2,0.0,1-Back,1.0,z,Tue Apr 21 2026 17:44:31 GMT-0500 (Central Daylight Time),238598.80000001192,039_o_m_h_a.png,I,z,827,12,3,1845.4000000059605,236753.40000000596,8076,VNB,A,11
11,test,2,0.0,1-Back,1.0,m,Tue Apr 21 2026 17:44:31 GMT-0500 (Central Daylight Time),240131.69999998808,109_y_m_d_a.png,I,m,506,13,3,1529.0999999940395,238602.59999999404,8076,VNB,A,12
12,test,2,0.0,1-Back,1.0,m,Tue Apr 21 2026 17:44:31 GMT-0500 (Central Daylight Time),242364.5,124_o_f_n_a.png,I,m,1207,14,3,2227.800000011921,240136.69999998808,8076,VNB,A,13
13,test,2,0.0,1-Back,1.0,z,Tue Apr 21 2026 17:44:31 GMT-0500 (Central Daylight Time),244180.5,071_y_f_n_a.png,I,z,797,15,3,1811.5,242369.0,8076,VNB,A,14
14,test,2,1.0,1-Back,1.0,m,Tue Apr 21 2026 17:44:31 GMT-0500 (Central Daylight Time),246130.0,165_m_m_h_a.png,I,m,926,16,3,1944.199999988079,244185.80000001192,8076,VNB,A,15
15,test,2,0.0,1-Back,1.0,m,Tue Apr 21 2026 17:44:31 GMT-0500 (Central Daylight Time),247879.40000000596,124_o_f_d_a.png,I,m,720,17,3,1745.5999999940395,246133.80000001192,8076,VNB,A,16
16,test,2,1.0,1-Back,1.0,z,Tue Apr 21 2026 17:44:31 GMT-0500 (Central Daylight Time),249695.5,039_o_m_d_a.png,I,z,786,18,3,1812.5999999940395,247882.90000000596,8076,VNB,A,17
0,test,3,1.0,1-Back,,,Tue Apr 21 2026 17:44:31 GMT-0500 (Central Daylight Time),249695.5,124_o_f_h_a.png,I,space,1722,1,3,1812.5999999940395,247882.90000000596,8076,VNB,A,0
1,test,3,0.0,1-Back,1.0,m,Tue Apr 21 2026 17:44:31 GMT-0500 (Central Daylight Time),255343.5,139_m_f_d_a.png,I,m,844,2,3,1861.199999988079,253482.30000001192,8076,VNB,A,1
2,test,3,1.0,1-Back,1.0,m,Tue Apr 21 2026 17:44:31 GMT-0500 (Central Daylight Time),257293.30000001192,165_m_m_n_a.png,I,m,922,3,3,1945.5,255347.80000001192,8076,VNB,A,2
3,test,3,0.0,1-Back,1.0,z,Tue Apr 21 2026 17:44:31 GMT-0500 (Central Daylight Time),259075.90000000596,124_o_f_n_a.png,I,z,757,4,3,1778.2000000178814,257297.69999998808,8076,VNB,A,3
4,test,3,1.0,1-Back,1.0,m,Tue Apr 21 2026 17:44:31 GMT-0500 (Central Daylight Time),260708.59999999404,039_o_m_d_a.png,I,m,606,5,3,1627.9000000059605,259080.69999998808,8076,VNB,A,4
5,test,3,0.0,1-Back,1.0,m,Tue Apr 21 2026 17:44:31 GMT-0500 (Central Daylight Time),262424.6999999881,071_y_f_h_a.png,I,m,693,6,3,1711.5999999940395,260713.09999999404,8076,VNB,A,5
6,test,3,0.0,1-Back,1.0,z,Tue Apr 21 2026 17:44:31 GMT-0500 (Central Daylight Time),264091.09999999404,109_y_m_h_a.png,I,z,640,7,3,1662.2999999821186,262428.8000000119,8076,VNB,A,6
7,test,3,0.0,1-Back,1.0,m,Tue Apr 21 2026 17:44:31 GMT-0500 (Central Daylight Time),265606.90000000596,139_m_f_n_a.png,I,m,495,8,3,1511.300000011921,264095.59999999404,8076,VNB,A,7
8,test,3,0.0,1-Back,1.0,m,Tue Apr 21 2026 17:44:31 GMT-0500 (Central Daylight Time),267273.3000000119,071_y_f_d_a.png,I,m,642,9,3,1662.2000000178814,265611.09999999404,8076,VNB,A,8
9,test,3,1.0,1-Back,1.0,m,Tue Apr 21 2026 17:44:31 GMT-0500 (Central Daylight Time),268839.3000000119,039_o_m_n_a.png,I,m,544,10,3,1561.800000011921,267277.5,8076,VNB,A,9
10,test,3,0.0,1-Back,1.0,m,Tue Apr 21 2026 17:44:31 GMT-0500 (Central Daylight Time),271272.09999999404,165_m_m_h_a.png,I,m,1411,11,3,2428.0,268844.09999999404,8076,VNB,A,10
11,test,3,0.0,1-Back,1.0,z,Tue Apr 21 2026 17:44:31 GMT-0500 (Central Daylight Time),273171.3000000119,139_m_f_h_a.png,I,z,866,12,3,1895.300000011921,271276.0,8076,VNB,A,11
12,test,3,1.0,1-Back,1.0,m,Tue Apr 21 2026 17:44:31 GMT-0500 (Central Daylight Time),274871.90000000596,124_o_f_d_a.png,I,m,670,13,3,1696.0,273175.90000000596,8076,VNB,A,12
13,test,3,0.0,1-Back,1.0,z,Tue Apr 21 2026 17:44:31 GMT-0500 (Central Daylight Time),276770.1999999881,165_m_m_d_a.png,I,z,867,14,3,1894.3999999761581,274875.8000000119,8076,VNB,A,13
14,test,3,0.0,1-Back,1.0,m,Tue Apr 21 2026 17:44:31 GMT-0500 (Central Daylight Time),278336.59999999404,109_y_m_n_a.png,I,m,544,15,3,1562.0,276774.59999999404,8076,VNB,A,14
15,test,3,1.0,1-Back,1.0,m,Tue Apr 21 2026 17:44:31 GMT-0500 (Central Daylight Time),280235.59999999404,039_o_m_h_a.png,I,m,874,16,3,1895.0,278340.59999999404,8076,VNB,A,15
16,test,3,0.0,1-Back,1.0,m,Tue Apr 21 2026 17:44:31 GMT-0500 (Central Daylight Time),282085.1999999881,109_y_m_d_a.png,I,m,822,17,3,1845.0999999940395,280240.09999999404,8076,VNB,A,16
17,test,3,1.0,1-Back,1.0,m,Tue Apr 21 2026 17:44:31 GMT-0500 (Central Daylight Time),284234.6999999881,071_y_f_n_a.png,I,m,1124,18,3,2145.0,282089.6999999881,8076,VNB,A,17
0,test,4,1.0,1-Back,,,Tue Apr 21 2026 17:44:31 GMT-0500 (Central Daylight Time),284234.6999999881,165_m_m_d_a.png,I,space,1072,1,3,2145.0,282089.6999999881,8076,VNB,A,0
1,test,4,0.0,1-Back,1.0,z,Tue Apr 21 2026 17:44:31 GMT-0500 (Central Daylight Time),289299.40000000596,039_o_m_d_a.png,I,z,948,2,3,1961.800000011921,287337.59999999404,8076,VNB,A,1
2,test,4,0.0,1-Back,1.0,m,Tue Apr 21 2026 17:44:31 GMT-0500 (Central Daylight Time),291182.40000000596,109_y_m_h_a.png,I,m,855,3,3,1878.5,289303.90000000596,8076,VNB,A,2
3,test,4,0.0,1-Back,1.0,m,Tue Apr 21 2026 17:44:31 GMT-0500 (Central Daylight Time),293016.40000000596,139_m_f_n_a.png,I,m,803,4,3,1829.9000000059605,291186.5,8076,VNB,A,3
4,test,4,1.0,1-Back,1.0,m,Tue Apr 21 2026 17:44:31 GMT-0500 (Central Daylight Time),294848.09999999404,124_o_f_h_a.png,I,m,811,5,3,1827.5999999940395,293020.5,8076,VNB,A,4
5,test,4,0.0,1-Back,1.0,m,Tue Apr 21 2026 17:44:31 GMT-0500 (Central Daylight Time),296564.1999999881,165_m_m_n_a.png,I,m,689,6,3,1711.5999999940395,294852.59999999404,8076,VNB,A,5
6,test,4,0.0,1-Back,1.0,m,Tue Apr 21 2026 17:44:31 GMT-0500 (Central Daylight Time),298446.8000000119,109_y_m_d_a.png,I,m,854,7,3,1876.5,296570.3000000119,8076,VNB,A,6
7,test,4,1.0,1-Back,1.0,z,Tue Apr 21 2026 17:44:31 GMT-0500 (Central Daylight Time),300162.8000000119,071_y_f_d_a.png,I,z,700,8,3,1712.1000000238419,298450.6999999881,8076,VNB,A,7
8,test,4,0.0,1-Back,1.0,m,Tue Apr 21 2026 17:44:31 GMT-0500 (Central Daylight Time),301862.5,139_m_f_h_a.png,I,m,671,9,3,1695.0,300167.5,8076,VNB,A,8
9,test,4,0.0,1-Back,1.0,z,Tue Apr 21 2026 17:44:31 GMT-0500 (Central Daylight Time),303511.90000000596,039_o_m_h_a.png,I,z,619,10,3,1643.800000011921,301868.09999999404,8076,VNB,A,9
10,test,4,1.0,1-Back,1.0,m,Tue Apr 21 2026 17:44:31 GMT-0500 (Central Daylight Time),305228.0,124_o_f_n_a.png,I,m,689,11,3,1711.300000011921,303516.6999999881,8076,VNB,A,10
11,test,4,0.0,1-Back,1.0,m,Tue Apr 21 2026 17:44:31 GMT-0500 (Central Daylight Time),306894.1999999881,139_m_f_d_a.png,I,m,637,12,3,1662.0999999940395,305232.09999999404,8076,VNB,A,11
12,test,4,0.0,1-Back,1.0,m,Tue Apr 21 2026 17:44:31 GMT-0500 (Central Daylight Time),308710.09999999404,071_y_f_n_a.png,I,m,787,13,3,1811.5,306898.59999999404,8076,VNB,A,12
13,test,4,0.0,1-Back,1.0,m,Tue Apr 21 2026 17:44:31 GMT-0500 (Central Daylight Time),310326.40000000596,124_o_f_d_a.png,I,m,594,14,3,1612.0999999940395,308714.3000000119,8076,VNB,A,13
14,test,4,0.0,1-Back,1.0,m,Tue Apr 21 2026 17:44:31 GMT-0500 (Central Daylight Time),311926.0,071_y_f_h_a.png,I,m,579,15,3,1595.699999988079,310330.3000000119,8076,VNB,A,14
15,test,4,1.0,1-Back,1.0,z,Tue Apr 21 2026 17:44:31 GMT-0500 (Central Daylight Time),313642.09999999404,165_m_m_h_a.png,I,z,683,16,3,1711.9000000059605,311930.1999999881,8076,VNB,A,15
16,test,4,0.0,1-Back,1.0,m,Tue Apr 21 2026 17:44:31 GMT-0500 (Central Daylight Time),315208.09999999404,039_o_m_n_a.png,I,m,544,17,3,1562.0,313646.09999999404,8076,VNB,A,16
16,test,4,1.0,1-Back,0.0,z,Tue Apr 21 2026 17:44:31 GMT-0500 (Central Daylight Time),317057.8000000119,109_y_m_n_a.png,I,m,817,18,3,1845.7000000178814,315212.09999999404,8076,VNB,A,17
0,test,5,1.0,1-Back,,,Tue Apr 21 2026 17:44:31 GMT-0500 (Central Daylight Time),317057.8000000119,039_o_m_n_a.png,I,space,1104,1,3,1845.7000000178814,315212.09999999404,8076,VNB,A,0
1,test,5,1.0,1-Back,1.0,m,Tue Apr 21 2026 17:44:31 GMT-0500 (Central Daylight Time),321989.3000000119,124_o_f_h_a.png,I,m,780,2,3,1795.1000000238419,320194.1999999881,8076,VNB,A,1
2,test,5,0.0,1-Back,1.0,m,Tue Apr 21 2026 17:44:31 GMT-0500 (Central Daylight Time),323955.1999999881,109_y_m_d_a.png,I,m,948,3,3,1962.199999988079,321993.0,8076,VNB,A,2
3,test,5,0.0,1-Back,1.0,z,Tue Apr 21 2026 17:44:31 GMT-0500 (Central Daylight Time),325771.3000000119,039_o_m_d_a.png,I,z,799,4,3,1812.7000000178814,323958.59999999404,8076,VNB,A,3
4,test,5,0.0,1-Back,1.0,m,Tue Apr 21 2026 17:44:31 GMT-0500 (Central Daylight Time),327254.5,139_m_f_h_a.png,I,m,463,5,3,1478.0,325776.5,8076,VNB,A,4
5,test,5,0.0,1-Back,1.0,m,Tue Apr 21 2026 17:44:31 GMT-0500 (Central Daylight Time),328787.0,071_y_f_n_a.png,I,m,507,6,3,1528.9000000059605,327258.09999999404,8076,VNB,A,5
6,test,5,1.0,1-Back,1.0,z,Tue Apr 21 2026 17:44:31 GMT-0500 (Central Daylight Time),330636.8000000119,124_o_f_n_a.png,I,z,823,7,3,1845.7000000178814,328791.09999999404,8076,VNB,A,6
7,test,5,0.0,1-Back,1.0,m,Tue Apr 21 2026 17:44:31 GMT-0500 (Central Daylight Time),332286.3000000119,139_m_f_d_a.png,I,m,629,8,3,1645.0,330641.3000000119,8076,VNB,A,7
8,test,5,0.0,1-Back,1.0,m,Tue Apr 21 2026 17:44:31 GMT-0500 (Central Daylight Time),334002.40000000596,109_y_m_h_a.png,I,m,699,9,3,1712.5999999940395,332289.8000000119,8076,VNB,A,8
9,test,5,0.0,1-Back,1.0,m,Tue Apr 21 2026 17:44:31 GMT-0500 (Central Daylight Time),335618.3000000119,071_y_f_d_a.png,I,m,583,10,3,1611.7000000178814,334006.59999999404,8076,VNB,A,9
10,test,5,0.0,1-Back,1.0,m,Tue Apr 21 2026 17:44:31 GMT-0500 (Central Daylight Time),337301.1999999881,165_m_m_n_a.png,I,m,663,11,3,1678.8999999761581,335622.3000000119,8076,VNB,A,10
11,test,5,1.0,1-Back,1.0,z,Tue Apr 21 2026 17:44:31 GMT-0500 (Central Daylight Time),338967.40000000596,139_m_f_n_a.png,I,z,636,12,3,1662.2000000178814,337305.1999999881,8076,VNB,A,11
12,test,5,0.0,1-Back,1.0,m,Tue Apr 21 2026 17:44:31 GMT-0500 (Central Daylight Time),340500.0,039_o_m_h_a.png,I,m,514,13,3,1529.0,338971.0,8076,VNB,A,12
13,test,5,0.0,1-Back,1.0,z,Tue Apr 21 2026 17:44:31 GMT-0500 (Central Daylight Time),342249.6999999881,165_m_m_h_a.png,I,z,725,14,3,1745.3999999761581,340504.3000000119,8076,VNB,A,13
14,test,5,1.0,1-Back,1.0,m,Tue Apr 21 2026 17:44:31 GMT-0500 (Central Daylight Time),343782.3000000119,124_o_f_d_a.png,I,m,512,15,3,1529.1000000238419,342253.1999999881,8076,VNB,A,14
15,test,5,0.0,1-Back,1.0,m,Tue Apr 21 2026 17:44:31 GMT-0500 (Central Daylight Time),346065.3000000119,109_y_m_n_a.png,I,m,1259,16,3,2278.800000011921,343786.5,8076,VNB,A,15
16,test,5,0.0,1-Back,1.0,m,Tue Apr 21 2026 17:44:31 GMT-0500 (Central Daylight Time),347797.90000000596,071_y_f_h_a.png,I,m,705,17,3,1728.5999999940395,346069.3000000119,8076,VNB,A,16
17,test,5,0.0,1-Back,1.0,m,Tue Apr 21 2026 17:44:31 GMT-0500 (Central Daylight Time),349564.0,165_m_m_d_a.png,I,m,747,18,3,1762.0999999940395,347801.90000000596,8076,VNB,A,17
0,prac,1,0.0,2-Back,,,Tue Apr 21 2026 17:44:31 GMT-0500 (Central Daylight Time),349564.0,139_m_f_n_a.png,I,space,14589,1,3,1762.0999999940395,347801.90000000596,8076,VNB,A,0
0,prac,1,0.0,2-Back,,,Tue Apr 21 2026 17:44:31 GMT-0500 (Central Daylight Time),349564.0,124_o_f_h_a.png,I,space,14589,2,3,1762.0999999940395,347801.90000000596,8076,VNB,A,0
1,prac,1,0.0,2-Back,1.0,m,Tue Apr 21 2026 17:44:31 GMT-0500 (Central Daylight Time),462328.90000000596,039_o_m_d_a.png,I,m,1193,3,3,1991.9000000059605,460337.0,8076,VNB,A,1
2,prac,1,1.0,2-Back,1.0,z,Tue Apr 21 2026 17:44:31 GMT-0500 (Central Daylight Time),464195.0,165_m_m_h_a.png,I,z,1055,4,3,1859.5999999940395,462335.40000000596,8076,VNB,A,2
3,prac,1,0.0,2-Back,1.0,m,Tue Apr 21 2026 17:44:31 GMT-0500 (Central Daylight Time),465961.0,071_y_f_n_a.png,I,m,962,5,3,1757.800000011921,464203.1999999881,8076,VNB,A,3
4,prac,1,1.0,2-Back,1.0,z,Tue Apr 21 2026 17:44:31 GMT-0500 (Central Daylight Time),467610.59999999404,039_o_m_h_a.png,I,z,841,6,3,1642.4000000059605,465968.1999999881,8076,VNB,A,4
5,prac,1,1.0,2-Back,1.0,z,Tue Apr 21 2026 17:44:31 GMT-0500 (Central Daylight Time),469193.40000000596,109_y_m_n_a.png,I,z,776,7,3,1575.4000000059605,467618.0,8076,VNB,A,5
6,prac,1,0.0,2-Back,1.0,m,Tue Apr 21 2026 17:44:31 GMT-0500 (Central Daylight Time),470810.09999999404,139_m_f_d_a.png,I,m,814,8,3,1609.0999999940395,469201.0,8076,VNB,A,6
7,prac,1,0.0,2-Back,1.0,m,Tue Apr 21 2026 17:44:31 GMT-0500 (Central Daylight Time),472542.1999999881,124_o_f_d_a.png,I,m,898,9,3,1725.5999999940395,470816.59999999404,8076,VNB,A,7
8,prac,1,0.0,2-Back,1.0,m,Tue Apr 21 2026 17:44:31 GMT-0500 (Central Daylight Time),474258.5,165_m_m_h_a.png,I,m,940,10,3,1708.9000000059605,472549.59999999404,8076,VNB,A,8
9,prac,1,1.0,2-Back,1.0,z,Tue Apr 21 2026 17:44:31 GMT-0500 (Central Daylight Time),475907.90000000596,071_y_f_d_a.png,I,z,830,11,3,1642.5,474265.40000000596,8076,VNB,A,9
10,prac,1,0.0,2-Back,1.0,m,Tue Apr 21 2026 17:44:31 GMT-0500 (Central Daylight Time),477640.6999999881,039_o_m_n_a.png,I,m,918,12,3,1726.2999999821186,475914.40000000596,8076,VNB,A,10
0,test,1,0.0,2-Back,,,Tue Apr 21 2026 17:44:31 GMT-0500 (Central Daylight Time),477640.6999999881,109_y_m_h_a.png,I,space,35889,1,3,1726.2999999821186,475914.40000000596,8076,VNB,A,0
0,test,1,0.0,2-Back,,,Tue Apr 21 2026 17:44:31 GMT-0500 (Central Daylight Time),477640.6999999881,124_o_f_n_a.png,I,space,35889,2,3,1726.2999999821186,475914.40000000596,8076,VNB,A,0
1,test,1,0.0,2-Back,1.0,z,Tue Apr 21 2026 17:44:31 GMT-0500 (Central Daylight Time),528357.900000006,039_o_m_h_a.png,I,z,596,3,3,1611.0,526746.900000006,8076,VNB,A,1
2,test,1,0.0,2-Back,1.0,m,Tue Apr 21 2026 17:44:31 GMT-0500 (Central Daylight Time),530174.099999994,139_m_f_d_a.png,I,m,788,4,3,1811.5999999940395,528362.5,8076,VNB,A,2
2,test,1,1.0,2-Back,0.0,m,Tue Apr 21 2026 17:44:31 GMT-0500 (Central Daylight Time),532073.599999994,109_y_m_n_a.png,I,z,875,5,3,1895.199999988079,530178.400000006,8076,VNB,A,3
2,test,1,0.0,2-Back,0.0,z,Tue Apr 21 2026 17:44:31 GMT-0500 (Central Daylight Time),533989.8000000119,071_y_f_d_a.png,I,m,896,6,3,1912.2000000178814,532077.599999994,8076,VNB,A,4
2,test,1,0.0,2-Back,0.0,m,Tue Apr 21 2026 17:44:31 GMT-0500 (Central Daylight Time),536105.599999994,165_m_m_h_a.png,I,z,1092,7,3,2111.7999999821186,533993.8000000119,8076,VNB,A,5
3,test,1,1.0,2-Back,1.0,m,Tue Apr 21 2026 17:44:31 GMT-0500 (Central Daylight Time),538088.3000000119,071_y_f_n_a.png,I,m,952,8,3,1978.4000000059605,536109.900000006,8076,VNB,A,6
4,test,1,0.0,2-Back,1.0,z,Tue Apr 21 2026 17:44:31 GMT-0500 (Central Daylight Time),539754.8000000119,124_o_f_h_a.png,I,z,641,9,3,1662.4000000059605,538092.400000006,8076,VNB,A,7
5,test,1,0.0,2-Back,1.0,m,Tue Apr 21 2026 17:44:31 GMT-0500 (Central Daylight Time),541687.400000006,039_o_m_d_a.png,I,m,903,10,3,1928.7000000178814,539758.6999999881,8076,VNB,A,8
6,test,1,1.0,2-Back,1.0,m,Tue Apr 21 2026 17:44:31 GMT-0500 (Central Daylight Time),543519.900000006,165_m_m_d_a.png,I,m,810,11,3,1829.0,541690.900000006,8076,VNB,A,9
7,test,1,0.0,2-Back,1.0,m,Tue Apr 21 2026 17:44:31 GMT-0500 (Central Daylight Time),545552.599999994,139_m_f_n_a.png,I,m,1001,12,3,2028.5,543524.099999994,8076,VNB,A,10
8,test,1,0.0,2-Back,1.0,m,Tue Apr 21 2026 17:44:31 GMT-0500 (Central Daylight Time),547319.0,071_y_f_h_a.png,I,m,746,13,3,1763.0999999940395,545555.900000006,8076,VNB,A,11
9,test,1,0.0,2-Back,1.0,z,Tue Apr 21 2026 17:44:31 GMT-0500 (Central Daylight Time),548951.5,165_m_m_n_a.png,I,z,603,14,3,1628.300000011921,547323.1999999881,8076,VNB,A,12
10,test,1,0.0,2-Back,1.0,m,Tue Apr 21 2026 17:44:31 GMT-0500 (Central Daylight Time),551000.900000006,109_y_m_d_a.png,I,m,1018,15,3,2045.5999999940395,548955.3000000119,8076,VNB,A,13
10,test,1,1.0,2-Back,0.0,m,Tue Apr 21 2026 17:44:31 GMT-0500 (Central Daylight Time),553684.099999994,139_m_f_h_a.png,I,z,1665,16,3,2679.5999999940395,551004.5,8076,VNB,A,14
10,test,1,0.0,2-Back,0.0,z,Tue Apr 21 2026 17:44:31 GMT-0500 (Central Daylight Time),555566.099999994,124_o_f_d_a.png,I,m,862,17,3,1877.7999999821186,553688.3000000119,8076,VNB,A,15
11,test,1,0.0,2-Back,1.0,m,Tue Apr 21 2026 17:44:31 GMT-0500 (Central Daylight Time),557332.3000000119,039_o_m_n_a.png,I,m,747,18,3,1762.1000000238419,555570.1999999881,8076,VNB,A,16
0,test,2,0.0,2-Back,,,Tue Apr 21 2026 17:44:31 GMT-0500 (Central Daylight Time),557332.3000000119,165_m_m_h_a.png,I,space,1341,1,3,1762.1000000238419,555570.1999999881,8076,VNB,A,0
0,test,2,0.0,2-Back,,,Tue Apr 21 2026 17:44:31 GMT-0500 (Central Daylight Time),557332.3000000119,071_y_f_n_a.png,I,space,1341,2,3,1762.1000000238419,555570.1999999881,8076,VNB,A,0
1,test,2,1.0,2-Back,1.0,z,Tue Apr 21 2026 17:44:31 GMT-0500 (Central Daylight Time),565613.0,124_o_f_h_a.png,I,z,831,3,3,1846.0,563767.0,8076,VNB,A,1
2,test,2,0.0,2-Back,1.0,m,Tue Apr 21 2026 17:44:31 GMT-0500 (Central Daylight Time),567413.599999994,039_o_m_d_a.png,I,m,780,4,3,1796.4000000059605,565617.1999999881,8076,VNB,A,2
3,test,2,0.0,2-Back,1.0,m,Tue Apr 21 2026 17:44:31 GMT-0500 (Central Daylight Time),569628.1999999881,139_m_f_d_a.png,I,m,1197,5,3,2209.7999999821186,567418.400000006,8076,VNB,A,3
4,test,2,0.0,2-Back,1.0,m,Tue Apr 21 2026 17:44:31 GMT-0500 (Central Daylight Time),571477.900000006,109_y_m_h_a.png,I,m,821,6,3,1845.7000000178814,569632.1999999881,8076,VNB,A,4
5,test,2,0.0,2-Back,1.0,m,Tue Apr 21 2026 17:44:31 GMT-0500 (Central Daylight Time),573294.0,124_o_f_n_a.png,I,m,796,7,3,1811.9000000059605,571482.099999994,8076,VNB,A,5
6,test,2,1.0,2-Back,1.0,z,Tue Apr 21 2026 17:44:31 GMT-0500 (Central Daylight Time),574811.3000000119,039_o_m_h_a.png,I,z,483,8,3,1513.1000000238419,573298.1999999881,8076,VNB,A,6
7,test,2,0.0,2-Back,1.0,m,Tue Apr 21 2026 17:44:31 GMT-0500 (Central Daylight Time),577059.6999999881,071_y_f_d_a.png,I,m,1224,9,3,2244.5,574815.1999999881,8076,VNB,A,7
8,test,2,0.0,2-Back,1.0,m,Tue Apr 21 2026 17:44:31 GMT-0500 (Central Daylight Time),579158.8000000119,109_y_m_d_a.png,I,m,1078,10,3,2095.0,577063.8000000119,8076,VNB,A,8
9,test,2,0.0,2-Back,1.0,m,Tue Apr 21 2026 17:44:31 GMT-0500 (Central Daylight Time),581258.3000000119,165_m_m_n_a.png,I,m,1076,11,3,2095.9000000059605,579162.400000006,8076,VNB,A,9
10,test,2,0.0,2-Back,1.0,m,Tue Apr 21 2026 17:44:31 GMT-0500 (Central Daylight Time),583057.599999994,139_m_f_h_a.png,I,m,775,12,3,1795.199999988079,581262.400000006,8076,VNB,A,10
11,test,2,1.0,2-Back,1.0,z,Tue Apr 21 2026 17:44:31 GMT-0500 (Central Daylight Time),585024.1999999881,039_o_m_n_a.png,I,z,945,13,3,1962.5999999940395,583061.599999994,8076,VNB,A,11
12,test,2,0.0,2-Back,1.0,m,Tue Apr 21 2026 17:44:31 GMT-0500 (Central Daylight Time),587123.3000000119,124_o_f_d_a.png,I,m,1075,14,3,2095.0,585028.3000000119,8076,VNB,A,12
13,test,2,0.0,2-Back,1.0,m,Tue Apr 21 2026 17:44:31 GMT-0500 (Central Daylight Time),589189.099999994,071_y_f_h_a.png,I,m,1047,15,3,2061.7999999821186,587127.3000000119,8076,VNB,A,13
14,test,2,0.0,2-Back,1.0,z,Tue Apr 21 2026 17:44:31 GMT-0500 (Central Daylight Time),590738.400000006,165_m_m_d_a.png,I,z,524,16,3,1545.7000000178814,589192.6999999881,8076,VNB,A,14
15,test,2,0.0,2-Back,1.0,m,Tue Apr 21 2026 17:44:31 GMT-0500 (Central Daylight Time),592554.599999994,109_y_m_n_a.png,I,m,784,17,3,1812.5999999940395,590742.0,8076,VNB,A,15
16,test,2,1.0,2-Back,1.0,m,Tue Apr 21 2026 17:44:31 GMT-0500 (Central Daylight Time),594487.5,139_m_f_n_a.png,I,m,902,18,3,1928.4000000059605,592559.099999994,8076,VNB,A,16
0,test,3,1.0,2-Back,,,Tue Apr 21 2026 17:44:31 GMT-0500 (Central Daylight Time),594487.5,039_o_m_n_a.png,I,space,1634,1,3,1928.4000000059605,592559.099999994,8076,VNB,A,0
0,test,3,1.0,2-Back,,,Tue Apr 21 2026 17:44:31 GMT-0500 (Central Daylight Time),594487.5,124_o_f_d_a.png,I,space,1634,2,3,1928.4000000059605,592559.099999994,8076,VNB,A,0
1,test,3,0.0,2-Back,1.0,m,Tue Apr 21 2026 17:44:31 GMT-0500 (Central Daylight Time),603135.8000000119,071_y_f_h_a.png,I,m,928,3,3,1946.0,601189.8000000119,8076,VNB,A,1
2,test,3,0.0,2-Back,1.0,z,Tue Apr 21 2026 17:44:31 GMT-0500 (Central Daylight Time),605317.400000006,139_m_f_d_a.png,I,z,1154,4,3,2177.4000000059605,603140.0,8076,VNB,A,2
3,test,3,1.0,2-Back,1.0,m,Tue Apr 21 2026 17:44:31 GMT-0500 (Central Daylight Time),607399.900000006,109_y_m_n_a.png,I,m,1061,5,3,2078.5,605321.400000006,8076,VNB,A,3
4,test,3,0.0,2-Back,1.0,m,Tue Apr 21 2026 17:44:31 GMT-0500 (Central Daylight Time),610082.6999999881,039_o_m_h_a.png,I,m,1650,6,3,2679.0999999940395,607403.599999994,8076,VNB,A,4
5,test,3,0.0,2-Back,1.0,z,Tue Apr 21 2026 17:44:31 GMT-0500 (Central Daylight Time),611781.8000000119,071_y_f_n_a.png,I,z,680,7,3,1695.0,610086.8000000119,8076,VNB,A,5
6,test,3,1.0,2-Back,1.0,m,Tue Apr 21 2026 17:44:31 GMT-0500 (Central Daylight Time),613547.6999999881,165_m_m_d_a.png,I,m,749,8,3,1761.699999988079,611786.0,8076,VNB,A,6
7,test,3,0.0,2-Back,1.0,m,Tue Apr 21 2026 17:44:31 GMT-0500 (Central Daylight Time),615347.599999994,109_y_m_d_a.png,I,m,773,9,3,1796.0999999940395,613551.5,8076,VNB,A,7
7,test,3,0.0,2-Back,0.0,m,Tue Apr 21 2026 17:44:31 GMT-0500 (Central Daylight Time),617313.400000006,124_o_f_h_a.png,I,z,934,10,3,1961.0999999940395,615352.3000000119,8076,VNB,A,8
7,test,3,1.0,2-Back,0.0,m,Tue Apr 21 2026 17:44:31 GMT-0500 (Central Daylight Time),619896.099999994,139_m_f_n_a.png,I,z,1558,11,3,2578.699999988079,617317.400000006,8076,VNB,A,9
8,test,3,1.0,2-Back,1.0,z,Tue Apr 21 2026 17:44:31 GMT-0500 (Central Daylight Time),622078.8000000119,165_m_m_h_a.png,I,z,1161,12,3,2178.600000023842,619900.1999999881,8076,VNB,A,10
9,test,3,0.0,2-Back,1.0,m,Tue Apr 21 2026 17:44:31 GMT-0500 (Central Daylight Time),623797.5,071_y_f_d_a.png,I,m,702,13,3,1714.800000011921,622082.6999999881,8076,VNB,A,11
10,test,3,0.0,2-Back,1.0,m,Tue Apr 21 2026 17:44:31 GMT-0500 (Central Daylight Time),626577.400000006,124_o_f_n_a.png,I,m,1759,14,3,2776.2000000178814,623801.1999999881,8076,VNB,A,12
11,test,3,0.0,2-Back,1.0,z,Tue Apr 21 2026 17:44:31 GMT-0500 (Central Daylight Time),628427.0,039_o_m_d_a.png,I,z,824,15,3,1845.5,626581.5,8076,VNB,A,13
12,test,3,1.0,2-Back,1.0,m,Tue Apr 21 2026 17:44:31 GMT-0500 (Central Daylight Time),630660.400000006,139_m_f_h_a.png,I,m,1215,16,3,2230.0,628430.400000006,8076,VNB,A,14
12,test,3,0.0,2-Back,0.0,m,Tue Apr 21 2026 17:44:31 GMT-0500 (Central Daylight Time),632308.8000000119,165_m_m_n_a.png,I,z,622,17,3,1644.300000011921,630664.5,8076,VNB,A,15
13,test,3,0.0,2-Back,1.0,z,Tue Apr 21 2026 17:44:31 GMT-0500 (Central Daylight Time),634108.099999994,109_y_m_h_a.png,I,z,773,18,3,1795.0999999940395,632313.0,8076,VNB,A,16
0,test,4,0.0,2-Back,,,Tue Apr 21 2026 17:44:31 GMT-0500 (Central Daylight Time),634108.099999994,139_m_f_n_a.png,I,space,1509,1,3,1795.0999999940395,632313.0,8076,VNB,A,0
0,test,4,0.0,2-Back,,,Tue Apr 21 2026 17:44:31 GMT-0500 (Central Daylight Time),634108.099999994,039_o_m_n_a.png,I,space,1509,2,3,1795.0999999940395,632313.0,8076,VNB,A,0
1,test,4,1.0,2-Back,1.0,m,Tue Apr 21 2026 17:44:31 GMT-0500 (Central Daylight Time),643105.5,109_y_m_h_a.png,I,m,1384,3,3,2411.699999988079,640693.8000000119,8076,VNB,A,1
1,test,4,1.0,2-Back,0.0,m,Tue Apr 21 2026 17:44:31 GMT-0500 (Central Daylight Time),645221.599999994,124_o_f_d_a.png,I,z,1097,4,3,2112.4000000059605,643109.1999999881,8076,VNB,A,2
2,test,4,0.0,2-Back,1.0,z,Tue Apr 21 2026 17:44:31 GMT-0500 (Central Daylight Time),647514.8000000119,039_o_m_h_a.png,I,z,1260,5,3,2288.9000000059605,645225.900000006,8076,VNB,A,3
3,test,4,0.0,2-Back,1.0,m,Tue Apr 21 2026 17:44:31 GMT-0500 (Central Daylight Time),650220.0,165_m_m_n_a.png,I,m,1681,6,3,2699.0999999940395,647520.900000006,8076,VNB,A,4
4,test,4,0.0,2-Back,1.0,m,Tue Apr 21 2026 17:44:31 GMT-0500 (Central Daylight Time),652219.3000000119,139_m_f_d_a.png,I,m,975,7,3,1995.300000011921,650224.0,8076,VNB,A,5
5,test,4,0.0,2-Back,1.0,z,Tue Apr 21 2026 17:44:31 GMT-0500 (Central Daylight Time),653818.599999994,071_y_f_n_a.png,I,z,582,8,3,1595.199999988079,652223.400000006,8076,VNB,A,6
6,test,4,1.0,2-Back,1.0,m,Tue Apr 21 2026 17:44:31 GMT-0500 (Central Daylight Time),655451.3000000119,124_o_f_h_a.png,I,m,607,9,3,1628.7000000178814,653822.599999994,8076,VNB,A,7
7,test,4,0.0,2-Back,1.0,m,Tue Apr 21 2026 17:44:31 GMT-0500 (Central Daylight Time),657401.0,165_m_m_h_a.png,I,m,927,10,3,1944.5,655456.5,8076,VNB,A,8
8,test,4,0.0,2-Back,1.0,m,Tue Apr 21 2026 17:44:31 GMT-0500 (Central Daylight Time),660034.6999999881,071_y_f_d_a.png,I,m,1600,11,3,2629.699999988079,657405.0,8076,VNB,A,9
9,test,4,0.0,2-Back,1.0,m,Tue Apr 21 2026 17:44:31 GMT-0500 (Central Daylight Time),661784.099999994,109_y_m_n_a.png,I,m,720,12,3,1745.4000000059605,660038.6999999881,8076,VNB,A,10
10,test,4,0.0,2-Back,1.0,z,Tue Apr 21 2026 17:44:31 GMT-0500 (Central Daylight Time),663615.8000000119,039_o_m_d_a.png,I,z,802,13,3,1827.5,661788.3000000119,8076,VNB,A,11
11,test,4,1.0,2-Back,1.0,m,Tue Apr 21 2026 17:44:31 GMT-0500 (Central Daylight Time),665431.5,139_m_f_h_a.png,I,m,794,14,3,1812.300000011921,663619.1999999881,8076,VNB,A,12
12,test,4,1.0,2-Back,1.0,m,Tue Apr 21 2026 17:44:31 GMT-0500 (Central Daylight Time),667114.599999994,071_y_f_h_a.png,I,m,658,15,3,1678.9000000059605,665435.6999999881,8076,VNB,A,13
13,test,4,0.0,2-Back,1.0,m,Tue Apr 21 2026 17:44:31 GMT-0500 (Central Daylight Time),668980.599999994,124_o_f_n_a.png,I,m,839,16,3,1862.0,667118.599999994,8076,VNB,A,14
14,test,4,0.0,2-Back,1.0,m,Tue Apr 21 2026 17:44:31 GMT-0500 (Central Daylight Time),670663.599999994,109_y_m_d_a.png,I,m,662,17,3,1678.7999999821186,668984.8000000119,8076,VNB,A,15
15,test,4,1.0,2-Back,1.0,m,Tue Apr 21 2026 17:44:31 GMT-0500 (Central Daylight Time),672530.6999999881,165_m_m_d_a.png,I,m,841,18,3,1862.699999988079,670668.0,8076,VNB,A,16
0,test,5,1.0,2-Back,,,Tue Apr 21 2026 17:44:31 GMT-0500 (Central Daylight Time),672530.6999999881,071_y_f_d_a.png,I,space,1575,1,3,1862.699999988079,670668.0,8076,VNB,A,0
0,test,5,1.0,2-Back,,,Tue Apr 21 2026 17:44:31 GMT-0500 (Central Daylight Time),672530.6999999881,124_o_f_h_a.png,I,space,1575,2,3,1862.699999988079,670668.0,8076,VNB,A,0
0,test,5,1.0,2-Back,0.0,z,Tue Apr 21 2026 17:44:31 GMT-0500 (Central Daylight Time),681743.3000000119,039_o_m_d_a.png,I,m,1527,3,3,2545.800000011921,679197.5,8076,VNB,A,1
1,test,5,1.0,2-Back,1.0,m,Tue Apr 21 2026 17:44:31 GMT-0500 (Central Daylight Time),683660.5,139_m_f_n_a.png,I,m,898,4,3,1913.699999988079,681746.8000000119,8076,VNB,A,2
2,test,5,0.0,2-Back,1.0,m,Tue Apr 21 2026 17:44:31 GMT-0500 (Central Daylight Time),686591.900000006,165_m_m_h_a.png,I,m,1911,5,3,2927.300000011921,683664.599999994,8076,VNB,A,3
2,test,5,0.0,2-Back,0.0,z,Tue Apr 21 2026 17:44:31 GMT-0500 (Central Daylight Time),689507.599999994,071_y_f_n_a.png,I,m,1890,6,3,2912.0999999940395,686595.5,8076,VNB,A,4
3,test,5,0.0,2-Back,1.0,m,Tue Apr 21 2026 17:44:31 GMT-0500 (Central Daylight Time),691373.599999994,124_o_f_d_a.png,I,m,838,7,3,1862.4000000059605,689511.1999999881,8076,VNB,A,5
4,test,5,0.0,2-Back,1.0,m,Tue Apr 21 2026 17:44:31 GMT-0500 (Central Daylight Time),693156.3000000119,039_o_m_h_a.png,I,m,764,8,3,1778.800000011921,691377.5,8076,VNB,A,6
5,test,5,1.0,2-Back,1.0,z,Tue Apr 21 2026 17:44:31 GMT-0500 (Central Daylight Time),694956.5,139_m_f_d_a.png,I,z,772,9,3,1796.0,693160.5,8076,VNB,A,7
6,test,5,0.0,2-Back,1.0,m,Tue Apr 21 2026 17:44:31 GMT-0500 (Central Daylight Time),697138.5,109_y_m_n_a.png,I,m,1150,10,3,2177.800000011921,694960.6999999881,8076,VNB,A,8
7,test,5,0.0,2-Back,1.0,m,Tue Apr 21 2026 17:44:31 GMT-0500 (Central Daylight Time),699489.1999999881,165_m_m_n_a.png,I,m,1328,11,3,2346.899999976158,697142.3000000119,8076,VNB,A,9
8,test,5,0.0,2-Back,1.0,m,Tue Apr 21 2026 17:44:31 GMT-0500 (Central Daylight Time),701720.5,071_y_f_h_a.png,I,m,1211,12,3,2227.300000011921,699493.1999999881,8076,VNB,A,10
9,test,5,0.0,2-Back,1.0,m,Tue Apr 21 2026 17:44:31 GMT-0500 (Central Daylight Time),703503.0,109_y_m_d_a.png,I,m,762,13,3,1778.300000011921,701724.6999999881,8076,VNB,A,11
10,test,5,1.0,2-Back,1.0,z,Tue Apr 21 2026 17:44:31 GMT-0500 (Central Daylight Time),705020.599999994,139_m_f_h_a.png,I,z,490,14,3,1513.5,703507.099999994,8076,VNB,A,12
11,test,5,0.0,2-Back,1.0,m,Tue Apr 21 2026 17:44:31 GMT-0500 (Central Daylight Time),707536.400000006,039_o_m_n_a.png,I,m,1494,15,3,2511.9000000059605,705024.5,8076,VNB,A,13
11,test,5,0.0,2-Back,0.0,m,Tue Apr 21 2026 17:44:31 GMT-0500 (Central Daylight Time),709351.5,165_m_m_d_a.png,I,z,786,16,3,1811.0999999940395,707540.400000006,8076,VNB,A,14
11,test,5,0.0,2-Back,0.0,z,Tue Apr 21 2026 17:44:31 GMT-0500 (Central Daylight Time),711950.599999994,124_o_f_n_a.png,I,m,1578,17,3,2595.0999999940395,709355.5,8076,VNB,A,15
12,test,5,1.0,2-Back,1.0,m,Tue Apr 21 2026 17:44:31 GMT-0500 (Central Daylight Time),714766.400000006,109_y_m_h_a.png,I,m,1795,18,3,2811.7000000178814,711954.6999999881,8076,VNB,A,16
