block_c,block_dur,condition,countdown,datetime,endtime,list,multichar_response,project,response,response_time,session_number,start_end,starttime,subject_id,task,task_vers,trial
,,,,Fri Aug 02 2024 13:44:50 GMT-0500 (Central Daylight Time),,,,O,space,467,1,,,7005,WL,A,
prac,,0,,Fri Aug 02 2024 13:44:50 GMT-0500 (Central Daylight Time),,NA,b,O,b,6751,1,,,7005,WL,A,1.0
prac,,0,,Fri Aug 02 2024 13:44:50 GMT-0500 (Central Daylight Time),,NA,bo,O,o,982,1,,,7005,WL,A,1.0
prac,,0,,Fri Aug 02 2024 13:44:50 GMT-0500 (Central Daylight Time),,NA,boo,O,o,172,1,,,7005,WL,A,1.0
prac,,0,,Fri Aug 02 2024 13:44:50 GMT-0500 (Central Daylight Time),,NA,boos,O,s,620,1,,,7005,WL,A,1.0
prac,,0,,Fri Aug 02 2024 13:44:50 GMT-0500 (Central Daylight Time),,NA,boost,O,t,127,1,,,7005,WL,A,1.0
prac,,0,,Fri Aug 02 2024 13:44:50 GMT-0500 (Central Daylight Time),,NA,boostenter,O,enter,2675,1,,,7005,WL,A,1.0
1,1.620999813079834,learn,58379.000186920166,Fri Aug 02 2024 13:44:50 GMT-0500 (Central Daylight Time),140204.89999985695,A,b,O,b,1607,1,1614.7999999523163,138590.09999990463,7005,WL,A,1.0
1,1.8369998931884766,learn,58163.00010681152,Fri Aug 02 2024 13:44:50 GMT-0500 (Central Daylight Time),140421.09999990463,A,bo,O,o,203,1,1831.0,138590.09999990463,7005,WL,A,1.0
1,2.004999876022339,learn,57995.00012397766,Fri Aug 02 2024 13:44:50 GMT-0500 (Central Daylight Time),140588.89999985695,A,boo,O,o,149,1,1998.7999999523163,138590.09999990463,7005,WL,A,1.0
1,2.370999813079834,learn,57629.000186920166,Fri Aug 02 2024 13:44:50 GMT-0500 (Central Daylight Time),140954.79999995232,A,book,O,k,344,1,2364.7000000476837,138590.09999990463,7005,WL,A,1.0
1,2.8889999389648438,learn,57111.000061035156,Fri Aug 02 2024 13:44:50 GMT-0500 (Central Daylight Time),141473.09999990463,A,bookenter,O,enter,508,1,2883.0,138590.09999990463,7005,WL,A,1.0
1,3.256999969482422,learn,56743.00003051758,Fri Aug 02 2024 13:44:50 GMT-0500 (Central Daylight Time),141841.29999995232,A,f,O,f,356,1,367.7000000476837,141473.59999990463,7005,WL,A,2.0
1,3.372999906539917,learn,56627.00009346008,Fri Aug 02 2024 13:44:50 GMT-0500 (Central Daylight Time),141957.39999985695,A,fl,O,l,98,1,483.7999999523163,141473.59999990463,7005,WL,A,2.0
1,3.556999921798706,learn,56443.000078201294,Fri Aug 02 2024 13:44:50 GMT-0500 (Central Daylight Time),142141.0,A,flo,O,o,164,1,667.4000000953674,141473.59999990463,7005,WL,A,2.0
1,3.674999952316284,learn,56325.000047683716,Fri Aug 02 2024 13:44:50 GMT-0500 (Central Daylight Time),142258.70000004768,A,flow,O,w,102,1,785.1000001430511,141473.59999990463,7005,WL,A,2.0
1,3.7239999771118164,learn,56276.00002288818,Fri Aug 02 2024 13:44:50 GMT-0500 (Central Daylight Time),142308.09999990463,A,flowe,O,e,31,1,834.5,141473.59999990463,7005,WL,A,2.0
1,3.756999969482422,learn,56243.00003051758,Fri Aug 02 2024 13:44:50 GMT-0500 (Central Daylight Time),142341.0,A,flower,O,r,20,1,867.4000000953674,141473.59999990463,7005,WL,A,2.0
1,4.057999849319458,learn,55942.00015068054,Fri Aug 02 2024 13:44:50 GMT-0500 (Central Daylight Time),142641.70000004768,A,flowerenter,O,enter,290,1,1168.1000001430511,141473.59999990463,7005,WL,A,2.0
1,4.309000015258789,learn,55690.99998474121,Fri Aug 02 2024 13:44:50 GMT-0500 (Central Daylight Time),142892.79999995232,A,t,O,t,235,1,250.79999995231628,142642.0,7005,WL,A,3.0
1,4.593999862670898,learn,55406.0001373291,Fri Aug 02 2024 13:44:50 GMT-0500 (Central Daylight Time),143177.79999995232,A,tr,O,r,265,1,535.7999999523163,142642.0,7005,WL,A,3.0
1,4.675999879837036,learn,55324.000120162964,Fri Aug 02 2024 13:44:50 GMT-0500 (Central Daylight Time),143259.79999995232,A,tra,O,a,63,1,617.7999999523163,142642.0,7005,WL,A,3.0
1,4.825999975204468,learn,55174.00002479553,Fri Aug 02 2024 13:44:50 GMT-0500 (Central Daylight Time),143410.0,A,trai,O,i,134,1,768.0,142642.0,7005,WL,A,3.0
1,4.875999927520752,learn,55124.00007247925,Fri Aug 02 2024 13:44:50 GMT-0500 (Central Daylight Time),143460.20000004768,A,train,O,n,34,1,818.2000000476837,142642.0,7005,WL,A,3.0
1,5.593999862670898,learn,54406.0001373291,Fri Aug 02 2024 13:44:50 GMT-0500 (Central Daylight Time),144178.20000004768,A,trainenter,O,enter,695,1,1536.2000000476837,142642.0,7005,WL,A,3.0
1,6.078999996185303,learn,53921.0000038147,Fri Aug 02 2024 13:44:50 GMT-0500 (Central Daylight Time),144663.20000004768,A,r,O,r,476,1,484.7000000476837,144178.5,7005,WL,A,4.0
1,6.19599986076355,learn,53804.00013923645,Fri Aug 02 2024 13:44:50 GMT-0500 (Central Daylight Time),144779.70000004768,A,ru,O,u,89,1,601.2000000476837,144178.5,7005,WL,A,4.0
1,6.328999996185303,learn,53671.0000038147,Fri Aug 02 2024 13:44:50 GMT-0500 (Central Daylight Time),144913.0,A,rug,O,g,120,1,734.5,144178.5,7005,WL,A,4.0
1,6.763000011444092,learn,53236.99998855591,Fri Aug 02 2024 13:44:50 GMT-0500 (Central Daylight Time),145347.09999990463,A,rugenter,O,enter,427,1,1168.5999999046326,144178.5,7005,WL,A,4.0
1,7.113999843597412,learn,52886.00015640259,Fri Aug 02 2024 13:44:50 GMT-0500 (Central Daylight Time),145698.20000004768,A,m,O,m,330,1,350.7000000476837,145347.5,7005,WL,A,5.0
1,7.198999881744385,learn,52801.000118255615,Fri Aug 02 2024 13:44:50 GMT-0500 (Central Daylight Time),145782.59999990463,A,me,O,e,68,1,435.09999990463257,145347.5,7005,WL,A,5.0
1,7.2809998989105225,learn,52719.00010108948,Fri Aug 02 2024 13:44:50 GMT-0500 (Central Daylight Time),145865.0,A,mea,O,a,67,1,517.5,145347.5,7005,WL,A,5.0
1,7.447999954223633,learn,52552.00004577637,Fri Aug 02 2024 13:44:50 GMT-0500 (Central Daylight Time),146032.59999990463,A,mead,O,d,151,1,685.0999999046326,145347.5,7005,WL,A,5.0
1,7.531999826431274,learn,52468.000173568726,Fri Aug 02 2024 13:44:50 GMT-0500 (Central Daylight Time),146115.89999985695,A,meado,O,o,72,1,768.3999998569489,145347.5,7005,WL,A,5.0
1,7.865999937057495,learn,52134.000062942505,Fri Aug 02 2024 13:44:50 GMT-0500 (Central Daylight Time),146450.0,A,meadow,O,w,321,1,1102.5,145347.5,7005,WL,A,5.0
1,8.115999937057495,learn,51884.000062942505,Fri Aug 02 2024 13:44:50 GMT-0500 (Central Daylight Time),146699.5,A,meadowenter,O,enter,241,1,1352.0,145347.5,7005,WL,A,5.0
1,8.482999801635742,learn,51517.00019836426,Fri Aug 02 2024 13:44:50 GMT-0500 (Central Daylight Time),147067.29999995232,A,h,O,h,354,1,367.40000009536743,146699.89999985695,7005,WL,A,6.0
1,8.76799988746643,learn,51232.00011253357,Fri Aug 02 2024 13:44:50 GMT-0500 (Central Daylight Time),147352.0,A,ha,O,a,270,1,652.1000001430511,146699.89999985695,7005,WL,A,6.0
1,8.984999895095825,learn,51015.000104904175,Fri Aug 02 2024 13:44:50 GMT-0500 (Central Daylight Time),147568.89999985695,A,har,O,r,201,1,869.0,146699.89999985695,7005,WL,A,6.0
1,9.20199990272522,learn,50798.00009727478,Fri Aug 02 2024 13:44:50 GMT-0500 (Central Daylight Time),147785.59999990463,A,hart,O,t,192,1,1085.7000000476837,146699.89999985695,7005,WL,A,6.0
1,10.236999988555908,learn,49763.00001144409,Fri Aug 02 2024 13:44:50 GMT-0500 (Central Daylight Time),148820.89999985695,A,har,O,backspace,1024,1,2121.0,146699.89999985695,7005,WL,A,6.0
1,10.57099986076355,learn,49429.00013923645,Fri Aug 02 2024 13:44:50 GMT-0500 (Central Daylight Time),149155.20000004768,A,harp,O,p,308,1,2455.300000190735,146699.89999985695,7005,WL,A,6.0
1,11.355000019073486,learn,48644.999980926514,Fri Aug 02 2024 13:44:50 GMT-0500 (Central Daylight Time),149939.20000004768,A,harpenter,O,enter,770,1,3239.300000190735,146699.89999985695,7005,WL,A,6.0
1,11.789999961853027,learn,48210.00003814697,Fri Aug 02 2024 13:44:50 GMT-0500 (Central Daylight Time),150374.39999985695,A,s,O,s,418,1,434.7999999523163,149939.59999990463,7005,WL,A,7.0
1,11.85699987411499,learn,48143.00012588501,Fri Aug 02 2024 13:44:50 GMT-0500 (Central Daylight Time),150440.5,A,sa,O,a,51,1,500.90000009536743,149939.59999990463,7005,WL,A,7.0
1,12.875,learn,47125.0,Fri Aug 02 2024 13:44:50 GMT-0500 (Central Daylight Time),151459.39999985695,A,sal,O,l,994,1,1519.7999999523163,149939.59999990463,7005,WL,A,7.0
1,13.059999942779541,learn,46940.00005722046,Fri Aug 02 2024 13:44:50 GMT-0500 (Central Daylight Time),151644.0,A,salt,O,t,171,1,1704.4000000953674,149939.59999990463,7005,WL,A,7.0
1,13.41100001335144,learn,46588.99998664856,Fri Aug 02 2024 13:44:50 GMT-0500 (Central Daylight Time),151994.5,A,saltenter,O,enter,327,1,2054.9000000953674,149939.59999990463,7005,WL,A,7.0
1,13.760999917984009,learn,46239.00008201599,Fri Aug 02 2024 13:44:50 GMT-0500 (Central Daylight Time),152344.89999985695,A,f,O,f,331,1,350.09999990463257,151994.79999995232,7005,WL,A,8.0
1,13.82699990272522,learn,46173.00009727478,Fri Aug 02 2024 13:44:50 GMT-0500 (Central Daylight Time),152411.29999995232,A,fi,O,i,46,1,416.5,151994.79999995232,7005,WL,A,8.0
1,13.91100001335144,learn,46088.99998664856,Fri Aug 02 2024 13:44:50 GMT-0500 (Central Daylight Time),152494.79999995232,A,fin,O,n,63,1,500.0,151994.79999995232,7005,WL,A,8.0
1,14.127999782562256,learn,45872.000217437744,Fri Aug 02 2024 13:44:50 GMT-0500 (Central Daylight Time),152711.5,A,fing,O,g,204,1,716.7000000476837,151994.79999995232,7005,WL,A,8.0
1,14.244999885559082,learn,45755.00011444092,Fri Aug 02 2024 13:44:50 GMT-0500 (Central Daylight Time),152828.70000004768,A,finge,O,e,108,1,833.9000000953674,151994.79999995232,7005,WL,A,8.0
1,14.310999870300293,learn,45689.00012969971,Fri Aug 02 2024 13:44:50 GMT-0500 (Central Daylight Time),152895.09999990463,A,finger,O,r,51,1,900.2999999523163,151994.79999995232,7005,WL,A,8.0
1,15.062999963760376,learn,44937.000036239624,Fri Aug 02 2024 13:44:50 GMT-0500 (Central Daylight Time),153646.70000004768,A,fingerenter,O,enter,739,1,1651.9000000953674,151994.79999995232,7005,WL,A,8.0
1,15.513999938964844,learn,44486.000061035156,Fri Aug 02 2024 13:44:50 GMT-0500 (Central Daylight Time),154098.0,A,a,O,a,440,1,451.0,153647.0,7005,WL,A,9.0
1,15.663999795913696,learn,44336.000204086304,Fri Aug 02 2024 13:44:50 GMT-0500 (Central Daylight Time),154248.20000004768,A,ap,O,p,129,1,601.2000000476837,153647.0,7005,WL,A,9.0
1,15.847999811172485,learn,44152.000188827515,Fri Aug 02 2024 13:44:50 GMT-0500 (Central Daylight Time),154432.59999990463,A,app,O,p,169,1,785.5999999046326,153647.0,7005,WL,A,9.0
1,16.06599998474121,learn,43934.00001525879,Fri Aug 02 2024 13:44:50 GMT-0500 (Central Daylight Time),154649.59999990463,A,appl,O,l,201,1,1002.5999999046326,153647.0,7005,WL,A,9.0
1,16.181999921798706,learn,43818.000078201294,Fri Aug 02 2024 13:44:50 GMT-0500 (Central Daylight Time),154765.59999990463,A,apple,O,e,104,1,1118.5999999046326,153647.0,7005,WL,A,9.0
1,17.35099983215332,learn,42649.00016784668,Fri Aug 02 2024 13:44:50 GMT-0500 (Central Daylight Time),155934.89999985695,A,appleenter,O,enter,1156,1,2287.899999856949,153647.0,7005,WL,A,9.0
1,20.807999849319458,learn,39192.00015068054,Fri Aug 02 2024 13:44:50 GMT-0500 (Central Daylight Time),159392.20000004768,A,l,O,l,3448,1,3457.100000143051,155935.09999990463,7005,WL,A,10.0
1,20.990999937057495,learn,39009.000062942505,Fri Aug 02 2024 13:44:50 GMT-0500 (Central Daylight Time),159575.20000004768,A,lo,O,o,169,1,3640.100000143051,155935.09999990463,7005,WL,A,10.0
1,21.090999841690063,learn,38909.00015830994,Fri Aug 02 2024 13:44:50 GMT-0500 (Central Daylight Time),159675.09999990463,A,log,O,g,83,1,3740.0,155935.09999990463,7005,WL,A,10.0
1,21.658999919891357,learn,38341.00008010864,Fri Aug 02 2024 13:44:50 GMT-0500 (Central Daylight Time),160242.89999985695,A,logenter,O,enter,544,1,4307.799999952316,155935.09999990463,7005,WL,A,10.0
1,22.293999910354614,learn,37706.000089645386,Fri Aug 02 2024 13:44:50 GMT-0500 (Central Daylight Time),160877.79999995232,A,b,O,b,619,1,634.5999999046326,160243.20000004768,7005,WL,A,11.0
1,22.359999895095825,learn,37640.000104904175,Fri Aug 02 2024 13:44:50 GMT-0500 (Central Daylight Time),160944.39999985695,A,bu,O,u,43,1,701.1999998092651,160243.20000004768,7005,WL,A,11.0
1,22.527999877929688,learn,37472.00012207031,Fri Aug 02 2024 13:44:50 GMT-0500 (Central Daylight Time),161112.0,A,but,O,t,154,1,868.7999999523163,160243.20000004768,7005,WL,A,11.0
1,22.694999933242798,learn,37305.0000667572,Fri Aug 02 2024 13:44:50 GMT-0500 (Central Daylight Time),161278.89999985695,A,butt,O,t,152,1,1035.6999998092651,160243.20000004768,7005,WL,A,11.0
1,22.811999797821045,learn,37188.000202178955,Fri Aug 02 2024 13:44:50 GMT-0500 (Central Daylight Time),161395.70000004768,A,butto,O,o,99,1,1152.5,160243.20000004768,7005,WL,A,11.0
1,22.91100001335144,learn,37088.99998664856,Fri Aug 02 2024 13:44:50 GMT-0500 (Central Daylight Time),161495.09999990463,A,button,O,n,76,1,1251.8999998569489,160243.20000004768,7005,WL,A,11.0
1,23.582000017166138,learn,36417.99998283386,Fri Aug 02 2024 13:44:50 GMT-0500 (Central Daylight Time),162165.79999995232,A,buttonenter,O,enter,656,1,1922.5999999046326,160243.20000004768,7005,WL,A,11.0
1,23.846999883651733,learn,36153.00011634827,Fri Aug 02 2024 13:44:50 GMT-0500 (Central Daylight Time),162431.0,A,k,O,k,256,1,265.0,162166.0,7005,WL,A,12.0
1,23.98099994659424,learn,36019.00005340576,Fri Aug 02 2024 13:44:50 GMT-0500 (Central Daylight Time),162564.59999990463,A,ke,O,e,115,1,398.59999990463257,162166.0,7005,WL,A,12.0
1,24.131999969482422,learn,35868.00003051758,Fri Aug 02 2024 13:44:50 GMT-0500 (Central Daylight Time),162715.70000004768,A,key,O,y,140,1,549.7000000476837,162166.0,7005,WL,A,12.0
1,24.615000009536743,learn,35384.99999046326,Fri Aug 02 2024 13:44:50 GMT-0500 (Central Daylight Time),163198.79999995232,A,keyenter,O,enter,473,1,1032.7999999523163,162166.0,7005,WL,A,12.0
1,24.98199987411499,learn,35018.00012588501,Fri Aug 02 2024 13:44:50 GMT-0500 (Central Daylight Time),163566.5,A,g,O,g,351,1,367.5,163199.0,7005,WL,A,13.0
1,25.031999826431274,learn,34968.000173568726,Fri Aug 02 2024 13:44:50 GMT-0500 (Central Daylight Time),163616.09999990463,A,go,O,o,32,1,417.09999990463257,163199.0,7005,WL,A,13.0
1,25.26699995994568,learn,34733.00004005432,Fri Aug 02 2024 13:44:50 GMT-0500 (Central Daylight Time),163850.70000004768,A,gol,O,l,219,1,651.7000000476837,163199.0,7005,WL,A,13.0
1,25.3989999294281,learn,34601.0000705719,Fri Aug 02 2024 13:44:50 GMT-0500 (Central Daylight Time),163983.39999985695,A,gold,O,d,111,1,784.3999998569489,163199.0,7005,WL,A,13.0
1,26.53499984741211,learn,33465.00015258789,Fri Aug 02 2024 13:44:50 GMT-0500 (Central Daylight Time),165118.59999990463,A,goldenter,O,enter,1121,1,1919.5999999046326,163199.0,7005,WL,A,13.0
1,30.442999839782715,learn,29557.000160217285,Fri Aug 02 2024 13:44:50 GMT-0500 (Central Daylight Time),169026.79999995232,A,r,O,r,3887,1,3907.9000000953674,165118.89999985695,7005,WL,A,14.0
1,30.525999784469604,learn,29474.000215530396,Fri Aug 02 2024 13:44:50 GMT-0500 (Central Daylight Time),169110.29999995232,A,ra,O,a,72,1,3991.4000000953674,165118.89999985695,7005,WL,A,14.0
1,30.65999984741211,learn,29340.00015258789,Fri Aug 02 2024 13:44:50 GMT-0500 (Central Daylight Time),169244.0,A,rat,O,t,125,1,4125.100000143051,165118.89999985695,7005,WL,A,14.0
1,30.793999910354614,learn,29206.000089645386,Fri Aug 02 2024 13:44:50 GMT-0500 (Central Daylight Time),169377.79999995232,A,ratt,O,t,108,1,4258.900000095367,165118.89999985695,7005,WL,A,14.0
1,30.90999984741211,learn,29090.00015258789,Fri Aug 02 2024 13:44:50 GMT-0500 (Central Daylight Time),169494.39999985695,A,rattl,O,l,103,1,4375.5,165118.89999985695,7005,WL,A,14.0
1,30.959999799728394,learn,29040.000200271606,Fri Aug 02 2024 13:44:50 GMT-0500 (Central Daylight Time),169544.39999985695,A,rattle,O,e,32,1,4425.5,165118.89999985695,7005,WL,A,14.0
1,31.495999813079834,learn,28504.000186920166,Fri Aug 02 2024 13:44:50 GMT-0500 (Central Daylight Time),170079.79999995232,A,rattleenter,O,enter,524,1,4960.900000095367,165118.89999985695,7005,WL,A,14.0
1,37.35699987411499,learn,22643.00012588501,Fri Aug 02 2024 13:44:50 GMT-0500 (Central Daylight Time),175940.5,A,enter,O,enter,5846,1,5860.400000095367,170080.09999990463,7005,WL,A,15.0
2,0.6850001811981201,learn,59314.99981880188,Fri Aug 02 2024 13:44:50 GMT-0500 (Central Daylight Time),258050.09999990463,A,b,O,b,661,1,684.2000000476837,257365.89999985695,7005,WL,A,1.0
2,0.9030001163482666,learn,59096.99988365173,Fri Aug 02 2024 13:44:50 GMT-0500 (Central Daylight Time),258267.59999990463,A,bo,O,o,202,1,901.7000000476837,257365.89999985695,7005,WL,A,1.0
2,1.070000171661377,learn,58929.99982833862,Fri Aug 02 2024 13:44:50 GMT-0500 (Central Daylight Time),258435.0,A,boo,O,o,146,1,1069.1000001430511,257365.89999985695,7005,WL,A,1.0
2,1.4040000438690186,learn,58595.99995613098,Fri Aug 02 2024 13:44:50 GMT-0500 (Central Daylight Time),258769.20000004768,A,book,O,k,316,1,1403.3000001907349,257365.89999985695,7005,WL,A,1.0
2,1.4869999885559082,learn,58513.00001144409,Fri Aug 02 2024 13:44:50 GMT-0500 (Central Daylight Time),258851.70000004768,A,bookk,O,k,70,1,1485.8000001907349,257365.89999985695,7005,WL,A,1.0
2,2.005000114440918,learn,57994.99988555908,Fri Aug 02 2024 13:44:50 GMT-0500 (Central Daylight Time),259369.79999995232,A,book,O,backspace,494,1,2003.9000000953674,257365.89999985695,7005,WL,A,1.0
2,2.3389999866485596,learn,57661.00001335144,Fri Aug 02 2024 13:44:50 GMT-0500 (Central Daylight Time),259704.09999990463,A,bookenter,O,enter,318,1,2338.2000000476837,257365.89999985695,7005,WL,A,1.0
2,2.623000144958496,learn,57376.999855041504,Fri Aug 02 2024 13:44:50 GMT-0500 (Central Daylight Time),259988.09999990463,A,f,O,f,262,1,283.7000000476837,259704.39999985695,7005,WL,A,2.0
2,2.689000129699707,learn,57310.99987030029,Fri Aug 02 2024 13:44:50 GMT-0500 (Central Daylight Time),260053.79999995232,A,fl,O,l,54,1,349.40000009536743,259704.39999985695,7005,WL,A,2.0
2,2.873000144958496,learn,57126.999855041504,Fri Aug 02 2024 13:44:50 GMT-0500 (Central Daylight Time),260238.09999990463,A,flo,O,o,172,1,533.7000000476837,259704.39999985695,7005,WL,A,2.0
2,3.006999969482422,learn,56993.00003051758,Fri Aug 02 2024 13:44:50 GMT-0500 (Central Daylight Time),260371.79999995232,A,flow,O,w,125,1,667.4000000953674,259704.39999985695,7005,WL,A,2.0
2,3.0390000343322754,learn,56960.999965667725,Fri Aug 02 2024 13:44:50 GMT-0500 (Central Daylight Time),260404.09999990463,A,flowe,O,e,21,1,699.7000000476837,259704.39999985695,7005,WL,A,2.0
2,3.1070001125335693,learn,56892.99988746643,Fri Aug 02 2024 13:44:50 GMT-0500 (Central Daylight Time),260472.20000004768,A,flower,O,r,55,1,767.8000001907349,259704.39999985695,7005,WL,A,2.0
2,3.4079999923706055,learn,56592.000007629395,Fri Aug 02 2024 13:44:50 GMT-0500 (Central Daylight Time),260773.29999995232,A,flowerenter,O,enter,291,1,1068.9000000953674,259704.39999985695,7005,WL,A,2.0
2,3.6750001907348633,learn,56324.99980926514,Fri Aug 02 2024 13:44:50 GMT-0500 (Central Daylight Time),261039.79999995232,A,t,O,t,257,1,266.2999999523163,260773.5,7005,WL,A,3.0
2,3.825000047683716,learn,56174.999952316284,Fri Aug 02 2024 13:44:50 GMT-0500 (Central Daylight Time),261189.59999990463,A,tr,O,r,138,1,416.09999990463257,260773.5,7005,WL,A,3.0
2,3.9079999923706055,learn,56092.000007629395,Fri Aug 02 2024 13:44:50 GMT-0500 (Central Daylight Time),261273.20000004768,A,tra,O,a,58,1,499.7000000476837,260773.5,7005,WL,A,3.0
2,4.009000062942505,learn,55990.999937057495,Fri Aug 02 2024 13:44:50 GMT-0500 (Central Daylight Time),261374.39999985695,A,trai,O,i,82,1,600.8999998569489,260773.5,7005,WL,A,3.0
2,4.0920000076293945,learn,55907.999992370605,Fri Aug 02 2024 13:44:50 GMT-0500 (Central Daylight Time),261456.5,A,train,O,n,59,1,683.0,260773.5,7005,WL,A,3.0
2,4.644000053405762,learn,55355.99994659424,Fri Aug 02 2024 13:44:50 GMT-0500 (Central Daylight Time),262008.59999990463,A,trainenter,O,enter,531,1,1235.0999999046326,260773.5,7005,WL,A,3.0
2,4.860000133514404,learn,55139.999866485596,Fri Aug 02 2024 13:44:50 GMT-0500 (Central Daylight Time),262225.39999985695,A,m,O,m,205,1,216.59999990463257,262008.79999995232,7005,WL,A,4.0
2,4.960000038146973,learn,55039.99996185303,Fri Aug 02 2024 13:44:50 GMT-0500 (Central Daylight Time),262325.0,A,me,O,e,85,1,316.2000000476837,262008.79999995232,7005,WL,A,4.0
2,5.110000133514404,learn,54889.999866485596,Fri Aug 02 2024 13:44:50 GMT-0500 (Central Daylight Time),262475.2999999523,A,mea,O,a,133,1,466.5,262008.79999995232,7005,WL,A,4.0
2,5.394999980926514,learn,54605.000019073486,Fri Aug 02 2024 13:44:50 GMT-0500 (Central Daylight Time),262759.7999999523,A,mead,O,d,262,1,751.0,262008.79999995232,7005,WL,A,4.0
2,5.460999965667725,learn,54539.000034332275,Fri Aug 02 2024 13:44:50 GMT-0500 (Central Daylight Time),262825.89999985695,A,meado,O,o,48,1,817.0999999046326,262008.79999995232,7005,WL,A,4.0
2,5.644999980926514,learn,54355.000019073486,Fri Aug 02 2024 13:44:50 GMT-0500 (Central Daylight Time),263010.5,A,meadow,O,w,157,1,1001.7000000476837,262008.79999995232,7005,WL,A,4.0
2,5.945000171661377,learn,54054.99982833862,Fri Aug 02 2024 13:44:50 GMT-0500 (Central Daylight Time),263310.0,A,meadowenter,O,enter,277,1,1301.2000000476837,262008.79999995232,7005,WL,A,4.0
2,6.129000186920166,learn,53870.999813079834,Fri Aug 02 2024 13:44:50 GMT-0500 (Central Daylight Time),263493.7999999523,A,r,O,r,176,1,183.40000009536743,263310.39999985695,7005,WL,A,5.0
2,6.263000011444092,learn,53736.99998855591,Fri Aug 02 2024 13:44:50 GMT-0500 (Central Daylight Time),263627.7000000477,A,ru,O,u,116,1,317.30000019073486,263310.39999985695,7005,WL,A,5.0
2,6.547000169754028,learn,53452.99983024597,Fri Aug 02 2024 13:44:50 GMT-0500 (Central Daylight Time),263912.39999985695,A,rug,O,g,263,1,602.0,263310.39999985695,7005,WL,A,5.0
2,6.930999994277954,learn,53069.000005722046,Fri Aug 02 2024 13:44:50 GMT-0500 (Central Daylight Time),264295.59999990463,A,rugenter,O,enter,366,1,985.2000000476837,263310.39999985695,7005,WL,A,5.0
2,7.699000120162964,learn,52300.999879837036,Fri Aug 02 2024 13:44:50 GMT-0500 (Central Daylight Time),265063.7000000477,A,h,O,h,750,1,767.9000000953674,264295.7999999523,7005,WL,A,6.0
2,7.815999984741211,learn,52184.00001525879,Fri Aug 02 2024 13:44:50 GMT-0500 (Central Daylight Time),265180.5,A,ha,O,a,107,1,884.7000000476837,264295.7999999523,7005,WL,A,6.0
2,7.883000135421753,learn,52116.99986457825,Fri Aug 02 2024 13:44:50 GMT-0500 (Central Daylight Time),265247.7000000477,A,har,O,r,54,1,951.9000000953674,264295.7999999523,7005,WL,A,6.0
2,8.134000062942505,learn,51865.999937057495,Fri Aug 02 2024 13:44:50 GMT-0500 (Central Daylight Time),265499.09999990463,A,harp,O,p,234,1,1203.2999999523163,264295.7999999523,7005,WL,A,6.0
2,8.467000007629395,learn,51532.999992370605,Fri Aug 02 2024 13:44:50 GMT-0500 (Central Daylight Time),265831.89999985695,A,harpenter,O,enter,315,1,1536.0999999046326,264295.7999999523,7005,WL,A,6.0
2,8.700999975204468,learn,51299.00002479553,Fri Aug 02 2024 13:44:50 GMT-0500 (Central Daylight Time),266065.89999985695,A,s,O,s,215,1,233.89999985694885,265832.0,7005,WL,A,7.0
2,8.784000158309937,learn,51215.99984169006,Fri Aug 02 2024 13:44:50 GMT-0500 (Central Daylight Time),266149.0,A,sa,O,a,72,1,317.0,265832.0,7005,WL,A,7.0
2,8.868000030517578,learn,51131.99996948242,Fri Aug 02 2024 13:44:50 GMT-0500 (Central Daylight Time),266232.5,A,sal,O,l,68,1,400.5,265832.0,7005,WL,A,7.0
2,9.136000156402588,learn,50863.99984359741,Fri Aug 02 2024 13:44:50 GMT-0500 (Central Daylight Time),266500.7999999523,A,salt,O,t,255,1,668.7999999523163,265832.0,7005,WL,A,7.0
2,9.570000171661377,learn,50429.99982833862,Fri Aug 02 2024 13:44:50 GMT-0500 (Central Daylight Time),266934.7999999523,A,saltenter,O,enter,421,1,1102.7999999523163,265832.0,7005,WL,A,7.0
2,10.004000186920166,learn,49995.999813079834,Fri Aug 02 2024 13:44:50 GMT-0500 (Central Daylight Time),267368.7999999523,A,c,O,c,423,1,433.7999999523163,266935.0,7005,WL,A,8.0
2,10.070000171661377,learn,49929.99982833862,Fri Aug 02 2024 13:44:50 GMT-0500 (Central Daylight Time),267435.39999985695,A,ch,O,h,50,1,500.39999985694885,266935.0,7005,WL,A,8.0
2,10.154000043869019,learn,49845.99995613098,Fri Aug 02 2024 13:44:50 GMT-0500 (Central Daylight Time),267518.5,A,chi,O,i,69,1,583.5,266935.0,7005,WL,A,8.0
2,10.30400013923645,learn,49695.99986076355,Fri Aug 02 2024 13:44:50 GMT-0500 (Central Daylight Time),267669.0,A,chim,O,m,131,1,734.0,266935.0,7005,WL,A,8.0
2,10.538000106811523,learn,49461.99989318848,Fri Aug 02 2024 13:44:50 GMT-0500 (Central Daylight Time),267903.09999990463,A,chimn,O,n,222,1,968.0999999046326,266935.0,7005,WL,A,8.0
2,10.621999979019165,learn,49378.000020980835,Fri Aug 02 2024 13:44:50 GMT-0500 (Central Daylight Time),267986.7000000477,A,chimne,O,e,64,1,1051.7000000476837,266935.0,7005,WL,A,8.0
2,10.755000114440918,learn,49244.99988555908,Fri Aug 02 2024 13:44:50 GMT-0500 (Central Daylight Time),268120.39999985695,A,chimney,O,y,119,1,1185.3999998569489,266935.0,7005,WL,A,8.0
2,11.473000049591064,learn,48526.999950408936,Fri Aug 02 2024 13:44:50 GMT-0500 (Central Daylight Time),268837.5,A,chimneyenter,O,enter,697,1,1902.5,266935.0,7005,WL,A,8.0
2,11.723000049591064,learn,48276.999950408936,Fri Aug 02 2024 13:44:50 GMT-0500 (Central Daylight Time),269088.2999999523,A,f,O,f,232,1,250.40000009536743,268837.89999985695,7005,WL,A,9.0
2,11.773000001907349,learn,48226.99999809265,Fri Aug 02 2024 13:44:50 GMT-0500 (Central Daylight Time),269138.5,A,fi,O,i,35,1,300.60000014305115,268837.89999985695,7005,WL,A,9.0
2,11.823000192642212,learn,48176.99980735779,Fri Aug 02 2024 13:44:50 GMT-0500 (Central Daylight Time),269188.2999999523,A,fin,O,n,40,1,350.40000009536743,268837.89999985695,7005,WL,A,9.0
2,12.041000127792358,learn,47958.99987220764,Fri Aug 02 2024 13:44:50 GMT-0500 (Central Daylight Time),269405.7999999523,A,fing,O,g,205,1,567.9000000953674,268837.89999985695,7005,WL,A,9.0
2,12.157000064849854,learn,47842.99993515015,Fri Aug 02 2024 13:44:50 GMT-0500 (Central Daylight Time),269522.2000000477,A,finge,O,e,101,1,684.3000001907349,268837.89999985695,7005,WL,A,9.0
2,12.223999977111816,learn,47776.00002288818,Fri Aug 02 2024 13:44:50 GMT-0500 (Central Daylight Time),269589.2000000477,A,finger,O,r,48,1,751.3000001907349,268837.89999985695,7005,WL,A,9.0
2,12.575000047683716,learn,47424.999952316284,Fri Aug 02 2024 13:44:50 GMT-0500 (Central Daylight Time),269939.7000000477,A,fingerenter,O,enter,342,1,1101.8000001907349,268837.89999985695,7005,WL,A,9.0
2,12.758000135421753,learn,47241.99986457825,Fri Aug 02 2024 13:44:50 GMT-0500 (Central Daylight Time),270123.39999985695,A,a,O,a,178,1,183.5,269939.89999985695,7005,WL,A,10.0
2,12.858999967575073,learn,47141.00003242493,Fri Aug 02 2024 13:44:50 GMT-0500 (Central Daylight Time),270224.39999985695,A,ap,O,p,88,1,284.5,269939.89999985695,7005,WL,A,10.0
2,13.042999982833862,learn,46957.00001716614,Fri Aug 02 2024 13:44:50 GMT-0500 (Central Daylight Time),270407.7000000477,A,app,O,p,158,1,467.80000019073486,269939.89999985695,7005,WL,A,10.0
2,13.193000078201294,learn,46806.999921798706,Fri Aug 02 2024 13:44:50 GMT-0500 (Central Daylight Time),270557.89999985695,A,appl,O,l,138,1,618.0,269939.89999985695,7005,WL,A,10.0
2,13.277000188827515,learn,46722.999811172485,Fri Aug 02 2024 13:44:50 GMT-0500 (Central Daylight Time),270642.2999999523,A,apple,O,e,57,1,702.4000000953674,269939.89999985695,7005,WL,A,10.0
2,13.610000133514404,learn,46389.999866485596,Fri Aug 02 2024 13:44:50 GMT-0500 (Central Daylight Time),270975.0,A,appleenter,O,enter,320,1,1035.1000001430511,269939.89999985695,7005,WL,A,10.0
2,14.09500002861023,learn,45904.99997138977,Fri Aug 02 2024 13:44:50 GMT-0500 (Central Daylight Time),271460.0,A,l,O,l,471,1,484.60000014305115,270975.39999985695,7005,WL,A,11.0
2,14.279000043869019,learn,45720.99995613098,Fri Aug 02 2024 13:44:50 GMT-0500 (Central Daylight Time),271643.59999990463,A,lo,O,o,166,1,668.2000000476837,270975.39999985695,7005,WL,A,11.0
2,14.361999988555908,learn,45638.00001144409,Fri Aug 02 2024 13:44:50 GMT-0500 (Central Daylight Time),271726.89999985695,A,log,O,g,60,1,751.5,270975.39999985695,7005,WL,A,11.0
2,14.628000020980835,learn,45371.999979019165,Fri Aug 02 2024 13:44:50 GMT-0500 (Central Daylight Time),271993.39999985695,A,logenter,O,enter,242,1,1018.0,270975.39999985695,7005,WL,A,11.0
2,16.14900016784668,learn,43850.99983215332,Fri Aug 02 2024 13:44:50 GMT-0500 (Central Daylight Time),273514.5,A,k,O,k,1510,1,1520.9000000953674,271993.59999990463,7005,WL,A,12.0
2,16.249000072479248,learn,43750.99992752075,Fri Aug 02 2024 13:44:50 GMT-0500 (Central Daylight Time),273614.09999990463,A,ke,O,e,85,1,1620.5,271993.59999990463,7005,WL,A,12.0
2,16.41600012779236,learn,43583.99987220764,Fri Aug 02 2024 13:44:50 GMT-0500 (Central Daylight Time),273781.09999990463,A,key,O,y,148,1,1787.5,271993.59999990463,7005,WL,A,12.0
2,16.81599998474121,learn,43184.00001525879,Fri Aug 02 2024 13:44:50 GMT-0500 (Central Daylight Time),274181.39999985695,A,keyenter,O,enter,390,1,2187.7999999523163,271993.59999990463,7005,WL,A,12.0
2,17.18400001525879,learn,42815.99998474121,Fri Aug 02 2024 13:44:50 GMT-0500 (Central Daylight Time),274548.89999985695,A,g,O,g,352,1,367.19999980926514,274181.7000000477,7005,WL,A,13.0
2,17.217000007629395,learn,42782.999992370605,Fri Aug 02 2024 13:44:50 GMT-0500 (Central Daylight Time),274581.59999990463,A,go,O,o,16,1,399.89999985694885,274181.7000000477,7005,WL,A,13.0
2,17.43500018119812,learn,42564.99981880188,Fri Aug 02 2024 13:44:50 GMT-0500 (Central Daylight Time),274799.59999990463,A,gol,O,l,200,1,617.8999998569489,274181.7000000477,7005,WL,A,13.0
2,17.51800012588501,learn,42481.99987411499,Fri Aug 02 2024 13:44:50 GMT-0500 (Central Daylight Time),274883.09999990463,A,gold,O,d,55,1,701.3999998569489,274181.7000000477,7005,WL,A,13.0
2,18.052000045776367,learn,41947.99995422363,Fri Aug 02 2024 13:44:50 GMT-0500 (Central Daylight Time),275417.09999990463,A,goldenter,O,enter,519,1,1235.3999998569489,274181.7000000477,7005,WL,A,13.0
2,18.337000131607056,learn,41662.999868392944,Fri Aug 02 2024 13:44:50 GMT-0500 (Central Daylight Time),275702.5,A,r,O,r,269,1,285.0,275417.5,7005,WL,A,14.0
2,18.386000156402588,learn,41613.99984359741,Fri Aug 02 2024 13:44:50 GMT-0500 (Central Daylight Time),275751.0,A,ra,O,a,35,1,333.5,275417.5,7005,WL,A,14.0
2,18.687999963760376,learn,41312.000036239624,Fri Aug 02 2024 13:44:50 GMT-0500 (Central Daylight Time),276053.0,A,rat,O,t,284,1,635.5,275417.5,7005,WL,A,14.0
2,18.90400004386902,learn,41095.99995613098,Fri Aug 02 2024 13:44:50 GMT-0500 (Central Daylight Time),276269.09999990463,A,ratt,O,t,198,1,851.5999999046326,275417.5,7005,WL,A,14.0
2,19.40499997138977,learn,40595.00002861023,Fri Aug 02 2024 13:44:50 GMT-0500 (Central Daylight Time),276770.09999990463,A,rattl,O,l,478,1,1352.5999999046326,275417.5,7005,WL,A,14.0
2,19.505000114440918,learn,40494.99988555908,Fri Aug 02 2024 13:44:50 GMT-0500 (Central Daylight Time),276869.89999985695,A,rattle,O,e,83,1,1452.3999998569489,275417.5,7005,WL,A,14.0
2,19.9060001373291,learn,40093.9998626709,Fri Aug 02 2024 13:44:50 GMT-0500 (Central Daylight Time),277270.7000000477,A,rattleenter,O,enter,389,1,1853.2000000476837,275417.5,7005,WL,A,14.0
2,49.27999997138977,learn,10720.00002861023,Fri Aug 02 2024 13:44:50 GMT-0500 (Central Daylight Time),306644.39999985695,A,enter,O,enter,29359,1,29373.39999985695,277271.0,7005,WL,A,15.0
3,1.1180000305175781,learn,58881.99996948242,Fri Aug 02 2024 13:44:50 GMT-0500 (Central Daylight Time),374627.09999990463,A,b,O,b,1096,1,1118.2000000476837,373508.89999985695,7005,WL,A,1.0
3,1.5189998149871826,learn,58481.00018501282,Fri Aug 02 2024 13:44:50 GMT-0500 (Central Daylight Time),375027.7999999523,A,bo,O,o,385,1,1518.9000000953674,373508.89999985695,7005,WL,A,1.0
3,1.6699998378753662,learn,58330.000162124634,Fri Aug 02 2024 13:44:50 GMT-0500 (Central Daylight Time),375178.5,A,boo,O,o,127,1,1669.6000001430511,373508.89999985695,7005,WL,A,1.0
3,2.304999828338623,learn,57695.00017166138,Fri Aug 02 2024 13:44:50 GMT-0500 (Central Daylight Time),375814.09999990463,A,book,O,k,627,1,2305.2000000476837,373508.89999985695,7005,WL,A,1.0
3,2.921999931335449,learn,57078.00006866455,Fri Aug 02 2024 13:44:50 GMT-0500 (Central Daylight Time),376430.39999985695,A,bookenter,O,enter,597,1,2921.5,373508.89999985695,7005,WL,A,1.0
3,3.172999858856201,learn,56827.0001411438,Fri Aug 02 2024 13:44:50 GMT-0500 (Central Daylight Time),376681.5,A,f,O,f,241,1,250.90000009536743,376430.59999990463,7005,WL,A,2.0
3,3.238999843597412,learn,56761.00015640259,Fri Aug 02 2024 13:44:50 GMT-0500 (Central Daylight Time),376748.0,A,fl,O,l,58,1,317.40000009536743,376430.59999990463,7005,WL,A,2.0
3,3.43999981880188,learn,56560.00018119812,Fri Aug 02 2024 13:44:50 GMT-0500 (Central Daylight Time),376948.59999990463,A,flo,O,o,183,1,518.0,376430.59999990463,7005,WL,A,2.0
3,3.5230000019073486,learn,56476.99999809265,Fri Aug 02 2024 13:44:50 GMT-0500 (Central Daylight Time),377031.5,A,flow,O,w,62,1,600.9000000953674,376430.59999990463,7005,WL,A,2.0
3,3.555999994277954,learn,56444.000005722046,Fri Aug 02 2024 13:44:50 GMT-0500 (Central Daylight Time),377064.59999990463,A,flowe,O,e,18,1,634.0,376430.59999990463,7005,WL,A,2.0
3,3.5889999866485596,learn,56411.00001335144,Fri Aug 02 2024 13:44:50 GMT-0500 (Central Daylight Time),377097.89999985695,A,flower,O,r,19,1,667.2999999523163,376430.59999990463,7005,WL,A,2.0
3,3.990999937057495,learn,56009.000062942505,Fri Aug 02 2024 13:44:50 GMT-0500 (Central Daylight Time),377499.59999990463,A,flowerenter,O,enter,378,1,1069.0,376430.59999990463,7005,WL,A,2.0
3,4.941999912261963,learn,55058.00008773804,Fri Aug 02 2024 13:44:50 GMT-0500 (Central Daylight Time),378451.2999999523,A,t,O,t,931,1,951.4000000953674,377499.89999985695,7005,WL,A,3.0
3,5.125999927520752,learn,54874.00007247925,Fri Aug 02 2024 13:44:50 GMT-0500 (Central Daylight Time),378635.39999985695,A,tr,O,r,161,1,1135.5,377499.89999985695,7005,WL,A,3.0
3,5.175999879837036,learn,54824.000120162964,Fri Aug 02 2024 13:44:50 GMT-0500 (Central Daylight Time),378684.5,A,tra,O,a,32,1,1184.6000001430511,377499.89999985695,7005,WL,A,3.0
3,5.276000022888184,learn,54723.99997711182,Fri Aug 02 2024 13:44:50 GMT-0500 (Central Daylight Time),378784.89999985695,A,trai,O,i,79,1,1285.0,377499.89999985695,7005,WL,A,3.0
3,5.3429999351501465,learn,54657.00006484985,Fri Aug 02 2024 13:44:50 GMT-0500 (Central Daylight Time),378851.7999999523,A,train,O,n,59,1,1351.9000000953674,377499.89999985695,7005,WL,A,3.0
3,5.7779998779296875,learn,54222.00012207031,Fri Aug 02 2024 13:44:50 GMT-0500 (Central Daylight Time),379286.7999999523,A,trainenter,O,enter,423,1,1786.9000000953674,377499.89999985695,7005,WL,A,3.0
3,6.044999837875366,learn,53955.000162124634,Fri Aug 02 2024 13:44:50 GMT-0500 (Central Daylight Time),379553.5,A,m,O,m,255,1,266.5,379287.0,7005,WL,A,4.0
3,6.16100001335144,learn,53838.99998664856,Fri Aug 02 2024 13:44:50 GMT-0500 (Central Daylight Time),379670.09999990463,A,me,O,e,99,1,383.09999990463257,379287.0,7005,WL,A,4.0
3,6.194999933242798,learn,53805.0000667572,Fri Aug 02 2024 13:44:50 GMT-0500 (Central Daylight Time),379703.5,A,mea,O,a,12,1,416.5,379287.0,7005,WL,A,4.0
3,6.361999988555908,learn,53638.00001144409,Fri Aug 02 2024 13:44:50 GMT-0500 (Central Daylight Time),379870.89999985695,A,mead,O,d,148,1,583.8999998569489,379287.0,7005,WL,A,4.0
3,6.478999853134155,learn,53521.000146865845,Fri Aug 02 2024 13:44:50 GMT-0500 (Central Daylight Time),379987.2999999523,A,meado,O,o,92,1,700.2999999523163,379287.0,7005,WL,A,4.0
3,6.995999813079834,learn,53004.000186920166,Fri Aug 02 2024 13:44:50 GMT-0500 (Central Daylight Time),380505.2000000477,A,meadow,O,w,497,1,1218.2000000476837,379287.0,7005,WL,A,4.0
3,7.197000026702881,learn,52802.99997329712,Fri Aug 02 2024 13:44:50 GMT-0500 (Central Daylight Time),380705.7000000477,A,meadowenter,O,enter,186,1,1418.7000000476837,379287.0,7005,WL,A,4.0
3,7.430999994277954,learn,52569.000005722046,Fri Aug 02 2024 13:44:50 GMT-0500 (Central Daylight Time),380939.89999985695,A,r,O,r,212,1,233.79999995231628,380706.09999990463,7005,WL,A,5.0
3,7.5309998989105225,learn,52469.00010108948,Fri Aug 02 2024 13:44:50 GMT-0500 (Central Daylight Time),381039.39999985695,A,ru,O,u,79,1,333.2999999523163,380706.09999990463,7005,WL,A,5.0
3,7.648999929428101,learn,52351.0000705719,Fri Aug 02 2024 13:44:50 GMT-0500 (Central Daylight Time),381157.5,A,rug,O,g,108,1,451.40000009536743,380706.09999990463,7005,WL,A,5.0
3,7.914000034332275,learn,52085.999965667725,Fri Aug 02 2024 13:44:50 GMT-0500 (Central Daylight Time),381423.2000000477,A,rugenter,O,enter,247,1,717.1000001430511,380706.09999990463,7005,WL,A,5.0
3,10.619999885559082,learn,49380.00011444092,Fri Aug 02 2024 13:44:50 GMT-0500 (Central Daylight Time),384129.2999999523,A,t,O,t,2688,1,2705.7999999523163,381423.5,7005,WL,A,6.0
3,10.937000036239624,learn,49062.999963760376,Fri Aug 02 2024 13:44:50 GMT-0500 (Central Daylight Time),384446.39999985695,A,,O,backspace,308,1,3022.899999856949,381423.5,7005,WL,A,6.0
3,11.120999813079834,learn,48879.000186920166,Fri Aug 02 2024 13:44:50 GMT-0500 (Central Daylight Time),384629.7999999523,A,h,O,h,173,1,3206.2999999523163,381423.5,7005,WL,A,6.0
3,11.23799991607666,learn,48762.00008392334,Fri Aug 02 2024 13:44:50 GMT-0500 (Central Daylight Time),384747.09999990463,A,ha,O,a,101,1,3323.5999999046326,381423.5,7005,WL,A,6.0
3,11.253999948501587,learn,48746.00005149841,Fri Aug 02 2024 13:44:50 GMT-0500 (Central Daylight Time),384762.59999990463,A,har,O,r,0,1,3339.0999999046326,381423.5,7005,WL,A,6.0
3,11.455999851226807,learn,48544.00014877319,Fri Aug 02 2024 13:44:50 GMT-0500 (Central Daylight Time),384964.2999999523,A,hart,O,t,182,1,3540.7999999523163,381423.5,7005,WL,A,6.0
3,11.938999891281128,learn,48061.00010871887,Fri Aug 02 2024 13:44:50 GMT-0500 (Central Daylight Time),385448.2000000477,A,har,O,backspace,464,1,4024.7000000476837,381423.5,7005,WL,A,6.0
3,12.18999981880188,learn,47810.00018119812,Fri Aug 02 2024 13:44:50 GMT-0500 (Central Daylight Time),385698.2999999523,A,harp,O,p,226,1,4274.799999952316,381423.5,7005,WL,A,6.0
3,12.809000015258789,learn,47190.99998474121,Fri Aug 02 2024 13:44:50 GMT-0500 (Central Daylight Time),386317.59999990463,A,harpenter,O,enter,610,1,4894.099999904633,381423.5,7005,WL,A,6.0
3,13.074999809265137,learn,46925.00019073486,Fri Aug 02 2024 13:44:50 GMT-0500 (Central Daylight Time),386584.0,A,s,O,s,250,1,266.2000000476837,386317.7999999523,7005,WL,A,7.0
3,13.174999952316284,learn,46825.000047683716,Fri Aug 02 2024 13:44:50 GMT-0500 (Central Daylight Time),386684.2000000477,A,sa,O,a,83,1,366.40000009536743,386317.7999999523,7005,WL,A,7.0
3,13.258999824523926,learn,46741.000175476074,Fri Aug 02 2024 13:44:50 GMT-0500 (Central Daylight Time),386767.2999999523,A,sal,O,l,63,1,449.5,386317.7999999523,7005,WL,A,7.0
3,13.743000030517578,learn,46256.99996948242,Fri Aug 02 2024 13:44:50 GMT-0500 (Central Daylight Time),387251.89999985695,A,salt,O,t,461,1,934.0999999046326,386317.7999999523,7005,WL,A,7.0
3,14.042999982833862,learn,45957.00001716614,Fri Aug 02 2024 13:44:50 GMT-0500 (Central Daylight Time),387551.7999999523,A,saltenter,O,enter,288,1,1234.0,386317.7999999523,7005,WL,A,7.0
3,14.343999862670898,learn,45656.0001373291,Fri Aug 02 2024 13:44:50 GMT-0500 (Central Daylight Time),387852.7000000477,A,f,O,f,295,1,300.7000000476837,387552.0,7005,WL,A,8.0
3,14.444999933242798,learn,45555.0000667572,Fri Aug 02 2024 13:44:50 GMT-0500 (Central Daylight Time),387953.2999999523,A,fi,O,i,79,1,401.2999999523163,387552.0,7005,WL,A,8.0
3,14.510999917984009,learn,45489.00008201599,Fri Aug 02 2024 13:44:50 GMT-0500 (Central Daylight Time),388019.7999999523,A,fin,O,n,50,1,467.7999999523163,387552.0,7005,WL,A,8.0
3,14.76199984550476,learn,45238.00015449524,Fri Aug 02 2024 13:44:50 GMT-0500 (Central Daylight Time),388270.7000000477,A,fing,O,g,231,1,718.7000000476837,387552.0,7005,WL,A,8.0
3,14.911999940872192,learn,45088.00005912781,Fri Aug 02 2024 13:44:50 GMT-0500 (Central Daylight Time),388420.2999999523,A,finge,O,e,132,1,868.2999999523163,387552.0,7005,WL,A,8.0
3,14.944999933242798,learn,45055.0000667572,Fri Aug 02 2024 13:44:50 GMT-0500 (Central Daylight Time),388453.5,A,finger,O,r,22,1,901.5,387552.0,7005,WL,A,8.0
3,15.679999828338623,learn,44320.00017166138,Fri Aug 02 2024 13:44:50 GMT-0500 (Central Daylight Time),389188.5,A,fingerenter,O,enter,727,1,1636.5,387552.0,7005,WL,A,8.0
3,16.597999811172485,learn,43402.000188827515,Fri Aug 02 2024 13:44:50 GMT-0500 (Central Daylight Time),390106.89999985695,A,c,O,c,898,1,918.1999998092651,389188.7000000477,7005,WL,A,9.0
3,16.64800000190735,learn,43351.99999809265,Fri Aug 02 2024 13:44:50 GMT-0500 (Central Daylight Time),390157.0,A,ch,O,h,33,1,968.2999999523163,389188.7000000477,7005,WL,A,9.0
3,16.71499991416931,learn,43285.00008583069,Fri Aug 02 2024 13:44:50 GMT-0500 (Central Daylight Time),390224.09999990463,A,chi,O,i,54,1,1035.3999998569489,389188.7000000477,7005,WL,A,9.0
3,17.282999992370605,learn,42717.000007629395,Fri Aug 02 2024 13:44:50 GMT-0500 (Central Daylight Time),390792.5,A,chim,O,m,556,1,1603.7999999523163,389188.7000000477,7005,WL,A,9.0
3,17.58399987220764,learn,42416.00012779236,Fri Aug 02 2024 13:44:50 GMT-0500 (Central Daylight Time),391092.7999999523,A,chimn,O,n,283,1,1904.0999999046326,389188.7000000477,7005,WL,A,9.0
3,17.699999809265137,learn,42300.00019073486,Fri Aug 02 2024 13:44:50 GMT-0500 (Central Daylight Time),391209.09999990463,A,chimne,O,e,102,1,2020.3999998569489,389188.7000000477,7005,WL,A,9.0
3,17.76799988746643,learn,42232.00011253357,Fri Aug 02 2024 13:44:50 GMT-0500 (Central Daylight Time),391276.2999999523,A,chimney,O,y,50,1,2087.5999999046326,389188.7000000477,7005,WL,A,9.0
3,18.35099983215332,learn,41649.00016784668,Fri Aug 02 2024 13:44:50 GMT-0500 (Central Daylight Time),391860.2000000477,A,chimneyenter,O,enter,566,1,2671.5,389188.7000000477,7005,WL,A,9.0
3,18.53499984741211,learn,41465.00015258789,Fri Aug 02 2024 13:44:50 GMT-0500 (Central Daylight Time),392044.09999990463,A,a,O,a,179,1,183.59999990463257,391860.5,7005,WL,A,10.0
3,18.651999950408936,learn,41348.000049591064,Fri Aug 02 2024 13:44:50 GMT-0500 (Central Daylight Time),392161.2000000477,A,ap,O,p,104,1,300.7000000476837,391860.5,7005,WL,A,10.0
3,18.667999982833862,learn,41332.00001716614,Fri Aug 02 2024 13:44:50 GMT-0500 (Central Daylight Time),392176.89999985695,A,apo,O,o,0,1,316.39999985694885,391860.5,7005,WL,A,10.0
3,19.253999948501587,learn,40746.00005149841,Fri Aug 02 2024 13:44:50 GMT-0500 (Central Daylight Time),392762.7000000477,A,ap,O,backspace,576,1,902.2000000476837,391860.5,7005,WL,A,10.0
3,19.65499997138977,learn,40345.00002861023,Fri Aug 02 2024 13:44:50 GMT-0500 (Central Daylight Time),393163.7000000477,A,app,O,p,375,1,1303.2000000476837,391860.5,7005,WL,A,10.0
3,19.85599994659424,learn,40144.00005340576,Fri Aug 02 2024 13:44:50 GMT-0500 (Central Daylight Time),393364.39999985695,A,appl,O,l,184,1,1503.8999998569489,391860.5,7005,WL,A,10.0
3,19.954999923706055,learn,40045.000076293945,Fri Aug 02 2024 13:44:50 GMT-0500 (Central Daylight Time),393463.59999990463,A,apple,O,e,78,1,1603.0999999046326,391860.5,7005,WL,A,10.0
3,20.405999898910522,learn,39594.00010108948,Fri Aug 02 2024 13:44:50 GMT-0500 (Central Daylight Time),393914.7999999523,A,appleenter,O,enter,436,1,2054.2999999523163,391860.5,7005,WL,A,10.0
3,21.47499990463257,learn,38525.00009536743,Fri Aug 02 2024 13:44:50 GMT-0500 (Central Daylight Time),394984.2999999523,A,l,O,l,1059,1,1069.2000000476837,393915.09999990463,7005,WL,A,11.0
3,21.625999927520752,learn,38374.00007247925,Fri Aug 02 2024 13:44:50 GMT-0500 (Central Daylight Time),395134.89999985695,A,lo,O,o,139,1,1219.7999999523163,393915.09999990463,7005,WL,A,11.0
3,21.758999824523926,learn,38241.000175476074,Fri Aug 02 2024 13:44:50 GMT-0500 (Central Daylight Time),395267.5,A,log,O,g,109,1,1352.4000000953674,393915.09999990463,7005,WL,A,11.0
3,21.97499990463257,learn,38025.00009536743,Fri Aug 02 2024 13:44:50 GMT-0500 (Central Daylight Time),395484.0,A,logenter,O,enter,200,1,1568.9000000953674,393915.09999990463,7005,WL,A,11.0
3,22.20899987220764,learn,37791.00012779236,Fri Aug 02 2024 13:44:50 GMT-0500 (Central Daylight Time),395718.39999985695,A,b,O,b,219,1,234.19999980926514,395484.2000000477,7005,WL,A,12.0
3,22.325999975204468,learn,37674.00002479553,Fri Aug 02 2024 13:44:50 GMT-0500 (Central Daylight Time),395834.59999990463,A,bu,O,u,102,1,350.39999985694885,395484.2000000477,7005,WL,A,12.0
3,22.526999950408936,learn,37473.000049591064,Fri Aug 02 2024 13:44:50 GMT-0500 (Central Daylight Time),396035.7999999523,A,but,O,t,183,1,551.5999999046326,395484.2000000477,7005,WL,A,12.0
3,22.66100001335144,learn,37338.99998664856,Fri Aug 02 2024 13:44:50 GMT-0500 (Central Daylight Time),396169.39999985695,A,butt,O,t,125,1,685.1999998092651,395484.2000000477,7005,WL,A,12.0
3,22.76099991798401,learn,37239.00008201599,Fri Aug 02 2024 13:44:50 GMT-0500 (Central Daylight Time),396269.59999990463,A,butto,O,o,90,1,785.3999998569489,395484.2000000477,7005,WL,A,12.0
3,22.792999982833862,learn,37207.00001716614,Fri Aug 02 2024 13:44:50 GMT-0500 (Central Daylight Time),396302.09999990463,A,button,O,n,21,1,817.8999998569489,395484.2000000477,7005,WL,A,12.0
3,23.26099991798401,learn,36739.00008201599,Fri Aug 02 2024 13:44:50 GMT-0500 (Central Daylight Time),396769.7999999523,A,buttonenter,O,enter,454,1,1285.5999999046326,395484.2000000477,7005,WL,A,12.0
3,23.495999813079834,learn,36504.000186920166,Fri Aug 02 2024 13:44:50 GMT-0500 (Central Daylight Time),397004.7000000477,A,k,O,k,221,1,234.60000014305115,396770.09999990463,7005,WL,A,13.0
3,23.59500002861023,learn,36404.99997138977,Fri Aug 02 2024 13:44:50 GMT-0500 (Central Daylight Time),397104.0,A,ke,O,e,76,1,333.90000009536743,396770.09999990463,7005,WL,A,13.0
3,23.847999811172485,learn,36152.000188827515,Fri Aug 02 2024 13:44:50 GMT-0500 (Central Daylight Time),397356.59999990463,A,key,O,y,245,1,586.5,396770.09999990463,7005,WL,A,13.0
3,25.063999891281128,learn,34936.00010871887,Fri Aug 02 2024 13:44:50 GMT-0500 (Central Daylight Time),398572.89999985695,A,keyenter,O,enter,1199,1,1802.7999999523163,396770.09999990463,7005,WL,A,13.0
3,26.132999897003174,learn,33867.000102996826,Fri Aug 02 2024 13:44:50 GMT-0500 (Central Daylight Time),399642.2000000477,A,g,O,g,1057,1,1069.0,398573.2000000477,7005,WL,A,14.0
3,26.199999809265137,learn,33800.00019073486,Fri Aug 02 2024 13:44:50 GMT-0500 (Central Daylight Time),399709.2000000477,A,go,O,o,60,1,1136.0,398573.2000000477,7005,WL,A,14.0
3,26.383999824523926,learn,33616.000175476074,Fri Aug 02 2024 13:44:50 GMT-0500 (Central Daylight Time),399892.7999999523,A,gol,O,l,175,1,1319.5999999046326,398573.2000000477,7005,WL,A,14.0
3,26.467000007629395,learn,33532.999992370605,Fri Aug 02 2024 13:44:50 GMT-0500 (Central Daylight Time),399976.0,A,gold,O,d,71,1,1402.7999999523163,398573.2000000477,7005,WL,A,14.0
3,26.733999967575073,learn,33266.00003242493,Fri Aug 02 2024 13:44:50 GMT-0500 (Central Daylight Time),400243.09999990463,A,goldenter,O,enter,251,1,1669.8999998569489,398573.2000000477,7005,WL,A,14.0
3,27.03600001335144,learn,32963.99998664856,Fri Aug 02 2024 13:44:50 GMT-0500 (Central Daylight Time),400544.5,A,r,O,r,283,1,301.10000014305115,400243.39999985695,7005,WL,A,15.0
3,27.11899995803833,learn,32881.00004196167,Fri Aug 02 2024 13:44:50 GMT-0500 (Central Daylight Time),400628.09999990463,A,ra,O,a,76,1,384.7000000476837,400243.39999985695,7005,WL,A,15.0
3,27.268999814987183,learn,32731.000185012817,Fri Aug 02 2024 13:44:50 GMT-0500 (Central Daylight Time),400777.89999985695,A,rat,O,t,129,1,534.5,400243.39999985695,7005,WL,A,15.0
3,27.45299983024597,learn,32547.00016975403,Fri Aug 02 2024 13:44:50 GMT-0500 (Central Daylight Time),400961.5,A,ratt,O,t,162,1,718.1000001430511,400243.39999985695,7005,WL,A,15.0
3,27.53600001335144,learn,32463.99998664856,Fri Aug 02 2024 13:44:50 GMT-0500 (Central Daylight Time),401045.0,A,rattl,O,l,67,1,801.6000001430511,400243.39999985695,7005,WL,A,15.0
3,27.619999885559082,learn,32380.000114440918,Fri Aug 02 2024 13:44:50 GMT-0500 (Central Daylight Time),401128.7000000477,A,rattle,O,e,62,1,885.3000001907349,400243.39999985695,7005,WL,A,15.0
3,27.986999988555908,learn,32013.00001144409,Fri Aug 02 2024 13:44:50 GMT-0500 (Central Daylight Time),401495.7000000477,A,rattleenter,O,enter,354,1,1252.3000001907349,400243.39999985695,7005,WL,A,15.0
4,0.7840001583099365,learn,59215.99984169006,Fri Aug 02 2024 13:44:50 GMT-0500 (Central Daylight Time),468777.7999999523,A,b,O,b,762,1,784.0,467993.7999999523,7005,WL,A,1.0
4,0.9180002212524414,learn,59081.99977874756,Fri Aug 02 2024 13:44:50 GMT-0500 (Central Daylight Time),468911.89999985695,A,bo,O,o,114,1,918.0999999046326,467993.7999999523,7005,WL,A,1.0
4,1.067000150680542,learn,58932.99984931946,Fri Aug 02 2024 13:44:50 GMT-0500 (Central Daylight Time),469061.09999990463,A,boo,O,o,140,1,1067.2999999523163,467993.7999999523,7005,WL,A,1.0
4,1.2160000801086426,learn,58783.99991989136,Fri Aug 02 2024 13:44:50 GMT-0500 (Central Daylight Time),469210.09999990463,A,book,O,k,142,1,1216.2999999523163,467993.7999999523,7005,WL,A,1.0
4,1.9520001411437988,learn,58047.9998588562,Fri Aug 02 2024 13:44:50 GMT-0500 (Central Daylight Time),469946.2000000477,A,bookenter,O,enter,725,1,1952.4000000953674,467993.7999999523,7005,WL,A,1.0
4,2.1700000762939453,learn,57829.999923706055,Fri Aug 02 2024 13:44:50 GMT-0500 (Central Daylight Time),470163.39999985695,A,f,O,f,204,1,217.0,469946.39999985695,7005,WL,A,2.0
4,2.3030002117156982,learn,57696.9997882843,Fri Aug 02 2024 13:44:50 GMT-0500 (Central Daylight Time),470296.2000000477,A,fl,O,l,112,1,349.80000019073486,469946.39999985695,7005,WL,A,2.0
4,2.4700000286102295,learn,57529.99997138977,Fri Aug 02 2024 13:44:50 GMT-0500 (Central Daylight Time),470463.2999999523,A,flo,O,o,155,1,516.9000000953674,469946.39999985695,7005,WL,A,2.0
4,2.570000171661377,learn,57429.99982833862,Fri Aug 02 2024 13:44:50 GMT-0500 (Central Daylight Time),470564.09999990463,A,flow,O,w,94,1,617.7000000476837,469946.39999985695,7005,WL,A,2.0
4,2.621000051498413,learn,57378.99994850159,Fri Aug 02 2024 13:44:50 GMT-0500 (Central Daylight Time),470615.0,A,flowe,O,e,37,1,668.6000001430511,469946.39999985695,7005,WL,A,2.0
4,2.6530001163482666,learn,57346.99988365173,Fri Aug 02 2024 13:44:50 GMT-0500 (Central Daylight Time),470646.7000000477,A,flower,O,r,19,1,700.3000001907349,469946.39999985695,7005,WL,A,2.0
4,3.004000186920166,learn,56995.999813079834,Fri Aug 02 2024 13:44:50 GMT-0500 (Central Daylight Time),470997.2999999523,A,flowerenter,O,enter,334,1,1050.9000000953674,469946.39999985695,7005,WL,A,2.0
4,3.255000114440918,learn,56744.99988555908,Fri Aug 02 2024 13:44:50 GMT-0500 (Central Daylight Time),471249.0,A,t,O,t,241,1,251.29999995231628,470997.7000000477,7005,WL,A,3.0
4,3.455000162124634,learn,56544.999837875366,Fri Aug 02 2024 13:44:50 GMT-0500 (Central Daylight Time),471449.2000000477,A,tr,O,r,187,1,451.5,470997.7000000477,7005,WL,A,3.0
4,3.5210001468658447,learn,56478.999853134155,Fri Aug 02 2024 13:44:50 GMT-0500 (Central Daylight Time),471515.09999990463,A,tra,O,a,50,1,517.3999998569489,470997.7000000477,7005,WL,A,3.0
4,3.639000177383423,learn,56360.99982261658,Fri Aug 02 2024 13:44:50 GMT-0500 (Central Daylight Time),471632.39999985695,A,trai,O,i,93,1,634.6999998092651,470997.7000000477,7005,WL,A,3.0
4,3.688000202178955,learn,56311.999797821045,Fri Aug 02 2024 13:44:50 GMT-0500 (Central Daylight Time),471682.09999990463,A,train,O,n,33,1,684.3999998569489,470997.7000000477,7005,WL,A,3.0
4,4.6570000648498535,learn,55342.99993515015,Fri Aug 02 2024 13:44:50 GMT-0500 (Central Daylight Time),472650.59999990463,A,trainenter,O,enter,952,1,1652.8999998569489,470997.7000000477,7005,WL,A,3.0
4,5.843000173568726,learn,54156.999826431274,Fri Aug 02 2024 13:44:50 GMT-0500 (Central Daylight Time),473836.7999999523,A,r,O,r,1172,1,1185.9000000953674,472650.89999985695,7005,WL,A,4.0
4,6.093000173568726,learn,53906.999826431274,Fri Aug 02 2024 13:44:50 GMT-0500 (Central Daylight Time),474087.09999990463,A,ru,O,u,231,1,1436.2000000476837,472650.89999985695,7005,WL,A,4.0
4,6.210000038146973,learn,53789.99996185303,Fri Aug 02 2024 13:44:50 GMT-0500 (Central Daylight Time),474203.89999985695,A,rug,O,g,100,1,1553.0,472650.89999985695,7005,WL,A,4.0
4,6.428000211715698,learn,53571.9997882843,Fri Aug 02 2024 13:44:50 GMT-0500 (Central Daylight Time),474422.09999990463,A,rugenter,O,enter,200,1,1771.2000000476837,472650.89999985695,7005,WL,A,4.0
4,6.628000020980835,learn,53371.999979019165,Fri Aug 02 2024 13:44:50 GMT-0500 (Central Daylight Time),474621.7999999523,A,m,O,m,184,1,199.5,474422.2999999523,7005,WL,A,5.0
4,6.695000171661377,learn,53304.99982833862,Fri Aug 02 2024 13:44:50 GMT-0500 (Central Daylight Time),474688.39999985695,A,me,O,e,54,1,266.09999990463257,474422.2999999523,7005,WL,A,5.0
4,6.76200008392334,learn,53237.99991607666,Fri Aug 02 2024 13:44:50 GMT-0500 (Central Daylight Time),474755.2999999523,A,mea,O,a,51,1,333.0,474422.2999999523,7005,WL,A,5.0
4,6.979000091552734,learn,53020.999908447266,Fri Aug 02 2024 13:44:50 GMT-0500 (Central Daylight Time),474972.59999990463,A,mead,O,d,209,1,550.2999999523163,474422.2999999523,7005,WL,A,5.0
4,7.062000036239624,learn,52937.999963760376,Fri Aug 02 2024 13:44:50 GMT-0500 (Central Daylight Time),475056.2999999523,A,meado,O,o,68,1,634.0,474422.2999999523,7005,WL,A,5.0
4,7.196000099182129,learn,52803.99990081787,Fri Aug 02 2024 13:44:50 GMT-0500 (Central Daylight Time),475189.5,A,meadow,O,w,114,1,767.2000000476837,474422.2999999523,7005,WL,A,5.0
4,7.663000106811523,learn,52336.99989318848,Fri Aug 02 2024 13:44:50 GMT-0500 (Central Daylight Time),475656.59999990463,A,meadowenter,O,enter,454,1,1234.2999999523163,474422.2999999523,7005,WL,A,5.0
4,8.64900016784668,learn,51350.99983215332,Fri Aug 02 2024 13:44:50 GMT-0500 (Central Daylight Time),476642.7000000477,A,h,O,h,965,1,985.9000000953674,475656.7999999523,7005,WL,A,6.0
4,8.73200011253357,learn,51267.99988746643,Fri Aug 02 2024 13:44:50 GMT-0500 (Central Daylight Time),476726.2999999523,A,ha,O,a,72,1,1069.5,475656.7999999523,7005,WL,A,6.0
4,8.782000064849854,learn,51217.99993515015,Fri Aug 02 2024 13:44:50 GMT-0500 (Central Daylight Time),476775.2999999523,A,har,O,r,35,1,1118.5,475656.7999999523,7005,WL,A,6.0
4,9.168000221252441,learn,50831.99977874756,Fri Aug 02 2024 13:44:50 GMT-0500 (Central Daylight Time),477161.39999985695,A,harp,O,p,366,1,1504.5999999046326,475656.7999999523,7005,WL,A,6.0
4,9.383000135421753,learn,50616.99986457825,Fri Aug 02 2024 13:44:50 GMT-0500 (Central Daylight Time),477376.89999985695,A,harpenter,O,enter,201,1,1720.0999999046326,475656.7999999523,7005,WL,A,6.0
4,9.633000135421753,learn,50366.99986457825,Fri Aug 02 2024 13:44:50 GMT-0500 (Central Daylight Time),477627.2000000477,A,s,O,s,245,1,250.10000014305115,477377.09999990463,7005,WL,A,7.0
4,9.701000213623047,learn,50298.99978637695,Fri Aug 02 2024 13:44:50 GMT-0500 (Central Daylight Time),477694.2999999523,A,sa,O,a,49,1,317.2000000476837,477377.09999990463,7005,WL,A,7.0
4,9.835000038146973,learn,50164.99996185303,Fri Aug 02 2024 13:44:50 GMT-0500 (Central Daylight Time),477829.2999999523,A,sal,O,l,117,1,452.2000000476837,477377.09999990463,7005,WL,A,7.0
4,9.985000133514404,learn,50014.999866485596,Fri Aug 02 2024 13:44:50 GMT-0500 (Central Daylight Time),477978.5,A,salt,O,t,135,1,601.4000000953674,477377.09999990463,7005,WL,A,7.0
4,10.302000045776367,learn,49697.99995422363,Fri Aug 02 2024 13:44:50 GMT-0500 (Central Daylight Time),478295.39999985695,A,saltenter,O,enter,304,1,918.2999999523163,477377.09999990463,7005,WL,A,7.0
4,10.485000133514404,learn,49514.999866485596,Fri Aug 02 2024 13:44:50 GMT-0500 (Central Daylight Time),478479.09999990463,A,f,O,f,167,1,183.39999985694885,478295.7000000477,7005,WL,A,8.0
4,10.587000131607056,learn,49412.999868392944,Fri Aug 02 2024 13:44:50 GMT-0500 (Central Daylight Time),478579.7999999523,A,fi,O,i,76,1,284.09999990463257,478295.7000000477,7005,WL,A,8.0
4,10.620000123977661,learn,49379.99987602234,Fri Aug 02 2024 13:44:50 GMT-0500 (Central Daylight Time),478612.2000000477,A,fin,O,n,15,1,316.5,478295.7000000477,7005,WL,A,8.0
4,10.771000146865845,learn,49228.999853134155,Fri Aug 02 2024 13:44:50 GMT-0500 (Central Daylight Time),478763.39999985695,A,fing,O,g,129,1,467.69999980926514,478295.7000000477,7005,WL,A,8.0
4,10.88700008392334,learn,49112.99991607666,Fri Aug 02 2024 13:44:50 GMT-0500 (Central Daylight Time),478879.59999990463,A,finge,O,e,103,1,583.8999998569489,478295.7000000477,7005,WL,A,8.0
4,10.953999996185303,learn,49046.0000038147,Fri Aug 02 2024 13:44:50 GMT-0500 (Central Daylight Time),478946.7000000477,A,finger,O,r,43,1,651.0,478295.7000000477,7005,WL,A,8.0
4,11.455000162124634,learn,48544.999837875366,Fri Aug 02 2024 13:44:50 GMT-0500 (Central Daylight Time),479447.5,A,fingerenter,O,enter,479,1,1151.7999999523163,478295.7000000477,7005,WL,A,8.0
4,11.873000144958496,learn,48126.999855041504,Fri Aug 02 2024 13:44:50 GMT-0500 (Central Daylight Time),479865.7000000477,A,c,O,c,400,1,417.90000009536743,479447.7999999523,7005,WL,A,9.0
4,11.939000129699707,learn,48060.99987030029,Fri Aug 02 2024 13:44:50 GMT-0500 (Central Daylight Time),479931.7999999523,A,ch,O,h,58,1,484.0,479447.7999999523,7005,WL,A,9.0
4,12.023000001907349,learn,47976.99999809265,Fri Aug 02 2024 13:44:50 GMT-0500 (Central Daylight Time),480015.5,A,chi,O,i,63,1,567.7000000476837,479447.7999999523,7005,WL,A,9.0
4,12.174000024795532,learn,47825.99997520447,Fri Aug 02 2024 13:44:50 GMT-0500 (Central Daylight Time),480165.89999985695,A,chim,O,m,131,1,718.0999999046326,479447.7999999523,7005,WL,A,9.0
4,12.558000087738037,learn,47441.99991226196,Fri Aug 02 2024 13:44:50 GMT-0500 (Central Daylight Time),480550.0,A,chimn,O,n,372,1,1102.2000000476837,479447.7999999523,7005,WL,A,9.0
4,12.657999992370605,learn,47342.000007629395,Fri Aug 02 2024 13:44:50 GMT-0500 (Central Daylight Time),480650.0,A,chimne,O,e,85,1,1202.2000000476837,479447.7999999523,7005,WL,A,9.0
4,12.741000175476074,learn,47258.999824523926,Fri Aug 02 2024 13:44:50 GMT-0500 (Central Daylight Time),480733.2000000477,A,chimney,O,y,71,1,1285.4000000953674,479447.7999999523,7005,WL,A,9.0
4,13.325000047683716,learn,46674.999952316284,Fri Aug 02 2024 13:44:50 GMT-0500 (Central Daylight Time),481317.5,A,chimneyenter,O,enter,565,1,1869.7000000476837,479447.7999999523,7005,WL,A,9.0
4,13.4760000705719,learn,46523.9999294281,Fri Aug 02 2024 13:44:50 GMT-0500 (Central Daylight Time),481468.7999999523,A,a,O,a,137,1,151.09999990463257,481317.7000000477,7005,WL,A,10.0
4,13.576000213623047,learn,46423.99978637695,Fri Aug 02 2024 13:44:50 GMT-0500 (Central Daylight Time),481568.2999999523,A,ap,O,p,87,1,250.59999990463257,481317.7000000477,7005,WL,A,10.0
4,13.759999990463257,learn,46240.00000953674,Fri Aug 02 2024 13:44:50 GMT-0500 (Central Daylight Time),481752.5,A,app,O,p,165,1,434.7999999523163,481317.7000000477,7005,WL,A,10.0
4,13.944000005722046,learn,46055.999994277954,Fri Aug 02 2024 13:44:50 GMT-0500 (Central Daylight Time),481936.0,A,appl,O,l,163,1,618.2999999523163,481317.7000000477,7005,WL,A,10.0
4,14.009999990463257,learn,45990.00000953674,Fri Aug 02 2024 13:44:50 GMT-0500 (Central Daylight Time),482002.59999990463,A,apple,O,e,51,1,684.8999998569489,481317.7000000477,7005,WL,A,10.0
4,14.311000108718872,learn,45688.99989128113,Fri Aug 02 2024 13:44:50 GMT-0500 (Central Daylight Time),482302.7999999523,A,appleenter,O,enter,290,1,985.0999999046326,481317.7000000477,7005,WL,A,10.0
4,15.513000011444092,learn,44486.99998855591,Fri Aug 02 2024 13:44:50 GMT-0500 (Central Daylight Time),483505.39999985695,A,b,O,b,1191,1,1202.2999999523163,482303.09999990463,7005,WL,A,11.0
4,15.614000082015991,learn,44385.99991798401,Fri Aug 02 2024 13:44:50 GMT-0500 (Central Daylight Time),483606.7999999523,A,bu,O,u,83,1,1303.7000000476837,482303.09999990463,7005,WL,A,11.0
4,15.78000020980835,learn,44219.99979019165,Fri Aug 02 2024 13:44:50 GMT-0500 (Central Daylight Time),483772.2999999523,A,but,O,t,147,1,1469.2000000476837,482303.09999990463,7005,WL,A,11.0
4,15.930999994277954,learn,44069.000005722046,Fri Aug 02 2024 13:44:50 GMT-0500 (Central Daylight Time),483922.89999985695,A,butt,O,t,135,1,1619.7999999523163,482303.09999990463,7005,WL,A,11.0
4,16.549000024795532,learn,43450.99997520447,Fri Aug 02 2024 13:44:50 GMT-0500 (Central Daylight Time),484541.39999985695,A,butto,O,o,610,1,2238.2999999523163,482303.09999990463,7005,WL,A,11.0
4,16.599000215530396,learn,43400.999784469604,Fri Aug 02 2024 13:44:50 GMT-0500 (Central Daylight Time),484591.0,A,button,O,n,38,1,2287.9000000953674,482303.09999990463,7005,WL,A,11.0
4,16.866000175476074,learn,43133.999824523926,Fri Aug 02 2024 13:44:50 GMT-0500 (Central Daylight Time),484858.2000000477,A,buttonenter,O,enter,252,1,2555.100000143051,482303.09999990463,7005,WL,A,11.0
4,17.117000102996826,learn,42882.999897003174,Fri Aug 02 2024 13:44:50 GMT-0500 (Central Daylight Time),485109.89999985695,A,l,O,l,244,1,251.39999985694885,484858.5,7005,WL,A,12.0
4,17.282999992370605,learn,42717.000007629395,Fri Aug 02 2024 13:44:50 GMT-0500 (Central Daylight Time),485275.7000000477,A,lo,O,o,158,1,417.2000000476837,484858.5,7005,WL,A,12.0
4,17.3510000705719,learn,42648.9999294281,Fri Aug 02 2024 13:44:50 GMT-0500 (Central Daylight Time),485343.09999990463,A,log,O,g,55,1,484.59999990463257,484858.5,7005,WL,A,12.0
4,18.419000148773193,learn,41580.99985122681,Fri Aug 02 2024 13:44:50 GMT-0500 (Central Daylight Time),486410.7999999523,A,logenter,O,enter,1044,1,1552.2999999523163,484858.5,7005,WL,A,12.0
4,19.438000202178955,learn,40561.999797821045,Fri Aug 02 2024 13:44:50 GMT-0500 (Central Daylight Time),487430.09999990463,A,r,O,r,1004,1,1019.0999999046326,486411.0,7005,WL,A,13.0
4,19.48800015449524,learn,40511.99984550476,Fri Aug 02 2024 13:44:50 GMT-0500 (Central Daylight Time),487480.0,A,ra,O,a,36,1,1069.0,486411.0,7005,WL,A,13.0
4,19.72100019454956,learn,40278.99980545044,Fri Aug 02 2024 13:44:50 GMT-0500 (Central Daylight Time),487713.89999985695,A,rat,O,t,211,1,1302.8999998569489,486411.0,7005,WL,A,13.0
4,20.240000009536743,learn,39759.99999046326,Fri Aug 02 2024 13:44:50 GMT-0500 (Central Daylight Time),488232.0,A,ratt,O,t,506,1,1821.0,486411.0,7005,WL,A,13.0
4,20.473000049591064,learn,39526.999950408936,Fri Aug 02 2024 13:44:50 GMT-0500 (Central Daylight Time),488465.7000000477,A,rattl,O,l,211,1,2054.7000000476837,486411.0,7005,WL,A,13.0
4,20.94100022315979,learn,39058.99977684021,Fri Aug 02 2024 13:44:50 GMT-0500 (Central Daylight Time),488933.2999999523,A,rattle,O,e,458,1,2522.2999999523163,486411.0,7005,WL,A,13.0
4,21.157999992370605,learn,38842.000007629395,Fri Aug 02 2024 13:44:50 GMT-0500 (Central Daylight Time),489150.7000000477,A,rattleenter,O,enter,206,1,2739.7000000476837,486411.0,7005,WL,A,13.0
4,21.392000198364258,learn,38607.99980163574,Fri Aug 02 2024 13:44:50 GMT-0500 (Central Daylight Time),489383.89999985695,A,k,O,k,224,1,233.0,489150.89999985695,7005,WL,A,14.0
4,21.475000143051147,learn,38524.99985694885,Fri Aug 02 2024 13:44:50 GMT-0500 (Central Daylight Time),489467.2999999523,A,ke,O,e,72,1,316.40000009536743,489150.89999985695,7005,WL,A,14.0
4,21.659000158309937,learn,38340.99984169006,Fri Aug 02 2024 13:44:50 GMT-0500 (Central Daylight Time),489651.7999999523,A,key,O,y,178,1,500.90000009536743,489150.89999985695,7005,WL,A,14.0
4,22.326000213623047,learn,37673.99978637695,Fri Aug 02 2024 13:44:50 GMT-0500 (Central Daylight Time),490318.59999990463,A,keyenter,O,enter,644,1,1167.7000000476837,489150.89999985695,7005,WL,A,14.0
4,23.796000003814697,learn,36203.9999961853,Fri Aug 02 2024 13:44:50 GMT-0500 (Central Daylight Time),491788.5,A,g,O,g,1456,1,1469.7000000476837,490318.7999999523,7005,WL,A,15.0
4,23.86300015449524,learn,36136.99984550476,Fri Aug 02 2024 13:44:50 GMT-0500 (Central Daylight Time),491854.89999985695,A,go,O,o,44,1,1536.0999999046326,490318.7999999523,7005,WL,A,15.0
4,24.0310001373291,learn,35968.9998626709,Fri Aug 02 2024 13:44:50 GMT-0500 (Central Daylight Time),492022.89999985695,A,gol,O,l,149,1,1704.0999999046326,490318.7999999523,7005,WL,A,15.0
4,24.09600019454956,learn,35903.99980545044,Fri Aug 02 2024 13:44:50 GMT-0500 (Central Daylight Time),492088.7999999523,A,gold,O,d,40,1,1770.0,490318.7999999523,7005,WL,A,15.0
4,24.54800009727478,learn,35451.99990272522,Fri Aug 02 2024 13:44:50 GMT-0500 (Central Daylight Time),492540.59999990463,A,goldenter,O,enter,434,1,2221.7999999523163,490318.7999999523,7005,WL,A,15.0
5,2.7059998512268066,learn,60000.0,Fri Aug 02 2024 13:44:50 GMT-0500 (Central Daylight Time),569541.0,A,b,O,b,2694,1,2706.100000143051,566834.899999857,7005,WL,A,1.0
5,2.8559999465942383,learn,60000.0,Fri Aug 02 2024 13:44:50 GMT-0500 (Central Daylight Time),569690.7999999523,A,bo,O,o,133,1,2855.9000000953674,566834.899999857,7005,WL,A,1.0
5,3.0390000343322754,learn,60000.0,Fri Aug 02 2024 13:44:50 GMT-0500 (Central Daylight Time),569873.5999999046,A,boo,O,o,157,1,3038.7000000476837,566834.899999857,7005,WL,A,1.0
5,3.3899998664855957,learn,60000.0,Fri Aug 02 2024 13:44:50 GMT-0500 (Central Daylight Time),570224.899999857,A,book,O,k,330,1,3390.0,566834.899999857,7005,WL,A,1.0
5,3.7919998168945312,learn,60000.0,Fri Aug 02 2024 13:44:50 GMT-0500 (Central Daylight Time),570626.2000000477,A,bookenter,O,enter,377,1,3791.300000190735,566834.899999857,7005,WL,A,1.0
5,4.041999816894531,learn,60000.0,Fri Aug 02 2024 13:44:50 GMT-0500 (Central Daylight Time),570876.2999999523,A,f,O,f,245,1,249.90000009536743,570626.399999857,7005,WL,A,2.0
5,4.158999919891357,learn,60000.0,Fri Aug 02 2024 13:44:50 GMT-0500 (Central Daylight Time),570993.2999999523,A,fl,O,l,103,1,366.90000009536743,570626.399999857,7005,WL,A,2.0
5,5.378000020980835,learn,60000.0,Fri Aug 02 2024 13:44:50 GMT-0500 (Central Daylight Time),572212.2000000477,A,flo,O,o,1192,1,1585.8000001907349,570626.399999857,7005,WL,A,2.0
5,5.510999917984009,learn,60000.0,Fri Aug 02 2024 13:44:50 GMT-0500 (Central Daylight Time),572345.0999999046,A,flow,O,w,110,1,1718.7000000476837,570626.399999857,7005,WL,A,2.0
5,5.560999870300293,learn,60000.0,Fri Aug 02 2024 13:44:50 GMT-0500 (Central Daylight Time),572395.399999857,A,flowe,O,e,33,1,1769.0,570626.399999857,7005,WL,A,2.0
5,5.644999980926514,learn,60000.0,Fri Aug 02 2024 13:44:50 GMT-0500 (Central Daylight Time),572479.2999999523,A,flower,O,r,70,1,1852.9000000953674,570626.399999857,7005,WL,A,2.0
5,6.044999837875366,learn,60000.0,Fri Aug 02 2024 13:44:50 GMT-0500 (Central Daylight Time),572879.5,A,flowerenter,O,enter,389,1,2253.100000143051,570626.399999857,7005,WL,A,2.0
5,6.71399998664856,learn,60000.0,Fri Aug 02 2024 13:44:50 GMT-0500 (Central Daylight Time),573548.399999857,A,t,O,t,656,1,668.5999999046326,572879.7999999523,7005,WL,A,3.0
5,6.896999835968018,learn,60000.0,Fri Aug 02 2024 13:44:50 GMT-0500 (Central Daylight Time),573731.7000000477,A,tr,O,r,155,1,851.9000000953674,572879.7999999523,7005,WL,A,3.0
5,6.947000026702881,learn,60000.0,Fri Aug 02 2024 13:44:50 GMT-0500 (Central Daylight Time),573781.0999999046,A,tra,O,a,38,1,901.2999999523163,572879.7999999523,7005,WL,A,3.0
5,7.080999851226807,learn,60000.0,Fri Aug 02 2024 13:44:50 GMT-0500 (Central Daylight Time),573915.7000000477,A,trai,O,i,109,1,1035.9000000953674,572879.7999999523,7005,WL,A,3.0
5,7.146999835968018,learn,60000.0,Fri Aug 02 2024 13:44:50 GMT-0500 (Central Daylight Time),573981.399999857,A,train,O,n,52,1,1101.5999999046326,572879.7999999523,7005,WL,A,3.0
5,7.747999906539917,learn,60000.0,Fri Aug 02 2024 13:44:50 GMT-0500 (Central Daylight Time),574582.2999999523,A,trainenter,O,enter,581,1,1702.5,572879.7999999523,7005,WL,A,3.0
5,8.500999927520752,learn,60000.0,Fri Aug 02 2024 13:44:50 GMT-0500 (Central Daylight Time),575334.899999857,A,m,O,m,744,1,752.2999999523163,574582.5999999046,7005,WL,A,4.0
5,8.616999864578247,learn,60000.0,Fri Aug 02 2024 13:44:50 GMT-0500 (Central Daylight Time),575451.0999999046,A,me,O,e,99,1,868.5,574582.5999999046,7005,WL,A,4.0
5,8.6489999294281,learn,60000.0,Fri Aug 02 2024 13:44:50 GMT-0500 (Central Daylight Time),575483.899999857,A,mea,O,a,19,1,901.2999999523163,574582.5999999046,7005,WL,A,4.0
5,8.817999839782715,learn,60000.0,Fri Aug 02 2024 13:44:50 GMT-0500 (Central Daylight Time),575652.0999999046,A,mead,O,d,162,1,1069.5,574582.5999999046,7005,WL,A,4.0
5,8.901000022888184,learn,60000.0,Fri Aug 02 2024 13:44:50 GMT-0500 (Central Daylight Time),575734.899999857,A,meado,O,o,72,1,1152.2999999523163,574582.5999999046,7005,WL,A,4.0
5,9.385999917984009,learn,60000.0,Fri Aug 02 2024 13:44:50 GMT-0500 (Central Daylight Time),576220.2999999523,A,meadow,O,w,461,1,1637.7000000476837,574582.5999999046,7005,WL,A,4.0
5,9.567999839782715,learn,60000.0,Fri Aug 02 2024 13:44:50 GMT-0500 (Central Daylight Time),576402.5,A,meadowenter,O,enter,166,1,1819.9000000953674,574582.5999999046,7005,WL,A,4.0
5,9.768999814987183,learn,60000.0,Fri Aug 02 2024 13:44:50 GMT-0500 (Central Daylight Time),576603.399999857,A,r,O,r,180,1,200.69999980926514,576402.7000000477,7005,WL,A,5.0
5,9.902999877929688,learn,60000.0,Fri Aug 02 2024 13:44:50 GMT-0500 (Central Daylight Time),576737.7000000477,A,ru,O,u,107,1,335.0,576402.7000000477,7005,WL,A,5.0
5,10.003000020980835,learn,60000.0,Fri Aug 02 2024 13:44:50 GMT-0500 (Central Daylight Time),576837.0,A,rug,O,g,88,1,434.2999999523163,576402.7000000477,7005,WL,A,5.0
5,10.452999830245972,learn,60000.0,Fri Aug 02 2024 13:44:50 GMT-0500 (Central Daylight Time),577287.7000000477,A,rugenter,O,enter,427,1,885.0,576402.7000000477,7005,WL,A,5.0
5,13.677000045776367,learn,60000.0,Fri Aug 02 2024 13:44:50 GMT-0500 (Central Daylight Time),580511.899999857,A,h,O,h,3207,1,3224.0,577287.899999857,7005,WL,A,6.0
5,13.776999950408936,learn,60000.0,Fri Aug 02 2024 13:44:50 GMT-0500 (Central Daylight Time),580611.899999857,A,ha,O,a,72,1,3324.0,577287.899999857,7005,WL,A,6.0
5,13.82699990272522,learn,60000.0,Fri Aug 02 2024 13:44:50 GMT-0500 (Central Daylight Time),580660.899999857,A,har,O,r,31,1,3373.0,577287.899999857,7005,WL,A,6.0
5,14.36299991607666,learn,60000.0,Fri Aug 02 2024 13:44:50 GMT-0500 (Central Daylight Time),581197.5,A,harp,O,p,520,1,3909.600000143051,577287.899999857,7005,WL,A,6.0
5,14.812999963760376,learn,60000.0,Fri Aug 02 2024 13:44:50 GMT-0500 (Central Daylight Time),581646.899999857,A,harpenter,O,enter,437,1,4359.0,577287.899999857,7005,WL,A,6.0
5,15.27999997138977,learn,60000.0,Fri Aug 02 2024 13:44:50 GMT-0500 (Central Daylight Time),582114.7000000477,A,s,O,s,456,1,467.5,581647.2000000477,7005,WL,A,7.0
5,15.396999835968018,learn,60000.0,Fri Aug 02 2024 13:44:50 GMT-0500 (Central Daylight Time),582231.2999999523,A,sa,O,a,97,1,584.0999999046326,581647.2000000477,7005,WL,A,7.0
5,15.412999868392944,learn,60000.0,Fri Aug 02 2024 13:44:50 GMT-0500 (Central Daylight Time),582247.0999999046,A,sal,O,l,0,1,599.8999998569489,581647.2000000477,7005,WL,A,7.0
5,15.664000034332275,learn,60000.0,Fri Aug 02 2024 13:44:50 GMT-0500 (Central Daylight Time),582498.2999999523,A,sald,O,d,231,1,851.0999999046326,581647.2000000477,7005,WL,A,7.0
5,16.013999938964844,learn,60000.0,Fri Aug 02 2024 13:44:50 GMT-0500 (Central Daylight Time),582848.5999999046,A,saldenter,O,enter,337,1,1201.3999998569489,581647.2000000477,7005,WL,A,7.0
5,18.369999885559082,learn,60000.0,Fri Aug 02 2024 13:44:50 GMT-0500 (Central Daylight Time),585204.5,A,a,O,a,2342,1,2355.600000143051,582848.899999857,7005,WL,A,8.0
5,18.518999814987183,learn,60000.0,Fri Aug 02 2024 13:44:50 GMT-0500 (Central Daylight Time),585353.5,A,ap,O,p,121,1,2504.600000143051,582848.899999857,7005,WL,A,8.0
5,18.669999837875366,learn,60000.0,Fri Aug 02 2024 13:44:50 GMT-0500 (Central Daylight Time),585504.0999999046,A,app,O,p,131,1,2655.2000000476837,582848.899999857,7005,WL,A,8.0
5,18.819999933242798,learn,60000.0,Fri Aug 02 2024 13:44:50 GMT-0500 (Central Daylight Time),585654.2999999523,A,appl,O,l,135,1,2805.4000000953674,582848.899999857,7005,WL,A,8.0
5,18.902999877929688,learn,60000.0,Fri Aug 02 2024 13:44:50 GMT-0500 (Central Daylight Time),585737.5,A,apple,O,e,60,1,2888.600000143051,582848.899999857,7005,WL,A,8.0
5,19.370999813079834,learn,60000.0,Fri Aug 02 2024 13:44:50 GMT-0500 (Central Daylight Time),586205.2000000477,A,appleenter,O,enter,449,1,3356.300000190735,582848.899999857,7005,WL,A,8.0
5,21.157999992370605,learn,60000.0,Fri Aug 02 2024 13:44:50 GMT-0500 (Central Daylight Time),587992.7000000477,A,c,O,c,1778,1,1787.2000000476837,586205.5,7005,WL,A,9.0
5,21.19099998474121,learn,60000.0,Fri Aug 02 2024 13:44:50 GMT-0500 (Central Daylight Time),588025.0999999046,A,ch,O,h,15,1,1819.5999999046326,586205.5,7005,WL,A,9.0
5,21.257999897003174,learn,60000.0,Fri Aug 02 2024 13:44:50 GMT-0500 (Central Daylight Time),588092.0999999046,A,chi,O,i,52,1,1886.5999999046326,586205.5,7005,WL,A,9.0
5,21.407999992370605,learn,60000.0,Fri Aug 02 2024 13:44:50 GMT-0500 (Central Daylight Time),588243.0,A,chim,O,m,125,1,2037.5,586205.5,7005,WL,A,9.0
5,22.075999975204468,learn,60000.0,Fri Aug 02 2024 13:44:50 GMT-0500 (Central Daylight Time),588910.7000000477,A,chimn,O,n,654,1,2705.2000000476837,586205.5,7005,WL,A,9.0
5,22.175999879837036,learn,60000.0,Fri Aug 02 2024 13:44:50 GMT-0500 (Central Daylight Time),589010.5999999046,A,chimne,O,e,73,1,2805.0999999046326,586205.5,7005,WL,A,9.0
5,22.243000030517578,learn,60000.0,Fri Aug 02 2024 13:44:50 GMT-0500 (Central Daylight Time),589077.7999999523,A,chimney,O,y,47,1,2872.2999999523163,586205.5,7005,WL,A,9.0
5,24.83299994468689,learn,60000.0,Fri Aug 02 2024 13:44:50 GMT-0500 (Central Daylight Time),591667.0,A,chimneyenter,O,enter,2562,1,5461.5,586205.5,7005,WL,A,9.0
5,36.65599989891052,learn,60000.0,Fri Aug 02 2024 13:44:50 GMT-0500 (Central Daylight Time),603489.2999999523,A,f,O,f,11803,1,11822.099999904633,591667.2000000477,7005,WL,A,10.0
5,36.805999994277954,learn,60000.0,Fri Aug 02 2024 13:44:50 GMT-0500 (Central Daylight Time),603639.399999857,A,fi,O,i,136,1,11972.199999809265,591667.2000000477,7005,WL,A,10.0
5,36.871999979019165,learn,60000.0,Fri Aug 02 2024 13:44:50 GMT-0500 (Central Daylight Time),603705.7999999523,A,fin,O,n,48,1,12038.599999904633,591667.2000000477,7005,WL,A,10.0
5,37.07299995422363,learn,60000.0,Fri Aug 02 2024 13:44:50 GMT-0500 (Central Daylight Time),603906.7999999523,A,fing,O,g,184,1,12239.599999904633,591667.2000000477,7005,WL,A,10.0
5,37.25699996948242,learn,60000.0,Fri Aug 02 2024 13:44:50 GMT-0500 (Central Daylight Time),604090.2000000477,A,finge,O,e,167,1,12423.0,591667.2000000477,7005,WL,A,10.0
5,37.28999996185303,learn,60000.0,Fri Aug 02 2024 13:44:50 GMT-0500 (Central Daylight Time),604123.2000000477,A,finger,O,r,2,1,12456.0,591667.2000000477,7005,WL,A,10.0
5,37.84099984169006,learn,60000.0,Fri Aug 02 2024 13:44:50 GMT-0500 (Central Daylight Time),604674.399999857,A,fingerenter,O,enter,537,1,13007.199999809265,591667.2000000477,7005,WL,A,10.0
5,40.98099994659424,learn,60000.0,Fri Aug 02 2024 13:44:50 GMT-0500 (Central Daylight Time),607814.899999857,A,l,O,l,3130,1,3140.0999999046326,604674.7999999523,7005,WL,A,11.0
5,41.19799995422363,learn,60000.0,Fri Aug 02 2024 13:44:50 GMT-0500 (Central Daylight Time),608031.0999999046,A,lo,O,o,192,1,3356.2999999523163,604674.7999999523,7005,WL,A,11.0
5,41.28099989891052,learn,60000.0,Fri Aug 02 2024 13:44:50 GMT-0500 (Central Daylight Time),608114.399999857,A,log,O,g,56,1,3439.5999999046326,604674.7999999523,7005,WL,A,11.0
5,42.08299994468689,learn,60000.0,Fri Aug 02 2024 13:44:50 GMT-0500 (Central Daylight Time),608916.0999999046,A,logenter,O,enter,784,1,4241.299999952316,604674.7999999523,7005,WL,A,11.0
5,44.25499987602234,learn,60000.0,Fri Aug 02 2024 13:44:50 GMT-0500 (Central Daylight Time),611088.5999999046,A,b,O,b,2154,1,2172.2000000476837,608916.399999857,7005,WL,A,12.0
5,44.40499997138977,learn,60000.0,Fri Aug 02 2024 13:44:50 GMT-0500 (Central Daylight Time),611238.0999999046,A,bu,O,u,130,1,2321.7000000476837,608916.399999857,7005,WL,A,12.0
5,44.520999908447266,learn,60000.0,Fri Aug 02 2024 13:44:50 GMT-0500 (Central Daylight Time),611354.2000000477,A,but,O,t,97,1,2437.800000190735,608916.399999857,7005,WL,A,12.0
5,44.65499997138977,learn,60000.0,Fri Aug 02 2024 13:44:50 GMT-0500 (Central Daylight Time),611488.399999857,A,butt,O,t,117,1,2572.0,608916.399999857,7005,WL,A,12.0
5,44.80499982833862,learn,60000.0,Fri Aug 02 2024 13:44:50 GMT-0500 (Central Daylight Time),611638.399999857,A,butto,O,o,134,1,2722.0,608916.399999857,7005,WL,A,12.0
5,44.855000019073486,learn,60000.0,Fri Aug 02 2024 13:44:50 GMT-0500 (Central Daylight Time),611688.2999999523,A,button,O,n,34,1,2771.9000000953674,608916.399999857,7005,WL,A,12.0
5,45.15599989891052,learn,60000.0,Fri Aug 02 2024 13:44:50 GMT-0500 (Central Daylight Time),611988.899999857,A,buttonenter,O,enter,291,1,3072.5,608916.399999857,7005,WL,A,12.0
5,45.57299995422363,learn,60000.0,Fri Aug 02 2024 13:44:50 GMT-0500 (Central Daylight Time),612406.399999857,A,k,O,k,401,1,417.19999980926514,611989.2000000477,7005,WL,A,13.0
5,45.6729998588562,learn,60000.0,Fri Aug 02 2024 13:44:50 GMT-0500 (Central Daylight Time),612506.399999857,A,ke,O,e,74,1,517.1999998092651,611989.2000000477,7005,WL,A,13.0
5,45.7739999294281,learn,60000.0,Fri Aug 02 2024 13:44:50 GMT-0500 (Central Daylight Time),612607.899999857,A,key,O,y,78,1,618.6999998092651,611989.2000000477,7005,WL,A,13.0
5,46.44199991226196,learn,60000.0,Fri Aug 02 2024 13:44:50 GMT-0500 (Central Daylight Time),613275.7000000477,A,keyenter,O,enter,651,1,1286.5,611989.2000000477,7005,WL,A,13.0
5,46.776000022888184,learn,60000.0,Fri Aug 02 2024 13:44:50 GMT-0500 (Central Daylight Time),613609.2000000477,A,r,O,r,324,1,333.10000014305115,613276.0999999046,7005,WL,A,14.0
5,46.85899996757507,learn,60000.0,Fri Aug 02 2024 13:44:50 GMT-0500 (Central Daylight Time),613692.0999999046,A,ra,O,a,65,1,416.0,613276.0999999046,7005,WL,A,14.0
5,47.026000022888184,learn,60000.0,Fri Aug 02 2024 13:44:50 GMT-0500 (Central Daylight Time),613859.5999999046,A,rat,O,t,151,1,583.5,613276.0999999046,7005,WL,A,14.0
5,47.175999879837036,learn,60000.0,Fri Aug 02 2024 13:44:50 GMT-0500 (Central Daylight Time),614009.7000000477,A,ratt,O,t,128,1,733.6000001430511,613276.0999999046,7005,WL,A,14.0
5,47.30999994277954,learn,60000.0,Fri Aug 02 2024 13:44:50 GMT-0500 (Central Daylight Time),614143.2999999523,A,rattl,O,l,109,1,867.2000000476837,613276.0999999046,7005,WL,A,14.0
5,47.359999895095825,learn,60000.0,Fri Aug 02 2024 13:44:50 GMT-0500 (Central Daylight Time),614193.0,A,rattle,O,e,31,1,916.9000000953674,613276.0999999046,7005,WL,A,14.0
5,47.944000005722046,learn,60000.0,Fri Aug 02 2024 13:44:50 GMT-0500 (Central Daylight Time),614777.5999999046,A,rattleenter,O,enter,571,1,1501.5,613276.0999999046,7005,WL,A,14.0
5,48.36299991607666,learn,60000.0,Fri Aug 02 2024 13:44:50 GMT-0500 (Central Daylight Time),615196.0,A,g,O,g,413,1,418.2000000476837,614777.7999999523,7005,WL,A,15.0
5,48.41199994087219,learn,60000.0,Fri Aug 02 2024 13:44:50 GMT-0500 (Central Daylight Time),615245.0,A,go,O,o,26,1,467.2000000476837,614777.7999999523,7005,WL,A,15.0
5,48.61199998855591,learn,60000.0,Fri Aug 02 2024 13:44:50 GMT-0500 (Central Daylight Time),615445.0,A,gol,O,l,191,1,667.2000000476837,614777.7999999523,7005,WL,A,15.0
5,48.71299982070923,learn,60000.0,Fri Aug 02 2024 13:44:50 GMT-0500 (Central Daylight Time),615546.0,A,gold,O,d,82,1,768.2000000476837,614777.7999999523,7005,WL,A,15.0
5,48.92999982833862,learn,60000.0,Fri Aug 02 2024 13:44:50 GMT-0500 (Central Daylight Time),615763.0,A,goldenter,O,enter,207,1,985.2000000476837,614777.7999999523,7005,WL,A,15.0
6,1.2029998302459717,distr,58797.00016975403,Fri Aug 02 2024 13:44:50 GMT-0500 (Central Daylight Time),694499.5999999046,B,b,O,b,1180,1,1202.2000000476837,693297.399999857,7005,WL,A,1.0
6,1.3199999332427979,distr,58680.0000667572,Fri Aug 02 2024 13:44:50 GMT-0500 (Central Daylight Time),694616.899999857,B,bo,O,o,99,1,1319.5,693297.399999857,7005,WL,A,1.0
6,1.554999828338623,distr,58445.00017166138,Fri Aug 02 2024 13:44:50 GMT-0500 (Central Daylight Time),694851.899999857,B,bow,O,w,219,1,1554.5,693297.399999857,7005,WL,A,1.0
6,1.8539998531341553,distr,58146.000146865845,Fri Aug 02 2024 13:44:50 GMT-0500 (Central Daylight Time),695151.2000000477,B,bowl,O,l,278,1,1853.8000001907349,693297.399999857,7005,WL,A,1.0
6,2.23799991607666,distr,57762.00008392334,Fri Aug 02 2024 13:44:50 GMT-0500 (Central Daylight Time),695535.2000000477,B,bowlenter,O,enter,372,1,2237.800000190735,693297.399999857,7005,WL,A,1.0
6,2.5219998359680176,distr,57478.00016403198,Fri Aug 02 2024 13:44:50 GMT-0500 (Central Daylight Time),695819.0999999046,B,d,O,d,262,1,283.59999990463257,695535.5,7005,WL,A,2.0
6,2.6389999389648438,distr,57361.000061035156,Fri Aug 02 2024 13:44:50 GMT-0500 (Central Daylight Time),695936.2000000477,B,da,O,a,103,1,400.7000000476837,695535.5,7005,WL,A,2.0
6,2.75600004196167,distr,57243.99995803833,Fri Aug 02 2024 13:44:50 GMT-0500 (Central Daylight Time),696052.5999999046,B,daw,O,w,106,1,517.0999999046326,695535.5,7005,WL,A,2.0
6,3.0899999141693115,distr,56910.00008583069,Fri Aug 02 2024 13:44:50 GMT-0500 (Central Daylight Time),696386.2000000477,B,dawn,O,n,317,1,850.7000000476837,695535.5,7005,WL,A,2.0
6,3.7239999771118164,distr,56276.00002288818,Fri Aug 02 2024 13:44:50 GMT-0500 (Central Daylight Time),697020.7000000477,B,dawnenter,O,enter,617,1,1485.2000000476837,695535.5,7005,WL,A,2.0
6,4.075000047683716,distr,55924.999952316284,Fri Aug 02 2024 13:44:50 GMT-0500 (Central Daylight Time),697372.2000000477,B,j,O,j,338,1,351.30000019073486,697020.899999857,7005,WL,A,3.0
6,4.944000005722046,distr,55055.999994277954,Fri Aug 02 2024 13:44:50 GMT-0500 (Central Daylight Time),698240.5,B,ju,O,u,847,1,1219.6000001430511,697020.899999857,7005,WL,A,3.0
6,5.059999942779541,distr,54940.00005722046,Fri Aug 02 2024 13:44:50 GMT-0500 (Central Daylight Time),698356.899999857,B,jud,O,d,107,1,1336.0,697020.899999857,7005,WL,A,3.0
6,5.194000005722046,distr,54805.999994277954,Fri Aug 02 2024 13:44:50 GMT-0500 (Central Daylight Time),698491.0,B,judg,O,g,115,1,1470.1000001430511,697020.899999857,7005,WL,A,3.0
6,5.310999870300293,distr,54689.00012969971,Fri Aug 02 2024 13:44:50 GMT-0500 (Central Daylight Time),698607.7999999523,B,judge,O,e,97,1,1586.9000000953674,697020.899999857,7005,WL,A,3.0
6,7.430999994277954,distr,52569.000005722046,Fri Aug 02 2024 13:44:50 GMT-0500 (Central Daylight Time),700727.899999857,B,judgeenter,O,enter,2095,1,3707.0,697020.899999857,7005,WL,A,3.0
6,7.950000047683716,distr,52049.999952316284,Fri Aug 02 2024 13:44:50 GMT-0500 (Central Daylight Time),701246.5,B,g,O,g,510,1,518.4000000953674,700728.0999999046,7005,WL,A,4.0
6,8.132999897003174,distr,51867.000102996826,Fri Aug 02 2024 13:44:50 GMT-0500 (Central Daylight Time),701429.899999857,B,gr,O,r,171,1,701.7999999523163,700728.0999999046,7005,WL,A,4.0
6,8.215999841690063,distr,51784.00015830994,Fri Aug 02 2024 13:44:50 GMT-0500 (Central Daylight Time),701512.7999999523,B,gra,O,a,61,1,784.7000000476837,700728.0999999046,7005,WL,A,4.0
6,8.33299994468689,distr,51667.00005531311,Fri Aug 02 2024 13:44:50 GMT-0500 (Central Daylight Time),701630.399999857,B,gran,O,n,103,1,902.2999999523163,700728.0999999046,7005,WL,A,4.0
6,8.450999975204468,distr,51549.00002479553,Fri Aug 02 2024 13:44:50 GMT-0500 (Central Daylight Time),701747.2999999523,B,grant,O,t,99,1,1019.2000000476837,700728.0999999046,7005,WL,A,4.0
6,9.033999919891357,distr,50966.00008010864,Fri Aug 02 2024 13:44:50 GMT-0500 (Central Daylight Time),702331.0,B,grantenter,O,enter,559,1,1602.9000000953674,700728.0999999046,7005,WL,A,4.0
6,9.319000005722046,distr,50680.999994277954,Fri Aug 02 2024 13:44:50 GMT-0500 (Central Daylight Time),702615.7000000477,B,i,O,i,275,1,284.40000009536743,702331.2999999523,7005,WL,A,5.0
6,9.418999910354614,distr,50581.000089645386,Fri Aug 02 2024 13:44:50 GMT-0500 (Central Daylight Time),702715.7000000477,B,in,O,n,75,1,384.40000009536743,702331.2999999523,7005,WL,A,5.0
6,9.61899995803833,distr,50381.00004196167,Fri Aug 02 2024 13:44:50 GMT-0500 (Central Daylight Time),702916.2999999523,B,ins,O,s,183,1,585.0,702331.2999999523,7005,WL,A,5.0
6,9.88699984550476,distr,50113.00015449524,Fri Aug 02 2024 13:44:50 GMT-0500 (Central Daylight Time),703183.7999999523,B,inse,O,e,256,1,852.5,702331.2999999523,7005,WL,A,5.0
6,10.169999837875366,distr,49830.000162124634,Fri Aug 02 2024 13:44:50 GMT-0500 (Central Daylight Time),703467.0,B,insec,O,c,259,1,1135.7000000476837,702331.2999999523,7005,WL,A,5.0
6,10.38699984550476,distr,49613.00015449524,Fri Aug 02 2024 13:44:50 GMT-0500 (Central Daylight Time),703683.899999857,B,insect,O,t,206,1,1352.5999999046326,702331.2999999523,7005,WL,A,5.0
6,10.754999876022339,distr,49245.00012397766,Fri Aug 02 2024 13:44:50 GMT-0500 (Central Daylight Time),704051.7000000477,B,insectenter,O,enter,343,1,1720.4000000953674,702331.2999999523,7005,WL,A,5.0
6,11.371999979019165,distr,48628.000020980835,Fri Aug 02 2024 13:44:50 GMT-0500 (Central Daylight Time),704669.2000000477,B,p,O,p,603,1,617.3000001907349,704051.899999857,7005,WL,A,6.0
6,11.622999906539917,distr,48377.00009346008,Fri Aug 02 2024 13:44:50 GMT-0500 (Central Daylight Time),704919.7999999523,B,pl,O,l,236,1,867.9000000953674,704051.899999857,7005,WL,A,6.0
6,11.75600004196167,distr,48243.99995803833,Fri Aug 02 2024 13:44:50 GMT-0500 (Central Daylight Time),705053.2000000477,B,pla,O,a,115,1,1001.3000001907349,704051.899999857,7005,WL,A,6.0
6,11.875,distr,48125.0,Fri Aug 02 2024 13:44:50 GMT-0500 (Central Daylight Time),705171.5999999046,B,plan,O,n,109,1,1119.7000000476837,704051.899999857,7005,WL,A,6.0
6,11.957000017166138,distr,48042.99998283386,Fri Aug 02 2024 13:44:50 GMT-0500 (Central Daylight Time),705253.7999999523,B,plane,O,e,69,1,1201.9000000953674,704051.899999857,7005,WL,A,6.0
6,12.224999904632568,distr,47775.00009536743,Fri Aug 02 2024 13:44:50 GMT-0500 (Central Daylight Time),705522.0999999046,B,planeenter,O,enter,253,1,1470.2000000476837,704051.899999857,7005,WL,A,6.0
6,12.490999937057495,distr,47509.000062942505,Fri Aug 02 2024 13:44:50 GMT-0500 (Central Daylight Time),705788.2000000477,B,c,O,c,252,1,265.80000019073486,705522.399999857,7005,WL,A,7.0
6,12.54099988937378,distr,47459.00011062622,Fri Aug 02 2024 13:44:50 GMT-0500 (Central Daylight Time),705838.399999857,B,co,O,o,38,1,316.0,705522.399999857,7005,WL,A,7.0
6,12.625,distr,47375.0,Fri Aug 02 2024 13:44:50 GMT-0500 (Central Daylight Time),705922.2000000477,B,cou,O,u,61,1,399.80000019073486,705522.399999857,7005,WL,A,7.0
6,12.79200005531311,distr,47207.99994468689,Fri Aug 02 2024 13:44:50 GMT-0500 (Central Daylight Time),706088.899999857,B,coun,O,n,146,1,566.5,705522.399999857,7005,WL,A,7.0
6,12.858999967575073,distr,47141.00003242493,Fri Aug 02 2024 13:44:50 GMT-0500 (Central Daylight Time),706155.5,B,count,O,t,50,1,633.1000001430511,705522.399999857,7005,WL,A,7.0
6,13.059000015258789,distr,46940.99998474121,Fri Aug 02 2024 13:44:50 GMT-0500 (Central Daylight Time),706356.0999999046,B,county,O,y,189,1,833.7000000476837,705522.399999857,7005,WL,A,7.0
6,13.394000053405762,distr,46605.99994659424,Fri Aug 02 2024 13:44:50 GMT-0500 (Central Daylight Time),706690.7000000477,B,countyenter,O,enter,313,1,1168.3000001907349,705522.399999857,7005,WL,A,7.0
6,13.644000053405762,distr,46355.99994659424,Fri Aug 02 2024 13:44:50 GMT-0500 (Central Daylight Time),706940.2000000477,B,p,O,p,244,1,249.30000019073486,706690.899999857,7005,WL,A,8.0
6,13.894000053405762,distr,46105.99994659424,Fri Aug 02 2024 13:44:50 GMT-0500 (Central Daylight Time),707191.2000000477,B,po,O,o,239,1,500.30000019073486,706690.899999857,7005,WL,A,8.0
6,14.060999870300293,distr,45939.00012969971,Fri Aug 02 2024 13:44:50 GMT-0500 (Central Daylight Time),707358.2999999523,B,poo,O,o,155,1,667.4000000953674,706690.899999857,7005,WL,A,8.0
6,14.26199984550476,distr,45738.00015449524,Fri Aug 02 2024 13:44:50 GMT-0500 (Central Daylight Time),707558.899999857,B,pool,O,l,186,1,868.0,706690.899999857,7005,WL,A,8.0
6,14.679999828338623,distr,45320.00017166138,Fri Aug 02 2024 13:44:50 GMT-0500 (Central Daylight Time),707976.7999999523,B,poolenter,O,enter,402,1,1285.9000000953674,706690.899999857,7005,WL,A,8.0
6,16.06500005722046,distr,43934.99994277954,Fri Aug 02 2024 13:44:50 GMT-0500 (Central Daylight Time),709362.0999999046,B,s,O,s,1365,1,1385.0,707977.0999999046,7005,WL,A,9.0
6,16.164999961853027,distr,43835.00003814697,Fri Aug 02 2024 13:44:50 GMT-0500 (Central Daylight Time),709462.0999999046,B,se,O,e,89,1,1485.0,707977.0999999046,7005,WL,A,9.0
6,16.348999977111816,distr,43651.00002288818,Fri Aug 02 2024 13:44:50 GMT-0500 (Central Daylight Time),709646.0999999046,B,see,O,e,172,1,1669.0,707977.0999999046,7005,WL,A,9.0
6,16.549000024795532,distr,43450.99997520447,Fri Aug 02 2024 13:44:50 GMT-0500 (Central Daylight Time),709846.0,B,seed,O,d,178,1,1868.9000000953674,707977.0999999046,7005,WL,A,9.0
6,17.200000047683716,distr,42799.999952316284,Fri Aug 02 2024 13:44:50 GMT-0500 (Central Daylight Time),710497.0,B,seedenter,O,enter,637,1,2519.9000000953674,707977.0999999046,7005,WL,A,9.0
6,17.53499984741211,distr,42465.00015258789,Fri Aug 02 2024 13:44:50 GMT-0500 (Central Daylight Time),710831.899999857,B,s,O,s,325,1,334.69999980926514,710497.2000000477,7005,WL,A,10.0
6,17.618000030517578,distr,42381.99996948242,Fri Aug 02 2024 13:44:50 GMT-0500 (Central Daylight Time),710914.7000000477,B,sh,O,h,57,1,417.5,710497.2000000477,7005,WL,A,10.0
6,17.802000045776367,distr,42197.99995422363,Fri Aug 02 2024 13:44:50 GMT-0500 (Central Daylight Time),711098.7000000477,B,she,O,e,161,1,601.5,710497.2000000477,7005,WL,A,10.0
6,17.95299983024597,distr,42047.00016975403,Fri Aug 02 2024 13:44:50 GMT-0500 (Central Daylight Time),711250.0999999046,B,shee,O,e,125,1,752.8999998569489,710497.2000000477,7005,WL,A,10.0
6,18.47000002861023,distr,41529.99997138977,Fri Aug 02 2024 13:44:50 GMT-0500 (Central Daylight Time),711766.5,B,sheep,O,p,497,1,1269.2999999523163,710497.2000000477,7005,WL,A,10.0
6,18.88699984550476,distr,41113.00015449524,Fri Aug 02 2024 13:44:50 GMT-0500 (Central Daylight Time),712183.399999857,B,sheepenter,O,enter,396,1,1686.1999998092651,710497.2000000477,7005,WL,A,10.0
6,29.942999839782715,distr,30057.000160217285,Fri Aug 02 2024 13:44:50 GMT-0500 (Central Daylight Time),723239.5999999046,B,m,O,m,11039,1,11056.0,712183.5999999046,7005,WL,A,11.0
6,30.075999975204468,distr,29924.000024795532,Fri Aug 02 2024 13:44:50 GMT-0500 (Central Daylight Time),723373.0,B,me,O,e,116,1,11189.400000095367,712183.5999999046,7005,WL,A,11.0
6,30.125999927520752,distr,29874.000072479248,Fri Aug 02 2024 13:44:50 GMT-0500 (Central Daylight Time),723422.2999999523,B,mea,O,a,37,1,11238.700000047684,712183.5999999046,7005,WL,A,11.0
6,30.710999965667725,distr,29289.000034332275,Fri Aug 02 2024 13:44:50 GMT-0500 (Central Daylight Time),724007.2999999523,B,meal,O,l,566,1,11823.700000047684,712183.5999999046,7005,WL,A,11.0
6,30.944000005722046,distr,29055.999994277954,Fri Aug 02 2024 13:44:50 GMT-0500 (Central Daylight Time),724240.2000000477,B,mealenter,O,enter,217,1,12056.600000143051,712183.5999999046,7005,WL,A,11.0
6,31.59599995613098,distr,28404.00004386902,Fri Aug 02 2024 13:44:50 GMT-0500 (Central Daylight Time),724892.0999999046,B,c,O,c,631,1,651.5999999046326,724240.5,7005,WL,A,12.0
6,31.662999868392944,distr,28337.000131607056,Fri Aug 02 2024 13:44:50 GMT-0500 (Central Daylight Time),724959.399999857,B,co,O,o,51,1,718.8999998569489,724240.5,7005,WL,A,12.0
6,31.77999997138977,distr,28220.00002861023,Fri Aug 02 2024 13:44:50 GMT-0500 (Central Daylight Time),725076.7000000477,B,coa,O,a,109,1,836.2000000476837,724240.5,7005,WL,A,12.0
6,31.878999948501587,distr,28121.000051498413,Fri Aug 02 2024 13:44:50 GMT-0500 (Central Daylight Time),725175.7999999523,B,coat,O,t,81,1,935.2999999523163,724240.5,7005,WL,A,12.0
6,34.41700005531311,distr,25582.99994468689,Fri Aug 02 2024 13:44:50 GMT-0500 (Central Daylight Time),727713.899999857,B,coatenter,O,enter,2514,1,3473.399999856949,724240.5,7005,WL,A,12.0
6,37.15599989891052,distr,22844.000101089478,Fri Aug 02 2024 13:44:50 GMT-0500 (Central Daylight Time),730452.7000000477,B,p,O,p,2733,1,2738.5,727714.2000000477,7005,WL,A,13.0
6,37.25699996948242,distr,22743.000030517578,Fri Aug 02 2024 13:44:50 GMT-0500 (Central Daylight Time),730553.5,B,pe,O,e,86,1,2839.2999999523163,727714.2000000477,7005,WL,A,13.0
6,37.33999991416931,distr,22660.00008583069,Fri Aug 02 2024 13:44:50 GMT-0500 (Central Daylight Time),730636.5999999046,B,pea,O,a,66,1,2922.399999856949,727714.2000000477,7005,WL,A,13.0
6,37.53999996185303,distr,22460.000038146973,Fri Aug 02 2024 13:44:50 GMT-0500 (Central Daylight Time),730836.7000000477,B,peac,O,c,192,1,3122.5,727714.2000000477,7005,WL,A,13.0
6,39.09299993515015,distr,20907.000064849854,Fri Aug 02 2024 13:44:50 GMT-0500 (Central Daylight Time),732389.899999857,B,peach,O,h,1542,1,4675.699999809265,727714.2000000477,7005,WL,A,13.0
6,40.16199994087219,distr,19838.000059127808,Fri Aug 02 2024 13:44:50 GMT-0500 (Central Daylight Time),733458.5,B,peachenter,O,enter,1053,1,5744.299999952316,727714.2000000477,7005,WL,A,13.0
6,40.42999982833862,distr,19570.000171661377,Fri Aug 02 2024 13:44:50 GMT-0500 (Central Daylight Time),733726.5999999046,B,b,O,b,261,1,267.89999985694885,733458.7000000477,7005,WL,A,14.0
6,40.496999979019165,distr,19503.000020980835,Fri Aug 02 2024 13:44:50 GMT-0500 (Central Daylight Time),733792.899999857,B,bo,O,o,53,1,334.19999980926514,733458.7000000477,7005,WL,A,14.0
6,40.69700002670288,distr,19302.99997329712,Fri Aug 02 2024 13:44:50 GMT-0500 (Central Daylight Time),733993.0999999046,B,bot,O,t,187,1,534.3999998569489,733458.7000000477,7005,WL,A,14.0
6,40.83099985122681,distr,19169.000148773193,Fri Aug 02 2024 13:44:50 GMT-0500 (Central Daylight Time),734127.0999999046,B,bott,O,t,115,1,668.3999998569489,733458.7000000477,7005,WL,A,14.0
6,40.912999868392944,distr,19087.000131607056,Fri Aug 02 2024 13:44:50 GMT-0500 (Central Daylight Time),734209.7999999523,B,botth,O,h,67,1,751.0999999046326,733458.7000000477,7005,WL,A,14.0
6,41.03099989891052,distr,18969.000101089478,Fri Aug 02 2024 13:44:50 GMT-0500 (Central Daylight Time),734327.2000000477,B,botthe,O,e,106,1,868.5,733458.7000000477,7005,WL,A,14.0
6,41.514999866485596,distr,18485.000133514404,Fri Aug 02 2024 13:44:50 GMT-0500 (Central Daylight Time),734811.899999857,B,botth,O,backspace,469,1,1353.1999998092651,733458.7000000477,7005,WL,A,14.0
6,41.681999921798706,distr,18318.000078201294,Fri Aug 02 2024 13:44:50 GMT-0500 (Central Daylight Time),734978.7000000477,B,bott,O,backspace,143,1,1520.0,733458.7000000477,7005,WL,A,14.0
6,42.01600003242493,distr,17983.999967575073,Fri Aug 02 2024 13:44:50 GMT-0500 (Central Daylight Time),735312.7000000477,B,bottl,O,l,312,1,1854.0,733458.7000000477,7005,WL,A,14.0
6,42.115999937057495,distr,17884.000062942505,Fri Aug 02 2024 13:44:50 GMT-0500 (Central Daylight Time),735412.7000000477,B,bottle,O,e,90,1,1954.0,733458.7000000477,7005,WL,A,14.0
6,42.91700005531311,distr,17082.99994468689,Fri Aug 02 2024 13:44:50 GMT-0500 (Central Daylight Time),736213.7000000477,B,bottleenter,O,enter,782,1,2755.0,733458.7000000477,7005,WL,A,14.0
6,43.319000005722046,distr,16680.999994277954,Fri Aug 02 2024 13:44:50 GMT-0500 (Central Daylight Time),736615.0999999046,B,c,O,c,385,1,401.09999990463257,736214.0,7005,WL,A,15.0
6,43.401999950408936,distr,16598.000049591064,Fri Aug 02 2024 13:44:50 GMT-0500 (Central Daylight Time),736698.399999857,B,ch,O,h,66,1,484.39999985694885,736214.0,7005,WL,A,15.0
6,43.53499984741211,distr,16465.00015258789,Fri Aug 02 2024 13:44:50 GMT-0500 (Central Daylight Time),736831.7999999523,B,cha,O,a,113,1,617.7999999523163,736214.0,7005,WL,A,15.0
6,43.63499999046326,distr,16365.000009536743,Fri Aug 02 2024 13:44:50 GMT-0500 (Central Daylight Time),736931.7000000477,B,chai,O,i,91,1,717.7000000476837,736214.0,7005,WL,A,15.0
6,43.7189998626709,distr,16281.000137329102,Fri Aug 02 2024 13:44:50 GMT-0500 (Central Daylight Time),737015.5999999046,B,chair,O,r,70,1,801.5999999046326,736214.0,7005,WL,A,15.0
6,44.13699984550476,distr,15863.00015449524,Fri Aug 02 2024 13:44:50 GMT-0500 (Central Daylight Time),737433.2999999523,B,chairenter,O,enter,404,1,1219.2999999523163,736214.0,7005,WL,A,15.0
7,3.873999834060669,immed,56126.00016593933,Fri Aug 02 2024 13:44:50 GMT-0500 (Central Daylight Time),754166.2000000477,A,b,O,b,3865,1,3873.4000000953674,750292.7999999523,7005,WL,A,1.0
7,4.190999984741211,immed,55809.00001525879,Fri Aug 02 2024 13:44:50 GMT-0500 (Central Daylight Time),754483.7000000477,A,bo,O,o,292,1,4190.900000095367,750292.7999999523,7005,WL,A,1.0
7,4.357999801635742,immed,55642.00019836426,Fri Aug 02 2024 13:44:50 GMT-0500 (Central Daylight Time),754651.0,A,boo,O,o,152,1,4358.200000047684,750292.7999999523,7005,WL,A,1.0
7,4.640999794006348,immed,55359.00020599365,Fri Aug 02 2024 13:44:50 GMT-0500 (Central Daylight Time),754933.899999857,A,book,O,k,263,1,4641.099999904633,750292.7999999523,7005,WL,A,1.0
7,4.991999864578247,immed,55008.00013542175,Fri Aug 02 2024 13:44:50 GMT-0500 (Central Daylight Time),755284.2000000477,A,bookenter,O,enter,333,1,4991.400000095367,750292.7999999523,7005,WL,A,1.0
7,5.22599983215332,immed,54774.00016784668,Fri Aug 02 2024 13:44:50 GMT-0500 (Central Daylight Time),755518.5999999046,A,f,O,f,226,1,234.20000004768372,755284.399999857,7005,WL,A,2.0
7,5.32699990272522,immed,54673.00009727478,Fri Aug 02 2024 13:44:50 GMT-0500 (Central Daylight Time),755619.0999999046,A,fl,O,l,76,1,334.7000000476837,755284.399999857,7005,WL,A,2.0
7,5.476999998092651,immed,54523.00000190735,Fri Aug 02 2024 13:44:50 GMT-0500 (Central Daylight Time),755769.899999857,A,flo,O,o,137,1,485.5,755284.399999857,7005,WL,A,2.0
7,5.609999895095825,immed,54390.000104904175,Fri Aug 02 2024 13:44:50 GMT-0500 (Central Daylight Time),755902.0999999046,A,flow,O,w,113,1,617.7000000476837,755284.399999857,7005,WL,A,2.0
7,5.625999927520752,immed,54374.00007247925,Fri Aug 02 2024 13:44:50 GMT-0500 (Central Daylight Time),755918.5999999046,A,flowe,O,e,5,1,634.2000000476837,755284.399999857,7005,WL,A,2.0
7,5.659999847412109,immed,54340.00015258789,Fri Aug 02 2024 13:44:50 GMT-0500 (Central Daylight Time),755952.0,A,flower,O,r,23,1,667.6000001430511,755284.399999857,7005,WL,A,2.0
7,6.011999845504761,immed,53988.00015449524,Fri Aug 02 2024 13:44:50 GMT-0500 (Central Daylight Time),756303.899999857,A,flowerenter,O,enter,333,1,1019.5,755284.399999857,7005,WL,A,2.0
7,6.194999933242798,immed,53805.0000667572,Fri Aug 02 2024 13:44:50 GMT-0500 (Central Daylight Time),756487.7999999523,A,t,O,t,175,1,183.59999990463257,756304.2000000477,7005,WL,A,3.0
7,6.34499979019165,immed,53655.00020980835,Fri Aug 02 2024 13:44:50 GMT-0500 (Central Daylight Time),756637.0,A,tr,O,r,140,1,332.7999999523163,756304.2000000477,7005,WL,A,3.0
7,6.427999973297119,immed,53572.00002670288,Fri Aug 02 2024 13:44:50 GMT-0500 (Central Daylight Time),756720.399999857,A,tra,O,a,61,1,416.19999980926514,756304.2000000477,7005,WL,A,3.0
7,6.544999837875366,immed,53455.000162124634,Fri Aug 02 2024 13:44:50 GMT-0500 (Central Daylight Time),756837.5,A,trai,O,i,98,1,533.2999999523163,756304.2000000477,7005,WL,A,3.0
7,6.577999830245972,immed,53422.00016975403,Fri Aug 02 2024 13:44:50 GMT-0500 (Central Daylight Time),756870.5999999046,A,train,O,n,21,1,566.3999998569489,756304.2000000477,7005,WL,A,3.0
7,7.263000011444092,immed,52736.99998855591,Fri Aug 02 2024 13:44:50 GMT-0500 (Central Daylight Time),757555.0999999046,A,trainenter,O,enter,677,1,1250.8999998569489,756304.2000000477,7005,WL,A,3.0
7,7.496999979019165,immed,52503.000020980835,Fri Aug 02 2024 13:44:50 GMT-0500 (Central Daylight Time),757789.899999857,A,m,O,m,219,1,234.59999990463257,757555.2999999523,7005,WL,A,4.0
7,7.562999963760376,immed,52437.000036239624,Fri Aug 02 2024 13:44:50 GMT-0500 (Central Daylight Time),757855.7999999523,A,me,O,e,53,1,300.5,757555.2999999523,7005,WL,A,4.0
7,7.648000001907349,immed,52351.99999809265,Fri Aug 02 2024 13:44:50 GMT-0500 (Central Daylight Time),757940.0,A,mea,O,a,60,1,384.7000000476837,757555.2999999523,7005,WL,A,4.0
7,7.797999858856201,immed,52202.0001411438,Fri Aug 02 2024 13:44:50 GMT-0500 (Central Daylight Time),758090.0,A,mead,O,d,136,1,534.7000000476837,757555.2999999523,7005,WL,A,4.0
