acc_sum,block,block_c,condition,correct,correct_response,datetime,endtime,flanker,jitter,project,response,response_test_buffer_response,response_test_target_response,response_time,response_time_test_buffer_response,response_time_test_target_response,row_sel,session_number,start_end,starttime,subject_id,target,task,task_vers,time_test_buffer,time_test_buffer_response,time_test_constants,time_test_flanker,time_test_jitter,time_test_logger,time_test_target,time_test_target_response,time_test_variables,trial
0,prac,1,inc,0,m,Fri Nov 14 2025 16:41:18 GMT-0600 (Central Standard Time),202493.29999995232,elated,900,O,None,,,1799,,,6,1,4961.399999976158,197531.89999997616,7237,napkin,AF,B,,,,,,,,,,1
1,prac,1,inc,1,z,Fri Nov 14 2025 16:41:18 GMT-0600 (Central Standard Time),205276.0,film,900,O,z,,,573,,,14,1,2779.100000023842,202496.89999997616,7237,hate,AF,B,,,,,,,,,,2
2,prac,1,inc,1,m,Fri Nov 14 2025 16:41:18 GMT-0600 (Central Standard Time),208024.60000002384,kind,900,O,m,,,534,,,2,1,2745.0,205279.60000002384,7237,rock,AF,B,,,,,,,,,,3
3,prac,1,inc,1,z,Fri Nov 14 2025 16:41:18 GMT-0600 (Central Standard Time),210807.0,rock,900,O,z,,,570,,,10,1,2778.899999976158,208028.10000002384,7237,kind,AF,B,,,,,,,,,,4
4,prac,1,inc,1,m,Fri Nov 14 2025 16:41:18 GMT-0600 (Central Standard Time),213739.0,hate,1100,O,m,,,524,,,4,1,2928.2000000476837,210810.79999995232,7237,film,AF,B,,,,,,,,,,5
5,prac,1,inc,1,z,Fri Nov 14 2025 16:41:18 GMT-0600 (Central Standard Time),216821.69999992847,window,1100,O,z,,,671,,,16,1,3078.1999999284744,213743.5,7237,temper,AF,B,,,,,,,,,,6
6,prac,1,con,1,m,Fri Nov 14 2025 16:41:18 GMT-0600 (Central Standard Time),219771.39999997616,remote,1000,O,m,,,648,,,7,1,2946.2000000476837,216825.19999992847,7237,remote,AF,B,,,,,,,,,,7
6,prac,1,con,0,z,Fri Nov 14 2025 16:41:18 GMT-0600 (Central Standard Time),222470.29999995232,brutal,800,O,m,,,596,,,13,1,2695.600000023842,219774.69999992847,7237,brutal,AF,B,,,,,,,,,,8
7,prac,1,inc,1,m,Fri Nov 14 2025 16:41:18 GMT-0600 (Central Standard Time),225602.10000002384,brutal,1100,O,m,,,725,,,8,1,3128.4000000953674,222473.69999992847,7237,window,AF,B,,,,,,,,,,9
8,prac,1,con,1,z,Fri Nov 14 2025 16:41:18 GMT-0600 (Central Standard Time),228251.29999995232,elated,800,O,z,,,538,,,9,1,2646.0,225605.29999995232,7237,elated,AF,B,,,,,,,,,,10
9,prac,1,con,1,m,Fri Nov 14 2025 16:41:18 GMT-0600 (Central Standard Time),231367.10000002384,step,800,O,m,,,1003,,,1,1,3112.2000000476837,228254.89999997616,7237,step,AF,B,,,,,,,,,,11
10,prac,1,con,1,z,Fri Nov 14 2025 16:41:18 GMT-0600 (Central Standard Time),234266.39999997616,rage,1000,O,z,,,592,,,15,1,2896.2999999523163,231370.10000002384,7237,rage,AF,B,,,,,,,,,,12
11,prac,1,con,1,m,Fri Nov 14 2025 16:41:18 GMT-0600 (Central Standard Time),237280.79999995232,bell,1000,O,m,,,707,,,3,1,3011.399999976158,234269.39999997616,7237,bell,AF,B,,,,,,,,,,13
12,prac,1,con,1,m,Fri Nov 14 2025 16:41:18 GMT-0600 (Central Standard Time),239981.0,jacket,800,O,m,,,589,,,5,1,2695.600000023842,237285.39999997616,7237,jacket,AF,B,,,,,,,,,,14
13,prac,1,con,1,z,Fri Nov 14 2025 16:41:18 GMT-0600 (Central Standard Time),242763.0,love,1000,O,z,,,474,,,11,1,2778.7000000476837,239984.29999995232,7237,love,AF,B,,,,,,,,,,15
14,prac,1,inc,1,z,Fri Nov 14 2025 16:41:18 GMT-0600 (Central Standard Time),245912.69999992847,napkin,1100,O,z,,,733,,,12,1,3146.5999999046326,242766.10000002384,7237,friend,AF,B,,,,,,,,,,16
1,prac,2,inc,1,z,Fri Nov 14 2025 16:41:18 GMT-0600 (Central Standard Time),252877.0,rock,900,O,z,,,655,,,10,1,2846.2000000476837,250030.79999995232,7237,kind,AF,B,,,,,,,,,,1
2,prac,2,inc,1,m,Fri Nov 14 2025 16:41:18 GMT-0600 (Central Standard Time),256009.39999997616,brutal,1100,O,m,,,717,,,8,1,3129.5,252879.89999997616,7237,window,AF,B,,,,,,,,,,2
3,prac,2,con,1,z,Fri Nov 14 2025 16:41:18 GMT-0600 (Central Standard Time),258791.69999992847,rage,1000,O,z,,,477,,,15,1,2777.2999999523163,256014.39999997616,7237,rage,AF,B,,,,,,,,,,3
4,prac,2,inc,1,m,Fri Nov 14 2025 16:41:18 GMT-0600 (Central Standard Time),261724.5,hate,1100,O,m,,,522,,,4,1,2929.600000023842,258794.89999997616,7237,film,AF,B,,,,,,,,,,4
5,prac,2,inc,1,z,Fri Nov 14 2025 16:41:18 GMT-0600 (Central Standard Time),264689.89999997616,napkin,1100,O,z,,,567,,,12,1,2962.399999976158,261727.5,7237,friend,AF,B,,,,,,,,,,5
6,prac,2,con,1,m,Fri Nov 14 2025 16:41:18 GMT-0600 (Central Standard Time),267523.10000002384,jacket,800,O,m,,,733,,,5,1,2829.7000000476837,264693.39999997616,7237,jacket,AF,B,,,,,,,,,,6
7,prac,2,con,1,z,Fri Nov 14 2025 16:41:18 GMT-0600 (Central Standard Time),270221.60000002384,love,1000,O,z,,,404,,,11,1,2695.3000000715256,267526.2999999523,7237,love,AF,B,,,,,,,,,,7
8,prac,2,con,1,m,Fri Nov 14 2025 16:41:18 GMT-0600 (Central Standard Time),272904.2999999523,step,800,O,m,,,569,,,1,1,2679.899999976158,270224.39999997616,7237,step,AF,B,,,,,,,,,,8
9,prac,2,con,1,z,Fri Nov 14 2025 16:41:18 GMT-0600 (Central Standard Time),275602.6999999285,brutal,800,O,z,,,590,,,13,1,2695.399999976158,272907.2999999523,7237,brutal,AF,B,,,,,,,,,,9
10,prac,2,inc,1,z,Fri Nov 14 2025 16:41:18 GMT-0600 (Central Standard Time),278418.7999999523,film,900,O,z,,,599,,,14,1,2813.100000023842,275605.6999999285,7237,hate,AF,B,,,,,,,,,,10
11,prac,2,con,1,m,Fri Nov 14 2025 16:41:18 GMT-0600 (Central Standard Time),281418.0,remote,1000,O,m,,,699,,,7,1,2996.100000023842,278421.89999997616,7237,remote,AF,B,,,,,,,,,,11
12,prac,2,con,1,m,Fri Nov 14 2025 16:41:18 GMT-0600 (Central Standard Time),284300.2999999523,bell,1000,O,m,,,572,,,3,1,2878.7999999523163,281421.5,7237,bell,AF,B,,,,,,,,,,12
13,prac,2,con,1,z,Fri Nov 14 2025 16:41:18 GMT-0600 (Central Standard Time),287083.2999999523,elated,800,O,z,,,683,,,9,1,2780.1999999284744,284303.10000002384,7237,elated,AF,B,,,,,,,,,,13
14,prac,2,inc,1,z,Fri Nov 14 2025 16:41:18 GMT-0600 (Central Standard Time),290198.2999999523,window,1100,O,z,,,704,,,16,1,3112.100000023842,287086.1999999285,7237,temper,AF,B,,,,,,,,,,14
15,prac,2,inc,1,m,Fri Nov 14 2025 16:41:18 GMT-0600 (Central Standard Time),293231.2999999523,elated,900,O,m,,,828,,,6,1,3030.100000023842,290201.1999999285,7237,napkin,AF,B,,,,,,,,,,15
16,prac,2,inc,1,m,Fri Nov 14 2025 16:41:18 GMT-0600 (Central Standard Time),296030.6999999285,kind,900,O,m,,,589,,,2,1,2796.5,293234.1999999285,7237,rock,AF,B,,,,,,,,,,16
1,test,1,con,1,m,Fri Nov 14 2025 16:41:18 GMT-0600 (Central Standard Time),317389.60000002384,film,1000,O,m,m,None,553,339.0,214.0,91,1,2076.600000023842,315313.0,7237,film,AF,B,312732,312732,311005,312016,311005,313082,312518,312518,313082,1
2,test,1,con,1,z,Fri Nov 14 2025 16:41:18 GMT-0600 (Central Standard Time),319222.60000002384,rage,900,O,z,z,None,405,205.0,200.0,50,1,1830.1000000238419,317392.5,7237,rage,AF,B,314699,314699,313085,313998,313085,314915,314499,314499,314915,2
3,test,1,inc,1,m,Fri Nov 14 2025 16:41:18 GMT-0600 (Central Standard Time),321289.10000002384,temper,1000,O,m,m,None,519,320.0,199.0,111,1,2063.0,319226.10000002384,7237,napkin,AF,B,316647,316648,314918,315931,314918,316981,316448,316448,316981,3
4,test,1,inc,1,m,Fri Nov 14 2025 16:41:18 GMT-0600 (Central Standard Time),323504.6999999285,friend,1100,O,m,m,None,577,378.0,199.0,112,1,2212.6999999284744,321292.0,7237,napkin,AF,B,318814,318814,316984,318097,316984,319197,318614,318614,319197,4
5,test,1,con,1,m,Fri Nov 14 2025 16:41:18 GMT-0600 (Central Standard Time),325620.6999999285,film,1100,O,m,m,None,474,275.0,199.0,92,1,2113.0999999046326,323507.60000002384,7237,film,AF,B,321029,321029,319200,320313,319200,321313,320830,320830,321313,5
6,test,1,inc,1,m,Fri Nov 14 2025 16:41:18 GMT-0600 (Central Standard Time),327835.7999999523,friend,1100,O,m,m,None,572,372.0,200.0,104,1,2211.899999976158,325623.89999997616,7237,jacket,AF,B,323147,323147,321316,322429,321316,323528,322946,322946,323528,6
7,test,1,con,1,m,Fri Nov 14 2025 16:41:18 GMT-0600 (Central Standard Time),329686.10000002384,window,900,O,m,m,None,412,213.0,199.0,122,1,1847.5,327838.60000002384,7237,window,AF,B,325162,325162,323531,324445,323531,325378,324962,324962,325378,7
8,test,1,inc,1,z,Fri Nov 14 2025 16:41:18 GMT-0600 (Central Standard Time),331836.2999999523,remote,1000,O,z,z,None,617,417.0,200.0,31,1,2147.0,329689.2999999523,7237,friend,AF,B,327111,327111,325381,326394,325382,327528,326911,326911,327528,8
9,test,1,con,1,z,Fri Nov 14 2025 16:41:18 GMT-0600 (Central Standard Time),333651.0,hate,800,O,z,z,None,466,266.0,200.0,41,1,1811.8000000715256,331839.1999999285,7237,hate,AF,B,329061,329061,327531,328344,327531,329343,328860,328860,329343,9
10,test,1,inc,1,z,Fri Nov 14 2025 16:41:18 GMT-0600 (Central Standard Time),335700.89999997616,napkin,900,O,z,z,None,615,415.0,200.0,62,1,2047.2000000476837,333653.6999999285,7237,temper,AF,B,330976,330976,329346,330260,329346,331393,330776,330776,331393,10
11,test,1,inc,1,m,Fri Nov 14 2025 16:41:18 GMT-0600 (Central Standard Time),337717.2999999523,brutal,900,O,m,m,None,564,349.0,215.0,126,1,2013.6999999284744,335703.60000002384,7237,window,AF,B,333043,333043,331396,332309,331396,333409,332827,332827,333409,11
12,test,1,inc,1,z,Fri Nov 14 2025 16:41:18 GMT-0600 (Central Standard Time),339899.2999999523,remote,1000,O,z,z,None,632,433.0,199.0,39,1,2179.0,337720.2999999523,7237,brutal,AF,B,335142,335142,333412,334425,333413,335591,334942,334942,335591,12
13,test,1,con,1,m,Fri Nov 14 2025 16:41:18 GMT-0600 (Central Standard Time),341933.0,remote,900,O,m,m,None,606,394.0,212.0,114,1,2031.0,339902.0,7237,remote,AF,B,337229,337229,335594,336510,335594,337625,337015,337015,337625,13
14,test,1,con,1,z,Fri Nov 14 2025 16:41:18 GMT-0600 (Central Standard Time),343947.7999999523,love,1000,O,z,z,None,474,274.0,200.0,19,1,2012.1999999284744,341935.60000002384,7237,love,AF,B,339357,339357,337628,338641,337628,339640,339157,339157,339640,14
15,test,1,con,1,m,Fri Nov 14 2025 16:41:18 GMT-0600 (Central Standard Time),345864.10000002384,jacket,800,O,m,m,None,568,369.0,199.0,97,1,1912.9000000953674,343951.1999999285,7237,jacket,AF,B,341173,341174,339643,340457,339643,341556,340974,340974,341556,15
16,test,1,inc,1,z,Fri Nov 14 2025 16:41:18 GMT-0600 (Central Standard Time),347830.2999999523,rock,900,O,z,z,None,521,322.0,199.0,14,1,1962.2999999523163,345868.0,7237,kind,AF,B,343190,343190,341560,342472,341560,343522,342990,342990,343522,16
17,test,1,inc,1,z,Fri Nov 14 2025 16:41:18 GMT-0600 (Central Standard Time),349796.0,jacket,800,O,z,z,None,615,416.0,199.0,61,1,1960.5,347835.5,7237,temper,AF,B,345055,345055,343528,344339,343528,345488,344856,344856,345488,17
18,test,1,inc,1,z,Fri Nov 14 2025 16:41:18 GMT-0600 (Central Standard Time),351812.2999999523,jacket,800,O,z,z,None,667,467.0,200.0,5,1,2013.0,349799.2999999523,7237,elated,AF,B,347021,347021,345491,346306,345492,347504,346821,346821,347504,18
19,test,1,con,1,m,Fri Nov 14 2025 16:41:18 GMT-0600 (Central Standard Time),353711.5,remote,800,O,m,m,None,554,353.0,201.0,113,1,1892.7000000476837,351818.7999999523,7237,remote,AF,B,349038,349038,347511,348321,347511,349404,348837,348837,349404,19
20,test,1,con,1,m,Fri Nov 14 2025 16:41:18 GMT-0600 (Central Standard Time),355843.7999999523,step,1100,O,m,m,None,497,282.0,215.0,68,1,2128.899999976158,353714.89999997616,7237,step,AF,B,351253,351253,349407,350520,349407,351536,351038,351038,351536,20
21,test,1,inc,1,m,Fri Nov 14 2025 16:41:18 GMT-0600 (Central Standard Time),357877.7999999523,love,1000,O,m,m,None,489,289.0,200.0,71,1,2031.1000000238419,355846.6999999285,7237,step,AF,B,353270,353270,351539,352553,351539,353570,353069,353069,353570,21
21,test,1,inc,0,m,Fri Nov 14 2025 16:41:18 GMT-0600 (Central Standard Time),359793.0,brutal,900,O,z,z,None,469,269.0,200.0,102,1,1912.1000000238419,357880.89999997616,7237,jacket,AF,B,355202,355202,353573,354486,353573,355485,355002,355002,355485,22
22,test,1,con,1,z,Fri Nov 14 2025 16:41:18 GMT-0600 (Central Standard Time),361841.7999999523,hate,900,O,z,z,None,608,409.0,199.0,42,1,2045.7999999523163,359796.0,7237,hate,AF,B,357118,357118,355488,356402,355488,357534,356919,356919,357534,23
23,test,1,con,1,m,Fri Nov 14 2025 16:41:18 GMT-0600 (Central Standard Time),363875.2999999523,rock,800,O,m,m,None,692,493.0,199.0,73,1,2030.6000000238419,361844.6999999285,7237,rock,AF,B,359067,359067,357537,358351,357537,359567,358868,358868,359567,24
24,test,1,inc,1,z,Fri Nov 14 2025 16:41:18 GMT-0600 (Central Standard Time),366007.6999999285,window,1100,O,z,z,None,488,289.0,199.0,40,1,2129.399999976158,363878.2999999523,7237,brutal,AF,B,361399,361399,359570,360683,359571,361700,361200,361200,361700,25
25,test,1,inc,1,m,Fri Nov 14 2025 16:41:18 GMT-0600 (Central Standard Time),368107.0,brutal,900,O,m,m,None,665,450.0,215.0,118,1,2095.899999976158,366011.10000002384,7237,remote,AF,B,363333,363333,361703,362616,361703,363799,363118,363118,363799,26
26,test,1,inc,1,m,Fri Nov 14 2025 16:41:18 GMT-0600 (Central Standard Time),370223.2999999523,temper,1000,O,m,m,None,572,372.0,200.0,103,1,2113.5,368109.7999999523,7237,jacket,AF,B,365532,365532,363802,364816,363802,365915,365332,365332,365915,27
27,test,1,con,1,m,Fri Nov 14 2025 16:41:18 GMT-0600 (Central Standard Time),372388.6999999285,window,1000,O,m,m,None,624,423.0,201.0,123,1,2162.5,370226.1999999285,7237,window,AF,B,367649,367649,365918,366932,365919,368081,367448,367448,368081,28
28,test,1,con,1,m,Fri Nov 14 2025 16:41:18 GMT-0600 (Central Standard Time),374423.0,rock,1000,O,m,m,None,500,300.0,200.0,75,1,2031.3999999761581,372391.60000002384,7237,rock,AF,B,369815,369815,368084,369098,368084,370115,369615,369615,370115,29
29,test,1,inc,1,m,Fri Nov 14 2025 16:41:18 GMT-0600 (Central Standard Time),376736.89999997616,hate,1100,O,m,m,None,668,468.0,200.0,88,1,2311.2999999523163,374425.60000002384,7237,bell,AF,B,371947,371947,370118,371230,370118,372429,371746,371746,372429,30
30,test,1,inc,1,z,Fri Nov 14 2025 16:41:18 GMT-0600 (Central Standard Time),378586.6999999285,step,800,O,z,z,None,499,300.0,199.0,21,1,1846.6999999284744,376740.0,7237,love,AF,B,373963,373963,372432,373246,372432,374279,373762,373763,374279,31
31,test,1,inc,1,z,Fri Nov 14 2025 16:41:18 GMT-0600 (Central Standard Time),380836.6999999285,window,1100,O,z,z,None,600,399.0,201.0,8,1,2247.0,378589.6999999285,7237,elated,AF,B,376113,376113,374282,375395,374282,376529,375912,375912,376529,32
32,test,1,inc,1,m,Fri Nov 14 2025 16:41:18 GMT-0600 (Central Standard Time),382935.10000002384,temper,1000,O,m,m,None,561,362.0,199.0,119,1,2095.100000023842,380840.0,7237,remote,AF,B,378261,378261,376532,377545,376532,378627,378062,378062,378627,33
33,test,1,inc,1,m,Fri Nov 14 2025 16:41:18 GMT-0600 (Central Standard Time),384735.10000002384,rage,800,O,m,m,None,478,279.0,199.0,93,1,1797.0,382938.10000002384,7237,film,AF,B,380144,380144,378630,379444,378630,380427,379945,379945,380427,34
33,test,1,con,0,z,Fri Nov 14 2025 16:41:18 GMT-0600 (Central Standard Time),386834.2999999523,kind,1100,O,m,m,None,451,252.0,199.0,12,1,2096.5,384737.7999999523,7237,kind,AF,B,382260,382260,380430,381544,380430,382526,382061,382061,382526,35
34,test,1,con,1,m,Fri Nov 14 2025 16:41:18 GMT-0600 (Central Standard Time),388933.0,jacket,1000,O,m,m,None,557,352.0,205.0,99,1,2095.7000000476837,386837.2999999523,7237,jacket,AF,B,384264,384264,382529,383544,382530,384625,384059,384059,384625,36
35,test,1,inc,1,m,Fri Nov 14 2025 16:41:18 GMT-0600 (Central Standard Time),390766.60000002384,elated,800,O,m,m,None,495,296.0,199.0,101,1,1830.6000000238419,388936.0,7237,jacket,AF,B,386159,386159,384628,385442,384628,386459,385959,385959,386459,37
36,test,1,inc,1,z,Fri Nov 14 2025 16:41:18 GMT-0600 (Central Standard Time),392782.7999999523,napkin,900,O,z,z,None,572,372.0,200.0,30,1,2013.1000000238419,390769.6999999285,7237,friend,AF,B,388091,388091,386462,387375,386462,388475,387891,387891,388475,38
37,test,1,inc,1,m,Fri Nov 14 2025 16:41:18 GMT-0600 (Central Standard Time),394698.2999999523,rage,800,O,m,m,None,568,368.0,200.0,77,1,1912.6999999284744,392785.60000002384,7237,rock,AF,B,390007,390007,388478,389291,388478,390390,389807,389807,390390,39
38,test,1,inc,1,m,Fri Nov 14 2025 16:41:18 GMT-0600 (Central Standard Time),396814.39999997616,hate,1100,O,m,m,None,471,255.0,216.0,80,1,2113.0,394701.39999997616,7237,rock,AF,B,392241,392241,390393,391507,390394,392506,392025,392025,392506,40
39,test,1,inc,1,z,Fri Nov 14 2025 16:41:18 GMT-0600 (Central Standard Time),398931.6999999285,film,1100,O,z,z,None,468,267.0,201.0,48,1,2114.6999999284744,396817.0,7237,hate,AF,B,394340,394340,392509,393624,392509,394624,394139,394139,394624,41
40,test,1,con,1,m,Fri Nov 14 2025 16:41:18 GMT-0600 (Central Standard Time),401229.6999999285,napkin,1100,O,m,m,None,650,450.0,200.0,108,1,2295.1999999284744,398934.5,7237,napkin,AF,B,396455,396455,394627,395739,394627,396922,396255,396255,396922,42
41,test,1,inc,1,z,Fri Nov 14 2025 16:41:18 GMT-0600 (Central Standard Time),403279.60000002384,bell,1000,O,z,z,None,512,312.0,200.0,23,1,2046.7000000476837,401232.89999997616,7237,love,AF,B,398655,398655,396925,397939,396925,398972,398455,398455,398972,43
42,test,1,con,1,m,Fri Nov 14 2025 16:41:18 GMT-0600 (Central Standard Time),405378.5,bell,900,O,m,m,None,650,451.0,199.0,82,1,2096.2000000476837,403282.2999999523,7237,bell,AF,B,400604,400604,398974,399888,398975,401071,400405,400405,401071,44
42,test,1,con,0,z,Fri Nov 14 2025 16:41:18 GMT-0600 (Central Standard Time),407344.60000002384,temper,900,O,m,m,None,518,319.0,199.0,58,1,1963.2000000476837,405381.39999997616,7237,temper,AF,B,402704,402704,401073,401987,401074,403037,402504,402504,403037,45
43,test,1,con,1,z,Fri Nov 14 2025 16:41:18 GMT-0600 (Central Standard Time),409593.5,elated,1000,O,z,z,None,701,501.0,200.0,3,1,2245.8000000715256,407347.6999999285,7237,elated,AF,B,404770,404770,403040,404053,403040,405286,404570,404570,405285,46
44,test,1,con,1,m,Fri Nov 14 2025 16:41:18 GMT-0600 (Central Standard Time),411609.60000002384,film,900,O,m,m,None,567,368.0,199.0,90,1,2012.5,409597.10000002384,7237,film,AF,B,406919,406919,405289,406202,405289,407302,406719,406719,407302,47
45,test,1,con,1,m,Fri Nov 14 2025 16:41:18 GMT-0600 (Central Standard Time),413759.0,step,1000,O,m,m,None,605,405.0,200.0,67,1,2146.3000000715256,411612.6999999285,7237,step,AF,B,409035,409035,407305,408318,407305,409451,408835,408835,409451,48
46,test,1,inc,1,m,Fri Nov 14 2025 16:41:18 GMT-0600 (Central Standard Time),415741.89999997616,kind,900,O,m,m,None,540,340.0,200.0,70,1,1980.2000000476837,413761.6999999285,7237,step,AF,B,411084,411084,409454,410368,409454,411434,410884,410884,411434,49
47,test,1,con,1,z,Fri Nov 14 2025 16:41:18 GMT-0600 (Central Standard Time),418007.89999997616,brutal,1100,O,z,z,None,645,446.0,199.0,36,1,2263.399999976158,415744.5,7237,brutal,AF,B,413250,413250,411437,412550,411437,413700,413051,413051,413700,50
48,test,1,con,1,z,Fri Nov 14 2025 16:41:18 GMT-0600 (Central Standard Time),420040.6999999285,hate,1000,O,z,z,None,494,294.0,200.0,43,1,2029.7999999523163,418010.89999997616,7237,hate,AF,B,415433,415433,413703,414716,413703,415733,415232,415232,415733,51
49,test,1,inc,1,z,Fri Nov 14 2025 16:41:18 GMT-0600 (Central Standard Time),422207.0,remote,1000,O,z,z,None,622,423.0,199.0,63,1,2163.5,420043.5,7237,temper,AF,B,417465,417465,415736,416749,415736,417899,417266,417266,417899,52
50,test,1,inc,1,z,Fri Nov 14 2025 16:41:18 GMT-0600 (Central Standard Time),424439.1999999285,film,1100,O,z,z,None,589,389.0,200.0,24,1,2229.6999999284744,422209.5,7237,love,AF,B,419731,419731,417902,419015,417902,420131,419531,419531,420131,53
51,test,1,con,1,m,Fri Nov 14 2025 16:41:18 GMT-0600 (Central Standard Time),426571.89999997616,remote,1000,O,m,m,None,584,384.0,200.0,115,1,2129.7000000476837,424442.1999999285,7237,remote,AF,B,421864,421864,420134,421148,420134,422264,421664,421664,422264,54
51,test,1,con,0,z,Fri Nov 14 2025 16:41:18 GMT-0600 (Central Standard Time),428737.5,temper,1000,O,m,m,None,626,427.0,199.0,59,1,2160.899999976158,426576.60000002384,7237,temper,AF,B,423997,423997,422269,423282,422269,424430,423798,423798,424430,55
52,test,1,inc,1,z,Fri Nov 14 2025 16:41:18 GMT-0600 (Central Standard Time),431004.5,bell,1000,O,z,z,None,716,517.0,199.0,15,1,2264.2000000476837,428740.2999999523,7237,kind,AF,B,426163,426163,424432,425446,424433,426697,425963,425963,426697,56
53,test,1,con,1,z,Fri Nov 14 2025 16:41:18 GMT-0600 (Central Standard Time),433569.60000002384,friend,800,O,z,z,None,1218,1018.0,200.0,25,1,2562.600000023842,431007.0,7237,friend,AF,B,428229,428229,426699,427512,426699,429262,428029,428029,429262,57
54,test,1,con,1,m,Fri Nov 14 2025 16:41:18 GMT-0600 (Central Standard Time),435851.6999999285,window,1100,O,m,m,None,639,440.0,199.0,124,1,2279.399999976158,433572.2999999523,7237,window,AF,B,431095,431095,429264,430378,429264,431544,430895,430895,431544,58
55,test,1,con,1,m,Fri Nov 14 2025 16:41:18 GMT-0600 (Central Standard Time),438068.6999999285,bell,1000,O,m,m,None,668,467.0,201.0,83,1,2214.399999976158,435854.2999999523,7237,bell,AF,B,433277,433277,431546,432561,431546,433761,433076,433076,433761,59
56,test,1,con,1,m,Fri Nov 14 2025 16:41:18 GMT-0600 (Central Standard Time),440034.7999999523,step,800,O,m,m,None,627,427.0,200.0,65,1,1962.2999999523163,438072.5,7237,step,AF,B,435293,435293,433765,434577,433765,435727,435093,435093,435727,60
57,test,1,con,1,z,Fri Nov 14 2025 16:41:18 GMT-0600 (Central Standard Time),441950.0,brutal,900,O,z,z,None,473,273.0,200.0,34,1,1912.3999999761581,440037.60000002384,7237,brutal,AF,B,437359,437359,435730,436644,435730,437642,437159,437159,437642,61
58,test,1,con,1,m,Fri Nov 14 2025 16:41:18 GMT-0600 (Central Standard Time),443716.2999999523,window,800,O,m,m,None,424,225.0,199.0,121,1,1763.2999999523163,441953.0,7237,window,AF,B,439175,439175,437645,438460,437645,439408,438976,438976,439408,62
59,test,1,inc,1,m,Fri Nov 14 2025 16:41:18 GMT-0600 (Central Standard Time),445899.0,kind,900,O,m,m,None,741,542.0,199.0,86,1,2180.0,443719.0,7237,bell,AF,B,441042,441042,439411,440325,439411,441591,440842,440842,441591,63
60,test,1,con,1,z,Fri Nov 14 2025 16:41:18 GMT-0600 (Central Standard Time),447848.6999999285,brutal,1000,O,z,z,None,402,203.0,199.0,35,1,1947.0,445901.6999999285,7237,brutal,AF,B,443325,443325,441594,442608,441594,443541,443125,443125,443541,64
61,test,1,con,1,m,Fri Nov 14 2025 16:41:18 GMT-0600 (Central Standard Time),449914.1999999285,bell,800,O,m,m,None,726,526.0,200.0,81,1,2060.0,447854.1999999285,7237,bell,AF,B,445073,445073,443546,444357,443547,445606,444873,444873,445606,65
62,test,1,con,1,m,Fri Nov 14 2025 16:41:18 GMT-0600 (Central Standard Time),452064.5,jacket,1100,O,m,m,None,504,304.0,200.0,100,1,2147.0,449917.5,7237,jacket,AF,B,447439,447439,445610,446723,445610,447757,447239,447239,447757,66
63,test,1,inc,1,m,Fri Nov 14 2025 16:41:18 GMT-0600 (Central Standard Time),454229.60000002384,hate,1100,O,m,m,None,531,331.0,200.0,96,1,2162.0,452067.60000002384,7237,film,AF,B,449589,449589,447760,448872,447760,449922,449389,449389,449922,67
64,test,1,con,1,m,Fri Nov 14 2025 16:41:18 GMT-0600 (Central Standard Time),456328.0,rock,900,O,m,m,None,659,460.0,199.0,74,1,2095.899999976158,454232.10000002384,7237,rock,AF,B,451555,451555,449924,450839,449924,452020,451355,451355,452020,68
65,test,1,inc,1,z,Fri Nov 14 2025 16:41:18 GMT-0600 (Central Standard Time),458428.1999999285,film,1100,O,z,z,None,466,267.0,199.0,56,1,2097.2999999523163,456330.89999997616,7237,rage,AF,B,453837,453837,452023,453137,452023,454120,453638,453638,454120,69
66,test,1,con,1,z,Fri Nov 14 2025 16:41:18 GMT-0600 (Central Standard Time),460277.5,elated,900,O,z,z,None,406,206.0,200.0,2,1,1846.0,458431.5,7237,elated,AF,B,455754,455754,454124,455036,454124,455970,455553,455553,455970,70
66,test,1,con,0,z,Fri Nov 14 2025 16:41:18 GMT-0600 (Central Standard Time),462710.1999999285,friend,1000,O,m,m,None,883,683.0,200.0,27,1,2429.5999999046326,460280.60000002384,7237,friend,AF,B,457703,457703,455973,456986,455973,458402,457502,457502,458402,71
67,test,1,inc,1,m,Fri Nov 14 2025 16:41:18 GMT-0600 (Central Standard Time),464793.0,temper,1000,O,m,m,None,543,343.0,200.0,127,1,2079.8000000715256,462713.1999999285,7237,window,AF,B,460136,460136,458405,459419,458405,460485,459936,459936,460485,72
68,test,1,inc,1,z,Fri Nov 14 2025 16:41:18 GMT-0600 (Central Standard Time),466891.89999997616,window,1100,O,z,z,None,465,265.0,200.0,64,1,2096.0,464795.89999997616,7237,temper,AF,B,462318,462318,460488,461603,460488,462584,462118,462118,462584,73
69,test,1,inc,1,z,Fri Nov 14 2025 16:41:18 GMT-0600 (Central Standard Time),468809.10000002384,step,800,O,z,z,None,577,378.0,199.0,45,1,1914.1000000238419,466895.0,7237,hate,AF,B,464118,464118,462587,463401,462587,464501,463918,463918,464501,74
70,test,1,inc,1,z,Fri Nov 14 2025 16:41:18 GMT-0600 (Central Standard Time),470807.39999997616,napkin,900,O,z,z,None,570,371.0,199.0,6,1,1995.6000000238419,468811.7999999523,7237,elated,AF,B,466117,466117,464504,465417,464504,466500,465918,465918,466499,75
71,test,1,inc,1,z,Fri Nov 14 2025 16:41:18 GMT-0600 (Central Standard Time),473024.0,film,1100,O,z,z,None,594,378.0,216.0,16,1,2213.5,470810.5,7237,kind,AF,B,468334,468334,466503,467616,466503,468716,468118,468118,468716,76
72,test,1,inc,1,z,Fri Nov 14 2025 16:41:18 GMT-0600 (Central Standard Time),475073.89999997616,jacket,800,O,z,z,None,712,511.0,201.0,37,1,2047.1000000238419,473026.7999999523,7237,brutal,AF,B,470249,470249,468719,469532,468719,470766,470048,470048,470766,77
73,test,1,con,1,m,Fri Nov 14 2025 16:41:18 GMT-0600 (Central Standard Time),477005.2999999523,film,800,O,m,m,None,589,389.0,200.0,89,1,1928.5,475076.7999999523,7237,film,AF,B,472298,472298,470769,471582,470769,472697,472098,472098,472697,78
74,test,1,inc,1,m,Fri Nov 14 2025 16:41:18 GMT-0600 (Central Standard Time),479022.1999999285,kind,900,O,m,m,None,572,372.0,200.0,94,1,2014.1999999284744,477008.0,7237,film,AF,B,474332,474332,472700,473615,472700,474714,474131,474131,474714,79
75,test,1,inc,1,z,Fri Nov 14 2025 16:41:18 GMT-0600 (Central Standard Time),480955.10000002384,step,800,O,z,z,None,584,385.0,199.0,53,1,1930.0,479025.10000002384,7237,rage,AF,B,476246,476246,474717,475530,474717,476647,476047,476047,476647,80
76,test,1,con,1,m,Fri Nov 14 2025 16:41:18 GMT-0600 (Central Standard Time),483154.5,rock,1100,O,m,m,None,569,360.0,209.0,76,1,2196.8000000715256,480957.6999999285,7237,rock,AF,B,478479,478480,476650,477762,476650,478847,478270,478270,478847,81
77,test,1,con,1,z,Fri Nov 14 2025 16:41:18 GMT-0600 (Central Standard Time),485120.60000002384,love,900,O,z,z,None,537,337.0,200.0,18,1,1963.3000000715256,483157.2999999523,7237,love,AF,B,480463,480463,478849,479762,478850,480813,480263,480263,480813,82
78,test,1,con,1,z,Fri Nov 14 2025 16:41:18 GMT-0600 (Central Standard Time),487269.5,friend,900,O,z,z,None,715,515.0,200.0,26,1,2146.3000000715256,485123.1999999285,7237,friend,AF,B,482445,482445,480815,481728,480815,482962,482245,482245,482962,83
79,test,1,con,1,m,Fri Nov 14 2025 16:41:18 GMT-0600 (Central Standard Time),489317.60000002384,napkin,900,O,m,m,None,613,413.0,200.0,106,1,2045.2000000476837,487272.39999997616,7237,napkin,AF,B,484594,484594,482964,483877,482965,485010,484394,484394,485010,84
80,test,1,inc,1,m,Fri Nov 14 2025 16:41:18 GMT-0600 (Central Standard Time),491484.60000002384,friend,1100,O,m,m,None,524,324.0,200.0,128,1,2164.100000023842,489320.5,7237,window,AF,B,486844,486844,485013,486127,485013,487177,486644,486644,487177,85
81,test,1,con,1,m,Fri Nov 14 2025 16:41:18 GMT-0600 (Central Standard Time),493550.39999997616,remote,1100,O,m,m,None,429,230.0,199.0,116,1,2062.7999999523163,491487.60000002384,7237,remote,AF,B,489010,489010,487180,488293,487180,489242,488810,488810,489242,86
82,test,1,inc,1,m,Fri Nov 14 2025 16:41:18 GMT-0600 (Central Standard Time),495450.2999999523,elated,800,O,m,m,None,560,360.0,200.0,125,1,1897.2999999523163,493553.0,7237,window,AF,B,490776,490776,489245,490060,489245,491142,490576,490576,491142,87
83,test,1,con,1,z,Fri Nov 14 2025 16:41:18 GMT-0600 (Central Standard Time),497515.5,kind,800,O,z,z,None,725,525.0,200.0,9,1,2062.3000000715256,495453.1999999285,7237,kind,AF,B,492675,492675,491145,491958,491145,493208,492475,492475,493208,88
84,test,1,con,1,z,Fri Nov 14 2025 16:41:18 GMT-0600 (Central Standard Time),499680.89999997616,elated,1100,O,z,z,None,519,319.0,200.0,4,1,2162.2000000476837,497518.6999999285,7237,elated,AF,B,495041,495041,493211,494324,493211,495373,494840,494840,495373,89
85,test,1,con,1,m,Fri Nov 14 2025 16:41:18 GMT-0600 (Central Standard Time),501631.1999999285,napkin,1000,O,m,m,None,405,205.0,200.0,107,1,1947.0999999046326,499684.10000002384,7237,napkin,AF,B,497107,497107,495376,496390,495376,497323,496907,496907,497323,90
86,test,1,inc,1,z,Fri Nov 14 2025 16:41:18 GMT-0600 (Central Standard Time),503763.7999999523,bell,1000,O,z,z,None,592,391.0,201.0,55,1,2129.7999999523163,501634.0,7237,rage,AF,B,499057,499057,497326,498340,497326,499456,498856,498856,499456,91
87,test,1,con,1,z,Fri Nov 14 2025 16:41:18 GMT-0600 (Central Standard Time),505829.60000002384,rage,1000,O,z,z,None,523,323.0,200.0,51,1,2062.600000023842,503767.0,7237,rage,AF,B,501189,501189,499459,500472,499459,501522,500989,500989,501522,92
88,test,1,con,1,z,Fri Nov 14 2025 16:41:18 GMT-0600 (Central Standard Time),508046.5,temper,1100,O,z,z,None,572,356.0,216.0,60,1,2214.2000000476837,505832.2999999523,7237,temper,AF,B,503371,503371,501524,502638,501525,503739,503155,503155,503739,93
89,test,1,inc,1,z,Fri Nov 14 2025 16:41:18 GMT-0600 (Central Standard Time),510011.39999997616,napkin,900,O,z,z,None,525,325.0,200.0,38,1,1962.1000000238419,508049.2999999523,7237,brutal,AF,B,505371,505371,503741,504654,503742,505703,505171,505171,505703,94
90,test,1,con,1,z,Fri Nov 14 2025 16:41:18 GMT-0600 (Central Standard Time),512111.10000002384,hate,1100,O,z,z,None,463,263.0,200.0,44,1,2096.8000000715256,510014.2999999523,7237,hate,AF,B,507537,507537,505706,506821,505707,507803,507337,507337,507803,95
91,test,1,inc,1,m,Fri Nov 14 2025 16:41:18 GMT-0600 (Central Standard Time),513978.10000002384,elated,800,O,m,m,None,520,320.0,200.0,117,1,1863.5,512114.60000002384,7237,remote,AF,B,509336,509336,507807,508620,507808,509670,509136,509136,509670,96
92,test,1,con,1,z,Fri Nov 14 2025 16:41:18 GMT-0600 (Central Standard Time),516027.2999999523,rage,1100,O,z,z,None,410,210.0,200.0,52,1,2046.5,513980.7999999523,7237,rage,AF,B,511502,511502,509673,510787,509673,511719,511302,511302,511719,97
93,test,1,inc,1,m,Fri Nov 14 2025 16:41:18 GMT-0600 (Central Standard Time),517892.6999999285,elated,800,O,m,m,None,523,324.0,199.0,109,1,1862.7999999523163,516029.89999997616,7237,napkin,AF,B,513251,513251,511722,512536,511722,513585,513052,513052,513585,98
94,test,1,inc,1,m,Fri Nov 14 2025 16:41:18 GMT-0600 (Central Standard Time),520059.2999999523,hate,1100,O,m,m,None,532,333.0,199.0,72,1,2163.899999976158,517895.39999997616,7237,step,AF,B,515417,515418,513587,514704,513588,515751,515218,515218,515751,99
95,test,1,inc,1,m,Fri Nov 14 2025 16:41:18 GMT-0600 (Central Standard Time),522024.60000002384,brutal,900,O,m,m,None,519,304.0,215.0,110,1,1962.3000000715256,520062.2999999523,7237,napkin,AF,B,517399,517399,515754,516667,515755,517717,517184,517184,517717,100
96,test,1,inc,1,z,Fri Nov 14 2025 16:41:18 GMT-0600 (Central Standard Time),523973.60000002384,jacket,800,O,z,z,None,629,415.0,214.0,29,1,1946.4000000953674,522027.1999999285,7237,friend,AF,B,519249,519249,517719,518533,517719,519666,519035,519035,519666,101
97,test,1,con,1,m,Fri Nov 14 2025 16:41:18 GMT-0600 (Central Standard Time),526222.6000000238,bell,1100,O,m,m,None,612,412.0,200.0,84,1,2246.600000023842,523976.0,7237,bell,AF,B,521500,521500,519668,520783,519668,521915,521300,521300,521915,102
98,test,1,con,1,z,Fri Nov 14 2025 16:41:18 GMT-0600 (Central Standard Time),528372.6000000238,kind,1000,O,z,z,None,616,415.0,201.0,11,1,2146.7000000476837,526225.8999999762,7237,kind,AF,B,523649,523649,521918,522932,521918,524065,523448,523448,524065,103
98,test,1,con,0,z,Fri Nov 14 2025 16:41:18 GMT-0600 (Central Standard Time),530822.3999999762,friend,1100,O,m,m,None,806,606.0,200.0,28,1,2446.7000000476837,528375.6999999285,7237,friend,AF,B,525898,525898,524068,525182,524068,526514,525697,525697,526514,104
99,test,1,inc,1,z,Fri Nov 14 2025 16:41:18 GMT-0600 (Central Standard Time),533137.2999999523,window,1100,O,z,z,None,677,477.0,200.0,32,1,2312.399999976158,530824.8999999762,7237,friend,AF,B,528347,528347,526517,527631,526517,528829,528147,528147,528829,105
100,test,1,con,1,m,Fri Nov 14 2025 16:41:18 GMT-0600 (Central Standard Time),535187.1999999285,step,900,O,m,m,None,609,409.0,200.0,66,1,2046.7999999523163,533140.3999999762,7237,step,AF,B,530463,530463,528832,529746,528833,530879,530263,530263,530879,106
101,test,1,con,1,z,Fri Nov 14 2025 16:41:18 GMT-0600 (Central Standard Time),536970.1999999285,brutal,800,O,z,z,None,443,243.0,200.0,33,1,1780.2999999523163,535189.8999999762,7237,brutal,AF,B,532413,532413,530882,531696,530882,532662,532213,532213,532662,107
102,test,1,inc,1,z,Fri Nov 14 2025 16:41:18 GMT-0600 (Central Standard Time),539020.1000000238,step,800,O,z,z,None,709,509.0,200.0,13,1,2046.1000000238419,536974.0,7237,kind,AF,B,534195,534195,532666,533479,532666,534712,533995,533995,534712,108
103,test,1,con,1,z,Fri Nov 14 2025 16:41:18 GMT-0600 (Central Standard Time),540803.0,elated,800,O,z,z,None,444,244.0,200.0,1,1,1780.3000000715256,539022.6999999285,7237,elated,AF,B,536244,536244,534715,535528,534715,536495,536044,536044,536495,109
104,test,1,inc,1,z,Fri Nov 14 2025 16:41:18 GMT-0600 (Central Standard Time),542801.6000000238,rock,900,O,z,z,None,560,360.0,200.0,22,1,1995.7000000476837,540805.8999999762,7237,love,AF,B,538128,538128,536498,537411,536498,538494,537928,537928,538494,110
105,test,1,inc,1,m,Fri Nov 14 2025 16:41:18 GMT-0600 (Central Standard Time),545000.6999999285,kind,900,O,m,m,None,767,552.0,215.0,78,1,2196.5,542804.1999999285,7237,rock,AF,B,540127,540127,538496,539410,538496,540693,539911,539911,540693,111
106,test,1,inc,1,z,Fri Nov 14 2025 16:41:18 GMT-0600 (Central Standard Time),546982.6000000238,rock,900,O,z,z,None,545,345.0,200.0,54,1,1978.8000000715256,545003.7999999523,7237,rage,AF,B,542326,542326,540696,541610,540696,542675,542126,542126,542675,112
107,test,1,con,1,z,Fri Nov 14 2025 16:41:18 GMT-0600 (Central Standard Time),548867.1000000238,rage,800,O,z,z,None,542,343.0,199.0,49,1,1881.7000000476837,546985.3999999762,7237,rage,AF,B,544208,544208,542677,543492,542678,544559,544008,544008,544559,113
108,test,1,con,1,m,Fri Nov 14 2025 16:41:18 GMT-0600 (Central Standard Time),550698.7999999523,napkin,800,O,m,m,None,493,293.0,200.0,105,1,1829.1999999284744,548869.6000000238,7237,napkin,AF,B,546091,546091,544562,545375,544562,546391,545891,545891,546391,114
109,test,1,inc,1,z,Fri Nov 14 2025 16:41:18 GMT-0600 (Central Standard Time),552748.1000000238,bell,1000,O,z,z,None,531,332.0,199.0,47,1,2046.8000000715256,550701.2999999523,7237,hate,AF,B,548108,548108,546393,547408,546394,548440,547909,547909,548440,115
110,test,1,inc,1,m,Fri Nov 14 2025 16:41:18 GMT-0600 (Central Standard Time),554664.7999999523,rage,800,O,m,m,None,586,386.0,200.0,69,1,1914.2999999523163,552750.5,7237,step,AF,B,549957,549957,548443,549248,548443,550357,549757,549757,550357,116
111,test,1,inc,1,z,Fri Nov 14 2025 16:41:18 GMT-0600 (Central Standard Time),556813.6000000238,remote,1000,O,z,z,None,599,399.0,200.0,7,1,2146.2000000476837,554667.3999999762,7237,elated,AF,B,552090,552090,550359,551373,550360,552506,551890,551890,552506,117
112,test,1,inc,1,m,Fri Nov 14 2025 16:41:18 GMT-0600 (Central Standard Time),559030.1000000238,love,1000,O,m,m,None,682,483.0,199.0,87,1,2213.7000000476837,556816.3999999762,7237,bell,AF,B,554238,554238,552508,553522,552509,554722,554039,554039,554722,118
113,test,1,con,1,z,Fri Nov 14 2025 16:41:18 GMT-0600 (Central Standard Time),561395.5,love,1100,O,z,z,None,732,533.0,199.0,20,1,2362.8000000715256,559032.6999999285,7237,love,AF,B,556538,556538,554725,555838,554725,557088,556339,556339,557088,119
114,test,1,con,1,m,Fri Nov 14 2025 16:41:18 GMT-0600 (Central Standard Time),563411.2999999523,jacket,900,O,m,m,None,566,367.0,199.0,98,1,2013.1999999284744,561398.1000000238,7237,jacket,AF,B,558721,558721,557090,558004,557090,559103,558521,558521,559103,120
115,test,1,inc,1,m,Fri Nov 14 2025 16:41:18 GMT-0600 (Central Standard Time),565560.6000000238,friend,1100,O,m,m,None,503,303.0,200.0,120,1,2146.8000000715256,563413.7999999523,7237,remote,AF,B,560937,560937,559106,560221,559106,561253,560737,560737,561253,121
116,test,1,con,1,z,Fri Nov 14 2025 16:41:18 GMT-0600 (Central Standard Time),567677.3999999762,kind,900,O,z,z,None,673,474.0,199.0,10,1,2114.0,565563.3999999762,7237,kind,AF,B,562886,562886,561255,562169,561256,563369,562687,562687,563369,122
117,test,1,con,1,z,Fri Nov 14 2025 16:41:18 GMT-0600 (Central Standard Time),569509.3999999762,love,800,O,z,z,None,497,283.0,214.0,17,1,1829.2999999523163,567680.1000000238,7237,love,AF,B,564902,564902,563372,564186,563372,565202,564688,564688,565201,123
118,test,1,inc,1,m,Fri Nov 14 2025 16:41:18 GMT-0600 (Central Standard Time),571575.3999999762,love,1000,O,m,m,None,520,320.0,200.0,79,1,2062.399999976158,569513.0,7237,rock,AF,B,566935,566935,565205,566219,565205,567267,566735,566735,567267,124
119,test,1,inc,1,m,Fri Nov 14 2025 16:41:18 GMT-0600 (Central Standard Time),573490.7999999523,rage,800,O,m,m,None,574,374.0,200.0,85,1,1912.7999999523163,571578.0,7237,bell,AF,B,568801,568801,567270,568084,567270,569183,568601,568601,569183,125
120,test,1,inc,1,m,Fri Nov 14 2025 16:41:18 GMT-0600 (Central Standard Time),575508.1000000238,love,1000,O,m,m,None,483,283.0,200.0,95,1,2014.7000000476837,573493.3999999762,7237,film,AF,B,570917,570917,569185,570200,569186,571200,570717,570717,571200,126
121,test,1,con,1,z,Fri Nov 14 2025 16:41:18 GMT-0600 (Central Standard Time),577357.5,temper,800,O,z,z,None,506,305.0,201.0,57,1,1846.8000000715256,575510.6999999285,7237,temper,AF,B,572735,572735,571203,572016,571203,573050,572534,572534,573050,127
122,test,1,inc,1,z,Fri Nov 14 2025 16:41:18 GMT-0600 (Central Standard Time),579324.0,rock,900,O,z,z,None,525,326.0,199.0,46,1,1961.7000000476837,577362.2999999523,7237,hate,AF,B,574682,574682,573054,573966,573055,575016,574482,574482,575016,128
