acc_sum,block,block_c,condition,correct,correct_response,datetime,endtime,flanker,jitter,project,response,response_test_buffer_response,response_test_target_response,response_time,response_time_test_buffer_response,response_time_test_target_response,row_sel,session_number,start_end,starttime,subject_id,target,task,task_vers,time_test_buffer,time_test_buffer_response,time_test_constants,time_test_flanker,time_test_jitter,time_test_logger,time_test_target,time_test_target_response,time_test_variables,trial
0,prac,1,con,0,z,Tue Feb 17 2026 14:01:45 GMT-0600 (Central Standard Time),159960.10000002384,elated,800,O,None,,,1816,,,9,1,4896.0,155064.10000002384,7761,elated,AF,C,,,,,,,,,,1
1,prac,1,con,1,m,Tue Feb 17 2026 14:01:45 GMT-0600 (Central Standard Time),162626.90000003576,jacket,800,O,m,,,549,,,5,1,2661.2000000476837,159965.69999998808,7761,jacket,AF,C,,,,,,,,,,2
1,prac,1,con,0,m,Tue Feb 17 2026 14:01:45 GMT-0600 (Central Standard Time),165457.19999998808,remote,1000,O,z,,,530,,,7,1,2821.699999988079,162635.5,7761,remote,AF,C,,,,,,,,,,3
2,prac,1,inc,1,z,Tue Feb 17 2026 14:01:45 GMT-0600 (Central Standard Time),168439.10000002384,window,1100,O,z,,,574,,,16,1,2978.600000023842,165460.5,7761,temper,AF,C,,,,,,,,,,4
3,prac,1,con,1,z,Tue Feb 17 2026 14:01:45 GMT-0600 (Central Standard Time),171289.5,brutal,800,O,z,,,734,,,13,1,2846.899999976158,168442.60000002384,7761,brutal,AF,C,,,,,,,,,,5
3,prac,1,inc,0,z,Tue Feb 17 2026 14:01:45 GMT-0600 (Central Standard Time),174104.19999998808,rock,900,O,m,,,608,,,10,1,2809.099999964237,171295.10000002384,7761,kind,AF,C,,,,,,,,,,6
4,prac,1,inc,1,z,Tue Feb 17 2026 14:01:45 GMT-0600 (Central Standard Time),177205.30000001192,film,900,O,z,,,887,,,14,1,3097.899999976158,174107.40000003576,7761,hate,AF,C,,,,,,,,,,7
5,prac,1,con,1,m,Tue Feb 17 2026 14:01:45 GMT-0600 (Central Standard Time),180036.5,bell,1000,O,m,,,526,,,3,1,2823.800000011921,177212.69999998808,7761,bell,AF,C,,,,,,,,,,8
5,prac,1,inc,0,m,Tue Feb 17 2026 14:01:45 GMT-0600 (Central Standard Time),182889.80000001192,hate,1100,O,z,,,476,,,4,1,2848.5,180041.30000001192,7761,film,AF,C,,,,,,,,,,9
6,prac,1,inc,1,m,Tue Feb 17 2026 14:01:45 GMT-0600 (Central Standard Time),186002.10000002384,brutal,1100,O,m,,,700,,,8,1,3108.800000011921,182893.30000001192,7761,window,AF,C,,,,,,,,,,10
7,prac,1,inc,1,m,Tue Feb 17 2026 14:01:45 GMT-0600 (Central Standard Time),188733.40000003576,elated,900,O,m,,,528,,,6,1,2726.100000023842,186007.30000001192,7761,napkin,AF,C,,,,,,,,,,11
8,prac,1,con,1,m,Tue Feb 17 2026 14:01:45 GMT-0600 (Central Standard Time),191182.5,step,800,O,m,,,342,,,1,1,2445.800000011921,188736.69999998808,7761,step,AF,C,,,,,,,,,,12
9,prac,1,con,1,z,Tue Feb 17 2026 14:01:45 GMT-0600 (Central Standard Time),194231.69999998808,rage,1000,O,z,,,734,,,15,1,3044.699999988079,191187.0,7761,rage,AF,C,,,,,,,,,,13
10,prac,1,inc,1,m,Tue Feb 17 2026 14:01:45 GMT-0600 (Central Standard Time),196931.40000003576,kind,900,O,m,,,490,,,2,1,2694.400000035763,194237.0,7761,rock,AF,C,,,,,,,,,,14
10,prac,1,inc,0,z,Tue Feb 17 2026 14:01:45 GMT-0600 (Central Standard Time),199814.40000003576,napkin,1100,O,m,,,476,,,12,1,2872.900000035763,196941.5,7761,friend,AF,C,,,,,,,,,,15
11,prac,1,con,1,z,Tue Feb 17 2026 14:01:45 GMT-0600 (Central Standard Time),202794.90000003576,love,1000,O,z,,,683,,,11,1,2975.300000011921,199819.60000002384,7761,love,AF,C,,,,,,,,,,16
1,prac,2,con,1,m,Tue Feb 17 2026 14:01:45 GMT-0600 (Central Standard Time),212393.30000001192,step,800,O,m,,,959,,,1,1,3058.899999976158,209334.40000003576,7761,step,AF,C,,,,,,,,,,1
2,prac,2,con,1,m,Tue Feb 17 2026 14:01:45 GMT-0600 (Central Standard Time),215209.19999998808,bell,1000,O,m,,,507,,,3,1,2810.399999976158,212398.80000001192,7761,bell,AF,C,,,,,,,,,,2
2,prac,2,inc,0,m,Tue Feb 17 2026 14:01:45 GMT-0600 (Central Standard Time),218158.10000002384,hate,1100,O,z,,,536,,,4,1,2944.0,215214.10000002384,7761,film,AF,C,,,,,,,,,,3
3,prac,2,inc,1,z,Tue Feb 17 2026 14:01:45 GMT-0600 (Central Standard Time),221241.69999998808,napkin,1100,O,z,,,668,,,12,1,3078.2999999523163,218163.40000003576,7761,friend,AF,C,,,,,,,,,,4
4,prac,2,inc,1,m,Tue Feb 17 2026 14:01:45 GMT-0600 (Central Standard Time),223905.5,elated,900,O,m,,,457,,,6,1,2658.300000011921,221247.19999998808,7761,napkin,AF,C,,,,,,,,,,5
4,prac,2,inc,0,z,Tue Feb 17 2026 14:01:45 GMT-0600 (Central Standard Time),226821.80000001192,window,1100,O,m,,,525,,,16,1,2910.600000023842,223911.19999998808,7761,temper,AF,C,,,,,,,,,,6
4,prac,2,con,0,z,Tue Feb 17 2026 14:01:45 GMT-0600 (Central Standard Time),229437.10000002384,elated,800,O,m,,,510,,,9,1,2610.300000011921,226826.80000001192,7761,elated,AF,C,,,,,,,,,,7
5,prac,2,con,1,z,Tue Feb 17 2026 14:01:45 GMT-0600 (Central Standard Time),232286.19999998808,rage,1000,O,z,,,537,,,15,1,2843.5,229442.69999998808,7761,rage,AF,C,,,,,,,,,,8
6,prac,2,con,1,z,Tue Feb 17 2026 14:01:45 GMT-0600 (Central Standard Time),234754.0,brutal,800,O,z,,,375,,,13,1,2463.899999976158,232290.10000002384,7761,brutal,AF,C,,,,,,,,,,9
7,prac,2,inc,1,m,Tue Feb 17 2026 14:01:45 GMT-0600 (Central Standard Time),237634.69999998808,kind,900,O,m,,,688,,,2,1,2874.699999988079,234760.0,7761,rock,AF,C,,,,,,,,,,10
8,prac,2,con,1,m,Tue Feb 17 2026 14:01:45 GMT-0600 (Central Standard Time),240168.80000001192,jacket,800,O,m,,,426,,,5,1,2527.300000011921,237641.5,7761,jacket,AF,C,,,,,,,,,,11
8,prac,2,inc,0,m,Tue Feb 17 2026 14:01:45 GMT-0600 (Central Standard Time),243018.80000001192,brutal,1100,O,z,,,434,,,8,1,2845.5,240173.30000001192,7761,window,AF,C,,,,,,,,,,12
8,prac,2,inc,0,z,Tue Feb 17 2026 14:01:45 GMT-0600 (Central Standard Time),245865.80000001192,rock,900,O,m,,,640,,,10,1,2842.5,243023.30000001192,7761,kind,AF,C,,,,,,,,,,13
9,prac,2,con,1,z,Tue Feb 17 2026 14:01:45 GMT-0600 (Central Standard Time),249100.5,love,1000,O,z,,,932,,,11,1,3227.300000011921,245873.19999998808,7761,love,AF,C,,,,,,,,,,14
9,prac,2,con,0,m,Tue Feb 17 2026 14:01:45 GMT-0600 (Central Standard Time),252180.0,remote,1000,O,z,,,778,,,7,1,3073.599999964237,249106.40000003576,7761,remote,AF,C,,,,,,,,,,15
9,prac,2,inc,0,z,Tue Feb 17 2026 14:01:45 GMT-0600 (Central Standard Time),257161.5,film,900,O,None,,,1814,,,14,1,4974.899999976158,252186.60000002384,7761,hate,AF,C,,,,,,,,,,16
1,test,1,con,1,z,Tue Feb 17 2026 14:01:45 GMT-0600 (Central Standard Time),267875.10000002384,brutal,800,O,z,z,None,566,366.0,200.0,33,1,1894.0,265981.10000002384,7761,brutal,AF,C,264953,264953,263425,264237,263425,265319,264753,264753,265319,1
2,test,1,con,1,z,Tue Feb 17 2026 14:01:45 GMT-0600 (Central Standard Time),269774.1999999881,friend,800,O,z,z,None,553,338.0,215.0,25,1,1892.3999999761581,267881.8000000119,7761,friend,AF,C,266868,266868,265326,266136,265326,267218,266653,266653,267218,2
2,test,1,inc,0,z,Tue Feb 17 2026 14:01:45 GMT-0600 (Central Standard Time),271508.60000002384,jacket,800,O,m,m,None,390,190.0,200.0,5,1,1730.9000000357628,269777.6999999881,7761,elated,AF,C,268752,268752,267222,268035,267222,268953,268551,268551,268953,3
2,test,1,con,0,m,Tue Feb 17 2026 14:01:45 GMT-0600 (Central Standard Time),273757.1999999881,remote,1100,O,z,z,None,631,432.0,199.0,116,1,2244.899999976158,271512.3000000119,7761,remote,AF,C,270768,270768,268956,270067,268957,271201,270568,270568,271201,4
3,test,1,con,1,z,Tue Feb 17 2026 14:01:45 GMT-0600 (Central Standard Time),276005.10000002384,hate,1000,O,z,z,None,703,488.0,215.0,43,1,2242.199999988079,273762.90000003576,7761,hate,AF,C,272950,272950,271207,272217,271207,273449,272735,272735,273449,5
4,test,1,con,1,m,Tue Feb 17 2026 14:01:45 GMT-0600 (Central Standard Time),278471.40000003576,step,1100,O,m,m,None,826,627.0,199.0,68,1,2461.2000000476837,276010.1999999881,7761,step,AF,C,275283,275283,273454,274569,273454,275915,275083,275083,275915,6
5,test,1,inc,1,m,Tue Feb 17 2026 14:01:45 GMT-0600 (Central Standard Time),280953.5,hate,1100,O,m,m,None,846,647.0,199.0,96,1,2478.300000011921,278475.1999999881,7761,film,AF,C,277735,277735,275919,277032,275920,278398,277535,277535,278398,7
6,test,1,inc,1,z,Tue Feb 17 2026 14:01:45 GMT-0600 (Central Standard Time),283120.10000002384,rock,900,O,z,z,None,742,543.0,199.0,14,1,2161.300000011921,280958.8000000119,7761,kind,AF,C,280015,280015,278403,279314,278403,280564,279815,279815,280564,8
6,test,1,con,0,z,Tue Feb 17 2026 14:01:45 GMT-0600 (Central Standard Time),285236.1999999881,friend,1000,O,m,m,None,588,373.0,215.0,27,1,2112.899999976158,283123.3000000119,7761,friend,AF,C,282297,282297,280567,281580,280568,282680,282082,282082,282680,9
7,test,1,inc,1,z,Tue Feb 17 2026 14:01:45 GMT-0600 (Central Standard Time),287701.90000003576,window,1100,O,z,z,None,822,621.0,201.0,40,1,2461.5,285240.40000003576,7761,brutal,AF,C,284514,284514,282684,283797,282685,285146,284313,284313,285146,10
7,test,1,inc,0,z,Tue Feb 17 2026 14:01:45 GMT-0600 (Central Standard Time),289802.40000003576,rock,900,O,m,m,None,660,460.0,200.0,54,1,2095.900000035763,287706.5,7761,rage,AF,C,286779,286779,285151,286063,285151,287246,286579,286579,287246,11
7,test,1,con,0,m,Tue Feb 17 2026 14:01:45 GMT-0600 (Central Standard Time),291867.5,rock,800,O,z,z,None,723,524.0,199.0,73,1,2061.0,289806.5,7761,rock,AF,C,288778,288778,287251,288063,287251,289312,288579,288579,289312,12
7,test,1,inc,0,m,Tue Feb 17 2026 14:01:45 GMT-0600 (Central Standard Time),293816.10000002384,rage,800,O,z,z,None,608,409.0,199.0,69,1,1943.0,291873.10000002384,7761,step,AF,C,290845,290845,289317,290129,289317,291260,290645,290645,291260,13
8,test,1,inc,1,z,Tue Feb 17 2026 14:01:45 GMT-0600 (Central Standard Time),296266.3000000119,napkin,900,O,z,z,None,1000,801.0,199.0,6,1,2445.199999988079,293821.10000002384,7761,elated,AF,C,292894,292894,291265,292179,291266,293710,292694,292694,293710,14
8,test,1,con,0,z,Tue Feb 17 2026 14:01:45 GMT-0600 (Central Standard Time),298381.60000002384,kind,1100,O,m,m,None,486,287.0,199.0,12,1,2110.900000035763,296270.6999999881,7761,kind,AF,C,295527,295527,293715,294827,293715,295826,295328,295328,295826,15
9,test,1,inc,1,m,Tue Feb 17 2026 14:01:45 GMT-0600 (Central Standard Time),300430.6999999881,elated,800,O,m,m,None,702,500.0,202.0,125,1,2045.699999988079,298385.0,7761,window,AF,C,297361,297361,295829,296645,295829,297875,297159,297159,297875,16
10,test,1,con,1,z,Tue Feb 17 2026 14:01:45 GMT-0600 (Central Standard Time),302549.60000002384,elated,800,O,z,z,None,766,567.0,199.0,1,1,2114.900000035763,300434.6999999881,7761,elated,AF,C,299408,299408,297879,298692,297879,299994,299209,299209,299994,17
10,test,1,con,0,z,Tue Feb 17 2026 14:01:45 GMT-0600 (Central Standard Time),305229.8000000119,friend,900,O,m,m,None,1237,1038.0,199.0,26,1,2676.100000023842,302553.6999999881,7761,friend,AF,C,301624,301624,299998,300908,299998,302674,301425,301425,302674,18
11,test,1,con,1,m,Tue Feb 17 2026 14:01:45 GMT-0600 (Central Standard Time),307279.3000000119,jacket,1000,O,m,m,None,503,302.0,201.0,99,1,2045.3999999761581,305233.90000003576,7761,jacket,AF,C,304408,304408,302678,303691,302678,304723,304207,304207,304723,19
12,test,1,inc,1,z,Tue Feb 17 2026 14:01:45 GMT-0600 (Central Standard Time),309461.60000002384,step,800,O,z,z,None,838,637.0,201.0,53,1,2178.600000023842,307283.0,7761,rage,AF,C,306257,306257,304727,305541,304727,306906,306056,306056,306906,20
13,test,1,con,1,m,Tue Feb 17 2026 14:01:45 GMT-0600 (Central Standard Time),311462.0,napkin,1000,O,m,m,None,454,239.0,215.0,107,1,1996.5999999642372,309465.40000003576,7761,napkin,AF,C,308655,308655,306909,307923,306910,308906,308440,308440,308906,21
13,test,1,inc,0,z,Tue Feb 17 2026 14:01:45 GMT-0600 (Central Standard Time),313693.5,remote,1000,O,m,m,None,714,514.0,200.0,7,1,2228.300000011921,311465.1999999881,7761,elated,AF,C,310623,310623,308909,309921,308909,311138,310422,310422,311138,22
14,test,1,con,1,z,Tue Feb 17 2026 14:01:45 GMT-0600 (Central Standard Time),315776.8000000119,temper,800,O,z,z,None,735,532.0,203.0,57,1,2079.5,313697.3000000119,7761,temper,AF,C,312674,312674,311141,311955,311142,313221,312471,312471,313221,23
15,test,1,inc,1,m,Tue Feb 17 2026 14:01:45 GMT-0600 (Central Standard Time),318059.1999999881,hate,1100,O,m,m,None,658,458.0,200.0,80,1,2277.099999964237,315782.10000002384,7761,rock,AF,C,315037,315037,313226,314336,313226,315503,314837,314837,315503,24
16,test,1,con,1,m,Tue Feb 17 2026 14:01:45 GMT-0600 (Central Standard Time),320124.90000003576,jacket,1100,O,m,m,None,420,221.0,199.0,100,1,2060.300000011921,318064.60000002384,7761,jacket,AF,C,317337,317337,315509,316620,315509,317569,317137,317137,317569,25
17,test,1,con,1,z,Tue Feb 17 2026 14:01:45 GMT-0600 (Central Standard Time),322291.3000000119,brutal,1100,O,z,z,None,523,324.0,199.0,36,1,2161.399999976158,320129.90000003576,7761,brutal,AF,C,319402,319402,317574,318686,317574,319735,319202,319202,319735,26
18,test,1,inc,1,z,Tue Feb 17 2026 14:01:45 GMT-0600 (Central Standard Time),324515.90000003576,napkin,900,O,z,z,None,773,573.0,200.0,62,1,2220.600000023842,322295.3000000119,7761,temper,AF,C,321369,321369,319739,320651,319740,321960,321168,321168,321960,27
19,test,1,con,1,z,Tue Feb 17 2026 14:01:45 GMT-0600 (Central Standard Time),326373.3000000119,temper,900,O,z,z,None,436,221.0,215.0,58,1,1853.199999988079,324520.10000002384,7761,temper,AF,C,323585,323586,321964,322867,321964,323817,323370,323370,323817,28
20,test,1,con,1,z,Tue Feb 17 2026 14:01:45 GMT-0600 (Central Standard Time),328706.0,kind,900,O,z,z,None,885,685.0,200.0,10,1,2329.099999964237,326376.90000003576,7761,kind,AF,C,325451,325451,323821,324734,323821,326150,325251,325251,326150,29
21,test,1,con,1,m,Tue Feb 17 2026 14:01:45 GMT-0600 (Central Standard Time),330490.0,jacket,800,O,m,m,None,465,252.0,213.0,97,1,1778.0,328712.0,7761,jacket,AF,C,327682,327682,326156,326966,326156,327934,327469,327469,327934,30
21,test,1,inc,0,z,Tue Feb 17 2026 14:01:45 GMT-0600 (Central Standard Time),332770.8000000119,remote,1000,O,m,m,None,747,532.0,215.0,31,1,2278.199999988079,330492.60000002384,7761,friend,AF,C,329682,329683,327937,328950,327937,330215,329467,329467,330215,31
22,test,1,inc,1,m,Tue Feb 17 2026 14:01:45 GMT-0600 (Central Standard Time),335087.60000002384,hate,1100,O,m,m,None,677,478.0,199.0,88,1,2313.400000035763,332774.1999999881,7761,bell,AF,C,332048,332048,330218,331332,330219,332532,331849,331849,332532,32
23,test,1,con,1,m,Tue Feb 17 2026 14:01:45 GMT-0600 (Central Standard Time),337335.1999999881,step,800,O,m,m,None,897,685.0,212.0,65,1,2243.899999976158,335091.3000000119,7761,step,AF,C,334081,334081,332535,333348,332536,334779,333868,333868,334779,33
24,test,1,con,1,z,Tue Feb 17 2026 14:01:45 GMT-0600 (Central Standard Time),339701.40000003576,elated,1100,O,z,z,None,720,520.0,200.0,4,1,2363.100000023842,337338.3000000119,7761,elated,AF,C,336614,336614,334782,335897,334783,337145,336414,336414,337145,34
25,test,1,con,1,z,Tue Feb 17 2026 14:01:45 GMT-0600 (Central Standard Time),341684.3000000119,love,900,O,z,z,None,547,347.0,200.0,18,1,1980.199999988079,339704.10000002384,7761,love,AF,C,338779,338779,337148,338065,337148,339128,338579,338579,339128,35
26,test,1,con,1,m,Tue Feb 17 2026 14:01:45 GMT-0600 (Central Standard Time),343834.60000002384,rock,1000,O,m,m,None,631,416.0,215.0,75,1,2147.699999988079,341686.90000003576,7761,rock,AF,C,340862,340862,339131,340145,339131,341279,340647,340647,341279,36
27,test,1,con,1,m,Tue Feb 17 2026 14:01:45 GMT-0600 (Central Standard Time),345865.8000000119,bell,1000,O,m,m,None,491,290.0,201.0,83,1,2026.800000011921,343839.0,7761,bell,AF,C,343012,343012,341283,342297,341283,343310,342811,342811,343310,37
28,test,1,inc,1,m,Tue Feb 17 2026 14:01:45 GMT-0600 (Central Standard Time),348317.1999999881,temper,1000,O,m,m,None,930,717.0,213.0,119,1,2446.5,345870.6999999881,7761,remote,AF,C,345044,345044,343315,344327,343315,345761,344830,344831,345761,38
28,test,1,inc,0,z,Tue Feb 17 2026 14:01:45 GMT-0600 (Central Standard Time),350300.60000002384,napkin,900,O,m,m,None,565,366.0,199.0,30,1,1978.9000000357628,348321.6999999881,7761,friend,AF,C,347378,347378,345766,346676,345766,347745,347178,347178,347745,39
29,test,1,con,1,m,Tue Feb 17 2026 14:01:45 GMT-0600 (Central Standard Time),352397.60000002384,rock,900,O,m,m,None,654,454.0,200.0,74,1,2093.300000011921,350304.3000000119,7761,rock,AF,C,349376,349376,347748,348659,347749,349842,349176,349176,349842,40
30,test,1,con,1,z,Tue Feb 17 2026 14:01:45 GMT-0600 (Central Standard Time),354464.0,brutal,1000,O,z,z,None,527,326.0,201.0,35,1,2063.399999976158,352400.60000002384,7761,brutal,AF,C,351576,351576,349845,350859,349845,351908,351375,351375,351908,41
31,test,1,inc,1,m,Tue Feb 17 2026 14:01:45 GMT-0600 (Central Standard Time),356896.40000003576,love,1000,O,m,m,None,885,685.0,200.0,71,1,2428.900000035763,354467.5,7761,step,AF,C,353641,353641,351912,352925,351912,354340,353441,353441,354340,42
32,test,1,con,1,m,Tue Feb 17 2026 14:01:45 GMT-0600 (Central Standard Time),358930.60000002384,film,1100,O,m,m,None,399,200.0,199.0,92,1,2024.5,356906.10000002384,7761,film,AF,C,356174,356174,354350,355458,354350,356375,355974,355974,356375,43
33,test,1,inc,1,z,Tue Feb 17 2026 14:01:45 GMT-0600 (Central Standard Time),361145.40000003576,step,800,O,z,z,None,876,661.0,215.0,45,1,2206.300000011921,358939.10000002384,7761,hate,AF,C,357922,357922,356383,357190,356383,358589,357707,357707,358589,44
34,test,1,inc,1,z,Tue Feb 17 2026 14:01:45 GMT-0600 (Central Standard Time),363195.10000002384,rock,900,O,z,z,None,631,426.0,205.0,22,1,2040.5,361154.60000002384,7761,love,AF,C,360213,360213,358599,359505,358599,360639,360007,360007,360639,45
35,test,1,con,1,z,Tue Feb 17 2026 14:01:45 GMT-0600 (Central Standard Time),365560.3000000119,hate,800,O,z,z,None,1017,818.0,199.0,41,1,2360.100000023842,363200.1999999881,7761,hate,AF,C,362172,362172,360644,361455,360644,363004,361972,361972,363004,46
36,test,1,inc,1,m,Tue Feb 17 2026 14:01:45 GMT-0600 (Central Standard Time),367726.40000003576,temper,1000,O,m,m,None,635,435.0,200.0,103,1,2155.900000035763,365570.5,7761,jacket,AF,C,364723,364723,363015,364021,363015,365171,364522,364522,365170,47
37,test,1,inc,1,m,Tue Feb 17 2026 14:01:45 GMT-0600 (Central Standard Time),369776.10000002384,brutal,900,O,m,m,None,610,410.0,200.0,126,1,2040.800000011921,367735.3000000119,7761,window,AF,C,366804,366804,365179,366088,365179,367220,366604,366604,367220,48
38,test,1,con,1,m,Tue Feb 17 2026 14:01:45 GMT-0600 (Central Standard Time),371941.6999999881,film,1000,O,m,m,None,620,417.0,203.0,91,1,2158.199999988079,369783.5,7761,film,AF,C,368957,368957,367228,368237,367228,369386,368753,368753,369386,49
39,test,1,con,1,z,Tue Feb 17 2026 14:01:45 GMT-0600 (Central Standard Time),373877.1999999881,brutal,900,O,z,z,None,515,301.0,214.0,34,1,1930.0,371947.1999999881,7761,brutal,AF,C,371019,371019,369391,370303,369392,371321,370805,370805,371321,50
39,test,1,inc,0,z,Tue Feb 17 2026 14:01:45 GMT-0600 (Central Standard Time),376057.40000003576,rock,900,O,m,m,None,733,534.0,199.0,46,1,2172.7000000476837,373884.6999999881,7761,hate,AF,C,372952,372952,371329,372236,371329,373501,372753,372753,373501,51
39,test,1,inc,0,z,Tue Feb 17 2026 14:01:45 GMT-0600 (Central Standard Time),377924.0,step,800,O,m,m,None,525,325.0,200.0,13,1,1860.0,376064.0,7761,kind,AF,C,375035,375035,373508,374319,373508,375368,374834,374834,375368,52
40,test,1,con,1,z,Tue Feb 17 2026 14:01:45 GMT-0600 (Central Standard Time),379672.3000000119,love,800,O,z,z,None,400,201.0,199.0,17,1,1743.6000000238419,377928.6999999881,7761,love,AF,C,376901,376901,375373,376184,375373,377116,376702,376702,377116,53
40,test,1,inc,0,z,Tue Feb 17 2026 14:01:45 GMT-0600 (Central Standard Time),381857.0,jacket,800,O,m,m,None,842,627.0,215.0,61,1,2178.399999976158,379678.60000002384,7761,temper,AF,C,378667,378667,377123,377935,377123,379301,378451,378451,379301,54
41,test,1,con,1,m,Tue Feb 17 2026 14:01:45 GMT-0600 (Central Standard Time),383921.3000000119,bell,1100,O,m,m,None,424,225.0,199.0,84,1,2056.300000011921,381865.0,7761,bell,AF,C,381133,381133,379309,380416,379309,381365,380933,380933,381365,55
41,test,1,inc,0,m,Tue Feb 17 2026 14:01:45 GMT-0600 (Central Standard Time),385754.5,rage,800,O,z,z,None,484,269.0,215.0,93,1,1826.8999999761581,383927.60000002384,7761,film,AF,C,382915,382915,381372,382182,381372,383199,382699,382699,383199,56
42,test,1,inc,1,m,Tue Feb 17 2026 14:01:45 GMT-0600 (Central Standard Time),387538.5,rage,800,O,m,m,None,441,241.0,200.0,85,1,1779.3999999761581,385759.10000002384,7761,bell,AF,C,384733,384733,383203,384015,383203,384983,384532,384532,384982,57
43,test,1,con,1,m,Tue Feb 17 2026 14:01:45 GMT-0600 (Central Standard Time),389403.60000002384,napkin,900,O,m,m,None,434,233.0,201.0,106,1,1860.1000000238419,387543.5,7761,napkin,AF,C,386614,386614,384988,385897,384988,386848,386413,386413,386848,58
44,test,1,inc,1,z,Tue Feb 17 2026 14:01:45 GMT-0600 (Central Standard Time),391601.6999999881,bell,1000,O,z,z,None,649,450.0,199.0,23,1,2193.099999964237,389408.60000002384,7761,love,AF,C,388581,388581,386853,387865,386853,389046,388381,388381,389046,59
45,test,1,inc,1,m,Tue Feb 17 2026 14:01:45 GMT-0600 (Central Standard Time),393735.6999999881,love,1000,O,m,m,None,594,394.0,200.0,95,1,2130.099999964237,391605.60000002384,7761,film,AF,C,390781,390781,389050,390064,389050,391180,390580,390580,391180,60
46,test,1,con,1,m,Tue Feb 17 2026 14:01:45 GMT-0600 (Central Standard Time),395950.1999999881,remote,800,O,m,m,None,871,661.0,210.0,113,1,2209.599999964237,393740.60000002384,7761,remote,AF,C,392729,392729,391185,391998,391185,393394,392518,392518,393394,61
46,test,1,con,0,z,Tue Feb 17 2026 14:01:45 GMT-0600 (Central Standard Time),398115.90000003576,hate,1100,O,m,m,None,529,329.0,200.0,44,1,2160.7000000476837,395955.1999999881,7761,hate,AF,C,395229,395229,393399,394513,393400,395560,395028,395028,395560,62
46,test,1,inc,0,m,Tue Feb 17 2026 14:01:45 GMT-0600 (Central Standard Time),400282.6999999881,elated,800,O,z,z,None,817,617.0,200.0,117,1,2162.899999976158,398119.8000000119,7761,remote,AF,C,397094,397094,395564,396379,395564,397727,396894,396894,397727,63
47,test,1,inc,1,m,Tue Feb 17 2026 14:01:45 GMT-0600 (Central Standard Time),402382.10000002384,kind,900,O,m,m,None,663,462.0,201.0,86,1,2092.900000035763,400289.1999999881,7761,bell,AF,C,399360,399360,397733,398645,397734,399826,399159,399159,399826,64
48,test,1,inc,1,z,Tue Feb 17 2026 14:01:45 GMT-0600 (Central Standard Time),404698.90000003576,remote,1000,O,z,z,None,782,583.0,199.0,39,1,2313.400000035763,402385.5,7761,brutal,AF,C,401560,401560,399830,400843,399830,402143,401360,401360,402143,65
49,test,1,inc,1,z,Tue Feb 17 2026 14:01:45 GMT-0600 (Central Standard Time),407463.0,window,1100,O,z,z,None,1126,927.0,199.0,8,1,2760.5,404702.5,7761,elated,AF,C,403975,403975,402147,403259,402147,404907,403776,403776,404907,66
50,test,1,inc,1,z,Tue Feb 17 2026 14:01:45 GMT-0600 (Central Standard Time),409980.0,window,1100,O,z,z,None,873,674.0,199.0,64,1,2513.199999988079,407466.8000000119,7761,temper,AF,C,406740,406740,404911,406024,404911,407424,406541,406541,407424,67
51,test,1,con,1,z,Tue Feb 17 2026 14:01:45 GMT-0600 (Central Standard Time),412646.3000000119,elated,900,O,z,z,None,1238,1022.0,216.0,2,1,2661.199999988079,409985.10000002384,7761,elated,AF,C,409057,409057,407429,408340,407429,410090,408841,408841,410090,68
52,test,1,con,1,z,Tue Feb 17 2026 14:01:45 GMT-0600 (Central Standard Time),414695.10000002384,elated,1000,O,z,z,None,512,312.0,200.0,3,1,2044.4000000357628,412650.6999999881,7761,elated,AF,C,411823,411823,410095,411106,410095,412139,411622,411622,412139,69
53,test,1,con,1,z,Tue Feb 17 2026 14:01:45 GMT-0600 (Central Standard Time),416678.1999999881,temper,1000,O,z,z,None,448,248.0,200.0,59,1,1980.2999999523163,414697.90000003576,7761,temper,AF,C,413871,413871,412142,413156,412142,414122,413671,413671,414122,70
54,test,1,inc,1,m,Tue Feb 17 2026 14:01:45 GMT-0600 (Central Standard Time),418928.60000002384,brutal,900,O,m,m,None,803,603.0,200.0,118,1,2247.0,416681.60000002384,7761,remote,AF,C,415755,415755,414126,415039,414126,416373,415555,415555,416373,71
55,test,1,con,1,z,Tue Feb 17 2026 14:01:45 GMT-0600 (Central Standard Time),420892.3000000119,love,1000,O,z,z,None,438,239.0,199.0,19,1,1961.1000000238419,418931.1999999881,7761,love,AF,C,418087,418087,416375,417387,416375,418336,417888,417888,418336,72
56,test,1,inc,1,m,Tue Feb 17 2026 14:01:45 GMT-0600 (Central Standard Time),422809.1999999881,elated,800,O,m,m,None,575,375.0,200.0,109,1,1914.0999999642372,420895.10000002384,7761,napkin,AF,C,419871,419871,418339,419154,418339,420253,419671,419671,420253,73
57,test,1,con,1,m,Tue Feb 17 2026 14:01:45 GMT-0600 (Central Standard Time),424591.90000003576,film,800,O,m,m,None,445,246.0,199.0,89,1,1779.1000000238419,422812.8000000119,7761,film,AF,C,421786,421786,420257,421070,420257,422036,421587,421587,422036,74
58,test,1,con,1,m,Tue Feb 17 2026 14:01:45 GMT-0600 (Central Standard Time),426391.1999999881,film,900,O,m,m,None,376,176.0,200.0,90,1,1796.5999999642372,424594.60000002384,7761,film,AF,C,423654,423654,422039,422952,422039,423835,423454,423454,423835,75
59,test,1,inc,1,m,Tue Feb 17 2026 14:01:45 GMT-0600 (Central Standard Time),428425.10000002384,brutal,900,O,m,m,None,586,385.0,201.0,102,1,2030.800000011921,426394.3000000119,7761,jacket,AF,C,425469,425469,423838,424753,423838,425869,425268,425268,425869,76
60,test,1,inc,1,m,Tue Feb 17 2026 14:01:45 GMT-0600 (Central Standard Time),430790.40000003576,friend,1100,O,m,m,None,721,521.0,200.0,120,1,2362.300000011921,428428.10000002384,7761,remote,AF,C,427701,427701,425872,426985,425872,428234,427501,427501,428234,77
61,test,1,inc,1,m,Tue Feb 17 2026 14:01:45 GMT-0600 (Central Standard Time),432856.10000002384,friend,1100,O,m,m,None,416,201.0,215.0,104,1,2061.400000035763,430794.6999999881,7761,jacket,AF,C,430085,430085,428239,429352,428239,430300,429869,429869,430300,78
62,test,1,inc,1,m,Tue Feb 17 2026 14:01:45 GMT-0600 (Central Standard Time),435058.0,hate,1100,O,m,m,None,568,369.0,199.0,72,1,2197.699999988079,432860.3000000119,7761,step,AF,C,432133,432133,430304,431417,430305,432502,431934,431934,432502,79
62,test,1,inc,0,z,Tue Feb 17 2026 14:01:45 GMT-0600 (Central Standard Time),437287.10000002384,window,1100,O,m,m,None,585,385.0,200.0,32,1,2226.199999988079,435060.90000003576,7761,friend,AF,C,434333,434333,432505,433617,432505,434731,434132,434132,434731,80
63,test,1,inc,1,m,Tue Feb 17 2026 14:01:45 GMT-0600 (Central Standard Time),439453.6999999881,temper,1000,O,m,m,None,630,430.0,200.0,127,1,2162.7999999523163,437290.90000003576,7761,window,AF,C,436465,436465,434735,435748,434735,436898,436265,436265,436898,81
64,test,1,con,1,m,Tue Feb 17 2026 14:01:45 GMT-0600 (Central Standard Time),441503.3000000119,window,1100,O,m,m,None,419,220.0,199.0,124,1,2045.699999988079,439457.60000002384,7761,window,AF,C,438714,438714,436902,438014,436902,438947,438515,438515,438947,82
65,test,1,inc,1,z,Tue Feb 17 2026 14:01:45 GMT-0600 (Central Standard Time),443719.1999999881,remote,1000,O,z,z,None,668,469.0,199.0,63,1,2210.899999976158,441508.3000000119,7761,temper,AF,C,440681,440681,438952,439963,438953,441163,440482,440482,441163,83
66,test,1,con,1,m,Tue Feb 17 2026 14:01:45 GMT-0600 (Central Standard Time),445737.0,napkin,1100,O,m,m,None,377,178.0,199.0,108,1,2015.0,443722.0,7761,napkin,AF,C,442996,442996,441166,442280,441166,443181,442797,442797,443181,84
67,test,1,con,1,m,Tue Feb 17 2026 14:01:45 GMT-0600 (Central Standard Time),447733.90000003576,window,800,O,m,m,None,662,462.0,200.0,121,1,1993.1000000238419,445740.8000000119,7761,window,AF,C,444712,444712,443185,443996,443185,445178,444512,444512,445178,85
67,test,1,inc,0,z,Tue Feb 17 2026 14:01:45 GMT-0600 (Central Standard Time),449633.90000003576,bell,1000,O,m,m,None,349,150.0,199.0,15,1,1896.5,447737.40000003576,7761,kind,AF,C,446912,446912,445181,446196,445182,447078,446713,446713,447078,86
68,test,1,con,1,m,Tue Feb 17 2026 14:01:45 GMT-0600 (Central Standard Time),451666.3000000119,bell,800,O,m,m,None,692,492.0,200.0,81,1,2027.8999999761581,449638.40000003576,7761,bell,AF,C,448611,448611,447082,447895,447083,449110,448411,448411,449110,87
69,test,1,con,1,z,Tue Feb 17 2026 14:01:45 GMT-0600 (Central Standard Time),453750.0,kind,1000,O,z,z,None,546,346.0,200.0,11,1,2080.800000011921,451669.1999999881,7761,kind,AF,C,450844,450844,449113,450127,449114,451194,450644,450644,451194,88
70,test,1,con,1,z,Tue Feb 17 2026 14:01:45 GMT-0600 (Central Standard Time),455564.5,kind,800,O,z,z,None,480,280.0,200.0,9,1,1810.699999988079,453753.8000000119,7761,kind,AF,C,452726,452726,451198,452012,451198,453009,452526,452526,453009,89
70,test,1,inc,0,z,Tue Feb 17 2026 14:01:45 GMT-0600 (Central Standard Time),457299.1999999881,jacket,800,O,m,m,None,390,190.0,200.0,37,1,1729.0,455570.1999999881,7761,brutal,AF,C,454544,454544,453014,453826,453015,454743,454342,454343,454743,90
71,test,1,inc,1,m,Tue Feb 17 2026 14:01:45 GMT-0600 (Central Standard Time),459396.8000000119,temper,1000,O,m,m,None,563,363.0,200.0,111,1,2093.399999976158,457303.40000003576,7761,napkin,AF,C,456476,456476,454747,455760,454748,456841,456276,456276,456841,91
72,test,1,inc,1,m,Tue Feb 17 2026 14:01:45 GMT-0600 (Central Standard Time),461496.6999999881,rage,800,O,m,m,None,751,551.0,200.0,77,1,2095.0,459401.6999999881,7761,rock,AF,C,458375,458375,456846,457660,456846,458941,458175,458175,458941,92
73,test,1,inc,1,z,Tue Feb 17 2026 14:01:45 GMT-0600 (Central Standard Time),463879.0,film,1100,O,z,z,None,744,543.0,201.0,24,1,2377.0,461502.0,7761,love,AF,C,460775,460775,458946,460057,458946,461323,460574,460574,461323,93
74,test,1,con,1,m,Tue Feb 17 2026 14:01:45 GMT-0600 (Central Standard Time),465866.0,step,900,O,m,m,None,564,365.0,199.0,66,1,1982.800000011921,463883.1999999881,7761,step,AF,C,462941,462941,461327,462240,461328,463310,462741,462741,463310,94
75,test,1,inc,1,m,Tue Feb 17 2026 14:01:45 GMT-0600 (Central Standard Time),468345.0,friend,1100,O,m,m,None,842,623.0,219.0,128,1,2476.599999964237,465868.40000003576,7761,window,AF,C,465159,465159,463312,464423,463313,465789,464940,464940,465789,95
76,test,1,con,1,m,Tue Feb 17 2026 14:01:45 GMT-0600 (Central Standard Time),470660.1999999881,remote,900,O,m,m,None,873,671.0,202.0,114,1,2311.099999964237,468349.10000002384,7761,remote,AF,C,467423,467423,465793,466705,465793,468104,467221,467221,468104,96
77,test,1,inc,1,z,Tue Feb 17 2026 14:01:45 GMT-0600 (Central Standard Time),473093.90000003576,film,1100,O,z,z,None,788,588.0,200.0,16,1,2431.0,470662.90000003576,7761,kind,AF,C,469938,469938,468107,469221,468107,470538,469738,469738,470538,97
78,test,1,con,1,z,Tue Feb 17 2026 14:01:45 GMT-0600 (Central Standard Time),475108.8000000119,rage,1000,O,z,z,None,480,281.0,199.0,51,1,2010.800000011921,473098.0,7761,rage,AF,C,472269,472269,470542,471554,470542,472553,472070,472070,472553,98
79,test,1,con,1,z,Tue Feb 17 2026 14:01:45 GMT-0600 (Central Standard Time),477474.8000000119,love,1100,O,z,z,None,725,525.0,200.0,20,1,2363.199999988079,475111.60000002384,7761,love,AF,C,474386,474386,472556,473669,472556,474919,474186,474186,474919,99
80,test,1,con,1,m,Tue Feb 17 2026 14:01:45 GMT-0600 (Central Standard Time),479574.10000002384,step,1000,O,m,m,None,576,362.0,214.0,67,1,2092.900000035763,477481.1999999881,7761,step,AF,C,476652,476652,474925,475934,474926,477018,476438,476438,477018,100
81,test,1,con,1,z,Tue Feb 17 2026 14:01:45 GMT-0600 (Central Standard Time),481489.3000000119,rage,800,O,z,z,None,575,375.0,200.0,49,1,1910.6000000238419,479578.6999999881,7761,rage,AF,C,478551,478551,477023,477835,477023,478933,478351,478351,478933,101
82,test,1,inc,1,m,Tue Feb 17 2026 14:01:45 GMT-0600 (Central Standard Time),483706.5,brutal,900,O,m,m,None,781,582.0,199.0,110,1,2214.599999964237,481491.90000003576,7761,napkin,AF,C,480568,480568,478936,479851,478936,481151,480368,480368,481151,102
83,test,1,inc,1,z,Tue Feb 17 2026 14:01:45 GMT-0600 (Central Standard Time),486022.10000002384,film,1100,O,z,z,None,678,477.0,201.0,48,1,2311.400000035763,483710.6999999881,7761,hate,AF,C,482985,482985,481155,482267,481155,483466,482783,482783,483466,103
84,test,1,inc,1,m,Tue Feb 17 2026 14:01:45 GMT-0600 (Central Standard Time),488104.40000003576,kind,900,O,m,m,None,633,434.0,199.0,70,1,2079.0,486025.40000003576,7761,step,AF,C,485100,485100,483469,484383,483470,485549,484900,484900,485548,104
85,test,1,inc,1,m,Tue Feb 17 2026 14:01:45 GMT-0600 (Central Standard Time),490138.6999999881,kind,900,O,m,m,None,602,391.0,211.0,94,1,2028.699999988079,488110.0,7761,film,AF,C,487183,487183,485554,486465,485554,487583,486972,486972,487583,105
86,test,1,con,1,m,Tue Feb 17 2026 14:01:45 GMT-0600 (Central Standard Time),492020.60000002384,jacket,900,O,m,m,None,446,247.0,199.0,98,1,1878.300000011921,490142.3000000119,7761,jacket,AF,C,489215,489215,487586,488498,487587,489465,489015,489015,489465,106
87,test,1,inc,1,z,Tue Feb 17 2026 14:01:45 GMT-0600 (Central Standard Time),494053.90000003576,napkin,900,O,z,z,None,589,389.0,200.0,38,1,2029.300000011921,492024.60000002384,7761,brutal,AF,C,491098,491098,489469,490382,489469,491498,490897,490897,491498,107
88,test,1,con,1,m,Tue Feb 17 2026 14:01:45 GMT-0600 (Central Standard Time),496019.60000002384,napkin,800,O,m,m,None,641,426.0,215.0,105,1,1958.300000011921,494061.3000000119,7761,napkin,AF,C,493030,493030,491505,492313,491506,493464,492815,492815,493464,108
88,test,1,inc,0,z,Tue Feb 17 2026 14:01:45 GMT-0600 (Central Standard Time),497951.5,jacket,800,O,m,m,None,584,384.0,200.0,29,1,1926.199999988079,496025.3000000119,7761,friend,AF,C,494998,494998,493469,494280,493470,495396,494797,494797,495395,109
89,test,1,con,1,m,Tue Feb 17 2026 14:01:45 GMT-0600 (Central Standard Time),500168.40000003576,rock,1100,O,m,m,None,569,366.0,203.0,76,1,2211.400000035763,497957.0,7761,rock,AF,C,497233,497233,495401,496512,495401,497613,497030,497030,497612,110
90,test,1,inc,1,m,Tue Feb 17 2026 14:01:45 GMT-0600 (Central Standard Time),502333.0,love,1000,O,m,m,None,621,422.0,199.0,87,1,2157.800000011921,500175.1999999881,7761,bell,AF,C,499344,499344,497619,498628,497619,499777,499145,499145,499777,111
91,test,1,inc,1,z,Tue Feb 17 2026 14:01:45 GMT-0600 (Central Standard Time),504482.60000002384,film,1100,O,z,z,None,523,308.0,215.0,56,1,2143.600000023842,502339.0,7761,rage,AF,C,501611,501611,499783,500894,499783,501927,501396,501396,501927,112
92,test,1,inc,1,m,Tue Feb 17 2026 14:01:45 GMT-0600 (Central Standard Time),506715.1999999881,friend,1100,O,m,m,None,597,398.0,199.0,112,1,2225.699999988079,504489.5,7761,napkin,AF,C,503761,503761,501934,503044,501934,504159,503561,503561,504159,113
93,test,1,con,1,m,Tue Feb 17 2026 14:01:45 GMT-0600 (Central Standard Time),508649.60000002384,bell,900,O,m,m,None,484,285.0,199.0,82,1,1928.6000000238419,506721.0,7761,bell,AF,C,505793,505793,504165,505076,504165,506094,505593,505593,506094,114
94,test,1,inc,1,z,Tue Feb 17 2026 14:01:45 GMT-0600 (Central Standard Time),510664.10000002384,step,800,O,z,z,None,669,468.0,201.0,21,1,2010.800000011921,508653.3000000119,7761,love,AF,C,507626,507626,506097,506909,506097,508108,507425,507425,508108,115
95,test,1,inc,1,m,Tue Feb 17 2026 14:01:45 GMT-0600 (Central Standard Time),512446.1999999881,elated,800,O,m,m,None,435,236.0,199.0,101,1,1777.7999999523163,510668.40000003576,7761,jacket,AF,C,509642,509642,508112,508926,508113,509890,509442,509442,509890,116
96,test,1,con,1,m,Tue Feb 17 2026 14:01:45 GMT-0600 (Central Standard Time),514331.1999999881,window,900,O,m,m,None,456,242.0,214.0,122,1,1882.0,512449.1999999881,7761,window,AF,C,511524,511524,509893,510808,509893,511775,511309,511310,511775,117
96,test,1,con,0,z,Tue Feb 17 2026 14:01:45 GMT-0600 (Central Standard Time),516363.0,friend,1100,O,m,m,None,382,182.0,200.0,28,1,2026.699999988079,514336.3000000119,7761,friend,AF,C,513608,513608,511780,512891,511781,513807,513407,513407,513807,118
97,test,1,inc,1,z,Tue Feb 17 2026 14:01:45 GMT-0600 (Central Standard Time),518545.90000003576,bell,1000,O,z,z,None,640,441.0,199.0,47,1,2179.100000023842,516366.8000000119,7761,hate,AF,C,515541,515541,513811,514824,513811,515990,515341,515341,515990,119
98,test,1,con,1,z,Tue Feb 17 2026 14:01:45 GMT-0600 (Central Standard Time),520495.10000002384,hate,900,O,z,z,None,503,304.0,199.0,42,1,1946.199999988079,518548.90000003576,7761,hate,AF,C,517622,517622,515993,516906,515993,517939,517423,517423,517939,120
99,test,1,con,1,z,Tue Feb 17 2026 14:01:45 GMT-0600 (Central Standard Time),522410.3000000119,rage,900,O,z,z,None,481,266.0,215.0,50,1,1910.8999999761581,520499.40000003576,7761,rage,AF,C,519588,519588,517943,518857,517944,519854,519373,519373,519854,121
100,test,1,con,1,z,Tue Feb 17 2026 14:01:45 GMT-0600 (Central Standard Time),524476.3000000119,temper,1100,O,z,z,None,422,222.0,200.0,60,1,2063.300000011921,522413.0,7761,temper,AF,C,521688,521688,519857,520972,519857,521920,521488,521488,521920,122
101,test,1,con,1,z,Tue Feb 17 2026 14:01:45 GMT-0600 (Central Standard Time),526592.5,rage,1100,O,z,z,None,478,277.0,201.0,52,1,2112.0,524480.5,7761,rage,AF,C,523754,523754,521925,523038,521925,524037,523553,523553,524037,123
102,test,1,con,1,m,Tue Feb 17 2026 14:01:45 GMT-0600 (Central Standard Time),528542.3000000119,window,1000,O,m,m,None,403,204.0,199.0,123,1,1946.6000000238419,526595.6999999881,7761,window,AF,C,525770,525770,524040,525054,524040,525986,525570,525570,525986,124
103,test,1,inc,1,m,Tue Feb 17 2026 14:01:45 GMT-0600 (Central Standard Time),530708.6000000238,kind,900,O,m,m,None,720,506.0,214.0,78,1,2161.300000011921,528547.3000000119,7761,rock,AF,C,527636,527636,525991,526903,525992,528153,527421,527421,528153,125
104,test,1,inc,1,z,Tue Feb 17 2026 14:01:45 GMT-0600 (Central Standard Time),532923.6000000238,bell,1000,O,z,z,None,680,464.0,216.0,55,1,2211.0,530712.6000000238,7761,rage,AF,C,529902,529903,528157,529169,528157,530368,529686,529686,530368,126
105,test,1,inc,1,m,Tue Feb 17 2026 14:01:45 GMT-0600 (Central Standard Time),535124.3000000119,love,1000,O,m,m,None,650,450.0,200.0,79,1,2195.100000023842,532929.1999999881,7761,rock,AF,C,532101,532101,530373,531385,530373,532568,531901,531901,532568,127
106,test,1,con,1,m,Tue Feb 17 2026 14:01:45 GMT-0600 (Central Standard Time),537372.8000000119,remote,1000,O,m,m,None,731,532.0,199.0,115,1,2242.300000011921,535130.5,7761,remote,AF,C,534284,534284,532575,533584,532575,534817,534085,534085,534817,128
