Q,Q1,Q2,Q3,Q4,acc_sum,block,block_c,correct,correct_response,datetime,endtime,project,response,response_time,row_sel,session_number,squiggle1,squiggle1x,squiggle1y,squiggle2,squiggle2x,squiggle2y,squiggle3,squiggle3x,squiggle3y,squiggle4,squiggle4x,squiggle4y,start_end,starttime,subject_id,target_congruent,task,task_vers,testsquiggle,testsquigglex,testsquiggley,time_practice_delay,time_practice_fixation,time_practice_stimuli,time_practice_study,time_test_delay,time_test_fixation,time_test_stimuli,time_test_study,trial
1,1,0,0,0,1,prac,1,1,z,Wed Mar 25 2026 16:35:24 GMT-0500 (Central Daylight Time),248464.20000004768,O,z,1798,1,1,16.bmp,-120,-120,17.bmp,120,-120,18.bmp,-120,120,19.bmp,120,120,10608.799999952316,237855.40000009537,7787,yes,SM,B,16.bmp,-120,-120,239527,233500,241543,235513,,,,,1
3,0,0,1,0,2,prac,1,1,m,Wed Mar 25 2026 16:35:24 GMT-0500 (Central Daylight Time),258811.5,O,m,1522,2,1,20.bmp,-120,-120,21.bmp,120,-120,22.bmp,-120,120,23.bmp,120,120,10341.599999904633,248469.90000009537,7787,no,SM,B,23.bmp,-120,120,250139,244114,252156,246125,,,,,2
4,0,0,0,1,3,prac,1,1,m,Wed Mar 25 2026 16:35:24 GMT-0500 (Central Daylight Time),269257.7999999523,O,m,1623,3,1,24.bmp,-120,-120,25.bmp,120,-120,26.bmp,-120,120,27.bmp,120,120,10441.299999952316,258816.5,7787,no,SM,B,24.bmp,120,120,260487,254461,262503,256472,,,,,3
2,0,1,0,0,3,prac,1,0,z,Wed Mar 25 2026 16:35:24 GMT-0500 (Central Daylight Time),280087.7999999523,O,None,2017,4,1,28.bmp,-120,-120,29.bmp,120,-120,30.bmp,-120,120,31.bmp,120,120,10826.299999952316,269261.5,7787,yes,SM,B,29.bmp,120,-120,270932,264906,272949,266918,,,,,4
3,0,0,1,0,4,prac,1,1,z,Wed Mar 25 2026 16:35:24 GMT-0500 (Central Daylight Time),290417.60000014305,O,z,1500,5,1,32.bmp,-120,-120,33.bmp,120,-120,34.bmp,-120,120,35.bmp,120,120,10326.700000047684,280090.90000009537,7787,yes,SM,B,34.bmp,-120,120,281762,275735,283778,277747,,,,,5
1,1,0,0,0,5,prac,1,1,m,Wed Mar 25 2026 16:35:24 GMT-0500 (Central Daylight Time),300814.7000000477,O,m,1594,6,1,36.bmp,-120,-120,37.bmp,120,-120,38.bmp,-120,120,39.bmp,120,120,10392.700000047684,290422.0,7787,no,SM,B,39.bmp,-120,-120,292077,286066,294092,288076,,,,,6
2,0,1,0,0,5,prac,1,0,m,Wed Mar 25 2026 16:35:24 GMT-0500 (Central Daylight Time),311644.2000000477,O,None,2015,7,1,40.bmp,-120,-120,41.bmp,120,-120,42.bmp,-120,120,43.bmp,120,120,10825.099999904633,300819.10000014305,7787,no,SM,B,40.bmp,120,-120,302489,296463,304506,298474,,,,,7
4,0,0,0,1,6,prac,1,1,z,Wed Mar 25 2026 16:35:24 GMT-0500 (Central Daylight Time),321973.60000014305,O,z,1510,8,1,44.bmp,-120,-120,45.bmp,120,-120,46.bmp,-120,120,47.bmp,120,120,10324.800000190735,311648.7999999523,7787,yes,SM,B,47.bmp,120,120,313320,307293,315336,309305,,,,,8
4,0,0,0,1,0,test,1,0,m,Wed Mar 25 2026 16:35:24 GMT-0500 (Central Daylight Time),359726.90000009537,O,None,2016,1,1,48.bmp,-120,-120,49.bmp,120,-120,50.bmp,-120,120,43.bmp,120,120,10061.5,349665.40000009537,7787,yes,SM,B,50.bmp,120,120,313320,307293,315336,309305,351341.0,345310.0,353355.0,347324.0,1
2,0,1,0,0,1,test,1,1,m,Wed Mar 25 2026 16:35:24 GMT-0500 (Central Daylight Time),369709.0,O,m,1924,2,1,1.bmp,-120,-120,2.bmp,120,-120,3.bmp,-120,120,4.bmp,120,120,9979.599999904633,359729.40000009537,7787,yes,SM,B,3.bmp,120,-120,313320,307293,315336,309305,361405.0,355373.0,363419.0,357388.0,2
1,1,0,0,0,2,test,1,1,z,Wed Mar 25 2026 16:35:24 GMT-0500 (Central Daylight Time),379505.10000014305,O,z,1733,3,1,5.bmp,-120,-120,6.bmp,120,-120,7.bmp,-120,120,8.bmp,120,120,9792.400000095367,369712.7000000477,7787,yes,SM,B,5.bmp,-120,-120,313320,307293,315336,309305,371385.0,365357.0,373401.0,367372.0,3
3,0,0,1,0,2,test,1,0,m,Wed Mar 25 2026 16:35:24 GMT-0500 (Central Daylight Time),389268.5,O,z,1721,4,1,9.bmp,-120,-120,10.bmp,120,-120,11.bmp,-120,120,12.bmp,120,120,9758.5,379510.0,7787,yes,SM,B,9.bmp,-120,120,313320,307293,315336,309305,381180.0,375154.0,383181.0,377166.0,4
2,0,1,0,0,2,test,1,0,z,Wed Mar 25 2026 16:35:24 GMT-0500 (Central Daylight Time),399331.90000009537,O,None,2015,5,1,13.bmp,-120,-120,14.bmp,120,-120,15.bmp,-120,120,16.bmp,120,120,10060.600000143051,389271.2999999523,7787,yes,SM,B,14.bmp,120,-120,313320,307293,315336,309305,390945.0,384916.0,392961.0,386929.0,5
3,0,0,1,0,3,test,1,1,z,Wed Mar 25 2026 16:35:24 GMT-0500 (Central Daylight Time),408829.40000009537,O,z,1437,6,1,17.bmp,-120,-120,18.bmp,120,-120,19.bmp,-120,120,20.bmp,120,120,9493.200000047684,399336.2000000477,7787,yes,SM,B,19.bmp,-120,120,313320,307293,315336,309305,401008.0,394980.0,403025.0,396992.0,6
4,0,0,0,1,4,test,1,1,z,Wed Mar 25 2026 16:35:24 GMT-0500 (Central Daylight Time),418277.2999999523,O,z,1382,7,1,21.bmp,-120,-120,22.bmp,120,-120,23.bmp,-120,120,24.bmp,120,120,9444.399999856949,408832.90000009537,7787,yes,SM,B,24.bmp,120,120,313320,307293,315336,309305,410505.0,404477.0,412522.0,406491.0,7
2,0,1,0,0,5,test,1,1,m,Wed Mar 25 2026 16:35:24 GMT-0500 (Central Daylight Time),427905.5,O,m,1572,8,1,25.bmp,-120,-120,26.bmp,120,-120,27.bmp,-120,120,28.bmp,120,120,9624.5,418281.0,7787,yes,SM,B,25.bmp,120,-120,313320,307293,315336,309305,419951.0,413925.0,421968.0,415936.0,8
3,0,0,1,0,6,test,1,1,m,Wed Mar 25 2026 16:35:24 GMT-0500 (Central Daylight Time),437470.90000009537,O,m,1504,9,1,29.bmp,-120,-120,30.bmp,120,-120,31.bmp,-120,120,32.bmp,120,120,9562.400000095367,427908.5,7787,yes,SM,B,30.bmp,-120,120,313320,307293,315336,309305,429583.0,423553.0,431599.0,425567.0,9
4,0,0,0,1,7,test,1,1,z,Wed Mar 25 2026 16:35:24 GMT-0500 (Central Daylight Time),447017.7999999523,O,z,1498,10,1,37.bmp,-120,-120,38.bmp,120,-120,39.bmp,-120,120,40.bmp,120,120,9543.199999809265,437474.60000014305,7787,yes,SM,B,40.bmp,120,120,313320,307293,315336,309305,439145.0,433119.0,441163.0,435131.0,10
3,0,0,1,0,7,test,1,0,z,Wed Mar 25 2026 16:35:24 GMT-0500 (Central Daylight Time),457029.60000014305,O,m,1952,11,1,33.bmp,-120,-120,34.bmp,120,-120,35.bmp,-120,120,36.bmp,120,120,10007.200000047684,447022.40000009537,7787,yes,SM,B,35.bmp,-120,120,313320,307293,315336,309305,448694.0,442667.0,450708.0,444677.0,11
2,0,1,0,0,7,test,1,0,m,Wed Mar 25 2026 16:35:24 GMT-0500 (Central Daylight Time),467093.2000000477,O,None,2014,12,1,41.bmp,-120,-120,42.bmp,120,-120,43.bmp,-120,120,44.bmp,120,120,10061.200000047684,457032.0,7787,yes,SM,B,41.bmp,120,-120,313320,307293,315336,309305,458706.0,452676.0,460723.0,454690.0,12
3,0,0,1,0,8,test,1,1,m,Wed Mar 25 2026 16:35:24 GMT-0500 (Central Daylight Time),476639.90000009537,O,m,1492,13,1,45.bmp,-120,-120,46.bmp,120,-120,47.bmp,-120,120,48.bmp,120,120,9543.200000047684,467096.7000000477,7787,yes,SM,B,46.bmp,-120,120,313320,307293,315336,309305,468771.0,462741.0,470785.0,464754.0,13
1,1,0,0,0,9,test,1,1,z,Wed Mar 25 2026 16:35:24 GMT-0500 (Central Daylight Time),486537.60000014305,O,z,1848,14,1,49.bmp,-120,-120,50.bmp,120,-120,4.bmp,-120,120,1.bmp,120,120,9893.400000095367,476644.2000000477,7787,yes,SM,B,49.bmp,-120,-120,313320,307293,315336,309305,478317.0,472288.0,480318.0,474301.0,14
4,0,0,0,1,9,test,1,0,m,Wed Mar 25 2026 16:35:24 GMT-0500 (Central Daylight Time),496016.5,O,z,1446,15,1,10.bmp,-120,-120,11.bmp,120,-120,12.bmp,-120,120,13.bmp,120,120,9473.599999904633,486542.90000009537,7787,yes,SM,B,11.bmp,120,120,313320,307293,315336,309305,488199.0,482187.0,490214.0,484198.0,15
1,1,0,0,0,10,test,1,1,m,Wed Mar 25 2026 16:35:24 GMT-0500 (Central Daylight Time),505432.2000000477,O,m,1350,16,1,2.bmp,-120,-120,3.bmp,120,-120,4.bmp,-120,120,5.bmp,120,120,9413.700000047684,496018.5,7787,yes,SM,B,5.bmp,-120,-120,313320,307293,315336,309305,497694.0,491663.0,499710.0,493681.0,16
3,0,0,1,0,10,test,1,0,m,Wed Mar 25 2026 16:35:24 GMT-0500 (Central Daylight Time),515496.5,O,None,2016,17,1,22.bmp,-120,-120,23.bmp,120,-120,24.bmp,-120,120,25.bmp,120,120,10061.0,505435.5,7787,yes,SM,B,22.bmp,-120,120,313320,307293,315336,309305,507107.0,501080.0,509124.0,503093.0,17
1,1,0,0,0,10,test,1,0,z,Wed Mar 25 2026 16:35:24 GMT-0500 (Central Daylight Time),525559.2999999523,O,None,2016,18,1,6.bmp,-120,-120,7.bmp,120,-120,8.bmp,-120,120,9.bmp,120,120,10060.0,515499.2999999523,7787,yes,SM,B,6.bmp,-120,-120,313320,307293,315336,309305,517171.0,511144.0,519187.0,513156.0,18
2,0,1,0,0,10,test,1,0,z,Wed Mar 25 2026 16:35:24 GMT-0500 (Central Daylight Time),535622.7000000477,O,None,2015,19,1,26.bmp,-120,-120,27.bmp,120,-120,28.bmp,-120,120,29.bmp,120,120,10059.700000047684,525563.0,7787,yes,SM,B,27.bmp,120,-120,313320,307293,315336,309305,527234.0,521207.0,529252.0,523219.0,19
3,0,0,1,0,11,test,1,1,z,Wed Mar 25 2026 16:35:24 GMT-0500 (Central Daylight Time),545302.4000000954,O,z,1619,20,1,30.bmp,-120,-120,31.bmp,120,-120,32.bmp,-120,120,33.bmp,120,120,9675.200000047684,535627.2000000477,7787,yes,SM,B,32.bmp,-120,120,313320,307293,315336,309305,537299.0,531271.0,539313.0,533283.0,20
1,1,0,0,0,12,test,1,1,m,Wed Mar 25 2026 16:35:24 GMT-0500 (Central Daylight Time),554666.2000000477,O,m,1310,21,1,14.bmp,-120,-120,15.bmp,120,-120,16.bmp,-120,120,17.bmp,120,120,9361.299999952316,545304.9000000954,7787,yes,SM,B,16.bmp,-120,-120,313320,307293,315336,309305,546978.0,540949.0,548993.0,542962.0,21
4,0,0,0,1,12,test,1,0,z,Wed Mar 25 2026 16:35:24 GMT-0500 (Central Daylight Time),564729.7000000477,O,None,2014,22,1,18.bmp,-120,-120,19.bmp,120,-120,20.bmp,-120,120,21.bmp,120,120,10060.700000047684,554669.0,7787,yes,SM,B,21.bmp,120,120,313320,307293,315336,309305,556342.0,550313.0,558359.0,552328.0,22
1,1,0,0,0,13,test,1,1,m,Wed Mar 25 2026 16:35:24 GMT-0500 (Central Daylight Time),574160.2999999523,O,m,1368,23,1,34.bmp,-120,-120,35.bmp,120,-120,36.bmp,-120,120,37.bmp,120,120,9425.899999856949,564734.4000000954,7787,yes,SM,B,37.bmp,-120,-120,313320,307293,315336,309305,566409.0,560379.0,568421.0,562390.0,23
2,0,1,0,0,14,test,1,1,z,Wed Mar 25 2026 16:35:24 GMT-0500 (Central Daylight Time),584073.9000000954,O,z,1858,24,1,42.bmp,-120,-120,43.bmp,120,-120,44.bmp,-120,120,45.bmp,120,120,9909.100000143051,574164.7999999523,7787,yes,SM,B,43.bmp,120,-120,313320,307293,315336,309305,575835.0,569809.0,577852.0,571822.0,24
4,0,0,0,1,15,test,1,1,m,Wed Mar 25 2026 16:35:24 GMT-0500 (Central Daylight Time),593436.2999999523,O,m,1305,25,1,46.bmp,-120,-120,47.bmp,120,-120,48.bmp,-120,120,49.bmp,120,120,9355.099999904633,584081.2000000477,7787,yes,SM,B,48.bmp,120,120,313320,307293,315336,309305,585749.0,579726.0,587765.0,581734.0,25
1,1,0,0,0,16,test,1,1,z,Wed Mar 25 2026 16:35:24 GMT-0500 (Central Daylight Time),602901.100000143,O,z,1400,26,1,38.bmp,-120,-120,39.bmp,120,-120,40.bmp,-120,120,41.bmp,120,120,9460.700000047684,593440.4000000954,7787,yes,SM,B,38.bmp,-120,-120,313320,307293,315336,309305,595112.0,589085.0,597128.0,591096.0,26
4,0,0,0,1,17,test,1,1,z,Wed Mar 25 2026 16:35:24 GMT-0500 (Central Daylight Time),612398.0,O,z,1432,27,1,50.bmp,-120,-120,11.bmp,120,-120,1.bmp,-120,120,2.bmp,120,120,9492.700000047684,602905.2999999523,7787,yes,SM,B,2.bmp,120,120,313320,307293,315336,309305,604576.0,598550.0,606592.0,600562.0,27
3,0,0,1,0,17,test,1,0,m,Wed Mar 25 2026 16:35:24 GMT-0500 (Central Daylight Time),622460.7999999523,O,None,2015,28,1,3.bmp,-120,-120,4.bmp,120,-120,5.bmp,-120,120,6.bmp,120,120,10058.299999952316,612402.5,7787,yes,SM,B,3.bmp,-120,120,313320,307293,315336,309305,614073.0,608047.0,616090.0,610058.0,28
2,0,1,0,0,18,test,1,1,z,Wed Mar 25 2026 16:35:24 GMT-0500 (Central Daylight Time),631576.2000000477,O,z,1061,29,1,7.bmp,-120,-120,8.bmp,120,-120,9.bmp,-120,120,10.bmp,120,120,9108.700000047684,622467.5,7787,yes,SM,B,8.bmp,120,-120,313320,307293,315336,309305,624137.0,618112.0,626153.0,620121.0,29
3,0,0,1,0,19,test,1,1,z,Wed Mar 25 2026 16:35:24 GMT-0500 (Central Daylight Time),641322.4000000954,O,z,1683,30,1,11.bmp,-120,-120,12.bmp,120,-120,13.bmp,-120,120,14.bmp,120,120,9741.700000047684,631580.7000000477,7787,yes,SM,B,13.bmp,-120,120,313320,307293,315336,309305,633250.0,627225.0,635267.0,629234.0,30
1,1,0,0,0,19,test,1,0,z,Wed Mar 25 2026 16:35:24 GMT-0500 (Central Daylight Time),651352.2000000477,O,m,1967,31,1,15.bmp,-120,-120,16.bmp,120,-120,17.bmp,-120,120,18.bmp,120,120,10027.599999904633,641324.600000143,7787,yes,SM,B,15.bmp,-120,-120,313320,307293,315336,309305,643005.0,636969.0,645014.0,638983.0,31
2,0,1,0,0,20,test,1,1,m,Wed Mar 25 2026 16:35:24 GMT-0500 (Central Daylight Time),660748.9000000954,O,m,1333,32,1,19.bmp,-120,-120,20.bmp,120,-120,21.bmp,-120,120,22.bmp,120,120,9393.400000095367,651355.5,7787,yes,SM,B,19.bmp,120,-120,313320,307293,315336,309305,653027.0,647000.0,655044.0,649014.0,32
4,0,0,0,1,21,test,1,1,z,Wed Mar 25 2026 16:35:24 GMT-0500 (Central Daylight Time),669879.7999999523,O,z,1077,33,1,31.bmp,-120,-120,32.bmp,120,-120,33.bmp,-120,120,34.bmp,120,120,9127.299999952316,660752.5,7787,yes,SM,B,34.bmp,120,120,313320,307293,315336,309305,662423.0,656397.0,664441.0,658410.0,33
2,0,1,0,0,21,test,1,0,z,Wed Mar 25 2026 16:35:24 GMT-0500 (Central Daylight Time),679944.2000000477,O,None,2016,34,1,23.bmp,-120,-120,24.bmp,120,-120,25.bmp,-120,120,26.bmp,120,120,10060.400000095367,669883.7999999523,7787,yes,SM,B,24.bmp,120,-120,313320,307293,315336,309305,671556.0,665528.0,673572.0,667541.0,34
4,0,0,0,1,22,test,1,1,m,Wed Mar 25 2026 16:35:24 GMT-0500 (Central Daylight Time),689474.4000000954,O,m,1468,35,1,27.bmp,-120,-120,28.bmp,120,-120,29.bmp,-120,120,30.bmp,120,120,9525.799999952316,679948.600000143,7787,yes,SM,B,29.bmp,120,120,313320,307293,315336,309305,681619.0,675593.0,683634.0,677603.0,35
3,0,0,1,0,22,test,1,0,m,Wed Mar 25 2026 16:35:24 GMT-0500 (Central Daylight Time),699419.7999999523,O,z,1897,36,1,35.bmp,-120,-120,36.bmp,120,-120,37.bmp,-120,120,38.bmp,120,120,9940.899999856949,689478.9000000954,7787,yes,SM,B,35.bmp,-120,120,313320,307293,315336,309305,691149.0,685123.0,693165.0,687136.0,36
1,1,0,0,0,23,test,1,1,m,Wed Mar 25 2026 16:35:24 GMT-0500 (Central Daylight Time),709399.9000000954,O,m,1935,37,1,39.bmp,-120,-120,40.bmp,120,-120,41.bmp,-120,120,42.bmp,120,120,9975.5,699424.4000000954,7787,yes,SM,B,40.bmp,-120,-120,313320,307293,315336,309305,701093.0,695069.0,703095.0,697080.0,37
2,0,1,0,0,24,test,1,1,m,Wed Mar 25 2026 16:35:24 GMT-0500 (Central Daylight Time),719362.9000000954,O,m,1905,38,1,43.bmp,-120,-120,44.bmp,120,-120,45.bmp,-120,120,46.bmp,120,120,9959.200000047684,709403.7000000477,7787,yes,SM,B,45.bmp,120,-120,313320,307293,315336,309305,711075.0,705048.0,713092.0,707061.0,38
4,0,0,0,1,25,test,1,1,z,Wed Mar 25 2026 16:35:24 GMT-0500 (Central Daylight Time),728926.9000000954,O,z,1510,39,1,47.bmp,-120,-120,48.bmp,120,-120,49.bmp,-120,120,50.bmp,120,120,9559.400000095367,719367.5,7787,yes,SM,B,50.bmp,120,120,313320,307293,315336,309305,721039.0,715012.0,723056.0,717024.0,39
3,0,0,1,0,26,test,1,1,m,Wed Mar 25 2026 16:35:24 GMT-0500 (Central Daylight Time),738458.2999999523,O,m,1465,40,1,4.bmp,-120,-120,5.bmp,120,-120,6.bmp,-120,120,7.bmp,120,120,9528.099999904633,728930.2000000477,7787,yes,SM,B,5.bmp,-120,120,313320,307293,315336,309305,730602.0,724574.0,732620.0,726587.0,40
1,1,0,0,0,27,test,1,1,z,Wed Mar 25 2026 16:35:24 GMT-0500 (Central Daylight Time),747820.2000000477,O,z,1312,41,1,8.bmp,-120,-120,9.bmp,120,-120,10.bmp,-120,120,11.bmp,120,120,9357.200000047684,738463.0,7787,yes,SM,B,8.bmp,-120,-120,313320,307293,315336,309305,740134.0,734107.0,742150.0,736119.0,41
4,0,0,0,1,27,test,1,0,z,Wed Mar 25 2026 16:35:24 GMT-0500 (Central Daylight Time),757868.5,O,None,2015,42,1,12.bmp,-120,-120,13.bmp,120,-120,14.bmp,-120,120,15.bmp,120,120,10043.700000047684,747824.7999999523,7787,yes,SM,B,15.bmp,120,120,313320,307293,315336,309305,749496.0,743469.0,751497.0,745482.0,42
1,1,0,0,0,28,test,1,1,z,Wed Mar 25 2026 16:35:24 GMT-0500 (Central Daylight Time),767348.7999999523,O,z,1432,43,1,16.bmp,-120,-120,17.bmp,120,-120,18.bmp,-120,120,19.bmp,120,120,9477.099999904633,757871.7000000477,7787,yes,SM,B,16.bmp,-120,-120,313320,307293,315336,309305,759543.0,753516.0,761560.0,755529.0,43
4,0,0,0,1,28,test,1,0,m,Wed Mar 25 2026 16:35:24 GMT-0500 (Central Daylight Time),777411.7000000477,O,None,2016,44,1,4.bmp,-120,-120,1.bmp,120,-120,2.bmp,-120,120,3.bmp,120,120,10058.299999952316,767353.4000000954,7787,yes,SM,B,4.bmp,120,120,313320,307293,315336,309305,769024.0,762998.0,771040.0,765009.0,44
1,1,0,0,0,29,test,1,1,m,Wed Mar 25 2026 16:35:24 GMT-0500 (Central Daylight Time),787308.2000000477,O,m,1861,45,1,28.bmp,-120,-120,29.bmp,120,-120,30.bmp,-120,120,31.bmp,120,120,9892.299999952316,777415.9000000954,7787,yes,SM,B,31.bmp,-120,-120,313320,307293,315336,309305,779087.0,773060.0,781088.0,775072.0,45
1,1,0,0,0,29,test,1,0,m,Wed Mar 25 2026 16:35:24 GMT-0500 (Central Daylight Time),797372.600000143,O,None,2016,46,1,20.bmp,-120,-120,21.bmp,120,-120,22.bmp,-120,120,23.bmp,120,120,10058.600000143051,787314.0,7787,yes,SM,B,21.bmp,-120,-120,313320,307293,315336,309305,788985.0,782958.0,791000.0,784969.0,46
3,0,0,1,0,29,test,1,0,z,Wed Mar 25 2026 16:35:24 GMT-0500 (Central Daylight Time),807436.0,O,None,2017,47,1,24.bmp,-120,-120,25.bmp,120,-120,26.bmp,-120,120,27.bmp,120,120,10057.899999856949,797378.100000143,7787,yes,SM,B,26.bmp,-120,120,313320,307293,315336,309305,799048.0,793022.0,801063.0,795032.0,47
3,0,0,1,0,30,test,1,1,z,Wed Mar 25 2026 16:35:24 GMT-0500 (Central Daylight Time),817016.4000000954,O,z,1542,48,1,40.bmp,-120,-120,41.bmp,120,-120,42.bmp,-120,120,43.bmp,120,120,9573.600000143051,807442.7999999523,7787,yes,SM,B,42.bmp,-120,120,313320,307293,315336,309305,809111.0,803087.0,811113.0,805096.0,48
2,0,1,0,0,31,test,1,1,z,Wed Mar 25 2026 16:35:24 GMT-0500 (Central Daylight Time),826962.2000000477,O,z,1898,49,1,36.bmp,-120,-120,37.bmp,120,-120,38.bmp,-120,120,39.bmp,120,120,9943.5,817018.7000000477,7787,yes,SM,B,37.bmp,120,-120,313320,307293,315336,309305,818692.0,812663.0,820708.0,814676.0,49
3,0,0,1,0,32,test,1,1,m,Wed Mar 25 2026 16:35:24 GMT-0500 (Central Daylight Time),836392.600000143,O,m,1364,50,1,32.bmp,-120,-120,33.bmp,120,-120,34.bmp,-120,120,35.bmp,120,120,9425.800000190735,826966.7999999523,7787,yes,SM,B,32.bmp,-120,120,313320,307293,315336,309305,828640.0,822611.0,830657.0,824624.0,50
2,0,1,0,0,33,test,1,1,z,Wed Mar 25 2026 16:35:24 GMT-0500 (Central Daylight Time),846206.7999999523,O,z,1762,51,1,44.bmp,-120,-120,45.bmp,120,-120,46.bmp,-120,120,47.bmp,120,120,9809.699999809265,836397.100000143,7787,yes,SM,B,45.bmp,120,-120,313320,307293,315336,309305,838070.0,832041.0,840085.0,834054.0,51
4,0,0,0,1,33,test,1,0,m,Wed Mar 25 2026 16:35:24 GMT-0500 (Central Daylight Time),856270.600000143,O,None,2016,52,1,48.bmp,-120,-120,49.bmp,120,-120,50.bmp,-120,120,31.bmp,120,120,10060.800000190735,846209.7999999523,7787,yes,SM,B,48.bmp,120,120,313320,307293,315336,309305,847883.0,841854.0,849898.0,843866.0,52
3,0,0,1,0,34,test,1,1,z,Wed Mar 25 2026 16:35:24 GMT-0500 (Central Daylight Time),866284.2999999523,O,z,1947,53,1,1.bmp,-120,-120,2.bmp,120,-120,3.bmp,-120,120,4.bmp,120,120,10007.899999856949,856276.4000000954,7787,yes,SM,B,3.bmp,-120,120,313320,307293,315336,309305,857946.0,851920.0,859964.0,853931.0,53
1,1,0,0,0,34,test,1,0,m,Wed Mar 25 2026 16:35:24 GMT-0500 (Central Daylight Time),876348.5,O,None,2016,54,1,5.bmp,-120,-120,6.bmp,120,-120,7.bmp,-120,120,8.bmp,120,120,10058.899999856949,866289.600000143,7787,yes,SM,B,7.bmp,-120,-120,313320,307293,315336,309305,867960.0,861934.0,869976.0,863943.0,54
4,0,0,0,1,34,test,1,0,z,Wed Mar 25 2026 16:35:24 GMT-0500 (Central Daylight Time),886410.7999999523,O,None,2015,55,1,9.bmp,-120,-120,10.bmp,120,-120,11.bmp,-120,120,12.bmp,120,120,10058.899999856949,876351.9000000954,7787,yes,SM,B,12.bmp,120,120,313320,307293,315336,309305,878023.0,871996.0,880040.0,874008.0,55
2,0,1,0,0,34,test,1,0,m,Wed Mar 25 2026 16:35:24 GMT-0500 (Central Daylight Time),896224.7999999523,O,z,1750,56,1,13.bmp,-120,-120,14.bmp,120,-120,15.bmp,-120,120,16.bmp,120,120,9808.099999904633,886416.7000000477,7787,yes,SM,B,13.bmp,120,-120,313320,307293,315336,309305,888086.0,882061.0,890103.0,884071.0,56
4,0,0,0,1,35,test,1,1,m,Wed Mar 25 2026 16:35:24 GMT-0500 (Central Daylight Time),906171.2000000477,O,m,1883,57,1,17.bmp,-120,-120,18.bmp,120,-120,19.bmp,-120,120,20.bmp,120,120,9943.200000047684,896228.0,7787,yes,SM,B,18.bmp,120,120,313320,307293,315336,309305,897899.0,891872.0,899916.0,893884.0,57
3,0,0,1,0,35,test,1,0,z,Wed Mar 25 2026 16:35:24 GMT-0500 (Central Daylight Time),916235.0,O,None,2016,58,1,21.bmp,-120,-120,22.bmp,120,-120,23.bmp,-120,120,24.bmp,120,120,10060.399999856949,906174.600000143,7787,yes,SM,B,23.bmp,-120,120,313320,307293,315336,309305,907848.0,901819.0,909863.0,903830.0,58
2,0,1,0,0,36,test,1,1,m,Wed Mar 25 2026 16:35:24 GMT-0500 (Central Daylight Time),925666.5,O,m,1384,59,1,25.bmp,-120,-120,26.bmp,120,-120,27.bmp,-120,120,28.bmp,120,120,9427.099999904633,916239.4000000954,7787,yes,SM,B,28.bmp,120,-120,313320,307293,315336,309305,917910.0,911884.0,919926.0,913895.0,59
1,1,0,0,0,37,test,1,1,z,Wed Mar 25 2026 16:35:24 GMT-0500 (Central Daylight Time),935627.5,O,z,1914,60,1,29.bmp,-120,-120,30.bmp,120,-120,31.bmp,-120,120,32.bmp,120,120,9955.799999952316,925671.7000000477,7787,yes,SM,B,29.bmp,-120,-120,313320,307293,315336,309305,927339.0,921316.0,929356.0,923325.0,60
2,0,1,0,0,38,test,1,1,z,Wed Mar 25 2026 16:35:24 GMT-0500 (Central Daylight Time),944974.0,O,z,1286,61,1,33.bmp,-120,-120,34.bmp,120,-120,35.bmp,-120,120,36.bmp,120,120,9340.899999856949,935633.100000143,7787,yes,SM,B,34.bmp,120,-120,313320,307293,315336,309305,937303.0,931277.0,939319.0,933289.0,61
4,0,0,0,1,39,test,1,1,z,Wed Mar 25 2026 16:35:24 GMT-0500 (Central Daylight Time),954471.9000000954,O,z,1443,62,1,41.bmp,-120,-120,42.bmp,120,-120,43.bmp,-120,120,44.bmp,120,120,9493.799999952316,944978.100000143,7787,yes,SM,B,44.bmp,120,120,313320,307293,315336,309305,946650.0,940622.0,948667.0,942635.0,62
1,1,0,0,0,39,test,1,0,m,Wed Mar 25 2026 16:35:24 GMT-0500 (Central Daylight Time),964135.100000143,O,z,1600,63,1,45.bmp,-120,-120,46.bmp,120,-120,47.bmp,-120,120,48.bmp,120,120,9659.200000047684,954475.9000000954,7787,yes,SM,B,45.bmp,-120,120,313320,307293,315336,309305,956148.0,950120.0,958165.0,952132.0,63
2,0,1,0,0,40,test,1,1,z,Wed Mar 25 2026 16:35:24 GMT-0500 (Central Daylight Time),973549.7999999523,O,z,1355,64,1,49.bmp,-120,-120,50.bmp,120,-120,12.bmp,-120,120,1.bmp,120,120,9410.299999952316,964139.5,7787,yes,SM,B,50.bmp,120,-120,313320,307293,315336,309305,965812.0,959784.0,967828.0,961798.0,64
4,0,0,0,1,40,test,1,0,m,Wed Mar 25 2026 16:35:24 GMT-0500 (Central Daylight Time),983612.2999999523,O,None,2014,65,1,2.bmp,-120,-120,3.bmp,120,-120,4.bmp,-120,120,5.bmp,120,120,10059.0,973553.2999999523,7787,yes,SM,B,4.bmp,120,120,313320,307293,315336,309305,975226.0,969198.0,977242.0,971210.0,65
3,0,0,1,0,41,test,1,1,m,Wed Mar 25 2026 16:35:24 GMT-0500 (Central Daylight Time),993444.600000143,O,m,1783,66,1,6.bmp,-120,-120,7.bmp,120,-120,8.bmp,-120,120,9.bmp,120,120,9827.100000143051,983617.5,7787,yes,SM,B,9.bmp,-120,120,313320,307293,315336,309305,985289.0,979262.0,987305.0,981274.0,66
2,0,1,0,0,42,test,1,1,m,Wed Mar 25 2026 16:35:24 GMT-0500 (Central Daylight Time),1002957.2999999523,O,m,1495,67,1,37.bmp,-120,-120,38.bmp,120,-120,39.bmp,-120,120,40.bmp,120,120,9509.199999809265,993448.100000143,7787,yes,SM,B,39.bmp,120,-120,313320,307293,315336,309305,995103.0,989092.0,997106.0,991102.0,67
3,0,0,1,0,42,test,1,0,z,Wed Mar 25 2026 16:35:24 GMT-0500 (Central Daylight Time),1013005.7999999523,O,None,2001,68,1,10.bmp,-120,-120,11.bmp,120,-120,12.bmp,-120,120,13.bmp,120,120,10045.099999904633,1002960.7000000477,7787,yes,SM,B,12.bmp,-120,120,313320,307293,315336,309305,1004632.0,998605.0,1006649.0,1000618.0,68
1,1,0,0,0,43,test,1,1,m,Wed Mar 25 2026 16:35:24 GMT-0500 (Central Daylight Time),1022317.5,O,m,1264,69,1,14.bmp,-120,-120,15.bmp,120,-120,16.bmp,-120,120,17.bmp,120,120,9307.399999856949,1013010.100000143,7787,yes,SM,B,15.bmp,-120,-120,313320,307293,315336,309305,1014680.0,1008654.0,1016697.0,1010665.0,69
2,0,1,0,0,44,test,1,1,m,Wed Mar 25 2026 16:35:24 GMT-0500 (Central Daylight Time),1031713.9000000954,O,m,1358,70,1,18.bmp,-120,-120,19.bmp,120,-120,20.bmp,-120,120,21.bmp,120,120,9392.0,1022321.9000000954,7787,yes,SM,B,20.bmp,120,-120,313320,307293,315336,309305,1023992.0,1017966.0,1025993.0,1019977.0,70
4,0,0,0,1,44,test,1,0,z,Wed Mar 25 2026 16:35:24 GMT-0500 (Central Daylight Time),1041228.2999999523,O,m,1466,71,1,22.bmp,-120,-120,23.bmp,120,-120,24.bmp,-120,120,25.bmp,120,120,9511.299999952316,1031717.0,7787,yes,SM,B,25.bmp,120,120,313320,307293,315336,309305,1033390.0,1027361.0,1035406.0,1029375.0,71
1,1,0,0,0,44,test,1,0,z,Wed Mar 25 2026 16:35:24 GMT-0500 (Central Daylight Time),1050974.2000000477,O,m,1693,72,1,26.bmp,-120,-120,27.bmp,120,-120,28.bmp,-120,120,29.bmp,120,120,9742.099999904633,1041232.100000143,7787,yes,SM,B,26.bmp,-120,-120,313320,307293,315336,309305,1042904.0,1036876.0,1044921.0,1038889.0,72
2,0,1,0,0,44,test,1,0,z,Wed Mar 25 2026 16:35:24 GMT-0500 (Central Daylight Time),1061037.2999999523,O,None,2014,73,1,30.bmp,-120,-120,31.bmp,120,-120,32.bmp,-120,120,33.bmp,120,120,10058.0,1050979.2999999523,7787,yes,SM,B,31.bmp,120,-120,313320,307293,315336,309305,1052650.0,1046624.0,1054667.0,1048637.0,73
4,0,0,0,1,45,test,1,1,m,Wed Mar 25 2026 16:35:24 GMT-0500 (Central Daylight Time),1071018.100000143,O,m,1916,74,1,34.bmp,-120,-120,35.bmp,120,-120,36.bmp,-120,120,37.bmp,120,120,9974.300000190735,1061043.7999999523,7787,yes,SM,B,36.bmp,120,120,313320,307293,315336,309305,1062714.0,1056688.0,1064729.0,1058699.0,74
2,0,1,0,0,45,test,1,0,m,Wed Mar 25 2026 16:35:24 GMT-0500 (Central Daylight Time),1081065.600000143,O,None,2014,75,1,38.bmp,-120,-120,39.bmp,120,-120,40.bmp,-120,120,41.bmp,120,120,10042.0,1071023.600000143,7787,yes,SM,B,41.bmp,120,-120,313320,307293,315336,309305,1072679.0,1066668.0,1074695.0,1068678.0,75
1,1,0,0,0,46,test,1,1,z,Wed Mar 25 2026 16:35:24 GMT-0500 (Central Daylight Time),1090362.2999999523,O,z,1247,76,1,42.bmp,-120,-120,43.bmp,120,-120,44.bmp,-120,120,45.bmp,120,120,9291.799999952316,1081070.5,7787,yes,SM,B,42.bmp,-120,-120,313320,307293,315336,309305,1082742.0,1076715.0,1084758.0,1078726.0,76
3,0,0,1,0,47,test,1,1,z,Wed Mar 25 2026 16:35:24 GMT-0500 (Central Daylight Time),1100044.0,O,z,1652,77,1,50.bmp,-120,-120,11.bmp,120,-120,1.bmp,-120,120,2.bmp,120,120,9677.799999952316,1090366.2000000477,7787,yes,SM,B,1.bmp,-120,120,313320,307293,315336,309305,1092035.0,1086010.0,1094036.0,1088022.0,77
1,1,0,0,0,48,test,1,1,m,Wed Mar 25 2026 16:35:24 GMT-0500 (Central Daylight Time),1110039.4000000954,O,m,1933,78,1,46.bmp,-120,-120,47.bmp,120,-120,48.bmp,-120,120,49.bmp,120,120,9991.299999952316,1100048.100000143,7787,yes,SM,B,47.bmp,-120,-120,313320,307293,315336,309305,1101719.0,1095692.0,1103736.0,1097704.0,78
4,0,0,0,1,49,test,1,1,m,Wed Mar 25 2026 16:35:24 GMT-0500 (Central Daylight Time),1119770.600000143,O,m,1676,79,1,7.bmp,-120,-120,8.bmp,120,-120,9.bmp,-120,120,10.bmp,120,120,9726.400000095367,1110044.2000000477,7787,yes,SM,B,7.bmp,120,120,313320,307293,315336,309305,1111714.0,1105688.0,1113731.0,1107700.0,79
3,0,0,1,0,50,test,1,1,m,Wed Mar 25 2026 16:35:24 GMT-0500 (Central Daylight Time),1129482.9000000954,O,m,1658,80,1,3.bmp,-120,-120,4.bmp,120,-120,5.bmp,-120,120,6.bmp,120,120,9708.299999952316,1119774.600000143,7787,yes,SM,B,6.bmp,-120,120,313320,307293,315336,309305,1121446.0,1115419.0,1123461.0,1117431.0,80
