acc_sum,block,block_c,change,condition,correct,correct_response,datetime,endtime,face,project,response,response_time,row_sel,session_number,start_end,starttime,subject_id,task,task_vers,trial
0,prac,1,,1-Back,,,Mon Dec 15 2025 13:49:55 GMT-0500 (Eastern Standard Time),,097_m_f_n_a.png,I,space,13398,1,3,,,9024,NNB,B,0
1,prac,1,0.0,1-Back,1.0,m,Mon Dec 15 2025 13:49:55 GMT-0500 (Eastern Standard Time),138259.59999990463,152_y_f_n_a.png,I,m,757,2,3,1670.0,136589.59999990463,9024,NNB,B,1
2,prac,1,1.0,1-Back,1.0,z,Mon Dec 15 2025 13:49:55 GMT-0500 (Eastern Standard Time),140476.09999990463,152_y_f_n_a.png,I,z,1421,3,3,2204.0,138272.09999990463,9024,NNB,B,2
3,prac,1,0.0,1-Back,1.0,m,Mon Dec 15 2025 13:49:55 GMT-0500 (Eastern Standard Time),142342.69999980927,176_o_m_n_a.png,I,m,929,4,3,1852.4000000953674,140490.2999997139,9024,NNB,B,3
3,prac,1,0.0,1-Back,0.0,m,Mon Dec 15 2025 13:49:55 GMT-0500 (Eastern Standard Time),144375.90000009537,126_m_m_n_a.png,I,z,1102,5,3,2021.4000000953674,142354.5,9024,NNB,B,4
4,prac,1,1.0,1-Back,1.0,z,Mon Dec 15 2025 13:49:55 GMT-0500 (Eastern Standard Time),147009.2999997139,126_m_m_n_a.png,I,z,1849,6,3,2620.8999996185303,144388.40000009537,9024,NNB,B,5
5,prac,1,0.0,1-Back,1.0,m,Mon Dec 15 2025 13:49:55 GMT-0500 (Eastern Standard Time),149226.0,086_o_f_n_a.png,I,m,1261,7,3,2203.300000190735,147022.69999980927,9024,NNB,B,6
5,prac,1,0.0,1-Back,0.0,m,Mon Dec 15 2025 13:49:55 GMT-0500 (Eastern Standard Time),151975.90000009537,178_m_m_n_a.png,I,z,1815,8,3,2726.5,149249.40000009537,9024,NNB,B,7
6,prac,1,0.0,1-Back,1.0,m,Mon Dec 15 2025 13:49:55 GMT-0500 (Eastern Standard Time),153792.59999990463,097_m_f_n_a.png,I,m,1033,9,3,1804.3000001907349,151988.2999997139,9024,NNB,B,8
7,prac,1,1.0,1-Back,1.0,z,Mon Dec 15 2025 13:49:55 GMT-0500 (Eastern Standard Time),156109.40000009537,097_m_f_n_a.png,I,z,1537,10,3,2305.2000002861023,153804.19999980927,9024,NNB,B,9
8,prac,1,0.0,1-Back,1.0,m,Mon Dec 15 2025 13:49:55 GMT-0500 (Eastern Standard Time),158242.69999980927,176_o_m_n_a.png,I,m,1346,11,3,2119.199999809265,156123.5,9024,NNB,B,10
9,prac,1,0.0,1-Back,1.0,m,Mon Dec 15 2025 13:49:55 GMT-0500 (Eastern Standard Time),160709.40000009537,173_y_f_n_a.png,I,m,1543,12,3,2453.300000190735,158256.09999990463,9024,NNB,B,11
0,test,1,0.0,1-Back,,,Mon Dec 15 2025 13:49:55 GMT-0500 (Eastern Standard Time),160709.40000009537,152_y_f_n_a.png,I,space,36947,1,3,2453.300000190735,158256.09999990463,9024,NNB,B,0
1,test,1,0.0,1-Back,1.0,m,Mon Dec 15 2025 13:49:55 GMT-0500 (Eastern Standard Time),208575.7999997139,029_m_f_n_a.png,I,m,1814,2,3,2822.0999999046326,205753.69999980927,9024,NNB,B,1
2,test,1,0.0,1-Back,1.0,m,Mon Dec 15 2025 13:49:55 GMT-0500 (Eastern Standard Time),211292.40000009537,173_y_f_n_a.png,I,m,1685,3,3,2707.5,208584.90000009537,9024,NNB,B,2
3,test,1,1.0,1-Back,1.0,z,Mon Dec 15 2025 13:49:55 GMT-0500 (Eastern Standard Time),213225.59999990463,173_y_f_n_a.png,I,z,904,4,3,1922.9000000953674,211302.69999980927,9024,NNB,B,3
4,test,1,0.0,1-Back,1.0,m,Mon Dec 15 2025 13:49:55 GMT-0500 (Eastern Standard Time),215442.40000009537,029_m_f_n_a.png,I,m,1195,5,3,2207.800000190735,213234.59999990463,9024,NNB,B,4
5,test,1,0.0,1-Back,1.0,m,Mon Dec 15 2025 13:49:55 GMT-0500 (Eastern Standard Time),217275.7999997139,176_o_m_n_a.png,I,m,802,6,3,1820.3999996185303,215455.40000009537,9024,NNB,B,5
6,test,1,1.0,1-Back,1.0,z,Mon Dec 15 2025 13:49:55 GMT-0500 (Eastern Standard Time),219309.09999990463,176_o_m_n_a.png,I,z,1001,7,3,2024.4000000953674,217284.69999980927,9024,NNB,B,6
7,test,1,0.0,1-Back,1.0,m,Mon Dec 15 2025 13:49:55 GMT-0500 (Eastern Standard Time),221959.09999990463,126_m_m_n_a.png,I,m,1623,8,3,2640.800000190735,219318.2999997139,9024,NNB,B,7
8,test,1,0.0,1-Back,1.0,m,Mon Dec 15 2025 13:49:55 GMT-0500 (Eastern Standard Time),224259.09999990463,086_o_f_n_a.png,I,m,1262,9,3,2274.4000000953674,221984.69999980927,9024,NNB,B,8
9,test,1,0.0,1-Back,1.0,m,Mon Dec 15 2025 13:49:55 GMT-0500 (Eastern Standard Time),226509.09999990463,126_m_m_n_a.png,I,m,1218,10,3,2241.199999809265,224267.90000009537,9024,NNB,B,9
10,test,1,0.0,1-Back,1.0,m,Mon Dec 15 2025 13:49:55 GMT-0500 (Eastern Standard Time),228859.09999990463,153_y_m_n_a.png,I,m,1319,11,3,2341.9000000953674,226517.19999980927,9024,NNB,B,10
11,test,1,1.0,1-Back,1.0,z,Mon Dec 15 2025 13:49:55 GMT-0500 (Eastern Standard Time),230842.40000009537,153_y_m_n_a.png,I,z,953,12,3,1974.5,228867.90000009537,9024,NNB,B,11
12,test,1,0.0,1-Back,1.0,m,Mon Dec 15 2025 13:49:55 GMT-0500 (Eastern Standard Time),232792.2999997139,110_o_f_n_a.png,I,m,922,13,3,1940.6999998092651,230851.59999990463,9024,NNB,B,12
13,test,1,1.0,1-Back,1.0,z,Mon Dec 15 2025 13:49:55 GMT-0500 (Eastern Standard Time),234909.09999990463,110_o_f_n_a.png,I,z,1084,14,3,2107.5999999046326,232801.5,9024,NNB,B,13
14,test,1,0.0,1-Back,1.0,m,Mon Dec 15 2025 13:49:55 GMT-0500 (Eastern Standard Time),236941.90000009537,013_y_m_n_a.png,I,m,1016,15,3,2024.5,234917.40000009537,9024,NNB,B,14
15,test,1,0.0,1-Back,1.0,m,Mon Dec 15 2025 13:49:55 GMT-0500 (Eastern Standard Time),239192.40000009537,097_m_f_n_a.png,I,m,1222,16,3,2246.300000190735,236946.09999990463,9024,NNB,B,15
16,test,1,0.0,1-Back,1.0,m,Mon Dec 15 2025 13:49:55 GMT-0500 (Eastern Standard Time),241875.59999990463,065_o_m_n_a.png,I,m,1660,17,3,2674.4000000953674,239201.19999980927,9024,NNB,B,16
17,test,1,0.0,1-Back,1.0,m,Mon Dec 15 2025 13:49:55 GMT-0500 (Eastern Standard Time),244325.69999980927,097_m_f_n_a.png,I,m,1425,18,3,2441.5,241884.19999980927,9024,NNB,B,17
0,test,2,0.0,1-Back,,,Mon Dec 15 2025 13:49:55 GMT-0500 (Eastern Standard Time),244325.69999980927,126_m_m_n_a.png,I,space,5478,1,3,2441.5,241884.19999980927,9024,NNB,B,0
1,test,2,0.0,1-Back,1.0,m,Mon Dec 15 2025 13:49:55 GMT-0500 (Eastern Standard Time),253875.69999980927,029_m_f_n_a.png,I,m,1027,2,3,2041.0,251834.69999980927,9024,NNB,B,1
2,test,2,1.0,1-Back,1.0,z,Mon Dec 15 2025 13:49:55 GMT-0500 (Eastern Standard Time),256158.90000009537,029_m_f_n_a.png,I,z,1265,3,3,2274.0,253884.90000009537,9024,NNB,B,2
3,test,2,0.0,1-Back,1.0,m,Mon Dec 15 2025 13:49:55 GMT-0500 (Eastern Standard Time),258292.2999997139,126_m_m_n_a.png,I,m,1110,4,3,2124.5999999046326,256167.69999980927,9024,NNB,B,3
4,test,2,0.0,1-Back,1.0,m,Mon Dec 15 2025 13:49:55 GMT-0500 (Eastern Standard Time),260592.09999990463,153_y_m_n_a.png,I,m,1264,5,3,2281.4000000953674,258310.69999980927,9024,NNB,B,4
5,test,2,0.0,1-Back,1.0,m,Mon Dec 15 2025 13:49:55 GMT-0500 (Eastern Standard Time),262842.2999997139,152_y_f_n_a.png,I,m,1220,6,3,2241.0,260601.2999997139,9024,NNB,B,5
6,test,2,1.0,1-Back,1.0,z,Mon Dec 15 2025 13:49:55 GMT-0500 (Eastern Standard Time),264759.09999990463,152_y_f_n_a.png,I,z,890,7,3,1905.8000001907349,262853.2999997139,9024,NNB,B,6
7,test,2,0.0,1-Back,1.0,m,Mon Dec 15 2025 13:49:55 GMT-0500 (Eastern Standard Time),266625.69999980927,153_y_m_n_a.png,I,m,846,8,3,1859.0,264766.69999980927,9024,NNB,B,7
8,test,2,0.0,1-Back,1.0,m,Mon Dec 15 2025 13:49:55 GMT-0500 (Eastern Standard Time),268942.40000009537,110_o_f_n_a.png,I,m,1283,9,3,2308.300000190735,266634.09999990463,9024,NNB,B,8
9,test,2,0.0,1-Back,1.0,m,Mon Dec 15 2025 13:49:55 GMT-0500 (Eastern Standard Time),271192.5,178_m_m_n_a.png,I,m,1222,10,3,2237.0999999046326,268955.40000009537,9024,NNB,B,9
10,test,2,1.0,1-Back,1.0,z,Mon Dec 15 2025 13:49:55 GMT-0500 (Eastern Standard Time),273425.59999990463,178_m_m_n_a.png,I,z,1212,11,3,2224.4000000953674,271201.19999980927,9024,NNB,B,10
11,test,2,0.0,1-Back,1.0,m,Mon Dec 15 2025 13:49:55 GMT-0500 (Eastern Standard Time),275342.19999980927,110_o_f_n_a.png,I,m,899,12,3,1906.9000000953674,273435.2999997139,9024,NNB,B,11
12,test,2,0.0,1-Back,1.0,m,Mon Dec 15 2025 13:49:55 GMT-0500 (Eastern Standard Time),277208.90000009537,086_o_f_n_a.png,I,m,838,13,3,1858.2000002861023,275350.69999980927,9024,NNB,B,12
13,test,2,0.0,1-Back,1.0,m,Mon Dec 15 2025 13:49:55 GMT-0500 (Eastern Standard Time),279242.2999997139,176_o_m_n_a.png,I,m,1003,14,3,2022.7999997138977,277219.5,9024,NNB,B,13
14,test,2,0.0,1-Back,1.0,m,Mon Dec 15 2025 13:49:55 GMT-0500 (Eastern Standard Time),280975.59999990463,065_o_m_n_a.png,I,m,714,15,3,1724.8000001907349,279250.7999997139,9024,NNB,B,14
15,test,2,1.0,1-Back,1.0,z,Mon Dec 15 2025 13:49:55 GMT-0500 (Eastern Standard Time),283208.90000009537,065_o_m_n_a.png,I,z,1188,16,3,2224.7000002861023,280984.19999980927,9024,NNB,B,15
16,test,2,0.0,1-Back,1.0,m,Mon Dec 15 2025 13:49:55 GMT-0500 (Eastern Standard Time),285459.0,013_y_m_n_a.png,I,m,1227,17,3,2241.4000000953674,283217.59999990463,9024,NNB,B,16
17,test,2,1.0,1-Back,1.0,z,Mon Dec 15 2025 13:49:55 GMT-0500 (Eastern Standard Time),287425.69999980927,013_y_m_n_a.png,I,z,929,18,3,1948.5,285477.19999980927,9024,NNB,B,17
0,test,3,1.0,1-Back,,,Mon Dec 15 2025 13:49:55 GMT-0500 (Eastern Standard Time),287425.69999980927,173_y_f_n_a.png,I,space,1867,1,3,1948.5,285477.19999980927,9024,NNB,B,0
1,test,3,0.0,1-Back,1.0,m,Mon Dec 15 2025 13:49:55 GMT-0500 (Eastern Standard Time),293592.40000009537,065_o_m_n_a.png,I,m,1106,1,3,2123.9000000953674,291468.5,9024,NNB,B,1
2,test,3,1.0,1-Back,1.0,z,Mon Dec 15 2025 13:49:55 GMT-0500 (Eastern Standard Time),296309.0,065_o_m_n_a.png,I,z,1692,1,3,2708.4000000953674,293600.59999990463,9024,NNB,B,2
3,test,3,0.0,1-Back,1.0,m,Mon Dec 15 2025 13:49:55 GMT-0500 (Eastern Standard Time),298225.69999980927,097_m_f_n_a.png,I,m,896,1,3,1908.2999997138977,296317.40000009537,9024,NNB,B,3
3,test,3,1.0,1-Back,0.0,z,Mon Dec 15 2025 13:49:55 GMT-0500 (Eastern Standard Time),300875.69999980927,097_m_f_n_a.png,I,m,1620,1,3,2641.5,298234.19999980927,9024,NNB,B,4
4,test,3,0.0,1-Back,1.0,m,Mon Dec 15 2025 13:49:55 GMT-0500 (Eastern Standard Time),302892.2999997139,110_o_f_n_a.png,I,m,984,1,3,2007.8999996185303,300884.40000009537,9024,NNB,B,5
5,test,3,0.0,1-Back,1.0,m,Mon Dec 15 2025 13:49:55 GMT-0500 (Eastern Standard Time),305275.69999980927,153_y_m_n_a.png,I,m,1336,1,3,2373.0,302902.69999980927,9024,NNB,B,6
5,test,3,0.0,1-Back,0.0,m,Mon Dec 15 2025 13:49:55 GMT-0500 (Eastern Standard Time),308309.09999990463,110_o_f_n_a.png,I,None,2016,1,3,3024.0999999046326,305285.0,9024,NNB,B,7
6,test,3,0.0,1-Back,1.0,m,Mon Dec 15 2025 13:49:55 GMT-0500 (Eastern Standard Time),310458.90000009537,013_y_m_n_a.png,I,m,1120,1,3,2137.7000002861023,308321.19999980927,9024,NNB,B,8
7,test,3,1.0,1-Back,1.0,z,Mon Dec 15 2025 13:49:55 GMT-0500 (Eastern Standard Time),312375.69999980927,013_y_m_n_a.png,I,z,890,1,3,1908.5,310467.19999980927,9024,NNB,B,9
8,test,3,0.0,1-Back,1.0,m,Mon Dec 15 2025 13:49:55 GMT-0500 (Eastern Standard Time),314692.2999997139,029_m_f_n_a.png,I,m,1293,1,3,2308.3999996185303,312383.90000009537,9024,NNB,B,10
9,test,3,0.0,1-Back,1.0,m,Mon Dec 15 2025 13:49:55 GMT-0500 (Eastern Standard Time),316992.09999990463,152_y_f_n_a.png,I,m,1280,1,3,2291.300000190735,314700.7999997139,9024,NNB,B,11
10,test,3,1.0,1-Back,1.0,z,Mon Dec 15 2025 13:49:55 GMT-0500 (Eastern Standard Time),319342.2999997139,152_y_f_n_a.png,I,z,1332,1,3,2340.0,317002.2999997139,9024,NNB,B,12
11,test,3,0.0,1-Back,1.0,m,Mon Dec 15 2025 13:49:55 GMT-0500 (Eastern Standard Time),321508.90000009537,029_m_f_n_a.png,I,m,1142,1,3,2158.800000190735,319350.09999990463,9024,NNB,B,13
12,test,3,0.0,1-Back,1.0,m,Mon Dec 15 2025 13:49:55 GMT-0500 (Eastern Standard Time),324409.0,126_m_m_n_a.png,I,m,1871,1,3,2890.5999999046326,321518.40000009537,9024,NNB,B,14
13,test,3,1.0,1-Back,1.0,z,Mon Dec 15 2025 13:49:55 GMT-0500 (Eastern Standard Time),326592.09999990463,126_m_m_n_a.png,I,z,1164,1,3,2174.699999809265,324417.40000009537,9024,NNB,B,15
14,test,3,0.0,1-Back,1.0,m,Mon Dec 15 2025 13:49:55 GMT-0500 (Eastern Standard Time),328458.7999997139,086_o_f_n_a.png,I,m,836,1,3,1856.2999997138977,326602.5,9024,NNB,B,16
15,test,3,1.0,1-Back,1.0,z,Mon Dec 15 2025 13:49:55 GMT-0500 (Eastern Standard Time),330809.0,086_o_f_n_a.png,I,z,1322,1,3,2339.5999999046326,328469.40000009537,9024,NNB,B,17
0,test,4,1.0,1-Back,,,Mon Dec 15 2025 13:49:55 GMT-0500 (Eastern Standard Time),330809.0,097_m_f_n_a.png,I,space,2004,1,3,2339.5999999046326,328469.40000009537,9024,NNB,B,0
1,test,4,0.0,1-Back,1.0,m,Mon Dec 15 2025 13:49:55 GMT-0500 (Eastern Standard Time),336809.0,065_o_m_n_a.png,I,m,788,2,3,1807.0999999046326,335001.90000009537,9024,NNB,B,1
2,test,4,0.0,1-Back,1.0,m,Mon Dec 15 2025 13:49:55 GMT-0500 (Eastern Standard Time),339375.5,097_m_f_n_a.png,I,m,1531,3,3,2556.5,336819.0,9024,NNB,B,2
3,test,4,0.0,1-Back,1.0,m,Mon Dec 15 2025 13:49:55 GMT-0500 (Eastern Standard Time),341475.5,110_o_f_n_a.png,I,m,1077,4,3,2092.0,339383.5,9024,NNB,B,3
4,test,4,1.0,1-Back,1.0,z,Mon Dec 15 2025 13:49:55 GMT-0500 (Eastern Standard Time),343492.19999980927,110_o_f_n_a.png,I,z,993,5,3,2004.0999999046326,341488.09999990463,9024,NNB,B,4
5,test,4,0.0,1-Back,1.0,m,Mon Dec 15 2025 13:49:55 GMT-0500 (Eastern Standard Time),346075.5,152_y_f_n_a.png,I,m,1552,6,3,2573.7000002861023,343501.7999997139,9024,NNB,B,5
6,test,4,0.0,1-Back,1.0,m,Mon Dec 15 2025 13:49:55 GMT-0500 (Eastern Standard Time),348392.19999980927,153_y_m_n_a.png,I,m,1289,7,3,2308.2999997138977,346083.90000009537,9024,NNB,B,6
6,test,4,1.0,1-Back,0.0,z,Mon Dec 15 2025 13:49:55 GMT-0500 (Eastern Standard Time),351425.69999980927,153_y_m_n_a.png,I,None,2015,8,3,3025.5999999046326,348400.09999990463,9024,NNB,B,7
7,test,4,0.0,1-Back,1.0,m,Mon Dec 15 2025 13:49:55 GMT-0500 (Eastern Standard Time),353325.59999990463,152_y_f_n_a.png,I,m,867,9,3,1891.0999999046326,351434.5,9024,NNB,B,8
8,test,4,0.0,1-Back,1.0,m,Mon Dec 15 2025 13:49:55 GMT-0500 (Eastern Standard Time),355625.5,178_m_m_n_a.png,I,m,1271,10,3,2288.5,353337.0,9024,NNB,B,9
9,test,4,1.0,1-Back,1.0,z,Mon Dec 15 2025 13:49:55 GMT-0500 (Eastern Standard Time),357442.2999997139,178_m_m_n_a.png,I,z,795,11,3,1808.2999997138977,355634.0,9024,NNB,B,10
10,test,4,0.0,1-Back,1.0,m,Mon Dec 15 2025 13:49:55 GMT-0500 (Eastern Standard Time),359342.19999980927,086_o_f_n_a.png,I,m,882,12,3,1891.0999999046326,357451.09999990463,9024,NNB,B,11
11,test,4,0.0,1-Back,1.0,m,Mon Dec 15 2025 13:49:55 GMT-0500 (Eastern Standard Time),361358.69999980927,176_o_m_n_a.png,I,m,997,13,3,2009.2999997138977,359349.40000009537,9024,NNB,B,12
12,test,4,0.0,1-Back,1.0,m,Mon Dec 15 2025 13:49:55 GMT-0500 (Eastern Standard Time),363292.19999980927,086_o_f_n_a.png,I,m,902,14,3,1923.7999997138977,361368.40000009537,9024,NNB,B,13
13,test,4,0.0,1-Back,1.0,m,Mon Dec 15 2025 13:49:55 GMT-0500 (Eastern Standard Time),365575.5,173_y_f_n_a.png,I,m,1256,15,3,2274.2000002861023,363301.2999997139,9024,NNB,B,14
14,test,4,1.0,1-Back,1.0,z,Mon Dec 15 2025 13:49:55 GMT-0500 (Eastern Standard Time),368192.09999990463,173_y_f_n_a.png,I,z,1597,16,3,2607.9000000953674,365584.19999980927,9024,NNB,B,15
15,test,4,0.0,1-Back,1.0,m,Mon Dec 15 2025 13:49:55 GMT-0500 (Eastern Standard Time),369975.59999990463,029_m_f_n_a.png,I,m,756,17,3,1775.0,368200.59999990463,9024,NNB,B,16
15,test,4,1.0,1-Back,0.0,z,Mon Dec 15 2025 13:49:55 GMT-0500 (Eastern Standard Time),372192.2999997139,029_m_f_n_a.png,I,m,1197,18,3,2203.699999809265,369988.59999990463,9024,NNB,B,17
0,test,5,1.0,1-Back,,,Mon Dec 15 2025 13:49:55 GMT-0500 (Eastern Standard Time),372192.2999997139,176_o_m_n_a.png,I,space,1788,1,3,2203.699999809265,369988.59999990463,9024,NNB,B,0
0,test,5,1.0,1-Back,0.0,z,Mon Dec 15 2025 13:49:55 GMT-0500 (Eastern Standard Time),378175.40000009537,176_o_m_n_a.png,I,m,1148,2,3,2156.2000002861023,376019.19999980927,9024,NNB,B,1
1,test,5,0.0,1-Back,1.0,m,Mon Dec 15 2025 13:49:55 GMT-0500 (Eastern Standard Time),380058.59999990463,152_y_f_n_a.png,I,m,852,3,3,1873.6999998092651,378184.90000009537,9024,NNB,B,2
2,test,5,0.0,1-Back,1.0,m,Mon Dec 15 2025 13:49:55 GMT-0500 (Eastern Standard Time),382075.59999990463,153_y_m_n_a.png,I,m,986,4,3,2007.0999999046326,380068.5,9024,NNB,B,3
2,test,5,0.0,1-Back,0.0,m,Mon Dec 15 2025 13:49:55 GMT-0500 (Eastern Standard Time),384125.19999980927,152_y_f_n_a.png,I,z,1016,5,3,2041.0,382084.19999980927,9024,NNB,B,4
3,test,5,0.0,1-Back,1.0,m,Mon Dec 15 2025 13:49:55 GMT-0500 (Eastern Standard Time),386142.40000009537,126_m_m_n_a.png,I,m,999,6,3,2010.7000002861023,384131.69999980927,9024,NNB,B,5
3,test,5,1.0,1-Back,0.0,z,Mon Dec 15 2025 13:49:55 GMT-0500 (Eastern Standard Time),388925.59999990463,126_m_m_n_a.png,I,m,1751,7,3,2774.0999999046326,386151.5,9024,NNB,B,6
4,test,5,0.0,1-Back,1.0,m,Mon Dec 15 2025 13:49:55 GMT-0500 (Eastern Standard Time),391425.5,173_y_f_n_a.png,I,m,1479,8,3,2491.300000190735,388934.19999980927,9024,NNB,B,7
5,test,5,0.0,1-Back,1.0,m,Mon Dec 15 2025 13:49:55 GMT-0500 (Eastern Standard Time),393475.19999980927,013_y_m_n_a.png,I,m,1026,9,3,2041.6999998092651,391433.5,9024,NNB,B,8
6,test,5,0.0,1-Back,1.0,m,Mon Dec 15 2025 13:49:55 GMT-0500 (Eastern Standard Time),395475.09999990463,173_y_f_n_a.png,I,m,976,10,3,1994.4000000953674,393480.69999980927,9024,NNB,B,9
7,test,5,0.0,1-Back,1.0,m,Mon Dec 15 2025 13:49:55 GMT-0500 (Eastern Standard Time),397158.90000009537,086_o_f_n_a.png,I,m,657,11,3,1677.5,395481.40000009537,9024,NNB,B,10
8,test,5,1.0,1-Back,1.0,z,Mon Dec 15 2025 13:49:55 GMT-0500 (Eastern Standard Time),399192.19999980927,086_o_f_n_a.png,I,z,1006,12,3,2022.9000000953674,397169.2999997139,9024,NNB,B,11
9,test,5,0.0,1-Back,1.0,m,Mon Dec 15 2025 13:49:55 GMT-0500 (Eastern Standard Time),401225.19999980927,065_o_m_n_a.png,I,m,1004,13,3,2025.1999998092651,399200.0,9024,NNB,B,12
10,test,5,0.0,1-Back,1.0,m,Mon Dec 15 2025 13:49:55 GMT-0500 (Eastern Standard Time),402942.19999980927,097_m_f_n_a.png,I,m,683,14,3,1712.6999998092651,401229.5,9024,NNB,B,13
11,test,5,1.0,1-Back,1.0,z,Mon Dec 15 2025 13:49:55 GMT-0500 (Eastern Standard Time),404758.90000009537,097_m_f_n_a.png,I,z,791,15,3,1808.7000002861023,402950.19999980927,9024,NNB,B,14
12,test,5,0.0,1-Back,1.0,m,Mon Dec 15 2025 13:49:55 GMT-0500 (Eastern Standard Time),406625.59999990463,065_o_m_n_a.png,I,m,845,16,3,1858.5,404767.09999990463,9024,NNB,B,15
13,test,5,0.0,1-Back,1.0,m,Mon Dec 15 2025 13:49:55 GMT-0500 (Eastern Standard Time),408392.2999997139,029_m_f_n_a.png,I,m,721,17,3,1749.7999997138977,406642.5,9024,NNB,B,16
14,test,5,0.0,1-Back,1.0,m,Mon Dec 15 2025 13:49:55 GMT-0500 (Eastern Standard Time),410642.09999990463,178_m_m_n_a.png,I,m,1229,18,3,2240.5,408401.59999990463,9024,NNB,B,17
0,prac,1,0.0,2-Back,,,Mon Dec 15 2025 13:49:55 GMT-0500 (Eastern Standard Time),410642.09999990463,013_y_m_n_a.png,I,space,17715,1,3,2240.5,408401.59999990463,9024,NNB,B,0
0,prac,1,0.0,2-Back,,,Mon Dec 15 2025 13:49:55 GMT-0500 (Eastern Standard Time),410642.09999990463,029_m_f_n_a.png,I,space,17715,2,3,2240.5,408401.59999990463,9024,NNB,B,0
1,prac,1,1.0,2-Back,1.0,m,Mon Dec 15 2025 13:49:55 GMT-0500 (Eastern Standard Time),536459.0,065_o_m_n_a.png,I,m,1130,3,3,2052.5,534406.5,9024,NNB,B,1
2,prac,1,0.0,2-Back,1.0,m,Mon Dec 15 2025 13:49:55 GMT-0500 (Eastern Standard Time),539108.9000000954,086_o_f_n_a.png,I,m,1703,4,3,2637.4000000953674,536471.5,9024,NNB,B,2
2,prac,1,0.0,2-Back,0.0,z,Mon Dec 15 2025 13:49:55 GMT-0500 (Eastern Standard Time),541892.0,065_o_m_n_a.png,I,None,2001,5,3,2767.9000000953674,539124.0999999046,9024,NNB,B,3
2,prac,1,1.0,2-Back,0.0,z,Mon Dec 15 2025 13:49:55 GMT-0500 (Eastern Standard Time),543992.0999999046,086_o_f_n_a.png,I,m,1309,6,3,2087.9000000953674,541904.1999998093,9024,NNB,B,4
3,prac,1,0.0,2-Back,1.0,m,Mon Dec 15 2025 13:49:55 GMT-0500 (Eastern Standard Time),546108.7999997139,178_m_m_n_a.png,I,m,1173,7,3,2102.8999996185303,544005.9000000954,9024,NNB,B,5
4,prac,1,0.0,2-Back,1.0,m,Mon Dec 15 2025 13:49:55 GMT-0500 (Eastern Standard Time),548108.9000000954,176_o_m_n_a.png,I,m,1064,8,3,1987.3000001907349,546121.5999999046,9024,NNB,B,6
5,prac,1,0.0,2-Back,1.0,m,Mon Dec 15 2025 13:49:55 GMT-0500 (Eastern Standard Time),550275.0999999046,173_y_f_n_a.png,I,m,1245,9,3,2154.0,548121.0999999046,9024,NNB,B,7
6,prac,1,1.0,2-Back,1.0,z,Mon Dec 15 2025 13:49:55 GMT-0500 (Eastern Standard Time),552542.0999999046,176_o_m_n_a.png,I,z,1490,10,3,2258.5999999046326,550283.5,9024,NNB,B,8
7,prac,1,0.0,2-Back,1.0,m,Mon Dec 15 2025 13:49:55 GMT-0500 (Eastern Standard Time),554492.1999998093,152_y_f_n_a.png,I,m,1019,11,3,1935.9000000953674,552556.2999997139,9024,NNB,B,9
8,prac,1,0.0,2-Back,1.0,m,Mon Dec 15 2025 13:49:55 GMT-0500 (Eastern Standard Time),556791.6999998093,178_m_m_n_a.png,I,m,1506,12,3,2285.5999999046326,554506.0999999046,9024,NNB,B,10
0,test,1,0.0,2-Back,,,Mon Dec 15 2025 13:49:55 GMT-0500 (Eastern Standard Time),556791.6999998093,153_y_m_n_a.png,I,space,12884,1,3,2285.5999999046326,554506.0999999046,9024,NNB,B,0
0,test,1,0.0,2-Back,,,Mon Dec 15 2025 13:49:55 GMT-0500 (Eastern Standard Time),556791.6999998093,153_y_m_n_a.png,I,space,12884,2,3,2285.5999999046326,554506.0999999046,9024,NNB,B,0
1,test,1,0.0,2-Back,1.0,m,Mon Dec 15 2025 13:49:55 GMT-0500 (Eastern Standard Time),581259.2999997139,086_o_f_n_a.png,I,m,1119,3,3,2140.5999999046326,579118.6999998093,9024,NNB,B,1
2,test,1,0.0,2-Back,1.0,m,Mon Dec 15 2025 13:49:55 GMT-0500 (Eastern Standard Time),583742.0,126_m_m_n_a.png,I,m,1450,4,3,2478.4000000953674,581263.5999999046,9024,NNB,B,2
3,test,1,1.0,2-Back,1.0,z,Mon Dec 15 2025 13:49:55 GMT-0500 (Eastern Standard Time),585725.2999997139,086_o_f_n_a.png,I,z,951,5,3,1975.1999998092651,583750.0999999046,9024,NNB,B,3
4,test,1,0.0,2-Back,1.0,m,Mon Dec 15 2025 13:49:55 GMT-0500 (Eastern Standard Time),587958.5999999046,152_y_f_n_a.png,I,m,1206,6,3,2224.800000190735,585733.7999997139,9024,NNB,B,4
4,test,1,0.0,2-Back,0.0,m,Mon Dec 15 2025 13:49:55 GMT-0500 (Eastern Standard Time),589842.0,126_m_m_n_a.png,I,z,861,7,3,1874.4000000953674,587967.5999999046,9024,NNB,B,5
4,test,1,1.0,2-Back,0.0,z,Mon Dec 15 2025 13:49:55 GMT-0500 (Eastern Standard Time),592875.5,152_y_f_n_a.png,I,None,2016,8,3,3022.300000190735,589853.1999998093,9024,NNB,B,6
5,test,1,0.0,2-Back,1.0,m,Mon Dec 15 2025 13:49:55 GMT-0500 (Eastern Standard Time),595242.0999999046,013_y_m_n_a.png,I,m,1337,9,3,2358.4000000953674,592883.6999998093,9024,NNB,B,7
6,test,1,0.0,2-Back,1.0,m,Mon Dec 15 2025 13:49:55 GMT-0500 (Eastern Standard Time),598058.6999998093,110_o_f_n_a.png,I,m,1786,10,3,2807.5,595251.1999998093,9024,NNB,B,8
7,test,1,1.0,2-Back,1.0,z,Mon Dec 15 2025 13:49:55 GMT-0500 (Eastern Standard Time),599992.0,013_y_m_n_a.png,I,z,905,11,3,1925.0,598067.0,9024,NNB,B,9
8,test,1,0.0,2-Back,1.0,m,Mon Dec 15 2025 13:49:55 GMT-0500 (Eastern Standard Time),601842.0,029_m_f_n_a.png,I,m,827,12,3,1840.7000002861023,600001.2999997139,9024,NNB,B,10
9,test,1,0.0,2-Back,1.0,m,Mon Dec 15 2025 13:49:55 GMT-0500 (Eastern Standard Time),604191.9000000954,029_m_f_n_a.png,I,m,1330,13,3,2342.0,601849.9000000954,9024,NNB,B,11
10,test,1,0.0,2-Back,1.0,m,Mon Dec 15 2025 13:49:55 GMT-0500 (Eastern Standard Time),606224.9000000954,065_o_m_n_a.png,I,m,1012,14,3,2021.9000000953674,604203.0,9024,NNB,B,12
11,test,1,0.0,2-Back,1.0,m,Mon Dec 15 2025 13:49:55 GMT-0500 (Eastern Standard Time),608142.0,110_o_f_n_a.png,I,m,880,15,3,1912.8000001907349,606229.1999998093,9024,NNB,B,13
11,test,1,1.0,2-Back,0.0,z,Mon Dec 15 2025 13:49:55 GMT-0500 (Eastern Standard Time),610358.6999998093,065_o_m_n_a.png,I,m,1190,16,3,2207.699999809265,608151.0,9024,NNB,B,14
11,test,1,0.0,2-Back,0.0,m,Mon Dec 15 2025 13:49:55 GMT-0500 (Eastern Standard Time),612208.5999999046,097_m_f_n_a.png,I,z,829,17,3,1841.0999999046326,610367.5,9024,NNB,B,15
12,test,1,0.0,2-Back,1.0,m,Mon Dec 15 2025 13:49:55 GMT-0500 (Eastern Standard Time),614125.2999997139,178_m_m_n_a.png,I,m,883,18,3,1907.6999998092651,612217.5999999046,9024,NNB,B,16
0,test,2,0.0,2-Back,,,Mon Dec 15 2025 13:49:55 GMT-0500 (Eastern Standard Time),614125.2999997139,178_m_m_n_a.png,I,space,2254,1,3,1907.6999998092651,612217.5999999046,9024,NNB,B,0
0,test,2,0.0,2-Back,,,Mon Dec 15 2025 13:49:55 GMT-0500 (Eastern Standard Time),614125.2999997139,173_y_f_n_a.png,I,space,2254,2,3,1907.6999998092651,612217.5999999046,9024,NNB,B,0
1,test,2,1.0,2-Back,1.0,z,Mon Dec 15 2025 13:49:55 GMT-0500 (Eastern Standard Time),624308.5999999046,178_m_m_n_a.png,I,z,1710,3,3,2729.0999999046326,621579.5,9024,NNB,B,1
2,test,2,0.0,2-Back,1.0,m,Mon Dec 15 2025 13:49:55 GMT-0500 (Eastern Standard Time),626225.2999997139,097_m_f_n_a.png,I,m,896,4,3,1908.5999999046326,624316.6999998093,9024,NNB,B,2
3,test,2,0.0,2-Back,1.0,m,Mon Dec 15 2025 13:49:55 GMT-0500 (Eastern Standard Time),628358.6999998093,173_y_f_n_a.png,I,m,1106,5,3,2121.5,626237.1999998093,9024,NNB,B,3
4,test,2,0.0,2-Back,1.0,m,Mon Dec 15 2025 13:49:55 GMT-0500 (Eastern Standard Time),630191.7999997139,065_o_m_n_a.png,I,m,813,6,3,1825.0999999046326,628366.6999998093,9024,NNB,B,4
5,test,2,0.0,2-Back,1.0,m,Mon Dec 15 2025 13:49:55 GMT-0500 (Eastern Standard Time),632041.9000000954,152_y_f_n_a.png,I,m,820,7,3,1840.9000000953674,630201.0,9024,NNB,B,5
6,test,2,1.0,2-Back,1.0,z,Mon Dec 15 2025 13:49:55 GMT-0500 (Eastern Standard Time),634208.5999999046,065_o_m_n_a.png,I,z,1146,8,3,2159.199999809265,632049.4000000954,9024,NNB,B,6
7,test,2,0.0,2-Back,1.0,m,Mon Dec 15 2025 13:49:55 GMT-0500 (Eastern Standard Time),636175.1999998093,013_y_m_n_a.png,I,m,948,9,3,1958.2999997138977,634216.9000000954,9024,NNB,B,7
8,test,2,0.0,2-Back,1.0,m,Mon Dec 15 2025 13:49:55 GMT-0500 (Eastern Standard Time),638991.7999997139,013_y_m_n_a.png,I,m,1796,10,3,2808.2999997138977,636183.5,9024,NNB,B,8
9,test,2,0.0,2-Back,1.0,m,Mon Dec 15 2025 13:49:55 GMT-0500 (Eastern Standard Time),640825.1999998093,029_m_f_n_a.png,I,m,804,11,3,1827.4000000953674,638997.7999997139,9024,NNB,B,9
10,test,2,0.0,2-Back,1.0,m,Mon Dec 15 2025 13:49:55 GMT-0500 (Eastern Standard Time),643058.5,173_y_f_n_a.png,I,m,1210,12,3,2224.5999999046326,640833.9000000954,9024,NNB,B,10
10,test,2,1.0,2-Back,0.0,z,Mon Dec 15 2025 13:49:55 GMT-0500 (Eastern Standard Time),645275.1999998093,029_m_f_n_a.png,I,m,1185,13,3,2208.199999809265,643067.0,9024,NNB,B,11
10,test,2,0.0,2-Back,0.0,m,Mon Dec 15 2025 13:49:55 GMT-0500 (Eastern Standard Time),648308.9000000954,176_o_m_n_a.png,I,None,2016,14,3,3025.6000003814697,645283.2999997139,9024,NNB,B,12
11,test,2,0.0,2-Back,1.0,m,Mon Dec 15 2025 13:49:55 GMT-0500 (Eastern Standard Time),650208.5,176_o_m_n_a.png,I,m,880,15,3,1888.2000002861023,648320.2999997139,9024,NNB,B,13
12,test,2,0.0,2-Back,1.0,m,Mon Dec 15 2025 13:49:55 GMT-0500 (Eastern Standard Time),652058.6999998093,110_o_f_n_a.png,I,m,819,16,3,1841.0999999046326,650217.5999999046,9024,NNB,B,14
13,test,2,0.0,2-Back,1.0,m,Mon Dec 15 2025 13:49:55 GMT-0500 (Eastern Standard Time),653858.5999999046,126_m_m_n_a.png,I,m,777,17,3,1790.9000000953674,652067.6999998093,9024,NNB,B,15
14,test,2,1.0,2-Back,1.0,z,Mon Dec 15 2025 13:49:55 GMT-0500 (Eastern Standard Time),655825.1999998093,110_o_f_n_a.png,I,z,945,18,3,1958.7999997138977,653866.4000000954,9024,NNB,B,16
0,test,3,1.0,2-Back,,,Mon Dec 15 2025 13:49:55 GMT-0500 (Eastern Standard Time),655825.1999998093,153_y_m_n_a.png,I,space,1882,1,3,1958.7999997138977,653866.4000000954,9024,NNB,B,0
0,test,3,1.0,2-Back,,,Mon Dec 15 2025 13:49:55 GMT-0500 (Eastern Standard Time),655825.1999998093,153_y_m_n_a.png,I,space,1882,2,3,1958.7999997138977,653866.4000000954,9024,NNB,B,0
1,test,3,0.0,2-Back,1.0,m,Mon Dec 15 2025 13:49:55 GMT-0500 (Eastern Standard Time),665425.2999997139,110_o_f_n_a.png,I,m,1496,3,3,2507.199999809265,662918.0999999046,9024,NNB,B,1
2,test,3,0.0,2-Back,1.0,m,Mon Dec 15 2025 13:49:55 GMT-0500 (Eastern Standard Time),667542.0,178_m_m_n_a.png,I,m,1090,4,3,2108.7000002861023,665433.2999997139,9024,NNB,B,2
3,test,3,1.0,2-Back,1.0,z,Mon Dec 15 2025 13:49:55 GMT-0500 (Eastern Standard Time),669608.5999999046,110_o_f_n_a.png,I,z,1039,5,3,2058.0,667550.5999999046,9024,NNB,B,3
4,test,3,0.0,2-Back,1.0,m,Mon Dec 15 2025 13:49:55 GMT-0500 (Eastern Standard Time),671591.9000000954,013_y_m_n_a.png,I,m,955,6,3,1975.2000002861023,669616.6999998093,9024,NNB,B,4
4,test,3,0.0,2-Back,0.0,m,Mon Dec 15 2025 13:49:55 GMT-0500 (Eastern Standard Time),673558.6999998093,178_m_m_n_a.png,I,z,940,7,3,1958.5,671600.1999998093,9024,NNB,B,5
4,test,3,1.0,2-Back,0.0,z,Mon Dec 15 2025 13:49:55 GMT-0500 (Eastern Standard Time),675725.2999997139,013_y_m_n_a.png,I,m,1134,8,3,2156.0,673569.2999997139,9024,NNB,B,6
5,test,3,0.0,2-Back,1.0,m,Mon Dec 15 2025 13:49:55 GMT-0500 (Eastern Standard Time),678058.5999999046,173_y_f_n_a.png,I,m,1302,9,3,2323.5,675735.0999999046,9024,NNB,B,7
5,test,3,0.0,2-Back,0.0,m,Mon Dec 15 2025 13:49:55 GMT-0500 (Eastern Standard Time),680458.5,126_m_m_n_a.png,I,z,1369,10,3,2391.800000190735,678066.6999998093,9024,NNB,B,8
5,test,3,1.0,2-Back,0.0,z,Mon Dec 15 2025 13:49:55 GMT-0500 (Eastern Standard Time),683492.0999999046,173_y_f_n_a.png,I,None,2016,11,3,3026.0999999046326,680466.0,9024,NNB,B,9
5,test,3,1.0,2-Back,0.0,z,Mon Dec 15 2025 13:49:55 GMT-0500 (Eastern Standard Time),686525.4000000954,126_m_m_n_a.png,I,None,2016,12,3,3025.5,683499.9000000954,9024,NNB,B,10
6,test,3,0.0,2-Back,1.0,m,Mon Dec 15 2025 13:49:55 GMT-0500 (Eastern Standard Time),688541.7999997139,110_o_f_n_a.png,I,m,999,13,3,2008.0999999046326,686533.6999998093,9024,NNB,B,11
7,test,3,0.0,2-Back,1.0,m,Mon Dec 15 2025 13:49:55 GMT-0500 (Eastern Standard Time),690525.1999998093,097_m_f_n_a.png,I,m,950,14,3,1975.5,688549.6999998093,9024,NNB,B,12
8,test,3,0.0,2-Back,1.0,m,Mon Dec 15 2025 13:49:55 GMT-0500 (Eastern Standard Time),692325.1999998093,065_o_m_n_a.png,I,m,774,15,3,1791.0999999046326,690534.0999999046,9024,NNB,B,13
8,test,3,1.0,2-Back,0.0,z,Mon Dec 15 2025 13:49:55 GMT-0500 (Eastern Standard Time),694675.1999998093,097_m_f_n_a.png,I,m,1326,16,3,2341.699999809265,692333.5,9024,NNB,B,14
9,test,3,0.0,2-Back,1.0,m,Mon Dec 15 2025 13:49:55 GMT-0500 (Eastern Standard Time),696508.5,086_o_f_n_a.png,I,m,800,17,3,1825.3000001907349,694683.1999998093,9024,NNB,B,15
9,test,3,0.0,2-Back,0.0,m,Mon Dec 15 2025 13:49:55 GMT-0500 (Eastern Standard Time),698408.5,086_o_f_n_a.png,I,z,872,18,3,1892.0,696516.5,9024,NNB,B,16
0,test,4,0.0,2-Back,,,Mon Dec 15 2025 13:49:55 GMT-0500 (Eastern Standard Time),698408.5,176_o_m_n_a.png,I,space,2083,1,3,1892.0,696516.5,9024,NNB,B,0
0,test,4,0.0,2-Back,,,Mon Dec 15 2025 13:49:55 GMT-0500 (Eastern Standard Time),698408.5,152_y_f_n_a.png,I,space,2083,2,3,1892.0,696516.5,9024,NNB,B,0
0,test,4,1.0,2-Back,0.0,z,Mon Dec 15 2025 13:49:55 GMT-0500 (Eastern Standard Time),708758.5,176_o_m_n_a.png,I,m,1841,3,3,2867.2000002861023,705891.2999997139,9024,NNB,B,1
0,test,4,1.0,2-Back,0.0,z,Mon Dec 15 2025 13:49:55 GMT-0500 (Eastern Standard Time),710458.5,152_y_f_n_a.png,I,m,670,4,3,1691.7000002861023,708766.7999997139,9024,NNB,B,2
1,test,4,0.0,2-Back,1.0,m,Mon Dec 15 2025 13:49:55 GMT-0500 (Eastern Standard Time),712125.1999998093,110_o_f_n_a.png,I,m,633,5,3,1658.5999999046326,710466.5999999046,9024,NNB,B,3
1,test,4,0.0,2-Back,0.0,m,Mon Dec 15 2025 13:49:55 GMT-0500 (Eastern Standard Time),713991.9000000954,110_o_f_n_a.png,I,z,822,6,3,1835.6000003814697,712156.2999997139,9024,NNB,B,4
2,test,4,0.0,2-Back,1.0,m,Mon Dec 15 2025 13:49:55 GMT-0500 (Eastern Standard Time),715691.7999997139,029_m_f_n_a.png,I,m,668,7,3,1691.1999998092651,714000.5999999046,9024,NNB,B,5
3,test,4,0.0,2-Back,1.0,m,Mon Dec 15 2025 13:49:55 GMT-0500 (Eastern Standard Time),717341.9000000954,013_y_m_n_a.png,I,m,632,8,3,1640.6000003814697,715701.2999997139,9024,NNB,B,6
4,test,4,1.0,2-Back,1.0,z,Mon Dec 15 2025 13:49:55 GMT-0500 (Eastern Standard Time),719391.6999998093,029_m_f_n_a.png,I,z,1031,9,3,2040.7999997138977,717350.9000000954,9024,NNB,B,7
5,test,4,0.0,2-Back,1.0,m,Mon Dec 15 2025 13:49:55 GMT-0500 (Eastern Standard Time),722241.7999997139,126_m_m_n_a.png,I,m,1031,10,3,2837.699999809265,719404.0999999046,9024,NNB,B,8
6,test,4,0.0,2-Back,1.0,m,Mon Dec 15 2025 13:49:55 GMT-0500 (Eastern Standard Time),724475.0999999046,013_y_m_n_a.png,I,m,1161,11,3,2184.5999999046326,722290.5,9024,NNB,B,9
7,test,4,0.0,2-Back,1.0,m,Mon Dec 15 2025 13:49:55 GMT-0500 (Eastern Standard Time),726408.5,086_o_f_n_a.png,I,m,904,12,3,1929.5999999046326,724478.9000000954,9024,NNB,B,10
8,test,4,0.0,2-Back,1.0,m,Mon Dec 15 2025 13:49:55 GMT-0500 (Eastern Standard Time),728425.0999999046,153_y_m_n_a.png,I,m,987,13,3,2006.0999999046326,726419.0,9024,NNB,B,11
9,test,4,1.0,2-Back,1.0,z,Mon Dec 15 2025 13:49:55 GMT-0500 (Eastern Standard Time),730958.4000000954,086_o_f_n_a.png,I,z,1516,14,3,2524.2000002861023,728434.1999998093,9024,NNB,B,12
9,test,4,1.0,2-Back,0.0,z,Mon Dec 15 2025 13:49:55 GMT-0500 (Eastern Standard Time),732708.5,153_y_m_n_a.png,I,m,725,15,3,1742.5999999046326,730965.9000000954,9024,NNB,B,13
10,test,4,0.0,2-Back,1.0,m,Mon Dec 15 2025 13:49:55 GMT-0500 (Eastern Standard Time),734641.7999997139,178_m_m_n_a.png,I,m,911,16,3,1923.5999999046326,732718.1999998093,9024,NNB,B,14
11,test,4,0.0,2-Back,1.0,m,Mon Dec 15 2025 13:49:55 GMT-0500 (Eastern Standard Time),737225.0999999046,097_m_f_n_a.png,I,m,1554,17,3,2575.199999809265,734649.9000000954,9024,NNB,B,15
12,test,4,1.0,2-Back,1.0,z,Mon Dec 15 2025 13:49:55 GMT-0500 (Eastern Standard Time),739308.5,178_m_m_n_a.png,I,z,1051,18,3,2073.5999999046326,737234.9000000954,9024,NNB,B,16
0,test,5,1.0,2-Back,,,Mon Dec 15 2025 13:49:55 GMT-0500 (Eastern Standard Time),739308.5,153_y_m_n_a.png,I,space,3216,1,3,2073.5999999046326,737234.9000000954,9024,NNB,B,0
0,test,5,1.0,2-Back,,,Mon Dec 15 2025 13:49:55 GMT-0500 (Eastern Standard Time),739308.5,097_m_f_n_a.png,I,space,3216,2,3,2073.5999999046326,737234.9000000954,9024,NNB,B,0
0,test,5,1.0,2-Back,0.0,z,Mon Dec 15 2025 13:49:55 GMT-0500 (Eastern Standard Time),749557.1999998093,153_y_m_n_a.png,I,m,892,3,3,1955.5999999046326,747601.5999999046,9024,NNB,B,1
1,test,5,1.0,2-Back,1.0,z,Mon Dec 15 2025 13:49:55 GMT-0500 (Eastern Standard Time),751725.5999999046,097_m_f_n_a.png,I,z,1149,4,3,2159.0999999046326,749566.5,9024,NNB,B,2
2,test,5,0.0,2-Back,1.0,m,Mon Dec 15 2025 13:49:55 GMT-0500 (Eastern Standard Time),753775.0,086_o_f_n_a.png,I,m,1031,5,3,2037.5999999046326,751737.4000000954,9024,NNB,B,3
2,test,5,0.0,2-Back,0.0,m,Mon Dec 15 2025 13:49:55 GMT-0500 (Eastern Standard Time),756808.6999998093,153_y_m_n_a.png,I,None,2016,6,3,3025.9000000953674,753782.7999997139,9024,NNB,B,4
2,test,5,0.0,2-Back,0.0,m,Mon Dec 15 2025 13:49:55 GMT-0500 (Eastern Standard Time),759841.9000000954,173_y_f_n_a.png,I,None,2016,7,3,3023.7000002861023,756818.1999998093,9024,NNB,B,5
3,test,5,0.0,2-Back,1.0,m,Mon Dec 15 2025 13:49:55 GMT-0500 (Eastern Standard Time),761675.1999998093,086_o_f_n_a.png,I,m,802,8,3,1826.0999999046326,759849.0999999046,9024,NNB,B,6
4,test,5,1.0,2-Back,1.0,z,Mon Dec 15 2025 13:49:55 GMT-0500 (Eastern Standard Time),763625.0,173_y_f_n_a.png,I,z,921,9,3,1942.0,761683.0,9024,NNB,B,7
5,test,5,0.0,2-Back,1.0,m,Mon Dec 15 2025 13:49:55 GMT-0500 (Eastern Standard Time),765375.0,065_o_m_n_a.png,I,m,731,10,3,1737.9000000953674,763637.0999999046,9024,NNB,B,8
6,test,5,0.0,2-Back,1.0,m,Mon Dec 15 2025 13:49:55 GMT-0500 (Eastern Standard Time),767058.4000000954,029_m_f_n_a.png,I,m,661,11,3,1674.8000001907349,765383.5999999046,9024,NNB,B,9
7,test,5,0.0,2-Back,1.0,m,Mon Dec 15 2025 13:49:55 GMT-0500 (Eastern Standard Time),770075.0,126_m_m_n_a.png,I,m,1985,12,3,3008.300000190735,767066.6999998093,9024,NNB,B,10
8,test,5,0.0,2-Back,1.0,m,Mon Dec 15 2025 13:49:55 GMT-0500 (Eastern Standard Time),771875.0999999046,065_o_m_n_a.png,I,m,778,13,3,1791.8000001907349,770083.2999997139,9024,NNB,B,11
8,test,5,1.0,2-Back,0.0,z,Mon Dec 15 2025 13:49:55 GMT-0500 (Eastern Standard Time),773658.5,126_m_m_n_a.png,I,m,753,14,3,1774.3000001907349,771884.1999998093,9024,NNB,B,12
8,test,5,0.0,2-Back,0.0,m,Mon Dec 15 2025 13:49:55 GMT-0500 (Eastern Standard Time),776691.9000000954,152_y_f_n_a.png,I,None,2016,15,3,3025.1000003814697,773666.7999997139,9024,NNB,B,13
9,test,5,0.0,2-Back,1.0,m,Mon Dec 15 2025 13:49:55 GMT-0500 (Eastern Standard Time),778708.5,176_o_m_n_a.png,I,m,992,16,3,2007.9000000953674,776700.5999999046,9024,NNB,B,14
10,test,5,0.0,2-Back,1.0,m,Mon Dec 15 2025 13:49:55 GMT-0500 (Eastern Standard Time),780541.6999998093,029_m_f_n_a.png,I,m,799,17,3,1825.0,778716.6999998093,9024,NNB,B,15
11,test,5,1.0,2-Back,1.0,z,Mon Dec 15 2025 13:49:55 GMT-0500 (Eastern Standard Time),782341.7999997139,176_o_m_n_a.png,I,z,774,18,3,1791.3999996185303,780550.4000000954,9024,NNB,B,16
