acc_sum,block,block_c,change,condition,correct,correct_response,datetime,endtime,face,project,response,response_time,row_sel,session_number,start_end,starttime,subject_id,task,task_vers,trial
0,prac,1,,1-Back,,,Thu Mar 12 2026 10:37:13 GMT-0500 (Central Daylight Time),,005_o_f_d_a.png,O,space,3408,1,1,,,7769,VNB,B,0
1,prac,1,0.0,1-Back,1.0,m,Thu Mar 12 2026 10:37:13 GMT-0500 (Central Daylight Time),175488.40000000596,020_y_f_n_a.png,O,m,1354,2,1,2198.2000000178814,173290.19999998808,7769,VNB,B,1
2,prac,1,0.0,1-Back,1.0,m,Thu Mar 12 2026 10:37:13 GMT-0500 (Central Daylight Time),177703.19999998808,007_m_m_h_a.png,O,m,1353,3,1,2208.699999988079,175494.5,7769,VNB,B,2
3,prac,1,0.0,1-Back,1.0,m,Thu Mar 12 2026 10:37:13 GMT-0500 (Central Daylight Time),179669.69999998808,016_y_m_d_a.png,O,m,1084,4,1,1952.5999999940395,177717.09999999404,7769,VNB,B,3
4,prac,1,0.0,1-Back,1.0,m,Thu Mar 12 2026 10:37:13 GMT-0500 (Central Daylight Time),181887.5,005_o_f_n_a.png,O,m,1369,5,1,2213.300000011921,179674.19999998808,7769,VNB,B,4
5,prac,1,1.0,1-Back,1.0,z,Thu Mar 12 2026 10:37:13 GMT-0500 (Central Daylight Time),184016.79999998212,016_y_m_n_a.png,O,z,1257,6,1,2119.699999988079,181897.09999999404,7769,VNB,B,5
6,prac,1,0.0,1-Back,1.0,m,Thu Mar 12 2026 10:37:13 GMT-0500 (Central Daylight Time),185984.79999998212,004_o_m_h_a.png,O,m,1112,7,1,1965.0,184019.79999998212,7769,VNB,B,6
7,prac,1,0.0,1-Back,1.0,m,Thu Mar 12 2026 10:37:13 GMT-0500 (Central Daylight Time),188201.40000000596,011_m_f_d_a.png,O,m,1344,8,1,2207.4000000059605,185994.0,7769,VNB,B,7
8,prac,1,1.0,1-Back,1.0,z,Thu Mar 12 2026 10:37:13 GMT-0500 (Central Daylight Time),190567.09999999404,020_y_f_d_a.png,O,z,1508,9,1,2360.199999988079,188206.90000000596,7769,VNB,B,8
9,prac,1,0.0,1-Back,1.0,m,Thu Mar 12 2026 10:37:13 GMT-0500 (Central Daylight Time),192601.19999998808,007_m_m_n_a.png,O,m,1180,10,1,2025.2999999821186,190575.90000000596,7769,VNB,B,9
10,prac,1,0.0,1-Back,1.0,m,Thu Mar 12 2026 10:37:13 GMT-0500 (Central Daylight Time),194664.29999998212,005_o_f_h_a.png,O,m,1218,11,1,2059.5999999940395,192604.69999998808,7769,VNB,B,10
11,prac,1,0.0,1-Back,1.0,m,Thu Mar 12 2026 10:37:13 GMT-0500 (Central Daylight Time),196580.5,016_y_m_d_a.png,O,m,1048,12,1,1906.300000011921,194674.19999998808,7769,VNB,B,11
0,test,1,0.0,1-Back,,,Thu Mar 12 2026 10:37:13 GMT-0500 (Central Daylight Time),196580.5,020_y_f_d_a.png,O,space,5329,1,1,1906.300000011921,194674.19999998808,7769,VNB,B,0
1,test,1,0.0,1-Back,1.0,m,Thu Mar 12 2026 10:37:13 GMT-0500 (Central Daylight Time),213426.79999998212,011_m_f_n_a.png,O,m,1932,2,1,2958.0999999940395,210468.69999998808,7769,VNB,B,1
2,test,1,0.0,1-Back,1.0,m,Thu Mar 12 2026 10:37:13 GMT-0500 (Central Daylight Time),215873.79999998212,004_o_m_h_a.png,O,m,1420,3,1,2443.399999976158,213430.40000000596,7769,VNB,B,2
3,test,1,1.0,1-Back,1.0,z,Thu Mar 12 2026 10:37:13 GMT-0500 (Central Daylight Time),217941.09999999404,007_m_m_h_a.png,O,z,1038,4,1,2061.300000011921,215879.79999998212,7769,VNB,B,3
4,test,1,0.0,1-Back,1.0,m,Thu Mar 12 2026 10:37:13 GMT-0500 (Central Daylight Time),219974.09999999404,005_o_f_n_a.png,O,m,1003,5,1,2030.0,217944.09999999404,7769,VNB,B,4
5,test,1,0.0,1-Back,1.0,m,Thu Mar 12 2026 10:37:13 GMT-0500 (Central Daylight Time),222640.5,016_y_m_d_a.png,O,m,1634,6,1,2653.5,219987.0,7769,VNB,B,5
6,test,1,1.0,1-Back,1.0,z,Thu Mar 12 2026 10:37:13 GMT-0500 (Central Daylight Time),224839.09999999404,011_m_f_d_a.png,O,z,1177,7,1,2195.0,222644.09999999404,7769,VNB,B,6
7,test,1,0.0,1-Back,1.0,m,Thu Mar 12 2026 10:37:13 GMT-0500 (Central Daylight Time),226858.40000000596,020_y_f_h_a.png,O,m,1003,8,1,2012.800000011921,224845.59999999404,7769,VNB,B,7
8,test,1,0.0,1-Back,1.0,m,Thu Mar 12 2026 10:37:13 GMT-0500 (Central Daylight Time),228888.79999998212,004_o_m_n_a.png,O,m,1017,9,1,2027.3999999761581,226861.40000000596,7769,VNB,B,8
9,test,1,0.0,1-Back,1.0,m,Thu Mar 12 2026 10:37:13 GMT-0500 (Central Daylight Time),230853.5,016_y_m_h_a.png,O,m,944,10,1,1954.4000000059605,228899.09999999404,7769,VNB,B,9
10,test,1,0.0,1-Back,1.0,m,Thu Mar 12 2026 10:37:13 GMT-0500 (Central Daylight Time),232819.09999999404,004_o_m_d_a.png,O,m,936,11,1,1962.800000011921,230856.29999998212,7769,VNB,B,10
11,test,1,1.0,1-Back,1.0,z,Thu Mar 12 2026 10:37:13 GMT-0500 (Central Daylight Time),235534.40000000596,005_o_f_d_a.png,O,z,1693,12,1,2707.100000023842,232827.29999998212,7769,VNB,B,11
12,test,1,0.0,1-Back,1.0,m,Thu Mar 12 2026 10:37:13 GMT-0500 (Central Daylight Time),237735.29999998212,007_m_m_n_a.png,O,m,1177,13,1,2198.2999999821186,235537.0,7769,VNB,B,12
13,test,1,1.0,1-Back,1.0,z,Thu Mar 12 2026 10:37:13 GMT-0500 (Central Daylight Time),239883.5,020_y_f_n_a.png,O,z,1122,14,1,2137.5,237746.0,7769,VNB,B,13
14,test,1,0.0,1-Back,1.0,m,Thu Mar 12 2026 10:37:13 GMT-0500 (Central Daylight Time),241849.79999998212,011_m_f_h_a.png,O,m,940,15,1,1961.199999988079,239888.59999999404,7769,VNB,B,14
15,test,1,0.0,1-Back,1.0,m,Thu Mar 12 2026 10:37:13 GMT-0500 (Central Daylight Time),244331.5,007_m_m_d_a.png,O,m,1454,16,1,2473.800000011921,241857.69999998808,7769,VNB,B,15
15,test,1,0.0,1-Back,0.0,m,Thu Mar 12 2026 10:37:13 GMT-0500 (Central Daylight Time),247014.40000000596,016_y_m_n_a.png,O,z,1661,17,1,2678.0,244336.40000000596,7769,VNB,B,16
16,test,1,0.0,1-Back,1.0,m,Thu Mar 12 2026 10:37:13 GMT-0500 (Central Daylight Time),249148.09999999404,005_o_f_h_a.png,O,m,1115,18,1,2123.0999999940395,247025.0,7769,VNB,B,17
0,test,2,0.0,1-Back,,,Thu Mar 12 2026 10:37:13 GMT-0500 (Central Daylight Time),249148.09999999404,016_y_m_n_a.png,O,space,1731,1,1,2123.0999999940395,247025.0,7769,VNB,B,0
1,test,2,0.0,1-Back,1.0,m,Thu Mar 12 2026 10:37:13 GMT-0500 (Central Daylight Time),254845.0,020_y_f_h_a.png,O,m,910,2,1,1921.5,252923.5,7769,VNB,B,1
2,test,2,1.0,1-Back,1.0,m,Thu Mar 12 2026 10:37:13 GMT-0500 (Central Daylight Time),256929.59999999404,004_o_m_n_a.png,O,m,1067,3,1,2082.5999999940395,254847.0,7769,VNB,B,2
3,test,2,0.0,1-Back,1.0,m,Thu Mar 12 2026 10:37:13 GMT-0500 (Central Daylight Time),259277.90000000596,011_m_f_d_a.png,O,m,1318,4,1,2344.0,256933.90000000596,7769,VNB,B,3
4,test,2,0.0,1-Back,1.0,z,Thu Mar 12 2026 10:37:13 GMT-0500 (Central Daylight Time),261546.5,007_m_m_d_a.png,O,z,1252,5,1,2265.2000000178814,259281.29999998212,7769,VNB,B,4
5,test,2,0.0,1-Back,1.0,m,Thu Mar 12 2026 10:37:13 GMT-0500 (Central Daylight Time),263426.40000000596,016_y_m_h_a.png,O,m,857,6,1,1870.1000000238419,261556.29999998212,7769,VNB,B,5
6,test,2,1.0,1-Back,1.0,z,Thu Mar 12 2026 10:37:13 GMT-0500 (Central Daylight Time),265525.0,005_o_f_h_a.png,O,z,1077,7,1,2095.0999999940395,263429.90000000596,7769,VNB,B,6
7,test,2,0.0,1-Back,1.0,m,Thu Mar 12 2026 10:37:13 GMT-0500 (Central Daylight Time),267475.5,011_m_f_n_a.png,O,m,929,8,1,1947.300000011921,265528.1999999881,7769,VNB,B,7
8,test,2,0.0,1-Back,1.0,m,Thu Mar 12 2026 10:37:13 GMT-0500 (Central Daylight Time),269890.5,020_y_f_d_a.png,O,m,1397,9,1,2409.2000000178814,267481.2999999821,7769,VNB,B,8
9,test,2,0.0,1-Back,1.0,m,Thu Mar 12 2026 10:37:13 GMT-0500 (Central Daylight Time),272705.7999999821,007_m_m_n_a.png,O,m,1788,10,1,2806.0999999940395,269899.6999999881,7769,VNB,B,9
10,test,2,1.0,1-Back,1.0,m,Thu Mar 12 2026 10:37:13 GMT-0500 (Central Daylight Time),274722.90000000596,011_m_f_h_a.png,O,m,1000,11,1,2014.4000000059605,272708.5,7769,VNB,B,10
11,test,2,0.0,1-Back,1.0,z,Thu Mar 12 2026 10:37:13 GMT-0500 (Central Daylight Time),276922.09999999404,004_o_m_h_a.png,O,z,1174,12,1,2191.5999999940395,274730.5,7769,VNB,B,11
12,test,2,0.0,1-Back,1.0,m,Thu Mar 12 2026 10:37:13 GMT-0500 (Central Daylight Time),279107.6999999881,016_y_m_d_a.png,O,m,1159,13,1,2182.9000000059605,276924.7999999821,7769,VNB,B,12
13,test,2,0.0,1-Back,1.0,m,Thu Mar 12 2026 10:37:13 GMT-0500 (Central Daylight Time),281637.59999999404,005_o_f_n_a.png,O,m,1495,14,1,2517.699999988079,279119.90000000596,7769,VNB,B,13
14,test,2,0.0,1-Back,1.0,z,Thu Mar 12 2026 10:37:13 GMT-0500 (Central Daylight Time),283653.40000000596,020_y_f_n_a.png,O,z,986,15,1,2013.0,281640.40000000596,7769,VNB,B,14
15,test,2,1.0,1-Back,1.0,m,Thu Mar 12 2026 10:37:13 GMT-0500 (Central Daylight Time),285768.5,007_m_m_h_a.png,O,m,1091,16,1,2107.5,283661.0,7769,VNB,B,15
16,test,2,0.0,1-Back,1.0,m,Thu Mar 12 2026 10:37:13 GMT-0500 (Central Daylight Time),288034.0,005_o_f_d_a.png,O,m,1246,17,1,2262.9000000059605,285771.09999999404,7769,VNB,B,16
17,test,2,1.0,1-Back,1.0,z,Thu Mar 12 2026 10:37:13 GMT-0500 (Central Daylight Time),290850.90000000596,004_o_m_d_a.png,O,z,1799,18,1,2810.300000011921,288040.59999999404,7769,VNB,B,17
0,test,3,1.0,1-Back,,,Thu Mar 12 2026 10:37:13 GMT-0500 (Central Daylight Time),290850.90000000596,005_o_f_h_a.png,O,space,1358,1,1,2810.300000011921,288040.59999999404,7769,VNB,B,0
1,test,3,0.0,1-Back,1.0,m,Thu Mar 12 2026 10:37:13 GMT-0500 (Central Daylight Time),296698.90000000596,011_m_f_d_a.png,O,m,1355,2,1,2372.600000023842,294326.2999999821,7769,VNB,B,1
2,test,3,1.0,1-Back,1.0,m,Thu Mar 12 2026 10:37:13 GMT-0500 (Central Daylight Time),299397.90000000596,007_m_m_n_a.png,O,m,1676,3,1,2696.100000023842,296701.7999999821,7769,VNB,B,2
3,test,3,0.0,1-Back,1.0,z,Thu Mar 12 2026 10:37:13 GMT-0500 (Central Daylight Time),301597.90000000596,005_o_f_n_a.png,O,z,1179,4,1,2190.4000000059605,299407.5,7769,VNB,B,3
4,test,3,1.0,1-Back,1.0,m,Thu Mar 12 2026 10:37:13 GMT-0500 (Central Daylight Time),303646.59999999404,004_o_m_d_a.png,O,m,1026,5,1,2045.4000000059605,301601.1999999881,7769,VNB,B,4
5,test,3,0.0,1-Back,1.0,m,Thu Mar 12 2026 10:37:13 GMT-0500 (Central Daylight Time),305665.6999999881,020_y_f_h_a.png,O,m,1000,6,1,2010.0999999940395,303655.59999999404,7769,VNB,B,5
6,test,3,0.0,1-Back,1.0,z,Thu Mar 12 2026 10:37:13 GMT-0500 (Central Daylight Time),307678.59999999404,016_y_m_h_a.png,O,z,984,7,1,2010.5,305668.09999999404,7769,VNB,B,6
7,test,3,0.0,1-Back,1.0,m,Thu Mar 12 2026 10:37:13 GMT-0500 (Central Daylight Time),309595.2999999821,011_m_f_n_a.png,O,m,899,8,1,1910.699999988079,307684.59999999404,7769,VNB,B,7
8,test,3,0.0,1-Back,1.0,m,Thu Mar 12 2026 10:37:13 GMT-0500 (Central Daylight Time),312127.6999999881,020_y_f_d_a.png,O,m,1509,9,1,2529.199999988079,309598.5,7769,VNB,B,8
9,test,3,1.0,1-Back,1.0,m,Thu Mar 12 2026 10:37:13 GMT-0500 (Central Daylight Time),314876.1999999881,004_o_m_n_a.png,O,m,1728,10,1,2741.0,312135.1999999881,7769,VNB,B,9
10,test,3,0.0,1-Back,1.0,m,Thu Mar 12 2026 10:37:13 GMT-0500 (Central Daylight Time),316895.5,007_m_m_h_a.png,O,m,986,11,1,2016.800000011921,314878.6999999881,7769,VNB,B,10
11,test,3,0.0,1-Back,1.0,z,Thu Mar 12 2026 10:37:13 GMT-0500 (Central Daylight Time),318892.2999999821,011_m_f_h_a.png,O,z,978,12,1,1989.199999988079,316903.09999999404,7769,VNB,B,11
12,test,3,1.0,1-Back,1.0,m,Thu Mar 12 2026 10:37:13 GMT-0500 (Central Daylight Time),320859.7999999821,005_o_f_d_a.png,O,m,950,13,1,1965.0,318894.7999999821,7769,VNB,B,12
13,test,3,0.0,1-Back,1.0,z,Thu Mar 12 2026 10:37:13 GMT-0500 (Central Daylight Time),322841.0,007_m_m_d_a.png,O,z,949,14,1,1971.9000000059605,320869.09999999404,7769,VNB,B,13
14,test,3,0.0,1-Back,1.0,m,Thu Mar 12 2026 10:37:13 GMT-0500 (Central Daylight Time),324956.2999999821,016_y_m_n_a.png,O,m,1086,15,1,2111.5999999940395,322844.6999999881,7769,VNB,B,14
15,test,3,1.0,1-Back,1.0,m,Thu Mar 12 2026 10:37:13 GMT-0500 (Central Daylight Time),327274.1999999881,004_o_m_h_a.png,O,m,1300,16,1,2308.0999999940395,324966.09999999404,7769,VNB,B,15
16,test,3,0.0,1-Back,1.0,m,Thu Mar 12 2026 10:37:13 GMT-0500 (Central Daylight Time),329422.5,016_y_m_d_a.png,O,m,1119,17,1,2144.800000011921,327277.6999999881,7769,VNB,B,16
17,test,3,1.0,1-Back,1.0,m,Thu Mar 12 2026 10:37:13 GMT-0500 (Central Daylight Time),331787.2999999821,020_y_f_n_a.png,O,m,1329,18,1,2346.699999988079,329440.59999999404,7769,VNB,B,17
0,test,4,1.0,1-Back,,,Thu Mar 12 2026 10:37:13 GMT-0500 (Central Daylight Time),331787.2999999821,007_m_m_d_a.png,O,space,1437,1,1,2346.699999988079,329440.59999999404,7769,VNB,B,0
1,test,4,0.0,1-Back,1.0,z,Thu Mar 12 2026 10:37:13 GMT-0500 (Central Daylight Time),337452.90000000596,004_o_m_d_a.png,O,z,1180,2,1,2189.300000011921,335263.59999999404,7769,VNB,B,1
2,test,4,0.0,1-Back,1.0,m,Thu Mar 12 2026 10:37:13 GMT-0500 (Central Daylight Time),339701.5,016_y_m_h_a.png,O,m,1227,3,1,2245.0999999940395,337456.40000000596,7769,VNB,B,2
3,test,4,0.0,1-Back,1.0,m,Thu Mar 12 2026 10:37:13 GMT-0500 (Central Daylight Time),341722.0,011_m_f_n_a.png,O,m,1002,4,1,2011.800000011921,339710.1999999881,7769,VNB,B,3
4,test,4,1.0,1-Back,1.0,m,Thu Mar 12 2026 10:37:13 GMT-0500 (Central Daylight Time),343883.5,005_o_f_h_a.png,O,m,1146,5,1,2158.7000000178814,341724.7999999821,7769,VNB,B,4
5,test,4,0.0,1-Back,1.0,m,Thu Mar 12 2026 10:37:13 GMT-0500 (Central Daylight Time),345867.90000000596,007_m_m_n_a.png,O,m,956,6,1,1976.5,343891.40000000596,7769,VNB,B,5
6,test,4,0.0,1-Back,1.0,m,Thu Mar 12 2026 10:37:13 GMT-0500 (Central Daylight Time),348082.5,016_y_m_d_a.png,O,m,1190,7,1,2210.5999999940395,345871.90000000596,7769,VNB,B,6
7,test,4,1.0,1-Back,1.0,z,Thu Mar 12 2026 10:37:13 GMT-0500 (Central Daylight Time),350398.7999999821,020_y_f_d_a.png,O,z,1280,8,1,2308.5,348090.2999999821,7769,VNB,B,7
8,test,4,0.0,1-Back,1.0,m,Thu Mar 12 2026 10:37:13 GMT-0500 (Central Daylight Time),352364.40000000596,011_m_f_h_a.png,O,m,936,9,1,1962.4000000059605,350402.0,7769,VNB,B,8
9,test,4,0.0,1-Back,1.0,z,Thu Mar 12 2026 10:37:13 GMT-0500 (Central Daylight Time),354481.6999999881,004_o_m_h_a.png,O,z,1099,10,1,2109.5,352372.1999999881,7769,VNB,B,9
10,test,4,1.0,1-Back,1.0,m,Thu Mar 12 2026 10:37:13 GMT-0500 (Central Daylight Time),356462.7999999821,005_o_f_n_a.png,O,m,958,11,1,1976.8999999761581,354485.90000000596,7769,VNB,B,10
11,test,4,0.0,1-Back,1.0,m,Thu Mar 12 2026 10:37:13 GMT-0500 (Central Daylight Time),358812.0,011_m_f_d_a.png,O,m,1320,12,1,2342.4000000059605,356469.59999999404,7769,VNB,B,11
12,test,4,0.0,1-Back,1.0,m,Thu Mar 12 2026 10:37:13 GMT-0500 (Central Daylight Time),361378.0,020_y_f_n_a.png,O,m,1546,13,1,2562.300000011921,358815.6999999881,7769,VNB,B,12
12,test,4,0.0,1-Back,0.0,m,Thu Mar 12 2026 10:37:13 GMT-0500 (Central Daylight Time),363679.5,005_o_f_d_a.png,O,z,1279,14,1,2296.5,361383.0,7769,VNB,B,13
13,test,4,0.0,1-Back,1.0,m,Thu Mar 12 2026 10:37:13 GMT-0500 (Central Daylight Time),365743.0,020_y_f_h_a.png,O,m,1032,15,1,2060.4000000059605,363682.59999999404,7769,VNB,B,14
14,test,4,1.0,1-Back,1.0,z,Thu Mar 12 2026 10:37:13 GMT-0500 (Central Daylight Time),367742.90000000596,007_m_m_h_a.png,O,z,974,16,1,1990.9000000059605,365752.0,7769,VNB,B,15
15,test,4,0.0,1-Back,1.0,m,Thu Mar 12 2026 10:37:13 GMT-0500 (Central Daylight Time),369758.90000000596,004_o_m_n_a.png,O,m,995,17,1,2011.300000011921,367747.59999999404,7769,VNB,B,16
16,test,4,1.0,1-Back,1.0,z,Thu Mar 12 2026 10:37:13 GMT-0500 (Central Daylight Time),371891.40000000596,016_y_m_n_a.png,O,z,1112,18,1,2124.800000011921,369766.59999999404,7769,VNB,B,17
0,test,5,1.0,1-Back,,,Thu Mar 12 2026 10:37:13 GMT-0500 (Central Daylight Time),371891.40000000596,004_o_m_n_a.png,O,space,1235,1,1,2124.800000011921,369766.59999999404,7769,VNB,B,0
1,test,5,1.0,1-Back,1.0,m,Thu Mar 12 2026 10:37:13 GMT-0500 (Central Daylight Time),377140.59999999404,005_o_f_h_a.png,O,m,961,2,1,1974.699999988079,375165.90000000596,7769,VNB,B,1
2,test,5,0.0,1-Back,1.0,m,Thu Mar 12 2026 10:37:13 GMT-0500 (Central Daylight Time),379340.09999999404,016_y_m_d_a.png,O,m,1180,3,1,2195.699999988079,377144.40000000596,7769,VNB,B,2
3,test,5,0.0,1-Back,1.0,z,Thu Mar 12 2026 10:37:13 GMT-0500 (Central Daylight Time),381388.5,004_o_m_d_a.png,O,z,1020,4,1,2037.5999999940395,379350.90000000596,7769,VNB,B,3
4,test,5,0.0,1-Back,1.0,m,Thu Mar 12 2026 10:37:13 GMT-0500 (Central Daylight Time),383553.1999999881,011_m_f_h_a.png,O,m,1147,5,1,2162.0999999940395,381391.09999999404,7769,VNB,B,4
5,test,5,0.0,1-Back,1.0,m,Thu Mar 12 2026 10:37:13 GMT-0500 (Central Daylight Time),385603.0,020_y_f_n_a.png,O,m,1030,6,1,2044.9000000059605,383558.09999999404,7769,VNB,B,5
6,test,5,1.0,1-Back,1.0,z,Thu Mar 12 2026 10:37:13 GMT-0500 (Central Daylight Time),387787.0,005_o_f_n_a.png,O,z,1164,7,1,2180.7000000178814,385606.2999999821,7769,VNB,B,6
7,test,5,0.0,1-Back,1.0,m,Thu Mar 12 2026 10:37:13 GMT-0500 (Central Daylight Time),390019.2999999821,011_m_f_d_a.png,O,m,1199,8,1,2222.7999999821186,387796.5,7769,VNB,B,7
8,test,5,0.0,1-Back,1.0,m,Thu Mar 12 2026 10:37:13 GMT-0500 (Central Daylight Time),392084.40000000596,016_y_m_h_a.png,O,m,1036,9,1,2061.5,390022.90000000596,7769,VNB,B,8
9,test,5,0.0,1-Back,1.0,m,Thu Mar 12 2026 10:37:13 GMT-0500 (Central Daylight Time),394201.7999999821,020_y_f_d_a.png,O,m,1089,10,1,2109.399999976158,392092.40000000596,7769,VNB,B,9
10,test,5,0.0,1-Back,1.0,m,Thu Mar 12 2026 10:37:13 GMT-0500 (Central Daylight Time),396254.5,007_m_m_n_a.png,O,m,1022,11,1,2050.2000000178814,394204.2999999821,7769,VNB,B,10
11,test,5,1.0,1-Back,1.0,z,Thu Mar 12 2026 10:37:13 GMT-0500 (Central Daylight Time),398214.7999999821,011_m_f_n_a.png,O,z,939,12,1,1957.5,396257.2999999821,7769,VNB,B,11
12,test,5,0.0,1-Back,1.0,m,Thu Mar 12 2026 10:37:13 GMT-0500 (Central Daylight Time),400165.7999999821,004_o_m_h_a.png,O,m,931,13,1,1949.2999999821186,398216.5,7769,VNB,B,12
13,test,5,0.0,1-Back,1.0,z,Thu Mar 12 2026 10:37:13 GMT-0500 (Central Daylight Time),402082.5,007_m_m_h_a.png,O,z,898,14,1,1913.300000011921,400169.1999999881,7769,VNB,B,13
14,test,5,1.0,1-Back,1.0,m,Thu Mar 12 2026 10:37:13 GMT-0500 (Central Daylight Time),404380.6999999881,005_o_f_d_a.png,O,m,1279,15,1,2294.7999999821186,402085.90000000596,7769,VNB,B,14
15,test,5,0.0,1-Back,1.0,m,Thu Mar 12 2026 10:37:13 GMT-0500 (Central Daylight Time),406833.1999999881,016_y_m_n_a.png,O,m,1426,16,1,2443.2999999821186,404389.90000000596,7769,VNB,B,15
16,test,5,0.0,1-Back,1.0,m,Thu Mar 12 2026 10:37:13 GMT-0500 (Central Daylight Time),408912.0,020_y_f_h_a.png,O,m,1065,17,1,2076.0,406836.0,7769,VNB,B,16
17,test,5,0.0,1-Back,1.0,m,Thu Mar 12 2026 10:37:13 GMT-0500 (Central Daylight Time),410980.09999999404,007_m_m_d_a.png,O,m,1050,18,1,2065.4000000059605,408914.6999999881,7769,VNB,B,17
0,prac,1,0.0,2-Back,,,Thu Mar 12 2026 10:37:13 GMT-0500 (Central Daylight Time),410980.09999999404,011_m_f_n_a.png,O,space,5303,1,1,2065.4000000059605,408914.6999999881,7769,VNB,B,0
0,prac,1,0.0,2-Back,,,Thu Mar 12 2026 10:37:13 GMT-0500 (Central Daylight Time),410980.09999999404,005_o_f_h_a.png,O,space,5303,2,1,2065.4000000059605,408914.6999999881,7769,VNB,B,0
1,prac,1,0.0,2-Back,1.0,m,Thu Mar 12 2026 10:37:13 GMT-0500 (Central Daylight Time),500933.90000000596,004_o_m_d_a.png,O,m,1508,3,1,2357.600000023842,498576.2999999821,7769,VNB,B,1
2,prac,1,1.0,2-Back,1.0,z,Thu Mar 12 2026 10:37:13 GMT-0500 (Central Daylight Time),503033.0,007_m_m_h_a.png,O,z,1224,4,1,2086.0999999940395,500946.90000000596,7769,VNB,B,2
3,prac,1,0.0,2-Back,1.0,m,Thu Mar 12 2026 10:37:13 GMT-0500 (Central Daylight Time),505349.09999999404,020_y_f_n_a.png,O,m,1460,5,1,2308.9000000059605,503040.1999999881,7769,VNB,B,3
4,prac,1,1.0,2-Back,1.0,z,Thu Mar 12 2026 10:37:13 GMT-0500 (Central Daylight Time),507331.7999999821,004_o_m_h_a.png,O,z,1122,6,1,1971.3999999761581,505360.40000000596,7769,VNB,B,4
4,prac,1,1.0,2-Back,0.0,z,Thu Mar 12 2026 10:37:13 GMT-0500 (Central Daylight Time),510197.09999999404,016_y_m_n_a.png,O,None,2005,7,1,2855.800000011921,507341.2999999821,7769,VNB,B,5
5,prac,1,0.0,2-Back,1.0,m,Thu Mar 12 2026 10:37:13 GMT-0500 (Central Daylight Time),512515.6999999881,011_m_f_d_a.png,O,m,1455,8,1,2314.199999988079,510201.5,7769,VNB,B,6
6,prac,1,0.0,2-Back,1.0,m,Thu Mar 12 2026 10:37:13 GMT-0500 (Central Daylight Time),514880.2999999821,005_o_f_d_a.png,O,m,1509,9,1,2359.5,512520.7999999821,7769,VNB,B,7
7,prac,1,0.0,2-Back,1.0,m,Thu Mar 12 2026 10:37:13 GMT-0500 (Central Daylight Time),517095.59999999404,007_m_m_h_a.png,O,m,1419,10,1,2202.300000011921,514893.2999999821,7769,VNB,B,8
8,prac,1,1.0,2-Back,1.0,z,Thu Mar 12 2026 10:37:13 GMT-0500 (Central Daylight Time),519295.90000000596,020_y_f_d_a.png,O,z,1367,11,1,2193.4000000059605,517102.5,7769,VNB,B,9
9,prac,1,0.0,2-Back,1.0,m,Thu Mar 12 2026 10:37:13 GMT-0500 (Central Daylight Time),521543.90000000596,004_o_m_n_a.png,O,m,1387,12,1,2231.0,519312.90000000596,7769,VNB,B,10
0,test,1,0.0,2-Back,,,Thu Mar 12 2026 10:37:13 GMT-0500 (Central Daylight Time),521543.90000000596,016_y_m_h_a.png,O,space,6842,1,1,2231.0,519312.90000000596,7769,VNB,B,0
0,test,1,0.0,2-Back,,,Thu Mar 12 2026 10:37:13 GMT-0500 (Central Daylight Time),521543.90000000596,005_o_f_n_a.png,O,space,6842,2,1,2231.0,519312.90000000596,7769,VNB,B,0
1,test,1,0.0,2-Back,1.0,z,Thu Mar 12 2026 10:37:13 GMT-0500 (Central Daylight Time),559250.1999999881,004_o_m_h_a.png,O,z,1734,3,1,2748.9000000059605,556501.2999999821,7769,VNB,B,1
2,test,1,0.0,2-Back,1.0,m,Thu Mar 12 2026 10:37:13 GMT-0500 (Central Daylight Time),561649.6999999881,011_m_f_d_a.png,O,m,1375,4,1,2391.0,559258.6999999881,7769,VNB,B,2
3,test,1,1.0,2-Back,1.0,m,Thu Mar 12 2026 10:37:13 GMT-0500 (Central Daylight Time),564331.400000006,016_y_m_n_a.png,O,m,1666,5,1,2678.9000000059605,561652.5,7769,VNB,B,3
4,test,1,0.0,2-Back,1.0,z,Thu Mar 12 2026 10:37:13 GMT-0500 (Central Daylight Time),566163.400000006,020_y_f_d_a.png,O,z,806,6,1,1822.1000000238419,564341.2999999821,7769,VNB,B,4
5,test,1,0.0,2-Back,1.0,m,Thu Mar 12 2026 10:37:13 GMT-0500 (Central Daylight Time),568713.5,007_m_m_h_a.png,O,m,1532,7,1,2547.9000000059605,566165.599999994,7769,VNB,B,5
5,test,1,1.0,2-Back,0.0,m,Thu Mar 12 2026 10:37:13 GMT-0500 (Central Daylight Time),570745.599999994,020_y_f_n_a.png,O,z,1016,8,1,2025.4000000059605,568720.1999999881,7769,VNB,B,6
6,test,1,0.0,2-Back,1.0,z,Thu Mar 12 2026 10:37:13 GMT-0500 (Central Daylight Time),573144.2999999821,005_o_f_h_a.png,O,z,1373,9,1,2395.699999988079,570748.599999994,7769,VNB,B,7
7,test,1,0.0,2-Back,1.0,m,Thu Mar 12 2026 10:37:13 GMT-0500 (Central Daylight Time),575394.7999999821,004_o_m_d_a.png,O,m,1233,10,1,2242.5,573152.2999999821,7769,VNB,B,8
8,test,1,1.0,2-Back,1.0,m,Thu Mar 12 2026 10:37:13 GMT-0500 (Central Daylight Time),577943.7999999821,007_m_m_d_a.png,O,m,1533,11,1,2545.699999988079,575398.099999994,7769,VNB,B,9
8,test,1,0.0,2-Back,0.0,m,Thu Mar 12 2026 10:37:13 GMT-0500 (Central Daylight Time),580040.1999999881,011_m_f_n_a.png,O,z,1063,12,1,2092.0999999940395,577948.099999994,7769,VNB,B,10
9,test,1,0.0,2-Back,1.0,m,Thu Mar 12 2026 10:37:13 GMT-0500 (Central Daylight Time),582275.6999999881,020_y_f_h_a.png,O,m,1215,13,1,2233.7999999821186,580041.900000006,7769,VNB,B,11
10,test,1,0.0,2-Back,1.0,z,Thu Mar 12 2026 10:37:13 GMT-0500 (Central Daylight Time),584591.2999999821,007_m_m_n_a.png,O,z,1284,14,1,2305.0,582286.2999999821,7769,VNB,B,12
11,test,1,0.0,2-Back,1.0,m,Thu Mar 12 2026 10:37:13 GMT-0500 (Central Daylight Time),586990.6999999881,016_y_m_d_a.png,O,m,1378,15,1,2396.699999988079,584594.0,7769,VNB,B,13
11,test,1,1.0,2-Back,0.0,m,Thu Mar 12 2026 10:37:13 GMT-0500 (Central Daylight Time),589573.099999994,011_m_f_h_a.png,O,z,1553,16,1,2575.0,586998.099999994,7769,VNB,B,14
12,test,1,0.0,2-Back,1.0,z,Thu Mar 12 2026 10:37:13 GMT-0500 (Central Daylight Time),591872.599999994,005_o_f_d_a.png,O,z,1275,17,1,2296.9000000059605,589575.6999999881,7769,VNB,B,15
13,test,1,0.0,2-Back,1.0,m,Thu Mar 12 2026 10:37:13 GMT-0500 (Central Daylight Time),594004.599999994,004_o_m_n_a.png,O,m,1104,18,1,2123.300000011921,591881.2999999821,7769,VNB,B,16
0,test,2,0.0,2-Back,,,Thu Mar 12 2026 10:37:13 GMT-0500 (Central Daylight Time),594004.599999994,007_m_m_h_a.png,O,space,1645,1,1,2123.300000011921,591881.2999999821,7769,VNB,B,0
0,test,2,0.0,2-Back,,,Thu Mar 12 2026 10:37:13 GMT-0500 (Central Daylight Time),594004.599999994,020_y_f_n_a.png,O,space,1645,2,1,2123.300000011921,591881.2999999821,7769,VNB,B,0
1,test,2,1.0,2-Back,1.0,z,Thu Mar 12 2026 10:37:13 GMT-0500 (Central Daylight Time),603268.0,005_o_f_h_a.png,O,z,1386,3,1,2410.9000000059605,600857.099999994,7769,VNB,B,1
2,test,2,0.0,2-Back,1.0,m,Thu Mar 12 2026 10:37:13 GMT-0500 (Central Daylight Time),605366.900000006,004_o_m_d_a.png,O,m,1068,4,1,2095.2000000178814,603271.6999999881,7769,VNB,B,2
3,test,2,0.0,2-Back,1.0,m,Thu Mar 12 2026 10:37:13 GMT-0500 (Central Daylight Time),607517.1999999881,011_m_f_d_a.png,O,m,1128,5,1,2146.699999988079,605370.5,7769,VNB,B,3
4,test,2,0.0,2-Back,1.0,m,Thu Mar 12 2026 10:37:13 GMT-0500 (Central Daylight Time),610131.5,016_y_m_h_a.png,O,m,1591,6,1,2603.0,607528.5,7769,VNB,B,4
5,test,2,0.0,2-Back,1.0,m,Thu Mar 12 2026 10:37:13 GMT-0500 (Central Daylight Time),612482.900000006,005_o_f_n_a.png,O,m,1332,7,1,2348.100000023842,610134.7999999821,7769,VNB,B,5
5,test,2,1.0,2-Back,0.0,z,Thu Mar 12 2026 10:37:13 GMT-0500 (Central Daylight Time),614963.7999999821,004_o_m_h_a.png,O,m,1461,8,1,2469.7999999821186,612494.0,7769,VNB,B,6
5,test,2,0.0,2-Back,0.0,m,Thu Mar 12 2026 10:37:13 GMT-0500 (Central Daylight Time),617246.099999994,020_y_f_d_a.png,O,z,1250,9,1,2277.0,614969.099999994,7769,VNB,B,7
6,test,2,0.0,2-Back,1.0,m,Thu Mar 12 2026 10:37:13 GMT-0500 (Central Daylight Time),619446.400000006,016_y_m_d_a.png,O,m,1167,10,1,2189.0,617257.400000006,7769,VNB,B,8
7,test,2,0.0,2-Back,1.0,m,Thu Mar 12 2026 10:37:13 GMT-0500 (Central Daylight Time),621779.6999999881,007_m_m_n_a.png,O,m,1314,11,1,2328.2999999821186,619451.400000006,7769,VNB,B,9
8,test,2,0.0,2-Back,1.0,m,Thu Mar 12 2026 10:37:13 GMT-0500 (Central Daylight Time),623795.0,011_m_f_h_a.png,O,m,998,12,1,2004.300000011921,621790.6999999881,7769,VNB,B,10
8,test,2,1.0,2-Back,0.0,z,Thu Mar 12 2026 10:37:13 GMT-0500 (Central Daylight Time),626543.5,004_o_m_n_a.png,O,m,1716,13,1,2745.0999999940395,623798.400000006,7769,VNB,B,11
9,test,2,0.0,2-Back,1.0,m,Thu Mar 12 2026 10:37:13 GMT-0500 (Central Daylight Time),629276.0,005_o_f_d_a.png,O,m,1703,14,1,2724.0999999940395,626551.900000006,7769,VNB,B,12
10,test,2,0.0,2-Back,1.0,m,Thu Mar 12 2026 10:37:13 GMT-0500 (Central Daylight Time),631996.6999999881,020_y_f_h_a.png,O,m,1691,15,1,2718.7999999821186,629277.900000006,7769,VNB,B,13
11,test,2,0.0,2-Back,1.0,z,Thu Mar 12 2026 10:37:13 GMT-0500 (Central Daylight Time),634926.0,007_m_m_d_a.png,O,z,1911,16,1,2926.4000000059605,631999.599999994,7769,VNB,B,14
12,test,2,0.0,2-Back,1.0,m,Thu Mar 12 2026 10:37:13 GMT-0500 (Central Daylight Time),637240.6999999881,016_y_m_n_a.png,O,m,1284,17,1,2310.4000000059605,634930.2999999821,7769,VNB,B,15
13,test,2,1.0,2-Back,1.0,m,Thu Mar 12 2026 10:37:13 GMT-0500 (Central Daylight Time),639907.7999999821,011_m_f_n_a.png,O,m,1649,18,1,2659.899999976158,637247.900000006,7769,VNB,B,16
0,test,3,1.0,2-Back,,,Thu Mar 12 2026 10:37:13 GMT-0500 (Central Daylight Time),639907.7999999821,004_o_m_n_a.png,O,space,1275,1,1,2659.899999976158,637247.900000006,7769,VNB,B,0
0,test,3,1.0,2-Back,,,Thu Mar 12 2026 10:37:13 GMT-0500 (Central Daylight Time),639907.7999999821,005_o_f_d_a.png,O,space,1275,2,1,2659.899999976158,637247.900000006,7769,VNB,B,0
1,test,3,0.0,2-Back,1.0,m,Thu Mar 12 2026 10:37:13 GMT-0500 (Central Daylight Time),648403.400000006,020_y_f_h_a.png,O,m,1148,3,1,2161.4000000059605,646242.0,7769,VNB,B,1
2,test,3,0.0,2-Back,1.0,z,Thu Mar 12 2026 10:37:13 GMT-0500 (Central Daylight Time),650586.400000006,011_m_f_d_a.png,O,z,1156,4,1,2173.7000000178814,648412.6999999881,7769,VNB,B,2
2,test,3,1.0,2-Back,0.0,m,Thu Mar 12 2026 10:37:13 GMT-0500 (Central Daylight Time),653118.7999999821,016_y_m_n_a.png,O,z,1510,5,1,2529.899999976158,650588.900000006,7769,VNB,B,3
3,test,3,0.0,2-Back,1.0,m,Thu Mar 12 2026 10:37:13 GMT-0500 (Central Daylight Time),655217.900000006,004_o_m_h_a.png,O,m,1082,6,1,2088.0,653129.900000006,7769,VNB,B,4
4,test,3,0.0,2-Back,1.0,z,Thu Mar 12 2026 10:37:13 GMT-0500 (Central Daylight Time),657584.099999994,020_y_f_n_a.png,O,z,1335,7,1,2363.300000011921,655220.7999999821,7769,VNB,B,5
5,test,3,1.0,2-Back,1.0,m,Thu Mar 12 2026 10:37:13 GMT-0500 (Central Daylight Time),660566.0,007_m_m_d_a.png,O,m,1960,8,1,2975.5999999940395,657590.400000006,7769,VNB,B,6
6,test,3,0.0,2-Back,1.0,m,Thu Mar 12 2026 10:37:13 GMT-0500 (Central Daylight Time),663282.599999994,016_y_m_d_a.png,O,m,1689,9,1,2714.0,660568.599999994,7769,VNB,B,7
7,test,3,0.0,2-Back,1.0,m,Thu Mar 12 2026 10:37:13 GMT-0500 (Central Daylight Time),665548.0,005_o_f_h_a.png,O,m,1237,10,1,2256.0999999940395,663291.900000006,7769,VNB,B,8
7,test,3,1.0,2-Back,0.0,m,Thu Mar 12 2026 10:37:13 GMT-0500 (Central Daylight Time),667965.900000006,011_m_f_n_a.png,O,z,1399,11,1,2415.300000011921,665550.599999994,7769,VNB,B,9
8,test,3,1.0,2-Back,1.0,z,Thu Mar 12 2026 10:37:13 GMT-0500 (Central Daylight Time),670531.2999999821,007_m_m_h_a.png,O,z,1551,12,1,2557.2999999821186,667974.0,7769,VNB,B,10
9,test,3,0.0,2-Back,1.0,m,Thu Mar 12 2026 10:37:13 GMT-0500 (Central Daylight Time),673146.900000006,020_y_f_d_a.png,O,m,1599,13,1,2611.800000011921,670535.099999994,7769,VNB,B,11
10,test,3,0.0,2-Back,1.0,m,Thu Mar 12 2026 10:37:13 GMT-0500 (Central Daylight Time),676062.1999999881,005_o_f_n_a.png,O,m,1884,14,1,2906.9000000059605,673155.2999999821,7769,VNB,B,12
11,test,3,0.0,2-Back,1.0,z,Thu Mar 12 2026 10:37:13 GMT-0500 (Central Daylight Time),678078.5,004_o_m_d_a.png,O,z,988,15,1,2012.300000011921,676066.1999999881,7769,VNB,B,13
12,test,3,1.0,2-Back,1.0,m,Thu Mar 12 2026 10:37:13 GMT-0500 (Central Daylight Time),680561.0,011_m_f_h_a.png,O,m,1446,16,1,2471.2000000178814,678089.7999999821,7769,VNB,B,14
12,test,3,0.0,2-Back,0.0,m,Thu Mar 12 2026 10:37:13 GMT-0500 (Central Daylight Time),682810.2999999821,007_m_m_n_a.png,O,z,1223,17,1,2246.2999999821186,680564.0,7769,VNB,B,15
13,test,3,0.0,2-Back,1.0,z,Thu Mar 12 2026 10:37:13 GMT-0500 (Central Daylight Time),685674.6999999881,016_y_m_h_a.png,O,z,1838,18,1,2855.0,682819.6999999881,7769,VNB,B,16
0,test,4,0.0,2-Back,,,Thu Mar 12 2026 10:37:13 GMT-0500 (Central Daylight Time),685674.6999999881,011_m_f_n_a.png,O,space,1118,1,1,2855.0,682819.6999999881,7769,VNB,B,0
0,test,4,0.0,2-Back,,,Thu Mar 12 2026 10:37:13 GMT-0500 (Central Daylight Time),685674.6999999881,004_o_m_n_a.png,O,space,1118,2,1,2855.0,682819.6999999881,7769,VNB,B,0
1,test,4,1.0,2-Back,1.0,m,Thu Mar 12 2026 10:37:13 GMT-0500 (Central Daylight Time),694090.2999999821,016_y_m_h_a.png,O,m,1083,3,1,2098.399999976158,691991.900000006,7769,VNB,B,1
1,test,4,1.0,2-Back,0.0,m,Thu Mar 12 2026 10:37:13 GMT-0500 (Central Daylight Time),696388.2999999821,005_o_f_d_a.png,O,z,1271,4,1,2290.7999999821186,694097.5,7769,VNB,B,2
2,test,4,0.0,2-Back,1.0,z,Thu Mar 12 2026 10:37:13 GMT-0500 (Central Daylight Time),698854.5,004_o_m_h_a.png,O,z,1434,5,1,2463.0,696391.5,7769,VNB,B,3
2,test,4,0.0,2-Back,0.0,m,Thu Mar 12 2026 10:37:13 GMT-0500 (Central Daylight Time),701521.1999999881,007_m_m_n_a.png,O,z,1651,6,1,2657.7999999821186,698863.400000006,7769,VNB,B,4
3,test,4,0.0,2-Back,1.0,m,Thu Mar 12 2026 10:37:13 GMT-0500 (Central Daylight Time),703787.099999994,011_m_f_d_a.png,O,m,1239,7,1,2262.199999988079,701524.900000006,7769,VNB,B,5
4,test,4,0.0,2-Back,1.0,z,Thu Mar 12 2026 10:37:13 GMT-0500 (Central Daylight Time),706252.1999999881,020_y_f_n_a.png,O,z,1438,8,1,2457.5,703794.6999999881,7769,VNB,B,6
5,test,4,1.0,2-Back,1.0,m,Thu Mar 12 2026 10:37:13 GMT-0500 (Central Daylight Time),708901.0,005_o_f_h_a.png,O,m,1629,9,1,2645.4000000059605,706255.599999994,7769,VNB,B,7
6,test,4,0.0,2-Back,1.0,m,Thu Mar 12 2026 10:37:13 GMT-0500 (Central Daylight Time),711617.6999999881,007_m_m_h_a.png,O,m,1683,10,1,2705.199999988079,708912.5,7769,VNB,B,8
7,test,4,0.0,2-Back,1.0,m,Thu Mar 12 2026 10:37:13 GMT-0500 (Central Daylight Time),714449.0,020_y_f_d_a.png,O,m,1814,11,1,2827.5999999940395,711621.400000006,7769,VNB,B,9
7,test,4,0.0,2-Back,0.0,m,Thu Mar 12 2026 10:37:13 GMT-0500 (Central Daylight Time),717482.900000006,016_y_m_n_a.png,O,None,2016,12,1,3026.300000011921,714456.599999994,7769,VNB,B,10
8,test,4,0.0,2-Back,1.0,z,Thu Mar 12 2026 10:37:13 GMT-0500 (Central Daylight Time),719864.2999999821,004_o_m_d_a.png,O,z,1351,13,1,2378.399999976158,717485.900000006,7769,VNB,B,11
8,test,4,1.0,2-Back,0.0,m,Thu Mar 12 2026 10:37:13 GMT-0500 (Central Daylight Time),722581.599999994,011_m_f_h_a.png,O,z,1683,14,1,2708.199999988079,719873.400000006,7769,VNB,B,12
9,test,4,1.0,2-Back,1.0,m,Thu Mar 12 2026 10:37:13 GMT-0500 (Central Daylight Time),724596.599999994,020_y_f_h_a.png,O,m,994,15,1,2010.300000011921,722586.2999999821,7769,VNB,B,13
10,test,4,0.0,2-Back,1.0,m,Thu Mar 12 2026 10:37:13 GMT-0500 (Central Daylight Time),726961.6999999881,005_o_f_n_a.png,O,m,1339,16,1,2354.7999999821186,724606.900000006,7769,VNB,B,14
11,test,4,0.0,2-Back,1.0,m,Thu Mar 12 2026 10:37:13 GMT-0500 (Central Daylight Time),729411.7999999821,016_y_m_d_a.png,O,m,1420,17,1,2445.399999976158,726966.400000006,7769,VNB,B,15
11,test,4,1.0,2-Back,0.0,m,Thu Mar 12 2026 10:37:13 GMT-0500 (Central Daylight Time),732446.599999994,007_m_m_d_a.png,O,None,2018,18,1,3024.4000000059605,729422.1999999881,7769,VNB,B,16
0,test,5,1.0,2-Back,,,Thu Mar 12 2026 10:37:13 GMT-0500 (Central Daylight Time),732446.599999994,020_y_f_d_a.png,O,space,2185,1,1,3024.4000000059605,729422.1999999881,7769,VNB,B,0
0,test,5,1.0,2-Back,,,Thu Mar 12 2026 10:37:13 GMT-0500 (Central Daylight Time),732446.599999994,005_o_f_h_a.png,O,space,2185,2,1,3024.4000000059605,729422.1999999881,7769,VNB,B,0
1,test,5,1.0,2-Back,1.0,z,Thu Mar 12 2026 10:37:13 GMT-0500 (Central Daylight Time),742423.1999999881,004_o_m_d_a.png,O,z,1548,3,1,2577.5999999940395,739845.599999994,7769,VNB,B,1
2,test,5,1.0,2-Back,1.0,m,Thu Mar 12 2026 10:37:13 GMT-0500 (Central Daylight Time),744590.5,011_m_f_n_a.png,O,m,1145,4,1,2157.0,742433.5,7769,VNB,B,2
3,test,5,0.0,2-Back,1.0,m,Thu Mar 12 2026 10:37:13 GMT-0500 (Central Daylight Time),747505.0,007_m_m_h_a.png,O,m,1879,5,1,2910.4000000059605,744594.599999994,7769,VNB,B,3
4,test,5,0.0,2-Back,1.0,z,Thu Mar 12 2026 10:37:13 GMT-0500 (Central Daylight Time),749705.099999994,020_y_f_n_a.png,O,z,1165,6,1,2192.199999988079,747512.900000006,7769,VNB,B,4
4,test,5,0.0,2-Back,0.0,m,Thu Mar 12 2026 10:37:13 GMT-0500 (Central Daylight Time),752236.7999999821,005_o_f_d_a.png,O,z,1503,7,1,2530.0999999940395,749706.6999999881,7769,VNB,B,5
4,test,5,0.0,2-Back,0.0,m,Thu Mar 12 2026 10:37:13 GMT-0500 (Central Daylight Time),754736.7999999821,004_o_m_h_a.png,O,z,1467,8,1,2490.0,752246.7999999821,7769,VNB,B,6
4,test,5,1.0,2-Back,0.0,z,Thu Mar 12 2026 10:37:13 GMT-0500 (Central Daylight Time),757768.900000006,011_m_f_d_a.png,O,None,2015,9,1,3029.300000011921,754739.599999994,7769,VNB,B,7
5,test,5,0.0,2-Back,1.0,m,Thu Mar 12 2026 10:37:13 GMT-0500 (Central Daylight Time),760382.7999999821,016_y_m_n_a.png,O,m,1587,10,1,2607.399999976158,757775.400000006,7769,VNB,B,8
6,test,5,0.0,2-Back,1.0,m,Thu Mar 12 2026 10:37:13 GMT-0500 (Central Daylight Time),762916.5,007_m_m_n_a.png,O,m,1525,11,1,2531.9000000059605,760384.599999994,7769,VNB,B,9
7,test,5,0.0,2-Back,1.0,m,Thu Mar 12 2026 10:37:13 GMT-0500 (Central Daylight Time),764983.599999994,020_y_f_h_a.png,O,m,1035,12,1,2063.0999999940395,762920.5,7769,VNB,B,10
8,test,5,0.0,2-Back,1.0,m,Thu Mar 12 2026 10:37:13 GMT-0500 (Central Daylight Time),767432.5,016_y_m_d_a.png,O,m,1426,13,1,2445.2000000178814,764987.2999999821,7769,VNB,B,11
9,test,5,1.0,2-Back,1.0,z,Thu Mar 12 2026 10:37:13 GMT-0500 (Central Daylight Time),769481.5,011_m_f_h_a.png,O,z,1027,14,1,2039.2000000178814,767442.2999999821,7769,VNB,B,12
9,test,5,0.0,2-Back,0.0,m,Thu Mar 12 2026 10:37:13 GMT-0500 (Central Daylight Time),772129.6999999881,004_o_m_n_a.png,O,z,1619,15,1,2645.199999988079,769484.5,7769,VNB,B,13
10,test,5,0.0,2-Back,1.0,m,Thu Mar 12 2026 10:37:13 GMT-0500 (Central Daylight Time),774547.099999994,007_m_m_d_a.png,O,m,1401,16,1,2409.0,772138.099999994,7769,VNB,B,14
11,test,5,0.0,2-Back,1.0,z,Thu Mar 12 2026 10:37:13 GMT-0500 (Central Daylight Time),776930.099999994,005_o_f_n_a.png,O,z,1357,17,1,2379.5999999940395,774550.5,7769,VNB,B,15
12,test,5,1.0,2-Back,1.0,m,Thu Mar 12 2026 10:37:13 GMT-0500 (Central Daylight Time),779012.5,016_y_m_h_a.png,O,m,1054,18,1,2071.5,776941.0,7769,VNB,B,16
