Q,Q1,Q2,Q3,Q4,acc_sum,block,block_c,correct,correct_response,datetime,endtime,project,response,response_time,row_sel,session_number,squiggle1,squiggle1x,squiggle1y,squiggle2,squiggle2x,squiggle2y,squiggle3,squiggle3x,squiggle3y,squiggle4,squiggle4x,squiggle4y,start_end,starttime,subject_id,target_congruent,task,task_vers,testsquiggle,testsquigglex,testsquiggley,time_practice_delay,time_practice_fixation,time_practice_stimuli,time_practice_study,time_test_delay,time_test_fixation,time_test_stimuli,time_test_study,trial
1,1,0,0,0,0,prac,1,0,z,Tue Mar 24 2026 10:43:11 GMT-0500 (Central Daylight Time),173350.09999990463,O,None,2016,1,1,66.bmp,-120,-120,67.bmp,120,-120,68.bmp,-120,120,69.bmp,120,120,10826.700000047684,162523.39999985695,7773,yes,SM,C,66.bmp,-120,-120,166563,160535,168579,162546,,,,,1
3,0,0,1,0,0,prac,1,0,m,Tue Mar 24 2026 10:43:11 GMT-0500 (Central Daylight Time),183347.19999980927,O,z,1188,2,1,70.bmp,-120,-120,71.bmp,120,-120,72.bmp,-120,120,73.bmp,120,120,9991.0,173356.19999980927,7773,no,SM,C,73.bmp,-120,120,177391,171367,179393,173378,,,,,2
4,0,0,0,1,0,prac,1,0,m,Tue Mar 24 2026 10:43:11 GMT-0500 (Central Daylight Time),194027.5,O,z,1860,3,1,74.bmp,-120,-120,75.bmp,120,-120,76.bmp,-120,120,77.bmp,120,120,10675.600000143051,183351.89999985695,7773,no,SM,C,74.bmp,120,120,187390,181363,189407,183375,,,,,3
2,0,1,0,0,0,prac,1,0,z,Tue Mar 24 2026 10:43:11 GMT-0500 (Central Daylight Time),204841.19999980927,O,m,1983,4,1,78.bmp,-120,-120,79.bmp,120,-120,80.bmp,-120,120,81.bmp,120,120,10809.5,194031.69999980927,7773,yes,SM,C,79.bmp,120,-120,198069,192043,200086,194055,,,,,4
3,0,0,1,0,1,prac,1,1,z,Tue Mar 24 2026 10:43:11 GMT-0500 (Central Daylight Time),215319.09999990463,O,z,1650,5,1,82.bmp,-120,-120,83.bmp,120,-120,84.bmp,-120,120,85.bmp,120,120,10474.5,204844.59999990463,7773,yes,SM,C,84.bmp,-120,120,208883,202856,210899,204868,,,,,5
1,1,0,0,0,1,prac,1,0,m,Tue Mar 24 2026 10:43:11 GMT-0500 (Central Daylight Time),226150.19999980927,O,None,2015,6,1,86.bmp,-120,-120,87.bmp,120,-120,88.bmp,-120,120,89.bmp,120,120,10825.299999952316,215324.89999985695,7773,no,SM,C,89.bmp,-120,-120,219362,213336,221378,215348,,,,,6
2,0,1,0,0,1,prac,1,0,m,Tue Mar 24 2026 10:43:11 GMT-0500 (Central Daylight Time),236828.79999995232,O,z,1868,7,1,90.bmp,-120,-120,91.bmp,120,-120,92.bmp,-120,120,93.bmp,120,120,10673.700000047684,226155.09999990463,7773,no,SM,C,90.bmp,120,-120,230177,224166,232192,226176,,,,,7
4,0,0,0,1,1,prac,1,0,z,Tue Mar 24 2026 10:43:11 GMT-0500 (Central Daylight Time),247659.09999990463,O,None,2014,8,1,94.bmp,-120,-120,95.bmp,120,-120,96.bmp,-120,120,97.bmp,120,120,10824.900000095367,236834.19999980927,7773,yes,SM,C,97.bmp,120,120,240872,234846,242888,236857,,,,,8
1,1,0,0,0,0,prac,2,0,z,Tue Mar 24 2026 10:43:11 GMT-0500 (Central Daylight Time),264038.09999990463,O,None,2014,1,1,66.bmp,-120,-120,67.bmp,120,-120,68.bmp,-120,120,69.bmp,120,120,10824.799999952316,253213.29999995232,7773,yes,SM,C,66.bmp,-120,-120,257250,251225,259267,253236,,,,,1
3,0,0,1,0,0,prac,2,0,m,Tue Mar 24 2026 10:43:11 GMT-0500 (Central Daylight Time),274151.59999990463,O,z,1291,2,1,70.bmp,-120,-120,71.bmp,120,-120,72.bmp,-120,120,73.bmp,120,120,10109.099999904633,264042.5,7773,no,SM,C,73.bmp,-120,120,268080,262054,270097,264065,,,,,2
4,0,0,0,1,0,prac,2,0,m,Tue Mar 24 2026 10:43:11 GMT-0500 (Central Daylight Time),284547.59999990463,O,z,1587,3,1,74.bmp,-120,-120,75.bmp,120,-120,76.bmp,-120,120,77.bmp,120,120,10390.0,274157.59999990463,7773,no,SM,C,74.bmp,120,120,278193,272169,280194,274178,,,,,3
2,0,1,0,0,0,prac,2,0,z,Tue Mar 24 2026 10:43:11 GMT-0500 (Central Daylight Time),294861.0,O,m,1485,4,1,78.bmp,-120,-120,79.bmp,120,-120,80.bmp,-120,120,81.bmp,120,120,10309.200000047684,284551.7999999523,7773,yes,SM,C,79.bmp,120,-120,288591,282563,290607,284575,,,,,4
3,0,0,1,0,1,prac,2,1,z,Tue Mar 24 2026 10:43:11 GMT-0500 (Central Daylight Time),304940.5,O,z,1252,5,1,82.bmp,-120,-120,83.bmp,120,-120,84.bmp,-120,120,85.bmp,120,120,10075.100000143051,294865.39999985695,7773,yes,SM,C,84.bmp,-120,120,298903,292877,300920,294889,,,,,5
1,1,0,0,0,2,prac,2,1,m,Tue Mar 24 2026 10:43:11 GMT-0500 (Central Daylight Time),315289.0,O,m,1524,6,1,86.bmp,-120,-120,87.bmp,120,-120,88.bmp,-120,120,89.bmp,120,120,10343.900000095367,304945.09999990463,7773,no,SM,C,89.bmp,-120,-120,308985,302956,311000,304969,,,,,6
2,0,1,0,0,3,prac,2,1,m,Tue Mar 24 2026 10:43:11 GMT-0500 (Central Daylight Time),326035.89999985695,O,m,1922,7,1,90.bmp,-120,-120,91.bmp,120,-120,92.bmp,-120,120,93.bmp,120,120,10741.099999904633,315294.7999999523,7773,no,SM,C,90.bmp,120,-120,319331,313306,321346,315315,,,,,7
4,0,0,0,1,3,prac,2,0,z,Tue Mar 24 2026 10:43:11 GMT-0500 (Central Daylight Time),336849.09999990463,O,None,2012,8,1,94.bmp,-120,-120,95.bmp,120,-120,96.bmp,-120,120,97.bmp,120,120,10809.299999952316,326039.7999999523,7773,yes,SM,C,97.bmp,120,120,330078,324051,332095,326062,,,,,8
4,0,0,0,1,0,test,1,0,m,Tue Mar 24 2026 10:43:11 GMT-0500 (Central Daylight Time),365471.59999990463,O,None,2012,1,1,98.bmp,-120,-120,99.bmp,120,-120,100.bmp,-120,120,93.bmp,120,120,10056.599999904633,355415.0,7773,yes,SM,C,100.bmp,120,120,330078,324051,332095,326062,359452.0,353426.0,361470.0,355436.0,1
2,0,1,0,0,0,test,1,0,m,Tue Mar 24 2026 10:43:11 GMT-0500 (Central Daylight Time),375152.5,O,z,1617,2,1,51.bmp,-120,-120,52.bmp,120,-120,53.bmp,-120,120,54.bmp,120,120,9675.100000143051,365477.39999985695,7773,yes,SM,C,53.bmp,120,-120,330078,324051,332095,326062,369516.0,363489.0,371531.0,365500.0,2
1,1,0,0,0,1,test,1,1,z,Tue Mar 24 2026 10:43:11 GMT-0500 (Central Daylight Time),384317.0,O,z,1103,3,1,55.bmp,-120,-120,56.bmp,120,-120,57.bmp,-120,120,58.bmp,120,120,9160.0,375157.0,7773,yes,SM,C,55.bmp,-120,-120,330078,324051,332095,326062,379195.0,373168.0,381213.0,375180.0,3
3,0,0,1,0,1,test,1,0,m,Tue Mar 24 2026 10:43:11 GMT-0500 (Central Daylight Time),394129.69999980927,O,z,1750,4,1,59.bmp,-120,-120,60.bmp,120,-120,61.bmp,-120,120,62.bmp,120,120,9807.899999856949,384321.7999999523,7773,yes,SM,C,59.bmp,-120,120,330078,324051,332095,326062,388360.0,382333.0,390375.0,384344.0,4
2,0,1,0,0,1,test,1,0,z,Tue Mar 24 2026 10:43:11 GMT-0500 (Central Daylight Time),404193.39999985695,O,None,2015,5,1,63.bmp,-120,-120,64.bmp,120,-120,65.bmp,-120,120,66.bmp,120,120,10060.5,394132.89999985695,7773,yes,SM,C,64.bmp,120,-120,330078,324051,332095,326062,398172.0,392144.0,400189.0,394159.0,5
3,0,0,1,0,1,test,1,0,z,Tue Mar 24 2026 10:43:11 GMT-0500 (Central Daylight Time),414124.09999990463,O,m,1882,6,1,67.bmp,-120,-120,68.bmp,120,-120,69.bmp,-120,120,70.bmp,120,120,9926.700000047684,404197.39999985695,7773,yes,SM,C,69.bmp,-120,120,330078,324051,332095,326062,408237.0,402209.0,410252.0,404222.0,6
4,0,0,0,1,2,test,1,1,z,Tue Mar 24 2026 10:43:11 GMT-0500 (Central Daylight Time),423487.5,O,z,1301,7,1,71.bmp,-120,-120,72.bmp,120,-120,73.bmp,-120,120,74.bmp,120,120,9360.700000047684,414126.7999999523,7773,yes,SM,C,74.bmp,120,120,330078,324051,332095,326062,418167.0,412138.0,420183.0,414151.0,7
2,0,1,0,0,3,test,1,1,m,Tue Mar 24 2026 10:43:11 GMT-0500 (Central Daylight Time),432801.2999999523,O,m,1251,8,1,75.bmp,-120,-120,76.bmp,120,-120,77.bmp,-120,120,78.bmp,120,120,9310.799999952316,423490.5,7773,yes,SM,C,75.bmp,120,-120,330078,324051,332095,326062,427531.0,421502.0,429546.0,423514.0,8
3,0,0,1,0,4,test,1,1,m,Tue Mar 24 2026 10:43:11 GMT-0500 (Central Daylight Time),442297.2999999523,O,m,1450,9,1,79.bmp,-120,-120,80.bmp,120,-120,81.bmp,-120,120,82.bmp,120,120,9491.900000095367,432805.39999985695,7773,yes,SM,C,80.bmp,-120,120,330078,324051,332095,326062,436842.0,430817.0,438843.0,432827.0,9
4,0,0,0,1,4,test,1,0,z,Tue Mar 24 2026 10:43:11 GMT-0500 (Central Daylight Time),451844.39999985695,O,m,1498,10,1,87.bmp,-120,-120,88.bmp,120,-120,89.bmp,-120,120,90.bmp,120,120,9542.299999952316,442302.09999990463,7773,yes,SM,C,90.bmp,120,120,330078,324051,332095,326062,446340.0,440313.0,448357.0,442326.0,10
3,0,0,1,0,4,test,1,0,z,Tue Mar 24 2026 10:43:11 GMT-0500 (Central Daylight Time),461907.7999999523,O,None,2016,11,1,83.bmp,-120,-120,84.bmp,120,-120,85.bmp,-120,120,86.bmp,120,120,10060.5,451847.2999999523,7773,yes,SM,C,85.bmp,-120,120,330078,324051,332095,326062,455888.0,449858.0,457903.0,451872.0,11
2,0,1,0,0,4,test,1,0,m,Tue Mar 24 2026 10:43:11 GMT-0500 (Central Daylight Time),471970.7999999523,O,None,2016,12,1,91.bmp,-120,-120,92.bmp,120,-120,93.bmp,-120,120,94.bmp,120,120,10057.200000047684,461913.59999990463,7773,yes,SM,C,91.bmp,120,-120,330078,324051,332095,326062,465950.0,459925.0,467966.0,461935.0,12
3,0,0,1,0,5,test,1,1,m,Tue Mar 24 2026 10:43:11 GMT-0500 (Central Daylight Time),481285.0,O,m,1262,13,1,95.bmp,-120,-120,96.bmp,120,-120,97.bmp,-120,120,98.bmp,120,120,9308.200000047684,471976.7999999523,7773,yes,SM,C,96.bmp,-120,120,330078,324051,332095,326062,476015.0,469988.0,478030.0,471999.0,13
1,1,0,0,0,5,test,1,0,z,Tue Mar 24 2026 10:43:11 GMT-0500 (Central Daylight Time),491349.0,O,None,2016,14,1,99.bmp,-120,-120,100.bmp,120,-120,54.bmp,-120,120,51.bmp,120,120,10059.0,481290.0,7773,yes,SM,C,99.bmp,-120,-120,330078,324051,332095,326062,485329.0,479301.0,487343.0,481312.0,14
4,0,0,0,1,6,test,1,1,m,Tue Mar 24 2026 10:43:11 GMT-0500 (Central Daylight Time),500611.5,O,m,1198,15,1,60.bmp,-120,-120,61.bmp,120,-120,62.bmp,-120,120,63.bmp,120,120,9258.5,491353.0,7773,yes,SM,C,61.bmp,120,120,330078,324051,332095,326062,495392.0,489364.0,497408.0,491378.0,15
1,1,0,0,0,7,test,1,1,m,Tue Mar 24 2026 10:43:11 GMT-0500 (Central Daylight Time),509742.2999999523,O,m,1076,16,1,52.bmp,-120,-120,53.bmp,120,-120,54.bmp,-120,120,55.bmp,120,120,9125.200000047684,500617.09999990463,7773,yes,SM,C,55.bmp,-120,-120,330078,324051,332095,326062,504657.0,498628.0,506672.0,500640.0,16
3,0,0,1,0,8,test,1,1,m,Tue Mar 24 2026 10:43:11 GMT-0500 (Central Daylight Time),519389.39999985695,O,m,1586,17,1,72.bmp,-120,-120,73.bmp,120,-120,74.bmp,-120,120,75.bmp,120,120,9642.700000047684,509746.69999980927,7773,yes,SM,C,72.bmp,-120,120,330078,324051,332095,326062,513786.0,507758.0,515802.0,509770.0,17
1,1,0,0,0,9,test,1,1,z,Tue Mar 24 2026 10:43:11 GMT-0500 (Central Daylight Time),528353.6999998093,O,z,923,18,1,56.bmp,-120,-120,57.bmp,120,-120,58.bmp,-120,120,59.bmp,120,120,8960.699999809265,519393.0,7773,yes,SM,C,56.bmp,-120,-120,330078,324051,332095,326062,523432.0,517404.0,525433.0,519418.0,18
2,0,1,0,0,9,test,1,0,z,Tue Mar 24 2026 10:43:11 GMT-0500 (Central Daylight Time),537716.899999857,O,m,1303,19,1,76.bmp,-120,-120,77.bmp,120,-120,78.bmp,-120,120,79.bmp,120,120,9360.200000047684,528356.6999998093,7773,yes,SM,C,77.bmp,120,-120,330078,324051,332095,326062,532397.0,526368.0,534413.0,528382.0,19
3,0,0,1,0,10,test,1,1,z,Tue Mar 24 2026 10:43:11 GMT-0500 (Central Daylight Time),546514.399999857,O,z,740,20,1,80.bmp,-120,-120,81.bmp,120,-120,82.bmp,-120,120,83.bmp,120,120,8793.899999856949,537720.5,7773,yes,SM,C,82.bmp,-120,120,330078,324051,332095,326062,541759.0,535732.0,543777.0,537743.0,20
1,1,0,0,0,11,test,1,1,m,Tue Mar 24 2026 10:43:11 GMT-0500 (Central Daylight Time),555844.399999857,O,m,1265,21,1,64.bmp,-120,-120,65.bmp,120,-120,66.bmp,-120,120,67.bmp,120,120,9327.200000047684,546517.1999998093,7773,yes,SM,C,66.bmp,-120,-120,330078,324051,332095,326062,550557.0,544528.0,552574.0,546543.0,21
4,0,0,0,1,11,test,1,0,z,Tue Mar 24 2026 10:43:11 GMT-0500 (Central Daylight Time),565892.899999857,O,None,2016,22,1,68.bmp,-120,-120,69.bmp,120,-120,70.bmp,-120,120,71.bmp,120,120,10044.700000047684,555848.1999998093,7773,yes,SM,C,71.bmp,120,120,330078,324051,332095,326062,559887.0,553859.0,561888.0,555873.0,22
1,1,0,0,0,12,test,1,1,m,Tue Mar 24 2026 10:43:11 GMT-0500 (Central Daylight Time),575088.5,O,m,1142,23,1,84.bmp,-120,-120,85.bmp,120,-120,86.bmp,-120,120,87.bmp,120,120,9191.5,565897.0,7773,yes,SM,C,87.bmp,-120,-120,330078,324051,332095,326062,569935.0,563908.0,571951.0,565919.0,23
2,0,1,0,0,12,test,1,0,z,Tue Mar 24 2026 10:43:11 GMT-0500 (Central Daylight Time),585153.0,O,None,2017,24,1,92.bmp,-120,-120,93.bmp,120,-120,94.bmp,-120,120,95.bmp,120,120,10061.400000095367,575091.5999999046,7773,yes,SM,C,93.bmp,120,-120,330078,324051,332095,326062,579130.0,573103.0,581147.0,575117.0,24
4,0,0,0,1,13,test,1,1,m,Tue Mar 24 2026 10:43:11 GMT-0500 (Central Daylight Time),594732.0999999046,O,m,1532,25,1,96.bmp,-120,-120,97.bmp,120,-120,98.bmp,-120,120,99.bmp,120,120,9574.299999952316,585157.7999999523,7773,yes,SM,C,98.bmp,120,120,330078,324051,332095,326062,589194.0,583169.0,591210.0,585179.0,25
1,1,0,0,0,14,test,1,1,z,Tue Mar 24 2026 10:43:11 GMT-0500 (Central Daylight Time),603596.1999998093,O,z,805,26,1,88.bmp,-120,-120,89.bmp,120,-120,90.bmp,-120,120,91.bmp,120,120,8857.899999856949,594738.2999999523,7773,yes,SM,C,88.bmp,-120,-120,330078,324051,332095,326062,598776.0,592750.0,600791.0,594760.0,26
4,0,0,0,1,14,test,1,0,z,Tue Mar 24 2026 10:43:11 GMT-0500 (Central Daylight Time),613060.0999999046,O,m,1405,27,1,100.bmp,-120,-120,61.bmp,120,-120,51.bmp,-120,120,52.bmp,120,120,9457.799999952316,603602.2999999523,7773,yes,SM,C,52.bmp,120,120,330078,324051,332095,326062,607641.0,601614.0,609655.0,603624.0,27
3,0,0,1,0,14,test,1,0,m,Tue Mar 24 2026 10:43:11 GMT-0500 (Central Daylight Time),622307.399999857,O,z,1200,28,1,53.bmp,-120,-120,54.bmp,120,-120,55.bmp,-120,120,56.bmp,120,120,9243.099999904633,613064.2999999523,7773,yes,SM,C,53.bmp,-120,120,330078,324051,332095,326062,617104.0,611075.0,619118.0,613087.0,28
2,0,1,0,0,15,test,1,1,z,Tue Mar 24 2026 10:43:11 GMT-0500 (Central Daylight Time),632003.899999857,O,z,1637,29,1,57.bmp,-120,-120,58.bmp,120,-120,59.bmp,-120,120,60.bmp,120,120,9692.599999904633,622311.2999999523,7773,yes,SM,C,58.bmp,120,-120,330078,324051,332095,326062,626351.0,620323.0,628367.0,622335.0,29
3,0,0,1,0,16,test,1,1,z,Tue Mar 24 2026 10:43:11 GMT-0500 (Central Daylight Time),641835.6999998093,O,z,1782,30,1,61.bmp,-120,-120,62.bmp,120,-120,63.bmp,-120,120,64.bmp,120,120,9828.699999809265,632007.0,7773,yes,SM,C,63.bmp,-120,120,330078,324051,332095,326062,636047.0,630018.0,638064.0,632031.0,30
1,1,0,0,0,16,test,1,0,z,Tue Mar 24 2026 10:43:11 GMT-0500 (Central Daylight Time),651898.5,O,None,2015,31,1,65.bmp,-120,-120,66.bmp,120,-120,67.bmp,-120,120,68.bmp,120,120,10057.600000143051,641840.899999857,7773,yes,SM,C,65.bmp,-120,-120,330078,324051,332095,326062,645878.0,639852.0,647894.0,641862.0,31
2,0,1,0,0,17,test,1,1,m,Tue Mar 24 2026 10:43:11 GMT-0500 (Central Daylight Time),661678.0999999046,O,m,1729,32,1,69.bmp,-120,-120,70.bmp,120,-120,71.bmp,-120,120,72.bmp,120,120,9774.5,651903.5999999046,7773,yes,SM,C,69.bmp,120,-120,330078,324051,332095,326062,655941.0,649915.0,657956.0,651927.0,32
4,0,0,0,1,17,test,1,0,z,Tue Mar 24 2026 10:43:11 GMT-0500 (Central Daylight Time),671741.399999857,O,None,2014,33,1,81.bmp,-120,-120,82.bmp,120,-120,83.bmp,-120,120,84.bmp,120,120,10060.200000047684,661681.1999998093,7773,yes,SM,C,84.bmp,120,120,330078,324051,332095,326062,665721.0,659692.0,667738.0,661705.0,33
2,0,1,0,0,17,test,1,0,z,Tue Mar 24 2026 10:43:11 GMT-0500 (Central Daylight Time),681204.6999998093,O,m,1411,34,1,73.bmp,-120,-120,74.bmp,120,-120,75.bmp,-120,120,76.bmp,120,120,9459.799999952316,671744.899999857,7773,yes,SM,C,74.bmp,120,-120,330078,324051,332095,326062,675784.0,669756.0,677801.0,671768.0,34
4,0,0,0,1,17,test,1,0,m,Tue Mar 24 2026 10:43:11 GMT-0500 (Central Daylight Time),691018.399999857,O,z,1759,35,1,77.bmp,-120,-120,78.bmp,120,-120,79.bmp,-120,120,80.bmp,120,120,9809.5,681208.899999857,7773,yes,SM,C,79.bmp,120,120,330078,324051,332095,326062,685247.0,679220.0,687263.0,681233.0,35
3,0,0,1,0,17,test,1,0,m,Tue Mar 24 2026 10:43:11 GMT-0500 (Central Daylight Time),701067.0999999046,O,None,2001,36,1,85.bmp,-120,-120,86.bmp,120,-120,87.bmp,-120,120,88.bmp,120,120,10045.400000095367,691021.6999998093,7773,yes,SM,C,85.bmp,-120,120,330078,324051,332095,326062,695061.0,689033.0,697077.0,691045.0,36
1,1,0,0,0,17,test,1,0,m,Tue Mar 24 2026 10:43:11 GMT-0500 (Central Daylight Time),711112.399999857,O,None,2016,37,1,89.bmp,-120,-120,90.bmp,120,-120,91.bmp,-120,120,92.bmp,120,120,10041.599999904633,701070.7999999523,7773,yes,SM,C,90.bmp,-120,-120,330078,324051,332095,326062,705093.0,699082.0,707107.0,701092.0,37
2,0,1,0,0,17,test,1,0,m,Tue Mar 24 2026 10:43:11 GMT-0500 (Central Daylight Time),721174.5999999046,O,None,2016,38,1,93.bmp,-120,-120,94.bmp,120,-120,95.bmp,-120,120,96.bmp,120,120,10058.799999952316,711115.7999999523,7773,yes,SM,C,95.bmp,120,-120,330078,324051,332095,326062,715153.0,709127.0,717170.0,711139.0,38
4,0,0,0,1,17,test,1,0,z,Tue Mar 24 2026 10:43:11 GMT-0500 (Central Daylight Time),731205.1999998093,O,m,1980,39,1,97.bmp,-120,-120,98.bmp,120,-120,99.bmp,-120,120,100.bmp,120,120,10026.199999809265,721179.0,7773,yes,SM,C,100.bmp,120,120,330078,324051,332095,326062,725217.0,719190.0,727233.0,721204.0,39
3,0,0,1,0,17,test,1,0,m,Tue Mar 24 2026 10:43:11 GMT-0500 (Central Daylight Time),740667.7999999523,O,z,1430,40,1,54.bmp,-120,-120,55.bmp,120,-120,56.bmp,-120,120,57.bmp,120,120,9459.0,731208.7999999523,7773,yes,SM,C,55.bmp,-120,120,330078,324051,332095,326062,735234.0,729220.0,737247.0,731233.0,40
1,1,0,0,0,18,test,1,1,z,Tue Mar 24 2026 10:43:11 GMT-0500 (Central Daylight Time),750001.5,O,z,1277,41,1,58.bmp,-120,-120,59.bmp,120,-120,60.bmp,-120,120,61.bmp,120,120,9330.200000047684,740671.2999999523,7773,yes,SM,C,58.bmp,-120,-120,330078,324051,332095,326062,744711.0,738683.0,746727.0,740696.0,41
4,0,0,0,1,19,test,1,1,z,Tue Mar 24 2026 10:43:11 GMT-0500 (Central Daylight Time),759568.899999857,O,z,1538,42,1,62.bmp,-120,-120,63.bmp,120,-120,64.bmp,-120,120,65.bmp,120,120,9564.599999904633,750004.2999999523,7773,yes,SM,C,65.bmp,120,120,330078,324051,332095,326062,754041.0,748015.0,756042.0,750027.0,42
1,1,0,0,0,20,test,1,1,z,Tue Mar 24 2026 10:43:11 GMT-0500 (Central Daylight Time),769309.6999998093,O,z,1711,43,1,66.bmp,-120,-120,67.bmp,120,-120,68.bmp,-120,120,69.bmp,120,120,9738.899999856949,759570.7999999523,7773,yes,SM,C,66.bmp,-120,-120,330078,324051,332095,326062,763606.0,757582.0,765607.0,759592.0,43
4,0,0,0,1,21,test,1,1,m,Tue Mar 24 2026 10:43:11 GMT-0500 (Central Daylight Time),778742.0,O,m,1372,44,1,54.bmp,-120,-120,51.bmp,120,-120,52.bmp,-120,120,53.bmp,120,120,9429.0,769313.0,7773,yes,SM,C,54.bmp,120,120,330078,324051,332095,326062,773353.0,767324.0,775369.0,769337.0,44
1,1,0,0,0,22,test,1,1,m,Tue Mar 24 2026 10:43:11 GMT-0500 (Central Daylight Time),787988.0,O,m,1184,45,1,78.bmp,-120,-120,79.bmp,120,-120,80.bmp,-120,120,81.bmp,120,120,9243.0,778745.0,7773,yes,SM,C,81.bmp,-120,-120,330078,324051,332095,326062,782783.0,776756.0,784799.0,778767.0,45
1,1,0,0,0,22,test,1,0,m,Tue Mar 24 2026 10:43:11 GMT-0500 (Central Daylight Time),798050.5999999046,O,None,2014,46,1,70.bmp,-120,-120,71.bmp,120,-120,72.bmp,-120,120,73.bmp,120,120,10058.5,787992.0999999046,7773,yes,SM,C,71.bmp,-120,-120,330078,324051,332095,326062,792030.0,786004.0,794047.0,788016.0,46
3,0,0,1,0,22,test,1,0,z,Tue Mar 24 2026 10:43:11 GMT-0500 (Central Daylight Time),808114.5,O,None,2014,47,1,74.bmp,-120,-120,75.bmp,120,-120,76.bmp,-120,120,77.bmp,120,120,10059.100000143051,798055.399999857,7773,yes,SM,C,76.bmp,-120,120,330078,324051,332095,326062,802094.0,796067.0,804111.0,798078.0,47
3,0,0,1,0,22,test,1,0,z,Tue Mar 24 2026 10:43:11 GMT-0500 (Central Daylight Time),817327.6999998093,O,m,1151,48,1,90.bmp,-120,-120,91.bmp,120,-120,92.bmp,-120,120,93.bmp,120,120,9208.899999856949,808118.7999999523,7773,yes,SM,C,92.bmp,-120,120,330078,324051,332095,326062,812157.0,806130.0,814173.0,808142.0,48
2,0,1,0,0,22,test,1,0,z,Tue Mar 24 2026 10:43:11 GMT-0500 (Central Daylight Time),827392.0,O,None,2016,49,1,86.bmp,-120,-120,87.bmp,120,-120,88.bmp,-120,120,89.bmp,120,120,10056.600000143051,817335.399999857,7773,yes,SM,C,87.bmp,120,-120,330078,324051,332095,326062,821370.0,815347.0,823387.0,817355.0,49
3,0,0,1,0,23,test,1,1,m,Tue Mar 24 2026 10:43:11 GMT-0500 (Central Daylight Time),836788.0999999046,O,m,1339,50,1,82.bmp,-120,-120,83.bmp,120,-120,84.bmp,-120,120,85.bmp,120,120,9389.400000095367,827398.6999998093,7773,yes,SM,C,82.bmp,-120,120,330078,324051,332095,326062,831433.0,825410.0,833451.0,827419.0,50
2,0,1,0,0,23,test,1,0,z,Tue Mar 24 2026 10:43:11 GMT-0500 (Central Daylight Time),846851.7999999523,O,None,2016,51,1,94.bmp,-120,-120,95.bmp,120,-120,96.bmp,-120,120,97.bmp,120,120,10059.100000143051,836792.6999998093,7773,yes,SM,C,95.bmp,120,-120,330078,324051,332095,326062,840831.0,834804.0,842847.0,836817.0,51
4,0,0,0,1,23,test,1,0,m,Tue Mar 24 2026 10:43:11 GMT-0500 (Central Daylight Time),856915.5,O,None,2015,52,1,98.bmp,-120,-120,99.bmp,120,-120,100.bmp,-120,120,81.bmp,120,120,10059.800000190735,846855.6999998093,7773,yes,SM,C,98.bmp,120,120,330078,324051,332095,326062,850895.0,844867.0,852911.0,846880.0,52
3,0,0,1,0,24,test,1,1,z,Tue Mar 24 2026 10:43:11 GMT-0500 (Central Daylight Time),866629.0,O,z,1661,53,1,51.bmp,-120,-120,52.bmp,120,-120,53.bmp,-120,120,54.bmp,120,120,9709.300000190735,856919.6999998093,7773,yes,SM,C,53.bmp,-120,120,330078,324051,332095,326062,860959.0,854931.0,862976.0,856943.0,53
1,1,0,0,0,24,test,1,0,m,Tue Mar 24 2026 10:43:11 GMT-0500 (Central Daylight Time),876076.2999999523,O,z,1389,54,1,55.bmp,-120,-120,56.bmp,120,-120,57.bmp,-120,120,58.bmp,120,120,9443.5,866632.7999999523,7773,yes,SM,C,57.bmp,-120,-120,330078,324051,332095,326062,870672.0,864644.0,872687.0,866657.0,54
4,0,0,0,1,24,test,1,0,z,Tue Mar 24 2026 10:43:11 GMT-0500 (Central Daylight Time),885256.5,O,m,1126,55,1,59.bmp,-120,-120,60.bmp,120,-120,61.bmp,-120,120,62.bmp,120,120,9176.100000143051,876080.399999857,7773,yes,SM,C,62.bmp,120,120,330078,324051,332095,326062,880119.0,874092.0,882136.0,876105.0,55
2,0,1,0,0,24,test,1,0,m,Tue Mar 24 2026 10:43:11 GMT-0500 (Central Daylight Time),895319.5999999046,O,None,2015,56,1,63.bmp,-120,-120,64.bmp,120,-120,65.bmp,-120,120,66.bmp,120,120,10060.5,885259.0999999046,7773,yes,SM,C,63.bmp,120,-120,330078,324051,332095,326062,889300.0,883270.0,891316.0,885284.0,56
4,0,0,0,1,25,test,1,1,m,Tue Mar 24 2026 10:43:11 GMT-0500 (Central Daylight Time),905068.0,O,m,1700,57,1,67.bmp,-120,-120,68.bmp,120,-120,69.bmp,-120,120,70.bmp,120,120,9745.0,895323.0,7773,yes,SM,C,68.bmp,120,120,330078,324051,332095,326062,899363.0,893334.0,901379.0,895348.0,57
3,0,0,1,0,25,test,1,0,z,Tue Mar 24 2026 10:43:11 GMT-0500 (Central Daylight Time),915114.0999999046,O,m,1983,58,1,71.bmp,-120,-120,72.bmp,120,-120,73.bmp,-120,120,74.bmp,120,120,10042.599999904633,905071.5,7773,yes,SM,C,73.bmp,-120,120,330078,324051,332095,326062,909110.0,903083.0,911126.0,905094.0,58
2,0,1,0,0,26,test,1,1,m,Tue Mar 24 2026 10:43:11 GMT-0500 (Central Daylight Time),924910.2999999523,O,m,1743,59,1,75.bmp,-120,-120,76.bmp,120,-120,77.bmp,-120,120,78.bmp,120,120,9792.900000095367,915117.399999857,7773,yes,SM,C,78.bmp,120,-120,330078,324051,332095,326062,919156.0,913129.0,921173.0,915141.0,59
1,1,0,0,0,27,test,1,1,z,Tue Mar 24 2026 10:43:11 GMT-0500 (Central Daylight Time),934308.2999999523,O,z,1348,60,1,79.bmp,-120,-120,80.bmp,120,-120,81.bmp,-120,120,82.bmp,120,120,9394.299999952316,924914.0,7773,yes,SM,C,79.bmp,-120,-120,330078,324051,332095,326062,928952.0,922925.0,930970.0,924938.0,60
2,0,1,0,0,28,test,1,1,z,Tue Mar 24 2026 10:43:11 GMT-0500 (Central Daylight Time),944053.7999999523,O,z,1694,61,1,83.bmp,-120,-120,84.bmp,120,-120,85.bmp,-120,120,86.bmp,120,120,9740.900000095367,934312.899999857,7773,yes,SM,C,84.bmp,120,-120,330078,324051,332095,326062,938350.0,932324.0,940366.0,934335.0,61
4,0,0,0,1,28,test,1,0,z,Tue Mar 24 2026 10:43:11 GMT-0500 (Central Daylight Time),954120.0,O,None,2017,62,1,91.bmp,-120,-120,92.bmp,120,-120,93.bmp,-120,120,94.bmp,120,120,10060.100000143051,944059.899999857,7773,yes,SM,C,94.bmp,120,120,330078,324051,332095,326062,948098.0,942071.0,950114.0,944082.0,62
1,1,0,0,0,28,test,1,0,m,Tue Mar 24 2026 10:43:11 GMT-0500 (Central Daylight Time),963931.5,O,z,1756,63,1,95.bmp,-120,-120,96.bmp,120,-120,97.bmp,-120,120,98.bmp,120,120,9805.700000047684,954125.7999999523,7773,yes,SM,C,95.bmp,-120,120,330078,324051,332095,326062,958160.0,952137.0,960176.0,954145.0,63
2,0,1,0,0,28,test,1,0,z,Tue Mar 24 2026 10:43:11 GMT-0500 (Central Daylight Time),973994.7999999523,O,None,2015,64,1,99.bmp,-120,-120,100.bmp,120,-120,62.bmp,-120,120,51.bmp,120,120,10061.400000095367,963933.399999857,7773,yes,SM,C,100.bmp,120,-120,330078,324051,332095,326062,967974.0,961945.0,969991.0,963960.0,64
4,0,0,0,1,29,test,1,1,m,Tue Mar 24 2026 10:43:11 GMT-0500 (Central Daylight Time),983475.2999999523,O,m,1447,65,1,52.bmp,-120,-120,53.bmp,120,-120,54.bmp,-120,120,55.bmp,120,120,9475.799999952316,973999.5,7773,yes,SM,C,54.bmp,120,120,330078,324051,332095,326062,978023.0,972011.0,980038.0,974022.0,65
3,0,0,1,0,30,test,1,1,m,Tue Mar 24 2026 10:43:11 GMT-0500 (Central Daylight Time),993089.899999857,O,m,1549,66,1,56.bmp,-120,-120,57.bmp,120,-120,58.bmp,-120,120,59.bmp,120,120,9609.099999904633,983480.7999999523,7773,yes,SM,C,59.bmp,-120,120,330078,324051,332095,326062,987518.0,981492.0,989535.0,983505.0,66
2,0,1,0,0,31,test,1,1,m,Tue Mar 24 2026 10:43:11 GMT-0500 (Central Daylight Time),1002335.5,O,m,1193,67,1,87.bmp,-120,-120,88.bmp,120,-120,89.bmp,-120,120,90.bmp,120,120,9241.200000047684,993094.2999999523,7773,yes,SM,C,89.bmp,120,-120,330078,324051,332095,326062,997132.0,991106.0,999148.0,993115.0,67
3,0,0,1,0,31,test,1,0,z,Tue Mar 24 2026 10:43:11 GMT-0500 (Central Daylight Time),1012398.399999857,O,None,2014,68,1,60.bmp,-120,-120,61.bmp,120,-120,62.bmp,-120,120,63.bmp,120,120,10060.599999904633,1002337.7999999523,7773,yes,SM,C,62.bmp,-120,120,330078,324051,332095,326062,1006379.0,1000349.0,1008395.0,1002364.0,68
1,1,0,0,0,32,test,1,1,m,Tue Mar 24 2026 10:43:11 GMT-0500 (Central Daylight Time),1021714.399999857,O,m,1267,69,1,64.bmp,-120,-120,65.bmp,120,-120,66.bmp,-120,120,67.bmp,120,120,9314.099999904633,1012400.2999999523,7773,yes,SM,C,65.bmp,-120,-120,330078,324051,332095,326062,1016441.0,1010412.0,1018458.0,1012426.0,69
2,0,1,0,0,33,test,1,1,m,Tue Mar 24 2026 10:43:11 GMT-0500 (Central Daylight Time),1031276.899999857,O,m,1504,70,1,68.bmp,-120,-120,69.bmp,120,-120,70.bmp,-120,120,71.bmp,120,120,9558.899999856949,1021718.0,7773,yes,SM,C,70.bmp,120,-120,330078,324051,332095,326062,1025755.0,1019729.0,1027772.0,1021741.0,70
4,0,0,0,1,34,test,1,1,z,Tue Mar 24 2026 10:43:11 GMT-0500 (Central Daylight Time),1040674.1999998093,O,z,1342,71,1,72.bmp,-120,-120,73.bmp,120,-120,74.bmp,-120,120,75.bmp,120,120,9394.099999904633,1031280.0999999046,7773,yes,SM,C,75.bmp,120,120,330078,324051,332095,326062,1035319.0,1029291.0,1037336.0,1031305.0,71
1,1,0,0,0,34,test,1,0,z,Tue Mar 24 2026 10:43:11 GMT-0500 (Central Daylight Time),1050737.5,O,None,2015,72,1,76.bmp,-120,-120,77.bmp,120,-120,78.bmp,-120,120,79.bmp,120,120,10058.900000095367,1040678.5999999046,7773,yes,SM,C,76.bmp,-120,-120,330078,324051,332095,326062,1044717.0,1038690.0,1046733.0,1040701.0,72
2,0,1,0,0,34,test,1,0,z,Tue Mar 24 2026 10:43:11 GMT-0500 (Central Daylight Time),1060185.899999857,O,m,1385,73,1,80.bmp,-120,-120,81.bmp,120,-120,82.bmp,-120,120,83.bmp,120,120,9443.200000047684,1050742.6999998093,7773,yes,SM,C,81.bmp,120,-120,330078,324051,332095,326062,1054780.0,1048754.0,1056796.0,1050766.0,73
4,0,0,0,1,34,test,1,0,m,Tue Mar 24 2026 10:43:11 GMT-0500 (Central Daylight Time),1070247.399999857,O,None,2015,74,1,84.bmp,-120,-120,85.bmp,120,-120,86.bmp,-120,120,87.bmp,120,120,10057.0,1060190.399999857,7773,yes,SM,C,86.bmp,120,120,330078,324051,332095,326062,1064228.0,1058202.0,1066243.0,1060213.0,74
2,0,1,0,0,34,test,1,0,m,Tue Mar 24 2026 10:43:11 GMT-0500 (Central Daylight Time),1080110.6999998093,O,z,1801,75,1,88.bmp,-120,-120,89.bmp,120,-120,90.bmp,-120,120,91.bmp,120,120,9857.799999952316,1070252.899999857,7773,yes,SM,C,91.bmp,120,-120,330078,324051,332095,326062,1074291.0,1068264.0,1076307.0,1070277.0,75
1,1,0,0,0,35,test,1,1,z,Tue Mar 24 2026 10:43:11 GMT-0500 (Central Daylight Time),1090107.2999999523,O,z,1934,76,1,92.bmp,-120,-120,93.bmp,120,-120,94.bmp,-120,120,95.bmp,120,120,9991.5,1080115.7999999523,7773,yes,SM,C,92.bmp,-120,-120,330078,324051,332095,326062,1084154.0,1078127.0,1086170.0,1080140.0,76
3,0,0,1,0,36,test,1,1,z,Tue Mar 24 2026 10:43:11 GMT-0500 (Central Daylight Time),1099571.5,O,z,1407,77,1,100.bmp,-120,-120,61.bmp,120,-120,51.bmp,-120,120,52.bmp,120,120,9459.700000047684,1090111.7999999523,7773,yes,SM,C,51.bmp,-120,120,330078,324051,332095,326062,1094152.0,1088123.0,1096167.0,1090136.0,77
1,1,0,0,0,37,test,1,1,m,Tue Mar 24 2026 10:43:11 GMT-0500 (Central Daylight Time),1109335.0999999046,O,m,1701,78,1,96.bmp,-120,-120,97.bmp,120,-120,98.bmp,-120,120,99.bmp,120,120,9760.099999904633,1099575.0,7773,yes,SM,C,97.bmp,-120,-120,330078,324051,332095,326062,1103615.0,1097586.0,1105631.0,1099600.0,78
4,0,0,0,1,37,test,1,0,m,Tue Mar 24 2026 10:43:11 GMT-0500 (Central Daylight Time),1119398.1999998093,O,None,2016,79,1,57.bmp,-120,-120,58.bmp,120,-120,59.bmp,-120,120,60.bmp,120,120,10058.399999856949,1109339.7999999523,7773,yes,SM,C,57.bmp,120,120,330078,324051,332095,326062,1113378.0,1107351.0,1115393.0,1109363.0,79
3,0,0,1,0,38,test,1,1,m,Tue Mar 24 2026 10:43:11 GMT-0500 (Central Daylight Time),1128862.5,O,m,1410,80,1,53.bmp,-120,-120,54.bmp,120,-120,55.bmp,-120,120,56.bmp,120,120,9459.900000095367,1119402.5999999046,7773,yes,SM,C,56.bmp,-120,120,330078,324051,332095,326062,1123442.0,1117414.0,1125458.0,1119426.0,80
