acc_sum,block,block_c,condition,correct,correct_response,datetime,endtime,flanker,jitter,project,response,response_test_buffer_response,response_test_target_response,response_time,response_time_test_buffer_response,response_time_test_target_response,row_sel,session_number,start_end,starttime,subject_id,target,task,task_vers,time_test_buffer,time_test_buffer_response,time_test_constants,time_test_flanker,time_test_jitter,time_test_logger,time_test_target,time_test_target_response,time_test_variables,trial
1,prac,1,con,1,z,Mon Aug 25 2025 11:30:53 GMT-0400 (Eastern Daylight Time),91063.7000002861,rage,1000,I,z,,,617,,,15,2,2924.300000190735,88139.40000009537,9021,rage,AF,C,,,,,,,,,,1
2,prac,1,con,1,z,Mon Aug 25 2025 11:30:53 GMT-0400 (Eastern Daylight Time),93746.80000019073,brutal,800,I,z,,,574,,,13,2,2670.5999999046326,91076.2000002861,9021,brutal,AF,C,,,,,,,,,,2
3,prac,1,inc,1,z,Mon Aug 25 2025 11:30:53 GMT-0400 (Eastern Daylight Time),96596.7000002861,rock,900,I,z,,,639,,,10,2,2838.9000000953674,93757.80000019073,9021,kind,AF,C,,,,,,,,,,3
4,prac,1,inc,1,m,Mon Aug 25 2025 11:30:53 GMT-0400 (Eastern Daylight Time),99580.0,brutal,1100,I,m,,,581,,,8,2,2973.199999809265,96606.80000019073,9021,window,AF,C,,,,,,,,,,4
5,prac,1,con,1,m,Mon Aug 25 2025 11:30:53 GMT-0400 (Eastern Daylight Time),102313.5,step,800,I,m,,,635,,,1,2,2722.4000000953674,99591.09999990463,9021,step,AF,C,,,,,,,,,,5
6,prac,1,inc,1,m,Mon Aug 25 2025 11:30:53 GMT-0400 (Eastern Daylight Time),105113.40000009537,elated,900,I,m,,,583,,,6,2,2781.9000000953674,102331.5,9021,napkin,AF,C,,,,,,,,,,6
6,prac,1,inc,0,z,Mon Aug 25 2025 11:30:53 GMT-0400 (Eastern Daylight Time),108079.90000009537,napkin,1100,I,m,,,561,,,12,2,2956.199999809265,105123.7000002861,9021,friend,AF,C,,,,,,,,,,7
7,prac,1,con,1,z,Mon Aug 25 2025 11:30:53 GMT-0400 (Eastern Daylight Time),110763.40000009537,elated,800,I,z,,,566,,,9,2,2674.199999809265,108089.2000002861,9021,elated,AF,C,,,,,,,,,,8
8,prac,1,con,1,z,Mon Aug 25 2025 11:30:53 GMT-0400 (Eastern Daylight Time),113529.90000009537,love,1000,I,z,,,450,,,11,2,2756.5999999046326,110773.30000019073,9021,love,AF,C,,,,,,,,,,9
9,prac,1,con,1,m,Mon Aug 25 2025 11:30:53 GMT-0400 (Eastern Daylight Time),116546.59999990463,remote,1000,I,m,,,707,,,7,2,3006.5999999046326,113540.0,9021,remote,AF,C,,,,,,,,,,10
10,prac,1,con,1,m,Mon Aug 25 2025 11:30:53 GMT-0400 (Eastern Daylight Time),119280.0,bell,1000,I,m,,,426,,,3,2,2723.0999999046326,116556.90000009537,9021,bell,AF,C,,,,,,,,,,11
11,prac,1,inc,1,m,Mon Aug 25 2025 11:30:53 GMT-0400 (Eastern Daylight Time),122063.40000009537,kind,900,I,m,,,578,,,2,2,2774.5999999046326,119288.80000019073,9021,rock,AF,C,,,,,,,,,,12
12,prac,1,inc,1,m,Mon Aug 25 2025 11:30:53 GMT-0400 (Eastern Daylight Time),125063.30000019073,hate,1100,I,m,,,587,,,4,2,2991.0999999046326,122072.2000002861,9021,film,AF,C,,,,,,,,,,13
13,prac,1,inc,1,z,Mon Aug 25 2025 11:30:53 GMT-0400 (Eastern Daylight Time),128280.0,window,1100,I,z,,,803,,,16,2,3208.0999999046326,125071.90000009537,9021,temper,AF,C,,,,,,,,,,14
14,prac,1,inc,1,z,Mon Aug 25 2025 11:30:53 GMT-0400 (Eastern Daylight Time),131096.80000019073,film,900,I,z,,,601,,,14,2,2807.5,128289.30000019073,9021,hate,AF,C,,,,,,,,,,15
15,prac,1,con,1,m,Mon Aug 25 2025 11:30:53 GMT-0400 (Eastern Daylight Time),133746.7000002861,jacket,800,I,m,,,542,,,5,2,2637.6000003814697,131109.09999990463,9021,jacket,AF,C,,,,,,,,,,16
1,test,1,inc,1,z,Mon Aug 25 2025 11:30:53 GMT-0400 (Eastern Daylight Time),152463.40000009537,remote,1000,I,z,z,None,962,763.0,199.0,31,2,2478.0,149985.40000009537,9021,friend,AF,C,146881,146881,145169,146180,145170,147647,146681,146681,147647,1
2,test,1,inc,1,z,Mon Aug 25 2025 11:30:53 GMT-0400 (Eastern Daylight Time),154813.09999990463,film,1100,I,z,z,None,716,516.0,200.0,56,2,2340.5999999046326,152472.5,9021,rage,AF,C,149481,149481,147657,148765,147657,149997,149281,149281,149997,2
3,test,1,con,1,m,Mon Aug 25 2025 11:30:53 GMT-0400 (Eastern Daylight Time),156663.2000002861,window,800,I,m,m,None,504,305.0,199.0,121,2,1841.9000000953674,154821.30000019073,9021,window,AF,C,151531,151531,150005,150815,150006,151847,151331,151331,151847,3
4,test,1,con,1,m,Mon Aug 25 2025 11:30:53 GMT-0400 (Eastern Daylight Time),158730.0,bell,1100,I,m,m,None,419,219.0,200.0,84,2,2057.2999997138977,156672.7000002861,9021,bell,AF,C,153681,153681,151857,152965,151857,153914,153481,153481,153914,4
5,test,1,con,1,m,Mon Aug 25 2025 11:30:53 GMT-0400 (Eastern Daylight Time),161162.90000009537,remote,1100,I,m,m,None,783,584.0,199.0,116,2,2424.0999999046326,158738.80000019073,9021,remote,AF,C,155748,155748,153923,155031,153923,156347,155548,155548,156347,5
6,test,1,inc,1,z,Mon Aug 25 2025 11:30:53 GMT-0400 (Eastern Daylight Time),163496.59999990463,remote,1000,I,z,z,None,787,587.0,200.0,63,2,2328.3999996185303,161168.2000002861,9021,temper,AF,C,158081,158081,156352,157364,156353,158681,157881,157881,158681,6
7,test,1,inc,1,m,Mon Aug 25 2025 11:30:53 GMT-0400 (Eastern Daylight Time),165463.2000002861,rage,800,I,m,m,None,620,421.0,199.0,85,2,1956.2000002861023,163507.0,9021,bell,AF,C,160215,160215,158691,159498,158692,160647,160015,160015,160647,7
8,test,1,con,1,z,Mon Aug 25 2025 11:30:53 GMT-0400 (Eastern Daylight Time),167696.59999990463,rage,1100,I,z,z,None,594,395.0,199.0,52,2,2224.0,165472.59999990463,9021,rage,AF,C,162481,162481,160657,161764,160657,162881,162281,162281,162881,8
9,test,1,inc,1,m,Mon Aug 25 2025 11:30:53 GMT-0400 (Eastern Daylight Time),169913.2000002861,temper,1000,I,m,m,None,668,469.0,199.0,119,2,2208.2000002861023,167705.0,9021,remote,AF,C,164615,164615,162889,163898,162890,165097,164414,164415,165097,9
10,test,1,inc,1,m,Mon Aug 25 2025 11:30:53 GMT-0400 (Eastern Daylight Time),172146.7000002861,friend,1100,I,m,m,None,594,394.0,200.0,128,2,2223.800000190735,169922.90000009537,9021,window,AF,C,166931,166931,165107,166214,165107,167331,166731,166731,167331,10
11,test,1,inc,1,z,Mon Aug 25 2025 11:30:53 GMT-0400 (Eastern Daylight Time),174130.0,step,800,I,z,z,None,642,443.0,199.0,45,2,1973.2999997138977,172156.7000002861,9021,hate,AF,C,168865,168865,167341,168148,167341,169314,168664,168665,169314,11
12,test,1,inc,1,m,Mon Aug 25 2025 11:30:53 GMT-0400 (Eastern Daylight Time),176146.7000002861,brutal,900,I,m,m,None,575,376.0,199.0,102,2,2007.3000001907349,174139.40000009537,9021,jacket,AF,C,170948,170948,169323,170231,169324,171331,170748,170748,171331,12
13,test,1,con,1,m,Mon Aug 25 2025 11:30:53 GMT-0400 (Eastern Daylight Time),178279.5,remote,800,I,m,m,None,787,586.0,201.0,113,2,2119.0,176160.5,9021,remote,AF,C,172866,172866,171344,172148,171345,173464,172665,172665,173464,13
14,test,1,inc,1,z,Mon Aug 25 2025 11:30:53 GMT-0400 (Eastern Daylight Time),180230.0,step,800,I,z,z,None,605,406.0,199.0,13,2,1945.0,178285.0,9021,kind,AF,C,174998,174998,173469,174281,173469,175414,174798,174798,175414,14
15,test,1,inc,1,m,Mon Aug 25 2025 11:30:53 GMT-0400 (Eastern Daylight Time),182179.90000009537,kind,900,I,m,m,None,508,309.0,199.0,86,2,1940.6999998092651,180239.2000002861,9021,bell,AF,C,177048,177048,175423,176331,175424,177364,176848,176848,177364,15
16,test,1,con,1,m,Mon Aug 25 2025 11:30:53 GMT-0400 (Eastern Daylight Time),184130.0,bell,1000,I,m,m,None,409,210.0,199.0,83,2,1940.6999998092651,182189.30000019073,9021,bell,AF,C,179098,179098,177373,178381,177374,179314,178898,178898,179314,16
17,test,1,inc,1,z,Mon Aug 25 2025 11:30:53 GMT-0400 (Eastern Daylight Time),186330.0,remote,1000,I,z,z,None,651,452.0,199.0,39,2,2191.2999997138977,184138.7000002861,9021,brutal,AF,C,181048,181048,179323,180331,179323,181514,180848,180848,181514,17
18,test,1,con,1,z,Mon Aug 25 2025 11:30:53 GMT-0400 (Eastern Daylight Time),188263.30000019073,brutal,800,I,z,z,None,587,388.0,199.0,33,2,1924.5999999046326,186338.7000002861,9021,brutal,AF,C,183048,183048,181523,182331,181523,183447,182848,182848,183447,18
19,test,1,con,1,m,Mon Aug 25 2025 11:30:53 GMT-0400 (Eastern Daylight Time),190230.0,step,800,I,m,m,None,623,423.0,200.0,65,2,1958.5,188271.5,9021,step,AF,C,184981,184981,183456,184264,183456,185414,184781,184781,185414,19
20,test,1,con,1,z,Mon Aug 25 2025 11:30:53 GMT-0400 (Eastern Daylight Time),191980.0,love,800,I,z,z,None,399,200.0,199.0,17,2,1739.7999997138977,190240.2000002861,9021,love,AF,C,186948,186948,185424,186231,185425,187164,186748,186748,187164,20
21,test,1,con,1,m,Mon Aug 25 2025 11:30:53 GMT-0400 (Eastern Daylight Time),194029.59999990463,film,1100,I,m,m,None,414,215.0,199.0,92,2,2039.7999997138977,191989.80000019073,9021,film,AF,C,188998,188998,187174,188281,187174,189214,188798,188798,189214,21
22,test,1,con,1,z,Mon Aug 25 2025 11:30:53 GMT-0400 (Eastern Daylight Time),196096.59999990463,kind,1100,I,z,z,None,427,228.0,199.0,12,2,2056.5999999046326,194040.0,9021,kind,AF,C,191048,191048,189224,190331,189224,191281,190848,190848,191281,22
23,test,1,con,1,m,Mon Aug 25 2025 11:30:53 GMT-0400 (Eastern Daylight Time),198079.90000009537,jacket,1000,I,m,m,None,444,245.0,199.0,99,2,1973.1999998092651,196106.7000002861,9021,jacket,AF,C,193014,193015,191291,192298,191291,193264,192815,192815,193264,23
24,test,1,inc,1,m,Mon Aug 25 2025 11:30:53 GMT-0400 (Eastern Daylight Time),200329.90000009537,hate,1100,I,m,m,None,601,402.0,199.0,72,2,2241.0999999046326,198088.80000019073,9021,step,AF,C,195098,195098,193273,194381,193273,195514,194898,194898,195514,24
25,test,1,inc,1,m,Mon Aug 25 2025 11:30:53 GMT-0400 (Eastern Daylight Time),202246.7000002861,kind,900,I,m,m,None,471,272.0,199.0,70,2,1905.9000000953674,200340.80000019073,9021,step,AF,C,197148,197148,195525,196431,195525,197431,196948,196948,197431,25
26,test,1,con,1,m,Mon Aug 25 2025 11:30:53 GMT-0400 (Eastern Daylight Time),204013.09999990463,rock,800,I,m,m,None,431,231.0,200.0,73,2,1756.7999997138977,202256.30000019073,9021,rock,AF,C,198965,198965,197440,198248,197441,199197,198764,198764,199197,26
27,test,1,inc,1,z,Mon Aug 25 2025 11:30:53 GMT-0400 (Eastern Daylight Time),206130.09999990463,napkin,900,I,z,z,None,677,478.0,199.0,6,2,2108.8999996185303,204021.2000002861,9021,elated,AF,C,200830,200831,199205,200115,199206,201314,200631,200631,201314,27
28,test,1,inc,1,z,Mon Aug 25 2025 11:30:53 GMT-0400 (Eastern Daylight Time),208413.0,window,1100,I,z,z,None,647,448.0,199.0,64,2,2274.5999999046326,206138.40000009537,9021,temper,AF,C,203148,203148,201322,202431,201323,203597,202948,202948,203597,28
29,test,1,con,1,z,Mon Aug 25 2025 11:30:53 GMT-0400 (Eastern Daylight Time),210263.40000009537,temper,800,I,z,z,None,505,305.0,200.0,57,2,1842.5999999046326,208420.80000019073,9021,temper,AF,C,205131,205131,203605,204414,203605,205447,204931,204931,205447,29
30,test,1,inc,1,m,Mon Aug 25 2025 11:30:53 GMT-0400 (Eastern Daylight Time),212263.30000019073,love,1000,I,m,m,None,455,255.0,200.0,87,2,1991.2000002861023,210272.09999990463,9021,bell,AF,C,207181,207181,205456,206465,205456,207447,206981,206981,207447,30
31,test,1,inc,1,m,Mon Aug 25 2025 11:30:53 GMT-0400 (Eastern Daylight Time),214196.7000002861,elated,800,I,m,m,None,591,391.0,200.0,109,2,1925.1000003814697,212271.59999990463,9021,napkin,AF,C,208981,208981,207456,208264,207456,209381,208781,208781,209381,31
32,test,1,con,1,z,Mon Aug 25 2025 11:30:53 GMT-0400 (Eastern Daylight Time),216263.30000019073,love,900,I,z,z,None,623,423.0,200.0,18,2,2057.9000000953674,214205.40000009537,9021,love,AF,C,211014,211014,209389,210298,209390,211447,210814,210814,211447,32
32,test,1,con,0,z,Mon Aug 25 2025 11:30:53 GMT-0400 (Eastern Daylight Time),218313.2000002861,temper,900,I,m,m,None,603,403.0,200.0,58,2,2040.4000000953674,216272.80000019073,9021,temper,AF,C,213081,213081,211457,212364,211457,213497,212881,212881,213497,33
33,test,1,inc,1,z,Mon Aug 25 2025 11:30:53 GMT-0400 (Eastern Daylight Time),220313.30000019073,jacket,800,I,z,z,None,635,436.0,199.0,61,2,1983.5,218329.80000019073,9021,temper,AF,C,215048,215048,213514,214331,213515,215497,214848,214848,215497,34
34,test,1,inc,1,z,Mon Aug 25 2025 11:30:53 GMT-0400 (Eastern Daylight Time),222413.09999990463,napkin,900,I,z,z,None,666,466.0,200.0,38,2,2090.7999997138977,220322.30000019073,9021,brutal,AF,C,217131,217131,215506,216414,215507,217597,216931,216931,217597,35
35,test,1,inc,1,m,Mon Aug 25 2025 11:30:53 GMT-0400 (Eastern Daylight Time),224596.59999990463,kind,900,I,m,m,None,741,541.0,200.0,94,2,2172.0999999046326,222424.5,9021,film,AF,C,219231,219231,217609,218514,217609,219781,219031,219031,219781,36
36,test,1,con,1,m,Mon Aug 25 2025 11:30:53 GMT-0400 (Eastern Daylight Time),226563.30000019073,film,1000,I,m,m,None,425,226.0,199.0,91,2,1957.5,224605.80000019073,9021,film,AF,C,221514,221515,219790,220798,219790,221748,221314,221315,221747,37
36,test,1,inc,0,z,Mon Aug 25 2025 11:30:53 GMT-0400 (Eastern Daylight Time),228446.30000019073,napkin,900,I,m,m,None,447,247.0,200.0,62,2,1874.8000001907349,226571.5,9021,temper,AF,C,223381,223381,221756,222664,221756,223630,223181,223181,223630,38
37,test,1,con,1,z,Mon Aug 25 2025 11:30:53 GMT-0400 (Eastern Daylight Time),230397.2000002861,rage,800,I,z,z,None,617,417.0,200.0,49,2,1941.2000002861023,228456.0,9021,rage,AF,C,225164,225164,223640,224448,223640,225581,224964,224964,225581,39
38,test,1,inc,1,m,Mon Aug 25 2025 11:30:53 GMT-0400 (Eastern Daylight Time),232397.09999990463,brutal,900,I,m,m,None,566,367.0,199.0,110,2,1991.8999996185303,230405.2000002861,9021,napkin,AF,C,227214,227214,225589,226498,225590,227581,227014,227015,227581,40
39,test,1,inc,1,m,Mon Aug 25 2025 11:30:53 GMT-0400 (Eastern Daylight Time),234713.30000019073,hate,1100,I,m,m,None,669,469.0,200.0,88,2,2308.5999999046326,232404.7000002861,9021,bell,AF,C,229414,229415,227589,228698,227589,229897,229214,229214,229897,41
40,test,1,inc,1,m,Mon Aug 25 2025 11:30:53 GMT-0400 (Eastern Daylight Time),236596.59999990463,rage,800,I,m,m,None,542,342.0,200.0,93,2,1872.0999999046326,234724.5,9021,film,AF,C,231431,231431,229909,230714,229909,231781,231231,231231,231781,42
41,test,1,inc,1,m,Mon Aug 25 2025 11:30:53 GMT-0400 (Eastern Daylight Time),238663.40000009537,love,1000,I,m,m,None,521,322.0,199.0,79,2,2056.9000000953674,236606.5,9021,rock,AF,C,233514,233514,231791,232798,231791,233847,233314,233315,233847,43
42,test,1,con,1,m,Mon Aug 25 2025 11:30:53 GMT-0400 (Eastern Daylight Time),240663.30000019073,napkin,800,I,m,m,None,655,455.0,200.0,105,2,1991.3000001907349,238672.0,9021,napkin,AF,C,235381,235381,233856,234664,233856,235847,235181,235181,235847,44
43,test,1,con,1,m,Mon Aug 25 2025 11:30:53 GMT-0400 (Eastern Daylight Time),242412.80000019073,bell,800,I,m,m,None,415,215.0,200.0,81,2,1740.5999999046326,240672.2000002861,9021,bell,AF,C,237381,237381,235856,236664,235856,237597,237181,237181,237597,45
44,test,1,con,1,m,Mon Aug 25 2025 11:30:53 GMT-0400 (Eastern Daylight Time),244480.0,window,1100,I,m,m,None,430,229.0,201.0,124,2,2057.7999997138977,242422.2000002861,9021,window,AF,C,239431,239431,237606,238714,237607,239664,239230,239230,239664,46
44,test,1,con,0,z,Mon Aug 25 2025 11:30:53 GMT-0400 (Eastern Daylight Time),246463.2000002861,friend,1000,I,m,m,None,445,246.0,199.0,27,2,1973.3000001907349,244489.90000009537,9021,friend,AF,C,241398,241398,239674,240681,239674,241647,241198,241198,241647,47
45,test,1,inc,1,m,Mon Aug 25 2025 11:30:53 GMT-0400 (Eastern Daylight Time),248613.30000019073,love,1000,I,m,m,None,608,408.0,200.0,71,2,2141.0999999046326,246472.2000002861,9021,step,AF,C,243381,243381,241656,242664,241657,243797,243181,243181,243797,48
46,test,1,inc,1,m,Mon Aug 25 2025 11:30:53 GMT-0400 (Eastern Daylight Time),250496.59999990463,elated,800,I,m,m,None,544,345.0,199.0,125,2,1874.5,248622.09999990463,9021,window,AF,C,245330,245331,243806,244614,243806,245681,245131,245131,245681,49
47,test,1,inc,1,m,Mon Aug 25 2025 11:30:53 GMT-0400 (Eastern Daylight Time),252829.90000009537,friend,1100,I,m,m,None,697,498.0,199.0,120,2,2324.0,250505.90000009537,9021,remote,AF,C,247514,247514,245690,246798,245690,248014,247315,247315,248014,50
48,test,1,con,1,m,Mon Aug 25 2025 11:30:53 GMT-0400 (Eastern Daylight Time),254680.0,remote,900,I,m,m,None,403,204.0,199.0,114,2,1842.0,252838.0,9021,remote,AF,C,249648,249648,248022,248931,248022,249864,249448,249448,249864,51
49,test,1,inc,1,z,Mon Aug 25 2025 11:30:53 GMT-0400 (Eastern Daylight Time),256946.7000002861,window,1100,I,z,z,None,625,426.0,199.0,40,2,2257.5,254689.2000002861,9021,brutal,AF,C,251698,251698,249873,250981,249873,252131,251498,251498,252131,52
50,test,1,inc,1,m,Mon Aug 25 2025 11:30:53 GMT-0400 (Eastern Daylight Time),259146.7000002861,friend,1100,I,m,m,None,551,352.0,199.0,104,2,2190.300000190735,256956.40000009537,9021,jacket,AF,C,253964,253965,252140,253248,252141,254331,253764,253765,254331,53
51,test,1,inc,1,m,Mon Aug 25 2025 11:30:53 GMT-0400 (Eastern Daylight Time),261363.30000019073,temper,1000,I,m,m,None,674,475.0,199.0,127,2,2207.0,259156.30000019073,9021,window,AF,C,256064,256065,254340,255348,254341,256547,255865,255865,256547,54
52,test,1,con,1,m,Mon Aug 25 2025 11:30:53 GMT-0400 (Eastern Daylight Time),263396.7000002861,rock,1000,I,m,m,None,492,292.0,200.0,75,2,2024.9000000953674,261371.80000019073,9021,rock,AF,C,258281,258281,256556,257564,256556,258581,258081,258081,258581,55
53,test,1,con,1,m,Mon Aug 25 2025 11:30:53 GMT-0400 (Eastern Daylight Time),265363.30000019073,napkin,1000,I,m,m,None,424,225.0,199.0,107,2,1956.7000002861023,263406.59999990463,9021,napkin,AF,C,260315,260315,258591,259598,258591,260547,260114,260115,260547,56
54,test,1,inc,1,m,Mon Aug 25 2025 11:30:53 GMT-0400 (Eastern Daylight Time),267163.40000009537,rage,800,I,m,m,None,433,234.0,199.0,77,2,1783.6999998092651,265379.7000002861,9021,rock,AF,C,262098,262098,260564,261381,260564,262347,261898,261898,262347,57
55,test,1,con,1,z,Mon Aug 25 2025 11:30:53 GMT-0400 (Eastern Daylight Time),269446.59999990463,friend,1100,I,z,z,None,639,440.0,199.0,28,2,2272.699999809265,267173.90000009537,9021,friend,AF,C,264180,264181,262358,263464,262358,264631,263981,263981,264631,58
55,test,1,con,0,z,Mon Aug 25 2025 11:30:53 GMT-0400 (Eastern Daylight Time),271563.40000009537,rage,900,I,m,m,None,666,467.0,199.0,50,2,2107.699999809265,269455.7000002861,9021,rage,AF,C,266265,266265,264640,265547,264640,266747,266065,266065,266747,59
56,test,1,con,1,z,Mon Aug 25 2025 11:30:53 GMT-0400 (Eastern Daylight Time),273596.59999990463,kind,900,I,z,z,None,584,384.0,200.0,10,2,2022.3999996185303,271574.2000002861,9021,kind,AF,C,268381,268381,266758,267664,266759,268781,268181,268181,268781,60
57,test,1,inc,1,m,Mon Aug 25 2025 11:30:53 GMT-0400 (Eastern Daylight Time),275713.40000009537,hate,1100,I,m,m,None,477,278.0,199.0,80,2,2102.199999809265,273611.2000002861,9021,rock,AF,C,270614,270614,268795,269898,268796,270897,270415,270415,270897,61
58,test,1,con,1,z,Mon Aug 25 2025 11:30:53 GMT-0400 (Eastern Daylight Time),277880.0,temper,1000,I,z,z,None,621,421.0,200.0,59,2,2158.4000000953674,275721.59999990463,9021,temper,AF,C,272631,272631,270906,271914,270906,273064,272431,272431,273064,62
59,test,1,inc,1,z,Mon Aug 25 2025 11:30:53 GMT-0400 (Eastern Daylight Time),280013.40000009537,rock,900,I,z,z,None,683,484.0,199.0,46,2,2122.300000190735,277891.09999990463,9021,hate,AF,C,274697,274697,273075,273981,273075,275197,274498,274498,275197,63
60,test,1,inc,1,m,Mon Aug 25 2025 11:30:53 GMT-0400 (Eastern Daylight Time),282196.59999990463,friend,1100,I,m,m,None,541,341.0,200.0,112,2,2174.2999997138977,280022.30000019073,9021,napkin,AF,C,277031,277031,275206,276314,275207,277381,276831,276831,277381,64
61,test,1,inc,1,z,Mon Aug 25 2025 11:30:53 GMT-0400 (Eastern Daylight Time),284213.40000009537,rock,900,I,z,z,None,574,374.0,200.0,54,2,2007.3000001907349,282206.09999990463,9021,rage,AF,C,279015,279015,277390,278298,277390,279398,278814,278814,279397,65
62,test,1,inc,1,z,Mon Aug 25 2025 11:30:53 GMT-0400 (Eastern Daylight Time),286280.09999990463,rock,900,I,z,z,None,622,422.0,200.0,14,2,2057.0999999046326,284223.0,9021,kind,AF,C,281031,281031,279407,280315,279407,281464,280831,280831,281464,66
63,test,1,inc,1,z,Mon Aug 25 2025 11:30:53 GMT-0400 (Eastern Daylight Time),288429.80000019073,bell,1000,I,z,z,None,614,415.0,199.0,55,2,2141.0,286288.80000019073,9021,rage,AF,C,283198,283198,281473,282481,281473,283614,282998,282998,283614,67
64,test,1,con,1,z,Mon Aug 25 2025 11:30:53 GMT-0400 (Eastern Daylight Time),290413.5,rage,1000,I,z,z,None,432,233.0,199.0,51,2,1974.7999997138977,288438.7000002861,9021,rage,AF,C,285348,285348,283623,284631,283623,285598,285148,285148,285597,68
65,test,1,con,1,m,Mon Aug 25 2025 11:30:53 GMT-0400 (Eastern Daylight Time),292313.30000019073,jacket,900,I,m,m,None,452,253.0,199.0,98,2,1888.5999999046326,290424.7000002861,9021,jacket,AF,C,287231,287231,285609,286514,285609,287497,287031,287031,287497,69
66,test,1,con,1,m,Mon Aug 25 2025 11:30:53 GMT-0400 (Eastern Daylight Time),294163.40000009537,window,900,I,m,m,None,410,210.0,200.0,122,2,1839.0999999046326,292324.30000019073,9021,window,AF,C,289131,289131,287508,288414,287509,289347,288931,288931,289347,70
67,test,1,inc,1,z,Mon Aug 25 2025 11:30:53 GMT-0400 (Eastern Daylight Time),296429.80000019073,film,1100,I,z,z,None,632,432.0,200.0,48,2,2257.5999999046326,294172.2000002861,9021,hate,AF,C,291181,291181,289356,290464,289357,291614,290981,290981,291614,71
68,test,1,inc,1,m,Mon Aug 25 2025 11:30:53 GMT-0400 (Eastern Daylight Time),298396.90000009537,rage,800,I,m,m,None,631,432.0,199.0,69,2,1958.1999998092651,296438.7000002861,9021,step,AF,C,293148,293148,291623,292431,291623,293581,292948,292948,293581,72
69,test,1,con,1,m,Mon Aug 25 2025 11:30:53 GMT-0400 (Eastern Daylight Time),300230.0,jacket,800,I,m,m,None,490,290.0,200.0,97,2,1825.1999998092651,298404.80000019073,9021,jacket,AF,C,295115,295115,293589,294398,293589,295414,294914,294914,295414,73
70,test,1,con,1,m,Mon Aug 25 2025 11:30:53 GMT-0400 (Eastern Daylight Time),302213.40000009537,window,1000,I,m,m,None,441,241.0,200.0,123,2,1973.0999999046326,300240.30000019073,9021,window,AF,C,297148,297148,295424,296431,295425,297398,296947,296947,297397,74
71,test,1,con,1,z,Mon Aug 25 2025 11:30:53 GMT-0400 (Eastern Daylight Time),304280.0,love,1100,I,z,z,None,421,221.0,200.0,20,2,2055.5999999046326,302224.40000009537,9021,love,AF,C,299231,299231,297408,298514,297409,299464,299031,299031,299464,75
72,test,1,con,1,z,Mon Aug 25 2025 11:30:53 GMT-0400 (Eastern Daylight Time),306029.80000019073,friend,800,I,z,z,None,413,214.0,199.0,25,2,1740.5,304289.30000019073,9021,friend,AF,C,300998,300998,299473,300281,299474,301214,300798,300798,301214,76
73,test,1,inc,1,m,Mon Aug 25 2025 11:30:53 GMT-0400 (Eastern Daylight Time),308296.7000002861,hate,1100,I,m,m,None,619,420.0,199.0,96,2,2258.4000000953674,306038.30000019073,9021,film,AF,C,303048,303048,301222,302331,301223,303481,302848,302848,303481,77
74,test,1,inc,1,m,Mon Aug 25 2025 11:30:53 GMT-0400 (Eastern Daylight Time),310213.30000019073,elated,800,I,m,m,None,573,374.0,199.0,101,2,1906.9000000953674,308306.40000009537,9021,jacket,AF,C,305014,305014,303490,304298,303491,305397,304815,304815,305397,78
75,test,1,inc,1,z,Mon Aug 25 2025 11:30:53 GMT-0400 (Eastern Daylight Time),312280.0,bell,1000,I,z,z,None,522,322.0,200.0,23,2,2057.4000000953674,310222.59999990463,9021,love,AF,C,307131,307131,305407,306414,305407,307464,306931,306931,307464,79
76,test,1,con,1,m,Mon Aug 25 2025 11:30:53 GMT-0400 (Eastern Daylight Time),314496.5,jacket,1100,I,m,m,None,578,379.0,199.0,100,2,2208.0999999046326,312288.40000009537,9021,jacket,AF,C,309298,309298,307472,308581,307473,309681,309098,309098,309681,80
77,test,1,con,1,m,Mon Aug 25 2025 11:30:53 GMT-0400 (Eastern Daylight Time),316580.09999990463,rock,1100,I,m,m,None,441,242.0,199.0,76,2,2074.0999999046326,314506.0,9021,rock,AF,C,311515,311515,309690,310798,309690,311764,311315,311315,311764,81
78,test,1,inc,1,z,Mon Aug 25 2025 11:30:53 GMT-0400 (Eastern Daylight Time),318397.0,step,800,I,z,z,None,483,283.0,200.0,21,2,1808.2999997138977,316588.7000002861,9021,love,AF,C,313298,313298,311773,312581,311773,313581,313097,313097,313581,82
79,test,1,con,1,m,Mon Aug 25 2025 11:30:53 GMT-0400 (Eastern Daylight Time),320446.40000009537,film,900,I,m,m,None,613,414.0,199.0,90,2,2037.5999999046326,318408.80000019073,9021,film,AF,C,315214,315214,313593,314498,313593,315631,315015,315015,315630,83
80,test,1,con,1,m,Mon Aug 25 2025 11:30:53 GMT-0400 (Eastern Daylight Time),322446.40000009537,bell,900,I,m,m,None,563,364.0,199.0,82,2,1989.5999999046326,320456.80000019073,9021,bell,AF,C,317264,317265,315641,316548,315641,317630,317065,317065,317630,84
81,test,1,con,1,z,Mon Aug 25 2025 11:30:53 GMT-0400 (Eastern Daylight Time),324429.90000009537,hate,1000,I,z,z,None,448,248.0,200.0,43,2,1974.5,322455.40000009537,9021,hate,AF,C,319365,319365,317639,318648,317640,319614,319164,319164,319614,85
82,test,1,inc,1,m,Mon Aug 25 2025 11:30:53 GMT-0400 (Eastern Daylight Time),326396.7000002861,elated,800,I,m,m,None,616,417.0,199.0,117,2,1957.3000001907349,324439.40000009537,9021,remote,AF,C,321148,321148,319623,320431,319624,321581,320948,320948,321581,86
83,test,1,inc,1,z,Mon Aug 25 2025 11:30:53 GMT-0400 (Eastern Daylight Time),328397.0,rock,900,I,z,z,None,565,350.0,215.0,22,2,1991.1999998092651,326405.80000019073,9021,love,AF,C,323230,323231,321590,322498,321590,323581,323014,323015,323581,87
84,test,1,inc,1,z,Mon Aug 25 2025 11:30:53 GMT-0400 (Eastern Daylight Time),330613.5,remote,1000,I,z,z,None,673,474.0,199.0,7,2,2205.4000000953674,328408.09999990463,9021,elated,AF,C,325314,325315,323592,324598,323592,325798,325115,325115,325797,88
85,test,1,inc,1,z,Mon Aug 25 2025 11:30:53 GMT-0400 (Eastern Daylight Time),332513.40000009537,step,800,I,z,z,None,562,362.0,200.0,53,2,1890.5999999046326,330622.80000019073,9021,rage,AF,C,327331,327331,325807,326615,325807,327697,327131,327131,327697,89
86,test,1,inc,1,z,Mon Aug 25 2025 11:30:53 GMT-0400 (Eastern Daylight Time),334546.59999990463,bell,1000,I,z,z,None,493,293.0,200.0,47,2,2023.3999996185303,332523.2000002861,9021,hate,AF,C,329431,329431,327707,328714,327708,329731,329231,329231,329731,90
87,test,1,con,1,z,Mon Aug 25 2025 11:30:53 GMT-0400 (Eastern Daylight Time),336680.09999990463,friend,900,I,z,z,None,687,488.0,199.0,26,2,2125.199999809265,334554.90000009537,9021,friend,AF,C,331365,331365,329739,330648,329739,331864,331165,331165,331864,91
87,test,1,con,0,z,Mon Aug 25 2025 11:30:53 GMT-0400 (Eastern Daylight Time),338630.09999990463,hate,900,I,m,m,None,506,307.0,199.0,42,2,1939.5999999046326,336690.5,9021,hate,AF,C,333498,333498,331875,332781,331875,333814,333298,333298,333814,92
88,test,1,con,1,z,Mon Aug 25 2025 11:30:53 GMT-0400 (Eastern Daylight Time),340713.40000009537,brutal,1000,I,z,z,None,535,320.0,215.0,35,2,2074.5999999046326,338638.80000019073,9021,brutal,AF,C,335564,335565,333823,334831,333823,335898,335349,335349,335897,93
89,test,1,con,1,z,Mon Aug 25 2025 11:30:53 GMT-0400 (Eastern Daylight Time),342596.80000019073,brutal,900,I,z,z,None,442,242.0,200.0,34,2,1874.5999999046326,340722.2000002861,9021,brutal,AF,C,337531,337531,335906,336815,335907,337781,337331,337331,337781,94
90,test,1,con,1,z,Mon Aug 25 2025 11:30:53 GMT-0400 (Eastern Daylight Time),344763.40000009537,hate,1100,I,z,z,None,516,317.0,199.0,44,2,2158.800000190735,342604.59999990463,9021,hate,AF,C,339615,339615,337789,338898,337789,339947,339415,339415,339947,95
91,test,1,con,1,m,Mon Aug 25 2025 11:30:53 GMT-0400 (Eastern Daylight Time),346680.0,rock,900,I,m,m,None,472,272.0,200.0,74,2,1908.5,344771.5,9021,rock,AF,C,341581,341581,339956,340864,339956,341864,341381,341381,341864,96
92,test,1,con,1,m,Mon Aug 25 2025 11:30:53 GMT-0400 (Eastern Daylight Time),348613.40000009537,step,900,I,m,m,None,508,308.0,200.0,66,2,1925.0999999046326,346688.30000019073,9021,step,AF,C,343481,343481,341872,342780,341873,343797,343281,343281,343797,97
93,test,1,con,1,z,Mon Aug 25 2025 11:30:53 GMT-0400 (Eastern Daylight Time),350563.7000002861,kind,1000,I,z,z,None,410,210.0,200.0,11,2,1942.1000003814697,348621.59999990463,9021,kind,AF,C,345531,345531,343806,344815,343806,345748,345331,345331,345748,98
94,test,1,con,1,m,Mon Aug 25 2025 11:30:53 GMT-0400 (Eastern Daylight Time),352663.40000009537,step,1100,I,m,m,None,455,255.0,200.0,68,2,2094.300000190735,350569.09999990463,9021,step,AF,C,347582,347582,345753,346865,345753,347847,347381,347381,347847,99
95,test,1,inc,1,m,Mon Aug 25 2025 11:30:53 GMT-0400 (Eastern Daylight Time),354763.40000009537,temper,1000,I,m,m,None,551,351.0,200.0,103,2,2085.5,352677.90000009537,9021,jacket,AF,C,349581,349581,347862,348865,347863,349948,349381,349381,349947,100
96,test,1,con,1,z,Mon Aug 25 2025 11:30:53 GMT-0400 (Eastern Daylight Time),356763.40000009537,elated,1100,I,z,z,None,351,151.0,200.0,4,2,1991.3000001907349,354772.09999990463,9021,elated,AF,C,351781,351781,349956,351064,349956,351948,351581,351581,351947,101
97,test,1,con,1,z,Mon Aug 25 2025 11:30:53 GMT-0400 (Eastern Daylight Time),358796.59999990463,love,1000,I,z,z,None,484,284.0,200.0,19,2,2024.6999998092651,356771.90000009537,9021,love,AF,C,353681,353681,351956,352964,351956,353981,353481,353481,353981,102
97,test,1,con,0,m,Mon Aug 25 2025 11:30:53 GMT-0400 (Eastern Daylight Time),360863.30000019073,remote,1000,I,z,z,None,531,331.0,200.0,115,2,2056.5999999046326,358806.7000002861,9021,remote,AF,C,355714,355714,353991,354998,353991,356047,355514,355514,356047,103
98,test,1,con,1,z,Mon Aug 25 2025 11:30:53 GMT-0400 (Eastern Daylight Time),362913.40000009537,temper,1100,I,z,z,None,411,211.0,200.0,60,2,2041.3000001907349,360872.09999990463,9021,temper,AF,C,357881,357882,356056,357164,356056,358098,357681,357681,358097,104
99,test,1,inc,1,z,Mon Aug 25 2025 11:30:53 GMT-0400 (Eastern Daylight Time),365197.0,window,1100,I,z,z,None,650,450.0,200.0,32,2,2273.9000000953674,362923.09999990463,9021,friend,AF,C,359931,359931,358107,359214,358107,360381,359731,359731,360381,105
100,test,1,con,1,z,Mon Aug 25 2025 11:30:53 GMT-0400 (Eastern Daylight Time),367346.90000009537,hate,800,I,z,z,None,810,610.0,200.0,41,2,2142.199999809265,365204.7000002861,9021,hate,AF,C,361915,361915,360389,361198,360389,362531,361714,361714,362531,106
101,test,1,con,1,m,Mon Aug 25 2025 11:30:53 GMT-0400 (Eastern Daylight Time),369330.09999990463,napkin,900,I,m,m,None,544,344.0,200.0,106,2,1972.0999999046326,367358.0,9021,napkin,AF,C,364164,364165,362542,363448,362542,364514,363964,363964,364514,107
102,test,1,con,1,z,Mon Aug 25 2025 11:30:53 GMT-0400 (Eastern Daylight Time),371696.7000002861,brutal,1100,I,z,z,None,728,529.0,199.0,36,2,2358.300000190735,369338.40000009537,9021,brutal,AF,C,366348,366348,364522,365631,364523,366881,366148,366148,366881,108
103,test,1,inc,1,z,Mon Aug 25 2025 11:30:53 GMT-0400 (Eastern Daylight Time),373929.90000009537,film,1100,I,z,z,None,586,387.0,199.0,16,2,2225.199999809265,371704.7000002861,9021,kind,AF,C,368714,368714,366889,367998,366889,369114,368514,368515,369114,109
104,test,1,inc,1,m,Mon Aug 25 2025 11:30:53 GMT-0400 (Eastern Daylight Time),375963.5,brutal,900,I,m,m,None,584,385.0,199.0,118,2,2023.2999997138977,373940.2000002861,9021,remote,AF,C,370747,370747,369124,370031,369125,371148,370548,370548,371147,110
105,test,1,con,1,z,Mon Aug 25 2025 11:30:53 GMT-0400 (Eastern Daylight Time),377746.7000002861,elated,800,I,z,z,None,444,244.0,200.0,1,2,1774.5,375972.2000002861,9021,elated,AF,C,372681,372681,371156,371964,371157,372931,372481,372481,372931,111
106,test,1,inc,1,z,Mon Aug 25 2025 11:30:53 GMT-0400 (Eastern Daylight Time),379996.59999990463,jacket,800,I,z,z,None,884,684.0,200.0,29,2,2234.5999999046326,377762.0,9021,friend,AF,C,374481,374481,372946,373764,372947,375181,374281,374281,375181,112
107,test,1,inc,1,z,Mon Aug 25 2025 11:30:53 GMT-0400 (Eastern Daylight Time),382146.7000002861,bell,1000,I,z,z,None,610,410.0,200.0,15,2,2141.5,380005.2000002861,9021,kind,AF,C,376915,376915,375189,376198,375190,377331,376714,376714,377331,113
108,test,1,con,1,m,Mon Aug 25 2025 11:30:53 GMT-0400 (Eastern Daylight Time),384063.2000002861,film,800,I,m,m,None,580,381.0,199.0,89,2,1908.1000003814697,382155.09999990463,9021,film,AF,C,378864,378864,377339,378148,377339,379247,378665,378665,379247,114
109,test,1,inc,1,m,Mon Aug 25 2025 11:30:53 GMT-0400 (Eastern Daylight Time),386046.40000009537,brutal,900,I,m,m,None,546,347.0,199.0,126,2,1973.9000000953674,384072.5,9021,window,AF,C,380881,380881,379257,380164,379257,381231,380681,380681,381230,115
110,test,1,inc,1,m,Mon Aug 25 2025 11:30:53 GMT-0400 (Eastern Daylight Time),388113.40000009537,love,1000,I,m,m,None,527,328.0,199.0,95,2,2056.0999999046326,386057.30000019073,9021,film,AF,C,382965,382965,381241,382248,381242,383298,382765,382765,383297,116
111,test,1,con,1,m,Mon Aug 25 2025 11:30:53 GMT-0400 (Eastern Daylight Time),390113.40000009537,step,1000,I,m,m,None,462,262.0,200.0,67,2,1991.4000000953674,388122.0,9021,step,AF,C,385031,385031,383306,384315,383306,385298,384831,384831,385297,117
112,test,1,inc,1,z,Mon Aug 25 2025 11:30:53 GMT-0400 (Eastern Daylight Time),392330.2000002861,film,1100,I,z,z,None,571,370.0,201.0,24,2,2209.0,390121.2000002861,9021,love,AF,C,387131,387131,385305,386414,385305,387514,386930,386930,387514,118
113,test,1,con,1,m,Mon Aug 25 2025 11:30:53 GMT-0400 (Eastern Daylight Time),394563.40000009537,napkin,1100,I,m,m,None,592,393.0,199.0,108,2,2224.4000000953674,392339.0,9021,napkin,AF,C,389348,389348,387523,388631,387523,389748,389148,389148,389747,119
114,test,1,inc,1,m,Mon Aug 25 2025 11:30:53 GMT-0400 (Eastern Daylight Time),396546.7000002861,kind,900,I,m,m,None,544,344.0,200.0,78,2,1975.1000003814697,394571.59999990463,9021,rock,AF,C,391381,391381,389756,390665,389756,391731,391181,391181,391731,120
115,test,1,con,1,z,Mon Aug 25 2025 11:30:53 GMT-0400 (Eastern Daylight Time),398563.40000009537,kind,800,I,z,z,None,675,476.0,199.0,9,2,2007.9000000953674,396555.5,9021,kind,AF,C,393264,393265,391740,392548,391740,393748,393065,393065,393747,121
116,test,1,inc,1,m,Mon Aug 25 2025 11:30:53 GMT-0400 (Eastern Daylight Time),400730.09999990463,temper,1000,I,m,m,None,620,420.0,200.0,111,2,2157.8999996185303,398572.2000002861,9021,napkin,AF,C,395481,395481,393756,394765,393756,395914,395281,395281,395914,122
117,test,1,con,1,z,Mon Aug 25 2025 11:30:53 GMT-0400 (Eastern Daylight Time),402946.7000002861,elated,1000,I,z,z,None,675,476.0,199.0,3,2,2207.2000002861023,400739.5,9021,elated,AF,C,397648,397648,395924,396931,395924,398131,397448,397448,398131,123
118,test,1,inc,1,z,Mon Aug 25 2025 11:30:53 GMT-0400 (Eastern Daylight Time),404846.59999990463,jacket,800,I,z,z,None,563,364.0,199.0,37,2,1891.6999998092651,402954.90000009537,9021,brutal,AF,C,399665,399665,398139,398948,398139,400031,399465,399465,400031,124
119,test,1,con,1,z,Mon Aug 25 2025 11:30:53 GMT-0400 (Eastern Daylight Time),406763.5,elated,900,I,z,z,None,466,267.0,199.0,2,2,1906.9000000953674,404856.59999990463,9021,elated,AF,C,401664,401665,400041,400948,400041,401948,401465,401465,401947,125
120,test,1,inc,1,z,Mon Aug 25 2025 11:30:53 GMT-0400 (Eastern Daylight Time),408496.80000019073,jacket,800,I,z,z,None,396,196.0,200.0,5,2,1724.5999999046326,406772.2000002861,9021,elated,AF,C,403481,403481,401956,402764,401957,403681,403281,403281,403681,126
121,test,1,inc,1,z,Mon Aug 25 2025 11:30:53 GMT-0400 (Eastern Daylight Time),410680.09999990463,window,1100,I,z,z,None,537,338.0,199.0,8,2,2175.5999999046326,408504.5,9021,elated,AF,C,405515,405515,403689,404798,403689,405864,405314,405315,405864,127
121,test,1,inc,0,z,Mon Aug 25 2025 11:30:53 GMT-0400 (Eastern Daylight Time),412796.90000009537,napkin,900,I,m,m,None,666,467.0,199.0,30,2,2107.9000000953674,410689.0,9021,friend,AF,C,407498,407498,405873,406781,405873,407981,407298,407298,407981,128
