acc_sum,block,block_c,change,condition,correct,correct_response,datetime,endtime,face,project,response,response_time,row_sel,session_number,start_end,starttime,subject_id,task,task_vers,trial
0,prac,1,,1-Back,,,Wed Sep 03 2025 11:03:32 GMT-0500 (Central Daylight Time),,005_o_f_d_a.png,O,space,2658,1,1,,,7216,VNB,B,0
0,prac,1,0.0,1-Back,0.0,m,Wed Sep 03 2025 11:03:32 GMT-0500 (Central Daylight Time),144442.19999999553,020_y_f_n_a.png,O,None,2002,2,1,2855.6999999955297,141586.5,7216,VNB,B,1
1,prac,1,0.0,1-Back,1.0,m,Wed Sep 03 2025 11:03:32 GMT-0500 (Central Daylight Time),147174.3999999985,007_m_m_h_a.png,O,m,1839,3,1,2725.5,144448.8999999985,7216,VNB,B,2
2,prac,1,0.0,1-Back,1.0,m,Wed Sep 03 2025 11:03:32 GMT-0500 (Central Daylight Time),149007.29999999702,016_y_m_d_a.png,O,m,936,4,1,1825.8999999985099,147181.3999999985,7216,VNB,B,3
2,prac,1,0.0,1-Back,0.0,m,Wed Sep 03 2025 11:03:32 GMT-0500 (Central Daylight Time),150940.29999999702,005_o_f_n_a.png,O,z,1047,5,1,1924.3999999985099,149015.8999999985,7216,VNB,B,4
3,prac,1,1.0,1-Back,1.0,z,Wed Sep 03 2025 11:03:32 GMT-0500 (Central Daylight Time),152872.8999999985,016_y_m_n_a.png,O,z,1042,6,1,1924.3999999985099,150948.5,7216,VNB,B,5
4,prac,1,0.0,1-Back,1.0,m,Wed Sep 03 2025 11:03:32 GMT-0500 (Central Daylight Time),154605.6000000015,004_o_m_h_a.png,O,m,864,7,1,1723.1000000014901,152882.5,7216,VNB,B,6
5,prac,1,0.0,1-Back,1.0,m,Wed Sep 03 2025 11:03:32 GMT-0500 (Central Daylight Time),156638.3999999985,011_m_f_d_a.png,O,m,1154,8,1,2025.7000000029802,154612.69999999553,7216,VNB,B,7
6,prac,1,1.0,1-Back,1.0,z,Wed Sep 03 2025 11:03:32 GMT-0500 (Central Daylight Time),158870.79999999702,020_y_f_d_a.png,O,z,1379,9,1,2224.89999999851,156645.8999999985,7216,VNB,B,8
6,prac,1,0.0,1-Back,0.0,m,Wed Sep 03 2025 11:03:32 GMT-0500 (Central Daylight Time),160986.8999999985,007_m_m_n_a.png,O,z,1229,10,1,2106.89999999851,158880.0,7216,VNB,B,9
7,prac,1,0.0,1-Back,1.0,m,Wed Sep 03 2025 11:03:32 GMT-0500 (Central Daylight Time),163136.19999999553,005_o_f_h_a.png,O,m,1267,11,1,2141.5,160994.69999999553,7216,VNB,B,10
8,prac,1,0.0,1-Back,1.0,m,Wed Sep 03 2025 11:03:32 GMT-0500 (Central Daylight Time),165702.0,016_y_m_d_a.png,O,m,1669,12,1,2557.3000000044703,163144.69999999553,7216,VNB,B,11
0,test,1,0.0,1-Back,,,Wed Sep 03 2025 11:03:32 GMT-0500 (Central Daylight Time),165702.0,020_y_f_d_a.png,O,space,4294,1,1,2557.3000000044703,163144.69999999553,7216,VNB,B,0
0,test,1,0.0,1-Back,0.0,m,Wed Sep 03 2025 11:03:32 GMT-0500 (Central Daylight Time),180114.19999999553,011_m_f_n_a.png,O,z,1498,2,1,2511.0,177603.19999999553,7216,VNB,B,1
1,test,1,0.0,1-Back,1.0,m,Wed Sep 03 2025 11:03:32 GMT-0500 (Central Daylight Time),182063.6000000015,004_o_m_h_a.png,O,m,926,3,1,1944.6000000014901,180119.0,7216,VNB,B,2
2,test,1,1.0,1-Back,1.0,z,Wed Sep 03 2025 11:03:32 GMT-0500 (Central Daylight Time),184113.0,007_m_m_h_a.png,O,z,1025,4,1,2044.3000000044703,182068.69999999553,7216,VNB,B,3
3,test,1,0.0,1-Back,1.0,m,Wed Sep 03 2025 11:03:32 GMT-0500 (Central Daylight Time),185845.69999999553,005_o_f_n_a.png,O,m,703,5,1,1728.0999999940395,184117.6000000015,7216,VNB,B,4
4,test,1,0.0,1-Back,1.0,m,Wed Sep 03 2025 11:03:32 GMT-0500 (Central Daylight Time),188128.3999999985,016_y_m_d_a.png,O,m,1251,6,1,2278.2999999970198,185850.1000000015,7216,VNB,B,5
4,test,1,1.0,1-Back,0.0,z,Wed Sep 03 2025 11:03:32 GMT-0500 (Central Daylight Time),191160.8999999985,011_m_f_d_a.png,O,None,2016,7,1,3027.89999999851,188133.0,7216,VNB,B,6
5,test,1,0.0,1-Back,1.0,m,Wed Sep 03 2025 11:03:32 GMT-0500 (Central Daylight Time),193160.19999999553,020_y_f_h_a.png,O,m,977,8,1,1994.5999999940395,191165.6000000015,7216,VNB,B,7
6,test,1,0.0,1-Back,1.0,m,Wed Sep 03 2025 11:03:32 GMT-0500 (Central Daylight Time),195059.6000000015,004_o_m_n_a.png,O,m,872,9,1,1894.9000000059605,193164.69999999553,7216,VNB,B,8
6,test,1,0.0,1-Back,0.0,m,Wed Sep 03 2025 11:03:32 GMT-0500 (Central Daylight Time),198092.0,016_y_m_h_a.png,O,None,2016,10,1,3027.5,195064.5,7216,VNB,B,9
6,test,1,0.0,1-Back,0.0,m,Wed Sep 03 2025 11:03:32 GMT-0500 (Central Daylight Time),200041.3999999985,004_o_m_d_a.png,O,z,924,11,1,1946.0,198095.3999999985,7216,VNB,B,10
7,test,1,1.0,1-Back,1.0,z,Wed Sep 03 2025 11:03:32 GMT-0500 (Central Daylight Time),202407.29999999702,005_o_f_d_a.png,O,z,1336,12,1,2361.39999999851,200045.8999999985,7216,VNB,B,11
7,test,1,0.0,1-Back,0.0,m,Wed Sep 03 2025 11:03:32 GMT-0500 (Central Daylight Time),204206.6000000015,007_m_m_n_a.png,O,z,777,13,1,1795.5,202411.1000000015,7216,VNB,B,12
8,test,1,1.0,1-Back,1.0,z,Wed Sep 03 2025 11:03:32 GMT-0500 (Central Daylight Time),206539.19999999553,020_y_f_n_a.png,O,z,1197,14,1,2328.39999999851,204210.79999999702,7216,VNB,B,13
9,test,1,0.0,1-Back,1.0,m,Wed Sep 03 2025 11:03:32 GMT-0500 (Central Daylight Time),208272.0,011_m_f_h_a.png,O,m,709,15,1,1728.6000000014901,206543.3999999985,7216,VNB,B,14
10,test,1,0.0,1-Back,1.0,m,Wed Sep 03 2025 11:03:32 GMT-0500 (Central Daylight Time),210304.69999999553,007_m_m_d_a.png,O,m,1009,16,1,2027.7999999970198,208276.8999999985,7216,VNB,B,15
11,test,1,0.0,1-Back,1.0,m,Wed Sep 03 2025 11:03:32 GMT-0500 (Central Daylight Time),212954.0,016_y_m_n_a.png,O,m,1624,17,1,2645.39999999851,210308.6000000015,7216,VNB,B,16
12,test,1,0.0,1-Back,1.0,m,Wed Sep 03 2025 11:03:32 GMT-0500 (Central Daylight Time),215336.3999999985,005_o_f_h_a.png,O,m,1358,18,1,2378.10000000149,212958.29999999702,7216,VNB,B,17
0,test,2,0.0,1-Back,,,Wed Sep 03 2025 11:03:32 GMT-0500 (Central Daylight Time),215336.3999999985,016_y_m_n_a.png,O,space,2056,1,1,2378.10000000149,212958.29999999702,7216,VNB,B,0
1,test,2,0.0,1-Back,1.0,m,Wed Sep 03 2025 11:03:32 GMT-0500 (Central Daylight Time),221417.8999999985,020_y_f_h_a.png,O,m,967,2,1,1994.8999999985099,219423.0,7216,VNB,B,1
2,test,2,1.0,1-Back,1.0,m,Wed Sep 03 2025 11:03:32 GMT-0500 (Central Daylight Time),223467.29999999702,004_o_m_n_a.png,O,m,1031,3,1,2045.0,221422.29999999702,7216,VNB,B,2
3,test,2,0.0,1-Back,1.0,m,Wed Sep 03 2025 11:03:32 GMT-0500 (Central Daylight Time),226483.0,011_m_f_d_a.png,O,m,1997,4,1,3011.5,223471.5,7216,VNB,B,3
4,test,2,0.0,1-Back,1.0,z,Wed Sep 03 2025 11:03:32 GMT-0500 (Central Daylight Time),228465.6000000015,007_m_m_d_a.png,O,z,950,5,1,1977.9000000059605,226487.69999999553,7216,VNB,B,4
5,test,2,0.0,1-Back,1.0,m,Wed Sep 03 2025 11:03:32 GMT-0500 (Central Daylight Time),230331.79999999702,016_y_m_h_a.png,O,m,848,6,1,1861.3999999985099,228470.3999999985,7216,VNB,B,5
5,test,2,1.0,1-Back,0.0,z,Wed Sep 03 2025 11:03:32 GMT-0500 (Central Daylight Time),232414.3999999985,005_o_f_h_a.png,O,m,1053,7,1,2078.5,230335.8999999985,7216,VNB,B,6
6,test,2,0.0,1-Back,1.0,m,Wed Sep 03 2025 11:03:32 GMT-0500 (Central Daylight Time),234597.0,011_m_f_n_a.png,O,m,1154,8,1,2178.3000000044703,232418.69999999553,7216,VNB,B,7
7,test,2,0.0,1-Back,1.0,m,Wed Sep 03 2025 11:03:32 GMT-0500 (Central Daylight Time),237079.79999999702,020_y_f_d_a.png,O,m,1451,9,1,2478.10000000149,234601.69999999553,7216,VNB,B,8
8,test,2,0.0,1-Back,1.0,m,Wed Sep 03 2025 11:03:32 GMT-0500 (Central Daylight Time),239545.6000000015,007_m_m_n_a.png,O,m,1442,10,1,2460.7000000029802,237084.8999999985,7216,VNB,B,9
9,test,2,1.0,1-Back,1.0,m,Wed Sep 03 2025 11:03:32 GMT-0500 (Central Daylight Time),241494.8999999985,011_m_f_h_a.png,O,m,918,11,1,1945.0,239549.8999999985,7216,VNB,B,10
10,test,2,0.0,1-Back,1.0,z,Wed Sep 03 2025 11:03:32 GMT-0500 (Central Daylight Time),243427.6000000015,004_o_m_h_a.png,O,z,905,12,1,1928.2000000029802,241499.3999999985,7216,VNB,B,11
11,test,2,0.0,1-Back,1.0,m,Wed Sep 03 2025 11:03:32 GMT-0500 (Central Daylight Time),245477.19999999553,016_y_m_d_a.png,O,m,1030,13,1,2045.1999999955297,243432.0,7216,VNB,B,12
12,test,2,0.0,1-Back,1.0,m,Wed Sep 03 2025 11:03:32 GMT-0500 (Central Daylight Time),248142.8999999985,005_o_f_n_a.png,O,m,1635,14,1,2661.2000000029802,245481.69999999553,7216,VNB,B,13
13,test,2,0.0,1-Back,1.0,z,Wed Sep 03 2025 11:03:32 GMT-0500 (Central Daylight Time),250376.79999999702,020_y_f_n_a.png,O,z,1201,15,1,2229.2999999970198,248147.5,7216,VNB,B,14
14,test,2,1.0,1-Back,1.0,m,Wed Sep 03 2025 11:03:32 GMT-0500 (Central Daylight Time),252489.5,007_m_m_h_a.png,O,m,1096,16,1,2107.89999999851,250381.6000000015,7216,VNB,B,15
15,test,2,0.0,1-Back,1.0,m,Wed Sep 03 2025 11:03:32 GMT-0500 (Central Daylight Time),255357.29999999702,005_o_f_d_a.png,O,m,1837,17,1,2857.0,252500.29999999702,7216,VNB,B,16
16,test,2,1.0,1-Back,1.0,z,Wed Sep 03 2025 11:03:32 GMT-0500 (Central Daylight Time),257523.19999999553,004_o_m_d_a.png,O,z,1140,18,1,2161.39999999851,255361.79999999702,7216,VNB,B,17
0,test,3,1.0,1-Back,,,Wed Sep 03 2025 11:03:32 GMT-0500 (Central Daylight Time),257523.19999999553,005_o_f_h_a.png,O,space,1685,1,1,2161.39999999851,255361.79999999702,7216,VNB,B,0
1,test,3,0.0,1-Back,1.0,m,Wed Sep 03 2025 11:03:32 GMT-0500 (Central Daylight Time),263754.6000000015,011_m_f_d_a.png,O,m,1397,2,1,2411.2000000029802,261343.3999999985,7216,VNB,B,1
2,test,3,1.0,1-Back,1.0,m,Wed Sep 03 2025 11:03:32 GMT-0500 (Central Daylight Time),266120.6000000015,007_m_m_n_a.png,O,m,1342,3,1,2361.2000000029802,263759.3999999985,7216,VNB,B,2
3,test,3,0.0,1-Back,1.0,z,Wed Sep 03 2025 11:03:32 GMT-0500 (Central Daylight Time),267886.69999999553,005_o_f_n_a.png,O,z,737,4,1,1761.6999999955297,266125.0,7216,VNB,B,3
4,test,3,1.0,1-Back,1.0,m,Wed Sep 03 2025 11:03:32 GMT-0500 (Central Daylight Time),269636.19999999553,004_o_m_d_a.png,O,m,722,5,1,1745.0,267891.19999999553,7216,VNB,B,4
5,test,3,0.0,1-Back,1.0,m,Wed Sep 03 2025 11:03:32 GMT-0500 (Central Daylight Time),271585.8999999985,020_y_f_h_a.png,O,m,933,6,1,1945.6000000014901,269640.299999997,7216,VNB,B,5
6,test,3,0.0,1-Back,1.0,z,Wed Sep 03 2025 11:03:32 GMT-0500 (Central Daylight Time),273118.3999999985,016_y_m_h_a.png,O,z,503,7,1,1528.2999999970198,271590.1000000015,7216,VNB,B,6
7,test,3,0.0,1-Back,1.0,m,Wed Sep 03 2025 11:03:32 GMT-0500 (Central Daylight Time),274967.8999999985,011_m_f_n_a.png,O,m,826,8,1,1846.0,273121.8999999985,7216,VNB,B,7
8,test,3,0.0,1-Back,1.0,m,Wed Sep 03 2025 11:03:32 GMT-0500 (Central Daylight Time),278034.1000000015,020_y_f_d_a.png,O,m,1928,9,1,3062.2000000029802,274971.8999999985,7216,VNB,B,8
8,test,3,1.0,1-Back,0.0,m,Wed Sep 03 2025 11:03:32 GMT-0500 (Central Daylight Time),281066.1000000015,004_o_m_n_a.png,O,None,2016,10,1,3027.3000000044703,278038.799999997,7216,VNB,B,9
8,test,3,0.0,1-Back,0.0,m,Wed Sep 03 2025 11:03:32 GMT-0500 (Central Daylight Time),284098.3999999985,007_m_m_h_a.png,O,None,2015,11,1,3027.0,281071.3999999985,7216,VNB,B,10
9,test,3,0.0,1-Back,1.0,z,Wed Sep 03 2025 11:03:32 GMT-0500 (Central Daylight Time),286430.8999999985,011_m_f_h_a.png,O,z,1302,12,1,2327.89999999851,284103.0,7216,VNB,B,11
10,test,3,1.0,1-Back,1.0,m,Wed Sep 03 2025 11:03:32 GMT-0500 (Central Daylight Time),288313.69999999553,005_o_f_d_a.png,O,m,858,13,1,1879.0,286434.69999999553,7216,VNB,B,12
11,test,3,0.0,1-Back,1.0,z,Wed Sep 03 2025 11:03:32 GMT-0500 (Central Daylight Time),291146.0,007_m_m_d_a.png,O,z,1799,14,1,2827.7000000029802,288318.299999997,7216,VNB,B,13
11,test,3,0.0,1-Back,0.0,m,Wed Sep 03 2025 11:03:32 GMT-0500 (Central Daylight Time),294178.5,016_y_m_n_a.png,O,None,2016,15,1,3027.60000000149,291150.8999999985,7216,VNB,B,14
12,test,3,1.0,1-Back,1.0,m,Wed Sep 03 2025 11:03:32 GMT-0500 (Central Daylight Time),295878.0,004_o_m_h_a.png,O,m,679,16,1,1695.1000000014901,294182.8999999985,7216,VNB,B,15
13,test,3,0.0,1-Back,1.0,m,Wed Sep 03 2025 11:03:32 GMT-0500 (Central Daylight Time),298077.19999999553,016_y_m_d_a.png,O,m,1170,17,1,2194.5,295882.69999999553,7216,VNB,B,16
14,test,3,1.0,1-Back,1.0,m,Wed Sep 03 2025 11:03:32 GMT-0500 (Central Daylight Time),301059.799999997,020_y_f_n_a.png,O,m,1956,18,1,2978.6999999955297,298081.1000000015,7216,VNB,B,17
0,test,4,1.0,1-Back,,,Wed Sep 03 2025 11:03:32 GMT-0500 (Central Daylight Time),301059.799999997,007_m_m_d_a.png,O,space,1917,1,1,2978.6999999955297,298081.1000000015,7216,VNB,B,0
1,test,4,0.0,1-Back,1.0,z,Wed Sep 03 2025 11:03:32 GMT-0500 (Central Daylight Time),307191.0,004_o_m_d_a.png,O,z,1161,2,1,2178.10000000149,305012.8999999985,7216,VNB,B,1
2,test,4,0.0,1-Back,1.0,m,Wed Sep 03 2025 11:03:32 GMT-0500 (Central Daylight Time),309040.3999999985,016_y_m_h_a.png,O,m,826,3,1,1845.6000000014901,307194.799999997,7216,VNB,B,2
3,test,4,0.0,1-Back,1.0,m,Wed Sep 03 2025 11:03:32 GMT-0500 (Central Daylight Time),311206.5,011_m_f_n_a.png,O,m,1145,4,1,2162.39999999851,309044.1000000015,7216,VNB,B,3
4,test,4,1.0,1-Back,1.0,m,Wed Sep 03 2025 11:03:32 GMT-0500 (Central Daylight Time),313072.5,005_o_f_h_a.png,O,m,842,5,1,1862.0,311210.5,7216,VNB,B,4
5,test,4,0.0,1-Back,1.0,m,Wed Sep 03 2025 11:03:32 GMT-0500 (Central Daylight Time),315521.69999999553,007_m_m_n_a.png,O,m,1417,6,1,2444.7999999970198,313076.8999999985,7216,VNB,B,5
5,test,4,0.0,1-Back,0.0,m,Wed Sep 03 2025 11:03:32 GMT-0500 (Central Daylight Time),318354.1000000015,016_y_m_d_a.png,O,z,1815,7,1,2828.10000000149,315526.0,7216,VNB,B,6
6,test,4,1.0,1-Back,1.0,z,Wed Sep 03 2025 11:03:32 GMT-0500 (Central Daylight Time),320136.8999999985,020_y_f_d_a.png,O,z,759,8,1,1779.2999999970198,318357.6000000015,7216,VNB,B,7
7,test,4,0.0,1-Back,1.0,m,Wed Sep 03 2025 11:03:32 GMT-0500 (Central Daylight Time),321836.5,011_m_f_h_a.png,O,m,672,9,1,1695.5,320141.0,7216,VNB,B,8
8,test,4,0.0,1-Back,1.0,z,Wed Sep 03 2025 11:03:32 GMT-0500 (Central Daylight Time),324019.19999999553,004_o_m_h_a.png,O,z,1156,10,1,2175.0,321844.19999999553,7216,VNB,B,9
9,test,4,1.0,1-Back,1.0,m,Wed Sep 03 2025 11:03:32 GMT-0500 (Central Daylight Time),325885.0,005_o_f_n_a.png,O,m,845,11,1,1857.0,324028.0,7216,VNB,B,10
10,test,4,0.0,1-Back,1.0,m,Wed Sep 03 2025 11:03:32 GMT-0500 (Central Daylight Time),328484.5,011_m_f_d_a.png,O,m,1572,12,1,2595.5,325889.0,7216,VNB,B,11
11,test,4,0.0,1-Back,1.0,m,Wed Sep 03 2025 11:03:32 GMT-0500 (Central Daylight Time),330666.8999999985,020_y_f_n_a.png,O,m,1156,13,1,2178.2999999970198,328488.6000000015,7216,VNB,B,12
11,test,4,0.0,1-Back,0.0,m,Wed Sep 03 2025 11:03:32 GMT-0500 (Central Daylight Time),333649.3999999985,005_o_f_d_a.png,O,z,1950,14,1,2978.0,330671.3999999985,7216,VNB,B,13
12,test,4,0.0,1-Back,1.0,m,Wed Sep 03 2025 11:03:32 GMT-0500 (Central Daylight Time),335565.5,020_y_f_h_a.png,O,m,896,15,1,1910.6000000014901,333654.8999999985,7216,VNB,B,14
13,test,4,1.0,1-Back,1.0,z,Wed Sep 03 2025 11:03:32 GMT-0500 (Central Daylight Time),338447.799999997,007_m_m_h_a.png,O,z,1860,16,1,2878.1999999955297,335569.6000000015,7216,VNB,B,15
14,test,4,0.0,1-Back,1.0,m,Wed Sep 03 2025 11:03:32 GMT-0500 (Central Daylight Time),340213.8999999985,004_o_m_n_a.png,O,m,737,17,1,1762.3999999985099,338451.5,7216,VNB,B,16
14,test,4,1.0,1-Back,0.0,z,Wed Sep 03 2025 11:03:32 GMT-0500 (Central Daylight Time),342713.299999997,016_y_m_n_a.png,O,m,1474,18,1,2494.6999999955297,340218.6000000015,7216,VNB,B,17
0,test,5,1.0,1-Back,,,Wed Sep 03 2025 11:03:32 GMT-0500 (Central Daylight Time),342713.299999997,004_o_m_n_a.png,O,space,1584,1,1,2494.6999999955297,340218.6000000015,7216,VNB,B,0
1,test,5,1.0,1-Back,1.0,m,Wed Sep 03 2025 11:03:32 GMT-0500 (Central Daylight Time),348344.799999997,005_o_f_h_a.png,O,m,993,2,1,2011.5,346333.299999997,7216,VNB,B,1
1,test,5,0.0,1-Back,0.0,m,Wed Sep 03 2025 11:03:32 GMT-0500 (Central Daylight Time),350094.19999999553,016_y_m_d_a.png,O,z,719,3,1,1745.7999999970198,348348.3999999985,7216,VNB,B,2
2,test,5,0.0,1-Back,1.0,z,Wed Sep 03 2025 11:03:32 GMT-0500 (Central Daylight Time),352093.6000000015,004_o_m_d_a.png,O,z,971,4,1,1995.6000000014901,350098.0,7216,VNB,B,3
3,test,5,0.0,1-Back,1.0,m,Wed Sep 03 2025 11:03:32 GMT-0500 (Central Daylight Time),353976.5,011_m_f_h_a.png,O,m,859,5,1,1878.3000000044703,352098.19999999553,7216,VNB,B,4
4,test,5,0.0,1-Back,1.0,m,Wed Sep 03 2025 11:03:32 GMT-0500 (Central Daylight Time),356243.3999999985,020_y_f_n_a.png,O,m,1241,6,1,2262.89999999851,353980.5,7216,VNB,B,5
5,test,5,1.0,1-Back,1.0,z,Wed Sep 03 2025 11:03:32 GMT-0500 (Central Daylight Time),358259.6000000015,005_o_f_n_a.png,O,z,999,7,1,2012.2000000029802,356247.3999999985,7216,VNB,B,6
6,test,5,0.0,1-Back,1.0,m,Wed Sep 03 2025 11:03:32 GMT-0500 (Central Daylight Time),360124.5,011_m_f_d_a.png,O,m,839,8,1,1860.7000000029802,358263.799999997,7216,VNB,B,7
7,test,5,0.0,1-Back,1.0,m,Wed Sep 03 2025 11:03:32 GMT-0500 (Central Daylight Time),362490.3999999985,016_y_m_h_a.png,O,m,1341,9,1,2361.2999999970198,360129.1000000015,7216,VNB,B,8
8,test,5,0.0,1-Back,1.0,m,Wed Sep 03 2025 11:03:32 GMT-0500 (Central Daylight Time),364706.19999999553,020_y_f_d_a.png,O,m,1198,10,1,2211.39999999851,362494.799999997,7216,VNB,B,9
8,test,5,0.0,1-Back,0.0,m,Wed Sep 03 2025 11:03:32 GMT-0500 (Central Daylight Time),366755.69999999553,007_m_m_n_a.png,O,z,1031,11,1,2045.1999999955297,364710.5,7216,VNB,B,10
9,test,5,1.0,1-Back,1.0,z,Wed Sep 03 2025 11:03:32 GMT-0500 (Central Daylight Time),368921.69999999553,011_m_f_n_a.png,O,z,1142,12,1,2160.5,366761.19999999553,7216,VNB,B,11
10,test,5,0.0,1-Back,1.0,m,Wed Sep 03 2025 11:03:32 GMT-0500 (Central Daylight Time),370637.8999999985,004_o_m_h_a.png,O,m,695,13,1,1712.5,368925.3999999985,7216,VNB,B,12
11,test,5,0.0,1-Back,1.0,z,Wed Sep 03 2025 11:03:32 GMT-0500 (Central Daylight Time),373037.0,007_m_m_h_a.png,O,z,1380,14,1,2393.2000000029802,370643.799999997,7216,VNB,B,13
12,test,5,1.0,1-Back,1.0,m,Wed Sep 03 2025 11:03:32 GMT-0500 (Central Daylight Time),374936.6000000015,005_o_f_d_a.png,O,m,876,15,1,1896.2000000029802,373040.3999999985,7216,VNB,B,14
12,test,5,0.0,1-Back,0.0,m,Wed Sep 03 2025 11:03:32 GMT-0500 (Central Daylight Time),377969.0,016_y_m_n_a.png,O,None,2016,16,1,3028.8000000044703,374940.19999999553,7216,VNB,B,15
13,test,5,0.0,1-Back,1.0,m,Wed Sep 03 2025 11:03:32 GMT-0500 (Central Daylight Time),380101.5,020_y_f_h_a.png,O,m,1105,17,1,2129.10000000149,377972.3999999985,7216,VNB,B,16
14,test,5,0.0,1-Back,1.0,m,Wed Sep 03 2025 11:03:32 GMT-0500 (Central Daylight Time),381667.799999997,007_m_m_d_a.png,O,m,538,18,1,1562.3999999985099,380105.3999999985,7216,VNB,B,17
0,prac,1,0.0,2-Back,,,Wed Sep 03 2025 11:03:32 GMT-0500 (Central Daylight Time),381667.799999997,011_m_f_n_a.png,O,space,3239,1,1,1562.3999999985099,380105.3999999985,7216,VNB,B,0
0,prac,1,0.0,2-Back,,,Wed Sep 03 2025 11:03:32 GMT-0500 (Central Daylight Time),381667.799999997,005_o_f_h_a.png,O,space,3239,2,1,1562.3999999985099,380105.3999999985,7216,VNB,B,0
0,prac,1,0.0,2-Back,0.0,m,Wed Sep 03 2025 11:03:32 GMT-0500 (Central Daylight Time),497581.6000000015,004_o_m_d_a.png,O,z,1393,3,1,2258.9000000059605,495322.69999999553,7216,VNB,B,1
0,prac,1,1.0,2-Back,0.0,z,Wed Sep 03 2025 11:03:32 GMT-0500 (Central Daylight Time),500463.69999999553,007_m_m_h_a.png,O,None,2004,4,1,2876.2999999970198,497587.3999999985,7216,VNB,B,2
0,prac,1,0.0,2-Back,0.0,m,Wed Sep 03 2025 11:03:32 GMT-0500 (Central Daylight Time),502862.8999999985,020_y_f_n_a.png,O,z,1530,5,1,2391.2000000029802,500471.69999999553,7216,VNB,B,3
0,prac,1,1.0,2-Back,0.0,z,Wed Sep 03 2025 11:03:32 GMT-0500 (Central Daylight Time),504679.299999997,004_o_m_h_a.png,O,m,1035,6,1,1809.1999999955297,502870.1000000015,7216,VNB,B,4
1,prac,1,1.0,2-Back,1.0,z,Wed Sep 03 2025 11:03:32 GMT-0500 (Central Daylight Time),507078.5,016_y_m_n_a.png,O,z,1514,7,1,2391.8000000044703,504686.69999999553,7216,VNB,B,5
1,prac,1,0.0,2-Back,0.0,m,Wed Sep 03 2025 11:03:32 GMT-0500 (Central Daylight Time),509377.5,011_m_f_d_a.png,O,z,1426,8,1,2292.10000000149,507085.3999999985,7216,VNB,B,6
1,prac,1,0.0,2-Back,0.0,m,Wed Sep 03 2025 11:03:32 GMT-0500 (Central Daylight Time),511160.5,005_o_f_d_a.png,O,z,893,9,1,1775.7000000029802,509384.799999997,7216,VNB,B,7
1,prac,1,0.0,2-Back,0.0,m,Wed Sep 03 2025 11:03:32 GMT-0500 (Central Daylight Time),513943.0,007_m_m_h_a.png,O,None,2008,10,1,2775.5,511167.5,7216,VNB,B,8
2,prac,1,1.0,2-Back,1.0,z,Wed Sep 03 2025 11:03:32 GMT-0500 (Central Daylight Time),516159.0,020_y_f_d_a.png,O,z,1345,11,1,2207.89999999851,513951.1000000015,7216,VNB,B,9
3,prac,1,0.0,2-Back,1.0,m,Wed Sep 03 2025 11:03:32 GMT-0500 (Central Daylight Time),518441.69999999553,004_o_m_n_a.png,O,m,1419,12,1,2274.89999999851,516166.799999997,7216,VNB,B,10
0,prac,2,0.0,2-Back,,,Wed Sep 03 2025 11:03:32 GMT-0500 (Central Daylight Time),518441.69999999553,011_m_f_n_a.png,O,a,4253,1,1,2274.89999999851,516166.799999997,7216,VNB,B,0
0,prac,2,0.0,2-Back,,,Wed Sep 03 2025 11:03:32 GMT-0500 (Central Daylight Time),518441.69999999553,005_o_f_h_a.png,O,a,4253,2,1,2274.89999999851,516166.799999997,7216,VNB,B,0
1,prac,2,0.0,2-Back,1.0,m,Wed Sep 03 2025 11:03:32 GMT-0500 (Central Daylight Time),529904.3999999985,004_o_m_d_a.png,O,m,1108,3,1,1959.1000000014901,527945.299999997,7216,VNB,B,1
2,prac,2,1.0,2-Back,1.0,z,Wed Sep 03 2025 11:03:32 GMT-0500 (Central Daylight Time),531920.5,007_m_m_h_a.png,O,z,1225,4,1,2008.5,529912.0,7216,VNB,B,2
3,prac,2,0.0,2-Back,1.0,m,Wed Sep 03 2025 11:03:32 GMT-0500 (Central Daylight Time),534669.799999997,020_y_f_n_a.png,O,m,1884,5,1,2742.60000000149,531927.1999999955,7216,VNB,B,3
3,prac,2,1.0,2-Back,0.0,z,Wed Sep 03 2025 11:03:32 GMT-0500 (Central Daylight Time),536885.799999997,004_o_m_h_a.png,O,m,1352,6,1,2209.5,534676.299999997,7216,VNB,B,4
4,prac,2,1.0,2-Back,1.0,z,Wed Sep 03 2025 11:03:32 GMT-0500 (Central Daylight Time),538935.1999999955,016_y_m_n_a.png,O,z,1162,7,1,2042.7999999970198,536892.3999999985,7216,VNB,B,5
5,prac,2,0.0,2-Back,1.0,m,Wed Sep 03 2025 11:03:32 GMT-0500 (Central Daylight Time),541501.0,011_m_f_d_a.png,O,m,1689,8,1,2555.39999999851,538945.6000000015,7216,VNB,B,6
5,prac,2,0.0,2-Back,0.0,m,Wed Sep 03 2025 11:03:32 GMT-0500 (Central Daylight Time),543250.3999999985,005_o_f_d_a.png,O,z,873,9,1,1742.5,541507.8999999985,7216,VNB,B,7
6,prac,2,0.0,2-Back,1.0,m,Wed Sep 03 2025 11:03:32 GMT-0500 (Central Daylight Time),545716.1000000015,007_m_m_h_a.png,O,m,1680,10,1,2459.2000000029802,543256.8999999985,7216,VNB,B,8
7,prac,2,1.0,2-Back,1.0,z,Wed Sep 03 2025 11:03:32 GMT-0500 (Central Daylight Time),548199.0,020_y_f_d_a.png,O,z,1606,11,1,2475.5,545723.5,7216,VNB,B,9
8,prac,2,0.0,2-Back,1.0,m,Wed Sep 03 2025 11:03:32 GMT-0500 (Central Daylight Time),550398.299999997,004_o_m_n_a.png,O,m,1334,12,1,2191.89999999851,548206.3999999985,7216,VNB,B,10
0,test,1,0.0,2-Back,,,Wed Sep 03 2025 11:03:32 GMT-0500 (Central Daylight Time),550398.299999997,016_y_m_h_a.png,O,space,3041,1,1,2191.89999999851,548206.3999999985,7216,VNB,B,0
0,test,1,0.0,2-Back,,,Wed Sep 03 2025 11:03:32 GMT-0500 (Central Daylight Time),550398.299999997,005_o_f_n_a.png,O,space,3041,2,1,2191.89999999851,548206.3999999985,7216,VNB,B,0
1,test,1,0.0,2-Back,1.0,z,Wed Sep 03 2025 11:03:32 GMT-0500 (Central Daylight Time),566093.299999997,004_o_m_h_a.png,O,z,1271,3,1,2294.39999999851,563798.8999999985,7216,VNB,B,1
2,test,1,0.0,2-Back,1.0,m,Wed Sep 03 2025 11:03:32 GMT-0500 (Central Daylight Time),568375.6999999955,011_m_f_d_a.png,O,m,1251,4,1,2277.89999999851,566097.799999997,7216,VNB,B,2
3,test,1,1.0,2-Back,1.0,m,Wed Sep 03 2025 11:03:32 GMT-0500 (Central Daylight Time),571042.1000000015,016_y_m_n_a.png,O,m,1649,5,1,2662.8000000044703,568379.299999997,7216,VNB,B,3
3,test,1,0.0,2-Back,0.0,z,Wed Sep 03 2025 11:03:32 GMT-0500 (Central Daylight Time),573774.1999999955,020_y_f_d_a.png,O,m,1703,6,1,2728.39999999851,571045.799999997,7216,VNB,B,4
3,test,1,0.0,2-Back,0.0,m,Wed Sep 03 2025 11:03:32 GMT-0500 (Central Daylight Time),575757.0,007_m_m_h_a.png,O,z,963,7,1,1978.8999999985099,573778.1000000015,7216,VNB,B,5
3,test,1,1.0,2-Back,0.0,m,Wed Sep 03 2025 11:03:32 GMT-0500 (Central Daylight Time),578789.1999999955,020_y_f_n_a.png,O,None,2016,8,1,3028.2999999970198,575760.8999999985,7216,VNB,B,6
4,test,1,0.0,2-Back,1.0,z,Wed Sep 03 2025 11:03:32 GMT-0500 (Central Daylight Time),581638.299999997,005_o_f_h_a.png,O,z,1828,9,1,2845.2999999970198,578793.0,7216,VNB,B,7
4,test,1,0.0,2-Back,0.0,m,Wed Sep 03 2025 11:03:32 GMT-0500 (Central Daylight Time),584737.1999999955,004_o_m_d_a.png,O,None,2007,10,1,3095.0999999940395,581642.1000000015,7216,VNB,B,8
4,test,1,1.0,2-Back,0.0,m,Wed Sep 03 2025 11:03:32 GMT-0500 (Central Daylight Time),586920.1000000015,007_m_m_d_a.png,O,z,1160,11,1,2178.7000000029802,584741.3999999985,7216,VNB,B,9
5,test,1,0.0,2-Back,1.0,m,Wed Sep 03 2025 11:03:32 GMT-0500 (Central Daylight Time),589602.3999999985,011_m_f_n_a.png,O,m,1656,12,1,2677.7999999970198,586924.6000000015,7216,VNB,B,10
6,test,1,0.0,2-Back,1.0,m,Wed Sep 03 2025 11:03:32 GMT-0500 (Central Daylight Time),592051.799999997,020_y_f_h_a.png,O,m,1423,13,1,2445.39999999851,589606.3999999985,7216,VNB,B,11
7,test,1,0.0,2-Back,1.0,z,Wed Sep 03 2025 11:03:32 GMT-0500 (Central Daylight Time),594034.3999999985,007_m_m_n_a.png,O,z,965,14,1,1979.0,592055.3999999985,7216,VNB,B,12
7,test,1,0.0,2-Back,0.0,m,Wed Sep 03 2025 11:03:32 GMT-0500 (Central Daylight Time),595767.1999999955,016_y_m_d_a.png,O,z,711,15,1,1729.0,594038.1999999955,7216,VNB,B,13
7,test,1,1.0,2-Back,0.0,m,Wed Sep 03 2025 11:03:32 GMT-0500 (Central Daylight Time),597866.6000000015,011_m_f_h_a.png,O,z,1074,16,1,2095.7000000029802,595770.8999999985,7216,VNB,B,14
8,test,1,0.0,2-Back,1.0,z,Wed Sep 03 2025 11:03:32 GMT-0500 (Central Daylight Time),600515.799999997,005_o_f_d_a.png,O,z,1631,17,1,2645.10000000149,597870.6999999955,7216,VNB,B,15
9,test,1,0.0,2-Back,1.0,m,Wed Sep 03 2025 11:03:32 GMT-0500 (Central Daylight Time),603098.1000000015,004_o_m_n_a.png,O,m,1557,18,1,2578.0,600520.1000000015,7216,VNB,B,16
0,test,2,0.0,2-Back,,,Wed Sep 03 2025 11:03:32 GMT-0500 (Central Daylight Time),603098.1000000015,007_m_m_h_a.png,O,space,2167,1,1,2578.0,600520.1000000015,7216,VNB,B,0
0,test,2,0.0,2-Back,,,Wed Sep 03 2025 11:03:32 GMT-0500 (Central Daylight Time),603098.1000000015,020_y_f_n_a.png,O,space,2167,2,1,2578.0,600520.1000000015,7216,VNB,B,0
1,test,2,1.0,2-Back,1.0,z,Wed Sep 03 2025 11:03:32 GMT-0500 (Central Daylight Time),612561.8999999985,005_o_f_h_a.png,O,z,1017,3,1,2045.1000000014901,610516.799999997,7216,VNB,B,1
1,test,2,0.0,2-Back,0.0,m,Wed Sep 03 2025 11:03:32 GMT-0500 (Central Daylight Time),615161.0,004_o_m_d_a.png,O,z,1567,4,1,2595.5,612565.5,7216,VNB,B,2
2,test,2,0.0,2-Back,1.0,m,Wed Sep 03 2025 11:03:32 GMT-0500 (Central Daylight Time),617710.299999997,011_m_f_d_a.png,O,m,1528,5,1,2545.60000000149,615164.6999999955,7216,VNB,B,3
2,test,2,0.0,2-Back,0.0,m,Wed Sep 03 2025 11:03:32 GMT-0500 (Central Daylight Time),619643.0,016_y_m_h_a.png,O,z,915,6,1,1929.0,617714.0,7216,VNB,B,4
3,test,2,0.0,2-Back,1.0,m,Wed Sep 03 2025 11:03:32 GMT-0500 (Central Daylight Time),621925.6999999955,005_o_f_n_a.png,O,m,1254,7,1,2278.6999999955297,619647.0,7216,VNB,B,5
4,test,2,1.0,2-Back,1.0,z,Wed Sep 03 2025 11:03:32 GMT-0500 (Central Daylight Time),624208.1999999955,004_o_m_h_a.png,O,z,1260,8,1,2278.6999999955297,621929.5,7216,VNB,B,6
4,test,2,0.0,2-Back,0.0,m,Wed Sep 03 2025 11:03:32 GMT-0500 (Central Daylight Time),626990.799999997,020_y_f_d_a.png,O,z,1761,9,1,2778.2999999970198,624212.5,7216,VNB,B,7
4,test,2,0.0,2-Back,0.0,m,Wed Sep 03 2025 11:03:32 GMT-0500 (Central Daylight Time),629744.5,016_y_m_d_a.png,O,z,1737,10,1,2750.10000000149,626994.3999999985,7216,VNB,B,8
5,test,2,0.0,2-Back,1.0,m,Wed Sep 03 2025 11:03:32 GMT-0500 (Central Daylight Time),632455.6999999955,007_m_m_n_a.png,O,m,1693,11,1,2706.5999999940395,629749.1000000015,7216,VNB,B,9
6,test,2,0.0,2-Back,1.0,m,Wed Sep 03 2025 11:03:32 GMT-0500 (Central Daylight Time),635438.299999997,011_m_f_h_a.png,O,m,1962,12,1,2979.10000000149,632459.1999999955,7216,VNB,B,10
7,test,2,1.0,2-Back,1.0,z,Wed Sep 03 2025 11:03:32 GMT-0500 (Central Daylight Time),637354.1000000015,004_o_m_n_a.png,O,z,891,13,1,1911.6000000014901,635442.5,7216,VNB,B,11
8,test,2,0.0,2-Back,1.0,m,Wed Sep 03 2025 11:03:32 GMT-0500 (Central Daylight Time),639903.299999997,005_o_f_d_a.png,O,m,1527,14,1,2545.60000000149,637357.6999999955,7216,VNB,B,12
8,test,2,0.0,2-Back,0.0,m,Wed Sep 03 2025 11:03:32 GMT-0500 (Central Daylight Time),641836.0,020_y_f_h_a.png,O,z,914,15,1,1929.1000000014901,639906.8999999985,7216,VNB,B,13
8,test,2,0.0,2-Back,0.0,z,Wed Sep 03 2025 11:03:32 GMT-0500 (Central Daylight Time),644868.6000000015,007_m_m_d_a.png,O,None,2016,16,1,3028.7000000029802,641839.8999999985,7216,VNB,B,14
9,test,2,0.0,2-Back,1.0,m,Wed Sep 03 2025 11:03:32 GMT-0500 (Central Daylight Time),646834.6000000015,016_y_m_n_a.png,O,m,949,17,1,1962.4000000059605,644872.1999999955,7216,VNB,B,15
9,test,2,1.0,2-Back,0.0,m,Wed Sep 03 2025 11:03:32 GMT-0500 (Central Daylight Time),649000.6999999955,011_m_f_n_a.png,O,z,1135,18,1,2162.5,646838.1999999955,7216,VNB,B,16
0,test,3,1.0,2-Back,,,Wed Sep 03 2025 11:03:32 GMT-0500 (Central Daylight Time),649000.6999999955,004_o_m_n_a.png,O,space,1337,1,1,2162.5,646838.1999999955,7216,VNB,B,0
0,test,3,1.0,2-Back,,,Wed Sep 03 2025 11:03:32 GMT-0500 (Central Daylight Time),649000.6999999955,005_o_f_d_a.png,O,space,1337,2,1,2162.5,646838.1999999955,7216,VNB,B,0
1,test,3,0.0,2-Back,1.0,m,Wed Sep 03 2025 11:03:32 GMT-0500 (Central Daylight Time),657931.0,020_y_f_h_a.png,O,m,1424,3,1,2445.0,655486.0,7216,VNB,B,1
2,test,3,0.0,2-Back,1.0,z,Wed Sep 03 2025 11:03:32 GMT-0500 (Central Daylight Time),660213.799999997,011_m_f_d_a.png,O,z,1254,4,1,2278.7999999970198,657935.0,7216,VNB,B,2
3,test,3,1.0,2-Back,1.0,m,Wed Sep 03 2025 11:03:32 GMT-0500 (Central Daylight Time),662646.299999997,016_y_m_n_a.png,O,m,1404,5,1,2427.60000000149,660218.6999999955,7216,VNB,B,3
3,test,3,0.0,2-Back,0.0,m,Wed Sep 03 2025 11:03:32 GMT-0500 (Central Daylight Time),664495.799999997,004_o_m_h_a.png,O,z,827,6,1,1845.6999999955297,662650.1000000015,7216,VNB,B,4
4,test,3,0.0,2-Back,1.0,z,Wed Sep 03 2025 11:03:32 GMT-0500 (Central Daylight Time),666944.8999999985,020_y_f_n_a.png,O,z,1426,7,1,2445.0,664499.8999999985,7216,VNB,B,5
5,test,3,1.0,2-Back,1.0,m,Wed Sep 03 2025 11:03:32 GMT-0500 (Central Daylight Time),669610.8999999985,007_m_m_d_a.png,O,m,1640,8,1,2661.7000000029802,666949.1999999955,7216,VNB,B,6
5,test,3,0.0,2-Back,0.0,m,Wed Sep 03 2025 11:03:32 GMT-0500 (Central Daylight Time),672010.0,016_y_m_d_a.png,O,z,1366,9,1,2394.89999999851,669615.1000000015,7216,VNB,B,7
5,test,3,0.0,2-Back,0.0,m,Wed Sep 03 2025 11:03:32 GMT-0500 (Central Daylight Time),674642.5,005_o_f_h_a.png,O,z,1615,10,1,2629.10000000149,672013.3999999985,7216,VNB,B,8
6,test,3,1.0,2-Back,1.0,m,Wed Sep 03 2025 11:03:32 GMT-0500 (Central Daylight Time),677068.6999999955,011_m_f_n_a.png,O,m,1406,11,1,2422.5,674646.1999999955,7216,VNB,B,9
6,test,3,1.0,2-Back,0.0,z,Wed Sep 03 2025 11:03:32 GMT-0500 (Central Daylight Time),679474.3999999985,007_m_m_h_a.png,O,m,1399,12,1,2402.2000000029802,677072.1999999955,7216,VNB,B,10
6,test,3,0.0,2-Back,0.0,m,Wed Sep 03 2025 11:03:32 GMT-0500 (Central Daylight Time),682273.3999999985,020_y_f_d_a.png,O,z,1767,13,1,2795.7000000029802,679477.6999999955,7216,VNB,B,11
6,test,3,0.0,2-Back,0.0,m,Wed Sep 03 2025 11:03:32 GMT-0500 (Central Daylight Time),685305.8999999985,005_o_f_n_a.png,O,None,2016,14,1,3028.7000000029802,682277.1999999955,7216,VNB,B,12
7,test,3,0.0,2-Back,1.0,z,Wed Sep 03 2025 11:03:32 GMT-0500 (Central Daylight Time),687421.8999999985,004_o_m_d_a.png,O,z,1096,15,1,2112.2999999970198,685309.6000000015,7216,VNB,B,13
8,test,3,1.0,2-Back,1.0,m,Wed Sep 03 2025 11:03:32 GMT-0500 (Central Daylight Time),690320.8999999985,011_m_f_h_a.png,O,m,1867,16,1,2894.60000000149,687426.299999997,7216,VNB,B,14
9,test,3,0.0,2-Back,1.0,m,Wed Sep 03 2025 11:03:32 GMT-0500 (Central Daylight Time),692503.6000000015,007_m_m_n_a.png,O,m,1152,17,1,2178.8000000044703,690324.799999997,7216,VNB,B,15
10,test,3,0.0,2-Back,1.0,z,Wed Sep 03 2025 11:03:32 GMT-0500 (Central Daylight Time),694269.6999999955,016_y_m_h_a.png,O,z,746,18,1,1761.5999999940395,692508.1000000015,7216,VNB,B,16
0,test,4,0.0,2-Back,,,Wed Sep 03 2025 11:03:32 GMT-0500 (Central Daylight Time),694269.6999999955,011_m_f_n_a.png,O,space,1236,1,1,1761.5999999940395,692508.1000000015,7216,VNB,B,0
0,test,4,0.0,2-Back,,,Wed Sep 03 2025 11:03:32 GMT-0500 (Central Daylight Time),694269.6999999955,004_o_m_n_a.png,O,space,1236,2,1,1761.5999999940395,692508.1000000015,7216,VNB,B,0
1,test,4,1.0,2-Back,1.0,m,Wed Sep 03 2025 11:03:32 GMT-0500 (Central Daylight Time),702600.3999999985,016_y_m_h_a.png,O,m,852,3,1,1876.5,700723.8999999985,7216,VNB,B,1
1,test,4,1.0,2-Back,0.0,m,Wed Sep 03 2025 11:03:32 GMT-0500 (Central Daylight Time),705466.1999999955,005_o_f_d_a.png,O,z,1849,4,1,2861.5999999940395,702604.6000000015,7216,VNB,B,2
2,test,4,0.0,2-Back,1.0,z,Wed Sep 03 2025 11:03:32 GMT-0500 (Central Daylight Time),707798.6999999955,004_o_m_h_a.png,O,z,1311,5,1,2329.1999999955297,705469.5,7216,VNB,B,3
2,test,4,0.0,2-Back,0.0,m,Wed Sep 03 2025 11:03:32 GMT-0500 (Central Daylight Time),709764.8999999985,007_m_m_n_a.png,O,z,939,6,1,1962.1000000014901,707802.799999997,7216,VNB,B,4
2,test,4,0.0,2-Back,0.0,m,Wed Sep 03 2025 11:03:32 GMT-0500 (Central Daylight Time),712230.6999999955,011_m_f_d_a.png,O,z,1436,7,1,2462.0999999940395,709768.6000000015,7216,VNB,B,5
2,test,4,0.0,2-Back,0.0,z,Wed Sep 03 2025 11:03:32 GMT-0500 (Central Daylight Time),714230.1000000015,020_y_f_n_a.png,O,m,978,8,1,1995.9000000059605,712234.1999999955,7216,VNB,B,6
2,test,4,1.0,2-Back,0.0,m,Wed Sep 03 2025 11:03:32 GMT-0500 (Central Daylight Time),716246.1999999955,005_o_f_h_a.png,O,z,987,9,1,2012.5999999940395,714233.6000000015,7216,VNB,B,7
3,test,4,0.0,2-Back,1.0,m,Wed Sep 03 2025 11:03:32 GMT-0500 (Central Daylight Time),718712.1000000015,007_m_m_h_a.png,O,m,1443,10,1,2461.4000000059605,716250.6999999955,7216,VNB,B,8
3,test,4,0.0,2-Back,0.0,m,Wed Sep 03 2025 11:03:32 GMT-0500 (Central Daylight Time),721244.5,020_y_f_d_a.png,O,z,1513,11,1,2527.5,718717.0,7216,VNB,B,9
4,test,4,0.0,2-Back,1.0,m,Wed Sep 03 2025 11:03:32 GMT-0500 (Central Daylight Time),723493.8999999985,016_y_m_n_a.png,O,m,1229,12,1,2245.5,721248.3999999985,7216,VNB,B,10
4,test,4,0.0,2-Back,0.0,z,Wed Sep 03 2025 11:03:32 GMT-0500 (Central Daylight Time),726492.799999997,004_o_m_d_a.png,O,m,1972,13,1,2995.0,723497.799999997,7216,VNB,B,11
4,test,4,1.0,2-Back,0.0,m,Wed Sep 03 2025 11:03:32 GMT-0500 (Central Daylight Time),728242.1999999955,011_m_f_h_a.png,O,z,733,14,1,1744.8999999985099,726497.299999997,7216,VNB,B,12
4,test,4,1.0,2-Back,0.0,m,Wed Sep 03 2025 11:03:32 GMT-0500 (Central Daylight Time),730508.3999999985,020_y_f_h_a.png,O,z,1239,15,1,2261.60000000149,728246.799999997,7216,VNB,B,13
4,test,4,0.0,2-Back,0.0,m,Wed Sep 03 2025 11:03:32 GMT-0500 (Central Daylight Time),733540.6999999955,005_o_f_n_a.png,O,None,2016,16,1,3028.2999999970198,730512.3999999985,7216,VNB,B,14
5,test,4,0.0,2-Back,1.0,m,Wed Sep 03 2025 11:03:32 GMT-0500 (Central Daylight Time),735490.1999999955,016_y_m_d_a.png,O,m,917,17,1,1945.2999999970198,733544.8999999985,7216,VNB,B,15
6,test,4,1.0,2-Back,1.0,m,Wed Sep 03 2025 11:03:32 GMT-0500 (Central Daylight Time),738322.6000000015,007_m_m_d_a.png,O,m,1807,18,1,2828.4000000059605,735494.1999999955,7216,VNB,B,16
0,test,5,1.0,2-Back,,,Wed Sep 03 2025 11:03:32 GMT-0500 (Central Daylight Time),738322.6000000015,020_y_f_d_a.png,O,space,1063,1,1,2828.4000000059605,735494.1999999955,7216,VNB,B,0
0,test,5,1.0,2-Back,,,Wed Sep 03 2025 11:03:32 GMT-0500 (Central Daylight Time),738322.6000000015,005_o_f_h_a.png,O,space,1063,2,1,2828.4000000059605,735494.1999999955,7216,VNB,B,0
1,test,5,1.0,2-Back,1.0,z,Wed Sep 03 2025 11:03:32 GMT-0500 (Central Daylight Time),747119.8999999985,004_o_m_d_a.png,O,z,1469,3,1,2495.39999999851,744624.5,7216,VNB,B,1
2,test,5,1.0,2-Back,1.0,m,Wed Sep 03 2025 11:03:32 GMT-0500 (Central Daylight Time),749502.299999997,011_m_f_n_a.png,O,m,1361,4,1,2378.6999999955297,747123.6000000015,7216,VNB,B,2
2,test,5,0.0,2-Back,0.0,m,Wed Sep 03 2025 11:03:32 GMT-0500 (Central Daylight Time),751634.8999999985,007_m_m_h_a.png,O,z,1115,5,1,2128.7999999970198,749506.1000000015,7216,VNB,B,3
3,test,5,0.0,2-Back,1.0,z,Wed Sep 03 2025 11:03:32 GMT-0500 (Central Daylight Time),754284.1000000015,020_y_f_n_a.png,O,z,1630,6,1,2644.9000000059605,751639.1999999955,7216,VNB,B,4
3,test,5,0.0,2-Back,0.0,m,Wed Sep 03 2025 11:03:32 GMT-0500 (Central Daylight Time),756600.0,005_o_f_d_a.png,O,z,1285,7,1,2312.2000000029802,754287.799999997,7216,VNB,B,5
4,test,5,0.0,2-Back,1.0,m,Wed Sep 03 2025 11:03:32 GMT-0500 (Central Daylight Time),758716.1999999955,004_o_m_h_a.png,O,m,1097,8,1,2112.0,756604.1999999955,7216,VNB,B,6
5,test,5,1.0,2-Back,1.0,z,Wed Sep 03 2025 11:03:32 GMT-0500 (Central Daylight Time),760565.6999999955,011_m_f_d_a.png,O,z,829,9,1,1845.5999999940395,758720.1000000015,7216,VNB,B,7
6,test,5,0.0,2-Back,1.0,m,Wed Sep 03 2025 11:03:32 GMT-0500 (Central Daylight Time),762631.6000000015,016_y_m_n_a.png,O,m,1044,10,1,2062.0,760569.6000000015,7216,VNB,B,8
6,test,5,0.0,2-Back,0.0,m,Wed Sep 03 2025 11:03:32 GMT-0500 (Central Daylight Time),764780.8999999985,007_m_m_n_a.png,O,z,1129,11,1,2145.60000000149,762635.299999997,7216,VNB,B,9
6,test,5,0.0,2-Back,0.0,m,Wed Sep 03 2025 11:03:32 GMT-0500 (Central Daylight Time),767263.5,020_y_f_h_a.png,O,z,1452,12,1,2478.7000000029802,764784.799999997,7216,VNB,B,10
7,test,5,0.0,2-Back,1.0,m,Wed Sep 03 2025 11:03:32 GMT-0500 (Central Daylight Time),769262.799999997,016_y_m_d_a.png,O,m,970,13,1,1995.0,767267.799999997,7216,VNB,B,11
8,test,5,1.0,2-Back,1.0,z,Wed Sep 03 2025 11:03:32 GMT-0500 (Central Daylight Time),771862.1000000015,011_m_f_h_a.png,O,z,1578,14,1,2595.5,769266.6000000015,7216,VNB,B,12
9,test,5,0.0,2-Back,1.0,m,Wed Sep 03 2025 11:03:32 GMT-0500 (Central Daylight Time),774494.5,004_o_m_n_a.png,O,m,1611,15,1,2628.39999999851,771866.1000000015,7216,VNB,B,13
9,test,5,0.0,2-Back,0.0,m,Wed Sep 03 2025 11:03:32 GMT-0500 (Central Daylight Time),777527.1999999955,007_m_m_d_a.png,O,None,2016,16,1,3029.1999999955297,774498.0,7216,VNB,B,14
10,test,5,0.0,2-Back,1.0,z,Wed Sep 03 2025 11:03:32 GMT-0500 (Central Daylight Time),779359.6999999955,005_o_f_n_a.png,O,z,810,17,1,1827.8999999985099,777531.799999997,7216,VNB,B,15
11,test,5,1.0,2-Back,1.0,m,Wed Sep 03 2025 11:03:32 GMT-0500 (Central Daylight Time),781725.6000000015,016_y_m_h_a.png,O,m,1346,18,1,2362.3000000044703,779363.299999997,7216,VNB,B,16
