acc_sum,block,block_c,change,condition,correct,correct_response,datetime,endtime,face,project,response,response_time,row_sel,session_number,start_end,starttime,subject_id,task,task_vers,trial
0,prac,1,,1-Back,,,Fri May 09 2025 08:57:35 GMT-0500 (Central Daylight Time),,005_o_f_d_a.png,O,space,11977,1,1,,,7129,VNB,B,0
0,prac,1,0.0,1-Back,0,m,Fri May 09 2025 08:57:35 GMT-0500 (Central Daylight Time),189330.30000001192,020_y_f_n_a.png,O,None,2010,2,1,2846.800000011921,186483.5,7129,VNB,B,1
1,prac,1,0.0,1-Back,1,m,Fri May 09 2025 08:57:35 GMT-0500 (Central Daylight Time),191743.69999998808,007_m_m_h_a.png,O,m,1490,3,1,2379.399999976158,189364.30000001192,7129,VNB,B,2
1,prac,1,0.0,1-Back,0,m,Fri May 09 2025 08:57:35 GMT-0500 (Central Daylight Time),193561.30000001192,016_y_m_d_a.png,O,z,913,4,1,1783.9000000357628,191777.39999997616,7129,VNB,B,3
2,prac,1,0.0,1-Back,1,m,Fri May 09 2025 08:57:35 GMT-0500 (Central Daylight Time),196126.10000002384,005_o_f_n_a.png,O,m,1658,5,1,2532.300000011921,193593.80000001192,7129,VNB,B,4
3,prac,1,1.0,1-Back,1,z,Fri May 09 2025 08:57:35 GMT-0500 (Central Daylight Time),198308.30000001192,016_y_m_n_a.png,O,z,1255,6,1,2148.199999988079,196160.10000002384,7129,VNB,B,5
4,prac,1,0.0,1-Back,1,m,Fri May 09 2025 08:57:35 GMT-0500 (Central Daylight Time),200309.19999998808,004_o_m_h_a.png,O,m,1103,7,1,1967.0999999642372,198342.10000002384,7129,VNB,B,6
5,prac,1,0.0,1-Back,1,m,Fri May 09 2025 08:57:35 GMT-0500 (Central Daylight Time),202775.19999998808,011_m_f_d_a.png,O,m,1560,8,1,2432.399999976158,200342.80000001192,7129,VNB,B,7
6,prac,1,1.0,1-Back,1,z,Fri May 09 2025 08:57:35 GMT-0500 (Central Daylight Time),204839.80000001192,020_y_f_d_a.png,O,z,1159,9,1,2030.9000000357628,202808.89999997616,7129,VNB,B,8
7,prac,1,0.0,1-Back,1,m,Fri May 09 2025 08:57:35 GMT-0500 (Central Daylight Time),207057.80000001192,007_m_m_n_a.png,O,m,1294,10,1,2186.0,204871.80000001192,7129,VNB,B,9
8,prac,1,0.0,1-Back,1,m,Fri May 09 2025 08:57:35 GMT-0500 (Central Daylight Time),209072.89999997616,005_o_f_h_a.png,O,m,1131,11,1,1982.7999999523163,207090.10000002384,7129,VNB,B,10
9,prac,1,0.0,1-Back,1,m,Fri May 09 2025 08:57:35 GMT-0500 (Central Daylight Time),211588.0,016_y_m_d_a.png,O,m,1594,12,1,2482.300000011921,209105.69999998808,7129,VNB,B,11
0,test,1,0.0,1-Back,,,Fri May 09 2025 08:57:35 GMT-0500 (Central Daylight Time),211588.0,020_y_f_d_a.png,O,space,11563,1,1,2482.300000011921,209105.69999998808,7129,VNB,B,0
1,test,1,0.0,1-Back,1,m,Fri May 09 2025 08:57:35 GMT-0500 (Central Daylight Time),236430.30000001192,011_m_f_n_a.png,O,m,1620,2,1,2650.0,233780.30000001192,7129,VNB,B,1
2,test,1,0.0,1-Back,1,m,Fri May 09 2025 08:57:35 GMT-0500 (Central Daylight Time),238930.0,004_o_m_h_a.png,O,m,1467,3,1,2470.199999988079,236459.80000001192,7129,VNB,B,2
3,test,1,1.0,1-Back,1,z,Fri May 09 2025 08:57:35 GMT-0500 (Central Daylight Time),241110.0,007_m_m_h_a.png,O,z,1142,4,1,2149.100000023842,238960.89999997616,7129,VNB,B,3
4,test,1,0.0,1-Back,1,m,Fri May 09 2025 08:57:35 GMT-0500 (Central Daylight Time),243578.10000002384,005_o_f_n_a.png,O,m,1425,5,1,2438.7000000476837,241139.39999997616,7129,VNB,B,4
4,test,1,0.0,1-Back,0,m,Fri May 09 2025 08:57:35 GMT-0500 (Central Daylight Time),246644.60000002384,016_y_m_d_a.png,O,None,2015,6,1,3031.7000000476837,243612.89999997616,7129,VNB,B,5
4,test,1,1.0,1-Back,0,z,Fri May 09 2025 08:57:35 GMT-0500 (Central Daylight Time),249708.30000001192,011_m_f_d_a.png,O,None,2015,7,1,3030.100000023842,246678.19999998808,7129,VNB,B,6
5,test,1,0.0,1-Back,1,m,Fri May 09 2025 08:57:35 GMT-0500 (Central Daylight Time),252441.89999997616,020_y_f_h_a.png,O,m,1690,8,1,2702.0,249739.89999997616,7129,VNB,B,7
6,test,1,0.0,1-Back,1,m,Fri May 09 2025 08:57:35 GMT-0500 (Central Daylight Time),254789.80000001192,004_o_m_n_a.png,O,m,1302,9,1,2315.699999988079,252474.10000002384,7129,VNB,B,8
7,test,1,0.0,1-Back,1,m,Fri May 09 2025 08:57:35 GMT-0500 (Central Daylight Time),257222.39999997616,016_y_m_h_a.png,O,m,1385,10,1,2401.599999964237,254820.80000001192,7129,VNB,B,9
8,test,1,0.0,1-Back,1,m,Fri May 09 2025 08:57:35 GMT-0500 (Central Daylight Time),259705.69999998808,004_o_m_d_a.png,O,m,1448,11,1,2453.0,257252.69999998808,7129,VNB,B,10
9,test,1,1.0,1-Back,1,z,Fri May 09 2025 08:57:35 GMT-0500 (Central Daylight Time),261804.60000002384,005_o_f_d_a.png,O,z,1054,12,1,2068.7000000476837,259735.89999997616,7129,VNB,B,11
10,test,1,0.0,1-Back,1,m,Fri May 09 2025 08:57:35 GMT-0500 (Central Daylight Time),264304.39999997616,007_m_m_n_a.png,O,m,1449,13,1,2469.2999999523163,261835.10000002384,7129,VNB,B,12
11,test,1,1.0,1-Back,1,z,Fri May 09 2025 08:57:35 GMT-0500 (Central Daylight Time),266503.5,020_y_f_n_a.png,O,z,1159,14,1,2170.399999976158,264333.10000002384,7129,VNB,B,13
12,test,1,0.0,1-Back,1,m,Fri May 09 2025 08:57:35 GMT-0500 (Central Daylight Time),268617.8000000119,011_m_f_h_a.png,O,m,1083,15,1,2084.0,266533.8000000119,7129,VNB,B,14
13,test,1,0.0,1-Back,1,m,Fri May 09 2025 08:57:35 GMT-0500 (Central Daylight Time),270918.60000002384,007_m_m_d_a.png,O,m,1260,16,1,2271.900000035763,268646.6999999881,7129,VNB,B,15
14,test,1,0.0,1-Back,1,m,Fri May 09 2025 08:57:35 GMT-0500 (Central Daylight Time),273334.60000002384,016_y_m_n_a.png,O,m,1376,17,1,2386.400000035763,270948.1999999881,7129,VNB,B,16
15,test,1,0.0,1-Back,1,m,Fri May 09 2025 08:57:35 GMT-0500 (Central Daylight Time),275717.1999999881,005_o_f_h_a.png,O,m,1345,18,1,2351.300000011921,273365.89999997616,7129,VNB,B,17
0,test,2,0.0,1-Back,,,Fri May 09 2025 08:57:35 GMT-0500 (Central Daylight Time),275717.1999999881,016_y_m_n_a.png,O,space,3851,1,1,2351.300000011921,273365.89999997616,7129,VNB,B,0
1,test,2,0.0,1-Back,1,m,Fri May 09 2025 08:57:35 GMT-0500 (Central Daylight Time),284098.6999999881,020_y_f_h_a.png,O,m,1467,2,1,2483.800000011921,281614.89999997616,7129,VNB,B,1
2,test,2,1.0,1-Back,1,m,Fri May 09 2025 08:57:35 GMT-0500 (Central Daylight Time),286613.6999999881,004_o_m_n_a.png,O,m,1468,3,1,2484.599999964237,284129.10000002384,7129,VNB,B,2
3,test,2,0.0,1-Back,1,m,Fri May 09 2025 08:57:35 GMT-0500 (Central Daylight Time),289228.5,011_m_f_d_a.png,O,m,1562,4,1,2581.399999976158,286647.10000002384,7129,VNB,B,3
4,test,2,0.0,1-Back,1,z,Fri May 09 2025 08:57:35 GMT-0500 (Central Daylight Time),291512.89999997616,007_m_m_d_a.png,O,z,1234,5,1,2255.0,289257.89999997616,7129,VNB,B,4
5,test,2,0.0,1-Back,1,m,Fri May 09 2025 08:57:35 GMT-0500 (Central Daylight Time),293694.5,016_y_m_h_a.png,O,m,1119,6,1,2150.100000023842,291544.39999997616,7129,VNB,B,5
6,test,2,1.0,1-Back,1,z,Fri May 09 2025 08:57:35 GMT-0500 (Central Daylight Time),295876.60000002384,005_o_f_h_a.png,O,z,1135,7,1,2151.900000035763,293724.6999999881,7129,VNB,B,6
7,test,2,0.0,1-Back,1,m,Fri May 09 2025 08:57:35 GMT-0500 (Central Daylight Time),297942.89999997616,011_m_f_n_a.png,O,m,1026,8,1,2035.199999988079,295907.6999999881,7129,VNB,B,7
8,test,2,0.0,1-Back,1,m,Fri May 09 2025 08:57:35 GMT-0500 (Central Daylight Time),300325.39999997616,020_y_f_d_a.png,O,m,1344,9,1,2352.7999999523163,297972.60000002384,7129,VNB,B,8
9,test,2,0.0,1-Back,1,m,Fri May 09 2025 08:57:35 GMT-0500 (Central Daylight Time),302725.39999997616,007_m_m_n_a.png,O,m,1363,10,1,2368.899999976158,300356.5,7129,VNB,B,9
10,test,2,1.0,1-Back,1,m,Fri May 09 2025 08:57:35 GMT-0500 (Central Daylight Time),305240.60000002384,011_m_f_h_a.png,O,m,1474,11,1,2494.7000000476837,302745.89999997616,7129,VNB,B,10
11,test,2,0.0,1-Back,1,z,Fri May 09 2025 08:57:35 GMT-0500 (Central Daylight Time),307340.39999997616,004_o_m_h_a.png,O,z,1039,12,1,2066.399999976158,305274.0,7129,VNB,B,11
12,test,2,0.0,1-Back,1,m,Fri May 09 2025 08:57:35 GMT-0500 (Central Daylight Time),309475.39999997616,016_y_m_d_a.png,O,m,1100,13,1,2123.099999964237,307352.3000000119,7129,VNB,B,12
13,test,2,0.0,1-Back,1,m,Fri May 09 2025 08:57:35 GMT-0500 (Central Daylight Time),312489.89999997616,005_o_f_n_a.png,O,m,1958,14,1,2982.7999999523163,309507.10000002384,7129,VNB,B,13
14,test,2,0.0,1-Back,1,z,Fri May 09 2025 08:57:35 GMT-0500 (Central Daylight Time),314905.6999999881,020_y_f_n_a.png,O,z,1351,15,1,2381.699999988079,312524.0,7129,VNB,B,14
15,test,2,1.0,1-Back,1,m,Fri May 09 2025 08:57:35 GMT-0500 (Central Daylight Time),317205.0,007_m_m_h_a.png,O,m,1240,16,1,2266.199999988079,314938.8000000119,7129,VNB,B,15
16,test,2,0.0,1-Back,1,m,Fri May 09 2025 08:57:35 GMT-0500 (Central Daylight Time),319659.0,005_o_f_d_a.png,O,m,1385,17,1,2421.899999976158,317237.10000002384,7129,VNB,B,16
17,test,2,1.0,1-Back,1,z,Fri May 09 2025 08:57:35 GMT-0500 (Central Daylight Time),321769.60000002384,004_o_m_d_a.png,O,z,1049,18,1,2082.100000023842,319687.5,7129,VNB,B,17
0,test,3,1.0,1-Back,,,Fri May 09 2025 08:57:35 GMT-0500 (Central Daylight Time),321769.60000002384,005_o_f_h_a.png,O,space,5080,1,1,2082.100000023842,319687.5,7129,VNB,B,0
1,test,3,0.0,1-Back,1,m,Fri May 09 2025 08:57:35 GMT-0500 (Central Daylight Time),331149.6999999881,011_m_f_d_a.png,O,m,1131,2,1,2147.199999988079,329002.5,7129,VNB,B,1
2,test,3,1.0,1-Back,1,m,Fri May 09 2025 08:57:35 GMT-0500 (Central Daylight Time),333684.5,007_m_m_n_a.png,O,m,1501,3,1,2503.600000023842,331180.89999997616,7129,VNB,B,2
3,test,3,0.0,1-Back,1,z,Fri May 09 2025 08:57:35 GMT-0500 (Central Daylight Time),335748.6999999881,005_o_f_n_a.png,O,z,1006,4,1,2032.8999999761581,333715.8000000119,7129,VNB,B,3
4,test,3,1.0,1-Back,1,m,Fri May 09 2025 08:57:35 GMT-0500 (Central Daylight Time),337914.60000002384,004_o_m_d_a.png,O,m,1099,5,1,2132.7000000476837,335781.89999997616,7129,VNB,B,4
5,test,3,0.0,1-Back,1,m,Fri May 09 2025 08:57:35 GMT-0500 (Central Daylight Time),340129.1999999881,020_y_f_h_a.png,O,m,1173,6,1,2186.099999964237,337943.10000002384,7129,VNB,B,5
6,test,3,0.0,1-Back,1,z,Fri May 09 2025 08:57:35 GMT-0500 (Central Daylight Time),342179.3000000119,016_y_m_h_a.png,O,z,1005,7,1,2019.300000011921,340160.0,7129,VNB,B,6
7,test,3,0.0,1-Back,1,m,Fri May 09 2025 08:57:35 GMT-0500 (Central Daylight Time),344295.10000002384,011_m_f_n_a.png,O,m,1050,8,1,2088.2000000476837,342206.89999997616,7129,VNB,B,7
8,test,3,0.0,1-Back,1,m,Fri May 09 2025 08:57:35 GMT-0500 (Central Daylight Time),346744.5,020_y_f_d_a.png,O,m,1391,9,1,2416.0,344328.5,7129,VNB,B,8
9,test,3,1.0,1-Back,1,m,Fri May 09 2025 08:57:35 GMT-0500 (Central Daylight Time),349009.8000000119,004_o_m_n_a.png,O,m,1215,10,1,2235.900000035763,346773.89999997616,7129,VNB,B,9
10,test,3,0.0,1-Back,1,m,Fri May 09 2025 08:57:35 GMT-0500 (Central Daylight Time),351145.60000002384,007_m_m_h_a.png,O,m,1085,11,1,2104.5,349041.10000002384,7129,VNB,B,10
11,test,3,0.0,1-Back,1,z,Fri May 09 2025 08:57:35 GMT-0500 (Central Daylight Time),353176.39999997616,011_m_f_h_a.png,O,z,976,12,1,2001.199999988079,351175.1999999881,7129,VNB,B,11
12,test,3,1.0,1-Back,1,m,Fri May 09 2025 08:57:35 GMT-0500 (Central Daylight Time),355175.5,005_o_f_d_a.png,O,m,951,13,1,1967.5,353208.0,7129,VNB,B,12
13,test,3,0.0,1-Back,1,z,Fri May 09 2025 08:57:35 GMT-0500 (Central Daylight Time),357356.3000000119,007_m_m_d_a.png,O,z,1143,14,1,2150.0,355206.3000000119,7129,VNB,B,13
14,test,3,0.0,1-Back,1,m,Fri May 09 2025 08:57:35 GMT-0500 (Central Daylight Time),359658.39999997616,016_y_m_n_a.png,O,m,1258,15,1,2270.5,357387.89999997616,7129,VNB,B,14
15,test,3,1.0,1-Back,1,m,Fri May 09 2025 08:57:35 GMT-0500 (Central Daylight Time),361890.0,004_o_m_h_a.png,O,m,1174,16,1,2199.399999976158,359690.60000002384,7129,VNB,B,15
16,test,3,0.0,1-Back,1,m,Fri May 09 2025 08:57:35 GMT-0500 (Central Daylight Time),364288.1999999881,016_y_m_d_a.png,O,m,1342,17,1,2367.0,361921.1999999881,7129,VNB,B,16
17,test,3,1.0,1-Back,1,m,Fri May 09 2025 08:57:35 GMT-0500 (Central Daylight Time),366876.5,020_y_f_n_a.png,O,m,1554,18,1,2558.399999976158,364318.10000002384,7129,VNB,B,17
0,test,4,1.0,1-Back,,,Fri May 09 2025 08:57:35 GMT-0500 (Central Daylight Time),366876.5,007_m_m_d_a.png,O,space,3493,1,1,2558.399999976158,364318.10000002384,7129,VNB,B,0
1,test,4,0.0,1-Back,1,z,Fri May 09 2025 08:57:35 GMT-0500 (Central Daylight Time),374669.1999999881,004_o_m_d_a.png,O,z,1236,2,1,2253.599999964237,372415.60000002384,7129,VNB,B,1
2,test,4,0.0,1-Back,1,m,Fri May 09 2025 08:57:35 GMT-0500 (Central Daylight Time),376735.60000002384,016_y_m_h_a.png,O,m,1026,3,1,2036.5,374699.10000002384,7129,VNB,B,2
3,test,4,0.0,1-Back,1,m,Fri May 09 2025 08:57:35 GMT-0500 (Central Daylight Time),379167.3000000119,011_m_f_n_a.png,O,m,1383,4,1,2400.900000035763,376766.39999997616,7129,VNB,B,3
4,test,4,1.0,1-Back,1,m,Fri May 09 2025 08:57:35 GMT-0500 (Central Daylight Time),381333.3000000119,005_o_f_h_a.png,O,m,1131,5,1,2135.900000035763,379197.39999997616,7129,VNB,B,4
5,test,4,0.0,1-Back,1,m,Fri May 09 2025 08:57:35 GMT-0500 (Central Daylight Time),383616.89999997616,007_m_m_n_a.png,O,m,1241,6,1,2252.0,381364.89999997616,7129,VNB,B,5
6,test,4,0.0,1-Back,1,m,Fri May 09 2025 08:57:35 GMT-0500 (Central Daylight Time),386015.1999999881,016_y_m_d_a.png,O,m,1335,7,1,2365.699999988079,383649.5,7129,VNB,B,6
7,test,4,1.0,1-Back,1,z,Fri May 09 2025 08:57:35 GMT-0500 (Central Daylight Time),387997.89999997616,020_y_f_d_a.png,O,z,919,8,1,1948.7999999523163,386049.10000002384,7129,VNB,B,7
8,test,4,0.0,1-Back,1,m,Fri May 09 2025 08:57:35 GMT-0500 (Central Daylight Time),390131.3000000119,011_m_f_h_a.png,O,m,1081,9,1,2102.400000035763,388028.89999997616,7129,VNB,B,8
9,test,4,0.0,1-Back,1,z,Fri May 09 2025 08:57:35 GMT-0500 (Central Daylight Time),391996.89999997616,004_o_m_h_a.png,O,z,833,10,1,1834.3999999761581,390162.5,7129,VNB,B,9
10,test,4,1.0,1-Back,1,m,Fri May 09 2025 08:57:35 GMT-0500 (Central Daylight Time),394112.60000002384,005_o_f_n_a.png,O,m,1058,11,1,2082.600000023842,392030.0,7129,VNB,B,10
11,test,4,0.0,1-Back,1,m,Fri May 09 2025 08:57:35 GMT-0500 (Central Daylight Time),396662.3000000119,011_m_f_d_a.png,O,m,1510,12,1,2518.199999988079,394144.10000002384,7129,VNB,B,11
12,test,4,0.0,1-Back,1,m,Fri May 09 2025 08:57:35 GMT-0500 (Central Daylight Time),399160.1999999881,020_y_f_n_a.png,O,m,1442,13,1,2465.5,396694.6999999881,7129,VNB,B,12
13,test,4,0.0,1-Back,1,m,Fri May 09 2025 08:57:35 GMT-0500 (Central Daylight Time),401893.5,005_o_f_d_a.png,O,m,1687,14,1,2701.399999976158,399192.10000002384,7129,VNB,B,13
14,test,4,0.0,1-Back,1,m,Fri May 09 2025 08:57:35 GMT-0500 (Central Daylight Time),404292.39999997616,020_y_f_h_a.png,O,m,1363,15,1,2369.399999976158,401923.0,7129,VNB,B,14
15,test,4,1.0,1-Back,1,z,Fri May 09 2025 08:57:35 GMT-0500 (Central Daylight Time),406410.60000002384,007_m_m_h_a.png,O,z,1082,16,1,2086.900000035763,404323.6999999881,7129,VNB,B,15
16,test,4,0.0,1-Back,1,m,Fri May 09 2025 08:57:35 GMT-0500 (Central Daylight Time),408692.39999997616,004_o_m_n_a.png,O,m,1231,17,1,2250.199999988079,406442.1999999881,7129,VNB,B,16
17,test,4,1.0,1-Back,1,z,Fri May 09 2025 08:57:35 GMT-0500 (Central Daylight Time),410790.8000000119,016_y_m_n_a.png,O,z,1047,18,1,2069.199999988079,408721.60000002384,7129,VNB,B,17
0,test,5,1.0,1-Back,,,Fri May 09 2025 08:57:35 GMT-0500 (Central Daylight Time),410790.8000000119,004_o_m_n_a.png,O,space,3410,1,1,2069.199999988079,408721.60000002384,7129,VNB,B,0
1,test,5,1.0,1-Back,1,m,Fri May 09 2025 08:57:35 GMT-0500 (Central Daylight Time),418254.5,005_o_f_h_a.png,O,m,994,2,1,2000.0,416254.5,7129,VNB,B,1
2,test,5,0.0,1-Back,1,m,Fri May 09 2025 08:57:35 GMT-0500 (Central Daylight Time),420471.1999999881,016_y_m_d_a.png,O,m,1177,3,1,2186.699999988079,418284.5,7129,VNB,B,2
3,test,5,0.0,1-Back,1,z,Fri May 09 2025 08:57:35 GMT-0500 (Central Daylight Time),422454.1999999881,004_o_m_d_a.png,O,z,935,4,1,1951.8999999761581,420502.3000000119,7129,VNB,B,3
4,test,5,0.0,1-Back,1,m,Fri May 09 2025 08:57:35 GMT-0500 (Central Daylight Time),424437.10000002384,011_m_f_h_a.png,O,m,921,5,1,1949.800000011921,422487.3000000119,7129,VNB,B,4
5,test,5,0.0,1-Back,1,m,Fri May 09 2025 08:57:35 GMT-0500 (Central Daylight Time),426602.8000000119,020_y_f_n_a.png,O,m,1122,6,1,2136.5,424466.3000000119,7129,VNB,B,5
6,test,5,1.0,1-Back,1,z,Fri May 09 2025 08:57:35 GMT-0500 (Central Daylight Time),428802.3000000119,005_o_f_n_a.png,O,z,1151,7,1,2169.800000011921,426632.5,7129,VNB,B,6
7,test,5,0.0,1-Back,1,m,Fri May 09 2025 08:57:35 GMT-0500 (Central Daylight Time),430901.60000002384,011_m_f_d_a.png,O,m,1065,8,1,2067.7000000476837,428833.89999997616,7129,VNB,B,7
8,test,5,0.0,1-Back,1,m,Fri May 09 2025 08:57:35 GMT-0500 (Central Daylight Time),432932.8000000119,016_y_m_h_a.png,O,m,968,9,1,1999.6000000238419,430933.1999999881,7129,VNB,B,8
9,test,5,0.0,1-Back,1,m,Fri May 09 2025 08:57:35 GMT-0500 (Central Daylight Time),434951.3000000119,020_y_f_d_a.png,O,m,969,10,1,1995.300000011921,432956.0,7129,VNB,B,9
10,test,5,0.0,1-Back,1,m,Fri May 09 2025 08:57:35 GMT-0500 (Central Daylight Time),436982.39999997616,007_m_m_n_a.png,O,m,972,11,1,1998.5,434983.89999997616,7129,VNB,B,10
11,test,5,1.0,1-Back,1,z,Fri May 09 2025 08:57:35 GMT-0500 (Central Daylight Time),439062.8000000119,011_m_f_n_a.png,O,z,1035,12,1,2050.100000023842,437012.6999999881,7129,VNB,B,11
12,test,5,0.0,1-Back,1,m,Fri May 09 2025 08:57:35 GMT-0500 (Central Daylight Time),441331.3000000119,004_o_m_h_a.png,O,m,1221,13,1,2239.199999988079,439092.10000002384,7129,VNB,B,12
13,test,5,0.0,1-Back,1,z,Fri May 09 2025 08:57:35 GMT-0500 (Central Daylight Time),443413.8000000119,007_m_m_h_a.png,O,z,1036,14,1,2051.0,441362.8000000119,7129,VNB,B,13
14,test,5,1.0,1-Back,1,m,Fri May 09 2025 08:57:35 GMT-0500 (Central Daylight Time),445614.60000002384,005_o_f_d_a.png,O,m,1138,15,1,2169.2000000476837,443445.39999997616,7129,VNB,B,14
15,test,5,0.0,1-Back,1,m,Fri May 09 2025 08:57:35 GMT-0500 (Central Daylight Time),447763.89999997616,016_y_m_n_a.png,O,m,1098,16,1,2117.7999999523163,445646.10000002384,7129,VNB,B,15
16,test,5,0.0,1-Back,1,m,Fri May 09 2025 08:57:35 GMT-0500 (Central Daylight Time),450161.0,020_y_f_h_a.png,O,m,1342,17,1,2363.699999988079,447797.3000000119,7129,VNB,B,16
17,test,5,0.0,1-Back,1,m,Fri May 09 2025 08:57:35 GMT-0500 (Central Daylight Time),452493.3000000119,007_m_m_d_a.png,O,m,1292,18,1,2298.100000023842,450195.1999999881,7129,VNB,B,17
0,prac,1,0.0,2-Back,,,Fri May 09 2025 08:57:35 GMT-0500 (Central Daylight Time),452493.3000000119,011_m_f_n_a.png,O,space,9096,1,1,2298.100000023842,450195.1999999881,7129,VNB,B,0
0,prac,1,0.0,2-Back,,,Fri May 09 2025 08:57:35 GMT-0500 (Central Daylight Time),452493.3000000119,005_o_f_h_a.png,O,space,9096,2,1,2298.100000023842,450195.1999999881,7129,VNB,B,0
1,prac,1,0.0,2-Back,1,m,Fri May 09 2025 08:57:35 GMT-0500 (Central Daylight Time),577421.8000000119,004_o_m_d_a.png,O,m,1591,3,1,2450.100000023842,574971.6999999881,7129,VNB,B,1
1,prac,1,1.0,2-Back,0,z,Fri May 09 2025 08:57:35 GMT-0500 (Central Daylight Time),580338.0,007_m_m_h_a.png,O,None,2007,4,1,2881.800000011921,577456.1999999881,7129,VNB,B,2
2,prac,1,0.0,2-Back,1,m,Fri May 09 2025 08:57:35 GMT-0500 (Central Daylight Time),582952.8000000119,020_y_f_n_a.png,O,m,1721,5,1,2580.900000035763,580371.8999999762,7129,VNB,B,3
3,prac,1,1.0,2-Back,1,z,Fri May 09 2025 08:57:35 GMT-0500 (Central Daylight Time),585254.0,004_o_m_h_a.png,O,z,1512,6,1,2268.100000023842,582985.8999999762,7129,VNB,B,4
4,prac,1,1.0,2-Back,1,z,Fri May 09 2025 08:57:35 GMT-0500 (Central Daylight Time),587667.8999999762,016_y_m_n_a.png,O,z,1511,7,1,2380.699999988079,585287.1999999881,7129,VNB,B,5
5,prac,1,0.0,2-Back,1,m,Fri May 09 2025 08:57:35 GMT-0500 (Central Daylight Time),589599.3999999762,011_m_f_d_a.png,O,m,1016,8,1,1897.699999988079,587701.6999999881,7129,VNB,B,6
5,prac,1,0.0,2-Back,0,m,Fri May 09 2025 08:57:35 GMT-0500 (Central Daylight Time),592516.5,005_o_f_d_a.png,O,None,2018,9,1,2887.899999976158,589628.6000000238,7129,VNB,B,7
5,prac,1,0.0,2-Back,0,m,Fri May 09 2025 08:57:35 GMT-0500 (Central Daylight Time),594732.6000000238,007_m_m_h_a.png,O,z,1411,10,1,2181.800000011921,592550.8000000119,7129,VNB,B,8
5,prac,1,1.0,2-Back,0,z,Fri May 09 2025 08:57:35 GMT-0500 (Central Daylight Time),597081.3999999762,020_y_f_d_a.png,O,m,1459,11,1,2313.399999976158,594768.0,7129,VNB,B,9
5,prac,1,0.0,2-Back,0,m,Fri May 09 2025 08:57:35 GMT-0500 (Central Daylight Time),599963.3999999762,004_o_m_n_a.png,O,None,2001,12,1,2848.2999999523163,597115.1000000238,7129,VNB,B,10
0,test,1,0.0,2-Back,,,Fri May 09 2025 08:57:35 GMT-0500 (Central Daylight Time),599963.3999999762,016_y_m_h_a.png,O,space,13956,1,1,2848.2999999523163,597115.1000000238,7129,VNB,B,0
0,test,1,0.0,2-Back,,,Fri May 09 2025 08:57:35 GMT-0500 (Central Daylight Time),599963.3999999762,005_o_f_n_a.png,O,space,13956,2,1,2848.2999999523163,597115.1000000238,7129,VNB,B,0
1,test,1,0.0,2-Back,1,z,Fri May 09 2025 08:57:35 GMT-0500 (Central Daylight Time),643284.3000000119,004_o_m_h_a.png,O,z,1282,3,1,2301.0,640983.3000000119,7129,VNB,B,1
2,test,1,0.0,2-Back,1,m,Fri May 09 2025 08:57:35 GMT-0500 (Central Daylight Time),645615.6000000238,011_m_f_d_a.png,O,m,1267,4,1,2300.100000023842,643315.5,7129,VNB,B,2
2,test,1,1.0,2-Back,0,m,Fri May 09 2025 08:57:35 GMT-0500 (Central Daylight Time),648331.5,016_y_m_n_a.png,O,z,1679,5,1,2684.300000011921,645647.1999999881,7129,VNB,B,3
2,test,1,0.0,2-Back,0,z,Fri May 09 2025 08:57:35 GMT-0500 (Central Daylight Time),651379.6999999881,020_y_f_d_a.png,O,None,2015,6,1,3018.800000011921,648360.8999999762,7129,VNB,B,4
2,test,1,0.0,2-Back,0,m,Fri May 09 2025 08:57:35 GMT-0500 (Central Daylight Time),654430.0,007_m_m_h_a.png,O,None,2015,7,1,3016.899999976158,651413.1000000238,7129,VNB,B,5
2,test,1,1.0,2-Back,0,m,Fri May 09 2025 08:57:35 GMT-0500 (Central Daylight Time),656546.3000000119,020_y_f_n_a.png,O,z,1065,8,1,2084.400000035763,654461.8999999762,7129,VNB,B,6
3,test,1,0.0,2-Back,1,z,Fri May 09 2025 08:57:35 GMT-0500 (Central Daylight Time),659011.8000000119,005_o_f_h_a.png,O,z,1405,9,1,2436.300000011921,656575.5,7129,VNB,B,7
4,test,1,0.0,2-Back,1,m,Fri May 09 2025 08:57:35 GMT-0500 (Central Daylight Time),661778.3000000119,004_o_m_d_a.png,O,m,1724,10,1,2737.400000035763,659040.8999999762,7129,VNB,B,8
4,test,1,1.0,2-Back,0,m,Fri May 09 2025 08:57:35 GMT-0500 (Central Daylight Time),664844.1999999881,007_m_m_d_a.png,O,None,2016,11,1,3033.0,661811.1999999881,7129,VNB,B,9
5,test,1,0.0,2-Back,1,m,Fri May 09 2025 08:57:35 GMT-0500 (Central Daylight Time),667376.1000000238,011_m_f_n_a.png,O,m,1483,12,1,2508.0,664868.1000000238,7129,VNB,B,10
6,test,1,0.0,2-Back,1,m,Fri May 09 2025 08:57:35 GMT-0500 (Central Daylight Time),669592.3999999762,020_y_f_h_a.png,O,m,1175,13,1,2186.2999999523163,667406.1000000238,7129,VNB,B,11
7,test,1,0.0,2-Back,1,z,Fri May 09 2025 08:57:35 GMT-0500 (Central Daylight Time),671557.1000000238,007_m_m_n_a.png,O,z,926,14,1,1931.7000000476837,669625.3999999762,7129,VNB,B,12
8,test,1,0.0,2-Back,1,m,Fri May 09 2025 08:57:35 GMT-0500 (Central Daylight Time),673824.6000000238,016_y_m_d_a.png,O,m,1215,15,1,2234.400000035763,671590.1999999881,7129,VNB,B,13
8,test,1,1.0,2-Back,0,m,Fri May 09 2025 08:57:35 GMT-0500 (Central Daylight Time),676756.3999999762,011_m_f_h_a.png,O,z,1888,16,1,2910.7999999523163,673845.6000000238,7129,VNB,B,14
8,test,1,0.0,2-Back,0,z,Fri May 09 2025 08:57:35 GMT-0500 (Central Daylight Time),679822.5,005_o_f_d_a.png,O,None,2016,17,1,3031.899999976158,676790.6000000238,7129,VNB,B,15
8,test,1,0.0,2-Back,0,m,Fri May 09 2025 08:57:35 GMT-0500 (Central Daylight Time),682354.5,004_o_m_n_a.png,O,z,1489,18,1,2501.300000011921,679853.1999999881,7129,VNB,B,16
0,test,2,0.0,2-Back,,,Fri May 09 2025 08:57:35 GMT-0500 (Central Daylight Time),682354.5,007_m_m_h_a.png,O,space,4351,1,1,2501.300000011921,679853.1999999881,7129,VNB,B,0
0,test,2,0.0,2-Back,,,Fri May 09 2025 08:57:35 GMT-0500 (Central Daylight Time),682354.5,020_y_f_n_a.png,O,space,4351,2,1,2501.300000011921,679853.1999999881,7129,VNB,B,0
1,test,2,1.0,2-Back,1,z,Fri May 09 2025 08:57:35 GMT-0500 (Central Daylight Time),694268.6000000238,005_o_f_h_a.png,O,z,1281,3,1,2285.2000000476837,691983.3999999762,7129,VNB,B,1
2,test,2,0.0,2-Back,1,m,Fri May 09 2025 08:57:35 GMT-0500 (Central Daylight Time),696416.1000000238,004_o_m_d_a.png,O,m,1083,4,1,2121.2000000476837,694294.8999999762,7129,VNB,B,2
2,test,2,0.0,2-Back,0,m,Fri May 09 2025 08:57:35 GMT-0500 (Central Daylight Time),699466.0,011_m_f_d_a.png,O,None,2013,5,1,3017.0,696449.0,7129,VNB,B,3
3,test,2,0.0,2-Back,1,m,Fri May 09 2025 08:57:35 GMT-0500 (Central Daylight Time),702031.3000000119,016_y_m_h_a.png,O,m,1526,6,1,2540.800000011921,699490.5,7129,VNB,B,4
4,test,2,0.0,2-Back,1,m,Fri May 09 2025 08:57:35 GMT-0500 (Central Daylight Time),704864.6999999881,005_o_f_n_a.png,O,m,1792,7,1,2802.899999976158,702061.8000000119,7129,VNB,B,5
5,test,2,1.0,2-Back,1,z,Fri May 09 2025 08:57:35 GMT-0500 (Central Daylight Time),707428.5,004_o_m_h_a.png,O,z,1526,8,1,2531.399999976158,704897.1000000238,7129,VNB,B,6
5,test,2,0.0,2-Back,0,m,Fri May 09 2025 08:57:35 GMT-0500 (Central Daylight Time),710128.8999999762,020_y_f_d_a.png,O,z,1634,9,1,2670.7999999523163,707458.1000000238,7129,VNB,B,7
6,test,2,0.0,2-Back,1,m,Fri May 09 2025 08:57:35 GMT-0500 (Central Daylight Time),712378.3999999762,016_y_m_d_a.png,O,m,1208,10,1,2218.5,710159.8999999762,7129,VNB,B,8
6,test,2,0.0,2-Back,0,m,Fri May 09 2025 08:57:35 GMT-0500 (Central Daylight Time),714677.1000000238,007_m_m_n_a.png,O,z,1259,11,1,2272.800000011921,712404.3000000119,7129,VNB,B,9
7,test,2,0.0,2-Back,1,m,Fri May 09 2025 08:57:35 GMT-0500 (Central Daylight Time),717011.5,011_m_f_h_a.png,O,m,1275,12,1,2300.600000023842,714710.8999999762,7129,VNB,B,10
8,test,2,1.0,2-Back,1,z,Fri May 09 2025 08:57:35 GMT-0500 (Central Daylight Time),719408.3999999762,004_o_m_n_a.png,O,z,1356,13,1,2366.5,717041.8999999762,7129,VNB,B,11
8,test,2,0.0,2-Back,0,m,Fri May 09 2025 08:57:35 GMT-0500 (Central Daylight Time),722475.8000000119,005_o_f_d_a.png,O,None,2017,14,1,3032.5,719443.3000000119,7129,VNB,B,12
8,test,2,0.0,2-Back,0,m,Fri May 09 2025 08:57:35 GMT-0500 (Central Daylight Time),725141.6999999881,020_y_f_h_a.png,O,z,1615,15,1,2633.699999988079,722508.0,7129,VNB,B,13
9,test,2,0.0,2-Back,1,z,Fri May 09 2025 08:57:35 GMT-0500 (Central Daylight Time),727890.8000000119,007_m_m_d_a.png,O,z,1683,16,1,2715.800000011921,725175.0,7129,VNB,B,14
10,test,2,0.0,2-Back,1,m,Fri May 09 2025 08:57:35 GMT-0500 (Central Daylight Time),730506.0,016_y_m_n_a.png,O,m,1574,17,1,2590.899999976158,727915.1000000238,7129,VNB,B,15
10,test,2,1.0,2-Back,0,m,Fri May 09 2025 08:57:35 GMT-0500 (Central Daylight Time),733556.6999999881,011_m_f_n_a.png,O,None,2016,18,1,3017.599999964237,730539.1000000238,7129,VNB,B,16
0,test,3,1.0,2-Back,,,Fri May 09 2025 08:57:35 GMT-0500 (Central Daylight Time),733556.6999999881,004_o_m_n_a.png,O,space,5125,1,1,3017.599999964237,730539.1000000238,7129,VNB,B,0
0,test,3,1.0,2-Back,,,Fri May 09 2025 08:57:35 GMT-0500 (Central Daylight Time),733556.6999999881,005_o_f_d_a.png,O,space,5125,2,1,3017.599999964237,730539.1000000238,7129,VNB,B,0
1,test,3,0.0,2-Back,1,m,Fri May 09 2025 08:57:35 GMT-0500 (Central Daylight Time),745950.3999999762,020_y_f_h_a.png,O,m,1168,3,1,2186.5,743763.8999999762,7129,VNB,B,1
2,test,3,0.0,2-Back,1,z,Fri May 09 2025 08:57:35 GMT-0500 (Central Daylight Time),747999.6000000238,011_m_f_d_a.png,O,z,1001,4,1,2019.7000000476837,745979.8999999762,7129,VNB,B,2
2,test,3,1.0,2-Back,0,m,Fri May 09 2025 08:57:35 GMT-0500 (Central Daylight Time),750466.1000000238,016_y_m_n_a.png,O,z,1424,5,1,2433.7000000476837,748032.3999999762,7129,VNB,B,3
3,test,3,0.0,2-Back,1,m,Fri May 09 2025 08:57:35 GMT-0500 (Central Daylight Time),753415.3000000119,004_o_m_h_a.png,O,m,1901,6,1,2923.0,750492.3000000119,7129,VNB,B,4
3,test,3,0.0,2-Back,0,z,Fri May 09 2025 08:57:35 GMT-0500 (Central Daylight Time),756198.8000000119,020_y_f_n_a.png,O,m,1727,7,1,2750.199999988079,753448.6000000238,7129,VNB,B,5
4,test,3,1.0,2-Back,1,m,Fri May 09 2025 08:57:35 GMT-0500 (Central Daylight Time),758813.8999999762,007_m_m_d_a.png,O,m,1564,8,1,2581.2999999523163,756232.6000000238,7129,VNB,B,6
4,test,3,0.0,2-Back,0,m,Fri May 09 2025 08:57:35 GMT-0500 (Central Daylight Time),761330.1999999881,016_y_m_d_a.png,O,z,1466,9,1,2493.699999988079,758836.5,7129,VNB,B,7
5,test,3,0.0,2-Back,1,m,Fri May 09 2025 08:57:35 GMT-0500 (Central Daylight Time),764243.8999999762,005_o_f_h_a.png,O,m,1879,10,1,2884.899999976158,761359.0,7129,VNB,B,8
5,test,3,1.0,2-Back,0,m,Fri May 09 2025 08:57:35 GMT-0500 (Central Daylight Time),767294.0,011_m_f_n_a.png,O,None,2015,11,1,3018.300000011921,764275.6999999881,7129,VNB,B,9
6,test,3,1.0,2-Back,1,z,Fri May 09 2025 08:57:35 GMT-0500 (Central Daylight Time),769441.6999999881,007_m_m_h_a.png,O,z,1079,12,1,2117.399999976158,767324.3000000119,7129,VNB,B,10
6,test,3,0.0,2-Back,0,m,Fri May 09 2025 08:57:35 GMT-0500 (Central Daylight Time),772492.1999999881,020_y_f_d_a.png,O,None,2016,13,1,3021.899999976158,769470.3000000119,7129,VNB,B,11
6,test,3,0.0,2-Back,0,m,Fri May 09 2025 08:57:35 GMT-0500 (Central Daylight Time),774857.6000000238,005_o_f_n_a.png,O,z,1298,14,1,2337.0,772520.6000000238,7129,VNB,B,12
7,test,3,0.0,2-Back,1,z,Fri May 09 2025 08:57:35 GMT-0500 (Central Daylight Time),777573.5,004_o_m_d_a.png,O,z,1654,15,1,2681.5,774892.0,7129,VNB,B,13
8,test,3,1.0,2-Back,1,m,Fri May 09 2025 08:57:35 GMT-0500 (Central Daylight Time),779557.1000000238,011_m_f_h_a.png,O,m,937,16,1,1959.1000000238419,777598.0,7129,VNB,B,14
9,test,3,0.0,2-Back,1,m,Fri May 09 2025 08:57:35 GMT-0500 (Central Daylight Time),781972.6999999881,007_m_m_n_a.png,O,m,1355,17,1,2385.800000011921,779586.8999999762,7129,VNB,B,15
9,test,3,0.0,2-Back,0,z,Fri May 09 2025 08:57:35 GMT-0500 (Central Daylight Time),784204.5,016_y_m_h_a.png,O,m,1195,18,1,2210.300000011921,781994.1999999881,7129,VNB,B,16
0,test,4,0.0,2-Back,,,Fri May 09 2025 08:57:35 GMT-0500 (Central Daylight Time),784204.5,011_m_f_n_a.png,O,space,4708,1,1,2210.300000011921,781994.1999999881,7129,VNB,B,0
0,test,4,0.0,2-Back,,,Fri May 09 2025 08:57:35 GMT-0500 (Central Daylight Time),784204.5,004_o_m_n_a.png,O,space,4708,2,1,2210.300000011921,781994.1999999881,7129,VNB,B,0
1,test,4,1.0,2-Back,1,m,Fri May 09 2025 08:57:35 GMT-0500 (Central Daylight Time),796416.3000000119,016_y_m_h_a.png,O,m,1229,3,1,2250.699999988079,794165.6000000238,7129,VNB,B,1
2,test,4,1.0,2-Back,1,m,Fri May 09 2025 08:57:35 GMT-0500 (Central Daylight Time),798834.6999999881,005_o_f_d_a.png,O,m,1373,4,1,2391.5,796443.1999999881,7129,VNB,B,2
3,test,4,0.0,2-Back,1,z,Fri May 09 2025 08:57:35 GMT-0500 (Central Daylight Time),801134.8999999762,004_o_m_h_a.png,O,z,1253,5,1,2269.099999964237,798865.8000000119,7129,VNB,B,3
3,test,4,0.0,2-Back,0,m,Fri May 09 2025 08:57:35 GMT-0500 (Central Daylight Time),803849.5,007_m_m_n_a.png,O,z,1659,6,1,2683.100000023842,801166.3999999762,7129,VNB,B,4
4,test,4,0.0,2-Back,1,m,Fri May 09 2025 08:57:35 GMT-0500 (Central Daylight Time),806315.3000000119,011_m_f_d_a.png,O,m,1414,7,1,2435.800000011921,803879.5,7129,VNB,B,5
5,test,4,0.0,2-Back,1,z,Fri May 09 2025 08:57:35 GMT-0500 (Central Daylight Time),809297.5,020_y_f_n_a.png,O,z,1939,8,1,2952.199999988079,806345.3000000119,7129,VNB,B,6
6,test,4,1.0,2-Back,1,m,Fri May 09 2025 08:57:35 GMT-0500 (Central Daylight Time),811996.6999999881,005_o_f_h_a.png,O,m,1654,9,1,2667.199999988079,809329.5,7129,VNB,B,7
6,test,4,0.0,2-Back,0,m,Fri May 09 2025 08:57:35 GMT-0500 (Central Daylight Time),815062.6000000238,007_m_m_h_a.png,O,None,2014,10,1,3036.0,812026.6000000238,7129,VNB,B,8
6,test,4,0.0,2-Back,0,m,Fri May 09 2025 08:57:35 GMT-0500 (Central Daylight Time),817677.1999999881,020_y_f_d_a.png,O,z,1562,11,1,2580.5,815096.6999999881,7129,VNB,B,9
7,test,4,0.0,2-Back,1,m,Fri May 09 2025 08:57:35 GMT-0500 (Central Daylight Time),820412.1999999881,016_y_m_n_a.png,O,m,1684,12,1,2703.800000011921,817708.3999999762,7129,VNB,B,10
7,test,4,0.0,2-Back,0,z,Fri May 09 2025 08:57:35 GMT-0500 (Central Daylight Time),822892.6999999881,004_o_m_d_a.png,O,m,1421,13,1,2448.0,820444.6999999881,7129,VNB,B,11
8,test,4,1.0,2-Back,1,m,Fri May 09 2025 08:57:35 GMT-0500 (Central Daylight Time),825758.8999999762,011_m_f_h_a.png,O,m,1827,14,1,2836.2999999523163,822922.6000000238,7129,VNB,B,12
9,test,4,1.0,2-Back,1,m,Fri May 09 2025 08:57:35 GMT-0500 (Central Daylight Time),828657.8000000119,020_y_f_h_a.png,O,m,1856,15,1,2869.699999988079,825788.1000000238,7129,VNB,B,13
9,test,4,0.0,2-Back,0,m,Fri May 09 2025 08:57:35 GMT-0500 (Central Daylight Time),831256.8000000119,005_o_f_n_a.png,O,z,1544,16,1,2567.699999988079,828689.1000000238,7129,VNB,B,14
10,test,4,0.0,2-Back,1,m,Fri May 09 2025 08:57:35 GMT-0500 (Central Daylight Time),834155.6999999881,016_y_m_d_a.png,O,m,1855,17,1,2873.199999988079,831282.5,7129,VNB,B,15
10,test,4,1.0,2-Back,0,m,Fri May 09 2025 08:57:35 GMT-0500 (Central Daylight Time),837074.1999999881,007_m_m_d_a.png,O,z,1867,18,1,2885.0,834189.1999999881,7129,VNB,B,16
0,test,5,1.0,2-Back,,,Fri May 09 2025 08:57:35 GMT-0500 (Central Daylight Time),837074.1999999881,020_y_f_d_a.png,O,space,3822,1,1,2885.0,834189.1999999881,7129,VNB,B,0
0,test,5,1.0,2-Back,,,Fri May 09 2025 08:57:35 GMT-0500 (Central Daylight Time),837074.1999999881,005_o_f_h_a.png,O,space,3822,2,1,2885.0,834189.1999999881,7129,VNB,B,0
1,test,5,1.0,2-Back,1,z,Fri May 09 2025 08:57:35 GMT-0500 (Central Daylight Time),848684.1000000238,004_o_m_d_a.png,O,z,1499,3,1,2514.600000023842,846169.5,7129,VNB,B,1
2,test,5,1.0,2-Back,1,m,Fri May 09 2025 08:57:35 GMT-0500 (Central Daylight Time),851650.8000000119,011_m_f_n_a.png,O,m,1923,4,1,2938.100000023842,848712.6999999881,7129,VNB,B,2
2,test,5,0.0,2-Back,0,m,Fri May 09 2025 08:57:35 GMT-0500 (Central Daylight Time),854715.8999999762,007_m_m_h_a.png,O,None,2015,5,1,3031.399999976158,851684.5,7129,VNB,B,3
3,test,5,0.0,2-Back,1,z,Fri May 09 2025 08:57:35 GMT-0500 (Central Daylight Time),857331.8000000119,020_y_f_n_a.png,O,z,1571,6,1,2586.400000035763,854745.3999999762,7129,VNB,B,4
3,test,5,0.0,2-Back,0,m,Fri May 09 2025 08:57:35 GMT-0500 (Central Daylight Time),860396.6999999881,005_o_f_d_a.png,O,None,2014,7,1,3031.5,857365.1999999881,7129,VNB,B,5
4,test,5,0.0,2-Back,1,m,Fri May 09 2025 08:57:35 GMT-0500 (Central Daylight Time),863079.6999999881,004_o_m_h_a.png,O,m,1643,8,1,2656.300000011921,860423.3999999762,7129,VNB,B,6
4,test,5,1.0,2-Back,0,z,Fri May 09 2025 08:57:35 GMT-0500 (Central Daylight Time),866130.0,011_m_f_d_a.png,O,None,2015,9,1,3018.5,863111.5,7129,VNB,B,7
4,test,5,0.0,2-Back,0,m,Fri May 09 2025 08:57:35 GMT-0500 (Central Daylight Time),869179.5,016_y_m_n_a.png,O,None,2016,10,1,3024.0,866155.5,7129,VNB,B,8
4,test,5,0.0,2-Back,0,m,Fri May 09 2025 08:57:35 GMT-0500 (Central Daylight Time),871744.8000000119,007_m_m_n_a.png,O,z,1501,11,1,2533.800000011921,869211.0,7129,VNB,B,9
5,test,5,0.0,2-Back,1,m,Fri May 09 2025 08:57:35 GMT-0500 (Central Daylight Time),874626.1999999881,020_y_f_h_a.png,O,m,1839,12,1,2852.0,871774.1999999881,7129,VNB,B,10
5,test,5,0.0,2-Back,0,m,Fri May 09 2025 08:57:35 GMT-0500 (Central Daylight Time),877675.5,016_y_m_d_a.png,O,None,2014,13,1,3017.600000023842,874657.8999999762,7129,VNB,B,11
6,test,5,1.0,2-Back,1,z,Fri May 09 2025 08:57:35 GMT-0500 (Central Daylight Time),880076.3000000119,011_m_f_h_a.png,O,z,1349,14,1,2369.5,877706.8000000119,7129,VNB,B,12
6,test,5,0.0,2-Back,0,m,Fri May 09 2025 08:57:35 GMT-0500 (Central Daylight Time),882773.8000000119,004_o_m_n_a.png,O,z,1644,15,1,2667.5,880106.3000000119,7129,VNB,B,13
7,test,5,0.0,2-Back,1,m,Fri May 09 2025 08:57:35 GMT-0500 (Central Daylight Time),885423.1999999881,007_m_m_d_a.png,O,m,1600,16,1,2618.199999988079,882805.0,7129,VNB,B,14
8,test,5,0.0,2-Back,1,z,Fri May 09 2025 08:57:35 GMT-0500 (Central Daylight Time),887723.1999999881,005_o_f_n_a.png,O,z,1241,17,1,2271.199999988079,885452.0,7129,VNB,B,15
8,test,5,1.0,2-Back,0,m,Fri May 09 2025 08:57:35 GMT-0500 (Central Daylight Time),890788.8000000119,016_y_m_h_a.png,O,None,2016,18,1,3032.699999988079,887756.1000000238,7129,VNB,B,16
