acc_sum,block,block_c,change,condition,correct,correct_response,datetime,endtime,face,project,response,response_time,row_sel,session_number,start_end,starttime,subject_id,task,task_vers,trial
0,prac,1,,1-Back,,,Wed Feb 04 2026 14:04:15 GMT-0500 (Eastern Standard Time),,005_o_f_d_a.png,I,space,1785,1,1,,,9054,VNB,B,0
1,prac,1,0.0,1-Back,1.0,m,Wed Feb 04 2026 14:04:15 GMT-0500 (Eastern Standard Time),142404.4000005722,020_y_f_n_a.png,I,m,1061,2,1,1977.8000001907349,140426.60000038147,9054,VNB,B,1
2,prac,1,0.0,1-Back,1.0,m,Wed Feb 04 2026 14:04:15 GMT-0500 (Eastern Standard Time),144354.30000019073,007_m_m_h_a.png,I,m,1009,3,1,1942.0,142412.30000019073,9054,VNB,B,2
3,prac,1,0.0,1-Back,1.0,m,Wed Feb 04 2026 14:04:15 GMT-0500 (Eastern Standard Time),146337.80000019073,016_y_m_d_a.png,I,m,1021,4,1,1966.1000003814697,144371.69999980927,9054,VNB,B,3
4,prac,1,0.0,1-Back,1.0,m,Wed Feb 04 2026 14:04:15 GMT-0500 (Eastern Standard Time),148804.4000005722,005_o_f_n_a.png,I,m,1530,5,1,2455.1000003814697,146349.30000019073,9054,VNB,B,4
5,prac,1,1.0,1-Back,1.0,z,Wed Feb 04 2026 14:04:15 GMT-0500 (Eastern Standard Time),151004.5,016_y_m_n_a.png,I,z,1230,6,1,2182.3999996185303,148822.10000038147,9054,VNB,B,5
6,prac,1,0.0,1-Back,1.0,m,Wed Feb 04 2026 14:04:15 GMT-0500 (Eastern Standard Time),153087.80000019073,004_o_m_h_a.png,I,m,1171,7,1,2072.3999996185303,151015.4000005722,9054,VNB,B,6
6,prac,1,0.0,1-Back,0.0,m,Wed Feb 04 2026 14:04:15 GMT-0500 (Eastern Standard Time),155387.60000038147,011_m_f_d_a.png,I,z,1342,8,1,2282.800000190735,153104.80000019073,9054,VNB,B,7
6,prac,1,1.0,1-Back,0.0,z,Wed Feb 04 2026 14:04:15 GMT-0500 (Eastern Standard Time),158304.19999980927,020_y_f_d_a.png,I,None,2002,9,1,2907.3999996185303,155396.80000019073,9054,VNB,B,8
7,prac,1,0.0,1-Back,1.0,m,Wed Feb 04 2026 14:04:15 GMT-0500 (Eastern Standard Time),160570.60000038147,007_m_m_n_a.png,I,m,1299,10,1,2249.5,158321.10000038147,9054,VNB,B,9
8,prac,1,0.0,1-Back,1.0,m,Wed Feb 04 2026 14:04:15 GMT-0500 (Eastern Standard Time),162704.30000019073,005_o_f_h_a.png,I,m,1207,11,1,2128.6000003814697,160575.69999980927,9054,VNB,B,10
9,prac,1,0.0,1-Back,1.0,m,Wed Feb 04 2026 14:04:15 GMT-0500 (Eastern Standard Time),164571.0,016_y_m_d_a.png,I,m,897,12,1,1848.5,162722.5,9054,VNB,B,11
0,test,1,0.0,1-Back,,,Wed Feb 04 2026 14:04:15 GMT-0500 (Eastern Standard Time),164571.0,020_y_f_d_a.png,I,space,2407,1,1,1848.5,162722.5,9054,VNB,B,0
1,test,1,0.0,1-Back,1.0,m,Wed Feb 04 2026 14:04:15 GMT-0500 (Eastern Standard Time),183053.9000005722,011_m_f_n_a.png,I,m,1165,2,1,2171.1000003814697,180882.80000019073,9054,VNB,B,1
2,test,1,0.0,1-Back,1.0,m,Wed Feb 04 2026 14:04:15 GMT-0500 (Eastern Standard Time),184904.10000038147,004_o_m_h_a.png,I,m,821,3,1,1843.1000003814697,183061.0,9054,VNB,B,2
3,test,1,1.0,1-Back,1.0,z,Wed Feb 04 2026 14:04:15 GMT-0500 (Eastern Standard Time),187037.30000019073,007_m_m_h_a.png,I,z,1099,4,1,2119.3999996185303,184917.9000005722,9054,VNB,B,3
4,test,1,0.0,1-Back,1.0,m,Wed Feb 04 2026 14:04:15 GMT-0500 (Eastern Standard Time),188970.80000019073,005_o_f_n_a.png,I,m,902,5,1,1926.3000001907349,187044.5,9054,VNB,B,4
5,test,1,0.0,1-Back,1.0,m,Wed Feb 04 2026 14:04:15 GMT-0500 (Eastern Standard Time),191354.0,016_y_m_d_a.png,I,m,1336,6,1,2368.199999809265,188985.80000019073,9054,VNB,B,5
6,test,1,1.0,1-Back,1.0,z,Wed Feb 04 2026 14:04:15 GMT-0500 (Eastern Standard Time),193970.69999980927,011_m_f_d_a.png,I,z,1594,7,1,2607.5,191363.19999980927,9054,VNB,B,6
7,test,1,0.0,1-Back,1.0,m,Wed Feb 04 2026 14:04:15 GMT-0500 (Eastern Standard Time),195954.19999980927,020_y_f_h_a.png,I,m,961,8,1,1970.6999998092651,193983.5,9054,VNB,B,7
8,test,1,0.0,1-Back,1.0,m,Wed Feb 04 2026 14:04:15 GMT-0500 (Eastern Standard Time),198004.19999980927,004_o_m_n_a.png,I,m,1025,9,1,2042.5999994277954,195961.60000038147,9054,VNB,B,8
9,test,1,0.0,1-Back,1.0,m,Wed Feb 04 2026 14:04:15 GMT-0500 (Eastern Standard Time),200020.9000005722,016_y_m_h_a.png,I,m,991,10,1,2003.6000003814697,198017.30000019073,9054,VNB,B,9
10,test,1,0.0,1-Back,1.0,m,Wed Feb 04 2026 14:04:15 GMT-0500 (Eastern Standard Time),202020.80000019073,004_o_m_d_a.png,I,m,975,11,1,1992.8000001907349,200028.0,9054,VNB,B,10
11,test,1,1.0,1-Back,1.0,z,Wed Feb 04 2026 14:04:15 GMT-0500 (Eastern Standard Time),204287.4000005722,005_o_f_d_a.png,I,z,1231,12,1,2251.4000005722046,202036.0,9054,VNB,B,11
12,test,1,0.0,1-Back,1.0,m,Wed Feb 04 2026 14:04:15 GMT-0500 (Eastern Standard Time),206337.10000038147,007_m_m_n_a.png,I,m,1027,13,1,2040.6999998092651,204296.4000005722,9054,VNB,B,12
13,test,1,1.0,1-Back,1.0,z,Wed Feb 04 2026 14:04:15 GMT-0500 (Eastern Standard Time),208520.5,020_y_f_n_a.png,I,z,1154,14,1,2174.3999996185303,206346.10000038147,9054,VNB,B,13
14,test,1,0.0,1-Back,1.0,m,Wed Feb 04 2026 14:04:15 GMT-0500 (Eastern Standard Time),210687.10000038147,011_m_f_h_a.png,I,m,1147,15,1,2162.4000005722046,208524.69999980927,9054,VNB,B,14
15,test,1,0.0,1-Back,1.0,m,Wed Feb 04 2026 14:04:15 GMT-0500 (Eastern Standard Time),212787.30000019073,007_m_m_d_a.png,I,m,1076,16,1,2087.6000003814697,210699.69999980927,9054,VNB,B,15
16,test,1,0.0,1-Back,1.0,m,Wed Feb 04 2026 14:04:15 GMT-0500 (Eastern Standard Time),215470.5,016_y_m_n_a.png,I,m,1664,17,1,2674.5,212796.0,9054,VNB,B,16
17,test,1,0.0,1-Back,1.0,m,Wed Feb 04 2026 14:04:15 GMT-0500 (Eastern Standard Time),217537.30000019073,005_o_f_h_a.png,I,m,1044,18,1,2052.800000190735,215484.5,9054,VNB,B,17
0,test,2,0.0,1-Back,,,Wed Feb 04 2026 14:04:15 GMT-0500 (Eastern Standard Time),217537.30000019073,016_y_m_n_a.png,I,space,1963,1,1,2052.800000190735,215484.5,9054,VNB,B,0
1,test,2,0.0,1-Back,1.0,m,Wed Feb 04 2026 14:04:15 GMT-0500 (Eastern Standard Time),223553.9000005722,020_y_f_h_a.png,I,m,994,2,1,2016.3000001907349,221537.60000038147,9054,VNB,B,1
2,test,2,1.0,1-Back,1.0,m,Wed Feb 04 2026 14:04:15 GMT-0500 (Eastern Standard Time),225687.4000005722,004_o_m_n_a.png,I,m,1106,3,1,2128.6000003814697,223558.80000019073,9054,VNB,B,2
3,test,2,0.0,1-Back,1.0,m,Wed Feb 04 2026 14:04:15 GMT-0500 (Eastern Standard Time),228320.69999980927,011_m_f_d_a.png,I,m,1612,4,1,2619.3999996185303,225701.30000019073,9054,VNB,B,3
4,test,2,0.0,1-Back,1.0,z,Wed Feb 04 2026 14:04:15 GMT-0500 (Eastern Standard Time),230320.69999980927,007_m_m_d_a.png,I,z,975,5,1,1992.6999998092651,228328.0,9054,VNB,B,4
5,test,2,0.0,1-Back,1.0,m,Wed Feb 04 2026 14:04:15 GMT-0500 (Eastern Standard Time),232337.4000005722,016_y_m_h_a.png,I,m,995,6,1,2006.5,230330.9000005722,9054,VNB,B,5
6,test,2,1.0,1-Back,1.0,z,Wed Feb 04 2026 14:04:15 GMT-0500 (Eastern Standard Time),234237.4000005722,005_o_f_h_a.png,I,z,866,7,1,1893.9000005722046,232343.5,9054,VNB,B,6
7,test,2,0.0,1-Back,1.0,m,Wed Feb 04 2026 14:04:15 GMT-0500 (Eastern Standard Time),236354.10000038147,011_m_f_n_a.png,I,m,1094,8,1,2102.300000190735,234251.80000019073,9054,VNB,B,7
8,test,2,0.0,1-Back,1.0,m,Wed Feb 04 2026 14:04:15 GMT-0500 (Eastern Standard Time),238454.0,020_y_f_d_a.png,I,m,1074,9,1,2093.199999809265,236360.80000019073,9054,VNB,B,8
9,test,2,0.0,1-Back,1.0,m,Wed Feb 04 2026 14:04:15 GMT-0500 (Eastern Standard Time),240570.69999980927,007_m_m_n_a.png,I,m,1070,10,1,2102.7999992370605,238467.9000005722,9054,VNB,B,9
10,test,2,1.0,1-Back,1.0,m,Wed Feb 04 2026 14:04:15 GMT-0500 (Eastern Standard Time),242954.10000038147,011_m_f_h_a.png,I,m,1353,11,1,2376.199999809265,240577.9000005722,9054,VNB,B,10
11,test,2,0.0,1-Back,1.0,z,Wed Feb 04 2026 14:04:15 GMT-0500 (Eastern Standard Time),245004.10000038147,004_o_m_h_a.png,I,z,1017,12,1,2036.6000003814697,242967.5,9054,VNB,B,11
12,test,2,0.0,1-Back,1.0,m,Wed Feb 04 2026 14:04:15 GMT-0500 (Eastern Standard Time),247120.69999980927,016_y_m_d_a.png,I,m,1096,13,1,2109.3999996185303,245011.30000019073,9054,VNB,B,12
13,test,2,0.0,1-Back,1.0,m,Wed Feb 04 2026 14:04:15 GMT-0500 (Eastern Standard Time),249420.9000005722,005_o_f_n_a.png,I,m,1283,14,1,2287.6000003814697,247133.30000019073,9054,VNB,B,13
14,test,2,0.0,1-Back,1.0,z,Wed Feb 04 2026 14:04:15 GMT-0500 (Eastern Standard Time),251637.19999980927,020_y_f_n_a.png,I,z,1191,15,1,2209.8999996185303,249427.30000019073,9054,VNB,B,14
15,test,2,1.0,1-Back,1.0,m,Wed Feb 04 2026 14:04:15 GMT-0500 (Eastern Standard Time),253787.4000005722,007_m_m_h_a.png,I,m,1118,16,1,2140.1000003814697,251647.30000019073,9054,VNB,B,15
16,test,2,0.0,1-Back,1.0,m,Wed Feb 04 2026 14:04:15 GMT-0500 (Eastern Standard Time),255837.0,005_o_f_d_a.png,I,m,1016,17,1,2042.1999998092651,253794.80000019073,9054,VNB,B,16
17,test,2,1.0,1-Back,1.0,z,Wed Feb 04 2026 14:04:15 GMT-0500 (Eastern Standard Time),258004.10000038147,004_o_m_d_a.png,I,z,1142,18,1,2154.6000003814697,255849.5,9054,VNB,B,17
0,test,3,1.0,1-Back,,,Wed Feb 04 2026 14:04:15 GMT-0500 (Eastern Standard Time),258004.10000038147,005_o_f_h_a.png,I,space,1863,1,1,2154.6000003814697,255849.5,9054,VNB,B,0
1,test,3,0.0,1-Back,1.0,m,Wed Feb 04 2026 14:04:15 GMT-0500 (Eastern Standard Time),264020.80000019073,011_m_f_d_a.png,I,m,942,2,1,1954.1000003814697,262066.69999980927,9054,VNB,B,1
2,test,3,1.0,1-Back,1.0,m,Wed Feb 04 2026 14:04:15 GMT-0500 (Eastern Standard Time),266303.9000005722,007_m_m_n_a.png,I,m,1263,3,1,2276.1000003814697,264027.80000019073,9054,VNB,B,2
3,test,3,0.0,1-Back,1.0,z,Wed Feb 04 2026 14:04:15 GMT-0500 (Eastern Standard Time),268287.10000038147,005_o_f_n_a.png,I,z,963,4,1,1968.9000005722046,266318.19999980927,9054,VNB,B,3
4,test,3,1.0,1-Back,1.0,m,Wed Feb 04 2026 14:04:15 GMT-0500 (Eastern Standard Time),270120.80000019073,004_o_m_d_a.png,I,m,804,5,1,1827.6000003814697,268293.19999980927,9054,VNB,B,4
5,test,3,0.0,1-Back,1.0,m,Wed Feb 04 2026 14:04:15 GMT-0500 (Eastern Standard Time),272270.5,020_y_f_h_a.png,I,m,1115,6,1,2134.5,270136.0,9054,VNB,B,5
6,test,3,0.0,1-Back,1.0,z,Wed Feb 04 2026 14:04:15 GMT-0500 (Eastern Standard Time),274220.60000038147,016_y_m_h_a.png,I,z,932,7,1,1941.9000005722046,272278.69999980927,9054,VNB,B,6
7,test,3,0.0,1-Back,1.0,m,Wed Feb 04 2026 14:04:15 GMT-0500 (Eastern Standard Time),276303.9000005722,011_m_f_n_a.png,I,m,1063,8,1,2074.4000005722046,274229.5,9054,VNB,B,7
8,test,3,0.0,1-Back,1.0,m,Wed Feb 04 2026 14:04:15 GMT-0500 (Eastern Standard Time),278287.10000038147,020_y_f_d_a.png,I,m,964,9,1,1974.3000001907349,276312.80000019073,9054,VNB,B,8
9,test,3,1.0,1-Back,1.0,m,Wed Feb 04 2026 14:04:15 GMT-0500 (Eastern Standard Time),280670.5,004_o_m_n_a.png,I,m,1364,10,1,2369.699999809265,278300.80000019073,9054,VNB,B,9
10,test,3,0.0,1-Back,1.0,m,Wed Feb 04 2026 14:04:15 GMT-0500 (Eastern Standard Time),282604.0,007_m_m_h_a.png,I,m,901,11,1,1924.1999998092651,280679.80000019073,9054,VNB,B,10
11,test,3,0.0,1-Back,1.0,z,Wed Feb 04 2026 14:04:15 GMT-0500 (Eastern Standard Time),284604.0,011_m_f_h_a.png,I,z,967,12,1,1989.8000001907349,282614.19999980927,9054,VNB,B,11
12,test,3,1.0,1-Back,1.0,m,Wed Feb 04 2026 14:04:15 GMT-0500 (Eastern Standard Time),286504.10000038147,005_o_f_d_a.png,I,m,872,13,1,1892.5,284611.60000038147,9054,VNB,B,12
13,test,3,0.0,1-Back,1.0,z,Wed Feb 04 2026 14:04:15 GMT-0500 (Eastern Standard Time),288537.4000005722,007_m_m_d_a.png,I,z,988,14,1,2017.3000001907349,286520.10000038147,9054,VNB,B,13
14,test,3,0.0,1-Back,1.0,m,Wed Feb 04 2026 14:04:15 GMT-0500 (Eastern Standard Time),290570.60000038147,016_y_m_n_a.png,I,m,1005,15,1,2026.1000003814697,288544.5,9054,VNB,B,14
15,test,3,1.0,1-Back,1.0,m,Wed Feb 04 2026 14:04:15 GMT-0500 (Eastern Standard Time),292837.30000019073,004_o_m_h_a.png,I,m,1240,16,1,2257.0,290580.30000019073,9054,VNB,B,15
16,test,3,0.0,1-Back,1.0,m,Wed Feb 04 2026 14:04:15 GMT-0500 (Eastern Standard Time),294654.0,016_y_m_d_a.png,I,m,783,17,1,1809.0,292845.0,9054,VNB,B,16
17,test,3,1.0,1-Back,1.0,m,Wed Feb 04 2026 14:04:15 GMT-0500 (Eastern Standard Time),296903.9000005722,020_y_f_n_a.png,I,m,1222,18,1,2239.4000005722046,294664.5,9054,VNB,B,17
0,test,4,1.0,1-Back,,,Wed Feb 04 2026 14:04:15 GMT-0500 (Eastern Standard Time),296903.9000005722,007_m_m_d_a.png,I,space,1252,1,1,2239.4000005722046,294664.5,9054,VNB,B,0
1,test,4,0.0,1-Back,1.0,z,Wed Feb 04 2026 14:04:15 GMT-0500 (Eastern Standard Time),302270.5,004_o_m_d_a.png,I,z,1031,2,1,2068.699999809265,300201.80000019073,9054,VNB,B,1
2,test,4,0.0,1-Back,1.0,m,Wed Feb 04 2026 14:04:15 GMT-0500 (Eastern Standard Time),304320.30000019073,016_y_m_h_a.png,I,m,1028,3,1,2041.3000001907349,302279.0,9054,VNB,B,2
3,test,4,0.0,1-Back,1.0,m,Wed Feb 04 2026 14:04:15 GMT-0500 (Eastern Standard Time),306620.69999980927,011_m_f_n_a.png,I,m,1267,4,1,2295.5999994277954,304325.10000038147,9054,VNB,B,3
4,test,4,1.0,1-Back,1.0,m,Wed Feb 04 2026 14:04:15 GMT-0500 (Eastern Standard Time),308537.4000005722,005_o_f_h_a.png,I,m,887,5,1,1909.7000007629395,306627.69999980927,9054,VNB,B,4
5,test,4,0.0,1-Back,1.0,m,Wed Feb 04 2026 14:04:15 GMT-0500 (Eastern Standard Time),310504.0,007_m_m_n_a.png,I,m,939,6,1,1954.0999994277954,308549.9000005722,9054,VNB,B,5
6,test,4,0.0,1-Back,1.0,m,Wed Feb 04 2026 14:04:15 GMT-0500 (Eastern Standard Time),312420.5,016_y_m_d_a.png,I,m,892,7,1,1907.6999998092651,310512.80000019073,9054,VNB,B,6
7,test,4,1.0,1-Back,1.0,z,Wed Feb 04 2026 14:04:15 GMT-0500 (Eastern Standard Time),314703.9000005722,020_y_f_d_a.png,I,z,1247,8,1,2256.5,312447.4000005722,9054,VNB,B,7
8,test,4,0.0,1-Back,1.0,m,Wed Feb 04 2026 14:04:15 GMT-0500 (Eastern Standard Time),316604.0,011_m_f_h_a.png,I,m,867,9,1,1893.3000001907349,314710.69999980927,9054,VNB,B,8
9,test,4,0.0,1-Back,1.0,z,Wed Feb 04 2026 14:04:15 GMT-0500 (Eastern Standard Time),318470.60000038147,004_o_m_h_a.png,I,z,839,10,1,1855.1000003814697,316615.5,9054,VNB,B,9
10,test,4,1.0,1-Back,1.0,m,Wed Feb 04 2026 14:04:15 GMT-0500 (Eastern Standard Time),320387.30000019073,005_o_f_n_a.png,I,m,893,11,1,1909.3000001907349,318478.0,9054,VNB,B,10
11,test,4,0.0,1-Back,1.0,m,Wed Feb 04 2026 14:04:15 GMT-0500 (Eastern Standard Time),322387.4000005722,011_m_f_d_a.png,I,m,976,12,1,1986.8000001907349,320400.60000038147,9054,VNB,B,11
12,test,4,0.0,1-Back,1.0,m,Wed Feb 04 2026 14:04:15 GMT-0500 (Eastern Standard Time),324804.0,020_y_f_n_a.png,I,m,1393,13,1,2409.3999996185303,322394.60000038147,9054,VNB,B,12
13,test,4,0.0,1-Back,1.0,m,Wed Feb 04 2026 14:04:15 GMT-0500 (Eastern Standard Time),327587.4000005722,005_o_f_d_a.png,I,m,1760,14,1,2770.1000003814697,324817.30000019073,9054,VNB,B,13
14,test,4,0.0,1-Back,1.0,m,Wed Feb 04 2026 14:04:15 GMT-0500 (Eastern Standard Time),329970.69999980927,020_y_f_h_a.png,I,m,1360,15,1,2376.5,327594.19999980927,9054,VNB,B,14
15,test,4,1.0,1-Back,1.0,z,Wed Feb 04 2026 14:04:15 GMT-0500 (Eastern Standard Time),331770.60000038147,007_m_m_h_a.png,I,z,752,16,1,1784.3000001907349,329986.30000019073,9054,VNB,B,15
16,test,4,0.0,1-Back,1.0,m,Wed Feb 04 2026 14:04:15 GMT-0500 (Eastern Standard Time),333837.30000019073,004_o_m_n_a.png,I,m,1033,17,1,2060.0,331777.30000019073,9054,VNB,B,16
17,test,4,1.0,1-Back,1.0,z,Wed Feb 04 2026 14:04:15 GMT-0500 (Eastern Standard Time),335820.69999980927,016_y_m_n_a.png,I,z,950,18,1,1970.5,333850.19999980927,9054,VNB,B,17
0,test,5,1.0,1-Back,,,Wed Feb 04 2026 14:04:15 GMT-0500 (Eastern Standard Time),335820.69999980927,004_o_m_n_a.png,I,space,1279,1,1,1970.5,333850.19999980927,9054,VNB,B,0
1,test,5,1.0,1-Back,1.0,m,Wed Feb 04 2026 14:04:15 GMT-0500 (Eastern Standard Time),341020.69999980927,005_o_f_h_a.png,I,m,851,2,1,1883.0999994277954,339137.60000038147,9054,VNB,B,1
1,test,5,0.0,1-Back,0.0,m,Wed Feb 04 2026 14:04:15 GMT-0500 (Eastern Standard Time),342903.9000005722,016_y_m_d_a.png,I,z,855,3,1,1876.5,341027.4000005722,9054,VNB,B,2
1,test,5,0.0,1-Back,0.0,z,Wed Feb 04 2026 14:04:15 GMT-0500 (Eastern Standard Time),345937.5,004_o_m_d_a.png,I,None,2015,4,1,3022.800000190735,342914.69999980927,9054,VNB,B,3
2,test,5,0.0,1-Back,1.0,m,Wed Feb 04 2026 14:04:15 GMT-0500 (Eastern Standard Time),348204.0,011_m_f_h_a.png,I,m,1234,5,1,2259.3999996185303,345944.60000038147,9054,VNB,B,4
3,test,5,0.0,1-Back,1.0,m,Wed Feb 04 2026 14:04:15 GMT-0500 (Eastern Standard Time),350637.19999980927,020_y_f_n_a.png,I,m,1399,6,1,2419.2999992370605,348217.9000005722,9054,VNB,B,5
4,test,5,1.0,1-Back,1.0,z,Wed Feb 04 2026 14:04:15 GMT-0500 (Eastern Standard Time),352587.19999980927,005_o_f_n_a.png,I,z,918,7,1,1941.8999996185303,350645.30000019073,9054,VNB,B,6
5,test,5,0.0,1-Back,1.0,m,Wed Feb 04 2026 14:04:15 GMT-0500 (Eastern Standard Time),354720.60000038147,011_m_f_d_a.png,I,m,1112,8,1,2122.5,352598.10000038147,9054,VNB,B,7
6,test,5,0.0,1-Back,1.0,m,Wed Feb 04 2026 14:04:15 GMT-0500 (Eastern Standard Time),356854.0,016_y_m_h_a.png,I,m,1107,9,1,2126.5,354727.5,9054,VNB,B,8
7,test,5,0.0,1-Back,1.0,m,Wed Feb 04 2026 14:04:15 GMT-0500 (Eastern Standard Time),358737.10000038147,020_y_f_d_a.png,I,m,861,10,1,1868.5,356868.60000038147,9054,VNB,B,9
8,test,5,0.0,1-Back,1.0,m,Wed Feb 04 2026 14:04:15 GMT-0500 (Eastern Standard Time),360870.60000038147,007_m_m_n_a.png,I,m,1107,11,1,2126.300000190735,358744.30000019073,9054,VNB,B,10
9,test,5,1.0,1-Back,1.0,z,Wed Feb 04 2026 14:04:15 GMT-0500 (Eastern Standard Time),362903.60000038147,011_m_f_n_a.png,I,z,1005,12,1,2021.1000003814697,360882.5,9054,VNB,B,11
10,test,5,0.0,1-Back,1.0,m,Wed Feb 04 2026 14:04:15 GMT-0500 (Eastern Standard Time),364920.5,004_o_m_h_a.png,I,m,988,13,1,2013.6999998092651,362906.80000019073,9054,VNB,B,12
11,test,5,0.0,1-Back,1.0,z,Wed Feb 04 2026 14:04:15 GMT-0500 (Eastern Standard Time),366703.9000005722,007_m_m_h_a.png,I,z,763,14,1,1772.3000001907349,364931.60000038147,9054,VNB,B,13
12,test,5,1.0,1-Back,1.0,m,Wed Feb 04 2026 14:04:15 GMT-0500 (Eastern Standard Time),368537.19999980927,005_o_f_d_a.png,I,m,804,15,1,1826.5999994277954,366710.60000038147,9054,VNB,B,14
13,test,5,0.0,1-Back,1.0,m,Wed Feb 04 2026 14:04:15 GMT-0500 (Eastern Standard Time),370687.0,016_y_m_n_a.png,I,m,1131,16,1,2136.5999994277954,368550.4000005722,9054,VNB,B,15
14,test,5,0.0,1-Back,1.0,m,Wed Feb 04 2026 14:04:15 GMT-0500 (Eastern Standard Time),372920.60000038147,020_y_f_h_a.png,I,m,1204,17,1,2226.4000005722046,370694.19999980927,9054,VNB,B,16
15,test,5,0.0,1-Back,1.0,m,Wed Feb 04 2026 14:04:15 GMT-0500 (Eastern Standard Time),374770.69999980927,007_m_m_d_a.png,I,m,827,18,1,1838.3999996185303,372932.30000019073,9054,VNB,B,17
0,prac,1,0.0,2-Back,,,Wed Feb 04 2026 14:04:15 GMT-0500 (Eastern Standard Time),374770.69999980927,011_m_f_n_a.png,I,space,3659,1,1,1838.3999996185303,372932.30000019073,9054,VNB,B,0
0,prac,1,0.0,2-Back,,,Wed Feb 04 2026 14:04:15 GMT-0500 (Eastern Standard Time),374770.69999980927,005_o_f_h_a.png,I,space,3659,2,1,1838.3999996185303,372932.30000019073,9054,VNB,B,0
1,prac,1,0.0,2-Back,1.0,m,Wed Feb 04 2026 14:04:15 GMT-0500 (Eastern Standard Time),467237.4000005722,004_o_m_d_a.png,I,m,1580,3,1,2491.300000190735,464746.10000038147,9054,VNB,B,1
2,prac,1,1.0,2-Back,1.0,z,Wed Feb 04 2026 14:04:15 GMT-0500 (Eastern Standard Time),469420.69999980927,007_m_m_h_a.png,I,z,1230,4,1,2164.0999994277954,467256.60000038147,9054,VNB,B,2
3,prac,1,0.0,2-Back,1.0,m,Wed Feb 04 2026 14:04:15 GMT-0500 (Eastern Standard Time),471853.80000019073,020_y_f_n_a.png,I,m,1514,5,1,2419.5,469434.30000019073,9054,VNB,B,3
4,prac,1,1.0,2-Back,1.0,z,Wed Feb 04 2026 14:04:15 GMT-0500 (Eastern Standard Time),474720.69999980927,004_o_m_h_a.png,I,z,1925,6,1,2848.199999809265,471872.5,9054,VNB,B,4
5,prac,1,1.0,2-Back,1.0,z,Wed Feb 04 2026 14:04:15 GMT-0500 (Eastern Standard Time),477320.60000038147,016_y_m_n_a.png,I,z,1649,7,1,2592.300000190735,474728.30000019073,9054,VNB,B,5
5,prac,1,0.0,2-Back,0.0,m,Wed Feb 04 2026 14:04:15 GMT-0500 (Eastern Standard Time),479687.19999980927,011_m_f_d_a.png,I,z,1413,8,1,2348.5,477338.69999980927,9054,VNB,B,6
6,prac,1,0.0,2-Back,1.0,m,Wed Feb 04 2026 14:04:15 GMT-0500 (Eastern Standard Time),482370.5,005_o_f_d_a.png,I,m,1747,9,1,2672.199999809265,479698.30000019073,9054,VNB,B,7
6,prac,1,0.0,2-Back,0.0,m,Wed Feb 04 2026 14:04:15 GMT-0500 (Eastern Standard Time),484937.30000019073,007_m_m_h_a.png,I,z,1596,10,1,2543.8999996185303,482393.4000005722,9054,VNB,B,8
6,prac,1,1.0,2-Back,0.0,z,Wed Feb 04 2026 14:04:15 GMT-0500 (Eastern Standard Time),487853.80000019073,020_y_f_d_a.png,I,None,2002,11,1,2907.6000003814697,484946.19999980927,9054,VNB,B,9
6,prac,1,0.0,2-Back,0.0,m,Wed Feb 04 2026 14:04:15 GMT-0500 (Eastern Standard Time),490787.10000038147,004_o_m_n_a.png,I,None,2011,12,1,2915.800000190735,487871.30000019073,9054,VNB,B,10
0,prac,2,0.0,2-Back,,,Wed Feb 04 2026 14:04:15 GMT-0500 (Eastern Standard Time),490787.10000038147,011_m_f_n_a.png,I,a,7753,1,1,2915.800000190735,487871.30000019073,9054,VNB,B,0
0,prac,2,0.0,2-Back,,,Wed Feb 04 2026 14:04:15 GMT-0500 (Eastern Standard Time),490787.10000038147,005_o_f_h_a.png,I,a,7753,2,1,2915.800000190735,487871.30000019073,9054,VNB,B,0
0,prac,2,0.0,2-Back,0.0,m,Wed Feb 04 2026 14:04:15 GMT-0500 (Eastern Standard Time),506803.69999980927,004_o_m_d_a.png,I,None,2009,3,1,2907.5999994277954,503896.10000038147,9054,VNB,B,1
1,prac,2,1.0,2-Back,1.0,z,Wed Feb 04 2026 14:04:15 GMT-0500 (Eastern Standard Time),508753.9000005722,007_m_m_h_a.png,I,z,1160,4,1,1933.0,506820.9000005722,9054,VNB,B,2
1,prac,2,0.0,2-Back,0.0,m,Wed Feb 04 2026 14:04:15 GMT-0500 (Eastern Standard Time),511303.80000019073,020_y_f_n_a.png,I,z,1625,5,1,2539.699999809265,508764.10000038147,9054,VNB,B,3
2,prac,2,1.0,2-Back,1.0,z,Wed Feb 04 2026 14:04:15 GMT-0500 (Eastern Standard Time),513703.9000005722,004_o_m_h_a.png,I,z,1460,6,1,2377.6000003814697,511326.30000019073,9054,VNB,B,4
3,prac,2,1.0,2-Back,1.0,z,Wed Feb 04 2026 14:04:15 GMT-0500 (Eastern Standard Time),516170.5,016_y_m_n_a.png,I,z,1513,7,1,2456.0999994277954,513714.4000005722,9054,VNB,B,5
4,prac,2,0.0,2-Back,1.0,m,Wed Feb 04 2026 14:04:15 GMT-0500 (Eastern Standard Time),518570.5,011_m_f_d_a.png,I,m,1441,8,1,2383.300000190735,516187.19999980927,9054,VNB,B,6
5,prac,2,0.0,2-Back,1.0,m,Wed Feb 04 2026 14:04:15 GMT-0500 (Eastern Standard Time),520870.60000038147,005_o_f_d_a.png,I,m,1362,9,1,2292.1000003814697,518578.5,9054,VNB,B,7
6,prac,2,0.0,2-Back,1.0,m,Wed Feb 04 2026 14:04:15 GMT-0500 (Eastern Standard Time),522870.69999980927,007_m_m_h_a.png,I,m,1018,10,1,1980.5999994277954,520890.10000038147,9054,VNB,B,8
7,prac,2,1.0,2-Back,1.0,z,Wed Feb 04 2026 14:04:15 GMT-0500 (Eastern Standard Time),525153.9000005722,020_y_f_d_a.png,I,z,1366,11,1,2275.0,522878.9000005722,9054,VNB,B,9
8,prac,2,0.0,2-Back,1.0,m,Wed Feb 04 2026 14:04:15 GMT-0500 (Eastern Standard Time),527420.5,004_o_m_n_a.png,I,m,1344,12,1,2249.5999994277954,525170.9000005722,9054,VNB,B,10
0,test,1,0.0,2-Back,,,Wed Feb 04 2026 14:04:15 GMT-0500 (Eastern Standard Time),527420.5,016_y_m_h_a.png,I,space,1671,1,1,2249.5999994277954,525170.9000005722,9054,VNB,B,0
0,test,1,0.0,2-Back,,,Wed Feb 04 2026 14:04:15 GMT-0500 (Eastern Standard Time),527420.5,005_o_f_n_a.png,I,space,1671,2,1,2249.5999994277954,525170.9000005722,9054,VNB,B,0
1,test,1,0.0,2-Back,1.0,z,Wed Feb 04 2026 14:04:15 GMT-0500 (Eastern Standard Time),564270.1999998093,004_o_m_h_a.png,I,z,1165,3,1,2174.5999994277954,562095.6000003815,9054,VNB,B,1
2,test,1,0.0,2-Back,1.0,m,Wed Feb 04 2026 14:04:15 GMT-0500 (Eastern Standard Time),566636.9000005722,011_m_f_d_a.png,I,m,1333,4,1,2351.7000007629395,564285.1999998093,9054,VNB,B,2
3,test,1,1.0,2-Back,1.0,m,Wed Feb 04 2026 14:04:15 GMT-0500 (Eastern Standard Time),568920.4000005722,016_y_m_n_a.png,I,m,1255,5,1,2275.1000003814697,566645.3000001907,9054,VNB,B,3
4,test,1,0.0,2-Back,1.0,z,Wed Feb 04 2026 14:04:15 GMT-0500 (Eastern Standard Time),571520.4000005722,020_y_f_d_a.png,I,z,1579,6,1,2586.2000007629395,568934.1999998093,9054,VNB,B,4
4,test,1,0.0,2-Back,0.0,m,Wed Feb 04 2026 14:04:15 GMT-0500 (Eastern Standard Time),573920.4000005722,007_m_m_h_a.png,I,z,1379,7,1,2391.4000005722046,571529.0,9054,VNB,B,5
4,test,1,1.0,2-Back,0.0,m,Wed Feb 04 2026 14:04:15 GMT-0500 (Eastern Standard Time),576553.8000001907,020_y_f_n_a.png,I,z,1587,8,1,2617.800000190735,573936.0,9054,VNB,B,6
5,test,1,0.0,2-Back,1.0,z,Wed Feb 04 2026 14:04:15 GMT-0500 (Eastern Standard Time),579337.1000003815,005_o_f_h_a.png,I,z,1754,9,1,2776.9000005722046,576560.1999998093,9054,VNB,B,7
6,test,1,0.0,2-Back,1.0,m,Wed Feb 04 2026 14:04:15 GMT-0500 (Eastern Standard Time),581520.4000005722,004_o_m_d_a.png,I,m,1162,10,1,2167.9000005722046,579352.5,9054,VNB,B,8
7,test,1,1.0,2-Back,1.0,m,Wed Feb 04 2026 14:04:15 GMT-0500 (Eastern Standard Time),583903.6999998093,007_m_m_d_a.png,I,m,1363,11,1,2374.7999992370605,581528.9000005722,9054,VNB,B,9
7,test,1,0.0,2-Back,0.0,m,Wed Feb 04 2026 14:04:15 GMT-0500 (Eastern Standard Time),586487.0,011_m_f_n_a.png,I,z,1540,12,1,2567.0999994277954,583919.9000005722,9054,VNB,B,10
7,test,1,0.0,2-Back,0.0,m,Wed Feb 04 2026 14:04:15 GMT-0500 (Eastern Standard Time),589053.6999998093,020_y_f_h_a.png,I,z,1532,13,1,2559.8999996185303,586493.8000001907,9054,VNB,B,11
7,test,1,0.0,2-Back,0.0,z,Wed Feb 04 2026 14:04:15 GMT-0500 (Eastern Standard Time),591603.6000003815,007_m_m_n_a.png,I,m,1526,14,1,2538.5,589065.1000003815,9054,VNB,B,12
7,test,1,0.0,2-Back,0.0,m,Wed Feb 04 2026 14:04:15 GMT-0500 (Eastern Standard Time),594037.1000003815,016_y_m_d_a.png,I,z,1408,15,1,2426.6000003814697,591610.5,9054,VNB,B,13
8,test,1,1.0,2-Back,1.0,m,Wed Feb 04 2026 14:04:15 GMT-0500 (Eastern Standard Time),596320.3000001907,011_m_f_h_a.png,I,m,1263,16,1,2271.0,594049.3000001907,9054,VNB,B,14
8,test,1,0.0,2-Back,0.0,z,Wed Feb 04 2026 14:04:15 GMT-0500 (Eastern Standard Time),599353.9000005722,005_o_f_d_a.png,I,None,2016,17,1,3025.300000190735,596328.6000003815,9054,VNB,B,15
9,test,1,0.0,2-Back,1.0,m,Wed Feb 04 2026 14:04:15 GMT-0500 (Eastern Standard Time),601753.6999998093,004_o_m_n_a.png,I,m,1353,18,1,2383.5,599370.1999998093,9054,VNB,B,16
0,test,2,0.0,2-Back,,,Wed Feb 04 2026 14:04:15 GMT-0500 (Eastern Standard Time),601753.6999998093,007_m_m_h_a.png,I,space,1922,1,1,2383.5,599370.1999998093,9054,VNB,B,0
0,test,2,0.0,2-Back,,,Wed Feb 04 2026 14:04:15 GMT-0500 (Eastern Standard Time),601753.6999998093,020_y_f_n_a.png,I,space,1922,2,1,2383.5,599370.1999998093,9054,VNB,B,0
1,test,2,1.0,2-Back,1.0,z,Wed Feb 04 2026 14:04:15 GMT-0500 (Eastern Standard Time),611187.0,005_o_f_h_a.png,I,z,1143,3,1,2159.5999994277954,609027.4000005722,9054,VNB,B,1
2,test,2,0.0,2-Back,1.0,m,Wed Feb 04 2026 14:04:15 GMT-0500 (Eastern Standard Time),613520.3000001907,004_o_m_d_a.png,I,m,1314,4,1,2324.300000190735,611196.0,9054,VNB,B,2
3,test,2,0.0,2-Back,1.0,m,Wed Feb 04 2026 14:04:15 GMT-0500 (Eastern Standard Time),616403.6000003815,011_m_f_d_a.png,I,m,1859,5,1,2874.0,613529.6000003815,9054,VNB,B,3
4,test,2,0.0,2-Back,1.0,m,Wed Feb 04 2026 14:04:15 GMT-0500 (Eastern Standard Time),618536.9000005722,016_y_m_h_a.png,I,m,1104,6,1,2121.0,616415.9000005722,9054,VNB,B,4
5,test,2,0.0,2-Back,1.0,m,Wed Feb 04 2026 14:04:15 GMT-0500 (Eastern Standard Time),620770.3000001907,005_o_f_n_a.png,I,m,1211,7,1,2226.300000190735,618544.0,9054,VNB,B,5
6,test,2,1.0,2-Back,1.0,z,Wed Feb 04 2026 14:04:15 GMT-0500 (Eastern Standard Time),623020.3000001907,004_o_m_h_a.png,I,z,1218,8,1,2235.0,620785.3000001907,9054,VNB,B,6
6,test,2,0.0,2-Back,0.0,m,Wed Feb 04 2026 14:04:15 GMT-0500 (Eastern Standard Time),625253.6999998093,020_y_f_d_a.png,I,z,1207,9,1,2226.699999809265,623027.0,9054,VNB,B,7
7,test,2,0.0,2-Back,1.0,m,Wed Feb 04 2026 14:04:15 GMT-0500 (Eastern Standard Time),628036.9000005722,016_y_m_d_a.png,I,m,1758,10,1,2773.1000003814697,625263.8000001907,9054,VNB,B,8
7,test,2,0.0,2-Back,0.0,m,Wed Feb 04 2026 14:04:15 GMT-0500 (Eastern Standard Time),631036.8000001907,007_m_m_n_a.png,I,z,1967,11,1,2992.699999809265,628044.1000003815,9054,VNB,B,9
7,test,2,0.0,2-Back,0.0,m,Wed Feb 04 2026 14:04:15 GMT-0500 (Eastern Standard Time),633520.3000001907,011_m_f_h_a.png,I,z,1462,12,1,2472.5,631047.8000001907,9054,VNB,B,10
8,test,2,1.0,2-Back,1.0,z,Wed Feb 04 2026 14:04:15 GMT-0500 (Eastern Standard Time),636070.3000001907,004_o_m_n_a.png,I,z,1523,13,1,2540.6000003814697,633529.6999998093,9054,VNB,B,11
9,test,2,0.0,2-Back,1.0,m,Wed Feb 04 2026 14:04:15 GMT-0500 (Eastern Standard Time),638203.6000003815,005_o_f_d_a.png,I,m,1084,14,1,2117.4000005722046,636086.1999998093,9054,VNB,B,12
9,test,2,0.0,2-Back,0.0,m,Wed Feb 04 2026 14:04:15 GMT-0500 (Eastern Standard Time),640336.9000005722,020_y_f_h_a.png,I,z,1113,15,1,2126.800000190735,638210.1000003815,9054,VNB,B,13
10,test,2,0.0,2-Back,1.0,z,Wed Feb 04 2026 14:04:15 GMT-0500 (Eastern Standard Time),642553.6999998093,007_m_m_d_a.png,I,z,1186,16,1,2202.699999809265,640351.0,9054,VNB,B,14
11,test,2,0.0,2-Back,1.0,m,Wed Feb 04 2026 14:04:15 GMT-0500 (Eastern Standard Time),645287.0,016_y_m_n_a.png,I,m,1706,17,1,2726.199999809265,642560.8000001907,9054,VNB,B,15
11,test,2,1.0,2-Back,0.0,m,Wed Feb 04 2026 14:04:15 GMT-0500 (Eastern Standard Time),647987.0,011_m_f_n_a.png,I,z,1677,18,1,2688.8999996185303,645298.1000003815,9054,VNB,B,16
0,test,3,1.0,2-Back,,,Wed Feb 04 2026 14:04:15 GMT-0500 (Eastern Standard Time),647987.0,004_o_m_n_a.png,I,space,2185,1,1,2688.8999996185303,645298.1000003815,9054,VNB,B,0
0,test,3,1.0,2-Back,,,Wed Feb 04 2026 14:04:15 GMT-0500 (Eastern Standard Time),647987.0,005_o_f_d_a.png,I,space,2185,2,1,2688.8999996185303,645298.1000003815,9054,VNB,B,0
1,test,3,0.0,2-Back,1.0,m,Wed Feb 04 2026 14:04:15 GMT-0500 (Eastern Standard Time),658070.3000001907,020_y_f_h_a.png,I,m,1523,3,1,2541.199999809265,655529.1000003815,9054,VNB,B,1
2,test,3,0.0,2-Back,1.0,z,Wed Feb 04 2026 14:04:15 GMT-0500 (Eastern Standard Time),660486.6000003815,011_m_f_d_a.png,I,z,1372,4,1,2399.199999809265,658087.4000005722,9054,VNB,B,2
3,test,3,1.0,2-Back,1.0,m,Wed Feb 04 2026 14:04:15 GMT-0500 (Eastern Standard Time),663303.6000003815,016_y_m_n_a.png,I,m,1789,5,1,2812.9000005722046,660490.6999998093,9054,VNB,B,3
3,test,3,0.0,2-Back,0.0,m,Wed Feb 04 2026 14:04:15 GMT-0500 (Eastern Standard Time),665287.0,004_o_m_h_a.png,I,z,956,6,1,1972.0999994277954,663314.9000005722,9054,VNB,B,4
4,test,3,0.0,2-Back,1.0,z,Wed Feb 04 2026 14:04:15 GMT-0500 (Eastern Standard Time),667653.6000003815,020_y_f_n_a.png,I,z,1341,7,1,2359.699999809265,665293.9000005722,9054,VNB,B,5
5,test,3,1.0,2-Back,1.0,m,Wed Feb 04 2026 14:04:15 GMT-0500 (Eastern Standard Time),669787.0,007_m_m_d_a.png,I,m,1102,8,1,2119.8999996185303,667667.1000003815,9054,VNB,B,6
6,test,3,0.0,2-Back,1.0,m,Wed Feb 04 2026 14:04:15 GMT-0500 (Eastern Standard Time),672202.9000005722,016_y_m_d_a.png,I,m,1384,9,1,2407.6000003814697,669795.3000001907,9054,VNB,B,7
7,test,3,0.0,2-Back,1.0,m,Wed Feb 04 2026 14:04:15 GMT-0500 (Eastern Standard Time),675003.6000003815,005_o_f_h_a.png,I,m,1767,10,1,2794.699999809265,672208.9000005722,9054,VNB,B,8
7,test,3,1.0,2-Back,0.0,m,Wed Feb 04 2026 14:04:15 GMT-0500 (Eastern Standard Time),677603.6000003815,011_m_f_n_a.png,I,z,1576,11,1,2591.4000005722046,675012.1999998093,9054,VNB,B,9
8,test,3,1.0,2-Back,1.0,z,Wed Feb 04 2026 14:04:15 GMT-0500 (Eastern Standard Time),679953.6000003815,007_m_m_h_a.png,I,z,1328,12,1,2336.0,677617.6000003815,9054,VNB,B,10
8,test,3,0.0,2-Back,0.0,m,Wed Feb 04 2026 14:04:15 GMT-0500 (Eastern Standard Time),682120.3000001907,020_y_f_d_a.png,I,z,1138,13,1,2160.0,679960.3000001907,9054,VNB,B,11
9,test,3,0.0,2-Back,1.0,m,Wed Feb 04 2026 14:04:15 GMT-0500 (Eastern Standard Time),685070.0,005_o_f_n_a.png,I,m,1915,14,1,2931.800000190735,682138.1999998093,9054,VNB,B,12
9,test,3,0.0,2-Back,0.0,z,Wed Feb 04 2026 14:04:15 GMT-0500 (Eastern Standard Time),687436.8000001907,004_o_m_d_a.png,I,m,1333,15,1,2361.300000190735,685075.5,9054,VNB,B,13
9,test,3,1.0,2-Back,0.0,m,Wed Feb 04 2026 14:04:15 GMT-0500 (Eastern Standard Time),690470.6000003815,011_m_f_h_a.png,I,None,2016,16,1,3020.6000003814697,687450.0,9054,VNB,B,14
9,test,3,0.0,2-Back,0.0,m,Wed Feb 04 2026 14:04:15 GMT-0500 (Eastern Standard Time),693503.6999998093,007_m_m_n_a.png,I,None,2016,17,1,3025.3999996185303,690478.3000001907,9054,VNB,B,15
9,test,3,0.0,2-Back,0.0,z,Wed Feb 04 2026 14:04:15 GMT-0500 (Eastern Standard Time),695986.9000005722,016_y_m_h_a.png,I,m,1411,18,1,2418.1000003814697,693568.8000001907,9054,VNB,B,16
0,test,4,0.0,2-Back,,,Wed Feb 04 2026 14:04:15 GMT-0500 (Eastern Standard Time),695986.9000005722,011_m_f_n_a.png,I,space,2409,1,1,2418.1000003814697,693568.8000001907,9054,VNB,B,0
0,test,4,0.0,2-Back,,,Wed Feb 04 2026 14:04:15 GMT-0500 (Eastern Standard Time),695986.9000005722,004_o_m_n_a.png,I,space,2409,2,1,2418.1000003814697,693568.8000001907,9054,VNB,B,0
1,test,4,1.0,2-Back,1.0,m,Wed Feb 04 2026 14:04:15 GMT-0500 (Eastern Standard Time),706269.9000005722,016_y_m_h_a.png,I,m,1515,3,1,2526.7000007629395,703743.1999998093,9054,VNB,B,1
2,test,4,1.0,2-Back,1.0,m,Wed Feb 04 2026 14:04:15 GMT-0500 (Eastern Standard Time),708586.9000005722,005_o_f_d_a.png,I,m,1285,4,1,2304.800000190735,706282.1000003815,9054,VNB,B,2
3,test,4,0.0,2-Back,1.0,z,Wed Feb 04 2026 14:04:15 GMT-0500 (Eastern Standard Time),711087.0,004_o_m_h_a.png,I,z,1482,5,1,2493.300000190735,708593.6999998093,9054,VNB,B,3
4,test,4,0.0,2-Back,1.0,m,Wed Feb 04 2026 14:04:15 GMT-0500 (Eastern Standard Time),713320.3000001907,007_m_m_n_a.png,I,m,1204,6,1,2222.1000003814697,711098.1999998093,9054,VNB,B,4
4,test,4,0.0,2-Back,0.0,m,Wed Feb 04 2026 14:04:15 GMT-0500 (Eastern Standard Time),715420.1999998093,011_m_f_d_a.png,I,z,1067,7,1,2090.699999809265,713329.5,9054,VNB,B,5
4,test,4,0.0,2-Back,0.0,z,Wed Feb 04 2026 14:04:15 GMT-0500 (Eastern Standard Time),717786.6999998093,020_y_f_n_a.png,I,m,1335,8,1,2352.3999996185303,715434.3000001907,9054,VNB,B,6
4,test,4,1.0,2-Back,0.0,m,Wed Feb 04 2026 14:04:15 GMT-0500 (Eastern Standard Time),720603.5,005_o_f_h_a.png,I,z,1784,9,1,2808.300000190735,717795.1999998093,9054,VNB,B,7
4,test,4,0.0,2-Back,0.0,m,Wed Feb 04 2026 14:04:15 GMT-0500 (Eastern Standard Time),722753.5,007_m_m_h_a.png,I,z,1111,10,1,2121.300000190735,720632.1999998093,9054,VNB,B,8
5,test,4,0.0,2-Back,1.0,m,Wed Feb 04 2026 14:04:15 GMT-0500 (Eastern Standard Time),724886.8000001907,020_y_f_d_a.png,I,m,1106,11,1,2126.6000003814697,722760.1999998093,9054,VNB,B,9
6,test,4,0.0,2-Back,1.0,m,Wed Feb 04 2026 14:04:15 GMT-0500 (Eastern Standard Time),726986.6000003815,016_y_m_n_a.png,I,m,1035,12,1,2085.800000190735,724900.8000001907,9054,VNB,B,10
7,test,4,0.0,2-Back,1.0,z,Wed Feb 04 2026 14:04:15 GMT-0500 (Eastern Standard Time),729236.9000005722,004_o_m_d_a.png,I,z,1225,13,1,2244.5,726992.4000005722,9054,VNB,B,11
8,test,4,1.0,2-Back,1.0,m,Wed Feb 04 2026 14:04:15 GMT-0500 (Eastern Standard Time),731570.1999998093,011_m_f_h_a.png,I,m,1307,14,1,2320.5,729249.6999998093,9054,VNB,B,12
8,test,4,1.0,2-Back,0.0,m,Wed Feb 04 2026 14:04:15 GMT-0500 (Eastern Standard Time),733853.3000001907,020_y_f_h_a.png,I,z,1265,15,1,2276.199999809265,731577.1000003815,9054,VNB,B,13
9,test,4,0.0,2-Back,1.0,m,Wed Feb 04 2026 14:04:15 GMT-0500 (Eastern Standard Time),736024.3000001907,005_o_f_n_a.png,I,m,1153,16,1,2162.0,733862.3000001907,9054,VNB,B,14
10,test,4,0.0,2-Back,1.0,m,Wed Feb 04 2026 14:04:15 GMT-0500 (Eastern Standard Time),738320.1000003815,016_y_m_d_a.png,I,m,1280,17,1,2287.9000005722046,736032.1999998093,9054,VNB,B,15
11,test,4,1.0,2-Back,1.0,m,Wed Feb 04 2026 14:04:15 GMT-0500 (Eastern Standard Time),740520.3000001907,007_m_m_d_a.png,I,m,1155,18,1,2173.3999996185303,738346.9000005722,9054,VNB,B,16
0,test,5,1.0,2-Back,,,Wed Feb 04 2026 14:04:15 GMT-0500 (Eastern Standard Time),740520.3000001907,020_y_f_d_a.png,I,space,1251,1,1,2173.3999996185303,738346.9000005722,9054,VNB,B,0
0,test,5,1.0,2-Back,,,Wed Feb 04 2026 14:04:15 GMT-0500 (Eastern Standard Time),740520.3000001907,005_o_f_h_a.png,I,space,1251,2,1,2173.3999996185303,738346.9000005722,9054,VNB,B,0
0,test,5,1.0,2-Back,0.0,z,Wed Feb 04 2026 14:04:15 GMT-0500 (Eastern Standard Time),750203.6999998093,004_o_m_d_a.png,I,None,2016,3,1,3025.199999809265,747178.5,9054,VNB,B,1
0,test,5,1.0,2-Back,0.0,m,Wed Feb 04 2026 14:04:15 GMT-0500 (Eastern Standard Time),753036.6999998093,011_m_f_n_a.png,I,z,1744,4,1,2755.8999996185303,750280.8000001907,9054,VNB,B,2
1,test,5,0.0,2-Back,1.0,m,Wed Feb 04 2026 14:04:15 GMT-0500 (Eastern Standard Time),755453.4000005722,007_m_m_h_a.png,I,m,1399,5,1,2410.9000005722046,753042.5,9054,VNB,B,3
2,test,5,0.0,2-Back,1.0,z,Wed Feb 04 2026 14:04:15 GMT-0500 (Eastern Standard Time),758386.8000001907,020_y_f_n_a.png,I,z,1906,6,1,2921.5,755465.3000001907,9054,VNB,B,4
3,test,5,0.0,2-Back,1.0,m,Wed Feb 04 2026 14:04:15 GMT-0500 (Eastern Standard Time),760753.3000001907,005_o_f_d_a.png,I,m,1345,7,1,2356.699999809265,758396.6000003815,9054,VNB,B,5
3,test,5,0.0,2-Back,0.0,m,Wed Feb 04 2026 14:04:15 GMT-0500 (Eastern Standard Time),763186.8000001907,004_o_m_h_a.png,I,z,1394,8,1,2417.699999809265,760769.1000003815,9054,VNB,B,6
4,test,5,1.0,2-Back,1.0,z,Wed Feb 04 2026 14:04:15 GMT-0500 (Eastern Standard Time),765553.5,011_m_f_d_a.png,I,z,1345,9,1,2359.5999994277954,763193.9000005722,9054,VNB,B,7
5,test,5,0.0,2-Back,1.0,m,Wed Feb 04 2026 14:04:15 GMT-0500 (Eastern Standard Time),768070.0,016_y_m_n_a.png,I,m,1490,10,1,2502.199999809265,765567.8000001907,9054,VNB,B,8
6,test,5,0.0,2-Back,1.0,m,Wed Feb 04 2026 14:04:15 GMT-0500 (Eastern Standard Time),771053.0,007_m_m_n_a.png,I,m,1965,11,1,2975.0,768078.0,9054,VNB,B,9
7,test,5,0.0,2-Back,1.0,m,Wed Feb 04 2026 14:04:15 GMT-0500 (Eastern Standard Time),773736.9000005722,020_y_f_h_a.png,I,m,1653,12,1,2674.5,771062.4000005722,9054,VNB,B,10
7,test,5,0.0,2-Back,0.0,m,Wed Feb 04 2026 14:04:15 GMT-0500 (Eastern Standard Time),775936.6999998093,016_y_m_d_a.png,I,z,1180,13,1,2192.5,773744.1999998093,9054,VNB,B,11
8,test,5,1.0,2-Back,1.0,z,Wed Feb 04 2026 14:04:15 GMT-0500 (Eastern Standard Time),778053.5,011_m_f_h_a.png,I,z,1091,14,1,2102.300000190735,775951.1999998093,9054,VNB,B,12
9,test,5,0.0,2-Back,1.0,m,Wed Feb 04 2026 14:04:15 GMT-0500 (Eastern Standard Time),780186.5,004_o_m_n_a.png,I,m,1101,15,1,2124.5999994277954,778061.9000005722,9054,VNB,B,13
9,test,5,0.0,2-Back,0.0,m,Wed Feb 04 2026 14:04:15 GMT-0500 (Eastern Standard Time),782436.6000003815,007_m_m_d_a.png,I,z,1225,16,1,2242.5,780194.1000003815,9054,VNB,B,14
9,test,5,0.0,2-Back,0.0,z,Wed Feb 04 2026 14:04:15 GMT-0500 (Eastern Standard Time),785470.1999998093,005_o_f_n_a.png,I,None,2016,17,1,3026.5999994277954,782443.6000003815,9054,VNB,B,15
10,test,5,1.0,2-Back,1.0,m,Wed Feb 04 2026 14:04:15 GMT-0500 (Eastern Standard Time),788086.6999998093,016_y_m_h_a.png,I,m,1588,18,1,2605.0999994277954,785481.6000003815,9054,VNB,B,16
