Q,Q1,Q2,Q3,Q4,acc_sum,block,block_c,correct,correct_response,datetime,endtime,project,response,response_time,row_sel,session_number,squiggle1,squiggle1x,squiggle1y,squiggle2,squiggle2x,squiggle2y,squiggle3,squiggle3x,squiggle3y,squiggle4,squiggle4x,squiggle4y,start_end,starttime,subject_id,target_congruent,task,task_vers,testsquiggle,testsquigglex,testsquiggley,time_practice_delay,time_practice_fixation,time_practice_stimuli,time_practice_study,time_test_delay,time_test_fixation,time_test_stimuli,time_test_study,trial
1,1,0,0,0,1,prac,1,1,z,Fri Oct 24 2025 16:23:52 GMT-0500 (Central Daylight Time),110568.40000009537,I,z,1947,1,1,16.bmp,-120,-120,17.bmp,120,-120,18.bmp,-120,120,19.bmp,120,120,10760.300000190735,99808.09999990463,8069,yes,SM,B,16.bmp,-120,-120,103850,97821,105866,99835,,,,,1
3,0,0,1,0,1,prac,1,0,m,Fri Oct 24 2025 16:23:52 GMT-0500 (Central Daylight Time),121015.0,I,z,1632,2,1,20.bmp,-120,-120,21.bmp,120,-120,22.bmp,-120,120,23.bmp,120,120,10441.900000095367,110573.09999990463,8069,no,SM,B,23.bmp,-120,120,114613,108586,116629,110609,,,,,2
4,0,0,0,1,2,prac,1,1,m,Fri Oct 24 2025 16:23:52 GMT-0500 (Central Daylight Time),131178.7999997139,I,m,1338,3,1,24.bmp,-120,-120,25.bmp,120,-120,26.bmp,-120,120,27.bmp,120,120,10160.599999904633,121018.19999980927,8069,no,SM,B,24.bmp,120,120,125060,119031,127076,121044,,,,,3
2,0,1,0,0,3,prac,1,1,z,Fri Oct 24 2025 16:23:52 GMT-0500 (Central Daylight Time),141692.2999997139,I,z,1686,4,1,28.bmp,-120,-120,29.bmp,120,-120,30.bmp,-120,120,31.bmp,120,120,10507.099999904633,131185.19999980927,8069,yes,SM,B,29.bmp,120,-120,135223,129198,137240,131208,,,,,4
3,0,0,1,0,4,prac,1,1,z,Fri Oct 24 2025 16:23:52 GMT-0500 (Central Daylight Time),152438.90000009537,I,z,1917,5,1,32.bmp,-120,-120,33.bmp,120,-120,34.bmp,-120,120,35.bmp,120,120,10742.900000095367,141696.0,8069,yes,SM,B,34.bmp,-120,120,145737,139709,147753,141722,,,,,5
1,1,0,0,0,5,prac,1,1,m,Fri Oct 24 2025 16:23:52 GMT-0500 (Central Daylight Time),162585.90000009537,I,m,1329,6,1,36.bmp,-120,-120,37.bmp,120,-120,38.bmp,-120,120,39.bmp,120,120,10143.800000190735,152442.09999990463,8069,no,SM,B,39.bmp,-120,-120,156483,150455,158500,152468,,,,,6
2,0,1,0,0,6,prac,1,1,m,Fri Oct 24 2025 16:23:52 GMT-0500 (Central Daylight Time),173399.09999990463,I,m,1991,7,1,40.bmp,-120,-120,41.bmp,120,-120,42.bmp,-120,120,43.bmp,120,120,10809.800000190735,162589.2999997139,8069,no,SM,B,40.bmp,120,-120,166630,160603,168647,162615,,,,,7
4,0,0,0,1,7,prac,1,1,z,Fri Oct 24 2025 16:23:52 GMT-0500 (Central Daylight Time),183762.2999997139,I,z,1547,8,1,44.bmp,-120,-120,45.bmp,120,-120,46.bmp,-120,120,47.bmp,120,120,10358.699999809265,173403.59999990463,8069,yes,SM,B,47.bmp,120,120,177444,171417,179459,173428,,,,,8
4,0,0,0,1,0,test,1,0,m,Fri Oct 24 2025 16:23:52 GMT-0500 (Central Daylight Time),202656.2999997139,I,None,2016,1,1,48.bmp,-120,-120,49.bmp,120,-120,50.bmp,-120,120,43.bmp,120,120,10060.89999961853,192595.40000009537,8069,yes,SM,B,50.bmp,120,120,177444,171417,179459,173428,196638.0,190609.0,198653.0,192623.0,1
2,0,1,0,0,1,test,1,1,m,Fri Oct 24 2025 16:23:52 GMT-0500 (Central Daylight Time),212070.09999990463,I,m,1353,2,1,1.bmp,-120,-120,2.bmp,120,-120,3.bmp,-120,120,4.bmp,120,120,9410.300000190735,202659.7999997139,8069,yes,SM,B,3.bmp,120,-120,177444,171417,179459,173428,206701.0,200673.0,208717.0,202686.0,2
1,1,0,0,0,2,test,1,1,z,Fri Oct 24 2025 16:23:52 GMT-0500 (Central Daylight Time),221117.2999997139,I,z,987,3,1,5.bmp,-120,-120,6.bmp,120,-120,7.bmp,-120,120,8.bmp,120,120,9044.0,212073.2999997139,8069,yes,SM,B,5.bmp,-120,-120,177444,171417,179459,173428,216115.0,210087.0,218131.0,212100.0,3
3,0,0,1,0,3,test,1,1,m,Fri Oct 24 2025 16:23:52 GMT-0500 (Central Daylight Time),230579.7999997139,I,m,1396,4,1,9.bmp,-120,-120,10.bmp,120,-120,11.bmp,-120,120,12.bmp,120,120,9458.699999809265,221121.09999990463,8069,yes,SM,B,9.bmp,-120,120,177444,171417,179459,173428,225162.0,219135.0,227178.0,221146.0,4
2,0,1,0,0,4,test,1,1,z,Fri Oct 24 2025 16:23:52 GMT-0500 (Central Daylight Time),239894.59999990463,I,z,1252,5,1,13.bmp,-120,-120,14.bmp,120,-120,15.bmp,-120,120,16.bmp,120,120,9310.900000095367,230583.69999980927,8069,yes,SM,B,14.bmp,120,-120,177444,171417,179459,173428,234626.0,228597.0,236642.0,230610.0,5
3,0,0,1,0,5,test,1,1,z,Fri Oct 24 2025 16:23:52 GMT-0500 (Central Daylight Time),249358.2999997139,I,z,1402,6,1,17.bmp,-120,-120,18.bmp,120,-120,19.bmp,-120,120,20.bmp,120,120,9460.89999961853,239897.40000009537,8069,yes,SM,B,19.bmp,-120,120,177444,171417,179459,173428,243939.0,237911.0,245955.0,239924.0,6
4,0,0,0,1,6,test,1,1,z,Fri Oct 24 2025 16:23:52 GMT-0500 (Central Daylight Time),259171.7999997139,I,z,1756,7,1,21.bmp,-120,-120,22.bmp,120,-120,23.bmp,-120,120,24.bmp,120,120,9810.199999809265,249361.59999990463,8069,yes,SM,B,24.bmp,120,120,177444,171417,179459,173428,253403.0,247375.0,255419.0,249388.0,7
2,0,1,0,0,6,test,1,0,m,Fri Oct 24 2025 16:23:52 GMT-0500 (Central Daylight Time),269235.40000009537,I,None,2015,8,1,25.bmp,-120,-120,26.bmp,120,-120,27.bmp,-120,120,28.bmp,120,120,10060.0,259175.40000009537,8069,yes,SM,B,25.bmp,120,-120,177444,171417,179459,173428,263216.0,257189.0,265233.0,259202.0,8
3,0,0,1,0,7,test,1,1,m,Fri Oct 24 2025 16:23:52 GMT-0500 (Central Daylight Time),278999.09999990463,I,m,1702,9,1,29.bmp,-120,-120,30.bmp,120,-120,31.bmp,-120,120,32.bmp,120,120,9760.699999809265,269238.40000009537,8069,yes,SM,B,30.bmp,-120,120,177444,171417,179459,173428,273280.0,267252.0,275296.0,269265.0,9
4,0,0,0,1,7,test,1,0,z,Fri Oct 24 2025 16:23:52 GMT-0500 (Central Daylight Time),289062.5,I,None,2015,10,1,37.bmp,-120,-120,38.bmp,120,-120,39.bmp,-120,120,40.bmp,120,120,10060.200000286102,279002.2999997139,8069,yes,SM,B,40.bmp,120,120,177444,171417,179459,173428,283044.0,277015.0,285060.0,279028.0,10
3,0,0,1,0,7,test,1,0,z,Fri Oct 24 2025 16:23:52 GMT-0500 (Central Daylight Time),299126.09999990463,I,None,2016,11,1,33.bmp,-120,-120,34.bmp,120,-120,35.bmp,-120,120,36.bmp,120,120,10059.0,289067.09999990463,8069,yes,SM,B,35.bmp,-120,120,177444,171417,179459,173428,293107.0,287080.0,295123.0,289092.0,11
2,0,1,0,0,7,test,1,0,m,Fri Oct 24 2025 16:23:52 GMT-0500 (Central Daylight Time),308556.5,I,z,1346,12,1,41.bmp,-120,-120,42.bmp,120,-120,43.bmp,-120,120,44.bmp,120,120,9426.900000095367,299129.59999990463,8069,yes,SM,B,41.bmp,120,-120,177444,171417,179459,173428,303204.0,297143.0,305220.0,299188.0,12
3,0,0,1,0,7,test,1,0,m,Fri Oct 24 2025 16:23:52 GMT-0500 (Central Daylight Time),317770.19999980927,I,z,1156,13,1,45.bmp,-120,-120,46.bmp,120,-120,47.bmp,-120,120,48.bmp,120,120,9210.199999809265,308560.0,8069,yes,SM,B,46.bmp,-120,120,177444,171417,179459,173428,312601.0,306573.0,314618.0,308586.0,13
1,1,0,0,0,7,test,1,0,z,Fri Oct 24 2025 16:23:52 GMT-0500 (Central Daylight Time),327833.7999997139,I,None,2016,14,1,49.bmp,-120,-120,50.bmp,120,-120,4.bmp,-120,120,1.bmp,120,120,10060.099999904633,317773.69999980927,8069,yes,SM,B,49.bmp,-120,-120,177444,171417,179459,173428,321815.0,315787.0,323831.0,317800.0,14
4,0,0,0,1,7,test,1,0,m,Fri Oct 24 2025 16:23:52 GMT-0500 (Central Daylight Time),337181.2999997139,I,z,1295,15,1,10.bmp,-120,-120,11.bmp,120,-120,12.bmp,-120,120,13.bmp,120,120,9343.199999809265,327838.09999990463,8069,yes,SM,B,11.bmp,120,120,177444,171417,179459,173428,331879.0,325851.0,333895.0,327863.0,15
1,1,0,0,0,8,test,1,1,m,Fri Oct 24 2025 16:23:52 GMT-0500 (Central Daylight Time),346444.7999997139,I,m,1204,16,1,2.bmp,-120,-120,3.bmp,120,-120,4.bmp,-120,120,5.bmp,120,120,9260.199999809265,337184.59999990463,8069,yes,SM,B,5.bmp,-120,-120,177444,171417,179459,173428,341225.0,335198.0,343242.0,337210.0,16
3,0,0,1,0,8,test,1,0,m,Fri Oct 24 2025 16:23:52 GMT-0500 (Central Daylight Time),355808.5,I,z,1317,17,1,22.bmp,-120,-120,23.bmp,120,-120,24.bmp,-120,120,25.bmp,120,120,9360.0,346448.5,8069,yes,SM,B,22.bmp,-120,120,177444,171417,179459,173428,350472.0,344462.0,352489.0,346467.0,17
1,1,0,0,0,9,test,1,1,z,Fri Oct 24 2025 16:23:52 GMT-0500 (Central Daylight Time),365505.09999990463,I,z,1649,18,1,6.bmp,-120,-120,7.bmp,120,-120,8.bmp,-120,120,9.bmp,120,120,9693.5,355811.59999990463,8069,yes,SM,B,6.bmp,-120,-120,177444,171417,179459,173428,359853.0,353825.0,361869.0,355838.0,18
2,0,1,0,0,10,test,1,1,z,Fri Oct 24 2025 16:23:52 GMT-0500 (Central Daylight Time),374469.2999997139,I,z,904,19,1,26.bmp,-120,-120,27.bmp,120,-120,28.bmp,-120,120,29.bmp,120,120,8961.39999961853,365507.90000009537,8069,yes,SM,B,27.bmp,120,-120,177444,171417,179459,173428,369550.0,363521.0,371566.0,365535.0,19
3,0,0,1,0,11,test,1,1,z,Fri Oct 24 2025 16:23:52 GMT-0500 (Central Daylight Time),383766.40000009537,I,z,1236,20,1,30.bmp,-120,-120,31.bmp,120,-120,32.bmp,-120,120,33.bmp,120,120,9293.5,374472.90000009537,8069,yes,SM,B,32.bmp,-120,120,177444,171417,179459,173428,378514.0,372486.0,380530.0,374498.0,20
1,1,0,0,0,11,test,1,0,m,Fri Oct 24 2025 16:23:52 GMT-0500 (Central Daylight Time),393296.69999980927,I,z,1467,21,1,14.bmp,-120,-120,15.bmp,120,-120,16.bmp,-120,120,17.bmp,120,120,9527.299999713898,383769.40000009537,8069,yes,SM,B,16.bmp,-120,-120,177444,171417,179459,173428,387811.0,381783.0,389827.0,383796.0,21
4,0,0,0,1,12,test,1,1,z,Fri Oct 24 2025 16:23:52 GMT-0500 (Central Daylight Time),403277.09999990463,I,z,1921,22,1,18.bmp,-120,-120,19.bmp,120,-120,20.bmp,-120,120,21.bmp,120,120,9977.699999809265,393299.40000009537,8069,yes,SM,B,21.bmp,120,120,177444,171417,179459,173428,397341.0,391313.0,399357.0,393326.0,22
1,1,0,0,0,13,test,1,1,m,Fri Oct 24 2025 16:23:52 GMT-0500 (Central Daylight Time),412774.0,I,m,1436,23,1,34.bmp,-120,-120,35.bmp,120,-120,36.bmp,-120,120,37.bmp,120,120,9494.099999904633,403279.90000009537,8069,yes,SM,B,37.bmp,-120,-120,177444,171417,179459,173428,407321.0,401293.0,409338.0,403306.0,23
2,0,1,0,0,14,test,1,1,z,Fri Oct 24 2025 16:23:52 GMT-0500 (Central Daylight Time),422020.90000009537,I,z,1186,24,1,42.bmp,-120,-120,43.bmp,120,-120,44.bmp,-120,120,45.bmp,120,120,9243.800000190735,412777.09999990463,8069,yes,SM,B,43.bmp,120,-120,177444,171417,179459,173428,416818.0,410790.0,418835.0,412803.0,24
4,0,0,0,1,15,test,1,1,m,Fri Oct 24 2025 16:23:52 GMT-0500 (Central Daylight Time),430984.90000009537,I,m,916,25,1,46.bmp,-120,-120,47.bmp,120,-120,48.bmp,-120,120,49.bmp,120,120,8960.900000095367,422024.0,8069,yes,SM,B,48.bmp,120,120,177444,171417,179459,173428,426066.0,420037.0,428082.0,422051.0,25
1,1,0,0,0,16,test,1,1,z,Fri Oct 24 2025 16:23:52 GMT-0500 (Central Daylight Time),440598.5,I,z,1560,26,1,38.bmp,-120,-120,39.bmp,120,-120,40.bmp,-120,120,41.bmp,120,120,9610.400000095367,430988.09999990463,8069,yes,SM,B,38.bmp,-120,-120,177444,171417,179459,173428,435029.0,429001.0,437046.0,431015.0,26
4,0,0,0,1,17,test,1,1,z,Fri Oct 24 2025 16:23:52 GMT-0500 (Central Daylight Time),450012.19999980927,I,z,1288,27,1,50.bmp,-120,-120,11.bmp,120,-120,1.bmp,-120,120,2.bmp,120,120,9408.299999713898,440603.90000009537,8069,yes,SM,B,2.bmp,120,120,177444,171417,179459,173428,444710.0,438618.0,446726.0,440699.0,27
3,0,0,1,0,17,test,1,0,m,Fri Oct 24 2025 16:23:52 GMT-0500 (Central Daylight Time),460076.5,I,None,2016,28,1,3.bmp,-120,-120,4.bmp,120,-120,5.bmp,-120,120,6.bmp,120,120,10061.099999904633,450015.40000009537,8069,yes,SM,B,3.bmp,-120,120,177444,171417,179459,173428,454057.0,448029.0,456073.0,450042.0,28
2,0,1,0,0,17,test,1,0,z,Fri Oct 24 2025 16:23:52 GMT-0500 (Central Daylight Time),470239.2999997139,I,m,1984,29,1,7.bmp,-120,-120,8.bmp,120,-120,9.bmp,-120,120,10.bmp,120,120,10159.39999961853,460079.90000009537,8069,yes,SM,B,8.bmp,120,-120,177444,171417,179459,173428,464249.0,458093.0,466253.0,460105.0,29
3,0,0,1,0,18,test,1,1,z,Fri Oct 24 2025 16:23:52 GMT-0500 (Central Daylight Time),479469.7999997139,I,z,1170,30,1,11.bmp,-120,-120,12.bmp,120,-120,13.bmp,-120,120,14.bmp,120,120,9226.89999961853,470242.90000009537,8069,yes,SM,B,13.bmp,-120,120,177444,171417,179459,173428,474284.0,468256.0,476300.0,470268.0,30
1,1,0,0,0,19,test,1,1,z,Fri Oct 24 2025 16:23:52 GMT-0500 (Central Daylight Time),488949.90000009537,I,z,1428,31,1,15.bmp,-120,-120,16.bmp,120,-120,17.bmp,-120,120,18.bmp,120,120,9476.800000190735,479473.09999990463,8069,yes,SM,B,15.bmp,-120,-120,177444,171417,179459,173428,483514.0,477486.0,485530.0,479499.0,31
2,0,1,0,0,20,test,1,1,m,Fri Oct 24 2025 16:23:52 GMT-0500 (Central Daylight Time),498313.40000009537,I,m,1315,32,1,19.bmp,-120,-120,20.bmp,120,-120,21.bmp,-120,120,22.bmp,120,120,9360.300000190735,488953.09999990463,8069,yes,SM,B,19.bmp,120,-120,177444,171417,179459,173428,492995.0,486966.0,495011.0,488979.0,32
4,0,0,0,1,21,test,1,1,z,Fri Oct 24 2025 16:23:52 GMT-0500 (Central Daylight Time),507827.59999990463,I,z,1455,33,1,31.bmp,-120,-120,32.bmp,120,-120,33.bmp,-120,120,34.bmp,120,120,9511.400000095367,498316.19999980927,8069,yes,SM,B,34.bmp,120,120,177444,171417,179459,173428,502358.0,496329.0,504374.0,498343.0,33
2,0,1,0,0,22,test,1,1,z,Fri Oct 24 2025 16:23:52 GMT-0500 (Central Daylight Time),517657.90000009537,I,z,1774,34,1,23.bmp,-120,-120,24.bmp,120,-120,25.bmp,-120,120,26.bmp,120,120,9827.300000190735,507830.59999990463,8069,yes,SM,B,24.bmp,120,-120,177444,171417,179459,173428,511872.0,505844.0,513888.0,507857.0,34
4,0,0,0,1,23,test,1,1,m,Fri Oct 24 2025 16:23:52 GMT-0500 (Central Daylight Time),527254.5999999046,I,m,1551,35,1,27.bmp,-120,-120,28.bmp,120,-120,29.bmp,-120,120,30.bmp,120,120,9592.599999904633,517662.0,8069,yes,SM,B,29.bmp,120,120,177444,171417,179459,173428,521702.0,515675.0,523703.0,517687.0,35
3,0,0,1,0,23,test,1,0,m,Fri Oct 24 2025 16:23:52 GMT-0500 (Central Daylight Time),536751.5,I,z,1443,36,1,35.bmp,-120,-120,36.bmp,120,-120,37.bmp,-120,120,38.bmp,120,120,9493.800000190735,527257.6999998093,8069,yes,SM,B,35.bmp,-120,120,177444,171417,179459,173428,531299.0,525271.0,533315.0,527284.0,36
1,1,0,0,0,24,test,1,1,m,Fri Oct 24 2025 16:23:52 GMT-0500 (Central Daylight Time),545915.1999998093,I,m,1106,37,1,39.bmp,-120,-120,40.bmp,120,-120,41.bmp,-120,120,42.bmp,120,120,9160.299999713898,536754.9000000954,8069,yes,SM,B,40.bmp,-120,-120,177444,171417,179459,173428,540796.0,534768.0,542812.0,536781.0,37
2,0,1,0,0,25,test,1,1,m,Fri Oct 24 2025 16:23:52 GMT-0500 (Central Daylight Time),555329.1999998093,I,m,1351,38,1,43.bmp,-120,-120,44.bmp,120,-120,45.bmp,-120,120,46.bmp,120,120,9410.599999904633,545918.5999999046,8069,yes,SM,B,45.bmp,120,-120,177444,171417,179459,173428,549960.0,543932.0,551976.0,545945.0,38
4,0,0,0,1,26,test,1,1,z,Fri Oct 24 2025 16:23:52 GMT-0500 (Central Daylight Time),564776.2999997139,I,z,1383,39,1,47.bmp,-120,-120,48.bmp,120,-120,49.bmp,-120,120,50.bmp,120,120,9442.89999961853,555333.4000000954,8069,yes,SM,B,50.bmp,120,120,177444,171417,179459,173428,559374.0,553347.0,561390.0,555358.0,39
3,0,0,1,0,27,test,1,1,m,Fri Oct 24 2025 16:23:52 GMT-0500 (Central Daylight Time),573907.1999998093,I,m,1073,40,1,4.bmp,-120,-120,5.bmp,120,-120,6.bmp,-120,120,7.bmp,120,120,9127.199999809265,564780.0,8069,yes,SM,B,5.bmp,-120,120,177444,171417,179459,173428,568821.0,562793.0,570837.0,564805.0,40
1,1,0,0,0,28,test,1,1,z,Fri Oct 24 2025 16:23:52 GMT-0500 (Central Daylight Time),583070.5,I,z,1102,41,1,8.bmp,-120,-120,9.bmp,120,-120,10.bmp,-120,120,11.bmp,120,120,9160.099999904633,573910.4000000954,8069,yes,SM,B,8.bmp,-120,-120,177444,171417,179459,173428,577951.0,571924.0,579967.0,573936.0,41
4,0,0,0,1,29,test,1,1,z,Fri Oct 24 2025 16:23:52 GMT-0500 (Central Daylight Time),592600.7999997139,I,z,1475,42,1,12.bmp,-120,-120,13.bmp,120,-120,14.bmp,-120,120,15.bmp,120,120,9527.299999713898,583073.5,8069,yes,SM,B,15.bmp,120,120,177444,171417,179459,173428,587115.0,581087.0,589131.0,583100.0,42
1,1,0,0,0,30,test,1,1,z,Fri Oct 24 2025 16:23:52 GMT-0500 (Central Daylight Time),601564.6999998093,I,z,904,43,1,16.bmp,-120,-120,17.bmp,120,-120,18.bmp,-120,120,19.bmp,120,120,8960.5,592604.1999998093,8069,yes,SM,B,16.bmp,-120,-120,177444,171417,179459,173428,596645.0,590618.0,598662.0,592630.0,43
4,0,0,0,1,31,test,1,1,m,Fri Oct 24 2025 16:23:52 GMT-0500 (Central Daylight Time),611261.5,I,m,1552,44,1,4.bmp,-120,-120,1.bmp,120,-120,2.bmp,-120,120,3.bmp,120,120,9693.800000190735,601567.6999998093,8069,yes,SM,B,4.bmp,120,120,177444,171417,179459,173428,605707.0,599581.0,607709.0,601594.0,44
1,1,0,0,0,32,test,1,1,m,Fri Oct 24 2025 16:23:52 GMT-0500 (Central Daylight Time),620525.2999997139,I,m,1203,45,1,28.bmp,-120,-120,29.bmp,120,-120,30.bmp,-120,120,31.bmp,120,120,9260.699999809265,611264.5999999046,8069,yes,SM,B,31.bmp,-120,-120,177444,171417,179459,173428,615306.0,609278.0,617322.0,611291.0,45
1,1,0,0,0,33,test,1,1,m,Fri Oct 24 2025 16:23:52 GMT-0500 (Central Daylight Time),629888.7999997139,I,m,1300,46,1,20.bmp,-120,-120,21.bmp,120,-120,22.bmp,-120,120,23.bmp,120,120,9360.299999713898,620528.5,8069,yes,SM,B,21.bmp,-120,-120,177444,171417,179459,173428,624570.0,618542.0,626586.0,620554.0,46
3,0,0,1,0,34,test,1,1,z,Fri Oct 24 2025 16:23:52 GMT-0500 (Central Daylight Time),638936.0999999046,I,z,991,47,1,24.bmp,-120,-120,25.bmp,120,-120,26.bmp,-120,120,27.bmp,120,120,9044.400000095367,629891.6999998093,8069,yes,SM,B,26.bmp,-120,120,177444,171417,179459,173428,633934.0,627905.0,635950.0,629918.0,47
3,0,0,1,0,35,test,1,1,z,Fri Oct 24 2025 16:23:52 GMT-0500 (Central Daylight Time),648350.1999998093,I,z,1361,48,1,40.bmp,-120,-120,41.bmp,120,-120,42.bmp,-120,120,43.bmp,120,120,9410.699999809265,638939.5,8069,yes,SM,B,42.bmp,-120,120,177444,171417,179459,173428,642981.0,636953.0,644997.0,638965.0,48
2,0,1,0,0,36,test,1,1,z,Fri Oct 24 2025 16:23:52 GMT-0500 (Central Daylight Time),658080.2999997139,I,z,1675,49,1,36.bmp,-120,-120,37.bmp,120,-120,38.bmp,-120,120,39.bmp,120,120,9727.199999809265,648353.0999999046,8069,yes,SM,B,37.bmp,120,-120,177444,171417,179459,173428,652395.0,646366.0,654411.0,648379.0,49
3,0,0,1,0,37,test,1,1,m,Fri Oct 24 2025 16:23:52 GMT-0500 (Central Daylight Time),667194.2999997139,I,m,1057,50,1,32.bmp,-120,-120,33.bmp,120,-120,34.bmp,-120,120,35.bmp,120,120,9111.099999904633,658083.1999998093,8069,yes,SM,B,32.bmp,-120,120,177444,171417,179459,173428,662125.0,656096.0,664141.0,658109.0,50
2,0,1,0,0,37,test,1,0,z,Fri Oct 24 2025 16:23:52 GMT-0500 (Central Daylight Time),677257.5,I,None,2015,51,1,44.bmp,-120,-120,45.bmp,120,-120,46.bmp,-120,120,47.bmp,120,120,10060.400000095367,667197.0999999046,8069,yes,SM,B,45.bmp,120,-120,177444,171417,179459,173428,671239.0,665210.0,673255.0,667223.0,51
4,0,0,0,1,38,test,1,1,m,Fri Oct 24 2025 16:23:52 GMT-0500 (Central Daylight Time),686421.2999997139,I,m,1104,52,1,48.bmp,-120,-120,49.bmp,120,-120,50.bmp,-120,120,31.bmp,120,120,9160.39999961853,677260.9000000954,8069,yes,SM,B,48.bmp,120,120,177444,171417,179459,173428,681302.0,675274.0,683318.0,677287.0,52
3,0,0,1,0,39,test,1,1,z,Fri Oct 24 2025 16:23:52 GMT-0500 (Central Daylight Time),696368.1999998093,I,z,1892,53,1,1.bmp,-120,-120,2.bmp,120,-120,3.bmp,-120,120,4.bmp,120,120,9943.900000095367,686424.2999997139,8069,yes,SM,B,3.bmp,-120,120,177444,171417,179459,173428,690466.0,684438.0,692482.0,686451.0,53
1,1,0,0,0,40,test,1,1,m,Fri Oct 24 2025 16:23:52 GMT-0500 (Central Daylight Time),705765.1999998093,I,m,1337,54,1,5.bmp,-120,-120,6.bmp,120,-120,7.bmp,-120,120,8.bmp,120,120,9393.699999809265,696371.5,8069,yes,SM,B,7.bmp,-120,-120,177444,171417,179459,173428,700413.0,694385.0,702429.0,696398.0,54
4,0,0,0,1,41,test,1,1,z,Fri Oct 24 2025 16:23:52 GMT-0500 (Central Daylight Time),715012.2999997139,I,z,1188,55,1,9.bmp,-120,-120,10.bmp,120,-120,11.bmp,-120,120,12.bmp,120,120,9243.89999961853,705768.4000000954,8069,yes,SM,B,12.bmp,120,120,177444,171417,179459,173428,709810.0,703782.0,711826.0,705796.0,55
2,0,1,0,0,42,test,1,1,m,Fri Oct 24 2025 16:23:52 GMT-0500 (Central Daylight Time),723959.4000000954,I,m,885,56,1,13.bmp,-120,-120,14.bmp,120,-120,15.bmp,-120,120,16.bmp,120,120,8943.800000190735,715015.5999999046,8069,yes,SM,B,13.bmp,120,-120,177444,171417,179459,173428,719057.0,713029.0,721073.0,715042.0,56
4,0,0,0,1,42,test,1,0,m,Fri Oct 24 2025 16:23:52 GMT-0500 (Central Daylight Time),733456.6999998093,I,z,1442,57,1,17.bmp,-120,-120,18.bmp,120,-120,19.bmp,-120,120,20.bmp,120,120,9494.400000095367,723962.2999997139,8069,yes,SM,B,18.bmp,120,120,177444,171417,179459,173428,728004.0,721976.0,730020.0,723989.0,57
3,0,0,1,0,42,test,1,0,z,Fri Oct 24 2025 16:23:52 GMT-0500 (Central Daylight Time),743520.0999999046,I,None,2016,58,1,21.bmp,-120,-120,22.bmp,120,-120,23.bmp,-120,120,24.bmp,120,120,10060.099999904633,733460.0,8069,yes,SM,B,23.bmp,-120,120,177444,171417,179459,173428,737502.0,731473.0,739517.0,733486.0,58
2,0,1,0,0,42,test,1,0,m,Fri Oct 24 2025 16:23:52 GMT-0500 (Central Daylight Time),752983.6999998093,I,z,1426,59,1,25.bmp,-120,-120,26.bmp,120,-120,27.bmp,-120,120,28.bmp,120,120,9459.699999809265,743524.0,8069,yes,SM,B,28.bmp,120,-120,177444,171417,179459,173428,747551.0,741537.0,749564.0,743549.0,59
1,1,0,0,0,43,test,1,1,z,Fri Oct 24 2025 16:23:52 GMT-0500 (Central Daylight Time),762397.1999998093,I,z,1352,60,1,29.bmp,-120,-120,30.bmp,120,-120,31.bmp,-120,120,32.bmp,120,120,9410.599999904633,752986.5999999046,8069,yes,SM,B,29.bmp,-120,-120,177444,171417,179459,173428,757028.0,751000.0,759045.0,753013.0,60
2,0,1,0,0,44,test,1,1,z,Fri Oct 24 2025 16:23:52 GMT-0500 (Central Daylight Time),771861.0999999046,I,z,1412,61,1,33.bmp,-120,-120,34.bmp,120,-120,35.bmp,-120,120,36.bmp,120,120,9460.599999904633,762400.5,8069,yes,SM,B,34.bmp,120,-120,177444,171417,179459,173428,766442.0,760414.0,768458.0,762427.0,61
4,0,0,0,1,44,test,1,0,z,Fri Oct 24 2025 16:23:52 GMT-0500 (Central Daylight Time),781924.7999997139,I,None,2016,62,1,41.bmp,-120,-120,42.bmp,120,-120,43.bmp,-120,120,44.bmp,120,120,10060.099999904633,771864.6999998093,8069,yes,SM,B,44.bmp,120,120,177444,171417,179459,173428,775906.0,769878.0,777922.0,771891.0,62
1,1,0,0,0,44,test,1,0,m,Fri Oct 24 2025 16:23:52 GMT-0500 (Central Daylight Time),791021.9000000954,I,z,1044,63,1,45.bmp,-120,-120,46.bmp,120,-120,47.bmp,-120,120,48.bmp,120,120,9094.10000038147,781927.7999997139,8069,yes,SM,B,45.bmp,-120,120,177444,171417,179459,173428,785969.0,779941.0,787985.0,781954.0,63
2,0,1,0,0,45,test,1,1,z,Fri Oct 24 2025 16:23:52 GMT-0500 (Central Daylight Time),799919.0,I,z,835,64,1,49.bmp,-120,-120,50.bmp,120,-120,12.bmp,-120,120,1.bmp,120,120,8894.099999904633,791024.9000000954,8069,yes,SM,B,50.bmp,120,-120,177444,171417,179459,173428,795066.0,789038.0,797083.0,791051.0,64
4,0,0,0,1,46,test,1,1,m,Fri Oct 24 2025 16:23:52 GMT-0500 (Central Daylight Time),808882.7999997139,I,m,905,65,1,2.bmp,-120,-120,3.bmp,120,-120,4.bmp,-120,120,5.bmp,120,120,8961.199999809265,799921.5999999046,8069,yes,SM,B,4.bmp,120,120,177444,171417,179459,173428,803963.0,797935.0,805980.0,799948.0,65
3,0,0,1,0,46,test,1,0,m,Fri Oct 24 2025 16:23:52 GMT-0500 (Central Daylight Time),818946.5,I,None,2015,66,1,6.bmp,-120,-120,7.bmp,120,-120,8.bmp,-120,120,9.bmp,120,120,10060.800000190735,808885.6999998093,8069,yes,SM,B,9.bmp,-120,120,177444,171417,179459,173428,812927.0,806899.0,814944.0,808912.0,66
2,0,1,0,0,47,test,1,1,m,Fri Oct 24 2025 16:23:52 GMT-0500 (Central Daylight Time),828093.5,I,m,1087,67,1,37.bmp,-120,-120,38.bmp,120,-120,39.bmp,-120,120,40.bmp,120,120,9144.300000190735,818949.1999998093,8069,yes,SM,B,39.bmp,120,-120,177444,171417,179459,173428,822991.0,816962.0,825007.0,818977.0,67
3,0,0,1,0,48,test,1,1,z,Fri Oct 24 2025 16:23:52 GMT-0500 (Central Daylight Time),837374.0,I,z,1220,68,1,10.bmp,-120,-120,11.bmp,120,-120,12.bmp,-120,120,13.bmp,120,120,9277.700000286102,828096.2999997139,8069,yes,SM,B,12.bmp,-120,120,177444,171417,179459,173428,832138.0,826110.0,834154.0,828123.0,68
1,1,0,0,0,49,test,1,1,m,Fri Oct 24 2025 16:23:52 GMT-0500 (Central Daylight Time),846770.9000000954,I,m,1347,69,1,14.bmp,-120,-120,15.bmp,120,-120,16.bmp,-120,120,17.bmp,120,120,9394.10000038147,837376.7999997139,8069,yes,SM,B,15.bmp,-120,-120,177444,171417,179459,173428,841418.0,835390.0,843435.0,837403.0,69
2,0,1,0,0,50,test,1,1,m,Fri Oct 24 2025 16:23:52 GMT-0500 (Central Daylight Time),855668.4000000954,I,m,838,70,1,18.bmp,-120,-120,19.bmp,120,-120,20.bmp,-120,120,21.bmp,120,120,8895.10000038147,846773.2999997139,8069,yes,SM,B,20.bmp,120,-120,177444,171417,179459,173428,850816.0,844787.0,852832.0,846801.0,70
4,0,0,0,1,51,test,1,1,z,Fri Oct 24 2025 16:23:52 GMT-0500 (Central Daylight Time),865048.5999999046,I,z,1332,71,1,22.bmp,-120,-120,23.bmp,120,-120,24.bmp,-120,120,25.bmp,120,120,9376.800000190735,855671.7999997139,8069,yes,SM,B,25.bmp,120,120,177444,171417,179459,173428,859713.0,853685.0,861729.0,855698.0,71
1,1,0,0,0,52,test,1,1,z,Fri Oct 24 2025 16:23:52 GMT-0500 (Central Daylight Time),874545.2999997139,I,z,1447,72,1,26.bmp,-120,-120,27.bmp,120,-120,28.bmp,-120,120,29.bmp,120,120,9494.0,865051.2999997139,8069,yes,SM,B,26.bmp,-120,-120,177444,171417,179459,173428,869093.0,863065.0,871110.0,865078.0,72
2,0,1,0,0,53,test,1,1,z,Fri Oct 24 2025 16:23:52 GMT-0500 (Central Daylight Time),883959.2999997139,I,z,1360,73,1,30.bmp,-120,-120,31.bmp,120,-120,32.bmp,-120,120,33.bmp,120,120,9410.89999961853,874548.4000000954,8069,yes,SM,B,31.bmp,120,-120,177444,171417,179459,173428,878590.0,872562.0,880606.0,874575.0,73
4,0,0,0,1,54,test,1,1,m,Fri Oct 24 2025 16:23:52 GMT-0500 (Central Daylight Time),892706.6999998093,I,m,697,74,1,34.bmp,-120,-120,35.bmp,120,-120,36.bmp,-120,120,37.bmp,120,120,8744.299999713898,883962.4000000954,8069,yes,SM,B,36.bmp,120,120,177444,171417,179459,173428,888004.0,881976.0,890020.0,883989.0,74
2,0,1,0,0,55,test,1,1,m,Fri Oct 24 2025 16:23:52 GMT-0500 (Central Daylight Time),901737.2999997139,I,m,982,75,1,38.bmp,-120,-120,39.bmp,120,-120,40.bmp,-120,120,41.bmp,120,120,9027.099999904633,892710.1999998093,8069,yes,SM,B,41.bmp,120,-120,177444,171417,179459,173428,896751.0,890724.0,898767.0,892736.0,75
1,1,0,0,0,56,test,1,1,z,Fri Oct 24 2025 16:23:52 GMT-0500 (Central Daylight Time),910617.4000000954,I,z,831,76,1,42.bmp,-120,-120,43.bmp,120,-120,44.bmp,-120,120,45.bmp,120,120,8877.400000095367,901740.0,8069,yes,SM,B,42.bmp,-120,-120,177444,171417,179459,173428,905782.0,899753.0,907798.0,901766.0,76
3,0,0,1,0,57,test,1,1,z,Fri Oct 24 2025 16:23:52 GMT-0500 (Central Daylight Time),919781.4000000954,I,z,1112,77,1,50.bmp,-120,-120,11.bmp,120,-120,1.bmp,-120,120,2.bmp,120,120,9160.10000038147,910621.2999997139,8069,yes,SM,B,1.bmp,-120,120,177444,171417,179459,173428,914662.0,908634.0,916678.0,910647.0,77
1,1,0,0,0,58,test,1,1,m,Fri Oct 24 2025 16:23:52 GMT-0500 (Central Daylight Time),928712.1999998093,I,m,867,78,1,46.bmp,-120,-120,47.bmp,120,-120,48.bmp,-120,120,49.bmp,120,120,8927.199999809265,919785.0,8069,yes,SM,B,47.bmp,-120,-120,177444,171417,179459,173428,923826.0,917798.0,925842.0,919811.0,78
4,0,0,0,1,59,test,1,1,m,Fri Oct 24 2025 16:23:52 GMT-0500 (Central Daylight Time),938123.7999997139,I,m,1363,79,1,7.bmp,-120,-120,8.bmp,120,-120,9.bmp,-120,120,10.bmp,120,120,9406.0,928717.7999997139,8069,yes,SM,B,7.bmp,120,120,177444,171417,179459,173428,932757.0,926731.0,934773.0,928741.0,79
3,0,0,1,0,60,test,1,1,m,Fri Oct 24 2025 16:23:52 GMT-0500 (Central Daylight Time),946856.2999997139,I,m,675,80,1,3.bmp,-120,-120,4.bmp,120,-120,5.bmp,-120,120,6.bmp,120,120,8728.199999809265,938128.0999999046,8069,yes,SM,B,6.bmp,-120,120,177444,171417,179459,173428,942170.0,936141.0,944187.0,938155.0,80
