Q,Q1,Q2,Q3,Q4,acc_sum,block,block_c,correct,correct_response,datetime,endtime,project,response,response_time,row_sel,session_number,squiggle1,squiggle1x,squiggle1y,squiggle2,squiggle2x,squiggle2y,squiggle3,squiggle3x,squiggle3y,squiggle4,squiggle4x,squiggle4y,start_end,starttime,subject_id,target_congruent,task,task_vers,testsquiggle,testsquigglex,testsquiggley,time_practice_delay,time_practice_fixation,time_practice_stimuli,time_practice_study,time_test_delay,time_test_fixation,time_test_stimuli,time_test_study,trial
1,1,0,0,0,1,prac,1,1,z,Thu May 07 2026 16:34:19 GMT-0500 (Central Daylight Time),66668.39999997616,I,z,1312,1,,66.bmp,-120,-120,67.bmp,120,-120,68.bmp,-120,120,69.bmp,120,120,10127.399999976158,56541.0,8069,yes,SM,C,66.bmp,-120,-120,60311,54282,62327,56295,,,,,1
3,0,0,1,0,2,prac,1,1,m,Thu May 07 2026 16:34:19 GMT-0500 (Central Daylight Time),76981.5,I,m,1494,2,,70.bmp,-120,-120,71.bmp,120,-120,72.bmp,-120,120,73.bmp,120,120,10307.699999988079,66673.80000001192,8069,no,SM,C,73.bmp,-120,120,70441,64415,72457,66425,,,,,2
4,0,0,0,1,3,prac,1,1,m,Thu May 07 2026 16:34:19 GMT-0500 (Central Daylight Time),86761.89999997616,I,m,957,3,,74.bmp,-120,-120,75.bmp,120,-120,76.bmp,-120,120,77.bmp,120,120,9776.799999952316,76985.10000002384,8069,no,SM,C,74.bmp,120,120,80754,74726,82770,76739,,,,,3
2,0,1,0,0,3,prac,1,0,z,Thu May 07 2026 16:34:19 GMT-0500 (Central Daylight Time),97591.89999997616,I,None,2015,4,,78.bmp,-120,-120,79.bmp,120,-120,80.bmp,-120,120,81.bmp,120,120,10826.699999988079,86765.19999998808,8069,yes,SM,C,79.bmp,120,-120,90534,84506,92551,86519,,,,,4
3,0,0,1,0,4,prac,1,1,z,Thu May 07 2026 16:34:19 GMT-0500 (Central Daylight Time),107738.69999998808,I,z,1322,5,,82.bmp,-120,-120,83.bmp,120,-120,84.bmp,-120,120,85.bmp,120,120,10143.099999964237,97595.60000002384,8069,yes,SM,C,84.bmp,-120,120,101365,95337,103380,97349,,,,,5
1,1,0,0,0,5,prac,1,1,m,Thu May 07 2026 16:34:19 GMT-0500 (Central Daylight Time),117836.30000001192,I,m,1280,6,,86.bmp,-120,-120,87.bmp,120,-120,88.bmp,-120,120,89.bmp,120,120,10093.600000023842,107742.69999998808,8069,no,SM,C,89.bmp,-120,-120,111511,105484,113527,107496,,,,,6
2,0,1,0,0,6,prac,1,1,m,Thu May 07 2026 16:34:19 GMT-0500 (Central Daylight Time),128115.69999998808,I,m,1463,7,,90.bmp,-120,-120,91.bmp,120,-120,92.bmp,-120,120,93.bmp,120,120,10275.0,117840.69999998808,8069,no,SM,C,90.bmp,120,-120,121608,115582,123624,117593,,,,,7
4,0,0,0,1,6,prac,1,0,z,Thu May 07 2026 16:34:19 GMT-0500 (Central Daylight Time),138429.10000002384,I,m,1511,8,,94.bmp,-120,-120,95.bmp,120,-120,96.bmp,-120,120,97.bmp,120,120,10309.900000035763,128119.19999998808,8069,yes,SM,C,97.bmp,120,120,131871,125861,133888,127868,,,,,8
4,0,0,0,1,0,test,1,0,m,Thu May 07 2026 16:34:19 GMT-0500 (Central Daylight Time),151642.19999998808,I,z,1617,1,,98.bmp,-120,-120,99.bmp,120,-120,100.bmp,-120,120,93.bmp,120,120,9661.5,141980.69999998808,8069,yes,SM,C,100.bmp,120,120,131871,125861,133888,127868,145751.0,139722.0,147766.0,141735.0,1
2,0,1,0,0,1,test,1,1,m,Thu May 07 2026 16:34:19 GMT-0500 (Central Daylight Time),160655.60000002384,I,m,944,2,,51.bmp,-120,-120,52.bmp,120,-120,53.bmp,-120,120,54.bmp,120,120,9010.0,151645.60000002384,8069,yes,SM,C,53.bmp,120,-120,131871,125861,133888,127868,155431.0,149387.0,157447.0,151427.0,2
1,1,0,0,0,1,test,1,0,z,Thu May 07 2026 16:34:19 GMT-0500 (Central Daylight Time),170719.0,I,None,2016,3,,55.bmp,-120,-120,56.bmp,120,-120,57.bmp,-120,120,58.bmp,120,120,10060.300000011921,160658.69999998808,8069,yes,SM,C,55.bmp,-120,-120,131871,125861,133888,127868,164428.0,158400.0,166444.0,160413.0,3
3,0,0,1,0,1,test,1,0,m,Thu May 07 2026 16:34:19 GMT-0500 (Central Daylight Time),180182.69999998808,I,z,1411,4,,59.bmp,-120,-120,60.bmp,120,-120,61.bmp,-120,120,62.bmp,120,120,9460.599999964237,170722.10000002384,8069,yes,SM,C,59.bmp,-120,120,131871,125861,133888,127868,174492.0,168463.0,176508.0,170477.0,4
2,0,1,0,0,2,test,1,1,z,Thu May 07 2026 16:34:19 GMT-0500 (Central Daylight Time),189263.19999998808,I,z,1020,5,,63.bmp,-120,-120,64.bmp,120,-120,65.bmp,-120,120,66.bmp,120,120,9076.300000011921,180186.89999997616,8069,yes,SM,C,64.bmp,120,-120,131871,125861,133888,127868,183955.0,177928.0,185971.0,179940.0,5
3,0,0,1,0,3,test,1,1,z,Thu May 07 2026 16:34:19 GMT-0500 (Central Daylight Time),198593.80000001192,I,z,1267,6,,67.bmp,-120,-120,68.bmp,120,-120,69.bmp,-120,120,70.bmp,120,120,9325.699999988079,189268.10000002384,8069,yes,SM,C,69.bmp,-120,120,131871,125861,133888,127868,193036.0,187009.0,195052.0,189021.0,6
4,0,0,0,1,4,test,1,1,z,Thu May 07 2026 16:34:19 GMT-0500 (Central Daylight Time),208257.19999998808,I,z,1517,7,,71.bmp,-120,-120,72.bmp,120,-120,73.bmp,-120,120,74.bmp,120,120,9659.800000011921,198597.39999997616,8069,yes,SM,C,74.bmp,120,120,131871,125861,133888,127868,202450.0,196339.0,204466.0,198448.0,7
2,0,1,0,0,5,test,1,1,m,Thu May 07 2026 16:34:19 GMT-0500 (Central Daylight Time),217437.80000001192,I,m,1121,8,,75.bmp,-120,-120,76.bmp,120,-120,77.bmp,-120,120,78.bmp,120,120,9177.199999988079,208260.60000002384,8069,yes,SM,C,75.bmp,120,-120,131871,125861,133888,127868,212030.0,206002.0,214046.0,208014.0,8
3,0,0,1,0,6,test,1,1,m,Thu May 07 2026 16:34:19 GMT-0500 (Central Daylight Time),226434.80000001192,I,m,942,9,,79.bmp,-120,-120,80.bmp,120,-120,81.bmp,-120,120,82.bmp,120,120,8993.5,217441.30000001192,8069,yes,SM,C,80.bmp,-120,120,131871,125861,133888,127868,221211.0,215183.0,223226.0,217195.0,9
4,0,0,0,1,7,test,1,1,z,Thu May 07 2026 16:34:19 GMT-0500 (Central Daylight Time),235698.69999998808,I,z,1216,10,,87.bmp,-120,-120,88.bmp,120,-120,89.bmp,-120,120,90.bmp,120,120,9260.800000011921,226437.89999997616,8069,yes,SM,C,90.bmp,120,120,131871,125861,133888,127868,230208.0,224179.0,232224.0,226193.0,10
3,0,0,1,0,8,test,1,1,z,Thu May 07 2026 16:34:19 GMT-0500 (Central Daylight Time),245579.0,I,z,1824,11,,83.bmp,-120,-120,84.bmp,120,-120,85.bmp,-120,120,86.bmp,120,120,9876.899999976158,235702.10000002384,8069,yes,SM,C,85.bmp,-120,120,131871,125861,133888,127868,239471.0,233443.0,241487.0,235456.0,11
2,0,1,0,0,8,test,1,0,m,Thu May 07 2026 16:34:19 GMT-0500 (Central Daylight Time),255642.19999998808,I,None,2015,12,,91.bmp,-120,-120,92.bmp,120,-120,93.bmp,-120,120,94.bmp,120,120,10059.899999976158,245582.30000001192,8069,yes,SM,C,91.bmp,120,-120,131871,125861,133888,127868,249351.0,243323.0,251368.0,245336.0,12
3,0,0,1,0,9,test,1,1,m,Thu May 07 2026 16:34:19 GMT-0500 (Central Daylight Time),265605.8000000119,I,m,1903,13,,95.bmp,-120,-120,96.bmp,120,-120,97.bmp,-120,120,98.bmp,120,120,9960.600000023842,255645.19999998808,8069,yes,SM,C,96.bmp,-120,120,131871,125861,133888,127868,259415.0,253386.0,261432.0,255400.0,13
1,1,0,0,0,9,test,1,0,z,Thu May 07 2026 16:34:19 GMT-0500 (Central Daylight Time),275652.60000002384,I,None,2016,14,,99.bmp,-120,-120,100.bmp,120,-120,54.bmp,-120,120,51.bmp,120,120,10043.300000011921,265609.3000000119,8069,yes,SM,C,99.bmp,-120,-120,131871,125861,133888,127868,269364.0,263350.0,271378.0,265363.0,14
4,0,0,0,1,9,test,1,0,m,Thu May 07 2026 16:34:19 GMT-0500 (Central Daylight Time),285665.89999997616,I,z,1956,15,,60.bmp,-120,-120,61.bmp,120,-120,62.bmp,-120,120,63.bmp,120,120,10010.199999988079,275655.6999999881,8069,yes,SM,C,61.bmp,120,120,131871,125861,133888,127868,279425.0,273397.0,281442.0,275410.0,15
1,1,0,0,0,10,test,1,1,m,Thu May 07 2026 16:34:19 GMT-0500 (Central Daylight Time),295091.5,I,m,1231,16,,52.bmp,-120,-120,53.bmp,120,-120,54.bmp,-120,120,55.bmp,120,120,9422.199999988079,285669.3000000119,8069,yes,SM,C,55.bmp,-120,-120,131871,125861,133888,127868,289440.0,283411.0,291455.0,285424.0,16
3,0,0,1,0,11,test,1,1,m,Thu May 07 2026 16:34:19 GMT-0500 (Central Daylight Time),303960.5,I,m,818,17,,72.bmp,-120,-120,73.bmp,120,-120,74.bmp,-120,120,75.bmp,120,120,8865.899999976158,295094.60000002384,8069,yes,SM,C,72.bmp,-120,120,131871,125861,133888,127868,298853.0,292836.0,300869.0,294837.0,17
1,1,0,0,0,11,test,1,0,z,Thu May 07 2026 16:34:19 GMT-0500 (Central Daylight Time),313592.0,I,m,1578,18,,56.bmp,-120,-120,57.bmp,120,-120,58.bmp,-120,120,59.bmp,120,120,9627.0,303965.0,8069,yes,SM,C,56.bmp,-120,-120,131871,125861,133888,127868,307733.0,301706.0,309749.0,303718.0,18
2,0,1,0,0,12,test,1,1,z,Thu May 07 2026 16:34:19 GMT-0500 (Central Daylight Time),322488.10000002384,I,z,842,19,,76.bmp,-120,-120,77.bmp,120,-120,78.bmp,-120,120,79.bmp,120,120,8892.900000035763,313595.1999999881,8069,yes,SM,C,77.bmp,120,-120,131871,125861,133888,127868,317364.0,311336.0,319381.0,313348.0,19
3,0,0,1,0,13,test,1,1,z,Thu May 07 2026 16:34:19 GMT-0500 (Central Daylight Time),331951.6999999881,I,z,1402,20,,80.bmp,-120,-120,81.bmp,120,-120,82.bmp,-120,120,83.bmp,120,120,9460.599999964237,322491.10000002384,8069,yes,SM,C,82.bmp,-120,120,131871,125861,133888,127868,326261.0,320232.0,328277.0,322245.0,20
1,1,0,0,0,14,test,1,1,m,Thu May 07 2026 16:34:19 GMT-0500 (Central Daylight Time),340665.6999999881,I,m,650,21,,64.bmp,-120,-120,65.bmp,120,-120,66.bmp,-120,120,67.bmp,120,120,8709.899999976158,331955.8000000119,8069,yes,SM,C,66.bmp,-120,-120,131871,125861,133888,127868,335724.0,329697.0,337741.0,331709.0,21
4,0,0,0,1,15,test,1,1,z,Thu May 07 2026 16:34:19 GMT-0500 (Central Daylight Time),349746.39999997616,I,z,1026,22,,68.bmp,-120,-120,69.bmp,120,-120,70.bmp,-120,120,71.bmp,120,120,9077.399999976158,340669.0,8069,yes,SM,C,71.bmp,120,120,131871,125861,133888,127868,344438.0,338410.0,346454.0,340423.0,22
1,1,0,0,0,15,test,1,0,m,Thu May 07 2026 16:34:19 GMT-0500 (Central Daylight Time),359626.3000000119,I,z,1816,23,,84.bmp,-120,-120,85.bmp,120,-120,86.bmp,-120,120,87.bmp,120,120,9876.5,349749.8000000119,8069,yes,SM,C,87.bmp,-120,-120,131871,125861,133888,127868,353519.0,347491.0,355535.0,349504.0,23
2,0,1,0,0,16,test,1,1,z,Thu May 07 2026 16:34:19 GMT-0500 (Central Daylight Time),368790.1999999881,I,z,1087,24,,92.bmp,-120,-120,93.bmp,120,-120,94.bmp,-120,120,95.bmp,120,120,9160.699999988079,359629.5,8069,yes,SM,C,93.bmp,120,-120,131871,125861,133888,127868,363428.0,357371.0,365432.0,359384.0,24
4,0,0,0,1,17,test,1,1,m,Thu May 07 2026 16:34:19 GMT-0500 (Central Daylight Time),378087.0,I,m,1235,25,,96.bmp,-120,-120,97.bmp,120,-120,98.bmp,-120,120,99.bmp,120,120,9293.800000011921,368793.1999999881,8069,yes,SM,C,98.bmp,120,120,131871,125861,133888,127868,372563.0,366534.0,374579.0,368547.0,25
1,1,0,0,0,17,test,1,0,z,Thu May 07 2026 16:34:19 GMT-0500 (Central Daylight Time),388067.3000000119,I,m,1931,26,,88.bmp,-120,-120,89.bmp,120,-120,90.bmp,-120,120,91.bmp,120,120,9976.699999988079,378090.60000002384,8069,yes,SM,C,88.bmp,-120,-120,131871,125861,133888,127868,381860.0,375832.0,383876.0,377844.0,26
4,0,0,0,1,18,test,1,1,z,Thu May 07 2026 16:34:19 GMT-0500 (Central Daylight Time),397297.89999997616,I,z,1170,27,,100.bmp,-120,-120,61.bmp,120,-120,51.bmp,-120,120,52.bmp,120,120,9226.899999976158,388071.0,8069,yes,SM,C,52.bmp,120,120,131871,125861,133888,127868,391840.0,385812.0,393856.0,387825.0,27
3,0,0,1,0,19,test,1,1,m,Thu May 07 2026 16:34:19 GMT-0500 (Central Daylight Time),406328.3000000119,I,m,967,28,,53.bmp,-120,-120,54.bmp,120,-120,55.bmp,-120,120,56.bmp,120,120,9026.800000011921,397301.5,8069,yes,SM,C,53.bmp,-120,120,131871,125861,133888,127868,401070.0,395043.0,403087.0,397055.0,28
2,0,1,0,0,20,test,1,1,z,Thu May 07 2026 16:34:19 GMT-0500 (Central Daylight Time),416091.8000000119,I,z,1714,29,,57.bmp,-120,-120,58.bmp,120,-120,59.bmp,-120,120,60.bmp,120,120,9759.5,406332.3000000119,8069,yes,SM,C,58.bmp,120,-120,131871,125861,133888,127868,410101.0,404074.0,412117.0,406085.0,29
3,0,0,1,0,21,test,1,1,z,Thu May 07 2026 16:34:19 GMT-0500 (Central Daylight Time),425239.0,I,z,1093,30,,61.bmp,-120,-120,62.bmp,120,-120,63.bmp,-120,120,64.bmp,120,120,9144.0,416095.0,8069,yes,SM,C,63.bmp,-120,120,131871,125861,133888,127868,419864.0,413836.0,421882.0,415849.0,30
1,1,0,0,0,21,test,1,0,z,Thu May 07 2026 16:34:19 GMT-0500 (Central Daylight Time),435302.8000000119,I,None,2016,31,,65.bmp,-120,-120,66.bmp,120,-120,67.bmp,-120,120,68.bmp,120,120,10060.0,425242.8000000119,8069,yes,SM,C,65.bmp,-120,-120,131871,125861,133888,127868,429012.0,422984.0,431028.0,424996.0,31
2,0,1,0,0,21,test,1,0,m,Thu May 07 2026 16:34:19 GMT-0500 (Central Daylight Time),445366.5,I,None,2016,32,,69.bmp,-120,-120,70.bmp,120,-120,71.bmp,-120,120,72.bmp,120,120,10060.600000023842,435305.89999997616,8069,yes,SM,C,69.bmp,120,-120,131871,125861,133888,127868,439075.0,433047.0,441091.0,435060.0,32
4,0,0,0,1,22,test,1,1,z,Thu May 07 2026 16:34:19 GMT-0500 (Central Daylight Time),454363.3000000119,I,z,949,33,,81.bmp,-120,-120,82.bmp,120,-120,83.bmp,-120,120,84.bmp,120,120,8993.699999988079,445369.60000002384,8069,yes,SM,C,84.bmp,120,120,131871,125861,133888,127868,449139.0,443111.0,451155.0,445124.0,33
2,0,1,0,0,23,test,1,1,z,Thu May 07 2026 16:34:19 GMT-0500 (Central Daylight Time),463277.5,I,z,863,34,,73.bmp,-120,-120,74.bmp,120,-120,75.bmp,-120,120,76.bmp,120,120,8910.199999988079,454367.3000000119,8069,yes,SM,C,74.bmp,120,-120,131871,125861,133888,127868,458136.0,452109.0,460152.0,454121.0,34
4,0,0,0,1,23,test,1,0,m,Thu May 07 2026 16:34:19 GMT-0500 (Central Daylight Time),472641.39999997616,I,z,1301,35,,77.bmp,-120,-120,78.bmp,120,-120,79.bmp,-120,120,80.bmp,120,120,9360.399999976158,463281.0,8069,yes,SM,C,79.bmp,120,120,131871,125861,133888,127868,467050.0,461022.0,469066.0,463035.0,35
3,0,0,1,0,23,test,1,0,m,Thu May 07 2026 16:34:19 GMT-0500 (Central Daylight Time),482704.60000002384,I,None,2016,36,,85.bmp,-120,-120,86.bmp,120,-120,87.bmp,-120,120,88.bmp,120,120,10059.100000023842,472645.5,8069,yes,SM,C,85.bmp,-120,120,131871,125861,133888,127868,476414.0,470387.0,478430.0,472398.0,36
1,1,0,0,0,24,test,1,1,m,Thu May 07 2026 16:34:19 GMT-0500 (Central Daylight Time),491768.8000000119,I,m,1000,37,,89.bmp,-120,-120,90.bmp,120,-120,91.bmp,-120,120,92.bmp,120,120,9061.300000011921,482707.5,8069,yes,SM,C,90.bmp,-120,-120,131871,125861,133888,127868,486477.0,480449.0,488494.0,482462.0,37
2,0,1,0,0,25,test,1,1,m,Thu May 07 2026 16:34:19 GMT-0500 (Central Daylight Time),501282.10000002384,I,m,1458,38,,93.bmp,-120,-120,94.bmp,120,-120,95.bmp,-120,120,96.bmp,120,120,9510.300000011921,491771.8000000119,8069,yes,SM,C,95.bmp,120,-120,131871,125861,133888,127868,495541.0,489513.0,497557.0,491526.0,38
4,0,0,0,1,26,test,1,1,z,Thu May 07 2026 16:34:19 GMT-0500 (Central Daylight Time),510929.3000000119,I,z,1609,39,,97.bmp,-120,-120,98.bmp,120,-120,99.bmp,-120,120,100.bmp,120,120,9644.400000035763,501284.89999997616,8069,yes,SM,C,100.bmp,120,120,131871,125861,133888,127868,505049.0,499026.0,507054.0,501039.0,39
3,0,0,1,0,27,test,1,1,m,Thu May 07 2026 16:34:19 GMT-0500 (Central Daylight Time),520309.5,I,m,1321,40,,54.bmp,-120,-120,55.bmp,120,-120,56.bmp,-120,120,57.bmp,120,120,9376.899999976158,510932.60000002384,8069,yes,SM,C,55.bmp,-120,120,131871,125861,133888,127868,514702.0,508674.0,516718.0,510686.0,40
1,1,0,0,0,28,test,1,1,z,Thu May 07 2026 16:34:19 GMT-0500 (Central Daylight Time),530056.6000000238,I,z,1693,41,,58.bmp,-120,-120,59.bmp,120,-120,60.bmp,-120,120,61.bmp,120,120,9743.800000011921,520312.8000000119,8069,yes,SM,C,58.bmp,-120,-120,131871,125861,133888,127868,524082.0,518054.0,526098.0,520067.0,41
4,0,0,0,1,29,test,1,1,z,Thu May 07 2026 16:34:19 GMT-0500 (Central Daylight Time),539670.1999999881,I,z,1554,42,,62.bmp,-120,-120,63.bmp,120,-120,64.bmp,-120,120,65.bmp,120,120,9610.199999988079,530060.0,8069,yes,SM,C,65.bmp,120,120,131871,125861,133888,127868,533829.0,527801.0,535845.0,529815.0,42
1,1,0,0,0,30,test,1,1,z,Thu May 07 2026 16:34:19 GMT-0500 (Central Daylight Time),549167.1000000238,I,z,1444,43,,66.bmp,-120,-120,67.bmp,120,-120,68.bmp,-120,120,69.bmp,120,120,9493.600000023842,539673.5,8069,yes,SM,C,66.bmp,-120,-120,131871,125861,133888,127868,543443.0,537415.0,545459.0,539428.0,43
4,0,0,0,1,31,test,1,1,m,Thu May 07 2026 16:34:19 GMT-0500 (Central Daylight Time),558530.8999999762,I,m,1315,44,,54.bmp,-120,-120,51.bmp,120,-120,52.bmp,-120,120,53.bmp,120,120,9360.699999988079,549170.1999999881,8069,yes,SM,C,54.bmp,120,120,131871,125861,133888,127868,552940.0,546911.0,554956.0,548924.0,44
1,1,0,0,0,32,test,1,1,m,Thu May 07 2026 16:34:19 GMT-0500 (Central Daylight Time),567778.1000000238,I,m,1199,45,,78.bmp,-120,-120,79.bmp,120,-120,80.bmp,-120,120,81.bmp,120,120,9244.100000023842,558534.0,8069,yes,SM,C,81.bmp,-120,-120,131871,125861,133888,127868,562304.0,556275.0,564320.0,558289.0,45
1,1,0,0,0,33,test,1,1,m,Thu May 07 2026 16:34:19 GMT-0500 (Central Daylight Time),577158.5,I,m,1328,46,,70.bmp,-120,-120,71.bmp,120,-120,72.bmp,-120,120,73.bmp,120,120,9376.899999976158,567781.6000000238,8069,yes,SM,C,71.bmp,-120,-120,131871,125861,133888,127868,571551.0,565523.0,573567.0,567535.0,46
3,0,0,1,0,33,test,1,0,z,Thu May 07 2026 16:34:19 GMT-0500 (Central Daylight Time),586855.3000000119,I,m,1644,47,,74.bmp,-120,-120,75.bmp,120,-120,76.bmp,-120,120,77.bmp,120,120,9693.699999988079,577161.6000000238,8069,yes,SM,C,76.bmp,-120,120,131871,125861,133888,127868,580931.0,574903.0,582947.0,576916.0,47
3,0,0,1,0,34,test,1,1,z,Thu May 07 2026 16:34:19 GMT-0500 (Central Daylight Time),596535.6999999881,I,z,1628,48,,90.bmp,-120,-120,91.bmp,120,-120,92.bmp,-120,120,93.bmp,120,120,9677.199999988079,586858.5,8069,yes,SM,C,92.bmp,-120,120,131871,125861,133888,127868,590628.0,584600.0,592644.0,586614.0,48
2,0,1,0,0,34,test,1,0,z,Thu May 07 2026 16:34:19 GMT-0500 (Central Daylight Time),606599.3999999762,I,None,2015,49,,86.bmp,-120,-120,87.bmp,120,-120,88.bmp,-120,120,89.bmp,120,120,10060.399999976158,596539.0,8069,yes,SM,C,87.bmp,120,-120,131871,125861,133888,127868,600308.0,594280.0,602325.0,596293.0,49
3,0,0,1,0,34,test,1,0,m,Thu May 07 2026 16:34:19 GMT-0500 (Central Daylight Time),616529.5,I,z,1867,50,,82.bmp,-120,-120,83.bmp,120,-120,84.bmp,-120,120,85.bmp,120,120,9926.800000011921,606602.6999999881,8069,yes,SM,C,82.bmp,-120,120,131871,125861,133888,127868,610372.0,604344.0,612388.0,606357.0,50
2,0,1,0,0,34,test,1,0,z,Thu May 07 2026 16:34:19 GMT-0500 (Central Daylight Time),625726.6999999881,I,m,1145,51,,94.bmp,-120,-120,95.bmp,120,-120,96.bmp,-120,120,97.bmp,120,120,9194.099999964237,616532.6000000238,8069,yes,SM,C,95.bmp,120,-120,131871,125861,133888,127868,620302.0,614274.0,622318.0,616287.0,51
4,0,0,0,1,35,test,1,1,m,Thu May 07 2026 16:34:19 GMT-0500 (Central Daylight Time),634990.3999999762,I,m,1204,52,,98.bmp,-120,-120,99.bmp,120,-120,100.bmp,-120,120,81.bmp,120,120,9260.399999976158,625730.0,8069,yes,SM,C,98.bmp,120,120,131871,125861,133888,127868,629499.0,623471.0,631515.0,625484.0,52
3,0,0,1,0,36,test,1,1,z,Thu May 07 2026 16:34:19 GMT-0500 (Central Daylight Time),645003.8999999762,I,z,1965,53,,51.bmp,-120,-120,52.bmp,120,-120,53.bmp,-120,120,54.bmp,120,120,10009.799999952316,634994.1000000238,8069,yes,SM,C,53.bmp,-120,120,131871,125861,133888,127868,638763.0,632735.0,640779.0,634748.0,53
1,1,0,0,0,36,test,1,0,m,Thu May 07 2026 16:34:19 GMT-0500 (Central Daylight Time),655067.3999999762,I,None,2015,54,,55.bmp,-120,-120,56.bmp,120,-120,57.bmp,-120,120,58.bmp,120,120,10060.599999964237,645006.8000000119,8069,yes,SM,C,57.bmp,-120,-120,131871,125861,133888,127868,648777.0,642748.0,650793.0,644762.0,54
4,0,0,0,1,37,test,1,1,z,Thu May 07 2026 16:34:19 GMT-0500 (Central Daylight Time),664248.0,I,z,1127,55,,59.bmp,-120,-120,60.bmp,120,-120,61.bmp,-120,120,62.bmp,120,120,9177.399999976158,655070.6000000238,8069,yes,SM,C,62.bmp,120,120,131871,125861,133888,127868,658840.0,652812.0,660856.0,654825.0,55
2,0,1,0,0,38,test,1,1,m,Thu May 07 2026 16:34:19 GMT-0500 (Central Daylight Time),673128.5,I,m,818,56,,63.bmp,-120,-120,64.bmp,120,-120,65.bmp,-120,120,66.bmp,120,120,8877.399999976158,664251.1000000238,8069,yes,SM,C,63.bmp,120,-120,131871,125861,133888,127868,668021.0,661992.0,670038.0,664005.0,56
4,0,0,0,1,38,test,1,0,m,Thu May 07 2026 16:34:19 GMT-0500 (Central Daylight Time),682393.3000000119,I,z,1202,57,,67.bmp,-120,-120,68.bmp,120,-120,69.bmp,-120,120,70.bmp,120,120,9261.199999988079,673132.1000000238,8069,yes,SM,C,68.bmp,120,120,131871,125861,133888,127868,676901.0,670873.0,678917.0,672886.0,57
3,0,0,1,0,39,test,1,1,z,Thu May 07 2026 16:34:19 GMT-0500 (Central Daylight Time),691639.8000000119,I,z,1194,58,,71.bmp,-120,-120,72.bmp,120,-120,73.bmp,-120,120,74.bmp,120,120,9243.400000035763,682396.3999999762,8069,yes,SM,C,73.bmp,-120,120,131871,125861,133888,127868,686165.0,680138.0,688182.0,682149.0,58
2,0,1,0,0,40,test,1,1,m,Thu May 07 2026 16:34:19 GMT-0500 (Central Daylight Time),700769.8999999762,I,m,1075,59,,75.bmp,-120,-120,76.bmp,120,-120,77.bmp,-120,120,78.bmp,120,120,9127.399999976158,691642.5,8069,yes,SM,C,78.bmp,120,-120,131871,125861,133888,127868,695412.0,689384.0,697428.0,691397.0,59
1,1,0,0,0,40,test,1,0,z,Thu May 07 2026 16:34:19 GMT-0500 (Central Daylight Time),710433.6000000238,I,m,1609,60,,79.bmp,-120,-120,80.bmp,120,-120,81.bmp,-120,120,82.bmp,120,120,9660.300000011921,700773.3000000119,8069,yes,SM,C,79.bmp,-120,-120,131871,125861,133888,127868,704542.0,698515.0,706559.0,700528.0,60
2,0,1,0,0,40,test,1,0,z,Thu May 07 2026 16:34:19 GMT-0500 (Central Daylight Time),720496.8999999762,I,None,2016,61,,83.bmp,-120,-120,84.bmp,120,-120,85.bmp,-120,120,86.bmp,120,120,10060.199999988079,710436.6999999881,8069,yes,SM,C,84.bmp,120,-120,131871,125861,133888,127868,714207.0,708178.0,716222.0,710191.0,61
4,0,0,0,1,41,test,1,1,z,Thu May 07 2026 16:34:19 GMT-0500 (Central Daylight Time),730044.0,I,z,1490,62,,91.bmp,-120,-120,92.bmp,120,-120,93.bmp,-120,120,94.bmp,120,120,9543.300000011921,720500.6999999881,8069,yes,SM,C,94.bmp,120,120,131871,125861,133888,127868,724271.0,718242.0,726286.0,720254.0,62
1,1,0,0,0,41,test,1,0,m,Thu May 07 2026 16:34:19 GMT-0500 (Central Daylight Time),739957.6000000238,I,z,1863,63,,95.bmp,-120,-120,96.bmp,120,-120,97.bmp,-120,120,98.bmp,120,120,9910.100000023842,730047.5,8069,yes,SM,C,95.bmp,-120,120,131871,125861,133888,127868,733817.0,727789.0,735833.0,729801.0,63
2,0,1,0,0,41,test,1,0,z,Thu May 07 2026 16:34:19 GMT-0500 (Central Daylight Time),750020.8999999762,I,None,2016,64,,99.bmp,-120,-120,100.bmp,120,-120,62.bmp,-120,120,51.bmp,120,120,10060.399999976158,739960.5,8069,yes,SM,C,100.bmp,120,-120,131871,125861,133888,127868,743731.0,737702.0,745746.0,739715.0,64
4,0,0,0,1,42,test,1,1,m,Thu May 07 2026 16:34:19 GMT-0500 (Central Daylight Time),759118.3000000119,I,m,1037,65,,52.bmp,-120,-120,53.bmp,120,-120,54.bmp,-120,120,55.bmp,120,120,9094.400000035763,750023.8999999762,8069,yes,SM,C,54.bmp,120,120,131871,125861,133888,127868,753795.0,747765.0,755810.0,749778.0,65
3,0,0,1,0,42,test,1,0,m,Thu May 07 2026 16:34:19 GMT-0500 (Central Daylight Time),768498.8999999762,I,z,1317,66,,56.bmp,-120,-120,57.bmp,120,-120,58.bmp,-120,120,59.bmp,120,120,9377.299999952316,759121.6000000238,8069,yes,SM,C,59.bmp,-120,120,131871,125861,133888,127868,762891.0,756863.0,764907.0,758876.0,66
2,0,1,0,0,42,test,1,0,m,Thu May 07 2026 16:34:19 GMT-0500 (Central Daylight Time),778562.1999999881,I,None,2015,67,,87.bmp,-120,-120,88.bmp,120,-120,89.bmp,-120,120,90.bmp,120,120,10059.699999988079,768502.5,8069,yes,SM,C,89.bmp,120,-120,131871,125861,133888,127868,772271.0,766244.0,774288.0,768256.0,67
3,0,0,1,0,42,test,1,0,z,Thu May 07 2026 16:34:19 GMT-0500 (Central Daylight Time),788125.6999999881,I,m,1513,68,,60.bmp,-120,-120,61.bmp,120,-120,62.bmp,-120,120,63.bmp,120,120,9560.599999964237,778565.1000000238,8069,yes,SM,C,62.bmp,-120,120,131871,125861,133888,127868,782336.0,776306.0,784351.0,778320.0,68
1,1,0,0,0,43,test,1,1,m,Thu May 07 2026 16:34:19 GMT-0500 (Central Daylight Time),797323.0,I,m,1140,69,,64.bmp,-120,-120,65.bmp,120,-120,66.bmp,-120,120,67.bmp,120,120,9194.399999976158,788128.6000000238,8069,yes,SM,C,65.bmp,-120,-120,131871,125861,133888,127868,791899.0,785870.0,793915.0,787883.0,69
2,0,1,0,0,44,test,1,1,m,Thu May 07 2026 16:34:19 GMT-0500 (Central Daylight Time),806753.6000000238,I,m,1376,70,,68.bmp,-120,-120,69.bmp,120,-120,70.bmp,-120,120,71.bmp,120,120,9427.100000023842,797326.5,8069,yes,SM,C,70.bmp,120,-120,131871,125861,133888,127868,801095.0,795068.0,803112.0,797080.0,70
4,0,0,0,1,45,test,1,1,z,Thu May 07 2026 16:34:19 GMT-0500 (Central Daylight Time),815850.8000000119,I,z,1041,71,,72.bmp,-120,-120,73.bmp,120,-120,74.bmp,-120,120,75.bmp,120,120,9094.100000023842,806756.6999999881,8069,yes,SM,C,75.bmp,120,120,131871,125861,133888,127868,810526.0,804498.0,812542.0,806511.0,71
1,1,0,0,0,45,test,1,0,z,Thu May 07 2026 16:34:19 GMT-0500 (Central Daylight Time),825913.8999999762,I,None,2016,72,,76.bmp,-120,-120,77.bmp,120,-120,78.bmp,-120,120,79.bmp,120,120,10059.699999988079,815854.1999999881,8069,yes,SM,C,76.bmp,-120,-120,131871,125861,133888,127868,819623.0,813595.0,821639.0,815608.0,72
2,0,1,0,0,46,test,1,1,z,Thu May 07 2026 16:34:19 GMT-0500 (Central Daylight Time),835594.3000000119,I,z,1624,73,,80.bmp,-120,-120,81.bmp,120,-120,82.bmp,-120,120,83.bmp,120,120,9677.5,825916.8000000119,8069,yes,SM,C,81.bmp,120,-120,131871,125861,133888,127868,829687.0,823658.0,831703.0,825671.0,73
4,0,0,0,1,47,test,1,1,m,Thu May 07 2026 16:34:19 GMT-0500 (Central Daylight Time),844674.6000000238,I,m,1023,74,,84.bmp,-120,-120,85.bmp,120,-120,86.bmp,-120,120,87.bmp,120,120,9077.200000047684,835597.3999999762,8069,yes,SM,C,86.bmp,120,120,131871,125861,133888,127868,839367.0,833339.0,841384.0,835352.0,74
2,0,1,0,0,47,test,1,0,m,Thu May 07 2026 16:34:19 GMT-0500 (Central Daylight Time),853789.6000000238,I,z,1065,75,,88.bmp,-120,-120,89.bmp,120,-120,90.bmp,-120,120,91.bmp,120,120,9112.200000047684,844677.3999999762,8069,yes,SM,C,91.bmp,120,-120,131871,125861,133888,127868,848447.0,842419.0,850463.0,844432.0,75
1,1,0,0,0,47,test,1,0,z,Thu May 07 2026 16:34:19 GMT-0500 (Central Daylight Time),863602.1999999881,I,m,1758,76,,92.bmp,-120,-120,93.bmp,120,-120,94.bmp,-120,120,95.bmp,120,120,9808.099999964237,853794.1000000238,8069,yes,SM,C,92.bmp,-120,-120,131871,125861,133888,127868,857561.0,851535.0,859578.0,853546.0,76
3,0,0,1,0,48,test,1,1,z,Thu May 07 2026 16:34:19 GMT-0500 (Central Daylight Time),872616.1000000238,I,z,959,77,,100.bmp,-120,-120,61.bmp,120,-120,51.bmp,-120,120,52.bmp,120,120,9010.700000047684,863605.3999999762,8069,yes,SM,C,51.bmp,-120,120,131871,125861,133888,127868,867375.0,861347.0,869392.0,863360.0,77
1,1,0,0,0,48,test,1,0,m,Thu May 07 2026 16:34:19 GMT-0500 (Central Daylight Time),882679.6000000238,I,None,2015,78,,96.bmp,-120,-120,97.bmp,120,-120,98.bmp,-120,120,99.bmp,120,120,10060.5,872619.1000000238,8069,yes,SM,C,97.bmp,-120,-120,131871,125861,133888,127868,876389.0,870360.0,878405.0,872373.0,78
4,0,0,0,1,49,test,1,1,m,Thu May 07 2026 16:34:19 GMT-0500 (Central Daylight Time),891959.8999999762,I,m,1219,79,,57.bmp,-120,-120,58.bmp,120,-120,59.bmp,-120,120,60.bmp,120,120,9276.899999976158,882683.0,8069,yes,SM,C,57.bmp,120,120,131871,125861,133888,127868,886452.0,880424.0,888468.0,882437.0,79
3,0,0,1,0,50,test,1,1,m,Thu May 07 2026 16:34:19 GMT-0500 (Central Daylight Time),901290.1000000238,I,m,1267,80,,53.bmp,-120,-120,54.bmp,120,-120,55.bmp,-120,120,56.bmp,120,120,9326.400000035763,891963.6999999881,8069,yes,SM,C,56.bmp,-120,120,131871,125861,133888,127868,895732.0,889705.0,897748.0,891717.0,80
