acc_sum,block,block_c,change,condition,correct,correct_response,datetime,endtime,face,project,response,response_time,row_sel,session_number,start_end,starttime,subject_id,task,task_vers,trial
0,prac,1,,1-Back,,,Fri May 08 2026 15:37:39 GMT-0500 (Central Daylight Time),,124_o_f_d_a.png,O,space,19882,1,1,,,7797,VNB,A,0
1,prac,1,0.0,1-Back,1.0,m,Fri May 08 2026 15:37:39 GMT-0500 (Central Daylight Time),175956.20000001788,071_y_f_n_a.png,O,m,1134,2,1,1923.5,174032.70000001788,7797,VNB,A,1
2,prac,1,0.0,1-Back,1.0,m,Fri May 08 2026 15:37:39 GMT-0500 (Central Daylight Time),178238.0,165_m_m_h_a.png,O,m,1473,3,1,2273.0999999940395,175964.90000000596,7797,VNB,A,2
3,prac,1,0.0,1-Back,1.0,m,Fri May 08 2026 15:37:39 GMT-0500 (Central Daylight Time),180106.30000001192,109_y_m_d_a.png,O,m,1068,4,1,1859.9000000059605,178246.40000000596,7797,VNB,A,3
4,prac,1,0.0,1-Back,1.0,m,Fri May 08 2026 15:37:39 GMT-0500 (Central Daylight Time),182536.5,124_o_f_n_a.png,O,m,1596,5,1,2424.699999988079,180111.80000001192,7797,VNB,A,4
5,prac,1,1.0,1-Back,1.0,z,Fri May 08 2026 15:37:39 GMT-0500 (Central Daylight Time),184569.20000001788,109_y_m_n_a.png,O,z,1215,6,1,2023.6000000238419,182545.59999999404,7797,VNB,A,5
6,prac,1,0.0,1-Back,1.0,m,Fri May 08 2026 15:37:39 GMT-0500 (Central Daylight Time),186702.70000001788,039_o_m_h_a.png,O,m,1342,7,1,2121.2000000178814,184581.5,7797,VNB,A,6
7,prac,1,0.0,1-Back,1.0,m,Fri May 08 2026 15:37:39 GMT-0500 (Central Daylight Time),188534.40000000596,139_m_f_d_a.png,O,m,1015,8,1,1822.800000011921,186711.59999999404,7797,VNB,A,7
8,prac,1,1.0,1-Back,1.0,z,Fri May 08 2026 15:37:39 GMT-0500 (Central Daylight Time),190717.09999999404,071_y_f_d_a.png,O,z,1378,9,1,2171.399999976158,188545.70000001788,7797,VNB,A,8
9,prac,1,0.0,1-Back,1.0,m,Fri May 08 2026 15:37:39 GMT-0500 (Central Daylight Time),192533.40000000596,165_m_m_n_a.png,O,m,1015,10,1,1808.5999999940395,190724.80000001192,7797,VNB,A,9
10,prac,1,0.0,1-Back,1.0,m,Fri May 08 2026 15:37:39 GMT-0500 (Central Daylight Time),194483.09999999404,124_o_f_h_a.png,O,m,1128,11,1,1939.7999999821186,192543.30000001192,7797,VNB,A,10
11,prac,1,0.0,1-Back,1.0,m,Fri May 08 2026 15:37:39 GMT-0500 (Central Daylight Time),196733.5,109_y_m_d_a.png,O,m,1464,12,1,2242.4000000059605,194491.09999999404,7797,VNB,A,11
0,test,1,0.0,1-Back,,,Fri May 08 2026 15:37:39 GMT-0500 (Central Daylight Time),196733.5,071_y_f_d_a.png,O,space,11466,1,1,2242.4000000059605,194491.09999999404,7797,VNB,A,0
1,test,1,0.0,1-Back,1.0,m,Fri May 08 2026 15:37:39 GMT-0500 (Central Daylight Time),223374.59999999404,139_m_f_n_a.png,O,m,1065,2,1,2073.5999999940395,221301.0,7797,VNB,A,1
2,test,1,0.0,1-Back,1.0,m,Fri May 08 2026 15:37:39 GMT-0500 (Central Daylight Time),225324.40000000596,039_o_m_h_a.png,O,m,926,3,1,1943.699999988079,223380.70000001788,7797,VNB,A,2
3,test,1,1.0,1-Back,1.0,z,Fri May 08 2026 15:37:39 GMT-0500 (Central Daylight Time),227356.80000001192,165_m_m_h_a.png,O,z,1017,4,1,2028.2000000178814,225328.59999999404,7797,VNB,A,3
4,test,1,0.0,1-Back,1.0,m,Fri May 08 2026 15:37:39 GMT-0500 (Central Daylight Time),229187.20000001788,124_o_f_n_a.png,O,m,799,5,1,1823.7000000178814,227363.5,7797,VNB,A,4
5,test,1,0.0,1-Back,1.0,m,Fri May 08 2026 15:37:39 GMT-0500 (Central Daylight Time),231841.09999999404,109_y_m_d_a.png,O,m,1622,6,1,2650.399999976158,229190.70000001788,7797,VNB,A,5
5,test,1,1.0,1-Back,0.0,z,Fri May 08 2026 15:37:39 GMT-0500 (Central Daylight Time),234354.20000001788,139_m_f_d_a.png,O,m,1484,7,1,2511.0,231843.20000001788,7797,VNB,A,6
6,test,1,0.0,1-Back,1.0,m,Fri May 08 2026 15:37:39 GMT-0500 (Central Daylight Time),236653.59999999404,071_y_f_h_a.png,O,m,1268,8,1,2295.2999999821186,234358.30000001192,7797,VNB,A,7
7,test,1,0.0,1-Back,1.0,m,Fri May 08 2026 15:37:39 GMT-0500 (Central Daylight Time),238518.09999999404,039_o_m_n_a.png,O,m,835,9,1,1860.8999999761581,236657.20000001788,7797,VNB,A,8
8,test,1,0.0,1-Back,1.0,m,Fri May 08 2026 15:37:39 GMT-0500 (Central Daylight Time),240585.5,109_y_m_h_a.png,O,m,1044,10,1,2064.699999988079,238520.80000001192,7797,VNB,A,9
9,test,1,0.0,1-Back,1.0,m,Fri May 08 2026 15:37:39 GMT-0500 (Central Daylight Time),242501.20000001788,039_o_m_d_a.png,O,m,890,11,1,1913.1000000238419,240588.09999999404,7797,VNB,A,10
10,test,1,1.0,1-Back,1.0,z,Fri May 08 2026 15:37:39 GMT-0500 (Central Daylight Time),244669.09999999404,124_o_f_d_a.png,O,z,1135,12,1,2164.899999976158,242504.20000001788,7797,VNB,A,11
11,test,1,0.0,1-Back,1.0,m,Fri May 08 2026 15:37:39 GMT-0500 (Central Daylight Time),246668.20000001788,165_m_m_n_a.png,O,m,968,13,1,1996.300000011921,244671.90000000596,7797,VNB,A,12
12,test,1,1.0,1-Back,1.0,z,Fri May 08 2026 15:37:39 GMT-0500 (Central Daylight Time),248831.09999999404,071_y_f_n_a.png,O,z,1144,14,1,2159.5999999940395,246671.5,7797,VNB,A,13
13,test,1,0.0,1-Back,1.0,m,Fri May 08 2026 15:37:39 GMT-0500 (Central Daylight Time),250914.80000001192,139_m_f_h_a.png,O,m,1051,15,1,2080.0999999940395,248834.70000001788,7797,VNB,A,14
14,test,1,0.0,1-Back,1.0,m,Fri May 08 2026 15:37:39 GMT-0500 (Central Daylight Time),253047.0,165_m_m_d_a.png,O,m,1104,16,1,2130.2999999821186,250916.70000001788,7797,VNB,A,15
15,test,1,0.0,1-Back,1.0,m,Fri May 08 2026 15:37:39 GMT-0500 (Central Daylight Time),255030.5,109_y_m_n_a.png,O,m,955,17,1,1981.0,253049.5,7797,VNB,A,16
16,test,1,0.0,1-Back,1.0,m,Fri May 08 2026 15:37:39 GMT-0500 (Central Daylight Time),257148.30000001192,124_o_f_h_a.png,O,m,1085,18,1,2114.9000000059605,255033.40000000596,7797,VNB,A,17
0,test,2,0.0,1-Back,,,Fri May 08 2026 15:37:39 GMT-0500 (Central Daylight Time),257148.30000001192,109_y_m_n_a.png,O,space,2438,1,1,2114.9000000059605,255033.40000000596,7797,VNB,A,0
1,test,2,0.0,1-Back,1.0,m,Fri May 08 2026 15:37:39 GMT-0500 (Central Daylight Time),263544.2000000179,071_y_f_h_a.png,O,m,902,2,1,1925.1000000238419,261619.09999999404,7797,VNB,A,1
2,test,2,1.0,1-Back,1.0,m,Fri May 08 2026 15:37:39 GMT-0500 (Central Daylight Time),265527.90000000596,039_o_m_n_a.png,O,m,953,3,1,1981.199999988079,263546.7000000179,7797,VNB,A,2
3,test,2,0.0,1-Back,1.0,m,Fri May 08 2026 15:37:39 GMT-0500 (Central Daylight Time),267377.59999999404,139_m_f_d_a.png,O,m,828,4,1,1847.3999999761581,265530.2000000179,7797,VNB,A,3
4,test,2,0.0,1-Back,1.0,z,Fri May 08 2026 15:37:39 GMT-0500 (Central Daylight Time),269375.7000000179,165_m_m_d_a.png,O,z,968,5,1,1995.5,267380.2000000179,7797,VNB,A,4
5,test,2,0.0,1-Back,1.0,m,Fri May 08 2026 15:37:39 GMT-0500 (Central Daylight Time),271175.5,109_y_m_h_a.png,O,m,779,6,1,1796.2999999821186,269379.2000000179,7797,VNB,A,5
6,test,2,1.0,1-Back,1.0,z,Fri May 08 2026 15:37:39 GMT-0500 (Central Daylight Time),273142.2000000179,124_o_f_h_a.png,O,z,939,7,1,1964.1000000238419,271178.09999999404,7797,VNB,A,6
7,test,2,0.0,1-Back,1.0,m,Fri May 08 2026 15:37:39 GMT-0500 (Central Daylight Time),275107.0,139_m_f_n_a.png,O,m,941,8,1,1962.5,273144.5,7797,VNB,A,7
8,test,2,0.0,1-Back,1.0,m,Fri May 08 2026 15:37:39 GMT-0500 (Central Daylight Time),277123.09999999404,071_y_f_d_a.png,O,m,992,9,1,2014.0,275109.09999999404,7797,VNB,A,8
9,test,2,0.0,1-Back,1.0,m,Fri May 08 2026 15:37:39 GMT-0500 (Central Daylight Time),278924.09999999404,165_m_m_n_a.png,O,m,775,10,1,1798.699999988079,277125.40000000596,7797,VNB,A,9
10,test,2,1.0,1-Back,1.0,m,Fri May 08 2026 15:37:39 GMT-0500 (Central Daylight Time),280871.3000000119,139_m_f_h_a.png,O,m,928,11,1,1944.5,278926.8000000119,7797,VNB,A,10
11,test,2,0.0,1-Back,1.0,z,Fri May 08 2026 15:37:39 GMT-0500 (Central Daylight Time),282904.2000000179,039_o_m_h_a.png,O,z,1008,12,1,2029.6000000238419,280874.59999999404,7797,VNB,A,11
12,test,2,0.0,1-Back,1.0,m,Fri May 08 2026 15:37:39 GMT-0500 (Central Daylight Time),284688.59999999404,109_y_m_d_a.png,O,m,755,13,1,1781.7999999821186,282906.8000000119,7797,VNB,A,12
13,test,2,0.0,1-Back,1.0,m,Fri May 08 2026 15:37:39 GMT-0500 (Central Daylight Time),287186.7000000179,124_o_f_n_a.png,O,m,1475,14,1,2495.4000000059605,284691.3000000119,7797,VNB,A,13
14,test,2,0.0,1-Back,1.0,z,Fri May 08 2026 15:37:39 GMT-0500 (Central Daylight Time),289954.0,071_y_f_n_a.png,O,z,1746,15,1,2764.699999988079,287189.3000000119,7797,VNB,A,14
15,test,2,1.0,1-Back,1.0,m,Fri May 08 2026 15:37:39 GMT-0500 (Central Daylight Time),292085.90000000596,165_m_m_h_a.png,O,m,1100,16,1,2129.4000000059605,289956.5,7797,VNB,A,15
16,test,2,0.0,1-Back,1.0,m,Fri May 08 2026 15:37:39 GMT-0500 (Central Daylight Time),294518.2000000179,124_o_f_d_a.png,O,m,1400,17,1,2429.0,292089.2000000179,7797,VNB,A,16
17,test,2,1.0,1-Back,1.0,z,Fri May 08 2026 15:37:39 GMT-0500 (Central Daylight Time),296550.0,039_o_m_d_a.png,O,z,1004,18,1,2028.4000000059605,294521.59999999404,7797,VNB,A,17
0,test,3,1.0,1-Back,,,Fri May 08 2026 15:37:39 GMT-0500 (Central Daylight Time),296550.0,124_o_f_h_a.png,O,space,1868,1,1,2028.4000000059605,294521.59999999404,7797,VNB,A,0
0,test,3,0.0,1-Back,0.0,m,Fri May 08 2026 15:37:39 GMT-0500 (Central Daylight Time),303515.09999999404,139_m_f_d_a.png,O,None,2016,2,1,3025.199999988079,300489.90000000596,7797,VNB,A,1
1,test,3,1.0,1-Back,1.0,m,Fri May 08 2026 15:37:39 GMT-0500 (Central Daylight Time),305663.7000000179,165_m_m_n_a.png,O,m,1118,3,1,2141.300000011921,303522.40000000596,7797,VNB,A,2
2,test,3,0.0,1-Back,1.0,z,Fri May 08 2026 15:37:39 GMT-0500 (Central Daylight Time),307596.5,124_o_f_n_a.png,O,z,906,4,1,1927.699999988079,305668.8000000119,7797,VNB,A,3
3,test,3,1.0,1-Back,1.0,m,Fri May 08 2026 15:37:39 GMT-0500 (Central Daylight Time),309463.59999999404,039_o_m_d_a.png,O,m,846,5,1,1860.5999999940395,307603.0,7797,VNB,A,4
4,test,3,0.0,1-Back,1.0,m,Fri May 08 2026 15:37:39 GMT-0500 (Central Daylight Time),311262.5,071_y_f_h_a.png,O,m,780,6,1,1794.199999988079,309468.3000000119,7797,VNB,A,5
5,test,3,0.0,1-Back,1.0,z,Fri May 08 2026 15:37:39 GMT-0500 (Central Daylight Time),313228.0,109_y_m_h_a.png,O,z,939,7,1,1961.699999988079,311266.3000000119,7797,VNB,A,6
6,test,3,0.0,1-Back,1.0,m,Fri May 08 2026 15:37:39 GMT-0500 (Central Daylight Time),315060.8000000119,139_m_f_n_a.png,O,m,814,8,1,1827.9000000059605,313232.90000000596,7797,VNB,A,7
7,test,3,0.0,1-Back,1.0,m,Fri May 08 2026 15:37:39 GMT-0500 (Central Daylight Time),317210.09999999404,071_y_f_d_a.png,O,m,1125,9,1,2144.399999976158,315065.7000000179,7797,VNB,A,8
8,test,3,1.0,1-Back,1.0,m,Fri May 08 2026 15:37:39 GMT-0500 (Central Daylight Time),319226.2000000179,039_o_m_n_a.png,O,m,992,10,1,2011.5,317214.7000000179,7797,VNB,A,9
9,test,3,0.0,1-Back,1.0,m,Fri May 08 2026 15:37:39 GMT-0500 (Central Daylight Time),321358.7000000179,165_m_m_h_a.png,O,m,1103,11,1,2128.5,319230.2000000179,7797,VNB,A,10
10,test,3,0.0,1-Back,1.0,z,Fri May 08 2026 15:37:39 GMT-0500 (Central Daylight Time),323208.0,139_m_f_h_a.png,O,z,820,12,1,1845.5999999940395,321362.40000000596,7797,VNB,A,11
11,test,3,1.0,1-Back,1.0,m,Fri May 08 2026 15:37:39 GMT-0500 (Central Daylight Time),324941.3000000119,124_o_f_d_a.png,O,m,714,13,1,1729.800000011921,323211.5,7797,VNB,A,12
12,test,3,0.0,1-Back,1.0,z,Fri May 08 2026 15:37:39 GMT-0500 (Central Daylight Time),327024.90000000596,165_m_m_d_a.png,O,z,1062,14,1,2078.4000000059605,324946.5,7797,VNB,A,13
13,test,3,0.0,1-Back,1.0,m,Fri May 08 2026 15:37:39 GMT-0500 (Central Daylight Time),328906.09999999404,109_y_m_n_a.png,O,m,858,15,1,1878.3999999761581,327027.7000000179,7797,VNB,A,14
14,test,3,1.0,1-Back,1.0,m,Fri May 08 2026 15:37:39 GMT-0500 (Central Daylight Time),331122.7000000179,039_o_m_h_a.png,O,m,1185,16,1,2214.600000023842,328908.09999999404,7797,VNB,A,15
15,test,3,0.0,1-Back,1.0,m,Fri May 08 2026 15:37:39 GMT-0500 (Central Daylight Time),333155.3000000119,109_y_m_d_a.png,O,m,1007,17,1,2028.7000000178814,331126.59999999404,7797,VNB,A,16
16,test,3,1.0,1-Back,1.0,m,Fri May 08 2026 15:37:39 GMT-0500 (Central Daylight Time),335771.09999999404,071_y_f_n_a.png,O,m,1590,18,1,2612.399999976158,333158.7000000179,7797,VNB,A,17
0,test,4,1.0,1-Back,,,Fri May 08 2026 15:37:39 GMT-0500 (Central Daylight Time),335771.09999999404,165_m_m_d_a.png,O,space,1775,1,1,2612.399999976158,333158.7000000179,7797,VNB,A,0
1,test,4,0.0,1-Back,1.0,z,Fri May 08 2026 15:37:39 GMT-0500 (Central Daylight Time),341786.0,039_o_m_d_a.png,O,z,1190,2,1,2209.699999988079,339576.3000000119,7797,VNB,A,1
2,test,4,0.0,1-Back,1.0,m,Fri May 08 2026 15:37:39 GMT-0500 (Central Daylight Time),343768.8000000119,109_y_m_h_a.png,O,m,961,3,1,1980.2000000178814,341788.59999999404,7797,VNB,A,2
3,test,4,0.0,1-Back,1.0,m,Fri May 08 2026 15:37:39 GMT-0500 (Central Daylight Time),345651.59999999404,139_m_f_n_a.png,O,m,851,4,1,1881.0999999940395,343770.5,7797,VNB,A,3
4,test,4,1.0,1-Back,1.0,m,Fri May 08 2026 15:37:39 GMT-0500 (Central Daylight Time),347902.5,124_o_f_h_a.png,O,m,1218,5,1,2246.7999999821186,345655.7000000179,7797,VNB,A,4
5,test,4,0.0,1-Back,1.0,m,Fri May 08 2026 15:37:39 GMT-0500 (Central Daylight Time),349850.5,165_m_m_n_a.png,O,m,927,6,1,1943.7999999821186,347906.7000000179,7797,VNB,A,5
6,test,4,0.0,1-Back,1.0,m,Fri May 08 2026 15:37:39 GMT-0500 (Central Daylight Time),351832.5,109_y_m_d_a.png,O,m,961,7,1,1978.9000000059605,349853.59999999404,7797,VNB,A,6
7,test,4,1.0,1-Back,1.0,z,Fri May 08 2026 15:37:39 GMT-0500 (Central Daylight Time),353815.0,071_y_f_d_a.png,O,z,954,8,1,1980.0,351835.0,7797,VNB,A,7
8,test,4,0.0,1-Back,1.0,m,Fri May 08 2026 15:37:39 GMT-0500 (Central Daylight Time),355648.09999999404,139_m_f_h_a.png,O,m,811,9,1,1828.699999988079,353819.40000000596,7797,VNB,A,8
9,test,4,0.0,1-Back,1.0,z,Fri May 08 2026 15:37:39 GMT-0500 (Central Daylight Time),357548.3000000119,039_o_m_h_a.png,O,z,867,10,1,1896.4000000059605,355651.90000000596,7797,VNB,A,9
10,test,4,1.0,1-Back,1.0,m,Fri May 08 2026 15:37:39 GMT-0500 (Central Daylight Time),359516.59999999404,124_o_f_n_a.png,O,m,936,11,1,1964.5999999940395,357552.0,7797,VNB,A,10
11,test,4,0.0,1-Back,1.0,m,Fri May 08 2026 15:37:39 GMT-0500 (Central Daylight Time),361712.09999999404,139_m_f_d_a.png,O,m,1175,12,1,2192.699999988079,359519.40000000596,7797,VNB,A,11
12,test,4,0.0,1-Back,1.0,m,Fri May 08 2026 15:37:39 GMT-0500 (Central Daylight Time),364229.5,071_y_f_n_a.png,O,m,1485,13,1,2515.0999999940395,361714.40000000596,7797,VNB,A,12
13,test,4,0.0,1-Back,1.0,m,Fri May 08 2026 15:37:39 GMT-0500 (Central Daylight Time),366794.0,124_o_f_d_a.png,O,m,1541,14,1,2562.4000000059605,364231.59999999404,7797,VNB,A,13
14,test,4,0.0,1-Back,1.0,m,Fri May 08 2026 15:37:39 GMT-0500 (Central Daylight Time),368877.09999999404,071_y_f_h_a.png,O,m,1064,15,1,2080.5,366796.59999999404,7797,VNB,A,14
15,test,4,1.0,1-Back,1.0,z,Fri May 08 2026 15:37:39 GMT-0500 (Central Daylight Time),371044.40000000596,165_m_m_h_a.png,O,z,1136,16,1,2163.9000000059605,368880.5,7797,VNB,A,15
16,test,4,0.0,1-Back,1.0,m,Fri May 08 2026 15:37:39 GMT-0500 (Central Daylight Time),373225.8000000119,039_o_m_n_a.png,O,m,1158,17,1,2178.0999999940395,371047.7000000179,7797,VNB,A,16
17,test,4,1.0,1-Back,1.0,z,Fri May 08 2026 15:37:39 GMT-0500 (Central Daylight Time),375275.40000000596,109_y_m_n_a.png,O,z,1018,18,1,2047.4000000059605,373228.0,7797,VNB,A,17
0,test,5,1.0,1-Back,,,Fri May 08 2026 15:37:39 GMT-0500 (Central Daylight Time),375275.40000000596,039_o_m_n_a.png,O,space,1568,1,1,2047.4000000059605,373228.0,7797,VNB,A,0
1,test,5,1.0,1-Back,1.0,m,Fri May 08 2026 15:37:39 GMT-0500 (Central Daylight Time),380941.40000000596,124_o_f_h_a.png,O,m,1041,2,1,2063.0,378878.40000000596,7797,VNB,A,1
2,test,5,0.0,1-Back,1.0,m,Fri May 08 2026 15:37:39 GMT-0500 (Central Daylight Time),383141.09999999404,109_y_m_d_a.png,O,m,1175,3,1,2196.5999999940395,380944.5,7797,VNB,A,2
3,test,5,0.0,1-Back,1.0,z,Fri May 08 2026 15:37:39 GMT-0500 (Central Daylight Time),385355.7000000179,039_o_m_d_a.png,O,z,1187,4,1,2212.4000000059605,383143.3000000119,7797,VNB,A,3
4,test,5,0.0,1-Back,1.0,m,Fri May 08 2026 15:37:39 GMT-0500 (Central Daylight Time),387354.3000000119,139_m_f_h_a.png,O,m,966,5,1,1996.0999999940395,385358.2000000179,7797,VNB,A,4
5,test,5,0.0,1-Back,1.0,m,Fri May 08 2026 15:37:39 GMT-0500 (Central Daylight Time),389270.8000000119,071_y_f_n_a.png,O,m,887,6,1,1914.0,387356.8000000119,7797,VNB,A,5
6,test,5,1.0,1-Back,1.0,z,Fri May 08 2026 15:37:39 GMT-0500 (Central Daylight Time),391453.09999999404,124_o_f_n_a.png,O,z,1163,7,1,2178.0,389275.09999999404,7797,VNB,A,6
7,test,5,0.0,1-Back,1.0,m,Fri May 08 2026 15:37:39 GMT-0500 (Central Daylight Time),393285.5,139_m_f_d_a.png,O,m,812,8,1,1830.4000000059605,391455.09999999404,7797,VNB,A,7
8,test,5,0.0,1-Back,1.0,m,Fri May 08 2026 15:37:39 GMT-0500 (Central Daylight Time),395453.3000000119,109_y_m_h_a.png,O,m,1139,9,1,2165.7000000178814,393287.59999999404,7797,VNB,A,8
9,test,5,0.0,1-Back,1.0,m,Fri May 08 2026 15:37:39 GMT-0500 (Central Daylight Time),397801.40000000596,071_y_f_d_a.png,O,m,1315,10,1,2345.199999988079,395456.2000000179,7797,VNB,A,9
10,test,5,0.0,1-Back,1.0,m,Fri May 08 2026 15:37:39 GMT-0500 (Central Daylight Time),400034.3000000119,165_m_m_n_a.png,O,m,1210,11,1,2229.300000011921,397805.0,7797,VNB,A,10
11,test,5,1.0,1-Back,1.0,z,Fri May 08 2026 15:37:39 GMT-0500 (Central Daylight Time),402051.5,139_m_f_n_a.png,O,z,991,12,1,2014.4000000059605,400037.09999999404,7797,VNB,A,11
12,test,5,0.0,1-Back,1.0,m,Fri May 08 2026 15:37:39 GMT-0500 (Central Daylight Time),403866.8000000119,039_o_m_h_a.png,O,m,784,13,1,1813.0999999940395,402053.7000000179,7797,VNB,A,12
13,test,5,0.0,1-Back,1.0,z,Fri May 08 2026 15:37:39 GMT-0500 (Central Daylight Time),406032.5,165_m_m_h_a.png,O,z,1134,14,1,2163.199999988079,403869.3000000119,7797,VNB,A,13
14,test,5,1.0,1-Back,1.0,m,Fri May 08 2026 15:37:39 GMT-0500 (Central Daylight Time),407766.2000000179,124_o_f_d_a.png,O,m,705,15,1,1730.9000000059605,406035.3000000119,7797,VNB,A,14
15,test,5,0.0,1-Back,1.0,m,Fri May 08 2026 15:37:39 GMT-0500 (Central Daylight Time),409898.09999999404,109_y_m_n_a.png,O,m,1101,16,1,2129.2999999821186,407768.8000000119,7797,VNB,A,15
16,test,5,0.0,1-Back,1.0,m,Fri May 08 2026 15:37:39 GMT-0500 (Central Daylight Time),412014.7000000179,071_y_f_h_a.png,O,m,1100,17,1,2112.9000000059605,409901.8000000119,7797,VNB,A,16
17,test,5,0.0,1-Back,1.0,m,Fri May 08 2026 15:37:39 GMT-0500 (Central Daylight Time),414081.0,165_m_m_d_a.png,O,m,1035,18,1,2063.4000000059605,412017.59999999404,7797,VNB,A,17
0,prac,1,0.0,2-Back,,,Fri May 08 2026 15:37:39 GMT-0500 (Central Daylight Time),414081.0,139_m_f_n_a.png,O,space,9187,1,1,2063.4000000059605,412017.59999999404,7797,VNB,A,0
0,prac,1,0.0,2-Back,,,Fri May 08 2026 15:37:39 GMT-0500 (Central Daylight Time),414081.0,124_o_f_h_a.png,O,space,9187,2,1,2063.4000000059605,412017.59999999404,7797,VNB,A,0
1,prac,1,0.0,2-Back,1.0,m,Fri May 08 2026 15:37:39 GMT-0500 (Central Daylight Time),568231.7000000179,039_o_m_d_a.png,O,m,1581,3,1,2374.300000011921,565857.400000006,7797,VNB,A,1
2,prac,1,1.0,2-Back,1.0,z,Fri May 08 2026 15:37:39 GMT-0500 (Central Daylight Time),570364.5,165_m_m_h_a.png,O,z,1325,4,1,2122.9000000059605,568241.599999994,7797,VNB,A,2
2,prac,1,0.0,2-Back,0.0,m,Fri May 08 2026 15:37:39 GMT-0500 (Central Daylight Time),573179.400000006,071_y_f_n_a.png,O,None,2018,5,1,2805.300000011921,570374.099999994,7797,VNB,A,3
2,prac,1,1.0,2-Back,0.0,z,Fri May 08 2026 15:37:39 GMT-0500 (Central Daylight Time),575995.900000006,039_o_m_h_a.png,O,None,2018,6,1,2805.0,573190.900000006,7797,VNB,A,4
2,prac,1,1.0,2-Back,0.0,z,Fri May 08 2026 15:37:39 GMT-0500 (Central Daylight Time),578061.400000006,109_y_m_n_a.png,O,m,1254,7,1,2058.0999999940395,576003.3000000119,7797,VNB,A,5
3,prac,1,0.0,2-Back,1.0,m,Fri May 08 2026 15:37:39 GMT-0500 (Central Daylight Time),580476.7000000179,139_m_f_d_a.png,O,m,1629,8,1,2405.7000000178814,578071.0,7797,VNB,A,6
3,prac,1,0.0,2-Back,0.0,m,Fri May 08 2026 15:37:39 GMT-0500 (Central Daylight Time),582676.099999994,124_o_f_d_a.png,O,z,1365,9,1,2190.7999999821186,580485.3000000119,7797,VNB,A,7
4,prac,1,0.0,2-Back,1.0,m,Fri May 08 2026 15:37:39 GMT-0500 (Central Daylight Time),585374.7000000179,165_m_m_h_a.png,O,m,1907,10,1,2688.4000000059605,582686.3000000119,7797,VNB,A,8
5,prac,1,1.0,2-Back,1.0,z,Fri May 08 2026 15:37:39 GMT-0500 (Central Daylight Time),587974.0,071_y_f_d_a.png,O,z,1789,11,1,2591.199999988079,585382.8000000119,7797,VNB,A,9
6,prac,1,0.0,2-Back,1.0,m,Fri May 08 2026 15:37:39 GMT-0500 (Central Daylight Time),590274.099999994,039_o_m_n_a.png,O,m,1490,12,1,2292.7999999821186,587981.3000000119,7797,VNB,A,10
0,prac,2,0.0,2-Back,,,Fri May 08 2026 15:37:39 GMT-0500 (Central Daylight Time),590274.099999994,139_m_f_n_a.png,O,a,6930,1,1,2292.7999999821186,587981.3000000119,7797,VNB,A,0
0,prac,2,0.0,2-Back,,,Fri May 08 2026 15:37:39 GMT-0500 (Central Daylight Time),590274.099999994,124_o_f_h_a.png,O,a,6930,2,1,2292.7999999821186,587981.3000000119,7797,VNB,A,0
0,prac,2,0.0,2-Back,0.0,m,Fri May 08 2026 15:37:39 GMT-0500 (Central Daylight Time),605119.7000000179,039_o_m_d_a.png,O,None,2006,3,1,2792.9000000059605,602326.8000000119,7797,VNB,A,1
0,prac,2,1.0,2-Back,0.0,z,Fri May 08 2026 15:37:39 GMT-0500 (Central Daylight Time),607885.900000006,165_m_m_h_a.png,O,None,2006,4,1,2757.5,605128.400000006,7797,VNB,A,2
0,prac,2,0.0,2-Back,0.0,m,Fri May 08 2026 15:37:39 GMT-0500 (Central Daylight Time),610685.8000000119,071_y_f_n_a.png,O,None,2003,5,1,2792.9000000059605,607892.900000006,7797,VNB,A,3
0,prac,2,1.0,2-Back,0.0,z,Fri May 08 2026 15:37:39 GMT-0500 (Central Daylight Time),613484.2000000179,039_o_m_h_a.png,O,None,2006,6,1,2793.0,610691.2000000179,7797,VNB,A,4
0,prac,2,1.0,2-Back,0.0,z,Fri May 08 2026 15:37:39 GMT-0500 (Central Daylight Time),616298.8000000119,109_y_m_n_a.png,O,None,2013,7,1,2806.2000000178814,613492.599999994,7797,VNB,A,5
1,prac,2,0.0,2-Back,1.0,m,Fri May 08 2026 15:37:39 GMT-0500 (Central Daylight Time),618282.599999994,139_m_f_d_a.png,O,m,1178,8,1,1975.8999999761581,616306.7000000179,7797,VNB,A,6
2,prac,2,0.0,2-Back,1.0,m,Fri May 08 2026 15:37:39 GMT-0500 (Central Daylight Time),620780.400000006,124_o_f_d_a.png,O,m,1675,9,1,2491.300000011921,618289.099999994,7797,VNB,A,7
2,prac,2,0.0,2-Back,0.0,m,Fri May 08 2026 15:37:39 GMT-0500 (Central Daylight Time),622714.2000000179,165_m_m_h_a.png,O,z,1144,10,1,1926.0,620788.2000000179,7797,VNB,A,8
2,prac,2,1.0,2-Back,0.0,z,Fri May 08 2026 15:37:39 GMT-0500 (Central Daylight Time),624729.3000000119,071_y_f_d_a.png,O,m,1204,11,1,2006.800000011921,622722.5,7797,VNB,A,9
3,prac,2,0.0,2-Back,1.0,m,Fri May 08 2026 15:37:39 GMT-0500 (Central Daylight Time),626896.099999994,039_o_m_n_a.png,O,m,1380,12,1,2159.5,624736.599999994,7797,VNB,A,10
0,test,1,0.0,2-Back,,,Fri May 08 2026 15:37:39 GMT-0500 (Central Daylight Time),626896.099999994,109_y_m_h_a.png,O,space,7574,1,1,2159.5,624736.599999994,7797,VNB,A,0
0,test,1,0.0,2-Back,,,Fri May 08 2026 15:37:39 GMT-0500 (Central Daylight Time),626896.099999994,124_o_f_n_a.png,O,space,7574,2,1,2159.5,624736.599999994,7797,VNB,A,0
1,test,1,0.0,2-Back,1.0,z,Fri May 08 2026 15:37:39 GMT-0500 (Central Daylight Time),648322.0,039_o_m_h_a.png,O,z,1052,3,1,2078.699999988079,646243.3000000119,7797,VNB,A,1
2,test,1,0.0,2-Back,1.0,m,Fri May 08 2026 15:37:39 GMT-0500 (Central Daylight Time),650320.099999994,139_m_f_d_a.png,O,m,967,4,1,1994.0999999940395,648326.0,7797,VNB,A,2
3,test,1,1.0,2-Back,1.0,m,Fri May 08 2026 15:37:39 GMT-0500 (Central Daylight Time),652503.8000000119,109_y_m_n_a.png,O,m,1153,5,1,2181.300000011921,650322.5,7797,VNB,A,3
4,test,1,0.0,2-Back,1.0,z,Fri May 08 2026 15:37:39 GMT-0500 (Central Daylight Time),655036.3000000119,071_y_f_d_a.png,O,z,1516,6,1,2529.5,652506.8000000119,7797,VNB,A,4
5,test,1,0.0,2-Back,1.0,m,Fri May 08 2026 15:37:39 GMT-0500 (Central Daylight Time),657619.2000000179,165_m_m_h_a.png,O,m,1552,7,1,2581.100000023842,655038.099999994,7797,VNB,A,5
5,test,1,1.0,2-Back,0.0,m,Fri May 08 2026 15:37:39 GMT-0500 (Central Daylight Time),660651.0,071_y_f_n_a.png,O,None,2016,8,1,3025.7999999821186,657625.2000000179,7797,VNB,A,6
5,test,1,0.0,2-Back,0.0,z,Fri May 08 2026 15:37:39 GMT-0500 (Central Daylight Time),662733.3000000119,124_o_f_h_a.png,O,m,1055,9,1,2072.5,660660.8000000119,7797,VNB,A,7
6,test,1,0.0,2-Back,1.0,m,Fri May 08 2026 15:37:39 GMT-0500 (Central Daylight Time),664765.8000000119,039_o_m_d_a.png,O,m,1013,10,1,2027.800000011921,662738.0,7797,VNB,A,8
7,test,1,1.0,2-Back,1.0,m,Fri May 08 2026 15:37:39 GMT-0500 (Central Daylight Time),666632.900000006,165_m_m_d_a.png,O,m,835,11,1,1863.699999988079,664769.2000000179,7797,VNB,A,9
8,test,1,0.0,2-Back,1.0,m,Fri May 08 2026 15:37:39 GMT-0500 (Central Daylight Time),668831.099999994,139_m_f_n_a.png,O,m,1178,12,1,2194.0999999940395,666637.0,7797,VNB,A,10
8,test,1,0.0,2-Back,0.0,m,Fri May 08 2026 15:37:39 GMT-0500 (Central Daylight Time),671064.3000000119,071_y_f_h_a.png,O,z,1203,13,1,2229.5999999940395,668834.7000000179,7797,VNB,A,11
8,test,1,0.0,2-Back,0.0,z,Fri May 08 2026 15:37:39 GMT-0500 (Central Daylight Time),674097.0,165_m_m_n_a.png,O,None,2015,14,1,3028.7999999821186,671068.2000000179,7797,VNB,A,12
9,test,1,0.0,2-Back,1.0,m,Fri May 08 2026 15:37:39 GMT-0500 (Central Daylight Time),676213.400000006,109_y_m_d_a.png,O,m,1085,15,1,2107.0,674106.400000006,7797,VNB,A,13
10,test,1,1.0,2-Back,1.0,m,Fri May 08 2026 15:37:39 GMT-0500 (Central Daylight Time),678678.2000000179,139_m_f_h_a.png,O,m,1446,16,1,2459.2000000178814,676219.0,7797,VNB,A,14
10,test,1,0.0,2-Back,0.0,z,Fri May 08 2026 15:37:39 GMT-0500 (Central Daylight Time),680843.900000006,124_o_f_d_a.png,O,m,1134,17,1,2161.5999999940395,678682.3000000119,7797,VNB,A,15
11,test,1,0.0,2-Back,1.0,m,Fri May 08 2026 15:37:39 GMT-0500 (Central Daylight Time),683277.0,039_o_m_n_a.png,O,m,1413,18,1,2429.199999988079,680847.8000000119,7797,VNB,A,16
0,test,2,0.0,2-Back,,,Fri May 08 2026 15:37:39 GMT-0500 (Central Daylight Time),683277.0,165_m_m_h_a.png,O,space,2061,1,1,2429.199999988079,680847.8000000119,7797,VNB,A,0
0,test,2,0.0,2-Back,,,Fri May 08 2026 15:37:39 GMT-0500 (Central Daylight Time),683277.0,071_y_f_n_a.png,O,space,2061,2,1,2429.199999988079,680847.8000000119,7797,VNB,A,0
1,test,2,1.0,2-Back,1.0,z,Fri May 08 2026 15:37:39 GMT-0500 (Central Daylight Time),692491.599999994,124_o_f_h_a.png,O,z,1042,3,1,2060.0999999940395,690431.5,7797,VNB,A,1
2,test,2,0.0,2-Back,1.0,m,Fri May 08 2026 15:37:39 GMT-0500 (Central Daylight Time),694340.3000000119,039_o_m_d_a.png,O,m,816,4,1,1846.0,692494.3000000119,7797,VNB,A,2
3,test,2,0.0,2-Back,1.0,m,Fri May 08 2026 15:37:39 GMT-0500 (Central Daylight Time),696340.5,139_m_f_d_a.png,O,m,974,5,1,1997.2999999821186,694343.2000000179,7797,VNB,A,3
4,test,2,0.0,2-Back,1.0,m,Fri May 08 2026 15:37:39 GMT-0500 (Central Daylight Time),699039.7000000179,109_y_m_h_a.png,O,m,1669,6,1,2695.600000023842,696344.099999994,7797,VNB,A,4
4,test,2,0.0,2-Back,0.0,m,Fri May 08 2026 15:37:39 GMT-0500 (Central Daylight Time),701371.7000000179,124_o_f_n_a.png,O,z,1309,7,1,2328.4000000059605,699043.3000000119,7797,VNB,A,5
5,test,2,1.0,2-Back,1.0,z,Fri May 08 2026 15:37:39 GMT-0500 (Central Daylight Time),703938.099999994,039_o_m_h_a.png,O,z,1534,8,1,2563.2999999821186,701374.8000000119,7797,VNB,A,6
5,test,2,0.0,2-Back,0.0,m,Fri May 08 2026 15:37:39 GMT-0500 (Central Daylight Time),706971.599999994,071_y_f_d_a.png,O,None,2016,9,1,3030.0999999940395,703941.5,7797,VNB,A,7
6,test,2,0.0,2-Back,1.0,m,Fri May 08 2026 15:37:39 GMT-0500 (Central Daylight Time),709436.400000006,109_y_m_d_a.png,O,m,1440,10,1,2457.5,706978.900000006,7797,VNB,A,8
7,test,2,0.0,2-Back,1.0,m,Fri May 08 2026 15:37:39 GMT-0500 (Central Daylight Time),711868.099999994,165_m_m_n_a.png,O,m,1400,11,1,2428.899999976158,709439.2000000179,7797,VNB,A,9
8,test,2,0.0,2-Back,1.0,m,Fri May 08 2026 15:37:39 GMT-0500 (Central Daylight Time),714250.400000006,139_m_f_h_a.png,O,m,1359,12,1,2377.5999999940395,711872.8000000119,7797,VNB,A,10
8,test,2,1.0,2-Back,0.0,z,Fri May 08 2026 15:37:39 GMT-0500 (Central Daylight Time),717284.3000000119,039_o_m_n_a.png,O,None,2016,13,1,3029.800000011921,714254.5,7797,VNB,A,11
9,test,2,0.0,2-Back,1.0,m,Fri May 08 2026 15:37:39 GMT-0500 (Central Daylight Time),719334.0,124_o_f_d_a.png,O,m,1034,14,1,2043.4000000059605,717290.599999994,7797,VNB,A,12
9,test,2,0.0,2-Back,0.0,m,Fri May 08 2026 15:37:39 GMT-0500 (Central Daylight Time),722365.099999994,071_y_f_h_a.png,O,None,2016,15,1,3028.0999999940395,719337.0,7797,VNB,A,13
9,test,2,0.0,2-Back,0.0,z,Fri May 08 2026 15:37:39 GMT-0500 (Central Daylight Time),724831.0,165_m_m_d_a.png,O,m,1445,16,1,2459.0999999940395,722371.900000006,7797,VNB,A,14
10,test,2,0.0,2-Back,1.0,m,Fri May 08 2026 15:37:39 GMT-0500 (Central Daylight Time),727379.599999994,109_y_m_n_a.png,O,m,1532,17,1,2546.0999999940395,724833.5,7797,VNB,A,15
10,test,2,1.0,2-Back,0.0,m,Fri May 08 2026 15:37:39 GMT-0500 (Central Daylight Time),729761.7000000179,139_m_f_n_a.png,O,z,1358,18,1,2380.4000000059605,727381.3000000119,7797,VNB,A,16
0,test,3,1.0,2-Back,,,Fri May 08 2026 15:37:39 GMT-0500 (Central Daylight Time),729761.7000000179,039_o_m_n_a.png,O,space,5152,1,1,2380.4000000059605,727381.3000000119,7797,VNB,A,0
0,test,3,1.0,2-Back,,,Fri May 08 2026 15:37:39 GMT-0500 (Central Daylight Time),729761.7000000179,124_o_f_d_a.png,O,space,5152,2,1,2380.4000000059605,727381.3000000119,7797,VNB,A,0
1,test,3,0.0,2-Back,1.0,m,Fri May 08 2026 15:37:39 GMT-0500 (Central Daylight Time),741991.5,071_y_f_h_a.png,O,m,992,3,1,2008.699999988079,739982.8000000119,7797,VNB,A,1
2,test,3,0.0,2-Back,1.0,z,Fri May 08 2026 15:37:39 GMT-0500 (Central Daylight Time),744092.0,139_m_f_d_a.png,O,z,1068,4,1,2097.2999999821186,741994.7000000179,7797,VNB,A,2
2,test,3,1.0,2-Back,0.0,m,Fri May 08 2026 15:37:39 GMT-0500 (Central Daylight Time),747124.0,109_y_m_n_a.png,O,None,2015,5,1,3028.0999999940395,744095.900000006,7797,VNB,A,3
3,test,3,0.0,2-Back,1.0,m,Fri May 08 2026 15:37:39 GMT-0500 (Central Daylight Time),750038.099999994,039_o_m_h_a.png,O,m,1895,6,1,2906.7999999821186,747131.3000000119,7797,VNB,A,4
4,test,3,0.0,2-Back,1.0,z,Fri May 08 2026 15:37:39 GMT-0500 (Central Daylight Time),752021.3000000119,071_y_f_n_a.png,O,z,948,7,1,1981.300000011921,750040.0,7797,VNB,A,5
5,test,3,1.0,2-Back,1.0,m,Fri May 08 2026 15:37:39 GMT-0500 (Central Daylight Time),754005.5,165_m_m_d_a.png,O,m,963,8,1,1981.0,752024.5,7797,VNB,A,6
6,test,3,0.0,2-Back,1.0,m,Fri May 08 2026 15:37:39 GMT-0500 (Central Daylight Time),756304.5,109_y_m_d_a.png,O,m,1276,9,1,2297.199999988079,754007.3000000119,7797,VNB,A,7
7,test,3,0.0,2-Back,1.0,m,Fri May 08 2026 15:37:39 GMT-0500 (Central Daylight Time),758769.900000006,124_o_f_h_a.png,O,m,1436,10,1,2463.199999988079,756306.7000000179,7797,VNB,A,8
7,test,3,1.0,2-Back,0.0,m,Fri May 08 2026 15:37:39 GMT-0500 (Central Daylight Time),761220.099999994,139_m_f_n_a.png,O,z,1417,11,1,2446.899999976158,758773.2000000179,7797,VNB,A,9
8,test,3,1.0,2-Back,1.0,z,Fri May 08 2026 15:37:39 GMT-0500 (Central Daylight Time),763469.3000000119,165_m_m_h_a.png,O,z,1234,12,1,2245.9000000059605,761223.400000006,7797,VNB,A,10
8,test,3,0.0,2-Back,0.0,m,Fri May 08 2026 15:37:39 GMT-0500 (Central Daylight Time),766051.0,071_y_f_d_a.png,O,z,1550,13,1,2578.5999999940395,763472.400000006,7797,VNB,A,11
9,test,3,0.0,2-Back,1.0,m,Fri May 08 2026 15:37:39 GMT-0500 (Central Daylight Time),768984.2000000179,124_o_f_n_a.png,O,m,1902,14,1,2928.4000000059605,766055.8000000119,7797,VNB,A,12
10,test,3,0.0,2-Back,1.0,z,Fri May 08 2026 15:37:39 GMT-0500 (Central Daylight Time),771416.3000000119,039_o_m_d_a.png,O,z,1403,15,1,2429.7000000178814,768986.599999994,7797,VNB,A,13
11,test,3,1.0,2-Back,1.0,m,Fri May 08 2026 15:37:39 GMT-0500 (Central Daylight Time),773665.599999994,139_m_f_h_a.png,O,m,1217,16,1,2246.0999999940395,771419.5,7797,VNB,A,14
11,test,3,0.0,2-Back,0.0,m,Fri May 08 2026 15:37:39 GMT-0500 (Central Daylight Time),776697.5,165_m_m_n_a.png,O,None,2015,17,1,3028.9000000059605,773668.599999994,7797,VNB,A,15
12,test,3,0.0,2-Back,1.0,z,Fri May 08 2026 15:37:39 GMT-0500 (Central Daylight Time),779380.7000000179,109_y_m_h_a.png,O,z,1656,18,1,2674.5,776706.2000000179,7797,VNB,A,16
0,test,4,0.0,2-Back,,,Fri May 08 2026 15:37:39 GMT-0500 (Central Daylight Time),779380.7000000179,139_m_f_n_a.png,O,space,3046,1,1,2674.5,776706.2000000179,7797,VNB,A,0
0,test,4,0.0,2-Back,,,Fri May 08 2026 15:37:39 GMT-0500 (Central Daylight Time),779380.7000000179,039_o_m_n_a.png,O,space,3046,2,1,2674.5,776706.2000000179,7797,VNB,A,0
1,test,4,1.0,2-Back,1.0,m,Fri May 08 2026 15:37:39 GMT-0500 (Central Daylight Time),789412.0,109_y_m_h_a.png,O,m,889,3,1,1906.5,787505.5,7797,VNB,A,1
2,test,4,1.0,2-Back,1.0,m,Fri May 08 2026 15:37:39 GMT-0500 (Central Daylight Time),791475.599999994,124_o_f_d_a.png,O,m,1034,4,1,2060.5,789415.099999994,7797,VNB,A,2
2,test,4,0.0,2-Back,0.0,z,Fri May 08 2026 15:37:39 GMT-0500 (Central Daylight Time),794228.3000000119,039_o_m_h_a.png,O,m,1719,5,1,2748.300000011921,791480.0,7797,VNB,A,3
2,test,4,0.0,2-Back,0.0,m,Fri May 08 2026 15:37:39 GMT-0500 (Central Daylight Time),796541.2000000179,165_m_m_n_a.png,O,z,1297,6,1,2309.800000011921,794231.400000006,7797,VNB,A,4
3,test,4,0.0,2-Back,1.0,m,Fri May 08 2026 15:37:39 GMT-0500 (Central Daylight Time),798691.3000000119,139_m_f_d_a.png,O,m,1126,7,1,2145.800000011921,796545.5,7797,VNB,A,5
3,test,4,0.0,2-Back,0.0,z,Fri May 08 2026 15:37:39 GMT-0500 (Central Daylight Time),801724.8000000119,071_y_f_n_a.png,O,None,2016,8,1,3030.800000011921,798694.0,7797,VNB,A,6
4,test,4,1.0,2-Back,1.0,m,Fri May 08 2026 15:37:39 GMT-0500 (Central Daylight Time),804155.8000000119,124_o_f_h_a.png,O,m,1399,9,1,2427.7000000178814,801728.099999994,7797,VNB,A,7
5,test,4,0.0,2-Back,1.0,m,Fri May 08 2026 15:37:39 GMT-0500 (Central Daylight Time),806072.5,165_m_m_h_a.png,O,m,888,10,1,1913.9000000059605,804158.599999994,7797,VNB,A,8
5,test,4,0.0,2-Back,0.0,m,Fri May 08 2026 15:37:39 GMT-0500 (Central Daylight Time),808353.599999994,071_y_f_d_a.png,O,z,1259,11,1,2277.5999999940395,806076.0,7797,VNB,A,9
5,test,4,0.0,2-Back,0.0,m,Fri May 08 2026 15:37:39 GMT-0500 (Central Daylight Time),811387.099999994,109_y_m_n_a.png,O,None,2015,12,1,3030.899999976158,808356.2000000179,7797,VNB,A,10
5,test,4,0.0,2-Back,0.0,z,Fri May 08 2026 15:37:39 GMT-0500 (Central Daylight Time),813518.8000000119,039_o_m_d_a.png,O,m,1105,13,1,2124.5999999940395,811394.2000000179,7797,VNB,A,11
6,test,4,1.0,2-Back,1.0,m,Fri May 08 2026 15:37:39 GMT-0500 (Central Daylight Time),815567.3000000119,139_m_f_h_a.png,O,m,1026,14,1,2045.2000000178814,813522.099999994,7797,VNB,A,12
7,test,4,1.0,2-Back,1.0,m,Fri May 08 2026 15:37:39 GMT-0500 (Central Daylight Time),817484.5,071_y_f_h_a.png,O,m,891,15,1,1915.199999988079,815569.3000000119,7797,VNB,A,13
8,test,4,0.0,2-Back,1.0,m,Fri May 08 2026 15:37:39 GMT-0500 (Central Daylight Time),820165.099999994,124_o_f_n_a.png,O,m,1652,16,1,2677.899999976158,817487.2000000179,7797,VNB,A,14
9,test,4,0.0,2-Back,1.0,m,Fri May 08 2026 15:37:39 GMT-0500 (Central Daylight Time),823133.099999994,109_y_m_d_a.png,O,m,1935,17,1,2966.199999988079,820166.900000006,7797,VNB,A,15
10,test,4,1.0,2-Back,1.0,m,Fri May 08 2026 15:37:39 GMT-0500 (Central Daylight Time),826149.099999994,165_m_m_d_a.png,O,m,1991,18,1,3012.5,823136.599999994,7797,VNB,A,16
0,test,5,1.0,2-Back,,,Fri May 08 2026 15:37:39 GMT-0500 (Central Daylight Time),826149.099999994,071_y_f_d_a.png,O,space,1967,1,1,3012.5,823136.599999994,7797,VNB,A,0
0,test,5,1.0,2-Back,,,Fri May 08 2026 15:37:39 GMT-0500 (Central Daylight Time),826149.099999994,124_o_f_h_a.png,O,space,1967,2,1,3012.5,823136.599999994,7797,VNB,A,0
1,test,5,1.0,2-Back,1.0,z,Fri May 08 2026 15:37:39 GMT-0500 (Central Daylight Time),835445.0,039_o_m_d_a.png,O,z,1204,3,1,2226.0999999940395,833218.900000006,7797,VNB,A,1
2,test,5,1.0,2-Back,1.0,m,Fri May 08 2026 15:37:39 GMT-0500 (Central Daylight Time),837597.5,139_m_f_n_a.png,O,m,1127,4,1,2150.0,835447.5,7797,VNB,A,2
2,test,5,0.0,2-Back,0.0,m,Fri May 08 2026 15:37:39 GMT-0500 (Central Daylight Time),840630.0,165_m_m_h_a.png,O,None,2018,5,1,3028.7999999821186,837601.2000000179,7797,VNB,A,3
2,test,5,0.0,2-Back,0.0,z,Fri May 08 2026 15:37:39 GMT-0500 (Central Daylight Time),843095.2000000179,071_y_f_n_a.png,O,m,1434,6,1,2458.9000000059605,840636.3000000119,7797,VNB,A,4
3,test,5,0.0,2-Back,1.0,m,Fri May 08 2026 15:37:39 GMT-0500 (Central Daylight Time),845608.2000000179,124_o_f_d_a.png,O,m,1484,7,1,2509.600000023842,843098.599999994,7797,VNB,A,5
4,test,5,0.0,2-Back,1.0,m,Fri May 08 2026 15:37:39 GMT-0500 (Central Daylight Time),847574.900000006,039_o_m_h_a.png,O,m,939,8,1,1964.0999999940395,845610.8000000119,7797,VNB,A,6
4,test,5,1.0,2-Back,0.0,z,Fri May 08 2026 15:37:39 GMT-0500 (Central Daylight Time),850557.3000000119,139_m_f_d_a.png,O,m,1962,9,1,2980.0999999940395,847577.2000000179,7797,VNB,A,7
5,test,5,0.0,2-Back,1.0,m,Fri May 08 2026 15:37:39 GMT-0500 (Central Daylight Time),852423.099999994,109_y_m_n_a.png,O,m,836,10,1,1863.2999999821186,850559.8000000119,7797,VNB,A,8
5,test,5,0.0,2-Back,0.0,m,Fri May 08 2026 15:37:39 GMT-0500 (Central Daylight Time),854605.2000000179,165_m_m_n_a.png,O,z,1162,11,1,2178.100000023842,852427.099999994,7797,VNB,A,9
5,test,5,0.0,2-Back,0.0,m,Fri May 08 2026 15:37:39 GMT-0500 (Central Daylight Time),857639.400000006,071_y_f_h_a.png,O,None,2016,12,1,3031.0999999940395,854608.3000000119,7797,VNB,A,10
6,test,5,0.0,2-Back,1.0,m,Fri May 08 2026 15:37:39 GMT-0500 (Central Daylight Time),860172.2000000179,109_y_m_d_a.png,O,m,1508,13,1,2525.9000000059605,857646.3000000119,7797,VNB,A,11
7,test,5,1.0,2-Back,1.0,z,Fri May 08 2026 15:37:39 GMT-0500 (Central Daylight Time),862154.599999994,139_m_f_h_a.png,O,z,958,14,1,1980.3999999761581,860174.2000000179,7797,VNB,A,12
8,test,5,0.0,2-Back,1.0,m,Fri May 08 2026 15:37:39 GMT-0500 (Central Daylight Time),864968.7000000179,039_o_m_n_a.png,O,m,1792,15,1,2811.5,862157.2000000179,7797,VNB,A,13
9,test,5,0.0,2-Back,1.0,m,Fri May 08 2026 15:37:39 GMT-0500 (Central Daylight Time),867367.900000006,165_m_m_d_a.png,O,m,1378,16,1,2396.5,864971.400000006,7797,VNB,A,14
10,test,5,0.0,2-Back,1.0,z,Fri May 08 2026 15:37:39 GMT-0500 (Central Daylight Time),869417.599999994,124_o_f_n_a.png,O,z,1026,17,1,2045.5,867372.099999994,7797,VNB,A,15
11,test,5,1.0,2-Back,1.0,m,Fri May 08 2026 15:37:39 GMT-0500 (Central Daylight Time),872084.8000000119,109_y_m_h_a.png,O,m,1635,18,1,2664.300000011921,869420.5,7797,VNB,A,16
