acc_sum,block,block_c,change,condition,correct,correct_response,datetime,endtime,face,project,response,response_time,row_sel,session_number,start_end,starttime,subject_id,task,task_vers,trial
0,prac,1,,1-Back,,,Tue Aug 05 2025 09:07:14 GMT-0500 (Central Daylight Time),,012_o_f_d_a.png,O,space,14037,1,1,,,7196,VNB,C,0
0,prac,1,0.0,1-Back,0.0,m,Tue Aug 05 2025 09:07:14 GMT-0500 (Central Daylight Time),157511.70000004768,022_y_f_n_a.png,O,z,1235,2,1,2105.2000000476837,155406.5,7196,VNB,C,1
0,prac,1,0.0,1-Back,0.0,m,Tue Aug 05 2025 09:07:14 GMT-0500 (Central Daylight Time),160393.40000009537,014_m_m_h_a.png,O,None,2005,3,1,2870.7000000476837,157522.70000004768,7196,VNB,C,2
0,prac,1,0.0,1-Back,0.0,m,Tue Aug 05 2025 09:07:14 GMT-0500 (Central Daylight Time),162609.70000004768,025_y_m_d_a.png,O,z,1336,4,1,2205.0999999046326,160404.60000014305,7196,VNB,C,3
0,prac,1,0.0,1-Back,0.0,m,Tue Aug 05 2025 09:07:14 GMT-0500 (Central Daylight Time),164825.79999995232,012_o_f_n_a.png,O,z,1311,5,1,2205.5999999046326,162620.20000004768,7196,VNB,C,4
0,prac,1,1.0,1-Back,0.0,z,Tue Aug 05 2025 09:07:14 GMT-0500 (Central Daylight Time),167457.20000004768,025_y_m_n_a.png,O,m,1749,6,1,2620.9000000953674,164836.29999995232,7196,VNB,C,5
1,prac,1,0.0,1-Back,1.0,m,Tue Aug 05 2025 09:07:14 GMT-0500 (Central Daylight Time),169474.60000014305,015_o_m_h_a.png,O,m,1141,7,1,2007.3000001907349,167467.29999995232,7196,VNB,C,6
1,prac,1,0.0,1-Back,0.0,m,Tue Aug 05 2025 09:07:14 GMT-0500 (Central Daylight Time),171956.5,019_m_f_d_a.png,O,z,1576,8,1,2469.2999999523163,169487.20000004768,7196,VNB,C,7
1,prac,1,1.0,1-Back,0.0,z,Tue Aug 05 2025 09:07:14 GMT-0500 (Central Daylight Time),174355.79999995232,022_y_f_d_a.png,O,m,1497,9,1,2388.699999809265,171967.10000014305,7196,VNB,C,8
1,prac,1,0.0,1-Back,0.0,m,Tue Aug 05 2025 09:07:14 GMT-0500 (Central Daylight Time),177238.70000004768,014_m_m_n_a.png,O,None,2013,10,1,2872.0999999046326,174366.60000014305,7196,VNB,C,9
2,prac,1,0.0,1-Back,1.0,m,Tue Aug 05 2025 09:07:14 GMT-0500 (Central Daylight Time),179388.60000014305,012_o_f_h_a.png,O,m,1252,11,1,2140.9000000953674,177247.70000004768,7196,VNB,C,10
2,prac,1,0.0,1-Back,0.0,m,Tue Aug 05 2025 09:07:14 GMT-0500 (Central Daylight Time),181736.79999995232,025_y_m_d_a.png,O,z,1479,12,1,2335.199999809265,179401.60000014305,7196,VNB,C,11
0,prac,2,0.0,1-Back,,,Tue Aug 05 2025 09:07:14 GMT-0500 (Central Daylight Time),181736.79999995232,012_o_f_d_a.png,O,a,4243,1,1,2335.199999809265,179401.60000014305,7196,VNB,C,0
0,prac,2,0.0,1-Back,0.0,m,Tue Aug 05 2025 09:07:14 GMT-0500 (Central Daylight Time),191216.40000009537,022_y_f_n_a.png,O,z,1283,2,1,2171.4000000953674,189045.0,7196,VNB,C,1
0,prac,2,0.0,1-Back,0.0,m,Tue Aug 05 2025 09:07:14 GMT-0500 (Central Daylight Time),193617.79999995232,014_m_m_h_a.png,O,z,1515,3,1,2391.2999999523163,191226.5,7196,VNB,C,2
1,prac,2,0.0,1-Back,1.0,m,Tue Aug 05 2025 09:07:14 GMT-0500 (Central Daylight Time),195731.5,025_y_m_d_a.png,O,m,1337,4,1,2106.7999999523163,193624.70000004768,7196,VNB,C,3
2,prac,2,0.0,1-Back,1.0,m,Tue Aug 05 2025 09:07:14 GMT-0500 (Central Daylight Time),197982.0,012_o_f_n_a.png,O,m,1350,5,1,2241.0,195741.0,7196,VNB,C,4
2,prac,2,1.0,1-Back,0.0,z,Tue Aug 05 2025 09:07:14 GMT-0500 (Central Daylight Time),200248.29999995232,025_y_m_n_a.png,O,m,1384,6,1,2256.7999999523163,197991.5,7196,VNB,C,5
3,prac,2,0.0,1-Back,1.0,m,Tue Aug 05 2025 09:07:14 GMT-0500 (Central Daylight Time),202581.79999995232,015_o_m_h_a.png,O,m,1452,7,1,2323.399999856949,200258.40000009537,7196,VNB,C,6
3,prac,2,0.0,1-Back,0.0,m,Tue Aug 05 2025 09:07:14 GMT-0500 (Central Daylight Time),204646.0,019_m_f_d_a.png,O,z,1160,8,1,2055.7999999523163,202590.20000004768,7196,VNB,C,7
3,prac,2,1.0,1-Back,0.0,z,Tue Aug 05 2025 09:07:14 GMT-0500 (Central Daylight Time),207545.60000014305,022_y_f_d_a.png,O,None,2009,9,1,2890.100000143051,204655.5,7196,VNB,C,8
3,prac,2,0.0,1-Back,0.0,m,Tue Aug 05 2025 09:07:14 GMT-0500 (Central Daylight Time),210426.90000009537,014_m_m_n_a.png,O,None,2010,10,1,2870.4000000953674,207556.5,7196,VNB,C,9
3,prac,2,0.0,1-Back,0.0,m,Tue Aug 05 2025 09:07:14 GMT-0500 (Central Daylight Time),213326.20000004768,012_o_f_h_a.png,O,None,2016,11,1,2890.2000000476837,210436.0,7196,VNB,C,10
4,prac,2,0.0,1-Back,1.0,m,Tue Aug 05 2025 09:07:14 GMT-0500 (Central Daylight Time),215677.10000014305,025_y_m_d_a.png,O,m,1473,12,1,2342.100000143051,213335.0,7196,VNB,C,11
0,test,1,0.0,1-Back,,,Tue Aug 05 2025 09:07:14 GMT-0500 (Central Daylight Time),215677.10000014305,022_y_f_d_a.png,O,space,25421,1,1,2342.100000143051,213335.0,7196,VNB,C,0
1,test,1,0.0,1-Back,1.0,m,Tue Aug 05 2025 09:07:14 GMT-0500 (Central Daylight Time),252131.40000009537,019_m_f_n_a.png,O,m,1383,2,1,2386.5,249744.90000009537,7196,VNB,C,1
2,test,1,0.0,1-Back,1.0,m,Tue Aug 05 2025 09:07:14 GMT-0500 (Central Daylight Time),255146.70000004768,015_o_m_h_a.png,O,m,1983,3,1,3007.5,252139.20000004768,7196,VNB,C,2
3,test,1,1.0,1-Back,1.0,z,Tue Aug 05 2025 09:07:14 GMT-0500 (Central Daylight Time),257445.40000009537,014_m_m_h_a.png,O,z,1279,4,1,2291.0,255154.40000009537,7196,VNB,C,3
4,test,1,0.0,1-Back,1.0,m,Tue Aug 05 2025 09:07:14 GMT-0500 (Central Daylight Time),259695.20000004768,012_o_f_n_a.png,O,m,1221,5,1,2242.0,257453.20000004768,7196,VNB,C,4
4,test,1,0.0,1-Back,0.0,m,Tue Aug 05 2025 09:07:14 GMT-0500 (Central Daylight Time),262246.10000014305,025_y_m_d_a.png,O,z,1535,6,1,2542.800000190735,259703.29999995232,7196,VNB,C,5
5,test,1,1.0,1-Back,1.0,z,Tue Aug 05 2025 09:07:14 GMT-0500 (Central Daylight Time),264661.40000009537,019_m_f_d_a.png,O,z,1400,7,1,2407.600000143051,262253.7999999523,7196,VNB,C,6
6,test,1,0.0,1-Back,1.0,m,Tue Aug 05 2025 09:07:14 GMT-0500 (Central Daylight Time),266609.10000014305,022_y_f_h_a.png,O,m,926,8,1,1939.4000000953674,264669.7000000477,7196,VNB,C,7
7,test,1,0.0,1-Back,1.0,m,Tue Aug 05 2025 09:07:14 GMT-0500 (Central Daylight Time),269625.2999999523,015_o_m_n_a.png,O,m,1993,9,1,3008.0999999046326,266617.2000000477,7196,VNB,C,8
7,test,1,0.0,1-Back,0.0,m,Tue Aug 05 2025 09:07:14 GMT-0500 (Central Daylight Time),272023.5,025_y_m_h_a.png,O,z,1369,10,1,2391.2999999523163,269632.2000000477,7196,VNB,C,9
7,test,1,0.0,1-Back,0.0,m,Tue Aug 05 2025 09:07:14 GMT-0500 (Central Daylight Time),275057.2000000477,015_o_m_d_a.png,O,None,2016,11,1,3025.7000000476837,272031.5,7196,VNB,C,10
8,test,1,1.0,1-Back,1.0,z,Tue Aug 05 2025 09:07:14 GMT-0500 (Central Daylight Time),277721.2999999523,012_o_f_d_a.png,O,z,1641,12,1,2654.0999999046326,275067.2000000477,7196,VNB,C,11
8,test,1,0.0,1-Back,0.0,m,Tue Aug 05 2025 09:07:14 GMT-0500 (Central Daylight Time),279688.10000014305,014_m_m_n_a.png,O,z,940,13,1,1964.0,277724.10000014305,7196,VNB,C,12
9,test,1,1.0,1-Back,1.0,z,Tue Aug 05 2025 09:07:14 GMT-0500 (Central Daylight Time),281487.7000000477,022_y_f_n_a.png,O,z,777,14,1,1791.2999999523163,279696.40000009537,7196,VNB,C,13
10,test,1,0.0,1-Back,1.0,m,Tue Aug 05 2025 09:07:14 GMT-0500 (Central Daylight Time),283453.90000009537,019_m_f_h_a.png,O,m,937,15,1,1958.6000001430511,281495.2999999523,7196,VNB,C,14
10,test,1,0.0,1-Back,0.0,m,Tue Aug 05 2025 09:07:14 GMT-0500 (Central Daylight Time),285669.7999999523,014_m_m_d_a.png,O,z,1187,16,1,2208.0,283461.7999999523,7196,VNB,C,15
11,test,1,0.0,1-Back,1.0,m,Tue Aug 05 2025 09:07:14 GMT-0500 (Central Daylight Time),288251.7000000477,025_y_m_n_a.png,O,m,1554,17,1,2573.7999999523163,285677.90000009537,7196,VNB,C,16
11,test,1,0.0,1-Back,0.0,m,Tue Aug 05 2025 09:07:14 GMT-0500 (Central Daylight Time),291286.10000014305,012_o_f_h_a.png,O,None,2017,18,1,3026.600000143051,288259.5,7196,VNB,C,17
0,test,2,0.0,1-Back,,,Tue Aug 05 2025 09:07:14 GMT-0500 (Central Daylight Time),291286.10000014305,025_y_m_n_a.png,O,space,5515,1,1,3026.600000143051,288259.5,7196,VNB,C,0
1,test,2,0.0,1-Back,1.0,m,Tue Aug 05 2025 09:07:14 GMT-0500 (Central Daylight Time),301148.40000009537,022_y_f_h_a.png,O,m,1297,2,1,2307.100000143051,298841.2999999523,7196,VNB,C,1
1,test,2,1.0,1-Back,0.0,m,Tue Aug 05 2025 09:07:14 GMT-0500 (Central Daylight Time),304180.5,015_o_m_n_a.png,O,None,2016,3,1,3025.7999999523163,301154.7000000477,7196,VNB,C,2
1,test,2,0.0,1-Back,0.0,m,Tue Aug 05 2025 09:07:14 GMT-0500 (Central Daylight Time),306614.60000014305,019_m_f_d_a.png,O,z,1406,4,1,2426.100000143051,304188.5,7196,VNB,C,3
2,test,2,0.0,1-Back,1.0,z,Tue Aug 05 2025 09:07:14 GMT-0500 (Central Daylight Time),308730.10000014305,014_m_m_d_a.png,O,z,1090,5,1,2105.9000000953674,306624.2000000477,7196,VNB,C,4
3,test,2,0.0,1-Back,1.0,m,Tue Aug 05 2025 09:07:14 GMT-0500 (Central Daylight Time),310596.5,025_y_m_h_a.png,O,m,849,6,1,1858.0,308738.5,7196,VNB,C,5
4,test,2,1.0,1-Back,1.0,z,Tue Aug 05 2025 09:07:14 GMT-0500 (Central Daylight Time),313195.90000009537,012_o_f_h_a.png,O,z,1583,7,1,2591.9000000953674,310604.0,7196,VNB,C,6
5,test,2,0.0,1-Back,1.0,m,Tue Aug 05 2025 09:07:14 GMT-0500 (Central Daylight Time),315326.7000000477,019_m_f_n_a.png,O,m,1103,8,1,2121.0999999046326,313205.60000014305,7196,VNB,C,7
5,test,2,0.0,1-Back,0.0,m,Tue Aug 05 2025 09:07:14 GMT-0500 (Central Daylight Time),317711.0,022_y_f_d_a.png,O,z,1354,9,1,2376.7999999523163,315334.2000000477,7196,VNB,C,8
5,test,2,0.0,1-Back,0.0,m,Tue Aug 05 2025 09:07:14 GMT-0500 (Central Daylight Time),320727.40000009537,014_m_m_n_a.png,O,None,2001,10,1,3007.7999999523163,317719.60000014305,7196,VNB,C,9
6,test,2,1.0,1-Back,1.0,m,Tue Aug 05 2025 09:07:14 GMT-0500 (Central Daylight Time),322991.40000009537,019_m_f_h_a.png,O,m,1234,11,1,2256.600000143051,320734.7999999523,7196,VNB,C,10
7,test,2,0.0,1-Back,1.0,z,Tue Aug 05 2025 09:07:14 GMT-0500 (Central Daylight Time),325424.10000014305,015_o_m_h_a.png,O,z,1410,12,1,2422.800000190735,323001.2999999523,7196,VNB,C,11
8,test,2,0.0,1-Back,1.0,m,Tue Aug 05 2025 09:07:14 GMT-0500 (Central Daylight Time),327672.2000000477,025_y_m_d_a.png,O,m,1227,13,1,2241.2000000476837,325431.0,7196,VNB,C,12
8,test,2,0.0,1-Back,0.0,m,Tue Aug 05 2025 09:07:14 GMT-0500 (Central Daylight Time),329872.60000014305,012_o_f_n_a.png,O,z,1175,14,1,2190.0,327682.60000014305,7196,VNB,C,13
9,test,2,0.0,1-Back,1.0,z,Tue Aug 05 2025 09:07:14 GMT-0500 (Central Daylight Time),332521.7000000477,022_y_f_n_a.png,O,z,1627,15,1,2640.5999999046326,329881.10000014305,7196,VNB,C,14
10,test,2,1.0,1-Back,1.0,m,Tue Aug 05 2025 09:07:14 GMT-0500 (Central Daylight Time),334437.60000014305,014_m_m_h_a.png,O,m,888,16,1,1907.5,332530.10000014305,7196,VNB,C,15
10,test,2,0.0,1-Back,0.0,m,Tue Aug 05 2025 09:07:14 GMT-0500 (Central Daylight Time),336554.7999999523,012_o_f_d_a.png,O,z,1101,17,1,2109.0999999046326,334445.7000000477,7196,VNB,C,16
10,test,2,1.0,1-Back,0.0,z,Tue Aug 05 2025 09:07:14 GMT-0500 (Central Daylight Time),339587.2999999523,015_o_m_d_a.png,O,None,2017,18,1,3026.899999856949,336560.40000009537,7196,VNB,C,17
0,test,3,1.0,1-Back,,,Tue Aug 05 2025 09:07:14 GMT-0500 (Central Daylight Time),339587.2999999523,012_o_f_h_a.png,O,space,13911,1,1,3026.899999856949,336560.40000009537,7196,VNB,C,0
1,test,3,0.0,1-Back,1.0,m,Tue Aug 05 2025 09:07:14 GMT-0500 (Central Daylight Time),357964.0,019_m_f_d_a.png,O,m,1305,2,1,2322.2999999523163,355641.7000000477,7196,VNB,C,1
1,test,3,1.0,1-Back,0.0,m,Tue Aug 05 2025 09:07:14 GMT-0500 (Central Daylight Time),360895.7000000477,014_m_m_n_a.png,O,z,1901,3,1,2924.0,357971.7000000477,7196,VNB,C,2
2,test,3,0.0,1-Back,1.0,z,Tue Aug 05 2025 09:07:14 GMT-0500 (Central Daylight Time),362763.0,012_o_f_n_a.png,O,z,833,4,1,1860.0999999046326,360902.90000009537,7196,VNB,C,3
2,test,3,1.0,1-Back,0.0,m,Tue Aug 05 2025 09:07:14 GMT-0500 (Central Daylight Time),364579.90000009537,015_o_m_d_a.png,O,z,800,5,1,1810.0,362769.90000009537,7196,VNB,C,4
3,test,3,0.0,1-Back,1.0,m,Tue Aug 05 2025 09:07:14 GMT-0500 (Central Daylight Time),366277.7999999523,022_y_f_h_a.png,O,m,674,6,1,1687.6999998092651,364590.10000014305,7196,VNB,C,5
4,test,3,0.0,1-Back,1.0,z,Tue Aug 05 2025 09:07:14 GMT-0500 (Central Daylight Time),368676.5,025_y_m_h_a.png,O,z,1380,7,1,2390.7999999523163,366285.7000000477,7196,VNB,C,6
5,test,3,0.0,1-Back,1.0,m,Tue Aug 05 2025 09:07:14 GMT-0500 (Central Daylight Time),370743.10000014305,019_m_f_n_a.png,O,m,1037,8,1,2057.100000143051,368686.0,7196,VNB,C,7
5,test,3,0.0,1-Back,0.0,m,Tue Aug 05 2025 09:07:14 GMT-0500 (Central Daylight Time),373109.5,022_y_f_d_a.png,O,z,1338,9,1,2359.5999999046326,370749.90000009537,7196,VNB,C,8
5,test,3,1.0,1-Back,0.0,m,Tue Aug 05 2025 09:07:14 GMT-0500 (Central Daylight Time),375640.90000009537,015_o_m_n_a.png,O,z,1510,10,1,2523.7999999523163,373117.10000014305,7196,VNB,C,9
6,test,3,0.0,1-Back,1.0,m,Tue Aug 05 2025 09:07:14 GMT-0500 (Central Daylight Time),377475.5,014_m_m_h_a.png,O,m,809,11,1,1825.5,375650.0,7196,VNB,C,10
7,test,3,0.0,1-Back,1.0,z,Tue Aug 05 2025 09:07:14 GMT-0500 (Central Daylight Time),379839.10000014305,019_m_f_h_a.png,O,z,1343,12,1,2355.300000190735,377483.7999999523,7196,VNB,C,11
8,test,3,1.0,1-Back,1.0,m,Tue Aug 05 2025 09:07:14 GMT-0500 (Central Daylight Time),381942.40000009537,012_o_f_d_a.png,O,m,1085,13,1,2094.9000000953674,379847.5,7196,VNB,C,12
9,test,3,0.0,1-Back,1.0,z,Tue Aug 05 2025 09:07:14 GMT-0500 (Central Daylight Time),384106.2000000477,014_m_m_d_a.png,O,z,1151,14,1,2159.5999999046326,381946.60000014305,7196,VNB,C,13
9,test,3,0.0,1-Back,0.0,m,Tue Aug 05 2025 09:07:14 GMT-0500 (Central Daylight Time),386151.7999999523,025_y_m_n_a.png,O,z,1025,15,1,2038.8999998569489,384112.90000009537,7196,VNB,C,14
10,test,3,1.0,1-Back,1.0,m,Tue Aug 05 2025 09:07:14 GMT-0500 (Central Daylight Time),388004.90000009537,015_o_m_h_a.png,O,m,833,16,1,1849.7000000476837,386155.2000000477,7196,VNB,C,15
10,test,3,0.0,1-Back,0.0,m,Tue Aug 05 2025 09:07:14 GMT-0500 (Central Daylight Time),390453.90000009537,025_y_m_d_a.png,O,z,1432,17,1,2443.7999999523163,388010.10000014305,7196,VNB,C,16
10,test,3,1.0,1-Back,0.0,m,Tue Aug 05 2025 09:07:14 GMT-0500 (Central Daylight Time),392719.40000009537,022_y_f_n_a.png,O,z,1243,18,1,2257.600000143051,390461.7999999523,7196,VNB,C,17
0,test,4,1.0,1-Back,,,Tue Aug 05 2025 09:07:14 GMT-0500 (Central Daylight Time),392719.40000009537,014_m_m_d_a.png,O,space,2300,1,1,2257.600000143051,390461.7999999523,7196,VNB,C,0
1,test,4,0.0,1-Back,1.0,z,Tue Aug 05 2025 09:07:14 GMT-0500 (Central Daylight Time),399516.5,015_o_m_d_a.png,O,z,1454,2,1,2472.2000000476837,397044.2999999523,7196,VNB,C,1
2,test,4,0.0,1-Back,1.0,m,Tue Aug 05 2025 09:07:14 GMT-0500 (Central Daylight Time),401466.2000000477,025_y_m_h_a.png,O,m,924,3,1,1942.0,399524.2000000477,7196,VNB,C,2
2,test,4,0.0,1-Back,0.0,m,Tue Aug 05 2025 09:07:14 GMT-0500 (Central Daylight Time),403431.10000014305,019_m_f_n_a.png,O,z,942,4,1,1956.1000001430511,401475.0,7196,VNB,C,3
2,test,4,1.0,1-Back,0.0,m,Tue Aug 05 2025 09:07:14 GMT-0500 (Central Daylight Time),406465.60000014305,012_o_f_h_a.png,O,None,2016,5,1,3027.800000190735,403437.7999999523,7196,VNB,C,4
2,test,4,0.0,1-Back,0.0,m,Tue Aug 05 2025 09:07:14 GMT-0500 (Central Daylight Time),408596.5,014_m_m_n_a.png,O,z,1105,6,1,2124.2999999523163,406472.2000000477,7196,VNB,C,5
2,test,4,0.0,1-Back,0.0,m,Tue Aug 05 2025 09:07:14 GMT-0500 (Central Daylight Time),411631.10000014305,025_y_m_d_a.png,O,None,2016,7,1,3026.4000000953674,408604.7000000477,7196,VNB,C,6
3,test,4,1.0,1-Back,1.0,z,Tue Aug 05 2025 09:07:14 GMT-0500 (Central Daylight Time),413912.90000009537,022_y_f_d_a.png,O,z,1252,8,1,2274.600000143051,411638.2999999523,7196,VNB,C,7
4,test,4,0.0,1-Back,1.0,m,Tue Aug 05 2025 09:07:14 GMT-0500 (Central Daylight Time),415762.10000014305,019_m_f_h_a.png,O,m,825,9,1,1842.7000000476837,413919.40000009537,7196,VNB,C,8
4,test,4,0.0,1-Back,0.0,z,Tue Aug 05 2025 09:07:14 GMT-0500 (Central Daylight Time),417712.0,015_o_m_h_a.png,O,m,929,10,1,1941.3999998569489,415770.60000014305,7196,VNB,C,9
4,test,4,1.0,1-Back,0.0,m,Tue Aug 05 2025 09:07:14 GMT-0500 (Central Daylight Time),419860.7999999523,012_o_f_n_a.png,O,z,1123,11,1,2142.5999999046326,417718.2000000477,7196,VNB,C,10
4,test,4,0.0,1-Back,0.0,m,Tue Aug 05 2025 09:07:14 GMT-0500 (Central Daylight Time),422892.7000000477,019_m_f_d_a.png,O,None,2016,12,1,3022.4000000953674,419870.2999999523,7196,VNB,C,11
4,test,4,0.0,1-Back,0.0,m,Tue Aug 05 2025 09:07:14 GMT-0500 (Central Daylight Time),425042.60000014305,022_y_f_n_a.png,O,z,1116,13,1,2141.100000143051,422901.5,7196,VNB,C,12
4,test,4,0.0,1-Back,0.0,m,Tue Aug 05 2025 09:07:14 GMT-0500 (Central Daylight Time),427307.10000014305,012_o_f_d_a.png,O,z,1239,14,1,2256.0,425051.10000014305,7196,VNB,C,13
5,test,4,0.0,1-Back,1.0,m,Tue Aug 05 2025 09:07:14 GMT-0500 (Central Daylight Time),429242.5,022_y_f_h_a.png,O,m,918,15,1,1926.3999998569489,427316.10000014305,7196,VNB,C,14
6,test,4,1.0,1-Back,1.0,z,Tue Aug 05 2025 09:07:14 GMT-0500 (Central Daylight Time),431540.5,014_m_m_h_a.png,O,z,1267,16,1,2295.0,429245.5,7196,VNB,C,15
7,test,4,0.0,1-Back,1.0,m,Tue Aug 05 2025 09:07:14 GMT-0500 (Central Daylight Time),433924.5,015_o_m_n_a.png,O,m,1367,17,1,2379.7999999523163,431544.7000000477,7196,VNB,C,16
8,test,4,1.0,1-Back,1.0,z,Tue Aug 05 2025 09:07:14 GMT-0500 (Central Daylight Time),436021.2000000477,025_y_m_n_a.png,O,z,1070,18,1,2089.4000000953674,433931.7999999523,7196,VNB,C,17
0,test,5,1.0,1-Back,,,Tue Aug 05 2025 09:07:14 GMT-0500 (Central Daylight Time),436021.2000000477,015_o_m_n_a.png,O,space,2140,1,1,2089.4000000953674,433931.7999999523,7196,VNB,C,0
1,test,5,1.0,1-Back,1.0,m,Tue Aug 05 2025 09:07:14 GMT-0500 (Central Daylight Time),442587.2999999523,012_o_f_h_a.png,O,m,1373,2,1,2390.199999809265,440197.10000014305,7196,VNB,C,1
1,test,5,0.0,1-Back,0.0,m,Tue Aug 05 2025 09:07:14 GMT-0500 (Central Daylight Time),444452.40000009537,025_y_m_d_a.png,O,z,837,3,1,1855.9000000953674,442596.5,7196,VNB,C,2
1,test,5,0.0,1-Back,0.0,z,Tue Aug 05 2025 09:07:14 GMT-0500 (Central Daylight Time),447468.40000009537,015_o_m_d_a.png,O,None,2001,4,1,3010.600000143051,444457.7999999523,7196,VNB,C,3
1,test,5,0.0,1-Back,0.0,m,Tue Aug 05 2025 09:07:14 GMT-0500 (Central Daylight Time),450499.7000000477,019_m_f_h_a.png,O,None,2016,5,1,3021.0999999046326,447478.60000014305,7196,VNB,C,4
2,test,5,0.0,1-Back,1.0,m,Tue Aug 05 2025 09:07:14 GMT-0500 (Central Daylight Time),452734.0,022_y_f_n_a.png,O,m,1214,6,1,2227.5999999046326,450506.40000009537,7196,VNB,C,5
3,test,5,1.0,1-Back,1.0,z,Tue Aug 05 2025 09:07:14 GMT-0500 (Central Daylight Time),455382.2999999523,012_o_f_n_a.png,O,z,1620,7,1,2644.7999999523163,452737.5,7196,VNB,C,6
3,test,5,0.0,1-Back,0.0,m,Tue Aug 05 2025 09:07:14 GMT-0500 (Central Daylight Time),457381.10000014305,019_m_f_d_a.png,O,z,982,8,1,1991.0,455390.10000014305,7196,VNB,C,7
4,test,5,0.0,1-Back,1.0,m,Tue Aug 05 2025 09:07:14 GMT-0500 (Central Daylight Time),459332.7000000477,025_y_m_h_a.png,O,m,933,9,1,1943.5,457389.2000000477,7196,VNB,C,8
4,test,5,0.0,1-Back,0.0,m,Tue Aug 05 2025 09:07:14 GMT-0500 (Central Daylight Time),461414.10000014305,022_y_f_d_a.png,O,z,1049,10,1,2071.4000000953674,459342.7000000477,7196,VNB,C,9
4,test,5,0.0,1-Back,0.0,m,Tue Aug 05 2025 09:07:14 GMT-0500 (Central Daylight Time),463662.7000000477,014_m_m_n_a.png,O,z,1227,11,1,2239.9000000953674,461422.7999999523,7196,VNB,C,10
5,test,5,1.0,1-Back,1.0,z,Tue Aug 05 2025 09:07:14 GMT-0500 (Central Daylight Time),465695.2000000477,019_m_f_n_a.png,O,z,1011,12,1,2025.2000000476837,463670.0,7196,VNB,C,11
6,test,5,0.0,1-Back,1.0,m,Tue Aug 05 2025 09:07:14 GMT-0500 (Central Daylight Time),467529.2000000477,015_o_m_h_a.png,O,m,811,13,1,1826.5,465702.7000000477,7196,VNB,C,12
7,test,5,0.0,1-Back,1.0,z,Tue Aug 05 2025 09:07:14 GMT-0500 (Central Daylight Time),469812.40000009537,014_m_m_h_a.png,O,z,1267,14,1,2273.9000000953674,467538.5,7196,VNB,C,13
8,test,5,1.0,1-Back,1.0,m,Tue Aug 05 2025 09:07:14 GMT-0500 (Central Daylight Time),472359.0,012_o_f_d_a.png,O,m,1519,15,1,2539.5999999046326,469819.40000009537,7196,VNB,C,14
8,test,5,0.0,1-Back,0.0,m,Tue Aug 05 2025 09:07:14 GMT-0500 (Central Daylight Time),475393.2000000477,025_y_m_n_a.png,O,None,2015,16,1,3026.0999999046326,472367.10000014305,7196,VNB,C,15
8,test,5,0.0,1-Back,0.0,m,Tue Aug 05 2025 09:07:14 GMT-0500 (Central Daylight Time),477625.2000000477,022_y_f_h_a.png,O,z,1208,17,1,2224.7000000476837,475400.5,7196,VNB,C,16
8,test,5,0.0,1-Back,0.0,m,Tue Aug 05 2025 09:07:14 GMT-0500 (Central Daylight Time),479740.0,014_m_m_d_a.png,O,z,1097,18,1,2107.2999999523163,477632.7000000477,7196,VNB,C,17
0,prac,1,0.0,2-Back,,,Tue Aug 05 2025 09:07:14 GMT-0500 (Central Daylight Time),479740.0,019_m_f_n_a.png,O,space,11820,1,1,2107.2999999523163,477632.7000000477,7196,VNB,C,0
0,prac,1,0.0,2-Back,,,Tue Aug 05 2025 09:07:14 GMT-0500 (Central Daylight Time),479740.0,012_o_f_h_a.png,O,space,11820,2,1,2107.2999999523163,477632.7000000477,7196,VNB,C,0
0,prac,1,0.0,2-Back,0.0,m,Tue Aug 05 2025 09:07:14 GMT-0500 (Central Daylight Time),641773.2999999523,015_o_m_d_a.png,O,z,1108,3,1,1996.5,639776.7999999523,7196,VNB,C,1
0,prac,1,1.0,2-Back,0.0,z,Tue Aug 05 2025 09:07:14 GMT-0500 (Central Daylight Time),644654.9000000954,014_m_m_h_a.png,O,None,2010,4,1,2870.7000000476837,641784.2000000477,7196,VNB,C,2
0,prac,1,0.0,2-Back,0.0,m,Tue Aug 05 2025 09:07:14 GMT-0500 (Central Daylight Time),647155.5,022_y_f_n_a.png,O,z,1613,5,1,2492.2999999523163,644663.2000000477,7196,VNB,C,3
0,prac,1,1.0,2-Back,0.0,z,Tue Aug 05 2025 09:07:14 GMT-0500 (Central Daylight Time),649654.7999999523,015_o_m_h_a.png,O,m,1602,6,1,2490.7999999523163,647164.0,7196,VNB,C,4
1,prac,1,1.0,2-Back,1.0,z,Tue Aug 05 2025 09:07:14 GMT-0500 (Central Daylight Time),652253.7999999523,025_y_m_n_a.png,O,z,1725,7,1,2587.2999999523163,649666.5,7196,VNB,C,5
1,prac,1,0.0,2-Back,0.0,m,Tue Aug 05 2025 09:07:14 GMT-0500 (Central Daylight Time),654553.600000143,019_m_f_d_a.png,O,z,1398,8,1,2287.800000190735,652265.7999999523,7196,VNB,C,6
1,prac,1,0.0,2-Back,0.0,m,Tue Aug 05 2025 09:07:14 GMT-0500 (Central Daylight Time),656500.5,012_o_f_d_a.png,O,z,1050,9,1,1937.5999999046326,654562.9000000954,7196,VNB,C,7
1,prac,1,0.0,2-Back,0.0,m,Tue Aug 05 2025 09:07:14 GMT-0500 (Central Daylight Time),659283.9000000954,014_m_m_h_a.png,O,None,2005,10,1,2771.4000000953674,656512.5,7196,VNB,C,8
2,prac,1,1.0,2-Back,1.0,z,Tue Aug 05 2025 09:07:14 GMT-0500 (Central Daylight Time),661550.7999999523,022_y_f_d_a.png,O,z,1363,11,1,2258.0,659292.7999999523,7196,VNB,C,9
2,prac,1,0.0,2-Back,0.0,m,Tue Aug 05 2025 09:07:14 GMT-0500 (Central Daylight Time),663615.7000000477,015_o_m_n_a.png,O,z,1175,12,1,2054.7999999523163,661560.9000000954,7196,VNB,C,10
0,prac,2,0.0,2-Back,,,Tue Aug 05 2025 09:07:14 GMT-0500 (Central Daylight Time),663615.7000000477,019_m_f_n_a.png,O,a,4144,1,1,2054.7999999523163,661560.9000000954,7196,VNB,C,0
0,prac,2,0.0,2-Back,,,Tue Aug 05 2025 09:07:14 GMT-0500 (Central Daylight Time),663615.7000000477,012_o_f_h_a.png,O,a,4144,2,1,2054.7999999523163,661560.9000000954,7196,VNB,C,0
0,prac,2,0.0,2-Back,0.0,m,Tue Aug 05 2025 09:07:14 GMT-0500 (Central Daylight Time),675078.7000000477,015_o_m_d_a.png,O,z,1127,3,1,2022.7999999523163,673055.9000000954,7196,VNB,C,1
1,prac,2,1.0,2-Back,1.0,z,Tue Aug 05 2025 09:07:14 GMT-0500 (Central Daylight Time),677744.7000000477,014_m_m_h_a.png,O,z,1891,4,1,2656.5999999046326,675088.100000143,7196,VNB,C,2
1,prac,2,0.0,2-Back,0.0,m,Tue Aug 05 2025 09:07:14 GMT-0500 (Central Daylight Time),680211.0,022_y_f_n_a.png,O,z,1566,5,1,2456.0999999046326,677754.9000000954,7196,VNB,C,3
2,prac,2,1.0,2-Back,1.0,z,Tue Aug 05 2025 09:07:14 GMT-0500 (Central Daylight Time),682244.7999999523,015_o_m_h_a.png,O,z,1146,6,1,2023.5999999046326,680221.2000000477,7196,VNB,C,4
2,prac,2,1.0,2-Back,0.0,z,Tue Aug 05 2025 09:07:14 GMT-0500 (Central Daylight Time),684510.2999999523,025_y_m_n_a.png,O,m,1392,7,1,2253.2999999523163,682257.0,7196,VNB,C,5
2,prac,2,0.0,2-Back,0.0,m,Tue Aug 05 2025 09:07:14 GMT-0500 (Central Daylight Time),687141.4000000954,019_m_f_d_a.png,O,z,1735,8,1,2621.2999999523163,684520.100000143,7196,VNB,C,6
2,prac,2,0.0,2-Back,0.0,m,Tue Aug 05 2025 09:07:14 GMT-0500 (Central Daylight Time),689408.4000000954,012_o_f_d_a.png,O,z,1366,9,1,2257.4000000953674,687151.0,7196,VNB,C,7
2,prac,2,0.0,2-Back,0.0,m,Tue Aug 05 2025 09:07:14 GMT-0500 (Central Daylight Time),691840.4000000954,014_m_m_h_a.png,O,z,1648,10,1,2422.5,689417.9000000954,7196,VNB,C,8
3,prac,2,1.0,2-Back,1.0,z,Tue Aug 05 2025 09:07:14 GMT-0500 (Central Daylight Time),693991.4000000954,022_y_f_d_a.png,O,z,1260,11,1,2142.100000143051,691849.2999999523,7196,VNB,C,9
3,prac,2,0.0,2-Back,0.0,m,Tue Aug 05 2025 09:07:14 GMT-0500 (Central Daylight Time),696171.5,015_o_m_n_a.png,O,z,1272,12,1,2169.5999999046326,694001.9000000954,7196,VNB,C,10
0,test,1,0.0,2-Back,,,Tue Aug 05 2025 09:07:14 GMT-0500 (Central Daylight Time),696171.5,025_y_m_h_a.png,O,space,12320,1,1,2169.5999999046326,694001.9000000954,7196,VNB,C,0
0,test,1,0.0,2-Back,,,Tue Aug 05 2025 09:07:14 GMT-0500 (Central Daylight Time),696171.5,012_o_f_n_a.png,O,space,12320,2,1,2169.5999999046326,694001.9000000954,7196,VNB,C,0
1,test,1,0.0,2-Back,1.0,z,Tue Aug 05 2025 09:07:14 GMT-0500 (Central Daylight Time),721082.100000143,015_o_m_h_a.png,O,z,884,3,1,1898.3000001907349,719183.7999999523,7196,VNB,C,1
2,test,1,0.0,2-Back,1.0,m,Tue Aug 05 2025 09:07:14 GMT-0500 (Central Daylight Time),723162.7999999523,019_m_f_d_a.png,O,m,1064,4,1,2073.0,721089.7999999523,7196,VNB,C,2
2,test,1,1.0,2-Back,0.0,m,Tue Aug 05 2025 09:07:14 GMT-0500 (Central Daylight Time),725461.5,025_y_m_n_a.png,O,z,1270,5,1,2292.7999999523163,723168.7000000477,7196,VNB,C,3
3,test,1,0.0,2-Back,1.0,z,Tue Aug 05 2025 09:07:14 GMT-0500 (Central Daylight Time),727711.7999999523,022_y_f_d_a.png,O,z,1219,6,1,2247.899999856949,725463.9000000954,7196,VNB,C,4
3,test,1,0.0,2-Back,0.0,m,Tue Aug 05 2025 09:07:14 GMT-0500 (Central Daylight Time),730245.2999999523,014_m_m_h_a.png,O,z,1507,7,1,2524.5,727720.7999999523,7196,VNB,C,5
3,test,1,1.0,2-Back,0.0,m,Tue Aug 05 2025 09:07:14 GMT-0500 (Central Daylight Time),733277.9000000954,022_y_f_n_a.png,O,None,2017,8,1,3025.5,730252.4000000954,7196,VNB,C,6
3,test,1,0.0,2-Back,0.0,z,Tue Aug 05 2025 09:07:14 GMT-0500 (Central Daylight Time),735975.5,012_o_f_h_a.png,O,m,1667,9,1,2690.0999999046326,733285.4000000954,7196,VNB,C,7
3,test,1,0.0,2-Back,0.0,m,Tue Aug 05 2025 09:07:14 GMT-0500 (Central Daylight Time),738391.9000000954,015_o_m_d_a.png,O,z,1394,10,1,2409.9000000953674,735982.0,7196,VNB,C,8
3,test,1,1.0,2-Back,0.0,m,Tue Aug 05 2025 09:07:14 GMT-0500 (Central Daylight Time),740324.600000143,014_m_m_d_a.png,O,z,913,11,1,1926.0,738398.600000143,7196,VNB,C,9
3,test,1,0.0,2-Back,0.0,m,Tue Aug 05 2025 09:07:14 GMT-0500 (Central Daylight Time),742322.5,019_m_f_n_a.png,O,z,983,12,1,1988.2999999523163,740334.2000000477,7196,VNB,C,10
3,test,1,0.0,2-Back,0.0,m,Tue Aug 05 2025 09:07:14 GMT-0500 (Central Daylight Time),744940.4000000954,022_y_f_h_a.png,O,z,1592,13,1,2614.100000143051,742326.2999999523,7196,VNB,C,11
4,test,1,0.0,2-Back,1.0,z,Tue Aug 05 2025 09:07:14 GMT-0500 (Central Daylight Time),747222.4000000954,014_m_m_n_a.png,O,z,1260,14,1,2273.600000143051,744948.7999999523,7196,VNB,C,12
4,test,1,0.0,2-Back,0.0,m,Tue Aug 05 2025 09:07:14 GMT-0500 (Central Daylight Time),749405.2000000477,025_y_m_d_a.png,O,z,1162,15,1,2174.7000000476837,747230.5,7196,VNB,C,13
5,test,1,1.0,2-Back,1.0,m,Tue Aug 05 2025 09:07:14 GMT-0500 (Central Daylight Time),752387.5,019_m_f_h_a.png,O,m,1956,16,1,2977.2000000476837,749410.2999999523,7196,VNB,C,14
6,test,1,0.0,2-Back,1.0,z,Tue Aug 05 2025 09:07:14 GMT-0500 (Central Daylight Time),755235.7999999523,012_o_f_d_a.png,O,z,1828,17,1,2841.899999856949,752393.9000000954,7196,VNB,C,15
6,test,1,0.0,2-Back,0.0,m,Tue Aug 05 2025 09:07:14 GMT-0500 (Central Daylight Time),757202.9000000954,015_o_m_n_a.png,O,z,933,18,1,1961.6000001430511,755241.2999999523,7196,VNB,C,16
0,test,2,0.0,2-Back,,,Tue Aug 05 2025 09:07:14 GMT-0500 (Central Daylight Time),757202.9000000954,014_m_m_h_a.png,O,space,2016,1,1,1961.6000001430511,755241.2999999523,7196,VNB,C,0
0,test,2,0.0,2-Back,,,Tue Aug 05 2025 09:07:14 GMT-0500 (Central Daylight Time),757202.9000000954,022_y_f_n_a.png,O,space,2016,2,1,1961.6000001430511,755241.2999999523,7196,VNB,C,0
1,test,2,1.0,2-Back,1.0,z,Tue Aug 05 2025 09:07:14 GMT-0500 (Central Daylight Time),766816.600000143,012_o_f_h_a.png,O,z,1317,3,1,2340.4000000953674,764476.2000000477,7196,VNB,C,1
2,test,2,0.0,2-Back,1.0,m,Tue Aug 05 2025 09:07:14 GMT-0500 (Central Daylight Time),769432.100000143,015_o_m_d_a.png,O,m,1594,4,1,2606.100000143051,766826.0,7196,VNB,C,2
2,test,2,0.0,2-Back,0.0,m,Tue Aug 05 2025 09:07:14 GMT-0500 (Central Daylight Time),771782.7999999523,019_m_f_d_a.png,O,z,1319,5,1,2341.899999856949,769440.9000000954,7196,VNB,C,3
3,test,2,0.0,2-Back,1.0,m,Tue Aug 05 2025 09:07:14 GMT-0500 (Central Daylight Time),774780.7000000477,025_y_m_h_a.png,O,m,1973,6,1,2989.0,771791.7000000477,7196,VNB,C,4
3,test,2,0.0,2-Back,0.0,m,Tue Aug 05 2025 09:07:14 GMT-0500 (Central Daylight Time),777812.600000143,012_o_f_n_a.png,O,None,2016,7,1,3024.5,774788.100000143,7196,VNB,C,5
4,test,2,1.0,2-Back,1.0,z,Tue Aug 05 2025 09:07:14 GMT-0500 (Central Daylight Time),780527.4000000954,015_o_m_h_a.png,O,z,1695,8,1,2708.2000000476837,777819.2000000477,7196,VNB,C,6
5,test,2,0.0,2-Back,1.0,m,Tue Aug 05 2025 09:07:14 GMT-0500 (Central Daylight Time),783061.600000143,022_y_f_d_a.png,O,m,1516,9,1,2527.2000000476837,780534.4000000954,7196,VNB,C,7
6,test,2,0.0,2-Back,1.0,m,Tue Aug 05 2025 09:07:14 GMT-0500 (Central Daylight Time),785293.9000000954,025_y_m_d_a.png,O,m,1204,10,1,2226.0,783067.9000000954,7196,VNB,C,8
7,test,2,0.0,2-Back,1.0,m,Tue Aug 05 2025 09:07:14 GMT-0500 (Central Daylight Time),787609.0,014_m_m_n_a.png,O,m,1299,11,1,2304.2999999523163,785304.7000000477,7196,VNB,C,9
7,test,2,0.0,2-Back,0.0,m,Tue Aug 05 2025 09:07:14 GMT-0500 (Central Daylight Time),790425.4000000954,019_m_f_h_a.png,O,z,1784,12,1,2813.600000143051,787611.7999999523,7196,VNB,C,10
7,test,2,1.0,2-Back,0.0,z,Tue Aug 05 2025 09:07:14 GMT-0500 (Central Daylight Time),793443.0,015_o_m_n_a.png,O,None,2001,13,1,3008.0,790435.0,7196,VNB,C,11
8,test,2,0.0,2-Back,1.0,m,Tue Aug 05 2025 09:07:14 GMT-0500 (Central Daylight Time),795574.9000000954,012_o_f_d_a.png,O,m,1117,14,1,2122.7000000476837,793452.2000000477,7196,VNB,C,12
9,test,2,0.0,2-Back,1.0,m,Tue Aug 05 2025 09:07:14 GMT-0500 (Central Daylight Time),798490.5,022_y_f_h_a.png,O,m,1900,15,1,2908.0,795582.5,7196,VNB,C,13
9,test,2,0.0,2-Back,0.0,z,Tue Aug 05 2025 09:07:14 GMT-0500 (Central Daylight Time),800705.2999999523,014_m_m_d_a.png,O,m,1190,16,1,2205.2999999523163,798500.0,7196,VNB,C,14
10,test,2,0.0,2-Back,1.0,m,Tue Aug 05 2025 09:07:14 GMT-0500 (Central Daylight Time),803671.100000143,025_y_m_n_a.png,O,m,1945,17,1,2957.600000143051,800713.5,7196,VNB,C,15
10,test,2,1.0,2-Back,0.0,m,Tue Aug 05 2025 09:07:14 GMT-0500 (Central Daylight Time),806286.2999999523,019_m_f_n_a.png,O,z,1586,18,1,2607.2999999523163,803679.0,7196,VNB,C,16
0,test,3,1.0,2-Back,,,Tue Aug 05 2025 09:07:14 GMT-0500 (Central Daylight Time),806286.2999999523,015_o_m_n_a.png,O,space,1875,1,1,2607.2999999523163,803679.0,7196,VNB,C,0
0,test,3,1.0,2-Back,,,Tue Aug 05 2025 09:07:14 GMT-0500 (Central Daylight Time),806286.2999999523,012_o_f_d_a.png,O,space,1875,2,1,2607.2999999523163,803679.0,7196,VNB,C,0
1,test,3,0.0,2-Back,1.0,m,Tue Aug 05 2025 09:07:14 GMT-0500 (Central Daylight Time),815717.100000143,022_y_f_h_a.png,O,m,1478,3,1,2498.800000190735,813218.2999999523,7196,VNB,C,1
2,test,3,0.0,2-Back,1.0,z,Tue Aug 05 2025 09:07:14 GMT-0500 (Central Daylight Time),818101.600000143,019_m_f_d_a.png,O,z,1367,4,1,2375.7000000476837,815725.9000000954,7196,VNB,C,2
2,test,3,1.0,2-Back,0.0,m,Tue Aug 05 2025 09:07:14 GMT-0500 (Central Daylight Time),820016.2000000477,025_y_m_n_a.png,O,z,885,5,1,1905.4000000953674,818110.7999999523,7196,VNB,C,3
2,test,3,0.0,2-Back,0.0,m,Tue Aug 05 2025 09:07:14 GMT-0500 (Central Daylight Time),823050.7000000477,015_o_m_h_a.png,O,None,2019,6,1,3026.2999999523163,820024.4000000954,7196,VNB,C,4
2,test,3,0.0,2-Back,0.0,z,Tue Aug 05 2025 09:07:14 GMT-0500 (Central Daylight Time),826081.0,022_y_f_n_a.png,O,None,2016,7,1,3021.399999856949,823059.600000143,7196,VNB,C,5
2,test,3,1.0,2-Back,0.0,m,Tue Aug 05 2025 09:07:14 GMT-0500 (Central Daylight Time),827296.100000143,014_m_m_d_a.png,O,z,193,8,1,1206.4000000953674,826089.7000000477,7196,VNB,C,6
2,test,3,0.0,2-Back,0.0,m,Tue Aug 05 2025 09:07:14 GMT-0500 (Central Daylight Time),829317.7999999523,025_y_m_d_a.png,O,z,991,9,1,2014.3999998569489,827303.4000000954,7196,VNB,C,7
2,test,3,0.0,2-Back,0.0,m,Tue Aug 05 2025 09:07:14 GMT-0500 (Central Daylight Time),831812.7000000477,012_o_f_h_a.png,O,z,1473,10,1,2491.7000000476837,829321.0,7196,VNB,C,8
2,test,3,1.0,2-Back,0.0,m,Tue Aug 05 2025 09:07:14 GMT-0500 (Central Daylight Time),834693.2000000477,019_m_f_n_a.png,O,z,1863,11,1,2870.5,831822.7000000477,7196,VNB,C,9
2,test,3,1.0,2-Back,0.0,z,Tue Aug 05 2025 09:07:14 GMT-0500 (Central Daylight Time),837094.600000143,014_m_m_h_a.png,O,m,1369,12,1,2393.2000000476837,834701.4000000954,7196,VNB,C,10
2,test,3,0.0,2-Back,0.0,m,Tue Aug 05 2025 09:07:14 GMT-0500 (Central Daylight Time),840111.100000143,022_y_f_d_a.png,O,None,2001,13,1,3007.300000190735,837103.7999999523,7196,VNB,C,11
3,test,3,0.0,2-Back,1.0,m,Tue Aug 05 2025 09:07:14 GMT-0500 (Central Daylight Time),842158.2999999523,012_o_f_n_a.png,O,m,1028,14,1,2039.1999998092651,840119.100000143,7196,VNB,C,12
4,test,3,0.0,2-Back,1.0,z,Tue Aug 05 2025 09:07:14 GMT-0500 (Central Daylight Time),844992.2000000477,015_o_m_d_a.png,O,z,1803,15,1,2826.7000000476837,842165.5,7196,VNB,C,13
4,test,3,1.0,2-Back,0.0,m,Tue Aug 05 2025 09:07:14 GMT-0500 (Central Daylight Time),847890.9000000954,019_m_f_h_a.png,O,z,1882,16,1,2891.100000143051,844999.7999999523,7196,VNB,C,14
4,test,3,0.0,2-Back,0.0,m,Tue Aug 05 2025 09:07:14 GMT-0500 (Central Daylight Time),850904.100000143,014_m_m_n_a.png,O,z,1989,17,1,3006.9000000953674,847897.2000000477,7196,VNB,C,15
4,test,3,0.0,2-Back,0.0,z,Tue Aug 05 2025 09:07:14 GMT-0500 (Central Daylight Time),853938.7000000477,025_y_m_h_a.png,O,None,2017,18,1,3031.7999999523163,850906.9000000954,7196,VNB,C,16
0,test,4,0.0,2-Back,,,Tue Aug 05 2025 09:07:14 GMT-0500 (Central Daylight Time),853938.7000000477,019_m_f_n_a.png,O,space,2086,1,1,3031.7999999523163,850906.9000000954,7196,VNB,C,0
0,test,4,0.0,2-Back,,,Tue Aug 05 2025 09:07:14 GMT-0500 (Central Daylight Time),853938.7000000477,015_o_m_n_a.png,O,space,2086,2,1,3031.7999999523163,850906.9000000954,7196,VNB,C,0
1,test,4,1.0,2-Back,1.0,m,Tue Aug 05 2025 09:07:14 GMT-0500 (Central Daylight Time),863752.100000143,025_y_m_h_a.png,O,m,1402,3,1,2422.600000143051,861329.5,7196,VNB,C,1
1,test,4,1.0,2-Back,0.0,m,Tue Aug 05 2025 09:07:14 GMT-0500 (Central Daylight Time),866784.4000000954,012_o_f_d_a.png,O,None,2016,4,1,3023.100000143051,863761.2999999523,7196,VNB,C,2
1,test,4,0.0,2-Back,0.0,z,Tue Aug 05 2025 09:07:14 GMT-0500 (Central Daylight Time),869400.0,015_o_m_h_a.png,O,m,1593,5,1,2607.0999999046326,866792.9000000954,7196,VNB,C,3
1,test,4,0.0,2-Back,0.0,m,Tue Aug 05 2025 09:07:14 GMT-0500 (Central Daylight Time),871701.0,014_m_m_n_a.png,O,z,1284,6,1,2292.899999856949,869408.100000143,7196,VNB,C,4
1,test,4,0.0,2-Back,0.0,m,Tue Aug 05 2025 09:07:14 GMT-0500 (Central Daylight Time),874716.7000000477,019_m_f_d_a.png,O,None,2002,7,1,3009.9000000953674,871706.7999999523,7196,VNB,C,5
2,test,4,0.0,2-Back,1.0,z,Tue Aug 05 2025 09:07:14 GMT-0500 (Central Daylight Time),876831.600000143,022_y_f_n_a.png,O,z,1094,8,1,2106.100000143051,874725.5,7196,VNB,C,6
2,test,4,1.0,2-Back,0.0,m,Tue Aug 05 2025 09:07:14 GMT-0500 (Central Daylight Time),879347.100000143,012_o_f_h_a.png,O,z,1500,9,1,2505.0,876842.100000143,7196,VNB,C,7
2,test,4,0.0,2-Back,0.0,m,Tue Aug 05 2025 09:07:14 GMT-0500 (Central Daylight Time),882380.2999999523,014_m_m_h_a.png,O,None,2016,10,1,3028.0999999046326,879352.2000000477,7196,VNB,C,8
2,test,4,0.0,2-Back,0.0,m,Tue Aug 05 2025 09:07:14 GMT-0500 (Central Daylight Time),884578.7000000477,022_y_f_d_a.png,O,z,1174,11,1,2190.7999999523163,882387.9000000954,7196,VNB,C,9
2,test,4,0.0,2-Back,0.0,m,Tue Aug 05 2025 09:07:14 GMT-0500 (Central Daylight Time),887613.600000143,025_y_m_n_a.png,O,None,2017,12,1,3027.300000190735,884586.2999999523,7196,VNB,C,10
2,test,4,0.0,2-Back,0.0,z,Tue Aug 05 2025 09:07:14 GMT-0500 (Central Daylight Time),890445.100000143,015_o_m_d_a.png,O,m,1817,13,1,2823.100000143051,887622.0,7196,VNB,C,11
2,test,4,1.0,2-Back,0.0,m,Tue Aug 05 2025 09:07:14 GMT-0500 (Central Daylight Time),893475.5,019_m_f_h_a.png,O,None,2015,14,1,3021.5999999046326,890453.9000000954,7196,VNB,C,12
2,test,4,1.0,2-Back,0.0,m,Tue Aug 05 2025 09:07:14 GMT-0500 (Central Daylight Time),895958.600000143,022_y_f_h_a.png,O,z,1462,15,1,2473.300000190735,893485.2999999523,7196,VNB,C,13
3,test,4,0.0,2-Back,1.0,m,Tue Aug 05 2025 09:07:14 GMT-0500 (Central Daylight Time),898792.100000143,012_o_f_n_a.png,O,m,1804,16,1,2825.7000000476837,895966.4000000954,7196,VNB,C,14
3,test,4,0.0,2-Back,0.0,m,Tue Aug 05 2025 09:07:14 GMT-0500 (Central Daylight Time),901825.2000000477,025_y_m_d_a.png,O,None,2017,17,1,3024.4000000953674,898800.7999999523,7196,VNB,C,15
3,test,4,1.0,2-Back,0.0,m,Tue Aug 05 2025 09:07:14 GMT-0500 (Central Daylight Time),904856.2999999523,014_m_m_d_a.png,O,None,2015,18,1,3024.5999999046326,901831.7000000477,7196,VNB,C,16
0,test,5,1.0,2-Back,,,Tue Aug 05 2025 09:07:14 GMT-0500 (Central Daylight Time),904856.2999999523,022_y_f_d_a.png,O,space,1866,1,1,3024.5999999046326,901831.7000000477,7196,VNB,C,0
0,test,5,1.0,2-Back,,,Tue Aug 05 2025 09:07:14 GMT-0500 (Central Daylight Time),904856.2999999523,012_o_f_h_a.png,O,space,1866,2,1,3024.5999999046326,901831.7000000477,7196,VNB,C,0
1,test,5,1.0,2-Back,1.0,z,Tue Aug 05 2025 09:07:14 GMT-0500 (Central Daylight Time),914935.600000143,015_o_m_d_a.png,O,z,1926,3,1,2939.2000000476837,911996.4000000954,7196,VNB,C,1
2,test,5,1.0,2-Back,1.0,m,Tue Aug 05 2025 09:07:14 GMT-0500 (Central Daylight Time),917567.7999999523,019_m_f_n_a.png,O,m,1602,4,1,2624.899999856949,914942.9000000954,7196,VNB,C,2
2,test,5,0.0,2-Back,0.0,m,Tue Aug 05 2025 09:07:14 GMT-0500 (Central Daylight Time),920451.9000000954,014_m_m_h_a.png,O,z,1857,5,1,2876.9000000953674,917575.0,7196,VNB,C,3
2,test,5,0.0,2-Back,0.0,z,Tue Aug 05 2025 09:07:14 GMT-0500 (Central Daylight Time),922749.9000000954,022_y_f_n_a.png,O,m,1279,6,1,2287.7999999523163,920462.100000143,7196,VNB,C,4
2,test,5,0.0,2-Back,0.0,m,Tue Aug 05 2025 09:07:14 GMT-0500 (Central Daylight Time),925782.600000143,012_o_f_d_a.png,O,None,2015,7,1,3024.9000000953674,922757.7000000477,7196,VNB,C,5
3,test,5,0.0,2-Back,1.0,m,Tue Aug 05 2025 09:07:14 GMT-0500 (Central Daylight Time),928250.2999999523,015_o_m_h_a.png,O,m,1452,8,1,2459.7999999523163,925790.5,7196,VNB,C,6
3,test,5,1.0,2-Back,0.0,z,Tue Aug 05 2025 09:07:14 GMT-0500 (Central Daylight Time),931281.100000143,019_m_f_d_a.png,O,None,2016,9,1,3025.4000000953674,928255.7000000477,7196,VNB,C,7
3,test,5,0.0,2-Back,0.0,m,Tue Aug 05 2025 09:07:14 GMT-0500 (Central Daylight Time),934062.7000000477,025_y_m_n_a.png,O,z,1762,10,1,2773.5,931289.2000000477,7196,VNB,C,8
3,test,5,0.0,2-Back,0.0,m,Tue Aug 05 2025 09:07:14 GMT-0500 (Central Daylight Time),936595.2999999523,014_m_m_n_a.png,O,z,1506,11,1,2525.5,934069.7999999523,7196,VNB,C,9
4,test,5,0.0,2-Back,1.0,m,Tue Aug 05 2025 09:07:14 GMT-0500 (Central Daylight Time),938928.2000000477,022_y_f_h_a.png,O,m,1301,12,1,2325.7999999523163,936602.4000000954,7196,VNB,C,10
5,test,5,0.0,2-Back,1.0,m,Tue Aug 05 2025 09:07:14 GMT-0500 (Central Daylight Time),941376.7000000477,025_y_m_d_a.png,O,m,1414,13,1,2439.0,938937.7000000477,7196,VNB,C,11
5,test,5,1.0,2-Back,0.0,z,Tue Aug 05 2025 09:07:14 GMT-0500 (Central Daylight Time),943493.2000000477,019_m_f_h_a.png,O,m,1086,14,1,2106.9000000953674,941386.2999999523,7196,VNB,C,12
6,test,5,0.0,2-Back,1.0,m,Tue Aug 05 2025 09:07:14 GMT-0500 (Central Daylight Time),946325.7000000477,015_o_m_n_a.png,O,m,1805,15,1,2824.7999999523163,943500.9000000954,7196,VNB,C,13
6,test,5,0.0,2-Back,0.0,m,Tue Aug 05 2025 09:07:14 GMT-0500 (Central Daylight Time),949343.0,014_m_m_d_a.png,O,None,2001,16,1,3009.7999999523163,946333.2000000477,7196,VNB,C,14
6,test,5,0.0,2-Back,0.0,z,Tue Aug 05 2025 09:07:14 GMT-0500 (Central Daylight Time),952374.600000143,012_o_f_n_a.png,O,None,2016,17,1,3023.300000190735,949351.2999999523,7196,VNB,C,15
7,test,5,1.0,2-Back,1.0,m,Tue Aug 05 2025 09:07:14 GMT-0500 (Central Daylight Time),954789.9000000954,025_y_m_h_a.png,O,m,1388,18,1,2406.100000143051,952383.7999999523,7196,VNB,C,16
