acc_sum,block,block_c,condition,correct,correct_response,datetime,endtime,flanker,jitter,project,response,response_test_buffer_response,response_test_target_response,response_time,response_time_test_buffer_response,response_time_test_target_response,row_sel,session_number,start_end,starttime,subject_id,target,task,task_vers,time_test_buffer,time_test_buffer_response,time_test_constants,time_test_flanker,time_test_jitter,time_test_logger,time_test_target,time_test_target_response,time_test_variables,trial
1,prac,1,inc,1,z,Fri May 23 2025 13:23:54 GMT-0500 (Central Daylight Time),181425.2,lead,1100,I,z,,,653,,,8,1,3059.0,178366.2,7152,plum,NF,C,,,,,,,,,,1
2,prac,1,inc,1,m,Fri May 23 2025 13:23:54 GMT-0500 (Central Daylight Time),184324.90000000002,raisin,1100,I,m,,,484,,,12,1,2895.8000000000466,181429.09999999998,7152,cobalt,NF,C,,,,,,,,,,2
3,prac,1,con,1,m,Fri May 23 2025 13:23:54 GMT-0500 (Central Daylight Time),186875.90000000002,bronze,800,I,m,,,451,,,9,1,2545.8000000000466,184330.09999999998,7152,bronze,NF,C,,,,,,,,,,3
4,prac,1,con,1,m,Fri May 23 2025 13:23:54 GMT-0500 (Central Daylight Time),189607.59999999998,silver,1000,I,m,,,423,,,11,1,2726.7999999999884,186880.8,7152,silver,NF,C,,,,,,,,,,4
5,prac,1,con,1,m,Fri May 23 2025 13:23:54 GMT-0500 (Central Daylight Time),192088.7,gold,800,I,m,,,373,,,13,1,2475.2000000000116,189613.5,7152,gold,NF,C,,,,,,,,,,5
6,prac,1,con,1,z,Fri May 23 2025 13:23:54 GMT-0500 (Central Daylight Time),194806.2,kiwi,1000,I,z,,,410,,,7,1,2713.100000000035,192093.09999999998,7152,kiwi,NF,C,,,,,,,,,,6
7,prac,1,con,1,z,Fri May 23 2025 13:23:54 GMT-0500 (Central Daylight Time),197804.09999999998,orange,1000,I,z,,,684,,,3,1,2991.2999999999884,194812.8,7152,orange,NF,C,,,,,,,,,,7
8,prac,1,inc,1,m,Fri May 23 2025 13:23:54 GMT-0500 (Central Daylight Time),200504.0,pear,900,I,m,,,499,,,14,1,2693.2999999999884,197810.7,7152,iron,NF,C,,,,,,,,,,8
9,prac,1,con,1,z,Fri May 23 2025 13:23:54 GMT-0500 (Central Daylight Time),203185.09999999998,lime,800,I,z,,,578,,,5,1,2676.5999999999767,200508.5,7152,lime,NF,C,,,,,,,,,,9
10,prac,1,inc,1,z,Fri May 23 2025 13:23:54 GMT-0500 (Central Daylight Time),205903.09999999998,copper,900,I,z,,,517,,,2,1,2711.5999999999767,203191.5,7152,cherry,NF,C,,,,,,,,,,10
11,prac,1,inc,1,m,Fri May 23 2025 13:23:54 GMT-0500 (Central Daylight Time),208834.90000000002,plum,1100,I,m,,,514,,,16,1,2926.2000000000116,205908.7,7152,lead,NF,C,,,,,,,,,,11
12,prac,1,inc,1,z,Fri May 23 2025 13:23:54 GMT-0500 (Central Daylight Time),211548.5,iron,900,I,z,,,507,,,6,1,2706.7999999999884,208841.7,7152,pear,NF,C,,,,,,,,,,12
13,prac,1,con,1,z,Fri May 23 2025 13:23:54 GMT-0500 (Central Daylight Time),214331.2,banana,800,I,z,,,678,,,1,1,2778.600000000035,211552.59999999998,7152,banana,NF,C,,,,,,,,,,13
14,prac,1,inc,1,m,Fri May 23 2025 13:23:54 GMT-0500 (Central Daylight Time),216929.5,cherry,900,I,m,,,396,,,10,1,2594.0999999999767,214335.40000000002,7152,copper,NF,C,,,,,,,,,,14
15,prac,1,inc,1,z,Fri May 23 2025 13:23:54 GMT-0500 (Central Daylight Time),219764.5,cobalt,1100,I,z,,,425,,,4,1,2831.7999999999884,216932.7,7152,raisin,NF,C,,,,,,,,,,15
16,prac,1,con,1,m,Fri May 23 2025 13:23:54 GMT-0500 (Central Daylight Time),222530.2,zinc,1000,I,m,,,479,,,15,1,2760.0,219770.2,7152,zinc,NF,C,,,,,,,,,,16
1,test,1,inc,1,z,Fri May 23 2025 13:23:54 GMT-0500 (Central Daylight Time),262983.6,silver,1000,I,z,z,None,508,308.0,200.0,15,1,2043.5999999999767,260940.0,7152,cherry,NF,C,255539,255539,253811,254823,253812,255855,255338,255338,255855,1
2,test,1,con,1,m,Fri May 23 2025 13:23:54 GMT-0500 (Central Daylight Time),264999.8,copper,1000,I,m,m,None,476,276.0,200.0,75,1,2010.0999999999767,262989.7,7152,copper,NF,C,257588,257588,255861,256871,255861,257871,257388,257388,257871,2
3,test,1,inc,1,m,Fri May 23 2025 13:23:54 GMT-0500 (Central Daylight Time),267083.2,raisin,1100,I,m,m,None,446,231.0,215.0,96,1,2077.600000000035,265005.6,7152,cobalt,NF,C,259720,259720,257877,258990,257877,259954,259505,259505,259954,3
4,test,1,con,1,m,Fri May 23 2025 13:23:54 GMT-0500 (Central Daylight Time),269130.5,lead,1000,I,m,m,None,513,314.0,199.0,123,1,2043.0999999999767,267087.4,7152,lead,NF,C,261687,261687,259958,260969,259959,262002,261488,261488,262002,4
5,test,1,con,1,m,Fri May 23 2025 13:23:54 GMT-0500 (Central Daylight Time),270914.6,iron,800,I,m,m,None,439,240.0,199.0,105,1,1779.1999999999534,269135.4,7152,iron,NF,C,263536,263536,262006,262820,262007,263786,263336,263336,263786,5
6,test,1,con,1,z,Fri May 23 2025 13:23:54 GMT-0500 (Central Daylight Time),272963.6,raisin,1100,I,z,z,None,407,207.0,200.0,28,1,2043.7999999999884,270919.8,7152,raisin,NF,C,265617,265617,263791,264900,263791,265835,265417,265417,265835,6
7,test,1,inc,1,m,Fri May 23 2025 13:23:54 GMT-0500 (Central Daylight Time),275111.7,raisin,1100,I,m,m,None,499,299.0,200.0,80,1,2141.7999999999884,272969.9,7152,copper,NF,C,267667,267667,265841,266951,265841,267983,267466,267466,267983,7
8,test,1,con,1,z,Fri May 23 2025 13:23:54 GMT-0500 (Central Daylight Time),277044.9,pear,1000,I,z,z,None,396,196.0,200.0,43,1,1930.2000000000116,275114.7,7152,pear,NF,C,269715,269715,267986,268999,267986,269916,269515,269515,269916,8
9,test,1,inc,1,z,Fri May 23 2025 13:23:54 GMT-0500 (Central Daylight Time),279011.2,copper,900,I,z,z,None,518,303.0,215.0,14,1,1963.2000000000116,277048.0,7152,cherry,NF,C,271568,271568,269919,270833,269919,271882,271352,271352,271882,9
10,test,1,con,1,m,Fri May 23 2025 13:23:54 GMT-0500 (Central Daylight Time),280928.9,silver,1000,I,m,m,None,382,182.0,200.0,83,1,1913.600000000035,279015.3,7152,silver,NF,C,273617,273617,271886,272900,271887,273800,273416,273416,273800,10
11,test,1,con,1,m,Fri May 23 2025 13:23:54 GMT-0500 (Central Daylight Time),282761.4,bronze,900,I,m,m,None,400,199.0,201.0,66,1,1824.3000000000466,280937.1,7152,bronze,NF,C,275433,275433,273808,274715,273809,275632,275232,275232,275632,11
12,test,1,inc,1,z,Fri May 23 2025 13:23:54 GMT-0500 (Central Daylight Time),284744.4,silver,1000,I,z,z,None,433,233.0,200.0,23,1,1976.8000000000466,282767.6,7152,orange,NF,C,277366,277366,275639,276649,275639,277615,277165,277165,277615,12
13,test,1,inc,1,z,Fri May 23 2025 13:23:54 GMT-0500 (Central Daylight Time),286576.1,bronze,800,I,z,z,None,491,276.0,215.0,21,1,1825.7999999999884,284750.3,7152,orange,NF,C,279164,279164,277621,278433,277622,279447,278948,278948,279447,13
14,test,1,inc,1,z,Fri May 23 2025 13:23:54 GMT-0500 (Central Daylight Time),288443.3,gold,800,I,z,z,None,515,315.0,200.0,37,1,1861.899999999965,286581.4,7152,lime,NF,C,280982,280982,279452,280264,279453,281314,280781,280781,281314,14
15,test,1,inc,1,m,Fri May 23 2025 13:23:54 GMT-0500 (Central Daylight Time),290173.5,banana,800,I,m,m,None,396,184.0,212.0,77,1,1723.5999999999767,288449.9,7152,copper,NF,C,282846,282846,281321,282130,281322,283045,282633,282633,283044,15
16,test,1,con,1,z,Fri May 23 2025 13:23:54 GMT-0500 (Central Daylight Time),292075.0,banana,900,I,z,z,None,457,257.0,200.0,2,1,1895.5,290179.5,7152,banana,NF,C,284679,284679,283051,283960,283051,284946,284478,284478,284946,16
17,test,1,inc,1,m,Fri May 23 2025 13:23:54 GMT-0500 (Central Daylight Time),293841.3,lime,800,I,m,m,None,432,232.0,200.0,109,1,1760.5,292080.8,7152,iron,NF,C,286480,286480,284952,285762,284952,286712,286279,286279,286712,17
17,test,1,con,0,m,Fri May 23 2025 13:23:54 GMT-0500 (Central Daylight Time),295923.0,silver,1100,I,z,z,None,454,238.0,216.0,84,1,2076.5999999999767,293846.4,7152,silver,NF,C,288546,288546,286717,287828,286718,288794,288330,288330,288794,18
18,test,1,inc,1,m,Fri May 23 2025 13:23:54 GMT-0500 (Central Daylight Time),297971.8,orange,1000,I,m,m,None,511,296.0,215.0,87,1,2043.5,295928.3,7152,silver,NF,C,290544,290544,288799,289811,288800,290843,290329,290329,290843,19
19,test,1,con,1,m,Fri May 23 2025 13:23:54 GMT-0500 (Central Daylight Time),300087.5,bronze,1100,I,m,m,None,474,274.0,200.0,68,1,2109.9000000000233,297977.6,7152,bronze,NF,C,292677,292678,290849,291961,290849,292959,292477,292477,292958,20
20,test,1,inc,1,z,Fri May 23 2025 13:23:54 GMT-0500 (Central Daylight Time),302203.1,silver,1000,I,z,z,None,570,371.0,199.0,31,1,2110.29999999993,300092.80000000005,7152,raisin,NF,C,294691,294691,292964,293977,292964,295074,294491,294491,295074,21
21,test,1,inc,1,z,Fri May 23 2025 13:23:54 GMT-0500 (Central Daylight Time),304270.30000000005,iron,900,I,z,z,None,627,428.0,199.0,46,1,2063.5,302206.80000000005,7152,pear,NF,C,296708,296708,295078,295994,295078,297141,296509,296509,297141,22
22,test,1,inc,1,z,Fri May 23 2025 13:23:54 GMT-0500 (Central Daylight Time),306620.69999999995,zinc,1000,I,z,z,None,816,615.0,201.0,39,1,2345.1999999999534,304275.5,7152,lime,NF,C,298876,298876,297147,298159,297147,299492,298674,298675,299492,23
23,test,1,inc,1,z,Fri May 23 2025 13:23:54 GMT-0500 (Central Daylight Time),308619.4,silver,1000,I,z,z,None,464,248.0,216.0,7,1,1993.3000000000466,306626.1,7152,banana,NF,C,301242,301242,299497,300509,299497,301491,301025,301025,301490,24
24,test,1,inc,1,z,Fri May 23 2025 13:23:54 GMT-0500 (Central Daylight Time),310468.4,bronze,800,I,z,z,None,519,320.0,199.0,13,1,1842.5999999999767,308625.80000000005,7152,cherry,NF,C,303008,303008,301497,302306,301497,303340,302808,302808,303339,25
25,test,1,inc,1,z,Fri May 23 2025 13:23:54 GMT-0500 (Central Daylight Time),312549.69999999995,copper,900,I,z,z,None,635,436.0,199.0,6,1,2076.0999999999767,310473.6,7152,banana,NF,C,304970,304970,303345,304257,303345,305421,304771,304771,305421,26
26,test,1,con,1,z,Fri May 23 2025 13:23:54 GMT-0500 (Central Daylight Time),314534.1,lime,800,I,z,z,None,646,445.0,201.0,33,1,1981.5,312552.6,7152,lime,NF,C,306955,306955,305424,306236,305424,307405,306754,306754,307405,27
27,test,1,inc,1,z,Fri May 23 2025 13:23:54 GMT-0500 (Central Daylight Time),316498.30000000005,iron,900,I,z,z,None,544,329.0,215.0,38,1,1959.6000000000931,314538.69999999995,7152,lime,NF,C,309038,309038,307410,308321,307410,309369,308822,308822,309369,28
28,test,1,inc,1,m,Fri May 23 2025 13:23:54 GMT-0500 (Central Daylight Time),318399.1,cherry,900,I,m,m,None,457,244.0,213.0,78,1,1895.0999999999767,316504.0,7152,copper,NF,C,311020,311020,309375,310289,309375,311270,310806,310806,311270,29
29,test,1,inc,1,z,Fri May 23 2025 13:23:54 GMT-0500 (Central Daylight Time),320581.19999999995,zinc,1000,I,z,z,None,635,435.0,200.0,63,1,2176.399999999907,318404.80000000005,7152,plum,NF,C,313004,313004,311276,312288,311276,313452,312803,312803,313452,30
30,test,1,inc,1,z,Fri May 23 2025 13:23:54 GMT-0500 (Central Daylight Time),322497.9,gold,800,I,z,z,None,573,373.0,200.0,53,1,1912.0,320585.9,7152,kiwi,NF,C,314986,314986,313457,314269,313457,315369,314786,314786,315369,31
31,test,1,inc,1,m,Fri May 23 2025 13:23:54 GMT-0500 (Central Daylight Time),324681.4,raisin,1100,I,m,m,None,540,341.0,199.0,88,1,2176.5999999999767,322504.80000000005,7152,silver,NF,C,317203,317203,315376,316486,315376,317552,317003,317003,317552,32
32,test,1,inc,1,z,Fri May 23 2025 13:23:54 GMT-0500 (Central Daylight Time),326647.1,iron,900,I,z,z,None,524,325.0,199.0,62,1,1960.9000000000233,324686.19999999995,7152,plum,NF,C,319186,319186,317557,318468,317558,319518,318986,318986,319518,33
33,test,1,inc,1,m,Fri May 23 2025 13:23:54 GMT-0500 (Central Daylight Time),328479.5,lime,800,I,m,m,None,493,292.0,201.0,101,1,1828.4000000000233,326651.1,7152,gold,NF,C,321051,321051,319522,320336,319523,321351,320850,320850,321351,34
34,test,1,con,1,z,Fri May 23 2025 13:23:54 GMT-0500 (Central Daylight Time),330443.6,kiwi,900,I,z,z,None,527,326.0,201.0,50,1,1958.1999999999534,328485.4,7152,kiwi,NF,C,322985,322985,321356,322266,321357,323315,322783,322783,323315,35
35,test,1,con,1,z,Fri May 23 2025 13:23:54 GMT-0500 (Central Daylight Time),332493.4,raisin,800,I,z,z,None,700,501.0,199.0,25,1,2047.2000000000698,330446.19999999995,7152,raisin,NF,C,324849,324849,323317,324134,323318,325365,324649,324649,325364,36
36,test,1,con,1,z,Fri May 23 2025 13:23:54 GMT-0500 (Central Daylight Time),334691.30000000005,lime,1100,I,z,z,None,559,360.0,199.0,36,1,2195.20000000007,332496.1,7152,lime,NF,C,327198,327198,325367,326482,325367,327562,326999,326999,327562,37
37,test,1,con,1,m,Fri May 23 2025 13:23:54 GMT-0500 (Central Daylight Time),336646.69999999995,cobalt,800,I,m,m,None,607,407.0,200.0,89,1,1952.6999999999534,334694.0,7152,cobalt,NF,C,329096,329096,327565,328381,327565,329518,328896,328896,329518,38
38,test,1,inc,1,z,Fri May 23 2025 13:23:54 GMT-0500 (Central Daylight Time),338708.69999999995,cobalt,1100,I,z,z,None,435,235.0,200.0,8,1,2059.0,336649.69999999995,7152,banana,NF,C,331332,331332,329521,330630,329521,331580,331132,331132,331580,39
39,test,1,con,1,z,Fri May 23 2025 13:23:54 GMT-0500 (Central Daylight Time),340641.19999999995,cherry,800,I,z,z,None,590,389.0,201.0,9,1,1926.8999999999069,338714.30000000005,7152,cherry,NF,C,333115,333115,331585,332397,331586,333512,332914,332914,333512,40
40,test,1,con,1,m,Fri May 23 2025 13:23:54 GMT-0500 (Central Daylight Time),342458.5,bronze,800,I,m,m,None,473,274.0,199.0,65,1,1811.5999999999767,340646.9,7152,bronze,NF,C,335046,335046,333518,334331,333518,335330,334847,334847,335330,41
41,test,1,con,1,m,Fri May 23 2025 13:23:54 GMT-0500 (Central Daylight Time),344440.69999999995,zinc,900,I,m,m,None,539,340.0,199.0,114,1,1976.7999999999302,342463.9,7152,zinc,NF,C,336963,336963,335335,336246,335335,337312,336763,336763,337312,42
42,test,1,con,1,m,Fri May 23 2025 13:23:54 GMT-0500 (Central Daylight Time),346289.80000000005,zinc,800,I,m,m,None,522,323.0,199.0,113,1,1844.4000000000233,344445.4,7152,zinc,NF,C,338829,338829,337316,338128,337317,339161,338630,338630,339161,43
43,test,1,con,1,z,Fri May 23 2025 13:23:54 GMT-0500 (Central Daylight Time),348405.6,plum,1100,I,z,z,None,469,269.0,200.0,60,1,2107.29999999993,346298.30000000005,7152,plum,NF,C,340994,340994,339169,340280,339170,341277,340793,340793,341277,44
43,test,1,con,0,z,Fri May 23 2025 13:23:54 GMT-0500 (Central Daylight Time),350287.19999999995,lime,900,I,m,m,None,433,230.0,203.0,34,1,1875.5,348411.69999999995,7152,lime,NF,C,342912,342912,341283,342192,341283,343158,342708,342708,343158,45
44,test,1,con,1,m,Fri May 23 2025 13:23:54 GMT-0500 (Central Daylight Time),352355.30000000005,silver,900,I,m,m,None,639,439.0,200.0,82,1,2065.3000000000466,350290.0,7152,silver,NF,C,344776,344776,343161,344062,343161,345226,344576,344576,345226,46
45,test,1,inc,1,z,Fri May 23 2025 13:23:54 GMT-0500 (Central Daylight Time),354604.30000000005,cobalt,1100,I,z,z,None,602,403.0,199.0,32,1,2242.9000000000233,352361.4,7152,raisin,NF,C,347060,347060,345232,346345,345233,347475,346861,346861,347475,47
46,test,1,inc,1,m,Fri May 23 2025 13:23:54 GMT-0500 (Central Daylight Time),356620.9,cherry,900,I,m,m,None,567,368.0,199.0,70,1,2010.2000000000698,354610.69999999995,7152,bronze,NF,C,349107,349107,347482,348392,347482,349492,348908,348908,349492,48
47,test,1,con,1,m,Fri May 23 2025 13:23:54 GMT-0500 (Central Daylight Time),358568.80000000005,copper,800,I,m,m,None,604,389.0,215.0,73,1,1942.6000000000931,356626.19999999995,7152,copper,NF,C,351042,351042,349497,350310,349498,351440,350826,350826,351440,49
48,test,1,con,1,m,Fri May 23 2025 13:23:54 GMT-0500 (Central Daylight Time),360469.1,lead,900,I,m,m,None,476,277.0,199.0,122,1,1894.1999999999534,358574.9,7152,lead,NF,C,353059,353059,351446,352358,351446,353340,352860,352860,353340,50
49,test,1,inc,1,m,Fri May 23 2025 13:23:54 GMT-0500 (Central Daylight Time),362433.69999999995,lime,800,I,m,m,None,624,424.0,200.0,117,1,1960.5,360473.19999999995,7152,zinc,NF,C,354871,354871,353344,354155,353345,355305,354671,354671,355305,51
50,test,1,con,1,m,Fri May 23 2025 13:23:54 GMT-0500 (Central Daylight Time),364535.4,iron,1000,I,m,m,None,558,359.0,199.0,107,1,2099.0999999999767,362436.30000000005,7152,iron,NF,C,357040,357040,355307,356323,355308,357406,356840,356840,357406,52
51,test,1,con,1,z,Fri May 23 2025 13:23:54 GMT-0500 (Central Daylight Time),366534.1,cherry,900,I,z,z,None,549,334.0,215.0,10,1,1991.0999999999767,364543.0,7152,cherry,NF,C,359056,359056,357414,358324,357414,359405,358841,358841,359405,53
52,test,1,inc,1,m,Fri May 23 2025 13:23:54 GMT-0500 (Central Daylight Time),368533.19999999995,cherry,900,I,m,m,None,557,345.0,212.0,94,1,1994.5,366538.69999999995,7152,cobalt,NF,C,361054,361054,359410,360324,359410,361404,360841,360841,361404,54
53,test,1,con,1,m,Fri May 23 2025 13:23:54 GMT-0500 (Central Daylight Time),370715.6,copper,1100,I,m,m,None,546,347.0,199.0,76,1,2177.6999999999534,368537.9,7152,copper,NF,C,363238,363238,361409,362521,361409,363587,363038,363038,363587,55
54,test,1,inc,1,m,Fri May 23 2025 13:23:54 GMT-0500 (Central Daylight Time),372646.80000000005,pear,900,I,m,m,None,482,283.0,199.0,126,1,1926.7000000000698,370720.1,7152,lead,NF,C,365220,365220,363591,364504,363591,365518,365020,365020,365518,56
55,test,1,inc,1,z,Fri May 23 2025 13:23:54 GMT-0500 (Central Daylight Time),374480.80000000005,gold,800,I,z,z,None,492,290.0,202.0,61,1,1831.1000000000931,372649.69999999995,7152,plum,NF,C,367053,367053,365521,366334,365521,367352,366850,366850,367352,57
56,test,1,inc,1,z,Fri May 23 2025 13:23:54 GMT-0500 (Central Daylight Time),376514.80000000005,iron,900,I,z,z,None,599,399.0,200.0,54,1,2028.8000000000466,374486.0,7152,kiwi,NF,C,368986,368986,367357,368269,367357,369386,368786,368786,369386,58
57,test,1,con,1,z,Fri May 23 2025 13:23:54 GMT-0500 (Central Daylight Time),378661.69999999995,raisin,1000,I,z,z,None,608,408.0,200.0,27,1,2142.29999999993,376519.4,7152,raisin,NF,C,371119,371119,369390,370403,369391,371533,370918,370918,371533,59
58,test,1,con,1,z,Fri May 23 2025 13:23:54 GMT-0500 (Central Daylight Time),380678.80000000005,pear,900,I,z,z,None,565,366.0,199.0,42,1,2013.9000000000233,378664.9,7152,pear,NF,C,373168,373168,371536,372451,371536,373550,372969,372969,373550,60
59,test,1,inc,1,m,Fri May 23 2025 13:23:54 GMT-0500 (Central Daylight Time),382795.30000000005,kiwi,1000,I,m,m,None,571,371.0,200.0,127,1,2110.600000000093,380684.69999999995,7152,lead,NF,C,375284,375284,373556,374568,373556,375666,375083,375083,375666,61
60,test,1,con,1,m,Fri May 23 2025 13:23:54 GMT-0500 (Central Daylight Time),384794.5,cobalt,900,I,m,m,None,556,355.0,201.0,90,1,1994.5999999999767,382799.9,7152,cobalt,NF,C,377300,377300,375671,376586,375671,377666,377099,377099,377665,62
61,test,1,inc,1,m,Fri May 23 2025 13:23:54 GMT-0500 (Central Daylight Time),386860.69999999995,orange,1000,I,m,m,None,518,304.0,214.0,95,1,2062.0999999999767,384798.6,7152,cobalt,NF,C,379415,379415,377670,378682,377670,379732,379200,379200,379732,63
62,test,1,con,1,m,Fri May 23 2025 13:23:54 GMT-0500 (Central Daylight Time),388910.1,bronze,1000,I,m,m,None,509,310.0,199.0,67,1,2045.0999999999767,386865.0,7152,bronze,NF,C,381466,381466,379736,380749,379736,381781,381266,381266,381781,64
63,test,1,inc,1,m,Fri May 23 2025 13:23:54 GMT-0500 (Central Daylight Time),390875.6,pear,900,I,m,m,None,543,328.0,215.0,118,1,1959.0999999999767,388916.5,7152,zinc,NF,C,383415,383415,381788,382697,381788,383747,383199,383199,383747,65
64,test,1,inc,1,m,Fri May 23 2025 13:23:54 GMT-0500 (Central Daylight Time),392774.80000000005,lime,800,I,m,m,None,567,368.0,199.0,125,1,1894.6000000000931,390880.19999999995,7152,lead,NF,C,385262,385262,383751,384562,383752,385646,385063,385063,385646,66
65,test,1,con,1,z,Fri May 23 2025 13:23:54 GMT-0500 (Central Daylight Time),394789.1,cherry,1000,I,z,z,None,468,268.0,200.0,11,1,2008.5,392780.6,7152,cherry,NF,C,387378,387378,385652,386663,385652,387660,387177,387177,387660,67
66,test,1,con,1,m,Fri May 23 2025 13:23:54 GMT-0500 (Central Daylight Time),396589.6,lead,800,I,m,m,None,474,261.0,213.0,121,1,1797.9000000000233,394791.69999999995,7152,lead,NF,C,389194,389194,387663,388478,387663,389461,388980,388980,389461,68
67,test,1,con,1,z,Fri May 23 2025 13:23:54 GMT-0500 (Central Daylight Time),398440.80000000005,plum,800,I,z,z,None,523,307.0,216.0,57,1,1847.5,396593.30000000005,7152,plum,NF,C,390996,390996,389464,390277,389465,391312,390779,390779,391312,69
68,test,1,inc,1,m,Fri May 23 2025 13:23:54 GMT-0500 (Central Daylight Time),400504.19999999995,raisin,1100,I,m,m,None,431,232.0,199.0,72,1,2059.1999999999534,398445.0,7152,bronze,NF,C,393143,393143,391316,392428,391316,393375,392943,392943,393375,70
69,test,1,inc,1,m,Fri May 23 2025 13:23:54 GMT-0500 (Central Daylight Time),402506.5,cherry,900,I,m,m,None,583,384.0,199.0,86,1,1999.4000000000233,400507.1,7152,silver,NF,C,394993,394993,393378,394292,393378,395378,394794,394794,395378,71
70,test,1,con,1,m,Fri May 23 2025 13:23:54 GMT-0500 (Central Daylight Time),404538.19999999995,lead,1100,I,m,m,None,399,200.0,199.0,124,1,2026.5999999999767,402511.6,7152,lead,NF,C,397208,397208,395383,396492,395383,397409,397009,397009,397409,72
71,test,1,con,1,m,Fri May 23 2025 13:23:54 GMT-0500 (Central Daylight Time),406553.6,cobalt,1000,I,m,m,None,474,259.0,215.0,91,1,2008.7999999999302,404544.80000000005,7152,cobalt,NF,C,399157,399157,397416,398427,397416,399425,398942,398942,399425,73
72,test,1,con,1,m,Fri May 23 2025 13:23:54 GMT-0500 (Central Daylight Time),408620.1,zinc,1100,I,m,m,None,446,231.0,215.0,116,1,2059.9000000000233,406560.19999999995,7152,zinc,NF,C,401257,401257,399431,400541,399432,401491,401042,401042,401491,74
73,test,1,inc,1,m,Fri May 23 2025 13:23:54 GMT-0500 (Central Daylight Time),410569.80000000005,pear,900,I,m,m,None,515,316.0,199.0,102,1,1945.5,408624.30000000005,7152,gold,NF,C,403125,403125,401495,402409,401496,403441,402925,402925,403441,75
74,test,1,inc,1,m,Fri May 23 2025 13:23:54 GMT-0500 (Central Daylight Time),412685.80000000005,kiwi,1000,I,m,m,None,568,367.0,201.0,119,1,2111.70000000007,410574.1,7152,zinc,NF,C,405176,405176,403445,404458,403445,405557,404974,404974,405557,76
75,test,1,con,1,z,Fri May 23 2025 13:23:54 GMT-0500 (Central Daylight Time),414586.69999999995,raisin,900,I,z,z,None,467,267.0,200.0,26,1,1895.8999999999069,412690.80000000005,7152,raisin,NF,C,407190,407190,405562,406473,405562,407458,406990,406990,407458,77
76,test,1,con,1,z,Fri May 23 2025 13:23:54 GMT-0500 (Central Daylight Time),416635.0,kiwi,800,I,z,z,None,714,515.0,199.0,49,1,2043.6999999999534,414591.30000000005,7152,kiwi,NF,C,408989,408989,407462,408273,407463,409506,408789,408789,409506,78
77,test,1,inc,1,m,Fri May 23 2025 13:23:54 GMT-0500 (Central Daylight Time),418733.69999999995,kiwi,1000,I,m,m,None,551,352.0,199.0,111,1,2092.399999999907,416641.30000000005,7152,iron,NF,C,411239,411239,409512,410522,409513,411605,411040,411040,411605,79
78,test,1,con,1,z,Fri May 23 2025 13:23:54 GMT-0500 (Central Daylight Time),420749.30000000005,orange,900,I,z,z,None,585,386.0,199.0,18,1,2010.9000000000233,418738.4,7152,orange,NF,C,413221,413221,411609,412520,411610,413620,413022,413022,413620,80
79,test,1,inc,1,z,Fri May 23 2025 13:23:54 GMT-0500 (Central Daylight Time),422647.5,gold,800,I,z,z,None,558,359.0,199.0,45,1,1893.8000000000466,420753.69999999995,7152,pear,NF,C,415152,415152,413625,414437,413625,415519,414953,414953,415519,81
80,test,1,inc,1,z,Fri May 23 2025 13:23:54 GMT-0500 (Central Daylight Time),424797.1,cobalt,1100,I,z,z,None,502,302.0,200.0,16,1,2147.0999999999767,422650.0,7152,cherry,NF,C,417353,417353,415521,416637,415521,417668,417153,417153,417668,82
81,test,1,inc,1,m,Fri May 23 2025 13:23:54 GMT-0500 (Central Daylight Time),426830.0,orange,1000,I,m,m,None,491,276.0,215.0,79,1,2029.9000000000233,424800.1,7152,copper,NF,C,419419,419419,417671,418687,417671,419701,419204,419204,419701,83
82,test,1,inc,1,m,Fri May 23 2025 13:23:54 GMT-0500 (Central Daylight Time),429013.1,orange,1000,I,m,m,None,635,436.0,199.0,71,1,2177.0999999999767,426836.0,7152,bronze,NF,C,421435,421435,419707,420719,419707,421884,421235,421235,421884,84
83,test,1,con,1,z,Fri May 23 2025 13:23:54 GMT-0500 (Central Daylight Time),431046.30000000005,plum,900,I,z,z,None,594,392.0,202.0,58,1,2028.5,429017.80000000005,7152,plum,NF,C,423520,423520,421889,422802,421889,423917,423318,423318,423917,85
84,test,1,inc,1,z,Fri May 23 2025 13:23:54 GMT-0500 (Central Daylight Time),432928.9,bronze,800,I,z,z,None,549,349.0,200.0,5,1,1878.7000000000698,431050.19999999995,7152,banana,NF,C,425450,425450,423921,424733,423922,425800,425250,425250,425800,86
85,test,1,inc,1,z,Fri May 23 2025 13:23:54 GMT-0500 (Central Daylight Time),435061.80000000005,cobalt,1100,I,z,z,None,501,302.0,199.0,24,1,2123.5,432938.30000000005,7152,orange,NF,C,427617,427617,425809,426915,425810,427933,427417,427417,427933,87
86,test,1,con,1,z,Fri May 23 2025 13:23:54 GMT-0500 (Central Daylight Time),437177.9,banana,1100,I,z,z,None,472,258.0,214.0,4,1,2111.4000000000233,435066.5,7152,banana,NF,C,429782,429782,427938,429050,427938,430049,429567,429567,430049,88
87,test,1,inc,1,z,Fri May 23 2025 13:23:54 GMT-0500 (Central Daylight Time),439110.6,copper,900,I,z,z,None,484,284.0,200.0,30,1,1928.4000000000233,437182.19999999995,7152,raisin,NF,C,431682,431682,430053,430967,430054,431982,431482,431482,431982,89
88,test,1,con,1,z,Fri May 23 2025 13:23:54 GMT-0500 (Central Daylight Time),441259.80000000005,lime,1000,I,z,z,None,615,415.0,200.0,35,1,2142.8000000000466,439117.0,7152,lime,NF,C,433715,433715,431988,432999,431988,434131,433515,433515,434131,90
89,test,1,inc,1,m,Fri May 23 2025 13:23:54 GMT-0500 (Central Daylight Time),443358.1,plum,1100,I,m,m,None,466,266.0,200.0,128,1,2092.29999999993,441265.80000000005,7152,lead,NF,C,435949,435949,434137,435246,434137,436229,435748,435748,436229,91
90,test,1,inc,1,m,Fri May 23 2025 13:23:54 GMT-0500 (Central Daylight Time),445244.80000000005,banana,800,I,m,m,None,550,334.0,216.0,93,1,1879.9000000000233,443364.9,7152,cobalt,NF,C,437781,437781,436236,437048,436236,438116,437564,437564,438116,92
91,test,1,con,1,z,Fri May 23 2025 13:23:54 GMT-0500 (Central Daylight Time),447225.30000000005,kiwi,1000,I,z,z,None,448,233.0,215.0,51,1,1976.0,445249.30000000005,7152,kiwi,NF,C,439863,439863,438120,439129,438121,440096,439647,439647,440096,93
92,test,1,inc,1,z,Fri May 23 2025 13:23:54 GMT-0500 (Central Daylight Time),449041.19999999995,bronze,800,I,z,z,None,480,265.0,215.0,29,1,1809.2999999999302,447231.9,7152,raisin,NF,C,441630,441630,440103,440913,440103,441912,441414,441414,441912,94
93,test,1,inc,1,z,Fri May 23 2025 13:23:54 GMT-0500 (Central Daylight Time),450973.6,copper,900,I,z,z,None,494,294.0,200.0,22,1,1926.0,449047.6,7152,orange,NF,C,443545,443545,441919,442829,441919,443845,443345,443345,443845,95
94,test,1,con,1,z,Fri May 23 2025 13:23:54 GMT-0500 (Central Daylight Time),453005.1,cherry,1100,I,z,z,None,386,187.0,199.0,12,1,2025.5,450979.6,7152,cherry,NF,C,445676,445676,443851,444960,443851,445876,445476,445476,445876,96
94,test,1,con,0,m,Fri May 23 2025 13:23:54 GMT-0500 (Central Daylight Time),455103.69999999995,cobalt,1100,I,z,z,None,450,250.0,200.0,92,1,2091.5999999999767,453012.1,7152,cobalt,NF,C,447708,447708,445883,446992,445884,447975,447508,447508,447975,97
95,test,1,con,1,z,Fri May 23 2025 13:23:54 GMT-0500 (Central Daylight Time),457053.1,orange,800,I,z,z,None,601,402.0,199.0,17,1,1946.9000000000233,455106.19999999995,7152,orange,NF,C,449508,449508,447977,448791,447978,449924,449308,449308,449924,98
96,test,1,inc,1,z,Fri May 23 2025 13:23:54 GMT-0500 (Central Daylight Time),459304.6,lead,1100,I,z,z,None,607,391.0,216.0,56,1,2248.4000000000233,457056.19999999995,7152,kiwi,NF,C,451776,451776,449927,451043,449928,452176,451559,451559,452176,99
97,test,1,inc,1,m,Fri May 23 2025 13:23:54 GMT-0500 (Central Daylight Time),461486.9,plum,1100,I,m,m,None,535,335.0,200.0,120,1,2177.20000000007,459309.69999999995,7152,zinc,NF,C,454008,454008,452181,453293,452181,454358,453808,453808,454358,100
98,test,1,con,1,z,Fri May 23 2025 13:23:54 GMT-0500 (Central Daylight Time),463669.5,orange,1000,I,z,z,None,645,444.0,201.0,19,1,2178.3000000000466,461491.19999999995,7152,orange,NF,C,456092,456092,454362,455374,454363,456541,455891,455891,456540,101
99,test,1,con,1,m,Fri May 23 2025 13:23:54 GMT-0500 (Central Daylight Time),465535.6,silver,800,I,m,m,None,518,317.0,201.0,81,1,1859.9000000000233,463675.69999999995,7152,silver,NF,C,458074,458074,456547,457357,456547,458407,457873,457873,458407,102
100,test,1,inc,1,m,Fri May 23 2025 13:23:54 GMT-0500 (Central Daylight Time),467484.6,pear,900,I,m,m,None,518,304.0,214.0,110,1,1945.0999999999767,465539.5,7152,iron,NF,C,460039,460039,458411,459323,458411,460356,459825,459825,460356,103
101,test,1,con,1,z,Fri May 23 2025 13:23:54 GMT-0500 (Central Daylight Time),469584.30000000005,pear,1100,I,z,z,None,458,259.0,199.0,44,1,2094.70000000007,467489.6,7152,pear,NF,C,462189,462189,460361,461472,460361,462455,461990,461990,462455,104
102,test,1,con,1,z,Fri May 23 2025 13:23:54 GMT-0500 (Central Daylight Time),471585.9,banana,1000,I,z,z,None,471,269.0,202.0,3,1,1995.5999999999767,469590.30000000005,7152,banana,NF,C,464188,464188,462461,463473,462462,464457,463986,463986,464457,105
103,test,1,con,1,m,Fri May 23 2025 13:23:54 GMT-0500 (Central Daylight Time),473483.4,iron,900,I,m,m,None,480,267.0,213.0,106,1,1893.9000000000233,471589.5,7152,iron,NF,C,466087,466087,464461,465371,464461,466354,465874,465874,466354,106
104,test,1,con,1,z,Fri May 23 2025 13:23:54 GMT-0500 (Central Daylight Time),475631.19999999995,kiwi,1100,I,z,z,None,508,308.0,200.0,52,1,2144.5999999999767,473486.6,7152,kiwi,NF,C,468188,468188,466358,467471,466358,468502,467987,467987,468502,107
105,test,1,inc,1,m,Fri May 23 2025 13:23:54 GMT-0500 (Central Daylight Time),477498.5,banana,800,I,m,m,None,536,336.0,200.0,69,1,1863.9000000000233,475634.6,7152,bronze,NF,C,470022,470022,468506,469319,468506,470370,469820,469821,470369,108
106,test,1,inc,1,m,Fri May 23 2025 13:23:54 GMT-0500 (Central Daylight Time),479646.80000000005,plum,1100,I,m,m,None,499,284.0,215.0,112,1,2142.100000000093,477504.69999999995,7152,iron,NF,C,472218,472219,470376,471486,470376,472518,472003,472003,472518,109
107,test,1,con,1,m,Fri May 23 2025 13:23:54 GMT-0500 (Central Daylight Time),481845.4,gold,1100,I,m,m,None,575,361.0,214.0,100,1,2195.0,479650.4,7152,gold,NF,C,474350,474350,472521,473635,472522,474716,474136,474136,474716,110
108,test,1,con,1,z,Fri May 23 2025 13:23:54 GMT-0500 (Central Daylight Time),483696.6,pear,800,I,z,z,None,532,332.0,200.0,41,1,1848.4000000000233,481848.19999999995,7152,pear,NF,C,476235,476235,474719,475532,474720,476568,476035,476035,476568,111
109,test,1,inc,1,z,Fri May 23 2025 13:23:54 GMT-0500 (Central Daylight Time),485912.19999999995,lead,1100,I,z,z,None,587,374.0,213.0,48,1,2210.399999999907,483701.80000000005,7152,pear,NF,C,478401,478401,476573,477684,476573,478783,478187,478187,478783,112
110,test,1,con,1,m,Fri May 23 2025 13:23:54 GMT-0500 (Central Daylight Time),487860.9,gold,1000,I,m,m,None,409,210.0,199.0,99,1,1943.4000000000233,485917.5,7152,gold,NF,C,480517,480517,478789,479800,478789,480732,480317,480317,480732,113
111,test,1,con,1,m,Fri May 23 2025 13:23:54 GMT-0500 (Central Daylight Time),489827.1,gold,900,I,m,m,None,521,322.0,199.0,98,1,1960.4000000000233,487866.69999999995,7152,gold,NF,C,482365,482365,480738,481650,480738,482698,482166,482166,482698,114
112,test,1,inc,1,z,Fri May 23 2025 13:23:54 GMT-0500 (Central Daylight Time),491777.69999999995,zinc,1000,I,z,z,None,408,207.0,201.0,47,1,1943.5,489834.19999999995,7152,pear,NF,C,484433,484433,482705,483718,482706,484649,484232,484232,484649,115
113,test,1,con,1,m,Fri May 23 2025 13:23:54 GMT-0500 (Central Daylight Time),493776.0,copper,900,I,m,m,None,554,341.0,213.0,74,1,1993.6999999999534,491782.30000000005,7152,copper,NF,C,486298,486298,484653,485565,484654,486647,486084,486084,486647,116
114,test,1,con,1,m,Fri May 23 2025 13:23:54 GMT-0500 (Central Daylight Time),495643.19999999995,gold,800,I,m,m,None,524,323.0,201.0,97,1,1862.5,493780.69999999995,7152,gold,NF,C,488180,488180,486652,487465,486652,488514,487979,487979,488514,117
115,test,1,inc,1,z,Fri May 23 2025 13:23:54 GMT-0500 (Central Daylight Time),497942.69999999995,lead,1100,I,z,z,None,663,462.0,201.0,64,1,2294.6999999999534,495648.0,7152,plum,NF,C,490346,490346,488519,489631,488519,490814,490145,490145,490814,118
116,test,1,inc,1,m,Fri May 23 2025 13:23:54 GMT-0500 (Central Daylight Time),499890.4,banana,800,I,m,m,None,598,399.0,199.0,85,1,1943.3000000000466,497947.1,7152,silver,NF,C,492346,492346,490818,491631,490818,492761,492146,492146,492761,119
117,test,1,con,1,z,Fri May 23 2025 13:23:54 GMT-0500 (Central Daylight Time),501707.0,banana,800,I,z,z,None,483,283.0,200.0,1,1,1811.0,499896.0,7152,banana,NF,C,494295,494295,492767,493579,492767,494578,494095,494095,494578,120
118,test,1,inc,1,z,Fri May 23 2025 13:23:54 GMT-0500 (Central Daylight Time),503939.6,lead,1100,I,z,z,None,588,385.0,203.0,40,1,2227.9000000000233,501711.69999999995,7152,lime,NF,C,496414,496414,494583,495694,494583,496811,496210,496210,496811,121
119,test,1,con,1,m,Fri May 23 2025 13:23:54 GMT-0500 (Central Daylight Time),506106.0,iron,1100,I,m,m,None,523,324.0,199.0,108,1,2162.1999999999534,503943.80000000005,7152,iron,NF,C,498644,498644,496815,497928,496815,498977,498445,498445,498977,122
120,test,1,inc,1,z,Fri May 23 2025 13:23:54 GMT-0500 (Central Daylight Time),508288.0,zinc,1000,I,z,z,None,641,440.0,201.0,55,1,2177.0999999999767,506110.9,7152,kiwi,NF,C,500711,500711,498982,499993,498982,501159,500510,500510,501159,123
121,test,1,inc,1,m,Fri May 23 2025 13:23:54 GMT-0500 (Central Daylight Time),510304.19999999995,kiwi,1000,I,m,m,None,473,274.0,199.0,103,1,2011.5,508292.69999999995,7152,gold,NF,C,502894,502894,501164,502177,501164,503175,502693,502693,503175,124
122,test,1,con,1,m,Fri May 23 2025 13:23:54 GMT-0500 (Central Daylight Time),512402.0,zinc,1000,I,m,m,None,556,356.0,200.0,115,1,2093.1999999999534,510308.80000000005,7152,zinc,NF,C,504907,504907,503180,504192,503180,505273,504707,504707,505273,125
123,test,1,con,1,z,Fri May 23 2025 13:23:54 GMT-0500 (Central Daylight Time),514635.19999999995,plum,1000,I,z,z,None,694,493.0,201.0,59,1,2230.399999999907,512404.80000000005,7152,plum,NF,C,507010,507010,505276,506293,505276,507506,506808,506808,507506,126
124,test,1,con,1,z,Fri May 23 2025 13:23:54 GMT-0500 (Central Daylight Time),516950.0,orange,1100,I,z,z,None,667,467.0,200.0,20,1,2312.1999999999534,514637.80000000005,7152,orange,NF,C,509339,509339,507509,508623,507509,509821,509138,509138,509821,127
125,test,1,inc,1,m,Fri May 23 2025 13:23:54 GMT-0500 (Central Daylight Time),518984.80000000005,plum,1100,I,m,m,None,390,190.0,200.0,104,1,2031.6000000000931,516953.19999999995,7152,gold,NF,C,511657,511657,509824,510942,509824,511856,511457,511457,511856,128
