acc_sum,block,block_c,block_cond,con_img,correct,correct_response,datetime,endtime,face,jitter,line,project,response,response_time,row_sel,session_number,start_end,starttime,subject_id,task,task_vers,trial
1,prac,1,A,haborder.png,1,z,Fri May 01 2026 10:06:16 GMT-0500 (Central Daylight Time),67592.0,CFD-BF-050-012-A.jpg,1200,solid,O,z,1473,6,1,3467.3000000715256,64124.699999928474,7793,ATS,B,1
2,prac,1,A,haborder.png,1,z,Fri May 01 2026 10:06:16 GMT-0500 (Central Daylight Time),71224.09999990463,CFD-WF-026-008-A.jpg,1600,solid,O,z,1245,10,1,7099.399999976158,64124.699999928474,7793,ATS,B,2
3,prac,1,A,haborder.png,1,m,Fri May 01 2026 10:06:16 GMT-0500 (Central Daylight Time),74873.19999992847,CFD-BM-015-017-HC.jpg,1700,solid,O,m,1156,1,1,10748.5,64124.699999928474,7793,ATS,B,3
4,prac,1,A,haborder.png,1,m,Fri May 01 2026 10:06:16 GMT-0500 (Central Daylight Time),77838.89999997616,CFD-WM-011-006-HC.jpg,1400,solid,O,m,767,7,1,13714.200000047684,64124.699999928474,7793,ATS,B,4
5,prac,1,A,haborder.png,1,m,Fri May 01 2026 10:06:16 GMT-0500 (Central Daylight Time),81371.19999992847,CFD-WM-012-007-HC.jpg,1700,solid,O,m,1046,9,1,17246.5,64124.699999928474,7793,ATS,B,5
6,prac,1,A,haborder.png,1,m,Fri May 01 2026 10:06:16 GMT-0500 (Central Daylight Time),84504.09999990463,CFD-BM-020-024-HC.jpg,1500,solid,O,m,834,3,1,20379.399999976158,64124.699999928474,7793,ATS,B,6
7,prac,1,A,haborder.png,1,m,Fri May 01 2026 10:06:16 GMT-0500 (Central Daylight Time),88251.5,CFD-BF-035-007-HC.jpg,2000,solid,O,m,952,5,1,24126.800000071526,64124.699999928474,7793,ATS,B,7
8,prac,1,A,haborder.png,1,m,Fri May 01 2026 10:06:16 GMT-0500 (Central Daylight Time),91218.59999990463,CFD-WF-011-006-HC.jpg,1500,solid,O,m,664,11,1,27093.899999976158,64124.699999928474,7793,ATS,B,8
9,prac,1,A,haborder.png,1,z,Fri May 01 2026 10:06:16 GMT-0500 (Central Daylight Time),93617.0,CFD-WF-013-015-A.jpg,1000,solid,O,z,606,12,1,29492.300000071526,64124.699999928474,7793,ATS,B,9
10,prac,1,A,haborder.png,1,z,Fri May 01 2026 10:06:16 GMT-0500 (Central Daylight Time),96016.89999997616,CFD-BF-051-043-A.jpg,1000,solid,O,z,599,4,1,31892.200000047684,64124.699999928474,7793,ATS,B,10
11,prac,1,A,haborder.png,1,z,Fri May 01 2026 10:06:16 GMT-0500 (Central Daylight Time),99382.29999995232,CFD-WM-009-009-A.jpg,1900,solid,O,z,678,8,1,35257.60000002384,64124.699999928474,7793,ATS,B,11
12,prac,1,A,haborder.png,1,z,Fri May 01 2026 10:06:16 GMT-0500 (Central Daylight Time),102498.39999997616,CFD-BM-037-041-A.jpg,1600,solid,O,z,746,2,1,38373.700000047684,64124.699999928474,7793,ATS,B,12
0,prac,1,B,mfborder.png,0,z,Fri May 01 2026 10:06:16 GMT-0500 (Central Daylight Time),146384.29999995232,CFD-BF-027-013-HC.jpg,1500,dash,O,None,1514,3,1,3781.899999976158,142602.39999997616,7793,ATS,B,1
0,prac,1,B,mfborder.png,0,m,Fri May 01 2026 10:06:16 GMT-0500 (Central Daylight Time),149530.5,CFD-WM-037-060-A.jpg,1200,dash,O,z,1161,6,1,6928.100000023842,142602.39999997616,7793,ATS,B,2
0,prac,1,B,mfborder.png,0,z,Fri May 01 2026 10:06:16 GMT-0500 (Central Daylight Time),153330.69999992847,CFD-WF-026-008-A.jpg,1500,dash,O,None,1515,11,1,10728.299999952316,142602.39999997616,7793,ATS,B,3
1,prac,1,B,mfborder.png,1,m,Fri May 01 2026 10:06:16 GMT-0500 (Central Daylight Time),156663.89999997616,CFD-WM-012-007-HC.jpg,1600,dash,O,m,955,10,1,14061.5,142602.39999997616,7793,ATS,B,4
2,prac,1,B,mfborder.png,1,z,Fri May 01 2026 10:06:16 GMT-0500 (Central Daylight Time),159345.5,CFD-BF-051-043-A.jpg,1000,dash,O,z,889,4,1,16743.100000023842,142602.39999997616,7793,ATS,B,5
3,prac,1,B,mfborder.png,1,m,Fri May 01 2026 10:06:16 GMT-0500 (Central Daylight Time),162811.39999997616,CFD-BM-020-024-HC.jpg,1700,dash,O,m,978,1,1,20209.0,142602.39999997616,7793,ATS,B,6
3,prac,1,B,mfborder.png,0,z,Fri May 01 2026 10:06:16 GMT-0500 (Central Daylight Time),166326.59999990463,CFD-WF-027-007-HC.jpg,1900,dash,O,m,823,8,1,23724.199999928474,142602.39999997616,7793,ATS,B,7
3,prac,1,B,mfborder.png,0,m,Fri May 01 2026 10:06:16 GMT-0500 (Central Daylight Time),169509.19999992847,CFD-WM-009-009-A.jpg,1700,dash,O,z,683,9,1,26906.799999952316,142602.39999997616,7793,ATS,B,8
3,prac,1,B,mfborder.png,0,m,Fri May 01 2026 10:06:16 GMT-0500 (Central Daylight Time),173809.0,CFD-BM-037-041-A.jpg,2000,dash,O,None,1515,5,1,31206.600000023842,142602.39999997616,7793,ATS,B,9
4,prac,1,B,mfborder.png,1,z,Fri May 01 2026 10:06:16 GMT-0500 (Central Daylight Time),176990.39999997616,CFD-WF-011-006-HC.jpg,1000,dash,O,z,1383,12,1,34388.0,142602.39999997616,7793,ATS,B,10
5,prac,1,B,mfborder.png,1,z,Fri May 01 2026 10:06:16 GMT-0500 (Central Daylight Time),179807.0,CFD-BF-035-007-HC.jpg,1400,dash,O,z,644,7,1,37204.60000002384,142602.39999997616,7793,ATS,B,11
6,prac,1,B,mfborder.png,1,m,Fri May 01 2026 10:06:16 GMT-0500 (Central Daylight Time),183205.79999995232,CFD-BM-041-048-A.jpg,1600,dash,O,m,1017,2,1,40603.39999997616,142602.39999997616,7793,ATS,B,12
1,prac,2,B,mfborder.png,1,z,Fri May 01 2026 10:06:16 GMT-0500 (Central Daylight Time),191286.39999997616,CFD-WF-027-007-HC.jpg,1900,dash,O,z,1092,8,1,48684.0,142602.39999997616,7793,ATS,B,1
2,prac,2,B,mfborder.png,1,m,Fri May 01 2026 10:06:16 GMT-0500 (Central Daylight Time),194735.29999995232,CFD-WM-012-007-HC.jpg,1600,dash,O,m,1047,10,1,52132.89999997616,142602.39999997616,7793,ATS,B,2
3,prac,2,B,mfborder.png,1,m,Fri May 01 2026 10:06:16 GMT-0500 (Central Daylight Time),197801.29999995232,CFD-BM-020-024-HC.jpg,1700,dash,O,m,583,1,1,55198.89999997616,142602.39999997616,7793,ATS,B,3
4,prac,2,B,mfborder.png,1,z,Fri May 01 2026 10:06:16 GMT-0500 (Central Daylight Time),200982.19999992847,CFD-BF-027-013-HC.jpg,1500,dash,O,z,892,3,1,58379.799999952316,142602.39999997616,7793,ATS,B,4
5,prac,2,B,mfborder.png,1,z,Fri May 01 2026 10:06:16 GMT-0500 (Central Daylight Time),203449.0,CFD-WF-011-006-HC.jpg,1000,dash,O,z,681,12,1,60846.60000002384,142602.39999997616,7793,ATS,B,5
6,prac,2,B,mfborder.png,1,z,Fri May 01 2026 10:06:16 GMT-0500 (Central Daylight Time),206082.69999992847,CFD-BF-051-043-A.jpg,1000,dash,O,z,864,4,1,63480.299999952316,142602.39999997616,7793,ATS,B,6
7,prac,2,B,mfborder.png,1,z,Fri May 01 2026 10:06:16 GMT-0500 (Central Daylight Time),208996.39999997616,CFD-BF-035-007-HC.jpg,1400,dash,O,z,717,7,1,66394.0,142602.39999997616,7793,ATS,B,7
8,prac,2,B,mfborder.png,1,z,Fri May 01 2026 10:06:16 GMT-0500 (Central Daylight Time),212130.09999990463,CFD-WF-026-008-A.jpg,1500,dash,O,z,855,11,1,69527.69999992847,142602.39999997616,7793,ATS,B,8
9,prac,2,B,mfborder.png,1,m,Fri May 01 2026 10:06:16 GMT-0500 (Central Daylight Time),215328.39999997616,CFD-BM-041-048-A.jpg,1600,dash,O,m,815,2,1,72726.0,142602.39999997616,7793,ATS,B,9
10,prac,2,B,mfborder.png,1,m,Fri May 01 2026 10:06:16 GMT-0500 (Central Daylight Time),218427.0,CFD-WM-009-009-A.jpg,1700,dash,O,m,611,9,1,75824.60000002384,142602.39999997616,7793,ATS,B,10
11,prac,2,B,mfborder.png,1,m,Fri May 01 2026 10:06:16 GMT-0500 (Central Daylight Time),221243.19999992847,CFD-WM-037-060-A.jpg,1200,dash,O,m,819,6,1,78640.79999995232,142602.39999997616,7793,ATS,B,11
12,prac,2,B,mfborder.png,1,m,Fri May 01 2026 10:06:16 GMT-0500 (Central Daylight Time),224641.69999992847,CFD-BM-037-041-A.jpg,2000,dash,O,m,606,5,1,82039.29999995232,142602.39999997616,7793,ATS,B,12
1,test,1,A,haborder.png,1,z,Fri May 01 2026 10:06:16 GMT-0500 (Central Daylight Time),250668.29999995232,CFD-BF-051-043-A.jpg,1000,solid,O,z,538,4,1,1567.5,249100.79999995232,7793,ATS,B,1
2,test,1,A,haborder.png,1,m,Fri May 01 2026 10:06:16 GMT-0500 (Central Daylight Time),252966.0,CFD-WF-011-006-HC.jpg,1500,solid,O,m,769,11,1,3865.2000000476837,249100.79999995232,7793,ATS,B,2
3,test,1,A,haborder.png,1,m,Fri May 01 2026 10:06:16 GMT-0500 (Central Daylight Time),255114.59999990463,CFD-WF-011-006-HC.jpg,1500,solid,O,m,630,11,1,6013.799999952316,249100.79999995232,7793,ATS,B,3
4,test,1,A,haborder.png,1,z,Fri May 01 2026 10:06:16 GMT-0500 (Central Daylight Time),257881.19999992847,CFD-WM-009-009-A.jpg,1900,solid,O,z,840,8,1,8780.399999976158,249100.79999995232,7793,ATS,B,4
5,test,1,A,haborder.png,1,z,Fri May 01 2026 10:06:16 GMT-0500 (Central Daylight Time),260363.29999995232,CFD-WM-009-009-A.jpg,1900,solid,O,z,555,8,1,11262.5,249100.79999995232,7793,ATS,B,5
6,test,1,A,haborder.png,1,m,Fri May 01 2026 10:06:16 GMT-0500 (Central Daylight Time),262713.1999999285,CFD-BM-020-024-HC.jpg,1500,solid,O,m,832,3,1,13612.399999976158,249100.79999995232,7793,ATS,B,6
7,test,1,A,haborder.png,1,z,Fri May 01 2026 10:06:16 GMT-0500 (Central Daylight Time),264879.0,CFD-WF-013-015-A.jpg,1000,solid,O,z,1131,12,1,15778.200000047684,249100.79999995232,7793,ATS,B,7
7,test,1,A,haborder.png,0,m,Fri May 01 2026 10:06:16 GMT-0500 (Central Daylight Time),268410.6999999285,CFD-BF-035-007-HC.jpg,2000,solid,O,None,1511,5,1,19309.899999976158,249100.79999995232,7793,ATS,B,8
8,test,1,A,haborder.png,1,m,Fri May 01 2026 10:06:16 GMT-0500 (Central Daylight Time),270909.09999990463,CFD-WM-012-007-HC.jpg,1700,solid,O,m,768,9,1,21808.299999952316,249100.79999995232,7793,ATS,B,9
9,test,1,A,haborder.png,1,z,Fri May 01 2026 10:06:16 GMT-0500 (Central Daylight Time),273392.89999997616,CFD-BM-037-041-A.jpg,1600,solid,O,z,858,2,1,24292.100000023842,249100.79999995232,7793,ATS,B,10
10,test,1,A,haborder.png,1,z,Fri May 01 2026 10:06:16 GMT-0500 (Central Daylight Time),275640.89999997616,CFD-WF-026-008-A.jpg,1600,solid,O,z,629,10,1,26540.100000023842,249100.79999995232,7793,ATS,B,11
11,test,1,A,haborder.png,1,m,Fri May 01 2026 10:06:16 GMT-0500 (Central Daylight Time),278625.5,CFD-BF-035-007-HC.jpg,2000,solid,O,m,967,5,1,29524.700000047684,249100.79999995232,7793,ATS,B,12
12,test,1,A,haborder.png,1,z,Fri May 01 2026 10:06:16 GMT-0500 (Central Daylight Time),280474.1999999285,CFD-WF-013-015-A.jpg,1000,solid,O,z,824,12,1,31373.399999976158,249100.79999995232,7793,ATS,B,13
13,test,1,A,haborder.png,1,m,Fri May 01 2026 10:06:16 GMT-0500 (Central Daylight Time),283540.09999990463,CFD-BM-015-017-HC.jpg,1700,solid,O,m,1349,1,1,34439.299999952316,249100.79999995232,7793,ATS,B,14
14,test,1,A,haborder.png,1,m,Fri May 01 2026 10:06:16 GMT-0500 (Central Daylight Time),285937.6999999285,CFD-BM-015-017-HC.jpg,1700,solid,O,m,670,1,1,36836.89999997616,249100.79999995232,7793,ATS,B,15
15,test,1,A,haborder.png,1,z,Fri May 01 2026 10:06:16 GMT-0500 (Central Daylight Time),287906.1999999285,CFD-BF-050-012-A.jpg,1200,solid,O,z,749,6,1,38805.39999997616,249100.79999995232,7793,ATS,B,16
15,test,1,A,haborder.png,0,z,Fri May 01 2026 10:06:16 GMT-0500 (Central Daylight Time),290620.89999997616,CFD-WF-026-008-A.jpg,1600,solid,O,m,1095,10,1,41520.10000002384,249100.79999995232,7793,ATS,B,17
16,test,1,A,haborder.png,1,z,Fri May 01 2026 10:06:16 GMT-0500 (Central Daylight Time),292936.59999990463,CFD-BF-050-012-A.jpg,1200,solid,O,z,1091,6,1,43835.799999952316,249100.79999995232,7793,ATS,B,18
16,test,1,A,haborder.png,0,z,Fri May 01 2026 10:06:16 GMT-0500 (Central Daylight Time),295469.5,CFD-BF-051-043-A.jpg,1000,solid,O,None,1515,4,1,46368.700000047684,249100.79999995232,7793,ATS,B,19
17,test,1,A,haborder.png,1,m,Fri May 01 2026 10:06:16 GMT-0500 (Central Daylight Time),297568.5,CFD-BM-020-024-HC.jpg,1500,solid,O,m,575,3,1,48467.700000047684,249100.79999995232,7793,ATS,B,20
18,test,1,A,haborder.png,1,z,Fri May 01 2026 10:06:16 GMT-0500 (Central Daylight Time),299884.09999990463,CFD-BM-037-041-A.jpg,1600,solid,O,z,695,2,1,50783.299999952316,249100.79999995232,7793,ATS,B,21
19,test,1,A,haborder.png,1,m,Fri May 01 2026 10:06:16 GMT-0500 (Central Daylight Time),301981.89999997616,CFD-WM-011-006-HC.jpg,1400,solid,O,m,673,7,1,52881.10000002384,249100.79999995232,7793,ATS,B,22
20,test,1,A,haborder.png,1,m,Fri May 01 2026 10:06:16 GMT-0500 (Central Daylight Time),303934.39999997616,CFD-WM-011-006-HC.jpg,1400,solid,O,m,521,7,1,54833.60000002384,249100.79999995232,7793,ATS,B,23
21,test,1,A,haborder.png,1,m,Fri May 01 2026 10:06:16 GMT-0500 (Central Daylight Time),306314.2999999523,CFD-WM-012-007-HC.jpg,1700,solid,O,m,663,9,1,57213.5,249100.79999995232,7793,ATS,B,24
1,test,1,B,mfborder.png,1,m,Fri May 01 2026 10:06:16 GMT-0500 (Central Daylight Time),400119.59999990463,CFD-BM-041-048-A.jpg,1600,dash,O,m,959,2,1,2582.0,397537.59999990463,7793,ATS,B,1
2,test,1,B,mfborder.png,1,z,Fri May 01 2026 10:06:16 GMT-0500 (Central Daylight Time),401986.0,CFD-BF-051-043-A.jpg,1000,dash,O,z,848,4,1,4448.400000095367,397537.59999990463,7793,ATS,B,2
3,test,1,B,mfborder.png,1,z,Fri May 01 2026 10:06:16 GMT-0500 (Central Daylight Time),404117.2999999523,CFD-WF-026-008-A.jpg,1500,dash,O,z,612,11,1,6579.700000047684,397537.59999990463,7793,ATS,B,3
4,test,1,B,mfborder.png,1,m,Fri May 01 2026 10:06:16 GMT-0500 (Central Daylight Time),406317.7999999523,CFD-BM-041-048-A.jpg,1600,dash,O,m,570,2,1,8780.200000047684,397537.59999990463,7793,ATS,B,4
5,test,1,B,mfborder.png,1,z,Fri May 01 2026 10:06:16 GMT-0500 (Central Daylight Time),408550.09999990463,CFD-BF-027-013-HC.jpg,1500,dash,O,z,702,3,1,11012.5,397537.59999990463,7793,ATS,B,5
6,test,1,B,mfborder.png,1,z,Fri May 01 2026 10:06:16 GMT-0500 (Central Daylight Time),410666.0,CFD-WF-026-008-A.jpg,1500,dash,O,z,591,11,1,13128.400000095367,397537.59999990463,7793,ATS,B,6
7,test,1,B,mfborder.png,1,m,Fri May 01 2026 10:06:16 GMT-0500 (Central Daylight Time),413165.09999990463,CFD-BM-020-024-HC.jpg,1700,dash,O,m,770,1,1,15627.5,397537.59999990463,7793,ATS,B,7
8,test,1,B,mfborder.png,1,m,Fri May 01 2026 10:06:16 GMT-0500 (Central Daylight Time),415164.1999999285,CFD-WM-037-060-A.jpg,1200,dash,O,m,770,6,1,17626.600000023842,397537.59999990463,7793,ATS,B,8
9,test,1,B,mfborder.png,1,z,Fri May 01 2026 10:06:16 GMT-0500 (Central Daylight Time),417413.09999990463,CFD-WF-011-006-HC.jpg,1000,dash,O,z,1220,12,1,19875.5,397537.59999990463,7793,ATS,B,9
10,test,1,B,mfborder.png,1,m,Fri May 01 2026 10:06:16 GMT-0500 (Central Daylight Time),419713.6999999285,CFD-BM-020-024-HC.jpg,1700,dash,O,m,582,1,1,22176.100000023842,397537.59999990463,7793,ATS,B,10
11,test,1,B,mfborder.png,1,z,Fri May 01 2026 10:06:16 GMT-0500 (Central Daylight Time),421795.39999997616,CFD-BF-027-013-HC.jpg,1500,dash,O,z,558,3,1,24257.800000071526,397537.59999990463,7793,ATS,B,11
12,test,1,B,mfborder.png,1,z,Fri May 01 2026 10:06:16 GMT-0500 (Central Daylight Time),424329.59999990463,CFD-WF-027-007-HC.jpg,1900,dash,O,z,617,8,1,26792.0,397537.59999990463,7793,ATS,B,12
13,test,1,B,mfborder.png,1,m,Fri May 01 2026 10:06:16 GMT-0500 (Central Daylight Time),426628.5,CFD-WM-009-009-A.jpg,1700,dash,O,m,584,9,1,29090.900000095367,397537.59999990463,7793,ATS,B,13
14,test,1,B,mfborder.png,1,m,Fri May 01 2026 10:06:16 GMT-0500 (Central Daylight Time),429210.89999997616,CFD-BM-037-041-A.jpg,2000,dash,O,m,566,5,1,31673.300000071526,397537.59999990463,7793,ATS,B,14
15,test,1,B,mfborder.png,1,z,Fri May 01 2026 10:06:16 GMT-0500 (Central Daylight Time),431359.0,CFD-BF-035-007-HC.jpg,1400,dash,O,z,727,7,1,33821.40000009537,397537.59999990463,7793,ATS,B,15
16,test,1,B,mfborder.png,1,m,Fri May 01 2026 10:06:16 GMT-0500 (Central Daylight Time),434109.09999990463,CFD-BM-037-041-A.jpg,2000,dash,O,m,715,5,1,36571.5,397537.59999990463,7793,ATS,B,16
17,test,1,B,mfborder.png,1,z,Fri May 01 2026 10:06:16 GMT-0500 (Central Daylight Time),435775.6999999285,CFD-BF-051-043-A.jpg,1000,dash,O,z,635,4,1,38238.10000002384,397537.59999990463,7793,ATS,B,17
18,test,1,B,mfborder.png,1,z,Fri May 01 2026 10:06:16 GMT-0500 (Central Daylight Time),438206.39999997616,CFD-WF-027-007-HC.jpg,1900,dash,O,z,510,8,1,40668.800000071526,397537.59999990463,7793,ATS,B,18
19,test,1,B,mfborder.png,1,m,Fri May 01 2026 10:06:16 GMT-0500 (Central Daylight Time),440506.1999999285,CFD-WM-009-009-A.jpg,1700,dash,O,m,572,9,1,42968.60000002384,397537.59999990463,7793,ATS,B,19
20,test,1,B,mfborder.png,1,m,Fri May 01 2026 10:06:16 GMT-0500 (Central Daylight Time),442788.09999990463,CFD-WM-012-007-HC.jpg,1600,dash,O,m,648,10,1,45250.5,397537.59999990463,7793,ATS,B,20
21,test,1,B,mfborder.png,1,m,Fri May 01 2026 10:06:16 GMT-0500 (Central Daylight Time),444773.09999990463,CFD-WM-037-060-A.jpg,1200,dash,O,m,758,6,1,47235.5,397537.59999990463,7793,ATS,B,21
22,test,1,B,mfborder.png,1,m,Fri May 01 2026 10:06:16 GMT-0500 (Central Daylight Time),447004.89999997616,CFD-WM-012-007-HC.jpg,1600,dash,O,m,605,10,1,49467.300000071526,397537.59999990463,7793,ATS,B,22
23,test,1,B,mfborder.png,1,z,Fri May 01 2026 10:06:16 GMT-0500 (Central Daylight Time),449070.09999990463,CFD-BF-035-007-HC.jpg,1400,dash,O,z,643,7,1,51532.5,397537.59999990463,7793,ATS,B,23
24,test,1,B,mfborder.png,1,z,Fri May 01 2026 10:06:16 GMT-0500 (Central Daylight Time),450636.0,CFD-WF-011-006-HC.jpg,1000,dash,O,z,539,12,1,53098.40000009537,397537.59999990463,7793,ATS,B,24
0,11,1,C,haborder.png,0,m,Fri May 01 2026 10:06:16 GMT-0500 (Central Daylight Time),621681.7999999523,CFD-WM-011-006-HC.jpg,1000,dash,O,None,1515,prac,1,3298.399999976158,618383.3999999762,7793,ATS,B,1
0,10,1,C,haborder.png,0,m,Fri May 01 2026 10:06:16 GMT-0500 (Central Daylight Time),625481.0,CFD-BM-020-024-HC.jpg,1500,solid,O,None,1515,prac,1,7097.600000023842,618383.3999999762,7793,ATS,B,2
0,1,1,C,mfborder.png,0,z,Fri May 01 2026 10:06:16 GMT-0500 (Central Daylight Time),629379.6999999285,CFD-WF-011-006-HC.jpg,1600,dash,O,None,1517,prac,1,10996.299999952316,618383.3999999762,7793,ATS,B,3
1,4,1,C,mfborder.png,1,m,Fri May 01 2026 10:06:16 GMT-0500 (Central Daylight Time),633262.5999999046,CFD-BM-015-017-HC.jpg,2000,solid,O,m,1109,prac,1,14879.199999928474,618383.3999999762,7793,ATS,B,4
1,9,1,C,haborder.png,0,z,Fri May 01 2026 10:06:16 GMT-0500 (Central Daylight Time),637161.0,CFD-WF-026-008-A.jpg,1600,dash,O,None,1514,prac,1,18777.600000023842,618383.3999999762,7793,ATS,B,5
2,2,1,C,mfborder.png,1,z,Fri May 01 2026 10:06:16 GMT-0500 (Central Daylight Time),640742.0,CFD-WF-013-015-A.jpg,1500,solid,O,z,1291,prac,1,22358.600000023842,618383.3999999762,7793,ATS,B,6
2,12,1,C,haborder.png,0,m,Fri May 01 2026 10:06:16 GMT-0500 (Central Daylight Time),644440.7999999523,CFD-WM-011-006-HC.jpg,1400,solid,O,None,1515,prac,1,26057.399999976158,618383.3999999762,7793,ATS,B,7
3,6,1,C,mfborder.png,1,m,Fri May 01 2026 10:06:16 GMT-0500 (Central Daylight Time),648057.0999999046,CFD-WM-009-009-A.jpg,1700,solid,O,m,1130,prac,1,29673.699999928474,618383.3999999762,7793,ATS,B,8
3,3,1,C,mfborder.png,0,z,Fri May 01 2026 10:06:16 GMT-0500 (Central Daylight Time),651355.7999999523,CFD-BF-035-007-HC.jpg,1000,dash,O,None,1516,prac,1,32972.39999997616,618383.3999999762,7793,ATS,B,9
4,5,1,C,mfborder.png,1,m,Fri May 01 2026 10:06:16 GMT-0500 (Central Daylight Time),654071.6999999285,CFD-BM-037-041-A.jpg,1200,dash,O,m,734,prac,1,35688.299999952316,618383.3999999762,7793,ATS,B,10
5,8,1,C,haborder.png,1,z,Fri May 01 2026 10:06:16 GMT-0500 (Central Daylight Time),657888.6999999285,CFD-BF-050-012-A.jpg,1700,solid,O,z,1342,prac,1,39505.299999952316,618383.3999999762,7793,ATS,B,11
6,7,1,C,haborder.png,1,z,Fri May 01 2026 10:06:16 GMT-0500 (Central Daylight Time),661688.5,CFD-BF-051-043-A.jpg,1900,dash,O,z,1100,prac,1,43305.10000002384,618383.3999999762,7793,ATS,B,12
0,9,2,C,haborder.png,0,z,Fri May 01 2026 10:06:16 GMT-0500 (Central Daylight Time),670967.1999999285,CFD-WF-026-008-A.jpg,1600,dash,O,None,1517,prac,1,52583.799999952316,618383.3999999762,7793,ATS,B,1
1,8,2,C,haborder.png,1,z,Fri May 01 2026 10:06:16 GMT-0500 (Central Daylight Time),674367.3999999762,CFD-BF-050-012-A.jpg,1700,solid,O,z,917,prac,1,55984.0,618383.3999999762,7793,ATS,B,2
2,12,2,C,haborder.png,1,m,Fri May 01 2026 10:06:16 GMT-0500 (Central Daylight Time),677881.7999999523,CFD-WM-011-006-HC.jpg,1400,solid,O,m,1331,prac,1,59498.39999997616,618383.3999999762,7793,ATS,B,3
3,2,2,C,mfborder.png,1,z,Fri May 01 2026 10:06:16 GMT-0500 (Central Daylight Time),681196.3999999762,CFD-WF-013-015-A.jpg,1500,solid,O,z,1019,prac,1,62813.0,618383.3999999762,7793,ATS,B,4
3,3,2,C,mfborder.png,0,z,Fri May 01 2026 10:06:16 GMT-0500 (Central Daylight Time),684480.0999999046,CFD-BF-035-007-HC.jpg,1000,dash,O,None,1516,prac,1,66096.69999992847,618383.3999999762,7793,ATS,B,5
4,11,2,C,haborder.png,1,m,Fri May 01 2026 10:06:16 GMT-0500 (Central Daylight Time),687261.8999999762,CFD-WM-011-006-HC.jpg,1000,dash,O,m,985,prac,1,68878.5,618383.3999999762,7793,ATS,B,6
4,1,2,C,mfborder.png,0,z,Fri May 01 2026 10:06:16 GMT-0500 (Central Daylight Time),691143.0999999046,CFD-WF-011-006-HC.jpg,1600,dash,O,None,1501,prac,1,72759.69999992847,618383.3999999762,7793,ATS,B,7
5,7,2,C,haborder.png,1,z,Fri May 01 2026 10:06:16 GMT-0500 (Central Daylight Time),694843.2999999523,CFD-BF-051-043-A.jpg,1900,dash,O,z,1005,prac,1,76459.89999997616,618383.3999999762,7793,ATS,B,8
6,4,2,C,mfborder.png,1,m,Fri May 01 2026 10:06:16 GMT-0500 (Central Daylight Time),698474.0999999046,CFD-BM-015-017-HC.jpg,2000,solid,O,m,849,prac,1,80090.69999992847,618383.3999999762,7793,ATS,B,9
7,5,2,C,mfborder.png,1,m,Fri May 01 2026 10:06:16 GMT-0500 (Central Daylight Time),701656.0,CFD-BM-037-041-A.jpg,1200,dash,O,m,1201,prac,1,83272.60000002384,618383.3999999762,7793,ATS,B,10
7,10,2,C,haborder.png,0,m,Fri May 01 2026 10:06:16 GMT-0500 (Central Daylight Time),705455.5999999046,CFD-BM-020-024-HC.jpg,1500,solid,O,None,1516,prac,1,87072.19999992847,618383.3999999762,7793,ATS,B,11
8,6,2,C,mfborder.png,1,m,Fri May 01 2026 10:06:16 GMT-0500 (Central Daylight Time),709154.0999999046,CFD-WM-009-009-A.jpg,1700,solid,O,m,1200,prac,1,90770.69999992847,618383.3999999762,7793,ATS,B,12
0,test,1,C,haborder.png,0,z,Fri May 01 2026 10:06:16 GMT-0500 (Central Daylight Time),741159.3999999762,CFD-BM-041-048-A.jpg,1700,solid,O,m,865,9,1,2581.3000000715256,738578.0999999046,7793,ATS,B,1
1,test,1,C,mfborder.png,1,z,Fri May 01 2026 10:06:16 GMT-0500 (Central Daylight Time),743594.2999999523,CFD-BF-027-013-HC.jpg,1700,dash,O,z,716,1,1,5016.200000047684,738578.0999999046,7793,ATS,B,2
1,test,1,C,mfborder.png,0,m,Fri May 01 2026 10:06:16 GMT-0500 (Central Daylight Time),746009.2999999523,CFD-BM-020-024-HC.jpg,1200,dash,O,z,1197,6,1,7431.200000047684,738578.0999999046,7793,ATS,B,3
1,test,1,C,mfborder.png,0,z,Fri May 01 2026 10:06:16 GMT-0500 (Central Daylight Time),749140.1999999285,CFD-BF-051-043-A.jpg,1600,dash,O,None,1515,2,1,10562.100000023842,738578.0999999046,7793,ATS,B,4
2,test,1,C,mfborder.png,1,z,Fri May 01 2026 10:06:16 GMT-0500 (Central Daylight Time),751959.0999999046,CFD-WF-026-008-A.jpg,1500,dash,O,z,1295,3,1,13381.0,738578.0999999046,7793,ATS,B,5
2,test,1,C,mfborder.png,0,m,Fri May 01 2026 10:06:16 GMT-0500 (Central Daylight Time),755472.8999999762,CFD-WM-037-060-A.jpg,2000,dash,O,None,1501,5,1,16894.800000071526,738578.0999999046,7793,ATS,B,6
3,test,1,C,haborder.png,1,m,Fri May 01 2026 10:06:16 GMT-0500 (Central Daylight Time),758471.0999999046,CFD-BF-035-007-HC.jpg,1600,solid,O,m,1367,10,1,19893.0,738578.0999999046,7793,ATS,B,7
4,test,1,C,haborder.png,1,z,Fri May 01 2026 10:06:16 GMT-0500 (Central Daylight Time),761387.2999999523,CFD-BM-041-048-A.jpg,1700,solid,O,z,1190,9,1,22809.200000047684,738578.0999999046,7793,ATS,B,8
4,test,1,C,haborder.png,0,m,Fri May 01 2026 10:06:16 GMT-0500 (Central Daylight Time),764137.2999999523,CFD-WF-027-007-HC.jpg,1500,solid,O,z,1217,11,1,25559.200000047684,738578.0999999046,7793,ATS,B,9
4,test,1,C,haborder.png,0,z,Fri May 01 2026 10:06:16 GMT-0500 (Central Daylight Time),767518.1999999285,CFD-BM-037-041-A.jpg,1900,solid,O,m,1450,8,1,28940.100000023842,738578.0999999046,7793,ATS,B,10
5,test,1,C,mfborder.png,1,z,Fri May 01 2026 10:06:16 GMT-0500 (Central Daylight Time),770417.7999999523,CFD-BF-051-043-A.jpg,1600,dash,O,z,1273,2,1,31839.700000047684,738578.0999999046,7793,ATS,B,11
5,test,1,C,haborder.png,0,m,Fri May 01 2026 10:06:16 GMT-0500 (Central Daylight Time),773448.5999999046,CFD-WF-027-007-HC.jpg,1500,solid,O,None,1515,11,1,34870.5,738578.0999999046,7793,ATS,B,12
5,test,1,C,haborder.png,0,z,Fri May 01 2026 10:06:16 GMT-0500 (Central Daylight Time),776382.8999999762,CFD-WM-009-009-A.jpg,1400,solid,O,None,1515,7,1,37804.800000071526,738578.0999999046,7793,ATS,B,13
5,test,1,C,haborder.png,0,m,Fri May 01 2026 10:06:16 GMT-0500 (Central Daylight Time),778799.5,CFD-BF-035-007-HC.jpg,1600,solid,O,z,784,10,1,40221.40000009537,738578.0999999046,7793,ATS,B,14
5,test,1,C,mfborder.png,0,m,Fri May 01 2026 10:06:16 GMT-0500 (Central Daylight Time),781330.7999999523,CFD-WM-012-007-HC.jpg,1000,dash,O,None,1516,4,1,42752.700000047684,738578.0999999046,7793,ATS,B,15
5,test,1,C,haborder.png,0,m,Fri May 01 2026 10:06:16 GMT-0500 (Central Daylight Time),783331.0999999046,CFD-WF-011-006-HC.jpg,1000,solid,O,z,983,12,1,44753.0,738578.0999999046,7793,ATS,B,16
5,test,1,C,haborder.png,0,m,Fri May 01 2026 10:06:16 GMT-0500 (Central Daylight Time),785079.7999999523,CFD-WF-011-006-HC.jpg,1000,solid,O,z,716,12,1,46501.700000047684,738578.0999999046,7793,ATS,B,17
6,test,1,C,mfborder.png,1,z,Fri May 01 2026 10:06:16 GMT-0500 (Central Daylight Time),787629.8999999762,CFD-BF-027-013-HC.jpg,1700,dash,O,z,820,1,1,49051.800000071526,738578.0999999046,7793,ATS,B,18
6,test,1,C,mfborder.png,0,m,Fri May 01 2026 10:06:16 GMT-0500 (Central Daylight Time),791162.0,CFD-WM-037-060-A.jpg,2000,dash,O,None,1515,5,1,52583.90000009537,738578.0999999046,7793,ATS,B,19
6,test,1,C,haborder.png,0,z,Fri May 01 2026 10:06:16 GMT-0500 (Central Daylight Time),794093.6999999285,CFD-WM-009-009-A.jpg,1400,solid,O,None,1515,7,1,55515.60000002384,738578.0999999046,7793,ATS,B,20
7,test,1,C,haborder.png,1,z,Fri May 01 2026 10:06:16 GMT-0500 (Central Daylight Time),797227.0999999046,CFD-BM-037-041-A.jpg,1900,solid,O,z,1217,8,1,58649.0,738578.0999999046,7793,ATS,B,21
8,test,1,C,mfborder.png,1,z,Fri May 01 2026 10:06:16 GMT-0500 (Central Daylight Time),799809.5999999046,CFD-WF-026-008-A.jpg,1500,dash,O,z,1066,3,1,61231.5,738578.0999999046,7793,ATS,B,22
9,test,1,C,mfborder.png,1,m,Fri May 01 2026 10:06:16 GMT-0500 (Central Daylight Time),801808.0,CFD-BM-020-024-HC.jpg,1200,dash,O,m,775,6,1,63229.90000009537,738578.0999999046,7793,ATS,B,23
10,test,1,C,mfborder.png,1,m,Fri May 01 2026 10:06:16 GMT-0500 (Central Daylight Time),803610.8999999762,CFD-WM-012-007-HC.jpg,1000,dash,O,m,768,4,1,65032.800000071526,738578.0999999046,7793,ATS,B,24
0,test,2,C,mfborder.png,0,m,Fri May 01 2026 10:06:16 GMT-0500 (Central Daylight Time),830566.1999999285,CFD-WM-009-009-A.jpg,1200,dash,O,None,1516,6,1,2731.7999999523163,827834.3999999762,7793,ATS,B,1
0,test,2,C,mfborder.png,0,z,Fri May 01 2026 10:06:16 GMT-0500 (Central Daylight Time),833597.0,CFD-BF-035-007-HC.jpg,1500,dash,O,None,1515,3,1,5762.600000023842,827834.3999999762,7793,ATS,B,2
1,test,2,C,mfborder.png,1,z,Fri May 01 2026 10:06:16 GMT-0500 (Central Daylight Time),836446.3999999762,CFD-WF-013-015-A.jpg,1600,dash,O,z,1219,2,1,8612.0,827834.3999999762,7793,ATS,B,3
1,test,2,C,haborder.png,0,z,Fri May 01 2026 10:06:16 GMT-0500 (Central Daylight Time),839878.5,CFD-BF-050-012-A.jpg,1900,solid,O,None,1515,8,1,12044.100000023842,827834.3999999762,7793,ATS,B,4
2,test,2,C,haborder.png,1,m,Fri May 01 2026 10:06:16 GMT-0500 (Central Daylight Time),842145.2999999523,CFD-WM-011-006-HC.jpg,1500,solid,O,m,749,11,1,14310.899999976158,827834.3999999762,7793,ATS,B,5
3,test,2,C,mfborder.png,1,z,Fri May 01 2026 10:06:16 GMT-0500 (Central Daylight Time),844510.2999999523,CFD-WF-013-015-A.jpg,1600,dash,O,z,744,2,1,16675.899999976158,827834.3999999762,7793,ATS,B,6
4,test,2,C,mfborder.png,1,m,Fri May 01 2026 10:06:16 GMT-0500 (Central Daylight Time),846610.5,CFD-BM-015-017-HC.jpg,1000,dash,O,m,1075,4,1,18776.100000023842,827834.3999999762,7793,ATS,B,7
4,test,2,C,haborder.png,0,m,Fri May 01 2026 10:06:16 GMT-0500 (Central Daylight Time),849744.3999999762,CFD-BM-020-024-HC.jpg,1600,solid,O,None,1518,10,1,21910.0,827834.3999999762,7793,ATS,B,8
5,test,2,C,haborder.png,1,m,Fri May 01 2026 10:06:16 GMT-0500 (Central Daylight Time),852107.0,CFD-BM-020-024-HC.jpg,1600,solid,O,m,745,10,1,24272.600000023842,827834.3999999762,7793,ATS,B,9
6,test,2,C,haborder.png,1,z,Fri May 01 2026 10:06:16 GMT-0500 (Central Daylight Time),854842.5,CFD-BF-051-043-A.jpg,1400,solid,O,z,1300,7,1,27008.100000023842,827834.3999999762,7793,ATS,B,10
7,test,2,C,haborder.png,1,m,Fri May 01 2026 10:06:16 GMT-0500 (Central Daylight Time),856890.8999999762,CFD-WM-011-006-HC.jpg,1000,solid,O,m,1032,12,1,29056.5,827834.3999999762,7793,ATS,B,11
7,test,2,C,mfborder.png,0,m,Fri May 01 2026 10:06:16 GMT-0500 (Central Daylight Time),859272.3999999762,CFD-BM-015-017-HC.jpg,1000,dash,O,z,1357,4,1,31438.0,827834.3999999762,7793,ATS,B,12
7,test,2,C,mfborder.png,0,m,Fri May 01 2026 10:06:16 GMT-0500 (Central Daylight Time),862688.6999999285,CFD-BM-037-041-A.jpg,2000,dash,O,z,1383,5,1,34854.299999952316,827834.3999999762,7793,ATS,B,13
8,test,2,C,haborder.png,1,z,Fri May 01 2026 10:06:16 GMT-0500 (Central Daylight Time),865604.3999999762,CFD-WF-026-008-A.jpg,1700,solid,O,z,1189,9,1,37770.0,827834.3999999762,7793,ATS,B,14
9,test,2,C,mfborder.png,1,m,Fri May 01 2026 10:06:16 GMT-0500 (Central Daylight Time),868236.6999999285,CFD-WM-009-009-A.jpg,1200,dash,O,m,1415,6,1,40402.299999952316,827834.3999999762,7793,ATS,B,15
9,test,2,C,haborder.png,0,m,Fri May 01 2026 10:06:16 GMT-0500 (Central Daylight Time),870769.7999999523,CFD-WM-011-006-HC.jpg,1000,solid,O,None,1516,12,1,42935.39999997616,827834.3999999762,7793,ATS,B,16
9,test,2,C,haborder.png,0,z,Fri May 01 2026 10:06:16 GMT-0500 (Central Daylight Time),874002.6999999285,CFD-WF-026-008-A.jpg,1700,solid,O,None,1516,9,1,46168.299999952316,827834.3999999762,7793,ATS,B,17
10,test,2,C,haborder.png,1,z,Fri May 01 2026 10:06:16 GMT-0500 (Central Daylight Time),876350.8999999762,CFD-BF-051-043-A.jpg,1400,solid,O,z,926,7,1,48516.5,827834.3999999762,7793,ATS,B,18
11,test,2,C,haborder.png,1,m,Fri May 01 2026 10:06:16 GMT-0500 (Central Daylight Time),878851.0,CFD-WM-011-006-HC.jpg,1500,solid,O,m,983,11,1,51016.60000002384,827834.3999999762,7793,ATS,B,19
11,test,2,C,mfborder.png,0,z,Fri May 01 2026 10:06:16 GMT-0500 (Central Daylight Time),881867.3999999762,CFD-BF-035-007-HC.jpg,1500,dash,O,None,1501,3,1,54033.0,827834.3999999762,7793,ATS,B,20
12,test,2,C,haborder.png,1,z,Fri May 01 2026 10:06:16 GMT-0500 (Central Daylight Time),884747.6999999285,CFD-BF-050-012-A.jpg,1900,solid,O,z,962,8,1,56913.299999952316,827834.3999999762,7793,ATS,B,21
12,test,2,C,mfborder.png,0,z,Fri May 01 2026 10:06:16 GMT-0500 (Central Daylight Time),887980.0,CFD-WF-011-006-HC.jpg,1700,dash,O,None,1515,1,1,60145.60000002384,827834.3999999762,7793,ATS,B,22
12,test,2,C,mfborder.png,0,m,Fri May 01 2026 10:06:16 GMT-0500 (Central Daylight Time),891396.0999999046,CFD-BM-037-041-A.jpg,2000,dash,O,z,1388,5,1,63561.699999928474,827834.3999999762,7793,ATS,B,23
12,test,2,C,mfborder.png,0,z,Fri May 01 2026 10:06:16 GMT-0500 (Central Daylight Time),893945.7999999523,CFD-WF-011-006-HC.jpg,1700,dash,O,m,817,1,1,66111.39999997616,827834.3999999762,7793,ATS,B,24
0,test,3,C,haborder.png,0,z,Fri May 01 2026 10:06:16 GMT-0500 (Central Daylight Time),907159.0999999046,CFD-BM-037-041-A.jpg,1900,solid,O,None,1501,8,1,3417.5999999046326,903741.5,7793,ATS,B,1
0,test,3,C,haborder.png,0,m,Fri May 01 2026 10:06:16 GMT-0500 (Central Daylight Time),909508.0,CFD-WF-011-006-HC.jpg,1000,solid,O,z,1333,12,1,5766.5,903741.5,7793,ATS,B,2
0,test,3,C,haborder.png,0,z,Fri May 01 2026 10:06:16 GMT-0500 (Central Daylight Time),912938.6999999285,CFD-BM-037-041-A.jpg,1900,solid,O,None,1515,8,1,9197.199999928474,903741.5,7793,ATS,B,3
0,test,3,C,mfborder.png,0,z,Fri May 01 2026 10:06:16 GMT-0500 (Central Daylight Time),915971.7999999523,CFD-WF-026-008-A.jpg,1500,dash,O,None,1516,3,1,12230.299999952316,903741.5,7793,ATS,B,4
0,test,3,C,haborder.png,0,z,Fri May 01 2026 10:06:16 GMT-0500 (Central Daylight Time),918904.0999999046,CFD-WM-009-009-A.jpg,1400,solid,O,None,1515,7,1,15162.599999904633,903741.5,7793,ATS,B,5
0,test,3,C,haborder.png,0,m,Fri May 01 2026 10:06:16 GMT-0500 (Central Daylight Time),921904.3999999762,CFD-WF-027-007-HC.jpg,1500,solid,O,z,1476,11,1,18162.899999976158,903741.5,7793,ATS,B,6
0,test,3,C,mfborder.png,0,m,Fri May 01 2026 10:06:16 GMT-0500 (Central Daylight Time),924635.5999999046,CFD-BM-020-024-HC.jpg,1200,dash,O,None,1515,6,1,20894.099999904633,903741.5,7793,ATS,B,7
0,test,3,C,haborder.png,0,z,Fri May 01 2026 10:06:16 GMT-0500 (Central Daylight Time),927867.5,CFD-BM-041-048-A.jpg,1700,solid,O,None,1515,9,1,24126.0,903741.5,7793,ATS,B,8
1,test,3,C,mfborder.png,1,m,Fri May 01 2026 10:06:16 GMT-0500 (Central Daylight Time),931218.1999999285,CFD-WM-037-060-A.jpg,2000,dash,O,m,1334,5,1,27476.699999928474,903741.5,7793,ATS,B,9
1,test,3,C,haborder.png,0,m,Fri May 01 2026 10:06:16 GMT-0500 (Central Daylight Time),934233.0,CFD-BF-035-007-HC.jpg,1600,solid,O,z,1384,10,1,30491.5,903741.5,7793,ATS,B,10
2,test,3,C,haborder.png,1,m,Fri May 01 2026 10:06:16 GMT-0500 (Central Daylight Time),936747.5999999046,CFD-WF-027-007-HC.jpg,1500,solid,O,m,995,11,1,33006.09999990463,903741.5,7793,ATS,B,11
3,test,3,C,haborder.png,1,z,Fri May 01 2026 10:06:16 GMT-0500 (Central Daylight Time),939380.6999999285,CFD-WM-009-009-A.jpg,1400,solid,O,z,1211,7,1,35639.199999928474,903741.5,7793,ATS,B,12
4,test,3,C,haborder.png,1,m,Fri May 01 2026 10:06:16 GMT-0500 (Central Daylight Time),941714.5999999046,CFD-WF-011-006-HC.jpg,1000,solid,O,m,1315,12,1,37973.09999990463,903741.5,7793,ATS,B,13
4,test,3,C,haborder.png,0,m,Fri May 01 2026 10:06:16 GMT-0500 (Central Daylight Time),944846.5,CFD-BF-035-007-HC.jpg,1600,solid,O,None,1516,10,1,41105.0,903741.5,7793,ATS,B,14
4,test,3,C,mfborder.png,0,m,Fri May 01 2026 10:06:16 GMT-0500 (Central Daylight Time),948345.8999999762,CFD-WM-037-060-A.jpg,2000,dash,O,z,1483,5,1,44604.39999997616,903741.5,7793,ATS,B,15
4,test,3,C,mfborder.png,0,z,Fri May 01 2026 10:06:16 GMT-0500 (Central Daylight Time),951477.0999999046,CFD-BF-051-043-A.jpg,1600,dash,O,None,1516,2,1,47735.59999990463,903741.5,7793,ATS,B,16
5,test,3,C,mfborder.png,1,z,Fri May 01 2026 10:06:16 GMT-0500 (Central Daylight Time),954560.0,CFD-BF-051-043-A.jpg,1600,dash,O,z,1451,2,1,50818.5,903741.5,7793,ATS,B,17
6,test,3,C,mfborder.png,1,m,Fri May 01 2026 10:06:16 GMT-0500 (Central Daylight Time),956844.0,CFD-WM-012-007-HC.jpg,1000,dash,O,m,1265,4,1,53102.5,903741.5,7793,ATS,B,18
6,test,3,C,mfborder.png,0,z,Fri May 01 2026 10:06:16 GMT-0500 (Central Daylight Time),960075.7999999523,CFD-BF-027-013-HC.jpg,1700,dash,O,None,1516,1,1,56334.299999952316,903741.5,7793,ATS,B,19
6,test,3,C,mfborder.png,0,z,Fri May 01 2026 10:06:16 GMT-0500 (Central Daylight Time),963107.5999999046,CFD-WF-026-008-A.jpg,1500,dash,O,None,1516,3,1,59366.09999990463,903741.5,7793,ATS,B,20
6,test,3,C,mfborder.png,0,m,Fri May 01 2026 10:06:16 GMT-0500 (Central Daylight Time),965837.3999999762,CFD-BM-020-024-HC.jpg,1200,dash,O,None,1513,6,1,62095.89999997616,903741.5,7793,ATS,B,21
6,test,3,C,haborder.png,0,z,Fri May 01 2026 10:06:16 GMT-0500 (Central Daylight Time),969071.8999999762,CFD-BM-041-048-A.jpg,1700,solid,O,None,1515,9,1,65330.39999997616,903741.5,7793,ATS,B,22
7,test,3,C,mfborder.png,1,m,Fri May 01 2026 10:06:16 GMT-0500 (Central Daylight Time),971305.0999999046,CFD-WM-012-007-HC.jpg,1000,dash,O,m,1214,4,1,67563.59999990463,903741.5,7793,ATS,B,23
7,test,3,C,mfborder.png,0,z,Fri May 01 2026 10:06:16 GMT-0500 (Central Daylight Time),974536.5,CFD-BF-027-013-HC.jpg,1700,dash,O,None,1516,1,1,70795.0,903741.5,7793,ATS,B,24
0,test,4,C,haborder.png,0,m,Fri May 01 2026 10:06:16 GMT-0500 (Central Daylight Time),980117.1999999285,CFD-WM-011-006-HC.jpg,1500,solid,O,None,1513,11,1,3033.100000023842,977084.0999999046,7793,ATS,B,1
0,test,4,C,mfborder.png,0,z,Fri May 01 2026 10:06:16 GMT-0500 (Central Daylight Time),983136.6999999285,CFD-BF-035-007-HC.jpg,1500,dash,O,None,1502,3,1,6052.600000023842,977084.0999999046,7793,ATS,B,2
1,test,4,C,haborder.png,1,m,Fri May 01 2026 10:06:16 GMT-0500 (Central Daylight Time),985117.5,CFD-WM-011-006-HC.jpg,1000,solid,O,m,951,12,1,8033.400000095367,977084.0999999046,7793,ATS,B,3
1,test,4,C,mfborder.png,0,m,Fri May 01 2026 10:06:16 GMT-0500 (Central Daylight Time),988466.5999999046,CFD-BM-037-041-A.jpg,2000,dash,O,z,1333,5,1,11382.5,977084.0999999046,7793,ATS,B,4
2,test,4,C,haborder.png,1,m,Fri May 01 2026 10:06:16 GMT-0500 (Central Daylight Time),990297.2999999523,CFD-WM-011-006-HC.jpg,1000,solid,O,m,808,12,1,13213.200000047684,977084.0999999046,7793,ATS,B,5
2,test,4,C,haborder.png,0,z,Fri May 01 2026 10:06:16 GMT-0500 (Central Daylight Time),993730.2999999523,CFD-BF-050-012-A.jpg,1900,solid,O,None,1515,8,1,16646.200000047684,977084.0999999046,7793,ATS,B,6
3,test,4,C,mfborder.png,1,z,Fri May 01 2026 10:06:16 GMT-0500 (Central Daylight Time),996578.3999999762,CFD-WF-011-006-HC.jpg,1700,dash,O,z,1133,1,1,19494.300000071526,977084.0999999046,7793,ATS,B,7
3,test,4,C,haborder.png,0,z,Fri May 01 2026 10:06:16 GMT-0500 (Central Daylight Time),999495.8999999762,CFD-BF-051-043-A.jpg,1400,solid,O,None,1501,7,1,22411.800000071526,977084.0999999046,7793,ATS,B,8
4,test,4,C,haborder.png,1,z,Fri May 01 2026 10:06:16 GMT-0500 (Central Daylight Time),1002861.0,CFD-BF-050-012-A.jpg,1900,solid,O,z,1436,8,1,25776.900000095367,977084.0999999046,7793,ATS,B,9
5,test,4,C,haborder.png,1,m,Fri May 01 2026 10:06:16 GMT-0500 (Central Daylight Time),1005193.6999999285,CFD-WM-011-006-HC.jpg,1500,solid,O,m,801,11,1,28109.600000023842,977084.0999999046,7793,ATS,B,10
6,test,4,C,mfborder.png,1,z,Fri May 01 2026 10:06:16 GMT-0500 (Central Daylight Time),1008091.6999999285,CFD-WF-011-006-HC.jpg,1700,dash,O,z,1170,1,1,31007.600000023842,977084.0999999046,7793,ATS,B,11
6,test,4,C,haborder.png,0,m,Fri May 01 2026 10:06:16 GMT-0500 (Central Daylight Time),1011224.7999999523,CFD-BM-020-024-HC.jpg,1600,solid,O,None,1515,10,1,34140.700000047684,977084.0999999046,7793,ATS,B,12
7,test,4,C,haborder.png,1,z,Fri May 01 2026 10:06:16 GMT-0500 (Central Daylight Time),1013938.5,CFD-BF-051-043-A.jpg,1400,solid,O,z,1286,7,1,36854.40000009537,977084.0999999046,7793,ATS,B,13
8,test,4,C,haborder.png,1,z,Fri May 01 2026 10:06:16 GMT-0500 (Central Daylight Time),1016938.7999999523,CFD-WF-026-008-A.jpg,1700,solid,O,z,1269,9,1,39854.700000047684,977084.0999999046,7793,ATS,B,14
9,test,4,C,mfborder.png,1,z,Fri May 01 2026 10:06:16 GMT-0500 (Central Daylight Time),1019621.0999999046,CFD-BF-035-007-HC.jpg,1500,dash,O,z,1150,3,1,42537.0,977084.0999999046,7793,ATS,B,15
10,test,4,C,haborder.png,1,m,Fri May 01 2026 10:06:16 GMT-0500 (Central Daylight Time),1022403.6999999285,CFD-BM-020-024-HC.jpg,1600,solid,O,m,1154,10,1,45319.60000002384,977084.0999999046,7793,ATS,B,16
11,test,4,C,mfborder.png,1,m,Fri May 01 2026 10:06:16 GMT-0500 (Central Daylight Time),1024620.7999999523,CFD-BM-015-017-HC.jpg,1000,dash,O,m,1187,4,1,47536.700000047684,977084.0999999046,7793,ATS,B,17
12,test,4,C,mfborder.png,1,m,Fri May 01 2026 10:06:16 GMT-0500 (Central Daylight Time),1027303.8999999762,CFD-WM-009-009-A.jpg,1200,dash,O,m,1451,6,1,50219.800000071526,977084.0999999046,7793,ATS,B,18
12,test,4,C,mfborder.png,0,z,Fri May 01 2026 10:06:16 GMT-0500 (Central Daylight Time),1030433.7999999523,CFD-WF-013-015-A.jpg,1600,dash,O,None,1515,2,1,53349.700000047684,977084.0999999046,7793,ATS,B,19
13,test,4,C,mfborder.png,1,z,Fri May 01 2026 10:06:16 GMT-0500 (Central Daylight Time),1033000.8999999762,CFD-WF-013-015-A.jpg,1600,dash,O,z,936,2,1,55916.800000071526,977084.0999999046,7793,ATS,B,20
13,test,4,C,mfborder.png,0,m,Fri May 01 2026 10:06:16 GMT-0500 (Central Daylight Time),1035435.1999999285,CFD-WM-009-009-A.jpg,1200,dash,O,z,1217,6,1,58351.10000002384,977084.0999999046,7793,ATS,B,21
13,test,4,C,mfborder.png,0,m,Fri May 01 2026 10:06:16 GMT-0500 (Central Daylight Time),1038616.2999999523,CFD-BM-037-041-A.jpg,2000,dash,O,z,1167,5,1,61532.200000047684,977084.0999999046,7793,ATS,B,22
13,test,4,C,haborder.png,0,z,Fri May 01 2026 10:06:16 GMT-0500 (Central Daylight Time),1041415.8999999762,CFD-WF-026-008-A.jpg,1700,solid,O,m,1078,9,1,64331.800000071526,977084.0999999046,7793,ATS,B,23
13,test,4,C,mfborder.png,0,m,Fri May 01 2026 10:06:16 GMT-0500 (Central Daylight Time),1043945.2999999523,CFD-BM-015-017-HC.jpg,1000,dash,O,None,1516,4,1,66861.20000004768,977084.0999999046,7793,ATS,B,24
