block_c,block_dur,condition,countdown,datetime,endtime,list,multichar_response,project,response,response_time,session_number,start_end,starttime,subject_id,task,task_vers,trial
,,,,Mon May 11 2026 11:32:23 GMT-0500 (Central Daylight Time),,,,O,space,508,1,,,7795,WL,B,
prac,,0,,Mon May 11 2026 11:32:23 GMT-0500 (Central Daylight Time),,NA,b,O,b,2233,1,,,7795,WL,B,1.0
prac,,0,,Mon May 11 2026 11:32:23 GMT-0500 (Central Daylight Time),,NA,bo,O,o,399,1,,,7795,WL,B,1.0
prac,,0,,Mon May 11 2026 11:32:23 GMT-0500 (Central Daylight Time),,NA,boo,O,o,139,1,,,7795,WL,B,1.0
prac,,0,,Mon May 11 2026 11:32:23 GMT-0500 (Central Daylight Time),,NA,boos,O,s,534,1,,,7795,WL,B,1.0
prac,,0,,Mon May 11 2026 11:32:23 GMT-0500 (Central Daylight Time),,NA,boost,O,t,318,1,,,7795,WL,B,1.0
prac,,0,,Mon May 11 2026 11:32:23 GMT-0500 (Central Daylight Time),,NA,boostenter,O,enter,3323,1,,,7795,WL,B,1.0
1,1.2170000076293945,learn,58782.999992370605,Mon May 11 2026 11:32:23 GMT-0500 (Central Daylight Time),148072.59999996424,A,s,O,s,1203,1,1216.5999999642372,146856.0,7795,WL,B,1.0
1,1.6340000629425049,learn,58365.999937057495,Mon May 11 2026 11:32:23 GMT-0500 (Central Daylight Time),148489.80000001192,A,st,O,t,395,1,1633.800000011921,146856.0,7795,WL,B,1.0
1,1.9660000801086426,learn,58033.99991989136,Mon May 11 2026 11:32:23 GMT-0500 (Central Daylight Time),148822.0,A,str,O,r,308,1,1966.0,146856.0,7795,WL,B,1.0
1,2.2649998664855957,learn,57735.000133514404,Mon May 11 2026 11:32:23 GMT-0500 (Central Daylight Time),149120.59999996424,A,stre,O,e,279,1,2264.599999964237,146856.0,7795,WL,B,1.0
1,2.447999954223633,learn,57552.00004577637,Mon May 11 2026 11:32:23 GMT-0500 (Central Daylight Time),149303.59999996424,A,stree,O,e,169,1,2447.599999964237,146856.0,7795,WL,B,1.0
1,2.816999912261963,learn,57183.00008773804,Mon May 11 2026 11:32:23 GMT-0500 (Central Daylight Time),149673.0,A,street,O,t,351,1,2817.0,146856.0,7795,WL,B,1.0
1,5.400000095367432,learn,54599.99990463257,Mon May 11 2026 11:32:23 GMT-0500 (Central Daylight Time),152256.09999996424,A,streetenter,O,enter,2566,1,5400.099999964237,146856.0,7795,WL,B,1.0
1,6.898000001907349,learn,53101.99999809265,Mon May 11 2026 11:32:23 GMT-0500 (Central Daylight Time),153753.89999997616,A,g,O,g,1481,1,1497.3999999761581,152256.5,7795,WL,B,2.0
1,7.247999906539917,learn,52752.00009346008,Mon May 11 2026 11:32:23 GMT-0500 (Central Daylight Time),154103.5,A,gr,O,r,333,1,1847.0,152256.5,7795,WL,B,2.0
1,7.813999891281128,learn,52186.00010871887,Mon May 11 2026 11:32:23 GMT-0500 (Central Daylight Time),154669.59999996424,A,gra,O,a,544,1,2413.099999964237,152256.5,7795,WL,B,2.0
1,8.147000074386597,learn,51852.9999256134,Mon May 11 2026 11:32:23 GMT-0500 (Central Daylight Time),155003.19999998808,A,gras,O,s,316,1,2746.699999988079,152256.5,7795,WL,B,2.0
1,8.345999956130981,learn,51654.00004386902,Mon May 11 2026 11:32:23 GMT-0500 (Central Daylight Time),155201.69999998808,A,grass,O,s,192,1,2945.199999988079,152256.5,7795,WL,B,2.0
1,9.02999997138977,learn,50970.00002861023,Mon May 11 2026 11:32:23 GMT-0500 (Central Daylight Time),155886.19999998808,A,grassenter,O,enter,674,1,3629.699999988079,152256.5,7795,WL,B,2.0
1,10.44700002670288,learn,49552.99997329712,Mon May 11 2026 11:32:23 GMT-0500 (Central Daylight Time),157302.69999998808,A,c,O,c,1395,1,1416.1000000238419,155886.59999996424,7795,WL,B,3.0
1,10.815000057220459,learn,49184.99994277954,Mon May 11 2026 11:32:23 GMT-0500 (Central Daylight Time),157670.80000001192,A,ca,O,a,356,1,1784.2000000476837,155886.59999996424,7795,WL,B,3.0
1,11.26200008392334,learn,48737.99991607666,Mon May 11 2026 11:32:23 GMT-0500 (Central Daylight Time),158118.19999998808,A,cab,O,b,435,1,2231.600000023842,155886.59999996424,7795,WL,B,3.0
1,11.662999868392944,learn,48337.000131607056,Mon May 11 2026 11:32:23 GMT-0500 (Central Daylight Time),158519.0,A,cabi,O,i,380,1,2632.400000035763,155886.59999996424,7795,WL,B,3.0
1,12.062999963760376,learn,47937.000036239624,Mon May 11 2026 11:32:23 GMT-0500 (Central Daylight Time),158918.69999998808,A,cabin,O,n,381,1,3032.100000023842,155886.59999996424,7795,WL,B,3.0
1,12.629999876022339,learn,47370.00012397766,Mon May 11 2026 11:32:23 GMT-0500 (Central Daylight Time),159485.80000001192,A,cabinenter,O,enter,553,1,3599.2000000476837,155886.59999996424,7795,WL,B,3.0
1,15.296000003814697,learn,44703.9999961853,Mon May 11 2026 11:32:23 GMT-0500 (Central Daylight Time),162151.59999996424,A,f,O,f,2646,1,2665.599999964237,159486.0,7795,WL,B,4.0
1,15.845999956130981,learn,44154.00004386902,Mon May 11 2026 11:32:23 GMT-0500 (Central Daylight Time),162701.69999998808,A,fi,O,i,528,1,3215.699999988079,159486.0,7795,WL,B,4.0
1,16.42899990081787,learn,43571.00009918213,Mon May 11 2026 11:32:23 GMT-0500 (Central Daylight Time),163284.39999997616,A,fir,O,r,573,1,3798.399999976158,159486.0,7795,WL,B,4.0
1,16.711999893188477,learn,43288.00010681152,Mon May 11 2026 11:32:23 GMT-0500 (Central Daylight Time),163568.30000001192,A,fire,O,e,270,1,4082.300000011921,159486.0,7795,WL,B,4.0
1,17.479000091552734,learn,42520.999908447266,Mon May 11 2026 11:32:23 GMT-0500 (Central Daylight Time),164334.59999996424,A,fireenter,O,enter,745,1,4848.599999964237,159486.0,7795,WL,B,4.0
1,20.59500002861023,learn,39404.99997138977,Mon May 11 2026 11:32:23 GMT-0500 (Central Daylight Time),167450.69999998808,A,w,O,w,3106,1,3115.800000011921,164334.89999997616,7795,WL,B,5.0
1,21.144999980926514,learn,38855.000019073486,Mon May 11 2026 11:32:23 GMT-0500 (Central Daylight Time),168000.39999997616,A,wi,O,i,528,1,3665.5,164334.89999997616,7795,WL,B,5.0
1,21.64299988746643,learn,38357.00011253357,Mon May 11 2026 11:32:23 GMT-0500 (Central Daylight Time),168499.19999998808,A,win,O,n,481,1,4164.300000011921,164334.89999997616,7795,WL,B,5.0
1,22.41100001335144,learn,37588.99998664856,Mon May 11 2026 11:32:23 GMT-0500 (Central Daylight Time),169266.59999996424,A,wind,O,d,747,1,4931.699999988079,164334.89999997616,7795,WL,B,5.0
1,23.05900001525879,learn,36940.99998474121,Mon May 11 2026 11:32:23 GMT-0500 (Central Daylight Time),169915.30000001192,A,windo,O,o,630,1,5580.400000035763,164334.89999997616,7795,WL,B,5.0
1,23.64299988746643,learn,36357.00011253357,Mon May 11 2026 11:32:23 GMT-0500 (Central Daylight Time),170498.69999998808,A,window,O,w,565,1,6163.800000011921,164334.89999997616,7795,WL,B,5.0
1,24.14199995994568,learn,35858.00004005432,Mon May 11 2026 11:32:23 GMT-0500 (Central Daylight Time),170998.19999998808,A,windowenter,O,enter,485,1,6663.300000011921,164334.89999997616,7795,WL,B,5.0
1,24.575999975204468,learn,35424.00002479553,Mon May 11 2026 11:32:23 GMT-0500 (Central Daylight Time),171432.59999996424,A,w,O,w,413,1,434.0,170998.59999996424,7795,WL,B,6.0
1,25.026000022888184,learn,34973.99997711182,Mon May 11 2026 11:32:23 GMT-0500 (Central Daylight Time),171881.69999998808,A,wi,O,i,427,1,883.1000000238419,170998.59999996424,7795,WL,B,6.0
1,25.7260000705719,learn,34273.9999294281,Mon May 11 2026 11:32:23 GMT-0500 (Central Daylight Time),172581.69999998808,A,wif,O,f,688,1,1583.1000000238419,170998.59999996424,7795,WL,B,6.0
1,26.35800004005432,learn,33641.99995994568,Mon May 11 2026 11:32:23 GMT-0500 (Central Daylight Time),173214.19999998808,A,wife,O,e,621,1,2215.600000023842,170998.59999996424,7795,WL,B,6.0
1,27.2260000705719,learn,32773.9999294281,Mon May 11 2026 11:32:23 GMT-0500 (Central Daylight Time),174081.80000001192,A,wifeenter,O,enter,852,1,3083.2000000476837,170998.59999996424,7795,WL,B,6.0
1,60.013999938964844,learn,-13.99993896484375,Mon May 11 2026 11:32:23 GMT-0500 (Central Daylight Time),206870.30000001192,A,None,O,None,32783,1,32788.200000047684,174082.09999996424,7795,WL,B,7.0
2,1.183000087738037,learn,58816.99991226196,Mon May 11 2026 11:32:23 GMT-0500 (Central Daylight Time),279897.09999996424,A,s,O,s,1164,1,1182.0,278715.09999996424,7795,WL,B,1.0
2,1.684000015258789,learn,58315.99998474121,Mon May 11 2026 11:32:23 GMT-0500 (Central Daylight Time),280397.6999999881,A,st,O,t,491,1,1682.6000000238419,278715.09999996424,7795,WL,B,1.0
2,1.999000072479248,learn,58000.99992752075,Mon May 11 2026 11:32:23 GMT-0500 (Central Daylight Time),280713.09999996424,A,str,O,r,298,1,1998.0,278715.09999996424,7795,WL,B,1.0
2,2.2839999198913574,learn,57716.00008010864,Mon May 11 2026 11:32:23 GMT-0500 (Central Daylight Time),280997.89999997616,A,stre,O,e,272,1,2282.800000011921,278715.09999996424,7795,WL,B,1.0
2,2.449000120162964,learn,57550.999879837036,Mon May 11 2026 11:32:23 GMT-0500 (Central Daylight Time),281163.0,A,stree,O,e,148,1,2447.900000035763,278715.09999996424,7795,WL,B,1.0
2,2.9160001277923584,learn,57083.99987220764,Mon May 11 2026 11:32:23 GMT-0500 (Central Daylight Time),281630.59999996424,A,street,O,t,455,1,2915.5,278715.09999996424,7795,WL,B,1.0
2,3.431999921798706,learn,56568.000078201294,Mon May 11 2026 11:32:23 GMT-0500 (Central Daylight Time),282146.0,A,streetenter,O,enter,508,1,3430.900000035763,278715.09999996424,7795,WL,B,1.0
2,3.7990000247955322,learn,56200.99997520447,Mon May 11 2026 11:32:23 GMT-0500 (Central Daylight Time),282513.1999999881,A,g,O,g,352,1,366.80000001192093,282146.39999997616,7795,WL,B,2.0
2,4.065000057220459,learn,55934.99994277954,Mon May 11 2026 11:32:23 GMT-0500 (Central Daylight Time),282779.59999996424,A,gr,O,r,247,1,633.1999999880791,282146.39999997616,7795,WL,B,2.0
2,4.431999921798706,learn,55568.000078201294,Mon May 11 2026 11:32:23 GMT-0500 (Central Daylight Time),283145.89999997616,A,gra,O,a,350,1,999.5,282146.39999997616,7795,WL,B,2.0
2,4.799999952316284,learn,55200.000047683716,Mon May 11 2026 11:32:23 GMT-0500 (Central Daylight Time),283513.8000000119,A,gras,O,s,347,1,1367.4000000357628,282146.39999997616,7795,WL,B,2.0
2,4.965000152587891,learn,55034.99984741211,Mon May 11 2026 11:32:23 GMT-0500 (Central Daylight Time),283678.59999996424,A,grass,O,s,143,1,1532.199999988079,282146.39999997616,7795,WL,B,2.0
2,5.564000129699707,learn,54435.99987030029,Mon May 11 2026 11:32:23 GMT-0500 (Central Daylight Time),284278.5,A,grassd,O,d,588,1,2132.100000023842,282146.39999997616,7795,WL,B,2.0
2,5.8480000495910645,learn,54151.999950408936,Mon May 11 2026 11:32:23 GMT-0500 (Central Daylight Time),284562.09999996424,A,grassdo,O,o,263,1,2415.699999988079,282146.39999997616,7795,WL,B,2.0
2,6.0970001220703125,learn,53902.99987792969,Mon May 11 2026 11:32:23 GMT-0500 (Central Daylight Time),284811.1999999881,A,grassdoo,O,o,229,1,2664.800000011921,282146.39999997616,7795,WL,B,2.0
2,6.465000152587891,learn,53534.99984741211,Mon May 11 2026 11:32:23 GMT-0500 (Central Daylight Time),285178.8000000119,A,grassdoor,O,r,351,1,3032.400000035763,282146.39999997616,7795,WL,B,2.0
2,6.980000019073486,learn,53019.999980926514,Mon May 11 2026 11:32:23 GMT-0500 (Central Daylight Time),285694.1999999881,A,grassdoorc,O,c,502,1,3547.800000011921,282146.39999997616,7795,WL,B,2.0
2,7.302999973297119,learn,52697.00002670288,Mon May 11 2026 11:32:23 GMT-0500 (Central Daylight Time),286017.0,A,grassdoorca,O,a,300,1,3870.600000023842,282146.39999997616,7795,WL,B,2.0
2,7.88100004196167,learn,52118.99995803833,Mon May 11 2026 11:32:23 GMT-0500 (Central Daylight Time),286595.0,A,grassdoorcab,O,b,563,1,4448.600000023842,282146.39999997616,7795,WL,B,2.0
2,8.134000062942505,learn,51865.999937057495,Mon May 11 2026 11:32:23 GMT-0500 (Central Daylight Time),286848.09999996424,A,grassdoorcabi,O,i,238,1,4701.699999988079,282146.39999997616,7795,WL,B,2.0
2,8.46500015258789,learn,51534.99984741211,Mon May 11 2026 11:32:23 GMT-0500 (Central Daylight Time),287179.1999999881,A,grassdoorcabin,O,n,316,1,5032.800000011921,282146.39999997616,7795,WL,B,2.0
2,9.064000129699707,learn,50935.99987030029,Mon May 11 2026 11:32:23 GMT-0500 (Central Daylight Time),287778.5,A,grassdoorcabinl,O,l,584,1,5632.100000023842,282146.39999997616,7795,WL,B,2.0
2,12.427000045776367,learn,47572.99995422363,Mon May 11 2026 11:32:23 GMT-0500 (Central Daylight Time),291143.59999996424,A,grassdoorcabinlenter,O,enter,3345,1,8997.199999988079,282146.39999997616,7795,WL,B,2.0
2,15.29200005531311,learn,44707.99994468689,Mon May 11 2026 11:32:23 GMT-0500 (Central Daylight Time),294008.39999997616,A,g,O,g,2858,1,2864.5,291143.89999997616,7795,WL,B,3.0
2,15.641999959945679,learn,44358.00004005432,Mon May 11 2026 11:32:23 GMT-0500 (Central Daylight Time),294358.5,A,gr,O,r,338,1,3214.600000023842,291143.89999997616,7795,WL,B,3.0
2,16.51200008392334,learn,43487.99991607666,Mon May 11 2026 11:32:23 GMT-0500 (Central Daylight Time),295228.3000000119,A,gra,O,a,864,1,4084.400000035763,291143.89999997616,7795,WL,B,3.0
2,16.80999994277954,learn,43190.00005722046,Mon May 11 2026 11:32:23 GMT-0500 (Central Daylight Time),295526.1999999881,A,gras,O,s,277,1,4382.300000011921,291143.89999997616,7795,WL,B,3.0
2,17.008000135421753,learn,42991.99986457825,Mon May 11 2026 11:32:23 GMT-0500 (Central Daylight Time),295724.6999999881,A,grass,O,s,186,1,4580.800000011921,291143.89999997616,7795,WL,B,3.0
2,17.674999952316284,learn,42325.000047683716,Mon May 11 2026 11:32:23 GMT-0500 (Central Daylight Time),296391.5,A,grassenter,O,enter,651,1,5247.600000023842,291143.89999997616,7795,WL,B,3.0
2,18.926000118255615,learn,41073.999881744385,Mon May 11 2026 11:32:23 GMT-0500 (Central Daylight Time),297642.1999999881,A,c,O,c,1230,1,1250.3999999761581,296391.8000000119,7795,WL,B,4.0
2,19.30900001525879,learn,40690.99998474121,Mon May 11 2026 11:32:23 GMT-0500 (Central Daylight Time),298025.3000000119,A,ca,O,a,370,1,1633.5,296391.8000000119,7795,WL,B,4.0
2,19.80900001525879,learn,40190.99998474121,Mon May 11 2026 11:32:23 GMT-0500 (Central Daylight Time),298525.09999996424,A,cab,O,b,482,1,2133.2999999523163,296391.8000000119,7795,WL,B,4.0
2,20.125,learn,39875.0,Mon May 11 2026 11:32:23 GMT-0500 (Central Daylight Time),298841.0,A,cabi,O,i,291,1,2449.199999988079,296391.8000000119,7795,WL,B,4.0
2,20.390000104904175,learn,39609.999895095825,Mon May 11 2026 11:32:23 GMT-0500 (Central Daylight Time),299106.6999999881,A,cabin,O,n,250,1,2714.899999976158,296391.8000000119,7795,WL,B,4.0
2,21.02500009536743,learn,38974.99990463257,Mon May 11 2026 11:32:23 GMT-0500 (Central Daylight Time),299741.1999999881,A,cabinenter,O,enter,616,1,3349.399999976158,296391.8000000119,7795,WL,B,4.0
2,21.539999961853027,learn,38460.00003814697,Mon May 11 2026 11:32:23 GMT-0500 (Central Daylight Time),300256.59999996424,A,l,O,l,501,1,515.0999999642372,299741.5,7795,WL,B,5.0
2,21.841000080108643,learn,38158.99991989136,Mon May 11 2026 11:32:23 GMT-0500 (Central Daylight Time),300557.3000000119,A,la,O,a,291,1,815.8000000119209,299741.5,7795,WL,B,5.0
2,22.874000072479248,learn,37125.99992752075,Mon May 11 2026 11:32:23 GMT-0500 (Central Daylight Time),301590.6999999881,A,lak,O,k,1015,1,1849.199999988079,299741.5,7795,WL,B,5.0
2,23.240000009536743,learn,36759.99999046326,Mon May 11 2026 11:32:23 GMT-0500 (Central Daylight Time),301956.1999999881,A,lake,O,e,353,1,2214.699999988079,299741.5,7795,WL,B,5.0
2,23.723999977111816,learn,36276.00002288818,Mon May 11 2026 11:32:23 GMT-0500 (Central Daylight Time),302440.0,A,lakeenter,O,enter,461,1,2698.5,299741.5,7795,WL,B,5.0
2,24.19000005722046,learn,35809.99994277954,Mon May 11 2026 11:32:23 GMT-0500 (Central Daylight Time),302906.39999997616,A,f,O,f,446,1,466.19999998807907,302440.1999999881,7795,WL,B,6.0
2,24.490000009536743,learn,35509.99999046326,Mon May 11 2026 11:32:23 GMT-0500 (Central Daylight Time),303206.5,A,fi,O,i,286,1,766.3000000119209,302440.1999999881,7795,WL,B,6.0
2,24.79100012779236,learn,35208.99987220764,Mon May 11 2026 11:32:23 GMT-0500 (Central Daylight Time),303507.0,A,fir,O,r,278,1,1066.800000011921,302440.1999999881,7795,WL,B,6.0
2,25.189000129699707,learn,34810.99987030029,Mon May 11 2026 11:32:23 GMT-0500 (Central Daylight Time),303905.6999999881,A,fire,O,e,383,1,1465.5,302440.1999999881,7795,WL,B,6.0
2,26.10599994659424,learn,33894.00005340576,Mon May 11 2026 11:32:23 GMT-0500 (Central Daylight Time),304822.6999999881,A,fireenter,O,enter,903,1,2382.5,302440.1999999881,7795,WL,B,6.0
2,26.9060001373291,learn,33093.9998626709,Mon May 11 2026 11:32:23 GMT-0500 (Central Daylight Time),305622.3000000119,A,a,O,a,779,1,799.4000000357628,304822.89999997616,7795,WL,B,7.0
2,27.33899998664856,learn,32661.00001335144,Mon May 11 2026 11:32:23 GMT-0500 (Central Daylight Time),306055.0,A,ar,O,r,419,1,1232.1000000238419,304822.89999997616,7795,WL,B,7.0
2,27.82200002670288,learn,32177.99997329712,Mon May 11 2026 11:32:23 GMT-0500 (Central Daylight Time),306538.5,A,arn,O,n,473,1,1715.6000000238419,304822.89999997616,7795,WL,B,7.0
2,29.707000017166138,learn,30292.999982833862,Mon May 11 2026 11:32:23 GMT-0500 (Central Daylight Time),308422.8000000119,A,arnenter,O,enter,1861,1,3599.900000035763,304822.89999997616,7795,WL,B,7.0
2,36.38700008392334,learn,23612.99991607666,Mon May 11 2026 11:32:23 GMT-0500 (Central Daylight Time),315102.89999997616,A,w,O,w,6668,1,6679.800000011921,308423.09999996424,7795,WL,B,8.0
2,36.736000061035156,learn,23263.999938964844,Mon May 11 2026 11:32:23 GMT-0500 (Central Daylight Time),315452.3000000119,A,wi,O,i,332,1,7029.200000047684,308423.09999996424,7795,WL,B,8.0
2,37.019999980926514,learn,22980.000019073486,Mon May 11 2026 11:32:23 GMT-0500 (Central Daylight Time),315736.59999996424,A,wif,O,f,263,1,7313.5,308423.09999996424,7795,WL,B,8.0
2,37.3199999332428,learn,22680.000066757202,Mon May 11 2026 11:32:23 GMT-0500 (Central Daylight Time),316035.8000000119,A,wife,O,e,279,1,7612.700000047684,308423.09999996424,7795,WL,B,8.0
2,37.76900005340576,learn,22230.99994659424,Mon May 11 2026 11:32:23 GMT-0500 (Central Daylight Time),316485.09999996424,A,wifeenter,O,enter,438,1,8062.0,308423.09999996424,7795,WL,B,8.0
2,38.23800015449524,learn,21761.99984550476,Mon May 11 2026 11:32:23 GMT-0500 (Central Daylight Time),316953.8000000119,A,w,O,w,454,1,468.4000000357628,316485.39999997616,7795,WL,B,9.0
2,38.604000091552734,learn,21395.999908447266,Mon May 11 2026 11:32:23 GMT-0500 (Central Daylight Time),317320.5,A,wi,O,i,345,1,835.1000000238419,316485.39999997616,7795,WL,B,9.0
2,38.93600010871887,learn,21063.999891281128,Mon May 11 2026 11:32:23 GMT-0500 (Central Daylight Time),317652.6999999881,A,win,O,n,311,1,1167.300000011921,316485.39999997616,7795,WL,B,9.0
2,39.735000133514404,learn,20264.999866485596,Mon May 11 2026 11:32:23 GMT-0500 (Central Daylight Time),318451.3000000119,A,wind,O,d,780,1,1965.9000000357628,316485.39999997616,7795,WL,B,9.0
2,40.16799998283386,learn,19832.000017166138,Mon May 11 2026 11:32:23 GMT-0500 (Central Daylight Time),318884.59999996424,A,windo,O,o,422,1,2399.199999988079,316485.39999997616,7795,WL,B,9.0
2,40.7020001411438,learn,19297.9998588562,Mon May 11 2026 11:32:23 GMT-0500 (Central Daylight Time),319418.09999996424,A,window,O,w,524,1,2932.699999988079,316485.39999997616,7795,WL,B,9.0
2,41.53500008583069,learn,18464.99991416931,Mon May 11 2026 11:32:23 GMT-0500 (Central Daylight Time),320251.09999996424,A,windowenter,O,enter,822,1,3765.699999988079,316485.39999997616,7795,WL,B,9.0
2,45.35000014305115,learn,14649.999856948853,Mon May 11 2026 11:32:23 GMT-0500 (Central Daylight Time),324066.1999999881,A,s,O,s,3798,1,3814.800000011921,320251.39999997616,7795,WL,B,10.0
2,45.85000014305115,learn,14149.999856948853,Mon May 11 2026 11:32:23 GMT-0500 (Central Daylight Time),324566.3000000119,A,st,O,t,485,1,4314.900000035763,320251.39999997616,7795,WL,B,10.0
2,46.54800009727478,learn,13451.99990272522,Mon May 11 2026 11:32:23 GMT-0500 (Central Daylight Time),325264.6999999881,A,sta,O,a,683,1,5013.300000011921,320251.39999997616,7795,WL,B,10.0
2,46.85000014305115,learn,13149.999856948853,Mon May 11 2026 11:32:23 GMT-0500 (Central Daylight Time),325566.39999997616,A,star,O,r,292,1,5315.0,320251.39999997616,7795,WL,B,10.0
2,48.365999937057495,learn,11634.000062942505,Mon May 11 2026 11:32:23 GMT-0500 (Central Daylight Time),327082.39999997616,A,starenter,O,enter,1499,1,6831.0,320251.39999997616,7795,WL,B,10.0
2,60.01300001144409,learn,-13.000011444091797,Mon May 11 2026 11:32:23 GMT-0500 (Central Daylight Time),338728.8000000119,A,None,O,None,11642,1,11646.200000047684,327082.59999996424,7795,WL,B,11.0
3,1.0820000171661377,learn,58917.99998283386,Mon May 11 2026 11:32:23 GMT-0500 (Central Daylight Time),412887.5,A,s,O,s,1066,1,1081.800000011921,411805.6999999881,7795,WL,B,1.0
3,1.6329998970031738,learn,58367.000102996826,Mon May 11 2026 11:32:23 GMT-0500 (Central Daylight Time),413438.1999999881,A,st,O,t,540,1,1632.5,411805.6999999881,7795,WL,B,1.0
3,1.9489998817443848,learn,58051.000118255615,Mon May 11 2026 11:32:23 GMT-0500 (Central Daylight Time),413754.5,A,str,O,r,309,1,1948.800000011921,411805.6999999881,7795,WL,B,1.0
3,2.25,learn,57750.0,Mon May 11 2026 11:32:23 GMT-0500 (Central Daylight Time),414055.5,A,stre,O,e,280,1,2249.800000011921,411805.6999999881,7795,WL,B,1.0
3,2.433000087738037,learn,57566.99991226196,Mon May 11 2026 11:32:23 GMT-0500 (Central Daylight Time),414238.39999997616,A,stree,O,e,162,1,2432.699999988079,411805.6999999881,7795,WL,B,1.0
3,2.749000072479248,learn,57250.99992752075,Mon May 11 2026 11:32:23 GMT-0500 (Central Daylight Time),414554.59999996424,A,street,O,t,295,1,2748.899999976158,411805.6999999881,7795,WL,B,1.0
3,3.0320000648498535,learn,56967.99993515015,Mon May 11 2026 11:32:23 GMT-0500 (Central Daylight Time),414837.8000000119,A,streetenter,O,enter,263,1,3032.100000023842,411805.6999999881,7795,WL,B,1.0
3,3.3489999771118164,learn,56651.00002288818,Mon May 11 2026 11:32:23 GMT-0500 (Central Daylight Time),415154.8000000119,A,g,O,g,300,1,316.7000000476837,414838.09999996424,7795,WL,B,2.0
3,3.6489999294281006,learn,56351.0000705719,Mon May 11 2026 11:32:23 GMT-0500 (Central Daylight Time),415455.0,A,gr,O,r,280,1,616.9000000357628,414838.09999996424,7795,WL,B,2.0
3,3.999000072479248,learn,56000.99992752075,Mon May 11 2026 11:32:23 GMT-0500 (Central Daylight Time),415804.1999999881,A,gra,O,a,344,1,966.1000000238419,414838.09999996424,7795,WL,B,2.0
3,4.398000001907349,learn,55601.99999809265,Mon May 11 2026 11:32:23 GMT-0500 (Central Daylight Time),416203.89999997616,A,gras,O,s,379,1,1365.800000011921,414838.09999996424,7795,WL,B,2.0
3,4.730999946594238,learn,55269.00005340576,Mon May 11 2026 11:32:23 GMT-0500 (Central Daylight Time),416536.5,A,grass,O,s,312,1,1698.4000000357628,414838.09999996424,7795,WL,B,2.0
3,5.148000001907349,learn,54851.99999809265,Mon May 11 2026 11:32:23 GMT-0500 (Central Daylight Time),416953.3000000119,A,grassenter,O,enter,393,1,2115.2000000476837,414838.09999996424,7795,WL,B,2.0
3,5.581000089645386,learn,54418.999910354614,Mon May 11 2026 11:32:23 GMT-0500 (Central Daylight Time),417386.6999999881,A,a,O,a,418,1,433.19999998807907,416953.5,7795,WL,B,3.0
3,6.013999938964844,learn,53986.000061035156,Mon May 11 2026 11:32:23 GMT-0500 (Central Daylight Time),417819.8000000119,A,ar,O,r,422,1,866.3000000119209,416953.5,7795,WL,B,3.0
3,7.148000001907349,learn,52851.99999809265,Mon May 11 2026 11:32:23 GMT-0500 (Central Daylight Time),418953.0,A,arm,O,m,1117,1,1999.5,416953.5,7795,WL,B,3.0
3,7.946000099182129,learn,52053.99990081787,Mon May 11 2026 11:32:23 GMT-0500 (Central Daylight Time),419751.6999999881,A,armenter,O,enter,781,1,2798.199999988079,416953.5,7795,WL,B,3.0
3,8.448999881744385,learn,51551.000118255615,Mon May 11 2026 11:32:23 GMT-0500 (Central Daylight Time),420254.39999997616,A,s,O,s,492,1,502.39999997615814,419752.0,7795,WL,B,4.0
3,9.346999883651733,learn,50653.00011634827,Mon May 11 2026 11:32:23 GMT-0500 (Central Daylight Time),421152.5,A,sk,O,k,885,1,1400.5,419752.0,7795,WL,B,4.0
3,9.61299991607666,learn,50387.00008392334,Mon May 11 2026 11:32:23 GMT-0500 (Central Daylight Time),421418.59999996424,A,ski,O,i,251,1,1666.5999999642372,419752.0,7795,WL,B,4.0
3,10.11299991607666,learn,49887.00008392334,Mon May 11 2026 11:32:23 GMT-0500 (Central Daylight Time),421918.39999997616,A,skin,O,n,488,1,2166.399999976158,419752.0,7795,WL,B,4.0
3,10.61299991607666,learn,49387.00008392334,Mon May 11 2026 11:32:23 GMT-0500 (Central Daylight Time),422418.39999997616,A,skinenter,O,enter,477,1,2666.399999976158,419752.0,7795,WL,B,4.0
3,10.897000074386597,learn,49102.9999256134,Mon May 11 2026 11:32:23 GMT-0500 (Central Daylight Time),422702.09999996424,A,c,O,c,272,1,283.39999997615814,422418.6999999881,7795,WL,B,5.0
3,11.400000095367432,learn,48599.99990463257,Mon May 11 2026 11:32:23 GMT-0500 (Central Daylight Time),423205.5,A,ci,O,i,488,1,786.8000000119209,422418.6999999881,7795,WL,B,5.0
3,11.928999900817871,learn,48071.00009918213,Mon May 11 2026 11:32:23 GMT-0500 (Central Daylight Time),423734.59999996424,A,cit,O,t,510,1,1315.8999999761581,422418.6999999881,7795,WL,B,5.0
3,12.444999933242798,learn,47555.0000667572,Mon May 11 2026 11:32:23 GMT-0500 (Central Daylight Time),424250.3000000119,A,city,O,y,505,1,1831.6000000238419,422418.6999999881,7795,WL,B,5.0
3,13.045000076293945,learn,46954.999923706055,Mon May 11 2026 11:32:23 GMT-0500 (Central Daylight Time),424850.59999996424,A,cityenter,O,enter,593,1,2431.899999976158,422418.6999999881,7795,WL,B,5.0
3,14.078999996185303,learn,45921.0000038147,Mon May 11 2026 11:32:23 GMT-0500 (Central Daylight Time),425884.6999999881,A,c,O,c,1016,1,1033.8999999761581,424850.8000000119,7795,WL,B,6.0
3,14.510999917984009,learn,45489.00008201599,Mon May 11 2026 11:32:23 GMT-0500 (Central Daylight Time),426317.0,A,ca,O,a,420,1,1466.199999988079,424850.8000000119,7795,WL,B,6.0
3,14.961999893188477,learn,45038.00010681152,Mon May 11 2026 11:32:23 GMT-0500 (Central Daylight Time),426767.09999996424,A,cab,O,b,436,1,1916.2999999523163,424850.8000000119,7795,WL,B,6.0
3,15.32699990272522,learn,44673.00009727478,Mon May 11 2026 11:32:23 GMT-0500 (Central Daylight Time),427132.5,A,cabi,O,i,354,1,2281.699999988079,424850.8000000119,7795,WL,B,6.0
3,15.913000106811523,learn,44086.99989318848,Mon May 11 2026 11:32:23 GMT-0500 (Central Daylight Time),427718.1999999881,A,cabin,O,n,565,1,2867.399999976158,424850.8000000119,7795,WL,B,6.0
3,16.377000093460083,learn,43622.99990653992,Mon May 11 2026 11:32:23 GMT-0500 (Central Daylight Time),428182.09999996424,A,cabinenter,O,enter,442,1,3331.2999999523163,424850.8000000119,7795,WL,B,6.0
3,16.89400005340576,learn,43105.99994659424,Mon May 11 2026 11:32:23 GMT-0500 (Central Daylight Time),428699.5,A,l,O,l,511,1,517.1000000238419,428182.39999997616,7795,WL,B,7.0
3,17.461999893188477,learn,42538.00010681152,Mon May 11 2026 11:32:23 GMT-0500 (Central Daylight Time),429267.59999996424,A,la,O,a,550,1,1085.199999988079,428182.39999997616,7795,WL,B,7.0
3,18.094000101089478,learn,41905.99989891052,Mon May 11 2026 11:32:23 GMT-0500 (Central Daylight Time),429899.39999997616,A,lak,O,k,628,1,1717.0,428182.39999997616,7795,WL,B,7.0
3,18.960000038146973,learn,41039.99996185303,Mon May 11 2026 11:32:23 GMT-0500 (Central Daylight Time),430765.89999997616,A,lake,O,e,854,1,2583.5,428182.39999997616,7795,WL,B,7.0
3,20.394999980926514,learn,39605.000019073486,Mon May 11 2026 11:32:23 GMT-0500 (Central Daylight Time),432200.1999999881,A,lakeenter,O,enter,1429,1,4017.800000011921,428182.39999997616,7795,WL,B,7.0
3,25.125999927520752,learn,34874.00007247925,Mon May 11 2026 11:32:23 GMT-0500 (Central Daylight Time),436931.39999997616,A,s,O,s,4715,1,4731.0,432200.39999997616,7795,WL,B,8.0
3,25.575000047683716,learn,34424.999952316284,Mon May 11 2026 11:32:23 GMT-0500 (Central Daylight Time),437380.5,A,st,O,t,430,1,5180.100000023842,432200.39999997616,7795,WL,B,8.0
3,26.22499990463257,learn,33775.00009536743,Mon May 11 2026 11:32:23 GMT-0500 (Central Daylight Time),438030.1999999881,A,sta,O,a,628,1,5829.800000011921,432200.39999997616,7795,WL,B,8.0
3,26.973999977111816,learn,33026.00002288818,Mon May 11 2026 11:32:23 GMT-0500 (Central Daylight Time),438779.59999996424,A,star,O,r,739,1,6579.199999988079,432200.39999997616,7795,WL,B,8.0
3,31.42199993133545,learn,28578.00006866455,Mon May 11 2026 11:32:23 GMT-0500 (Central Daylight Time),443227.89999997616,A,starenter,O,enter,4433,1,11027.5,432200.39999997616,7795,WL,B,8.0
3,33.77300000190735,learn,26226.99999809265,Mon May 11 2026 11:32:23 GMT-0500 (Central Daylight Time),445578.5,A,p,O,p,2336,1,2350.400000035763,443228.09999996424,7795,WL,B,9.0
3,34.44000005722046,learn,25559.99994277954,Mon May 11 2026 11:32:23 GMT-0500 (Central Daylight Time),446245.8000000119,A,pu,O,u,646,1,3017.7000000476837,443228.09999996424,7795,WL,B,9.0
3,34.82200002670288,learn,25177.99997329712,Mon May 11 2026 11:32:23 GMT-0500 (Central Daylight Time),446627.59999996424,A,pup,O,p,366,1,3399.5,443228.09999996424,7795,WL,B,9.0
3,35.19099998474121,learn,24809.00001525879,Mon May 11 2026 11:32:23 GMT-0500 (Central Daylight Time),446996.1999999881,A,pupi,O,i,352,1,3768.100000023842,443228.09999996424,7795,WL,B,9.0
3,35.5220000743866,learn,24477.999925613403,Mon May 11 2026 11:32:23 GMT-0500 (Central Daylight Time),447327.8000000119,A,pupil,O,l,311,1,4099.700000047684,443228.09999996424,7795,WL,B,9.0
3,36.371999979019165,learn,23628.000020980835,Mon May 11 2026 11:32:23 GMT-0500 (Central Daylight Time),448177.5,A,pupilenter,O,enter,843,1,4949.400000035763,443228.09999996424,7795,WL,B,9.0
3,43.47199988365173,learn,16528.000116348267,Mon May 11 2026 11:32:23 GMT-0500 (Central Daylight Time),455277.1999999881,A,w,O,w,7091,1,7099.5,448177.6999999881,7795,WL,B,10.0
3,43.96900010108948,learn,16030.999898910522,Mon May 11 2026 11:32:23 GMT-0500 (Central Daylight Time),455774.6999999881,A,wi,O,i,476,1,7597.0,448177.6999999881,7795,WL,B,10.0
3,44.61899995803833,learn,15381.00004196167,Mon May 11 2026 11:32:23 GMT-0500 (Central Daylight Time),456424.59999996424,A,wif,O,f,630,1,8246.899999976158,448177.6999999881,7795,WL,B,10.0
3,45.051000118255615,learn,14948.999881744385,Mon May 11 2026 11:32:23 GMT-0500 (Central Daylight Time),456856.5,A,wife,O,e,425,1,8678.800000011921,448177.6999999881,7795,WL,B,10.0
3,45.41799998283386,learn,14582.000017166138,Mon May 11 2026 11:32:23 GMT-0500 (Central Daylight Time),457223.3000000119,A,wifeenter,O,enter,352,1,9045.600000023842,448177.6999999881,7795,WL,B,10.0
3,45.76900005340576,learn,14230.999946594238,Mon May 11 2026 11:32:23 GMT-0500 (Central Daylight Time),457575.0,A,w,O,w,331,1,351.5,457223.5,7795,WL,B,11.0
3,46.21799993515015,learn,13782.000064849854,Mon May 11 2026 11:32:23 GMT-0500 (Central Daylight Time),458023.6999999881,A,wi,O,i,427,1,800.1999999880791,457223.5,7795,WL,B,11.0
3,46.88599991798401,learn,13114.000082015991,Mon May 11 2026 11:32:23 GMT-0500 (Central Daylight Time),458691.3000000119,A,wib,O,b,650,1,1467.800000011921,457223.5,7795,WL,B,11.0
3,49.01799988746643,learn,10982.00011253357,Mon May 11 2026 11:32:23 GMT-0500 (Central Daylight Time),460823.0,A,wi,O,backspace,2121,1,3599.5,457223.5,7795,WL,B,11.0
3,49.90000009536743,learn,10099.999904632568,Mon May 11 2026 11:32:23 GMT-0500 (Central Daylight Time),461705.39999997616,A,win,O,n,875,1,4481.899999976158,457223.5,7795,WL,B,11.0
3,50.58500003814697,learn,9414.999961853027,Mon May 11 2026 11:32:23 GMT-0500 (Central Daylight Time),462390.5,A,wind,O,d,675,1,5167.0,457223.5,7795,WL,B,11.0
3,51.11800003051758,learn,8881.999969482422,Mon May 11 2026 11:32:23 GMT-0500 (Central Daylight Time),462923.09999996424,A,windo,O,o,528,1,5699.599999964237,457223.5,7795,WL,B,11.0
3,52.09999990463257,learn,7900.000095367432,Mon May 11 2026 11:32:23 GMT-0500 (Central Daylight Time),463905.89999997616,A,window,O,w,967,1,6682.399999976158,457223.5,7795,WL,B,11.0
3,53.117000102996826,learn,6882.999897003174,Mon May 11 2026 11:32:23 GMT-0500 (Central Daylight Time),464921.89999997616,A,windowenter,O,enter,995,1,7698.399999976158,457223.5,7795,WL,B,11.0
3,60.01300001144409,learn,-13.000011444091797,Mon May 11 2026 11:32:23 GMT-0500 (Central Daylight Time),471820.5,A,None,O,None,6893,1,6898.300000011921,464922.1999999881,7795,WL,B,12.0
4,1.183000087738037,learn,58816.99991226196,Mon May 11 2026 11:32:23 GMT-0500 (Central Daylight Time),557308.8999999762,A,s,O,s,1173,1,1183.199999988079,556125.6999999881,7795,WL,B,1.0
4,1.6990001201629639,learn,58300.999879837036,Mon May 11 2026 11:32:23 GMT-0500 (Central Daylight Time),557824.8999999762,A,st,O,t,508,1,1699.199999988079,556125.6999999881,7795,WL,B,1.0
4,2.0180001258850098,learn,57981.99987411499,Mon May 11 2026 11:32:23 GMT-0500 (Central Daylight Time),558143.8999999762,A,str,O,r,298,1,2018.199999988079,556125.6999999881,7795,WL,B,1.0
4,2.315999984741211,learn,57684.00001525879,Mon May 11 2026 11:32:23 GMT-0500 (Central Daylight Time),558441.8000000119,A,stre,O,e,290,1,2316.100000023842,556125.6999999881,7795,WL,B,1.0
4,2.5160000324249268,learn,57483.99996757507,Mon May 11 2026 11:32:23 GMT-0500 (Central Daylight Time),558642.0999999642,A,stree,O,e,184,1,2516.399999976158,556125.6999999881,7795,WL,B,1.0
4,2.884000062942505,learn,57115.999937057495,Mon May 11 2026 11:32:23 GMT-0500 (Central Daylight Time),559009.3999999762,A,street,O,t,353,1,2883.699999988079,556125.6999999881,7795,WL,B,1.0
4,3.700000047683716,learn,56299.999952316284,Mon May 11 2026 11:32:23 GMT-0500 (Central Daylight Time),559825.5999999642,A,streetenter,O,enter,802,1,3699.899999976158,556125.6999999881,7795,WL,B,1.0
4,4.131999969482422,learn,55868.00003051758,Mon May 11 2026 11:32:23 GMT-0500 (Central Daylight Time),560257.5999999642,A,g,O,g,416,1,431.69999998807907,559825.8999999762,7795,WL,B,2.0
4,4.4150002002716064,learn,55584.99979972839,Mon May 11 2026 11:32:23 GMT-0500 (Central Daylight Time),560540.3999999762,A,gr,O,r,274,1,714.5,559825.8999999762,7795,WL,B,2.0
4,4.7829999923706055,learn,55217.000007629395,Mon May 11 2026 11:32:23 GMT-0500 (Central Daylight Time),560908.6999999881,A,gra,O,a,351,1,1082.800000011921,559825.8999999762,7795,WL,B,2.0
4,5.299000024795532,learn,54700.99997520447,Mon May 11 2026 11:32:23 GMT-0500 (Central Daylight Time),561425.0999999642,A,gras,O,s,497,1,1599.199999988079,559825.8999999762,7795,WL,B,2.0
4,5.499000072479248,learn,54500.99992752075,Mon May 11 2026 11:32:23 GMT-0500 (Central Daylight Time),561624.3999999762,A,grass,O,s,178,1,1798.5,559825.8999999762,7795,WL,B,2.0
4,5.848999977111816,learn,54151.00002288818,Mon May 11 2026 11:32:23 GMT-0500 (Central Daylight Time),561974.8999999762,A,grassenter,O,enter,328,1,2149.0,559825.8999999762,7795,WL,B,2.0
4,6.156000137329102,learn,53843.9998626709,Mon May 11 2026 11:32:23 GMT-0500 (Central Daylight Time),562281.6999999881,A,a,O,a,279,1,306.5,561975.1999999881,7795,WL,B,3.0
4,6.598999977111816,learn,53401.00002288818,Mon May 11 2026 11:32:23 GMT-0500 (Central Daylight Time),562724.8999999762,A,ar,O,r,434,1,749.6999999880791,561975.1999999881,7795,WL,B,3.0
4,10.547000169754028,learn,49452.99983024597,Mon May 11 2026 11:32:23 GMT-0500 (Central Daylight Time),566673.0,A,arm,O,m,3928,1,4697.800000011921,561975.1999999881,7795,WL,B,3.0
4,11.078999996185303,learn,48921.0000038147,Mon May 11 2026 11:32:23 GMT-0500 (Central Daylight Time),567204.8999999762,A,armenter,O,enter,518,1,5229.699999988079,561975.1999999881,7795,WL,B,3.0
4,11.496999979019165,learn,48503.000020980835,Mon May 11 2026 11:32:23 GMT-0500 (Central Daylight Time),567622.3000000119,A,d,O,d,408,1,417.30000001192093,567205.0,7795,WL,B,4.0
4,12.063000202178955,learn,47936.999797821045,Mon May 11 2026 11:32:23 GMT-0500 (Central Daylight Time),568189.0,A,do,O,o,547,1,984.0,567205.0,7795,WL,B,4.0
4,12.231000185012817,learn,47768.99981498718,Mon May 11 2026 11:32:23 GMT-0500 (Central Daylight Time),568356.6999999881,A,doo,O,o,158,1,1151.699999988079,567205.0,7795,WL,B,4.0
4,12.763000011444092,learn,47236.99998855591,Mon May 11 2026 11:32:23 GMT-0500 (Central Daylight Time),568889.0,A,door,O,r,517,1,1684.0,567205.0,7795,WL,B,4.0
4,13.129000186920166,learn,46870.999813079834,Mon May 11 2026 11:32:23 GMT-0500 (Central Daylight Time),569254.5999999642,A,doorenter,O,enter,346,1,2049.599999964237,567205.0,7795,WL,B,4.0
4,13.546000003814697,learn,46453.9999961853,Mon May 11 2026 11:32:23 GMT-0500 (Central Daylight Time),569671.6999999881,A,p,O,p,396,1,416.69999998807907,569255.0,7795,WL,B,5.0
4,14.311000108718872,learn,45688.99989128113,Mon May 11 2026 11:32:23 GMT-0500 (Central Daylight Time),570436.6999999881,A,pu,O,u,753,1,1181.699999988079,569255.0,7795,WL,B,5.0
4,14.713000059127808,learn,45286.99994087219,Mon May 11 2026 11:32:23 GMT-0500 (Central Daylight Time),570838.5,A,pup,O,p,383,1,1583.5,569255.0,7795,WL,B,5.0
4,15.129000186920166,learn,44870.999813079834,Mon May 11 2026 11:32:23 GMT-0500 (Central Daylight Time),571254.5999999642,A,pupi,O,i,404,1,1999.5999999642372,569255.0,7795,WL,B,5.0
4,17.728000164031982,learn,42271.99983596802,Mon May 11 2026 11:32:23 GMT-0500 (Central Daylight Time),573854.0,A,pupil,O,l,2587,1,4599.0,569255.0,7795,WL,B,5.0
4,20.811000108718872,learn,39188.99989128113,Mon May 11 2026 11:32:23 GMT-0500 (Central Daylight Time),576937.0,A,pupilenter,O,enter,3063,1,7682.0,569255.0,7795,WL,B,5.0
4,21.759999990463257,learn,38240.00000953674,Mon May 11 2026 11:32:23 GMT-0500 (Central Daylight Time),577885.5,A,s,O,s,927,1,948.1999999880791,576937.3000000119,7795,WL,B,6.0
4,22.475000143051147,learn,37524.99985694885,Mon May 11 2026 11:32:23 GMT-0500 (Central Daylight Time),578601.0999999642,A,sk,O,k,702,1,1663.7999999523163,576937.3000000119,7795,WL,B,6.0
4,22.759999990463257,learn,37240.00000953674,Mon May 11 2026 11:32:23 GMT-0500 (Central Daylight Time),578885.5999999642,A,ski,O,i,275,1,1948.2999999523163,576937.3000000119,7795,WL,B,6.0
4,23.259999990463257,learn,36740.00000953674,Mon May 11 2026 11:32:23 GMT-0500 (Central Daylight Time),579386.0999999642,A,skin,O,n,479,1,2448.7999999523163,576937.3000000119,7795,WL,B,6.0
4,23.70900011062622,learn,36290.99988937378,Mon May 11 2026 11:32:23 GMT-0500 (Central Daylight Time),579834.3000000119,A,skinenter,O,enter,440,1,2897.0,576937.3000000119,7795,WL,B,6.0
4,24.259999990463257,learn,35740.00000953674,Mon May 11 2026 11:32:23 GMT-0500 (Central Daylight Time),580385.5999999642,A,c,O,c,537,1,551.0999999642372,579834.5,7795,WL,B,7.0
4,24.77500009536743,learn,35224.99990463257,Mon May 11 2026 11:32:23 GMT-0500 (Central Daylight Time),580901.0,A,cl,O,l,505,1,1066.5,579834.5,7795,WL,B,7.0
4,25.061000108718872,learn,34938.99989128113,Mon May 11 2026 11:32:23 GMT-0500 (Central Daylight Time),581186.3000000119,A,clo,O,o,271,1,1351.800000011921,579834.5,7795,WL,B,7.0
4,25.80900001525879,learn,34190.99998474121,Mon May 11 2026 11:32:23 GMT-0500 (Central Daylight Time),581934.1999999881,A,cloc,O,c,736,1,2099.699999988079,579834.5,7795,WL,B,7.0
4,26.325000047683716,learn,33674.999952316284,Mon May 11 2026 11:32:23 GMT-0500 (Central Daylight Time),582450.5,A,clock,O,k,501,1,2616.0,579834.5,7795,WL,B,7.0
4,27.509999990463257,learn,32490.000009536743,Mon May 11 2026 11:32:23 GMT-0500 (Central Daylight Time),583636.0,A,clockf,O,f,1166,1,3801.5,579834.5,7795,WL,B,7.0
4,27.924000024795532,learn,32075.999975204468,Mon May 11 2026 11:32:23 GMT-0500 (Central Daylight Time),584049.5999999642,A,clockfi,O,i,400,1,4215.099999964237,579834.5,7795,WL,B,7.0
4,28.492000102996826,learn,31507.999897003174,Mon May 11 2026 11:32:23 GMT-0500 (Central Daylight Time),584618.0999999642,A,clockfir,O,r,546,1,4783.599999964237,579834.5,7795,WL,B,7.0
4,28.808000087738037,learn,31191.999912261963,Mon May 11 2026 11:32:23 GMT-0500 (Central Daylight Time),584933.6999999881,A,clockfire,O,e,305,1,5099.199999988079,579834.5,7795,WL,B,7.0
4,29.624000072479248,learn,30375.999927520752,Mon May 11 2026 11:32:23 GMT-0500 (Central Daylight Time),585749.3999999762,A,clockfireenter,O,enter,798,1,5914.899999976158,579834.5,7795,WL,B,7.0
4,31.973000049591064,learn,28026.999950408936,Mon May 11 2026 11:32:23 GMT-0500 (Central Daylight Time),588099.0999999642,A,c,O,c,2335,1,2349.5,585749.5999999642,7795,WL,B,8.0
4,32.59100008010864,learn,27408.999919891357,Mon May 11 2026 11:32:23 GMT-0500 (Central Daylight Time),588716.6999999881,A,ci,O,i,600,1,2967.100000023842,585749.5999999642,7795,WL,B,8.0
4,33.17300009727478,learn,26826.99990272522,Mon May 11 2026 11:32:23 GMT-0500 (Central Daylight Time),589298.3999999762,A,cit,O,t,577,1,3548.800000011921,585749.5999999642,7795,WL,B,8.0
4,33.473000049591064,learn,26526.999950408936,Mon May 11 2026 11:32:23 GMT-0500 (Central Daylight Time),589598.5999999642,A,city,O,y,289,1,3849.0,585749.5999999642,7795,WL,B,8.0
4,34.2720000743866,learn,25727.999925613403,Mon May 11 2026 11:32:23 GMT-0500 (Central Daylight Time),590398.0999999642,A,cityenter,O,enter,779,1,4648.5,585749.5999999642,7795,WL,B,8.0
4,35.40499997138977,learn,24595.00002861023,Mon May 11 2026 11:32:23 GMT-0500 (Central Daylight Time),591531.5999999642,A,f,O,f,1124,1,1133.2999999523163,590398.3000000119,7795,WL,B,9.0
4,35.8050000667572,learn,24194.999933242798,Mon May 11 2026 11:32:23 GMT-0500 (Central Daylight Time),591931.3000000119,A,fi,O,i,384,1,1533.0,590398.3000000119,7795,WL,B,9.0
4,36.373000144958496,learn,23626.999855041504,Mon May 11 2026 11:32:23 GMT-0500 (Central Daylight Time),592499.3999999762,A,fir,O,r,547,1,2101.099999964237,590398.3000000119,7795,WL,B,9.0
4,36.63800001144409,learn,23361.99998855591,Mon May 11 2026 11:32:23 GMT-0500 (Central Daylight Time),592764.8999999762,A,fire,O,e,255,1,2366.599999964237,590398.3000000119,7795,WL,B,9.0
4,37.13900017738342,learn,22860.999822616577,Mon May 11 2026 11:32:23 GMT-0500 (Central Daylight Time),593265.0999999642,A,fireenter,O,enter,488,1,2866.7999999523163,590398.3000000119,7795,WL,B,9.0
4,46.35000014305115,learn,13649.999856948853,Mon May 11 2026 11:32:23 GMT-0500 (Central Daylight Time),602476.5999999642,A,p,O,p,9200,1,9211.199999988079,593265.3999999762,7795,WL,B,10.0
4,46.96900010108948,learn,13030.999898910522,Mon May 11 2026 11:32:23 GMT-0500 (Central Daylight Time),603095.3999999762,A,pi,O,i,607,1,9830.0,593265.3999999762,7795,WL,B,10.0
4,47.3510000705719,learn,12648.9999294281,Mon May 11 2026 11:32:23 GMT-0500 (Central Daylight Time),603477.8999999762,A,pip,O,p,372,1,10212.5,593265.3999999762,7795,WL,B,10.0
4,48.66700005531311,learn,11332.99994468689,Mon May 11 2026 11:32:23 GMT-0500 (Central Daylight Time),604793.6999999881,A,pipe,O,e,1301,1,11528.300000011921,593265.3999999762,7795,WL,B,10.0
4,49.58400011062622,learn,10415.99988937378,Mon May 11 2026 11:32:23 GMT-0500 (Central Daylight Time),605710.3000000119,A,pipeenter,O,enter,896,1,12444.900000035763,593265.3999999762,7795,WL,B,10.0
4,50.98200011253357,learn,9017.99988746643,Mon May 11 2026 11:32:23 GMT-0500 (Central Daylight Time),607109.0,A,c,O,c,1388,1,1398.4000000357628,605710.5999999642,7795,WL,B,11.0
4,51.54900002479553,learn,8450.999975204468,Mon May 11 2026 11:32:23 GMT-0500 (Central Daylight Time),607676.0,A,cl,O,l,546,1,1965.4000000357628,605710.5999999642,7795,WL,B,11.0
4,51.76600003242493,learn,8233.999967575073,Mon May 11 2026 11:32:23 GMT-0500 (Central Daylight Time),607892.1999999881,A,clo,O,o,204,1,2181.600000023842,605710.5999999642,7795,WL,B,11.0
4,52.415000200271606,learn,7584.999799728394,Mon May 11 2026 11:32:23 GMT-0500 (Central Daylight Time),608542.0999999642,A,cloc,O,c,636,1,2831.5,605710.5999999642,7795,WL,B,11.0
4,53.199000120162964,learn,6800.999879837036,Mon May 11 2026 11:32:23 GMT-0500 (Central Daylight Time),609325.1999999881,A,clock,O,k,760,1,3614.600000023842,605710.5999999642,7795,WL,B,11.0
4,53.765000104904175,learn,6234.999895095825,Mon May 11 2026 11:32:23 GMT-0500 (Central Daylight Time),609891.8999999762,A,clockenter,O,enter,556,1,4181.300000011921,605710.5999999642,7795,WL,B,11.0
4,55.48200011253357,learn,4517.999887466431,Mon May 11 2026 11:32:23 GMT-0500 (Central Daylight Time),611608.5999999642,A,c,O,c,1696,1,1716.3999999761581,609892.1999999881,7795,WL,B,12.0
4,55.86500000953674,learn,4134.999990463257,Mon May 11 2026 11:32:23 GMT-0500 (Central Daylight Time),611991.3000000119,A,ca,O,a,362,1,2099.100000023842,609892.1999999881,7795,WL,B,12.0
4,56.414000034332275,learn,3585.9999656677246,Mon May 11 2026 11:32:23 GMT-0500 (Central Daylight Time),612540.6999999881,A,cab,O,b,537,1,2648.5,609892.1999999881,7795,WL,B,12.0
4,56.84700012207031,learn,3152.9998779296875,Mon May 11 2026 11:32:23 GMT-0500 (Central Daylight Time),612974.0,A,cabu,O,u,411,1,3081.800000011921,609892.1999999881,7795,WL,B,12.0
4,57.36400008201599,learn,2635.999917984009,Mon May 11 2026 11:32:23 GMT-0500 (Central Daylight Time),613491.0999999642,A,cabun,O,n,504,1,3598.899999976158,609892.1999999881,7795,WL,B,12.0
4,57.79700016975403,learn,2202.9998302459717,Mon May 11 2026 11:32:23 GMT-0500 (Central Daylight Time),613923.6999999881,A,cabunenter,O,enter,425,1,4031.5,609892.1999999881,7795,WL,B,12.0
4,58.246999979019165,learn,1753.000020980835,Mon May 11 2026 11:32:23 GMT-0500 (Central Daylight Time),614373.3999999762,A,l,O,l,430,1,449.39999997615814,613924.0,7795,WL,B,13.0
4,58.996999979019165,learn,1003.000020980835,Mon May 11 2026 11:32:23 GMT-0500 (Central Daylight Time),615123.3000000119,A,la,O,a,739,1,1199.300000011921,613924.0,7795,WL,B,13.0
4,59.996999979019165,learn,3.000020980834961,Mon May 11 2026 11:32:23 GMT-0500 (Central Daylight Time),616123.3999999762,A,lak,O,k,984,1,2199.399999976158,613924.0,7795,WL,B,13.0
4,60.01100015640259,learn,-11.00015640258789,Mon May 11 2026 11:32:23 GMT-0500 (Central Daylight Time),616137.8000000119,A,lakNone,O,None,11,1,2213.800000011921,613924.0,7795,WL,B,13.0
5,0.6319999694824219,learn,60000.0,Mon May 11 2026 11:32:23 GMT-0500 (Central Daylight Time),688050.5999999642,A,s,O,s,613,1,631.2999999523163,687419.3000000119,7795,WL,B,1.0
5,1.0980000495910645,learn,60000.0,Mon May 11 2026 11:32:23 GMT-0500 (Central Daylight Time),688516.3999999762,A,st,O,t,454,1,1097.0999999642372,687419.3000000119,7795,WL,B,1.0
5,1.4479999542236328,learn,60000.0,Mon May 11 2026 11:32:23 GMT-0500 (Central Daylight Time),688866.6999999881,A,str,O,r,343,1,1447.3999999761581,687419.3000000119,7795,WL,B,1.0
5,1.7820000648498535,learn,60000.0,Mon May 11 2026 11:32:23 GMT-0500 (Central Daylight Time),689200.8999999762,A,stre,O,e,314,1,1781.5999999642372,687419.3000000119,7795,WL,B,1.0
5,1.9639999866485596,learn,60000.0,Mon May 11 2026 11:32:23 GMT-0500 (Central Daylight Time),689382.3999999762,A,stree,O,e,167,1,1963.0999999642372,687419.3000000119,7795,WL,B,1.0
5,2.315999984741211,learn,60000.0,Mon May 11 2026 11:32:23 GMT-0500 (Central Daylight Time),689733.8999999762,A,street,O,t,340,1,2314.599999964237,687419.3000000119,7795,WL,B,1.0
5,2.697999954223633,learn,60000.0,Mon May 11 2026 11:32:23 GMT-0500 (Central Daylight Time),690116.0999999642,A,streetenter,O,enter,365,1,2696.7999999523163,687419.3000000119,7795,WL,B,1.0
5,2.9649999141693115,learn,60000.0,Mon May 11 2026 11:32:23 GMT-0500 (Central Daylight Time),690383.0,A,g,O,g,254,1,266.60000002384186,690116.3999999762,7795,WL,B,2.0
5,3.2809998989105225,learn,60000.0,Mon May 11 2026 11:32:23 GMT-0500 (Central Daylight Time),690699.6999999881,A,gr,O,r,298,1,583.3000000119209,690116.3999999762,7795,WL,B,2.0
5,3.6470000743865967,learn,60000.0,Mon May 11 2026 11:32:23 GMT-0500 (Central Daylight Time),691065.0,A,gra,O,a,348,1,948.6000000238419,690116.3999999762,7795,WL,B,2.0
5,4.148000001907349,learn,60000.0,Mon May 11 2026 11:32:23 GMT-0500 (Central Daylight Time),691566.1999999881,A,gras,O,s,481,1,1449.800000011921,690116.3999999762,7795,WL,B,2.0
5,4.46399998664856,learn,60000.0,Mon May 11 2026 11:32:23 GMT-0500 (Central Daylight Time),691882.8999999762,A,grass,O,s,310,1,1766.5,690116.3999999762,7795,WL,B,2.0
5,4.799000024795532,learn,60000.0,Mon May 11 2026 11:32:23 GMT-0500 (Central Daylight Time),692217.5999999642,A,grassenter,O,enter,313,1,2101.199999988079,690116.3999999762,7795,WL,B,2.0
5,5.080999851226807,learn,60000.0,Mon May 11 2026 11:32:23 GMT-0500 (Central Daylight Time),692499.3999999762,A,d,O,d,265,1,281.5,692217.8999999762,7795,WL,B,3.0
5,5.5299999713897705,learn,60000.0,Mon May 11 2026 11:32:23 GMT-0500 (Central Daylight Time),692948.0,A,do,O,o,429,1,730.1000000238419,692217.8999999762,7795,WL,B,3.0
5,5.680999994277954,learn,60000.0,Mon May 11 2026 11:32:23 GMT-0500 (Central Daylight Time),693099.0999999642,A,doo,O,o,132,1,881.1999999880791,692217.8999999762,7795,WL,B,3.0
5,6.063999891281128,learn,60000.0,Mon May 11 2026 11:32:23 GMT-0500 (Central Daylight Time),693482.0,A,dooenter,O,enter,368,1,1264.1000000238419,692217.8999999762,7795,WL,B,3.0
5,8.746999979019165,learn,60000.0,Mon May 11 2026 11:32:23 GMT-0500 (Central Daylight Time),696165.1999999881,A,a,O,a,2665,1,2683.0,693482.1999999881,7795,WL,B,4.0
5,9.19599986076355,learn,60000.0,Mon May 11 2026 11:32:23 GMT-0500 (Central Daylight Time),696614.6999999881,A,ar,O,r,438,1,3132.5,693482.1999999881,7795,WL,B,4.0
5,11.379999876022339,learn,60000.0,Mon May 11 2026 11:32:23 GMT-0500 (Central Daylight Time),698798.1999999881,A,arm,O,m,2170,1,5316.0,693482.1999999881,7795,WL,B,4.0
5,13.144000053405762,learn,60000.0,Mon May 11 2026 11:32:23 GMT-0500 (Central Daylight Time),700562.3000000119,A,armenter,O,enter,1757,1,7080.100000023842,693482.1999999881,7795,WL,B,4.0
5,13.578999996185303,learn,60000.0,Mon May 11 2026 11:32:23 GMT-0500 (Central Daylight Time),700997.6999999881,A,c,O,c,423,1,435.19999998807907,700562.5,7795,WL,B,5.0
5,14.14299988746643,learn,60000.0,Mon May 11 2026 11:32:23 GMT-0500 (Central Daylight Time),701561.6999999881,A,ci,O,i,547,1,999.1999999880791,700562.5,7795,WL,B,5.0
5,14.812000036239624,learn,60000.0,Mon May 11 2026 11:32:23 GMT-0500 (Central Daylight Time),702230.3000000119,A,cit,O,t,659,1,1667.800000011921,700562.5,7795,WL,B,5.0
5,15.194000005722046,learn,60000.0,Mon May 11 2026 11:32:23 GMT-0500 (Central Daylight Time),702612.8000000119,A,city,O,y,371,1,2050.300000011921,700562.5,7795,WL,B,5.0
5,15.84500002861023,learn,60000.0,Mon May 11 2026 11:32:23 GMT-0500 (Central Daylight Time),703263.3999999762,A,cityenter,O,enter,629,1,2700.899999976158,700562.5,7795,WL,B,5.0
5,16.244999885559082,learn,60000.0,Mon May 11 2026 11:32:23 GMT-0500 (Central Daylight Time),703663.5,A,f,O,f,388,1,399.80000001192093,703263.6999999881,7795,WL,B,6.0
5,16.67799997329712,learn,60000.0,Mon May 11 2026 11:32:23 GMT-0500 (Central Daylight Time),704096.1999999881,A,fi,O,i,419,1,832.5,703263.6999999881,7795,WL,B,6.0
5,17.175999879837036,learn,60000.0,Mon May 11 2026 11:32:23 GMT-0500 (Central Daylight Time),704594.8999999762,A,fir,O,r,481,1,1331.199999988079,703263.6999999881,7795,WL,B,6.0
5,17.45899987220764,learn,60000.0,Mon May 11 2026 11:32:23 GMT-0500 (Central Daylight Time),704878.0,A,fire,O,e,273,1,1614.300000011921,703263.6999999881,7795,WL,B,6.0
5,18.144999980926514,learn,60000.0,Mon May 11 2026 11:32:23 GMT-0500 (Central Daylight Time),705563.3000000119,A,fireenter,O,enter,664,1,2299.600000023842,703263.6999999881,7795,WL,B,6.0
5,18.491999864578247,learn,60000.0,Mon May 11 2026 11:32:23 GMT-0500 (Central Daylight Time),705910.5999999642,A,c,O,c,327,1,347.0999999642372,705563.5,7795,WL,B,7.0
5,18.80900001525879,learn,60000.0,Mon May 11 2026 11:32:23 GMT-0500 (Central Daylight Time),706227.5,A,ca,O,a,307,1,664.0,705563.5,7795,WL,B,7.0
5,19.243000030517578,learn,60000.0,Mon May 11 2026 11:32:23 GMT-0500 (Central Daylight Time),706661.1999999881,A,cab,O,b,414,1,1097.699999988079,705563.5,7795,WL,B,7.0
5,19.57699990272522,learn,60000.0,Mon May 11 2026 11:32:23 GMT-0500 (Central Daylight Time),706995.3000000119,A,cabu,O,u,317,1,1431.800000011921,705563.5,7795,WL,B,7.0
5,19.97499990463257,learn,60000.0,Mon May 11 2026 11:32:23 GMT-0500 (Central Daylight Time),707393.5,A,cabun,O,n,382,1,1830.0,705563.5,7795,WL,B,7.0
5,20.307999849319458,learn,60000.0,Mon May 11 2026 11:32:23 GMT-0500 (Central Daylight Time),707726.3999999762,A,cabunenter,O,enter,320,1,2162.899999976158,705563.5,7795,WL,B,7.0
5,20.861999988555908,learn,60000.0,Mon May 11 2026 11:32:23 GMT-0500 (Central Daylight Time),708280.3000000119,A,l,O,l,532,1,553.6000000238419,707726.6999999881,7795,WL,B,8.0
5,21.425999879837036,learn,60000.0,Mon May 11 2026 11:32:23 GMT-0500 (Central Daylight Time),708844.5999999642,A,la,O,a,545,1,1117.8999999761581,707726.6999999881,7795,WL,B,8.0
5,21.993000030517578,learn,60000.0,Mon May 11 2026 11:32:23 GMT-0500 (Central Daylight Time),709411.8000000119,A,lak,O,k,550,1,1685.1000000238419,707726.6999999881,7795,WL,B,8.0
5,22.424999952316284,learn,60000.0,Mon May 11 2026 11:32:23 GMT-0500 (Central Daylight Time),709843.0999999642,A,lake,O,e,423,1,2116.399999976158,707726.6999999881,7795,WL,B,8.0
5,22.907999992370605,learn,60000.0,Mon May 11 2026 11:32:23 GMT-0500 (Central Daylight Time),710326.8000000119,A,lakeenter,O,enter,464,1,2600.100000023842,707726.6999999881,7795,WL,B,8.0
5,23.723000049591064,learn,60000.0,Mon May 11 2026 11:32:23 GMT-0500 (Central Daylight Time),711142.5999999642,A,p,O,p,802,1,815.5999999642372,710327.0,7795,WL,B,9.0
5,24.473000049591064,learn,60000.0,Mon May 11 2026 11:32:23 GMT-0500 (Central Daylight Time),711892.3000000119,A,pi,O,i,740,1,1565.300000011921,710327.0,7795,WL,B,9.0
5,24.85699987411499,learn,60000.0,Mon May 11 2026 11:32:23 GMT-0500 (Central Daylight Time),712276.6999999881,A,pip,O,p,368,1,1949.699999988079,710327.0,7795,WL,B,9.0
5,25.473999977111816,learn,60000.0,Mon May 11 2026 11:32:23 GMT-0500 (Central Daylight Time),712893.0999999642,A,pipe,O,e,598,1,2566.099999964237,710327.0,7795,WL,B,9.0
5,25.973999977111816,learn,60000.0,Mon May 11 2026 11:32:23 GMT-0500 (Central Daylight Time),713393.0999999642,A,pipeenter,O,enter,478,1,3066.099999964237,710327.0,7795,WL,B,9.0
5,26.77300000190735,learn,60000.0,Mon May 11 2026 11:32:23 GMT-0500 (Central Daylight Time),714192.5,A,p,O,p,786,1,799.1000000238419,713393.3999999762,7795,WL,B,10.0
5,27.75600004196167,learn,60000.0,Mon May 11 2026 11:32:23 GMT-0500 (Central Daylight Time),715175.5,A,pu,O,u,972,1,1782.1000000238419,713393.3999999762,7795,WL,B,10.0
5,28.289999961853027,learn,60000.0,Mon May 11 2026 11:32:23 GMT-0500 (Central Daylight Time),715709.5,A,pup,O,p,524,1,2316.100000023842,713393.3999999762,7795,WL,B,10.0
5,28.705999851226807,learn,60000.0,Mon May 11 2026 11:32:23 GMT-0500 (Central Daylight Time),716125.0999999642,A,pupi,O,i,397,1,2731.699999988079,713393.3999999762,7795,WL,B,10.0
5,29.27300000190735,learn,60000.0,Mon May 11 2026 11:32:23 GMT-0500 (Central Daylight Time),716692.8999999762,A,pupil,O,l,557,1,3299.5,713393.3999999762,7795,WL,B,10.0
5,30.338000059127808,learn,60000.0,Mon May 11 2026 11:32:23 GMT-0500 (Central Daylight Time),717757.8000000119,A,pupilenter,O,enter,1051,1,4364.400000035763,713393.3999999762,7795,WL,B,10.0
5,38.35199999809265,learn,60000.0,Mon May 11 2026 11:32:23 GMT-0500 (Central Daylight Time),725771.5999999642,A,c,O,c,7997,1,8013.5,717758.0999999642,7795,WL,B,11.0
5,38.901999950408936,learn,60000.0,Mon May 11 2026 11:32:23 GMT-0500 (Central Daylight Time),726321.5999999642,A,cl,O,l,529,1,8563.5,717758.0999999642,7795,WL,B,11.0
5,39.13800001144409,learn,60000.0,Mon May 11 2026 11:32:23 GMT-0500 (Central Daylight Time),726556.8999999762,A,clo,O,o,225,1,8798.800000011921,717758.0999999642,7795,WL,B,11.0
5,39.68599987030029,learn,60000.0,Mon May 11 2026 11:32:23 GMT-0500 (Central Daylight Time),727105.0,A,cloc,O,c,532,1,9346.900000035763,717758.0999999642,7795,WL,B,11.0
5,40.753000020980835,learn,60000.0,Mon May 11 2026 11:32:23 GMT-0500 (Central Daylight Time),728172.5999999642,A,clock,O,k,1057,1,10414.5,717758.0999999642,7795,WL,B,11.0
5,42.61800003051758,learn,60000.0,Mon May 11 2026 11:32:23 GMT-0500 (Central Daylight Time),730037.0999999642,A,clockenter,O,enter,1854,1,12279.0,717758.0999999642,7795,WL,B,11.0
5,44.5,learn,60000.0,Mon May 11 2026 11:32:23 GMT-0500 (Central Daylight Time),731919.0999999642,A,p,O,p,1862,1,1881.7999999523163,730037.3000000119,7795,WL,B,12.0
5,44.882999897003174,learn,60000.0,Mon May 11 2026 11:32:23 GMT-0500 (Central Daylight Time),732302.3999999762,A,pi,O,i,366,1,2265.099999964237,730037.3000000119,7795,WL,B,12.0
5,45.382999897003174,learn,60000.0,Mon May 11 2026 11:32:23 GMT-0500 (Central Daylight Time),732802.5,A,pip,O,p,483,1,2765.199999988079,730037.3000000119,7795,WL,B,12.0
5,46.050999879837036,learn,60000.0,Mon May 11 2026 11:32:23 GMT-0500 (Central Daylight Time),733470.0999999642,A,pipe,O,e,645,1,3432.7999999523163,730037.3000000119,7795,WL,B,12.0
5,47.032999992370605,learn,60000.0,Mon May 11 2026 11:32:23 GMT-0500 (Central Daylight Time),734451.8999999762,A,pipeenter,O,enter,964,1,4414.599999964237,730037.3000000119,7795,WL,B,12.0
5,47.598999977111816,learn,60000.0,Mon May 11 2026 11:32:23 GMT-0500 (Central Daylight Time),735018.5999999642,A,p,O,p,550,1,566.5,734452.0999999642,7795,WL,B,13.0
5,48.36500000953674,learn,60000.0,Mon May 11 2026 11:32:23 GMT-0500 (Central Daylight Time),735784.8000000119,A,pu,O,u,743,1,1332.7000000476837,734452.0999999642,7795,WL,B,13.0
5,48.83200001716614,learn,60000.0,Mon May 11 2026 11:32:23 GMT-0500 (Central Daylight Time),736251.5,A,pup,O,p,448,1,1799.4000000357628,734452.0999999642,7795,WL,B,13.0
5,49.48199987411499,learn,60000.0,Mon May 11 2026 11:32:23 GMT-0500 (Central Daylight Time),736901.8999999762,A,pupi,O,i,629,1,2449.800000011921,734452.0999999642,7795,WL,B,13.0
5,49.91599988937378,learn,60000.0,Mon May 11 2026 11:32:23 GMT-0500 (Central Daylight Time),737335.0999999642,A,pupil,O,l,417,1,2883.0,734452.0999999642,7795,WL,B,13.0
5,50.33299994468689,learn,60000.0,Mon May 11 2026 11:32:23 GMT-0500 (Central Daylight Time),737752.3000000119,A,pupilenter,O,enter,398,1,3300.2000000476837,734452.0999999642,7795,WL,B,13.0
5,50.71399998664856,learn,60000.0,Mon May 11 2026 11:32:23 GMT-0500 (Central Daylight Time),738133.6999999881,A,s,O,s,370,1,381.19999998807907,737752.5,7795,WL,B,14.0
5,51.08200001716614,learn,60000.0,Mon May 11 2026 11:32:23 GMT-0500 (Central Daylight Time),738501.3999999762,A,st,O,t,346,1,748.8999999761581,737752.5,7795,WL,B,14.0
5,51.48300004005432,learn,60000.0,Mon May 11 2026 11:32:23 GMT-0500 (Central Daylight Time),738902.0,A,sta,O,a,390,1,1149.5,737752.5,7795,WL,B,14.0
5,51.914000034332275,learn,60000.0,Mon May 11 2026 11:32:23 GMT-0500 (Central Daylight Time),739333.8000000119,A,star,O,r,421,1,1581.300000011921,737752.5,7795,WL,B,14.0
5,52.54699993133545,learn,60000.0,Mon May 11 2026 11:32:23 GMT-0500 (Central Daylight Time),739966.8000000119,A,starenter,O,enter,620,1,2214.300000011921,737752.5,7795,WL,B,14.0
5,79.4559998512268,learn,60000.0,Mon May 11 2026 11:32:23 GMT-0500 (Central Daylight Time),766875.3999999762,A,w,O,w,26893,1,26908.399999976158,739967.0,7795,WL,B,15.0
6,0.7999999523162842,distr,59200.000047683716,Mon May 11 2026 11:32:23 GMT-0500 (Central Daylight Time),851449.3000000119,B,b,O,b,778,1,800.5,850648.8000000119,7795,WL,B,1.0
6,1.1670000553131104,distr,58832.99994468689,Mon May 11 2026 11:32:23 GMT-0500 (Central Daylight Time),851815.5,B,ba,O,a,346,1,1166.699999988079,850648.8000000119,7795,WL,B,1.0
6,1.6660001277923584,distr,58333.99987220764,Mon May 11 2026 11:32:23 GMT-0500 (Central Daylight Time),852314.3000000119,B,bab,O,b,490,1,1665.5,850648.8000000119,7795,WL,B,1.0
6,2.1649999618530273,distr,57835.00003814697,Mon May 11 2026 11:32:23 GMT-0500 (Central Daylight Time),852814.0,B,baby,O,y,484,1,2165.199999988079,850648.8000000119,7795,WL,B,1.0
6,3.7820000648498535,distr,56217.99993515015,Mon May 11 2026 11:32:23 GMT-0500 (Central Daylight Time),854431.0,B,babyb,O,b,1602,1,3782.199999988079,850648.8000000119,7795,WL,B,1.0
6,4.131999969482422,distr,55868.00003051758,Mon May 11 2026 11:32:23 GMT-0500 (Central Daylight Time),854780.3000000119,B,babybu,O,u,335,1,4131.5,850648.8000000119,7795,WL,B,1.0
6,4.398000001907349,distr,55601.99999809265,Mon May 11 2026 11:32:23 GMT-0500 (Central Daylight Time),855047.0,B,babybui,O,i,243,1,4398.199999988079,850648.8000000119,7795,WL,B,1.0
6,4.664999961853027,distr,55335.00003814697,Mon May 11 2026 11:32:23 GMT-0500 (Central Daylight Time),855313.5,B,babybuil,O,l,257,1,4664.699999988079,850648.8000000119,7795,WL,B,1.0
6,5.331000089645386,distr,54668.999910354614,Mon May 11 2026 11:32:23 GMT-0500 (Central Daylight Time),855980.0,B,babybuild,O,d,653,1,5331.199999988079,850648.8000000119,7795,WL,B,1.0
6,5.598999977111816,distr,54401.00002288818,Mon May 11 2026 11:32:23 GMT-0500 (Central Daylight Time),856247.3000000119,B,babybuildi,O,i,245,1,5598.5,850648.8000000119,7795,WL,B,1.0
6,5.88100004196167,distr,54118.99995803833,Mon May 11 2026 11:32:23 GMT-0500 (Central Daylight Time),856529.8000000119,B,babybuildin,O,n,274,1,5881.0,850648.8000000119,7795,WL,B,1.0
6,6.131999969482422,distr,53868.00003051758,Mon May 11 2026 11:32:23 GMT-0500 (Central Daylight Time),856780.3000000119,B,babybuilding,O,g,238,1,6131.5,850648.8000000119,7795,WL,B,1.0
6,6.697999954223633,distr,53302.00004577637,Mon May 11 2026 11:32:23 GMT-0500 (Central Daylight Time),857346.6999999881,B,babybuildinga,O,a,548,1,6697.899999976158,850648.8000000119,7795,WL,B,1.0
6,7.115000009536743,distr,52884.99999046326,Mon May 11 2026 11:32:23 GMT-0500 (Central Daylight Time),857763.3000000119,B,babybuildingar,O,r,399,1,7114.5,850648.8000000119,7795,WL,B,1.0
6,7.498000144958496,distr,52501.999855041504,Mon May 11 2026 11:32:23 GMT-0500 (Central Daylight Time),858146.3000000119,B,babybuildingarm,O,m,375,1,7497.5,850648.8000000119,7795,WL,B,1.0
6,8.44700002670288,distr,51552.99997329712,Mon May 11 2026 11:32:23 GMT-0500 (Central Daylight Time),859095.3999999762,B,babybuildingarmy,O,y,931,1,8446.599999964237,850648.8000000119,7795,WL,B,1.0
6,11.828999996185303,distr,48171.0000038147,Mon May 11 2026 11:32:23 GMT-0500 (Central Daylight Time),862477.8000000119,B,babybuildingarmyenter,O,enter,3367,1,11829.0,850648.8000000119,7795,WL,B,1.0
6,25.70799994468689,distr,34292.00005531311,Mon May 11 2026 11:32:23 GMT-0500 (Central Daylight Time),876356.6999999881,B,p,O,p,13869,1,13878.600000023842,862478.0999999642,7795,WL,B,2.0
6,26.125,distr,33875.0,Mon May 11 2026 11:32:23 GMT-0500 (Central Daylight Time),876773.8999999762,B,pa,O,a,407,1,14295.800000011921,862478.0999999642,7795,WL,B,2.0
6,26.473999977111816,distr,33526.00002288818,Mon May 11 2026 11:32:23 GMT-0500 (Central Daylight Time),877122.8999999762,B,pal,O,l,341,1,14644.800000011921,862478.0999999642,7795,WL,B,2.0
6,26.758000135421753,distr,33241.99986457825,Mon May 11 2026 11:32:23 GMT-0500 (Central Daylight Time),877407.1999999881,B,pala,O,a,270,1,14929.100000023842,862478.0999999642,7795,WL,B,2.0
6,27.10700011253357,distr,32892.99988746643,Mon May 11 2026 11:32:23 GMT-0500 (Central Daylight Time),877756.1999999881,B,palac,O,c,330,1,15278.100000023842,862478.0999999642,7795,WL,B,2.0
6,27.7739999294281,distr,32226.0000705719,Mon May 11 2026 11:32:23 GMT-0500 (Central Daylight Time),878422.5999999642,B,palace,O,e,645,1,15944.5,862478.0999999642,7795,WL,B,2.0
6,30.108999967575073,distr,29891.000032424927,Mon May 11 2026 11:32:23 GMT-0500 (Central Daylight Time),880757.5999999642,B,palaceenter,O,enter,2323,1,18279.5,862478.0999999642,7795,WL,B,2.0
6,34.07200002670288,distr,25927.99997329712,Mon May 11 2026 11:32:23 GMT-0500 (Central Daylight Time),884721.3000000119,B,b,O,b,3948,1,3963.5,880757.8000000119,7795,WL,B,3.0
6,34.77300000190735,distr,25226.99999809265,Mon May 11 2026 11:32:23 GMT-0500 (Central Daylight Time),885421.8000000119,B,ba,O,a,681,1,4664.0,880757.8000000119,7795,WL,B,3.0
6,35.13800001144409,distr,24861.99998855591,Mon May 11 2026 11:32:23 GMT-0500 (Central Daylight Time),885786.5999999642,B,bab,O,b,347,1,5028.799999952316,880757.8000000119,7795,WL,B,3.0
6,35.687999963760376,distr,24312.000036239624,Mon May 11 2026 11:32:23 GMT-0500 (Central Daylight Time),886337.3000000119,B,baby,O,y,532,1,5579.5,880757.8000000119,7795,WL,B,3.0
6,36.63700008392334,distr,23362.99991607666,Mon May 11 2026 11:32:23 GMT-0500 (Central Daylight Time),887285.8000000119,B,babyenter,O,enter,929,1,6528.0,880757.8000000119,7795,WL,B,3.0
6,37.40499997138977,distr,22595.00002861023,Mon May 11 2026 11:32:23 GMT-0500 (Central Daylight Time),888053.5,B,l,O,l,759,1,767.4000000357628,887286.0999999642,7795,WL,B,4.0
6,37.72200012207031,distr,22277.999877929688,Mon May 11 2026 11:32:23 GMT-0500 (Central Daylight Time),888370.3999999762,B,li,O,i,301,1,1084.300000011921,887286.0999999642,7795,WL,B,4.0
6,38.1710000038147,distr,21828.999996185303,Mon May 11 2026 11:32:23 GMT-0500 (Central Daylight Time),888819.8000000119,B,lip,O,p,431,1,1533.7000000476837,887286.0999999642,7795,WL,B,4.0
6,39.2039999961853,distr,20796.000003814697,Mon May 11 2026 11:32:23 GMT-0500 (Central Daylight Time),889852.3000000119,B,lipenter,O,enter,1016,1,2566.2000000476837,887286.0999999642,7795,WL,B,4.0
6,39.8199999332428,distr,20180.000066757202,Mon May 11 2026 11:32:23 GMT-0500 (Central Daylight Time),890469.0999999642,B,o,O,o,598,1,616.5,889852.5999999642,7795,WL,B,5.0
6,40.12000012397766,distr,19879.99987602234,Mon May 11 2026 11:32:23 GMT-0500 (Central Daylight Time),890769.0999999642,B,oc,O,c,280,1,916.5,889852.5999999642,7795,WL,B,5.0
6,40.45300006866455,distr,19546.99993133545,Mon May 11 2026 11:32:23 GMT-0500 (Central Daylight Time),891102.0999999642,B,oce,O,e,312,1,1249.5,889852.5999999642,7795,WL,B,5.0
6,41.1029999256134,distr,18897.000074386597,Mon May 11 2026 11:32:23 GMT-0500 (Central Daylight Time),891752.1999999881,B,ocea,O,a,635,1,1899.6000000238419,889852.5999999642,7795,WL,B,5.0
6,41.28699994087219,distr,18713.000059127808,Mon May 11 2026 11:32:23 GMT-0500 (Central Daylight Time),891936.3000000119,B,ocean,O,n,171,1,2083.7000000476837,889852.5999999642,7795,WL,B,5.0
6,42.00200009346008,distr,17997.999906539917,Mon May 11 2026 11:32:23 GMT-0500 (Central Daylight Time),892651.3999999762,B,oceanenter,O,enter,706,1,2798.800000011921,889852.5999999642,7795,WL,B,5.0
6,48.01800012588501,distr,11981.99987411499,Mon May 11 2026 11:32:23 GMT-0500 (Central Daylight Time),898667.3000000119,B,v,O,v,6010,1,6015.600000023842,892651.6999999881,7795,WL,B,6.0
6,48.301000118255615,distr,11698.999881744385,Mon May 11 2026 11:32:23 GMT-0500 (Central Daylight Time),898950.0999999642,B,vi,O,i,262,1,6298.399999976158,892651.6999999881,7795,WL,B,6.0
6,48.61800003051758,distr,11381.999969482422,Mon May 11 2026 11:32:23 GMT-0500 (Central Daylight Time),899267.3000000119,B,vil,O,l,297,1,6615.600000023842,892651.6999999881,7795,WL,B,6.0
6,48.78500008583069,distr,11214.999914169312,Mon May 11 2026 11:32:23 GMT-0500 (Central Daylight Time),899433.6999999881,B,vill,O,l,150,1,6782.0,892651.6999999881,7795,WL,B,6.0
6,49.58500003814697,distr,10414.999961853027,Mon May 11 2026 11:32:23 GMT-0500 (Central Daylight Time),900233.6999999881,B,villa,O,a,779,1,7582.0,892651.6999999881,7795,WL,B,6.0
6,49.85000014305115,distr,10149.999856948853,Mon May 11 2026 11:32:23 GMT-0500 (Central Daylight Time),900499.0999999642,B,villag,O,g,257,1,7847.399999976158,892651.6999999881,7795,WL,B,6.0
6,50.18300008773804,distr,9816.999912261963,Mon May 11 2026 11:32:23 GMT-0500 (Central Daylight Time),900832.0999999642,B,village,O,e,318,1,8180.399999976158,892651.6999999881,7795,WL,B,6.0
6,51.43300008773804,distr,8566.999912261963,Mon May 11 2026 11:32:23 GMT-0500 (Central Daylight Time),902082.5,B,villageenter,O,enter,1230,1,9430.800000011921,892651.6999999881,7795,WL,B,6.0
6,60.015000104904175,distr,-15.000104904174805,Mon May 11 2026 11:32:23 GMT-0500 (Central Daylight Time),910663.8000000119,B,None,O,None,8576,1,8581.0,902082.8000000119,7795,WL,B,7.0
7,5.213000059127808,immed,54786.99994087219,Mon May 11 2026 11:32:23 GMT-0500 (Central Daylight Time),931355.5999999642,A,s,O,s,5206,1,5212.199999988079,926143.3999999762,7795,WL,B,1.0
7,5.796000003814697,immed,54203.9999961853,Mon May 11 2026 11:32:23 GMT-0500 (Central Daylight Time),931939.5,A,st,O,t,566,1,5796.100000023842,926143.3999999762,7795,WL,B,1.0
7,6.163000106811523,immed,53836.99989318848,Mon May 11 2026 11:32:23 GMT-0500 (Central Daylight Time),932306.0999999642,A,str,O,r,351,1,6162.699999988079,926143.3999999762,7795,WL,B,1.0
7,6.482000112533569,immed,53517.99988746643,Mon May 11 2026 11:32:23 GMT-0500 (Central Daylight Time),932624.8999999762,A,stre,O,e,298,1,6481.5,926143.3999999762,7795,WL,B,1.0
7,6.646000146865845,immed,53353.999853134155,Mon May 11 2026 11:32:23 GMT-0500 (Central Daylight Time),932789.0,A,stree,O,e,153,1,6645.600000023842,926143.3999999762,7795,WL,B,1.0
7,6.979000091552734,immed,53020.999908447266,Mon May 11 2026 11:32:23 GMT-0500 (Central Daylight Time),933121.6999999881,A,street,O,t,324,1,6978.300000011921,926143.3999999762,7795,WL,B,1.0
7,7.947000026702881,immed,52052.99997329712,Mon May 11 2026 11:32:23 GMT-0500 (Central Daylight Time),934090.5,A,streetg,O,g,952,1,7947.100000023842,926143.3999999762,7795,WL,B,1.0
7,8.279000043869019,immed,51720.99995613098,Mon May 11 2026 11:32:23 GMT-0500 (Central Daylight Time),934422.3000000119,A,streetgr,O,r,311,1,8278.900000035763,926143.3999999762,7795,WL,B,1.0
7,11.628000020980835,immed,48371.999979019165,Mon May 11 2026 11:32:23 GMT-0500 (Central Daylight Time),937771.0,A,streetg,O,backspace,3331,1,11627.600000023842,926143.3999999762,7795,WL,B,1.0
7,12.377000093460083,immed,47622.99990653992,Mon May 11 2026 11:32:23 GMT-0500 (Central Daylight Time),938520.3999999762,A,street,O,backspace,734,1,12377.0,926143.3999999762,7795,WL,B,1.0
7,13.394999980926514,immed,46605.000019073486,Mon May 11 2026 11:32:23 GMT-0500 (Central Daylight Time),939538.1999999881,A,streetenter,O,enter,998,1,13394.800000011921,926143.3999999762,7795,WL,B,1.0
7,14.144000053405762,immed,45855.99994659424,Mon May 11 2026 11:32:23 GMT-0500 (Central Daylight Time),940287.5,A,g,O,g,729,1,749.1000000238419,939538.3999999762,7795,WL,B,2.0
7,14.509999990463257,immed,45490.00000953674,Mon May 11 2026 11:32:23 GMT-0500 (Central Daylight Time),940652.8999999762,A,gr,O,r,355,1,1114.5,939538.3999999762,7795,WL,B,2.0
7,15.327000141143799,immed,44672.9998588562,Mon May 11 2026 11:32:23 GMT-0500 (Central Daylight Time),941470.0,A,gra,O,a,798,1,1931.6000000238419,939538.3999999762,7795,WL,B,2.0
7,15.660000085830688,immed,44339.99991416931,Mon May 11 2026 11:32:23 GMT-0500 (Central Daylight Time),941803.5999999642,A,gras,O,s,323,1,2265.199999988079,939538.3999999762,7795,WL,B,2.0
7,15.943000078201294,immed,44056.999921798706,Mon May 11 2026 11:32:23 GMT-0500 (Central Daylight Time),942086.5,A,grass,O,s,273,1,2548.100000023842,939538.3999999762,7795,WL,B,2.0
7,16.5770001411438,immed,43422.9998588562,Mon May 11 2026 11:32:23 GMT-0500 (Central Daylight Time),942720.3000000119,A,grassenter,O,enter,620,1,3181.900000035763,939538.3999999762,7795,WL,B,2.0
7,17.044000148773193,immed,42955.99985122681,Mon May 11 2026 11:32:23 GMT-0500 (Central Daylight Time),943187.0999999642,A,d,O,d,447,1,466.39999997615814,942720.6999999881,7795,WL,B,3.0
7,17.64300012588501,immed,42356.99987411499,Mon May 11 2026 11:32:23 GMT-0500 (Central Daylight Time),943785.8999999762,A,do,O,o,579,1,1065.199999988079,942720.6999999881,7795,WL,B,3.0
7,17.776000022888184,immed,42223.99997711182,Mon May 11 2026 11:32:23 GMT-0500 (Central Daylight Time),943919.3000000119,A,doo,O,o,127,1,1198.6000000238419,942720.6999999881,7795,WL,B,3.0
7,18.243000030517578,immed,41756.99996948242,Mon May 11 2026 11:32:23 GMT-0500 (Central Daylight Time),944386.1999999881,A,door,O,r,447,1,1665.5,942720.6999999881,7795,WL,B,3.0
7,18.69099998474121,immed,41309.00001525879,Mon May 11 2026 11:32:23 GMT-0500 (Central Daylight Time),944834.3000000119,A,doorenter,O,enter,439,1,2113.600000023842,942720.6999999881,7795,WL,B,3.0
7,19.242000102996826,immed,40757.999897003174,Mon May 11 2026 11:32:23 GMT-0500 (Central Daylight Time),945384.6999999881,A,a,O,a,535,1,550.1000000238419,944834.5999999642,7795,WL,B,4.0
7,19.692000150680542,immed,40307.99984931946,Mon May 11 2026 11:32:23 GMT-0500 (Central Daylight Time),945834.6999999881,A,ar,O,r,442,1,1000.1000000238419,944834.5999999642,7795,WL,B,4.0
7,20.825000047683716,immed,39174.999952316284,Mon May 11 2026 11:32:23 GMT-0500 (Central Daylight Time),946968.0,A,arm,O,m,1120,1,2133.400000035763,944834.5999999642,7795,WL,B,4.0
7,22.608999967575073,immed,37391.00003242493,Mon May 11 2026 11:32:23 GMT-0500 (Central Daylight Time),948752.3999999762,A,armenter,O,enter,1778,1,3917.800000011921,944834.5999999642,7795,WL,B,4.0
7,22.723999977111816,immed,37276.00002288818,Mon May 11 2026 11:32:23 GMT-0500 (Central Daylight Time),948867.3999999762,A,enter,O,enter,97,1,114.80000001192093,948752.5999999642,7795,WL,B,5.0
7,23.657999992370605,immed,36342.000007629395,Mon May 11 2026 11:32:23 GMT-0500 (Central Daylight Time),949801.1999999881,A,c,O,c,913,1,933.5,948867.6999999881,7795,WL,B,6.0
7,24.006999969482422,immed,35993.00003051758,Mon May 11 2026 11:32:23 GMT-0500 (Central Daylight Time),950150.0999999642,A,ca,O,a,328,1,1282.3999999761581,948867.6999999881,7795,WL,B,6.0
7,24.573000192642212,immed,35426.99980735779,Mon May 11 2026 11:32:23 GMT-0500 (Central Daylight Time),950716.0,A,cab,O,b,555,1,1848.300000011921,948867.6999999881,7795,WL,B,6.0
7,25.08899998664856,immed,34911.00001335144,Mon May 11 2026 11:32:23 GMT-0500 (Central Daylight Time),951232.8999999762,A,cabi,O,i,513,1,2365.199999988079,948867.6999999881,7795,WL,B,6.0
7,26.02300000190735,immed,33976.99999809265,Mon May 11 2026 11:32:23 GMT-0500 (Central Daylight Time),952166.8999999762,A,cabin,O,n,914,1,3299.199999988079,948867.6999999881,7795,WL,B,6.0
7,26.687999963760376,immed,33312.000036239624,Mon May 11 2026 11:32:23 GMT-0500 (Central Daylight Time),952831.8000000119,A,cabinenter,O,enter,649,1,3964.100000023842,948867.6999999881,7795,WL,B,6.0
7,27.073000192642212,immed,32926.99980735779,Mon May 11 2026 11:32:23 GMT-0500 (Central Daylight Time),953216.3000000119,A,f,O,f,366,1,384.2000000476837,952832.0999999642,7795,WL,B,7.0
7,27.48900008201599,immed,32510.99991798401,Mon May 11 2026 11:32:23 GMT-0500 (Central Daylight Time),953633.0,A,fi,O,i,393,1,800.9000000357628,952832.0999999642,7795,WL,B,7.0
7,28.355000019073486,immed,31644.999980926514,Mon May 11 2026 11:32:23 GMT-0500 (Central Daylight Time),954498.5999999642,A,fir,O,r,850,1,1666.5,952832.0999999642,7795,WL,B,7.0
7,28.621999979019165,immed,31378.000020980835,Mon May 11 2026 11:32:23 GMT-0500 (Central Daylight Time),954765.8000000119,A,fire,O,e,255,1,1933.7000000476837,952832.0999999642,7795,WL,B,7.0
7,29.47100019454956,immed,30528.99980545044,Mon May 11 2026 11:32:23 GMT-0500 (Central Daylight Time),955614.8999999762,A,firel,O,l,835,1,2782.800000011921,952832.0999999642,7795,WL,B,7.0
7,29.98900008201599,immed,30010.99991798401,Mon May 11 2026 11:32:23 GMT-0500 (Central Daylight Time),956132.5,A,firela,O,a,509,1,3300.400000035763,952832.0999999642,7795,WL,B,7.0
7,30.521000146865845,immed,29478.999853134155,Mon May 11 2026 11:32:23 GMT-0500 (Central Daylight Time),956664.1999999881,A,firelak,O,k,514,1,3832.100000023842,952832.0999999642,7795,WL,B,7.0
7,31.639000177383423,immed,28360.999822616577,Mon May 11 2026 11:32:23 GMT-0500 (Central Daylight Time),957782.5,A,firelake,O,e,1107,1,4950.400000035763,952832.0999999642,7795,WL,B,7.0
7,33.121999979019165,immed,26878.000020980835,Mon May 11 2026 11:32:23 GMT-0500 (Central Daylight Time),959265.3999999762,A,firelak,O,backspace,1478,1,6433.300000011921,952832.0999999642,7795,WL,B,7.0
7,33.40400004386902,immed,26595.99995613098,Mon May 11 2026 11:32:23 GMT-0500 (Central Daylight Time),959547.1999999881,A,firela,O,backspace,267,1,6715.100000023842,952832.0999999642,7795,WL,B,7.0
7,33.68600010871887,immed,26313.999891281128,Mon May 11 2026 11:32:23 GMT-0500 (Central Daylight Time),959829.8000000119,A,firel,O,backspace,271,1,6997.700000047684,952832.0999999642,7795,WL,B,7.0
7,34.07300019264221,immed,25926.999807357788,Mon May 11 2026 11:32:23 GMT-0500 (Central Daylight Time),960216.1999999881,A,fire,O,backspace,365,1,7384.100000023842,952832.0999999642,7795,WL,B,7.0
7,35.28600001335144,immed,24713.99998664856,Mon May 11 2026 11:32:23 GMT-0500 (Central Daylight Time),961429.5999999642,A,fireenter,O,enter,1202,1,8597.5,952832.0999999642,7795,WL,B,7.0
7,36.269999980926514,immed,23730.000019073486,Mon May 11 2026 11:32:23 GMT-0500 (Central Daylight Time),962413.5999999642,A,l,O,l,965,1,983.7999999523163,961429.8000000119,7795,WL,B,8.0
7,36.76900005340576,immed,23230.99994659424,Mon May 11 2026 11:32:23 GMT-0500 (Central Daylight Time),962912.3999999762,A,la,O,a,484,1,1482.5999999642372,961429.8000000119,7795,WL,B,8.0
7,37.71900010108948,immed,22280.999898910522,Mon May 11 2026 11:32:23 GMT-0500 (Central Daylight Time),963862.8000000119,A,lak,O,k,938,1,2433.0,961429.8000000119,7795,WL,B,8.0
7,38.91900014877319,immed,21080.999851226807,Mon May 11 2026 11:32:23 GMT-0500 (Central Daylight Time),965062.3000000119,A,lake,O,e,1178,1,3632.5,961429.8000000119,7795,WL,B,8.0
7,43.39900016784668,immed,16600.99983215332,Mon May 11 2026 11:32:23 GMT-0500 (Central Daylight Time),969542.3000000119,A,lakeenter,O,enter,4458,1,8112.5,961429.8000000119,7795,WL,B,8.0
7,53.59700012207031,immed,6402.9998779296875,Mon May 11 2026 11:32:23 GMT-0500 (Central Daylight Time),979740.6999999881,A,w,O,w,10190,1,10198.100000023842,969542.5999999642,7795,WL,B,9.0
7,54.1470000743866,immed,5852.999925613403,Mon May 11 2026 11:32:23 GMT-0500 (Central Daylight Time),980290.5999999642,A,wi,O,i,541,1,10748.0,969542.5999999642,7795,WL,B,9.0
7,54.76400017738342,immed,5235.999822616577,Mon May 11 2026 11:32:23 GMT-0500 (Central Daylight Time),980907.3999999762,A,wif,O,f,597,1,11364.800000011921,969542.5999999642,7795,WL,B,9.0
7,55.66300010681152,immed,4336.999893188477,Mon May 11 2026 11:32:23 GMT-0500 (Central Daylight Time),981806.5999999642,A,wife,O,e,878,1,12264.0,969542.5999999642,7795,WL,B,9.0
7,56.480000019073486,immed,3519.9999809265137,Mon May 11 2026 11:32:23 GMT-0500 (Central Daylight Time),982623.8999999762,A,wifeenter,O,enter,793,1,13081.300000011921,969542.5999999642,7795,WL,B,9.0
7,56.99600005149841,immed,3003.999948501587,Mon May 11 2026 11:32:23 GMT-0500 (Central Daylight Time),983139.0999999642,A,w,O,w,506,1,515.0,982624.0999999642,7795,WL,B,10.0
7,57.49600005149841,immed,2503.999948501587,Mon May 11 2026 11:32:23 GMT-0500 (Central Daylight Time),983639.3000000119,A,wi,O,i,483,1,1015.2000000476837,982624.0999999642,7795,WL,B,10.0
7,58.212000131607056,immed,1787.9998683929443,Mon May 11 2026 11:32:23 GMT-0500 (Central Daylight Time),984355.5,A,win,O,n,697,1,1731.4000000357628,982624.0999999642,7795,WL,B,10.0
7,59.128000020980835,immed,871.999979019165,Mon May 11 2026 11:32:23 GMT-0500 (Central Daylight Time),985271.8000000119,A,wind,O,d,900,1,2647.7000000476837,982624.0999999642,7795,WL,B,10.0
7,59.66100001335144,immed,338.99998664855957,Mon May 11 2026 11:32:23 GMT-0500 (Central Daylight Time),985804.8000000119,A,windo,O,o,521,1,3180.7000000476837,982624.0999999642,7795,WL,B,10.0
7,60.01200008392334,immed,-12.000083923339844,Mon May 11 2026 11:32:23 GMT-0500 (Central Daylight Time),986155.3999999762,A,windoNone,O,None,343,1,3531.300000011921,982624.0999999642,7795,WL,B,10.0
