Number,acc_sum,block,block_c,block_cond,con_img,correct,correct_response,datetime,endtime,jitter,project,response,response_time,row_sel,session_number,start_end,starttime,subject_id,task,task_vers,trial
1,1,prac,1,A,circle.png,1,z,Fri Dec 05 2025 13:12:40 GMT-0600 (Central Standard Time),94230.5,1000,O,z,1297,1,1,3092.300000011921,91138.19999998808,7718,NTS,C,1
8,2,prac,1,A,circle.png,1,m,Fri Dec 05 2025 13:12:40 GMT-0600 (Central Standard Time),97614.69999998808,1600,O,m,1000,7,1,3377.0,94237.69999998808,7718,NTS,C,2
4,3,prac,1,A,circle.png,1,z,Fri Dec 05 2025 13:12:40 GMT-0600 (Central Standard Time),100530.89999997616,1400,O,z,739,4,1,2909.0,97621.89999997616,7718,NTS,C,3
3,4,prac,1,A,circle.png,1,z,Fri Dec 05 2025 13:12:40 GMT-0600 (Central Standard Time),103429.0,1200,O,z,910,3,1,2890.5,100538.5,7718,NTS,C,4
2,5,prac,1,A,circle.png,1,z,Fri Dec 05 2025 13:12:40 GMT-0600 (Central Standard Time),106826.89999997616,2000,O,z,612,2,1,3390.300000011921,103436.59999996424,7718,NTS,C,5
4,6,prac,1,A,circle.png,1,z,Fri Dec 05 2025 13:12:40 GMT-0600 (Central Standard Time),109725.89999997616,1400,O,z,718,4,1,2894.399999976158,106831.5,7718,NTS,C,6
7,7,prac,1,A,circle.png,1,m,Fri Dec 05 2025 13:12:40 GMT-0600 (Central Standard Time),113126.80000001192,1700,O,m,926,6,1,3396.7000000476837,109730.09999996424,7718,NTS,C,7
9,7,prac,1,A,circle.png,0,m,Fri Dec 05 2025 13:12:40 GMT-0600 (Central Standard Time),116442.09999996424,1500,O,z,1031,8,1,3310.5,113131.59999996424,7718,NTS,C,8
1,7,prac,1,A,circle.png,0,z,Fri Dec 05 2025 13:12:40 GMT-0600 (Central Standard Time),119737.59999996424,1000,O,None,1511,1,1,3289.5,116448.09999996424,7718,NTS,C,9
8,7,prac,1,A,circle.png,0,m,Fri Dec 05 2025 13:12:40 GMT-0600 (Central Standard Time),123639.69999998808,1600,O,None,1516,7,1,3892.199999988079,119747.5,7718,NTS,C,10
3,8,prac,1,A,circle.png,1,z,Fri Dec 05 2025 13:12:40 GMT-0600 (Central Standard Time),126456.89999997616,1200,O,z,842,3,1,2809.899999976158,123647.0,7718,NTS,C,11
6,9,prac,1,A,circle.png,1,m,Fri Dec 05 2025 13:12:40 GMT-0600 (Central Standard Time),129986.89999997616,1900,O,m,835,5,1,3521.699999988079,126465.19999998808,7718,NTS,C,12
4,1,prac,1,B,triangle.png,1,m,Fri Dec 05 2025 13:12:40 GMT-0600 (Central Standard Time),171255.80000001192,1500,O,m,1382,4,1,3676.7000000476837,167579.09999996424,7718,NTS,C,1
6,2,prac,1,B,triangle.png,1,m,Fri Dec 05 2025 13:12:40 GMT-0600 (Central Standard Time),173655.39999997616,1000,O,m,609,5,1,2392.699999988079,171262.69999998808,7718,NTS,C,2
1,3,prac,1,B,triangle.png,1,z,Fri Dec 05 2025 13:12:40 GMT-0600 (Central Standard Time),176938.09999996424,1900,O,z,584,1,1,3275.199999988079,173662.89999997616,7718,NTS,C,3
3,4,prac,1,B,triangle.png,1,z,Fri Dec 05 2025 13:12:40 GMT-0600 (Central Standard Time),179754.80000001192,1600,O,z,432,3,1,2810.2000000476837,176944.59999996424,7718,NTS,C,4
8,5,prac,1,B,triangle.png,1,m,Fri Dec 05 2025 13:12:40 GMT-0600 (Central Standard Time),182388.39999997616,1200,O,m,656,7,1,2627.199999988079,179761.19999998808,7718,NTS,C,5
2,5,prac,1,B,triangle.png,0,m,Fri Dec 05 2025 13:12:40 GMT-0600 (Central Standard Time),186035.09999996424,1700,O,z,1162,2,1,3642.5,182392.59999996424,7718,NTS,C,6
3,6,prac,1,B,triangle.png,1,z,Fri Dec 05 2025 13:12:40 GMT-0600 (Central Standard Time),189550.19999998808,1600,O,z,1117,3,1,3508.5,186041.69999998808,7718,NTS,C,7
4,7,prac,1,B,triangle.png,1,m,Fri Dec 05 2025 13:12:40 GMT-0600 (Central Standard Time),192484.0,1500,O,m,650,4,1,2924.199999988079,189559.80000001192,7718,NTS,C,8
8,8,prac,1,B,triangle.png,1,m,Fri Dec 05 2025 13:12:40 GMT-0600 (Central Standard Time),195315.89999997616,1200,O,m,837,7,1,2826.300000011921,192489.59999996424,7718,NTS,C,9
7,9,prac,1,B,triangle.png,1,z,Fri Dec 05 2025 13:12:40 GMT-0600 (Central Standard Time),198614.69999998808,2000,O,z,525,6,1,3293.0,195321.69999998808,7718,NTS,C,10
9,10,prac,1,B,triangle.png,1,z,Fri Dec 05 2025 13:12:40 GMT-0600 (Central Standard Time),201698.30000001192,1400,O,z,899,8,1,3079.100000023842,198619.19999998808,7718,NTS,C,11
2,11,prac,1,B,triangle.png,1,m,Fri Dec 05 2025 13:12:40 GMT-0600 (Central Standard Time),204962.30000001192,1700,O,m,773,2,1,3258.900000035763,201703.39999997616,7718,NTS,C,12
2,1,test,1,A,circle.png,1,z,Fri Dec 05 2025 13:12:40 GMT-0600 (Central Standard Time),225522.59999996424,2000,O,z,751,2,1,2774.199999988079,222748.39999997616,7718,NTS,C,1
7,2,test,1,A,circle.png,1,m,Fri Dec 05 2025 13:12:40 GMT-0600 (Central Standard Time),227938.59999996424,1700,O,m,689,6,1,2412.599999964237,225526.0,7718,NTS,C,2
3,3,test,1,A,circle.png,1,z,Fri Dec 05 2025 13:12:40 GMT-0600 (Central Standard Time),229988.19999998808,1200,O,z,824,3,1,2046.3999999761581,227941.80000001192,7718,NTS,C,3
8,4,test,1,A,circle.png,1,m,Fri Dec 05 2025 13:12:40 GMT-0600 (Central Standard Time),232154.80000001192,1600,O,m,533,7,1,2163.300000011921,229991.5,7718,NTS,C,4
4,5,test,1,A,circle.png,1,z,Fri Dec 05 2025 13:12:40 GMT-0600 (Central Standard Time),234537.89999997616,1400,O,z,967,4,1,2378.0,232159.89999997616,7718,NTS,C,5
8,6,test,1,A,circle.png,1,m,Fri Dec 05 2025 13:12:40 GMT-0600 (Central Standard Time),236851.89999997616,1600,O,m,696,7,1,2309.300000011921,234542.59999996424,7718,NTS,C,6
7,6,test,1,A,circle.png,0,m,Fri Dec 05 2025 13:12:40 GMT-0600 (Central Standard Time),239451.19999998808,1700,O,z,872,6,1,2595.5,236855.69999998808,7718,NTS,C,7
1,7,test,1,A,circle.png,1,z,Fri Dec 05 2025 13:12:40 GMT-0600 (Central Standard Time),241234.5,1000,O,z,749,1,1,1779.199999988079,239455.30000001192,7718,NTS,C,8
1,7,test,1,A,circle.png,0,z,Fri Dec 05 2025 13:12:40 GMT-0600 (Central Standard Time),243767.0,1000,O,None,1516,1,1,2529.300000011921,241237.69999998808,7718,NTS,C,9
6,8,test,1,A,circle.png,1,m,Fri Dec 05 2025 13:12:40 GMT-0600 (Central Standard Time),246432.0,1900,O,m,732,5,1,2658.900000035763,243773.09999996424,7718,NTS,C,10
6,9,test,1,A,circle.png,1,m,Fri Dec 05 2025 13:12:40 GMT-0600 (Central Standard Time),249267.09999996424,1900,O,m,900,5,1,2832.399999976158,246434.69999998808,7718,NTS,C,11
2,10,test,1,A,circle.png,1,z,Fri Dec 05 2025 13:12:40 GMT-0600 (Central Standard Time),251882.30000001192,2000,O,z,591,2,1,2609.2000000476837,249273.09999996424,7718,NTS,C,12
6,11,test,1,A,circle.png,1,m,Fri Dec 05 2025 13:12:40 GMT-0600 (Central Standard Time),254614.0,1900,O,m,813,5,1,2728.100000023842,251885.89999997616,7718,NTS,C,13
2,12,test,1,A,circle.png,1,z,Fri Dec 05 2025 13:12:40 GMT-0600 (Central Standard Time),257278.59999996424,2000,O,z,642,2,1,2660.2999999523163,254618.30000001192,7718,NTS,C,14
9,13,test,1,A,circle.png,1,m,Fri Dec 05 2025 13:12:40 GMT-0600 (Central Standard Time),259628.39999997616,1500,O,m,821,8,1,2346.199999988079,257282.19999998808,7718,NTS,C,15
4,14,test,1,A,circle.png,1,z,Fri Dec 05 2025 13:12:40 GMT-0600 (Central Standard Time),262177.1999999881,1400,O,z,1120,4,1,2546.300000011921,259630.89999997616,7718,NTS,C,16
8,15,test,1,A,circle.png,1,m,Fri Dec 05 2025 13:12:40 GMT-0600 (Central Standard Time),264459.59999996424,1600,O,m,652,7,1,2278.099999964237,262181.5,7718,NTS,C,17
9,16,test,1,A,circle.png,1,m,Fri Dec 05 2025 13:12:40 GMT-0600 (Central Standard Time),267013.0,1500,O,m,1023,8,1,2548.699999988079,264464.3000000119,7718,NTS,C,18
3,17,test,1,A,circle.png,1,z,Fri Dec 05 2025 13:12:40 GMT-0600 (Central Standard Time),268876.09999996424,1200,O,z,639,3,1,1859.0,267017.09999996424,7718,NTS,C,19
2,18,test,1,A,circle.png,1,z,Fri Dec 05 2025 13:12:40 GMT-0600 (Central Standard Time),271491.6999999881,2000,O,z,588,2,1,2611.600000023842,268880.09999996424,7718,NTS,C,20
1,19,test,1,A,circle.png,1,z,Fri Dec 05 2025 13:12:40 GMT-0600 (Central Standard Time),273606.8000000119,1000,O,z,1092,1,1,2110.5,271496.3000000119,7718,NTS,C,21
7,20,test,1,A,circle.png,1,m,Fri Dec 05 2025 13:12:40 GMT-0600 (Central Standard Time),275959.3000000119,1700,O,m,618,6,1,2346.400000035763,273612.89999997616,7718,NTS,C,22
9,21,test,1,A,circle.png,1,m,Fri Dec 05 2025 13:12:40 GMT-0600 (Central Standard Time),278057.6999999881,1500,O,m,571,8,1,2095.199999988079,275962.5,7718,NTS,C,23
4,22,test,1,A,circle.png,1,z,Fri Dec 05 2025 13:12:40 GMT-0600 (Central Standard Time),280089.3000000119,1400,O,z,606,4,1,2027.6000000238419,278061.6999999881,7718,NTS,C,24
3,0,test,1,B,triangle.png,0,z,Fri Dec 05 2025 13:12:40 GMT-0600 (Central Standard Time),295565.59999996424,2000,O,m,1068,11,1,3095.599999964237,292470.0,7718,NTS,C,1
1,1,test,1,B,triangle.png,1,z,Fri Dec 05 2025 13:12:40 GMT-0600 (Central Standard Time),298016.6999999881,1400,O,z,1018,9,1,2448.5,295568.1999999881,7718,NTS,C,2
6,2,test,1,B,triangle.png,1,m,Fri Dec 05 2025 13:12:40 GMT-0600 (Central Standard Time),300098.3000000119,1000,O,m,1057,5,1,2077.100000023842,298021.1999999881,7718,NTS,C,3
6,3,test,1,B,triangle.png,1,m,Fri Dec 05 2025 13:12:40 GMT-0600 (Central Standard Time),301931.89999997616,1000,O,m,806,5,1,1828.3999999761581,300103.5,7718,NTS,C,4
8,4,test,1,B,triangle.png,1,m,Fri Dec 05 2025 13:12:40 GMT-0600 (Central Standard Time),303714.0,1200,O,m,558,7,1,1776.0,301938.0,7718,NTS,C,5
3,5,test,1,B,triangle.png,1,z,Fri Dec 05 2025 13:12:40 GMT-0600 (Central Standard Time),305962.89999997616,1600,O,z,623,3,1,2243.099999964237,303719.8000000119,7718,NTS,C,6
4,6,test,1,B,triangle.png,1,m,Fri Dec 05 2025 13:12:40 GMT-0600 (Central Standard Time),308095.6999999881,1500,O,m,600,4,1,2129.5,305966.1999999881,7718,NTS,C,7
1,7,test,1,B,triangle.png,1,z,Fri Dec 05 2025 13:12:40 GMT-0600 (Central Standard Time),310578.6999999881,1900,O,z,548,1,1,2480.0,308098.6999999881,7718,NTS,C,8
9,8,test,1,B,triangle.png,1,z,Fri Dec 05 2025 13:12:40 GMT-0600 (Central Standard Time),312610.39999997616,1400,O,z,606,8,1,2028.8999999761581,310581.5,7718,NTS,C,9
4,9,test,1,B,triangle.png,1,m,Fri Dec 05 2025 13:12:40 GMT-0600 (Central Standard Time),314810.09999996424,1500,O,m,667,4,1,2196.899999976158,312613.1999999881,7718,NTS,C,10
9,9,test,1,B,triangle.png,0,z,Fri Dec 05 2025 13:12:40 GMT-0600 (Central Standard Time),317643.09999996424,1900,O,m,906,16,1,2830.599999964237,314812.5,7718,NTS,C,11
8,10,test,1,B,triangle.png,1,m,Fri Dec 05 2025 13:12:40 GMT-0600 (Central Standard Time),319591.6999999881,1200,O,m,726,7,1,1945.699999988079,317646.0,7718,NTS,C,12
2,11,test,1,B,triangle.png,1,m,Fri Dec 05 2025 13:12:40 GMT-0600 (Central Standard Time),322391.39999997616,1700,O,m,1076,2,1,2797.099999964237,319594.3000000119,7718,NTS,C,13
4,12,test,1,B,triangle.png,1,m,Fri Dec 05 2025 13:12:40 GMT-0600 (Central Standard Time),324140.5,1000,O,m,721,12,1,1746.199999988079,322394.3000000119,7718,NTS,C,14
6,13,test,1,B,triangle.png,1,m,Fri Dec 05 2025 13:12:40 GMT-0600 (Central Standard Time),326073.59999996424,1500,O,m,408,13,1,1930.699999988079,324142.89999997616,7718,NTS,C,15
4,14,test,1,B,triangle.png,1,m,Fri Dec 05 2025 13:12:40 GMT-0600 (Central Standard Time),327839.89999997616,1000,O,m,735,12,1,1762.8999999761581,326077.0,7718,NTS,C,16
7,15,test,1,B,triangle.png,1,z,Fri Dec 05 2025 13:12:40 GMT-0600 (Central Standard Time),330072.3000000119,1600,O,z,601,14,1,2229.100000023842,327843.1999999881,7718,NTS,C,17
7,16,test,1,B,triangle.png,1,z,Fri Dec 05 2025 13:12:40 GMT-0600 (Central Standard Time),332637.6999999881,2000,O,z,535,6,1,2562.699999988079,330075.0,7718,NTS,C,18
9,17,test,1,B,triangle.png,1,z,Fri Dec 05 2025 13:12:40 GMT-0600 (Central Standard Time),335070.0,1900,O,z,503,16,1,2428.800000011921,332641.1999999881,7718,NTS,C,19
8,18,test,1,B,triangle.png,1,m,Fri Dec 05 2025 13:12:40 GMT-0600 (Central Standard Time),337353.09999996424,1700,O,m,550,15,1,2280.399999976158,335072.6999999881,7718,NTS,C,20
7,19,test,1,B,triangle.png,1,z,Fri Dec 05 2025 13:12:40 GMT-0600 (Central Standard Time),339985.59999996424,2000,O,z,599,6,1,2629.599999964237,337356.0,7718,NTS,C,21
3,20,test,1,B,triangle.png,1,z,Fri Dec 05 2025 13:12:40 GMT-0600 (Central Standard Time),342252.89999997616,1600,O,z,647,3,1,2263.899999976158,339989.0,7718,NTS,C,22
7,20,test,1,B,triangle.png,0,z,Fri Dec 05 2025 13:12:40 GMT-0600 (Central Standard Time),344567.8000000119,1600,O,m,684,14,1,2312.400000035763,342255.39999997616,7718,NTS,C,23
2,21,test,1,B,triangle.png,1,m,Fri Dec 05 2025 13:12:40 GMT-0600 (Central Standard Time),347100.0,1200,O,m,1305,10,1,2529.600000023842,344570.39999997616,7718,NTS,C,24
9,0,prac,1,C,circle.png,0,m,Fri Dec 05 2025 13:12:40 GMT-0600 (Central Standard Time),384271.59999996424,1900,O,None,1516,8,1,4194.299999952316,380077.3000000119,7718,NTS,C,1
6,1,prac,1,C,circle.png,1,m,Fri Dec 05 2025 13:12:40 GMT-0600 (Central Standard Time),387820.5,2000,O,m,762,5,1,3544.0,384276.5,7718,NTS,C,2
8,2,prac,1,C,triangle.png,1,m,Fri Dec 05 2025 13:12:40 GMT-0600 (Central Standard Time),390902.09999996424,1400,O,m,884,7,1,3077.899999976158,387824.1999999881,7718,NTS,C,3
3,3,prac,1,C,triangle.png,1,z,Fri Dec 05 2025 13:12:40 GMT-0600 (Central Standard Time),393802.39999997616,1500,O,z,605,3,1,2895.399999976158,390907.0,7718,NTS,C,4
6,4,prac,1,C,circle.png,1,m,Fri Dec 05 2025 13:12:40 GMT-0600 (Central Standard Time),397401.8000000119,2000,O,m,816,5,1,3595.7000000476837,393806.09999996424,7718,NTS,C,5
7,5,prac,1,C,triangle.png,1,z,Fri Dec 05 2025 13:12:40 GMT-0600 (Central Standard Time),399849.39999997616,1200,O,z,455,6,1,2442.300000011921,397407.09999996424,7718,NTS,C,6
4,5,prac,1,C,circle.png,0,z,Fri Dec 05 2025 13:12:40 GMT-0600 (Central Standard Time),402315.59999996424,1000,O,m,678,4,1,2462.5,399853.09999996424,7718,NTS,C,7
2,6,prac,1,C,triangle.png,1,m,Fri Dec 05 2025 13:12:40 GMT-0600 (Central Standard Time),406098.09999996424,1600,O,m,1397,2,1,3775.7999999523163,402322.3000000119,7718,NTS,C,8
1,7,prac,1,C,circle.png,1,z,Fri Dec 05 2025 13:12:40 GMT-0600 (Central Standard Time),409480.1999999881,1700,O,z,890,1,1,3377.600000023842,406102.59999996424,7718,NTS,C,9
3,8,prac,1,C,triangle.png,1,z,Fri Dec 05 2025 13:12:40 GMT-0600 (Central Standard Time),412446.59999996424,1500,O,z,684,3,1,2962.5,409484.09999996424,7718,NTS,C,10
8,9,prac,1,C,triangle.png,1,m,Fri Dec 05 2025 13:12:40 GMT-0600 (Central Standard Time),415561.59999996424,1400,O,m,931,7,1,3111.199999988079,412450.39999997616,7718,NTS,C,11
2,9,prac,1,C,triangle.png,0,m,Fri Dec 05 2025 13:12:40 GMT-0600 (Central Standard Time),418643.59999996424,1600,O,z,685,2,1,3078.5,415565.09999996424,7718,NTS,C,12
1,1,test,1,C,triangle.png,1,z,Fri Dec 05 2025 13:12:40 GMT-0600 (Central Standard Time),432573.1999999881,1900,O,z,963,17,1,2879.199999988079,429694.0,7718,NTS,C,1
4,2,test,1,C,triangle.png,1,m,Fri Dec 05 2025 13:12:40 GMT-0600 (Central Standard Time),435138.0,1500,O,m,1040,20,1,2561.5,432576.5,7718,NTS,C,2
7,3,test,1,C,triangle.png,1,z,Fri Dec 05 2025 13:12:40 GMT-0600 (Central Standard Time),438203.6999999881,1700,O,z,1346,22,1,3063.0,435140.6999999881,7718,NTS,C,3
7,3,test,1,C,triangle.png,0,z,Fri Dec 05 2025 13:12:40 GMT-0600 (Central Standard Time),441269.1999999881,1700,O,m,1336,6,1,3062.199999988079,438207.0,7718,NTS,C,4
8,4,test,1,C,triangle.png,1,m,Fri Dec 05 2025 13:12:40 GMT-0600 (Central Standard Time),444069.0,1600,O,m,1179,7,1,2796.800000011921,441272.1999999881,7718,NTS,C,5
3,5,test,1,C,circle.png,1,z,Fri Dec 05 2025 13:12:40 GMT-0600 (Central Standard Time),446835.0,1600,O,z,1140,11,1,2763.400000035763,444071.59999996424,7718,NTS,C,6
8,6,test,1,C,triangle.png,1,m,Fri Dec 05 2025 13:12:40 GMT-0600 (Central Standard Time),449833.6999999881,1600,O,m,1365,23,1,2996.199999988079,446837.5,7718,NTS,C,7
1,7,test,1,C,circle.png,1,z,Fri Dec 05 2025 13:12:40 GMT-0600 (Central Standard Time),451716.6999999881,1000,O,z,863,1,1,1880.1000000238419,449836.59999996424,7718,NTS,C,8
2,8,test,1,C,circle.png,1,z,Fri Dec 05 2025 13:12:40 GMT-0600 (Central Standard Time),454915.5,1700,O,z,1471,10,1,3196.100000023842,451719.39999997616,7718,NTS,C,9
6,9,test,1,C,triangle.png,1,m,Fri Dec 05 2025 13:12:40 GMT-0600 (Central Standard Time),457264.89999997616,1000,O,m,1325,13,1,2346.699999988079,454918.1999999881,7718,NTS,C,10
4,9,test,1,C,circle.png,0,z,Fri Dec 05 2025 13:12:40 GMT-0600 (Central Standard Time),459713.89999997616,1400,O,m,1016,4,1,2446.399999976158,457267.5,7718,NTS,C,11
6,10,test,1,C,circle.png,1,m,Fri Dec 05 2025 13:12:40 GMT-0600 (Central Standard Time),462263.5,1900,O,m,628,5,1,2545.800000011921,459717.6999999881,7718,NTS,C,12
9,10,test,1,C,circle.png,0,m,Fri Dec 05 2025 13:12:40 GMT-0600 (Central Standard Time),464845.6999999881,1500,O,z,1055,8,1,2579.399999976158,462266.3000000119,7718,NTS,C,13
9,10,test,1,C,triangle.png,0,z,Fri Dec 05 2025 13:12:40 GMT-0600 (Central Standard Time),467461.5,1400,O,m,1186,16,1,2613.199999988079,464848.3000000119,7718,NTS,C,14
1,11,test,1,C,triangle.png,1,z,Fri Dec 05 2025 13:12:40 GMT-0600 (Central Standard Time),470111.3000000119,1900,O,z,720,9,1,2645.600000023842,467465.6999999881,7718,NTS,C,15
8,12,test,1,C,circle.png,1,m,Fri Dec 05 2025 13:12:40 GMT-0600 (Central Standard Time),472310.0,1200,O,m,978,15,1,2195.800000011921,470114.1999999881,7718,NTS,C,16
2,13,test,1,C,triangle.png,1,m,Fri Dec 05 2025 13:12:40 GMT-0600 (Central Standard Time),475159.0,2000,O,m,827,2,1,2846.400000035763,472312.59999996424,7718,NTS,C,17
6,13,test,1,C,circle.png,0,m,Fri Dec 05 2025 13:12:40 GMT-0600 (Central Standard Time),477658.8000000119,1900,O,z,567,21,1,2497.100000023842,475161.6999999881,7718,NTS,C,18
9,14,test,1,C,circle.png,1,m,Fri Dec 05 2025 13:12:40 GMT-0600 (Central Standard Time),479857.59999996424,1500,O,m,674,24,1,2196.0,477661.59999996424,7718,NTS,C,19
2,15,test,1,C,circle.png,1,z,Fri Dec 05 2025 13:12:40 GMT-0600 (Central Standard Time),482356.39999997616,1700,O,z,770,18,1,2496.300000011921,479860.09999996424,7718,NTS,C,20
7,15,test,1,C,circle.png,0,m,Fri Dec 05 2025 13:12:40 GMT-0600 (Central Standard Time),485505.89999997616,2000,O,z,1124,14,1,3146.800000011921,482359.09999996424,7718,NTS,C,21
3,15,test,1,C,circle.png,0,z,Fri Dec 05 2025 13:12:40 GMT-0600 (Central Standard Time),488543.6999999881,1600,O,m,1405,19,1,3035.199999988079,485508.5,7718,NTS,C,22
4,16,test,1,C,triangle.png,1,m,Fri Dec 05 2025 13:12:40 GMT-0600 (Central Standard Time),490753.8000000119,1500,O,m,691,12,1,2206.100000023842,488547.6999999881,7718,NTS,C,23
3,17,test,1,C,triangle.png,1,z,Fri Dec 05 2025 13:12:40 GMT-0600 (Central Standard Time),493236.1999999881,1200,O,z,1254,3,1,2479.899999976158,490756.3000000119,7718,NTS,C,24
4,1,test,2,C,circle.png,1,z,Fri Dec 05 2025 13:12:40 GMT-0600 (Central Standard Time),499734.59999996424,1400,O,z,927,4,1,2345.699999988079,497388.89999997616,7718,NTS,C,1
2,1,test,2,C,triangle.png,0,m,Fri Dec 05 2025 13:12:40 GMT-0600 (Central Standard Time),503266.6999999881,2000,O,None,1515,2,1,3529.300000011921,499737.39999997616,7718,NTS,C,2
9,2,test,2,C,circle.png,1,m,Fri Dec 05 2025 13:12:40 GMT-0600 (Central Standard Time),505733.89999997616,1500,O,m,946,8,1,2464.599999964237,503269.3000000119,7718,NTS,C,3
8,3,test,2,C,circle.png,1,m,Fri Dec 05 2025 13:12:40 GMT-0600 (Central Standard Time),508314.1999999881,1200,O,m,1364,15,1,2577.5,505736.6999999881,7718,NTS,C,4
9,4,test,2,C,triangle.png,1,z,Fri Dec 05 2025 13:12:40 GMT-0600 (Central Standard Time),510681.5,1400,O,z,942,24,1,2364.699999988079,508316.8000000119,7718,NTS,C,5
4,5,test,2,C,triangle.png,1,m,Fri Dec 05 2025 13:12:40 GMT-0600 (Central Standard Time),513014.5,1500,O,m,814,20,1,2330.0,510684.5,7718,NTS,C,6
3,6,test,2,C,triangle.png,1,z,Fri Dec 05 2025 13:12:40 GMT-0600 (Central Standard Time),515180.3000000119,1200,O,z,938,3,1,2163.2000000476837,513017.09999996424,7718,NTS,C,7
6,7,test,2,C,circle.png,1,m,Fri Dec 05 2025 13:12:40 GMT-0600 (Central Standard Time),518211.39999997616,1900,O,m,1112,5,1,3028.5,515182.89999997616,7718,NTS,C,8
2,7,test,2,C,circle.png,0,z,Fri Dec 05 2025 13:12:40 GMT-0600 (Central Standard Time),521445.0,1700,O,None,1517,10,1,3230.400000035763,518214.59999996424,7718,NTS,C,9
1,8,test,2,C,circle.png,1,z,Fri Dec 05 2025 13:12:40 GMT-0600 (Central Standard Time),523543.59999996424,1000,O,z,1077,1,1,2095.7999999523163,521447.8000000119,7718,NTS,C,10
9,8,test,2,C,triangle.png,0,z,Fri Dec 05 2025 13:12:40 GMT-0600 (Central Standard Time),525859.8000000119,1400,O,m,897,16,1,2313.5,523546.3000000119,7718,NTS,C,11
4,8,test,2,C,triangle.png,0,m,Fri Dec 05 2025 13:12:40 GMT-0600 (Central Standard Time),528142.0999999642,1500,O,z,762,12,1,2279.199999988079,525862.8999999762,7718,NTS,C,12
3,9,test,2,C,circle.png,1,z,Fri Dec 05 2025 13:12:40 GMT-0600 (Central Standard Time),530824.5999999642,1600,O,z,1059,11,1,2679.5,528145.0999999642,7718,NTS,C,13
1,9,test,2,C,triangle.png,0,z,Fri Dec 05 2025 13:12:40 GMT-0600 (Central Standard Time),533225.5,1900,O,m,477,9,1,2398.0,530827.5,7718,NTS,C,14
7,9,test,2,C,circle.png,0,m,Fri Dec 05 2025 13:12:40 GMT-0600 (Central Standard Time),535914.3999999762,2000,O,z,656,22,1,2685.599999964237,533228.8000000119,7718,NTS,C,15
1,10,test,2,C,triangle.png,1,z,Fri Dec 05 2025 13:12:40 GMT-0600 (Central Standard Time),538555.0,1900,O,z,730,17,1,2638.100000023842,535916.8999999762,7718,NTS,C,16
6,11,test,2,C,triangle.png,1,m,Fri Dec 05 2025 13:12:40 GMT-0600 (Central Standard Time),540737.8000000119,1000,O,m,1165,13,1,2179.600000023842,538558.1999999881,7718,NTS,C,17
7,11,test,2,C,circle.png,0,m,Fri Dec 05 2025 13:12:40 GMT-0600 (Central Standard Time),543537.0999999642,2000,O,z,764,14,1,2795.899999976158,540741.1999999881,7718,NTS,C,18
6,12,test,2,C,triangle.png,1,m,Fri Dec 05 2025 13:12:40 GMT-0600 (Central Standard Time),545420.1999999881,1000,O,m,863,21,1,1880.5,543539.6999999881,7718,NTS,C,19
2,12,test,2,C,circle.png,0,z,Fri Dec 05 2025 13:12:40 GMT-0600 (Central Standard Time),548652.3999999762,1700,O,None,1515,18,1,3229.099999964237,545423.3000000119,7718,NTS,C,20
8,12,test,2,C,triangle.png,0,m,Fri Dec 05 2025 13:12:40 GMT-0600 (Central Standard Time),550802.5999999642,1600,O,z,524,7,1,2145.0,548657.5999999642,7718,NTS,C,21
8,13,test,2,C,circle.png,1,m,Fri Dec 05 2025 13:12:40 GMT-0600 (Central Standard Time),552950.5999999642,1200,O,m,918,23,1,2145.2999999523163,550805.3000000119,7718,NTS,C,22
3,14,test,2,C,circle.png,1,z,Fri Dec 05 2025 13:12:40 GMT-0600 (Central Standard Time),555432.5,1600,O,z,858,19,1,2479.0,552953.5,7718,NTS,C,23
7,14,test,2,C,triangle.png,0,z,Fri Dec 05 2025 13:12:40 GMT-0600 (Central Standard Time),557899.6999999881,1700,O,m,747,6,1,2464.399999976158,555435.3000000119,7718,NTS,C,24
8,1,test,3,C,triangle.png,1,m,Fri Dec 05 2025 13:12:40 GMT-0600 (Central Standard Time),562763.6999999881,1600,O,m,897,23,1,2512.100000023842,560251.5999999642,7718,NTS,C,1
4,2,test,3,C,triangle.png,1,m,Fri Dec 05 2025 13:12:40 GMT-0600 (Central Standard Time),565431.1999999881,1500,O,m,1134,12,1,2664.399999976158,562766.8000000119,7718,NTS,C,2
7,2,test,3,C,circle.png,0,m,Fri Dec 05 2025 13:12:40 GMT-0600 (Central Standard Time),568396.3000000119,2000,O,z,938,14,1,2962.300000011921,565434.0,7718,NTS,C,3
3,2,test,3,C,triangle.png,0,z,Fri Dec 05 2025 13:12:40 GMT-0600 (Central Standard Time),570945.1999999881,1200,O,m,1318,3,1,2546.300000011921,568398.8999999762,7718,NTS,C,4
6,2,test,3,C,triangle.png,0,m,Fri Dec 05 2025 13:12:40 GMT-0600 (Central Standard Time),573110.8999999762,1000,O,z,1135,13,1,2161.099999964237,570949.8000000119,7718,NTS,C,5
8,2,test,3,C,circle.png,0,m,Fri Dec 05 2025 13:12:40 GMT-0600 (Central Standard Time),575495.0,1200,O,z,1153,15,1,2381.199999988079,573113.8000000119,7718,NTS,C,6
9,2,test,3,C,triangle.png,0,z,Fri Dec 05 2025 13:12:40 GMT-0600 (Central Standard Time),577643.5999999642,1400,O,m,723,16,1,2145.899999976158,575497.6999999881,7718,NTS,C,7
9,2,test,3,C,circle.png,0,m,Fri Dec 05 2025 13:12:40 GMT-0600 (Central Standard Time),580575.6999999881,1500,O,z,1402,8,1,2929.600000023842,577646.0999999642,7718,NTS,C,8
4,2,test,3,C,circle.png,0,z,Fri Dec 05 2025 13:12:40 GMT-0600 (Central Standard Time),583225.1999999881,1400,O,m,1213,4,1,2646.600000023842,580578.5999999642,7718,NTS,C,9
2,2,test,3,C,triangle.png,0,m,Fri Dec 05 2025 13:12:40 GMT-0600 (Central Standard Time),585991.5999999642,2000,O,z,735,18,1,2762.899999976158,583228.6999999881,7718,NTS,C,10
4,3,test,3,C,circle.png,1,z,Fri Dec 05 2025 13:12:40 GMT-0600 (Central Standard Time),588306.8999999762,1400,O,z,884,20,1,2312.399999976158,585994.5,7718,NTS,C,11
8,3,test,3,C,triangle.png,0,m,Fri Dec 05 2025 13:12:40 GMT-0600 (Central Standard Time),591272.1999999881,1600,O,z,1341,7,1,2962.600000023842,588309.5999999642,7718,NTS,C,12
3,3,test,3,C,triangle.png,0,z,Fri Dec 05 2025 13:12:40 GMT-0600 (Central Standard Time),593255.0,1200,O,m,753,19,1,1980.0,591275.0,7718,NTS,C,13
1,3,test,3,C,circle.png,0,z,Fri Dec 05 2025 13:12:40 GMT-0600 (Central Standard Time),594987.5,1000,O,m,714,1,1,1728.699999988079,593258.8000000119,7718,NTS,C,14
2,4,test,3,C,circle.png,1,z,Fri Dec 05 2025 13:12:40 GMT-0600 (Central Standard Time),597387.5,1700,O,z,680,10,1,2397.300000011921,594990.1999999881,7718,NTS,C,15
1,4,test,3,C,circle.png,0,z,Fri Dec 05 2025 13:12:40 GMT-0600 (Central Standard Time),599919.3999999762,1000,O,None,1515,17,1,2529.300000011921,597390.0999999642,7718,NTS,C,16
7,4,test,3,C,triangle.png,0,z,Fri Dec 05 2025 13:12:40 GMT-0600 (Central Standard Time),602720.0999999642,1700,O,m,1073,6,1,2797.599999964237,599922.5,7718,NTS,C,17
2,4,test,3,C,triangle.png,0,m,Fri Dec 05 2025 13:12:40 GMT-0600 (Central Standard Time),605415.6999999881,2000,O,z,675,2,1,2690.600000023842,602725.0999999642,7718,NTS,C,18
6,5,test,3,C,circle.png,1,m,Fri Dec 05 2025 13:12:40 GMT-0600 (Central Standard Time),608299.0999999642,1900,O,m,956,5,1,2880.099999964237,605419.0,7718,NTS,C,19
3,6,test,3,C,circle.png,1,z,Fri Dec 05 2025 13:12:40 GMT-0600 (Central Standard Time),610948.8000000119,1600,O,z,1020,11,1,2647.0,608301.8000000119,7718,NTS,C,20
6,7,test,3,C,circle.png,1,m,Fri Dec 05 2025 13:12:40 GMT-0600 (Central Standard Time),614331.3999999762,1900,O,m,1456,21,1,3379.699999988079,610951.6999999881,7718,NTS,C,21
7,8,test,3,C,triangle.png,1,z,Fri Dec 05 2025 13:12:40 GMT-0600 (Central Standard Time),616931.3000000119,1700,O,z,881,22,1,2596.800000011921,614334.5,7718,NTS,C,22
9,9,test,3,C,circle.png,1,m,Fri Dec 05 2025 13:12:40 GMT-0600 (Central Standard Time),619829.0,1500,O,m,1369,24,1,2893.900000035763,616935.0999999642,7718,NTS,C,23
1,10,test,3,C,triangle.png,1,z,Fri Dec 05 2025 13:12:40 GMT-0600 (Central Standard Time),622462.0,1900,O,z,703,9,1,2629.0,619833.0,7718,NTS,C,24
2,0,test,4,C,triangle.png,0,m,Fri Dec 05 2025 13:12:40 GMT-0600 (Central Standard Time),626943.8000000119,2000,O,z,985,18,1,3012.400000035763,623931.3999999762,7718,NTS,C,1
9,1,test,4,C,triangle.png,1,z,Fri Dec 05 2025 13:12:40 GMT-0600 (Central Standard Time),629061.0,1400,O,z,690,16,1,2114.0,626947.0,7718,NTS,C,2
2,2,test,4,C,triangle.png,1,m,Fri Dec 05 2025 13:12:40 GMT-0600 (Central Standard Time),632375.1999999881,2000,O,m,1293,2,1,3311.199999988079,629064.0,7718,NTS,C,3
8,2,test,4,C,triangle.png,0,m,Fri Dec 05 2025 13:12:40 GMT-0600 (Central Standard Time),634741.1999999881,1600,O,z,737,7,1,2362.600000023842,632378.5999999642,7718,NTS,C,4
6,2,test,4,C,circle.png,0,m,Fri Dec 05 2025 13:12:40 GMT-0600 (Central Standard Time),637625.0999999642,1900,O,z,958,5,1,2881.199999988079,634743.8999999762,7718,NTS,C,5
9,2,test,4,C,circle.png,0,m,Fri Dec 05 2025 13:12:40 GMT-0600 (Central Standard Time),640657.0999999642,1500,O,None,1516,24,1,3028.899999976158,637628.1999999881,7718,NTS,C,6
8,2,test,4,C,triangle.png,0,m,Fri Dec 05 2025 13:12:40 GMT-0600 (Central Standard Time),643172.3999999762,1600,O,z,896,23,1,2512.399999976158,640660.0,7718,NTS,C,7
3,2,test,4,C,triangle.png,0,z,Fri Dec 05 2025 13:12:40 GMT-0600 (Central Standard Time),645404.8000000119,1200,O,m,1003,19,1,2229.400000035763,643175.3999999762,7718,NTS,C,8
6,2,test,4,C,circle.png,0,m,Fri Dec 05 2025 13:12:40 GMT-0600 (Central Standard Time),648022.1999999881,1900,O,z,688,21,1,2614.300000011921,645407.8999999762,7718,NTS,C,9
4,2,test,4,C,triangle.png,0,m,Fri Dec 05 2025 13:12:40 GMT-0600 (Central Standard Time),650703.5999999642,1500,O,z,1160,12,1,2678.2999999523163,648025.3000000119,7718,NTS,C,10
1,2,test,4,C,circle.png,0,z,Fri Dec 05 2025 13:12:40 GMT-0600 (Central Standard Time),653235.6999999881,1000,O,None,1516,17,1,2529.5,650706.1999999881,7718,NTS,C,11
3,3,test,4,C,triangle.png,1,z,Fri Dec 05 2025 13:12:40 GMT-0600 (Central Standard Time),655651.5999999642,1200,O,z,1189,3,1,2413.0,653238.5999999642,7718,NTS,C,12
7,4,test,4,C,triangle.png,1,z,Fri Dec 05 2025 13:12:40 GMT-0600 (Central Standard Time),658250.8999999762,1700,O,z,867,22,1,2596.699999988079,655654.1999999881,7718,NTS,C,13
1,4,test,4,C,triangle.png,0,z,Fri Dec 05 2025 13:12:40 GMT-0600 (Central Standard Time),661033.5,1900,O,m,858,9,1,2779.5,658254.0,7718,NTS,C,14
2,5,test,4,C,circle.png,1,z,Fri Dec 05 2025 13:12:40 GMT-0600 (Central Standard Time),663516.1999999881,1700,O,z,765,10,1,2480.0,661036.1999999881,7718,NTS,C,15
4,6,test,4,C,circle.png,1,z,Fri Dec 05 2025 13:12:40 GMT-0600 (Central Standard Time),666182.1999999881,1400,O,z,1236,4,1,2663.300000011921,663518.8999999762,7718,NTS,C,16
8,7,test,4,C,circle.png,1,m,Fri Dec 05 2025 13:12:40 GMT-0600 (Central Standard Time),668347.5999999642,1200,O,m,939,15,1,2161.0,666186.5999999642,7718,NTS,C,17
6,8,test,4,C,triangle.png,1,m,Fri Dec 05 2025 13:12:40 GMT-0600 (Central Standard Time),670430.5999999642,1000,O,m,1060,13,1,2079.599999964237,668351.0,7718,NTS,C,18
4,9,test,4,C,circle.png,1,z,Fri Dec 05 2025 13:12:40 GMT-0600 (Central Standard Time),672929.3000000119,1400,O,z,1075,20,1,2495.2000000476837,670434.0999999642,7718,NTS,C,19
3,9,test,4,C,circle.png,0,z,Fri Dec 05 2025 13:12:40 GMT-0600 (Central Standard Time),675595.5,1600,O,m,1046,11,1,2662.800000011921,672932.6999999881,7718,NTS,C,20
9,10,test,4,C,circle.png,1,m,Fri Dec 05 2025 13:12:40 GMT-0600 (Central Standard Time),678577.5999999642,1500,O,m,1442,8,1,2978.899999976158,675598.6999999881,7718,NTS,C,21
7,10,test,4,C,circle.png,0,m,Fri Dec 05 2025 13:12:40 GMT-0600 (Central Standard Time),681160.5999999642,2000,O,z,565,14,1,2579.699999988079,678580.8999999762,7718,NTS,C,22
1,11,test,4,C,circle.png,1,z,Fri Dec 05 2025 13:12:40 GMT-0600 (Central Standard Time),683109.6999999881,1000,O,z,920,1,1,1945.8999999761581,681163.8000000119,7718,NTS,C,23
7,11,test,4,C,triangle.png,0,z,Fri Dec 05 2025 13:12:40 GMT-0600 (Central Standard Time),685694.0999999642,1700,O,m,854,6,1,2581.7999999523163,683112.3000000119,7718,NTS,C,24
