Q,Q1,Q2,Q3,Q4,acc_sum,block,block_c,correct,correct_response,datetime,endtime,project,response,response_time,row_sel,session_number,squiggle1,squiggle1x,squiggle1y,squiggle2,squiggle2x,squiggle2y,squiggle3,squiggle3x,squiggle3y,squiggle4,squiggle4x,squiggle4y,start_end,starttime,subject_id,target_congruent,task,task_vers,testsquiggle,testsquigglex,testsquiggley,time_practice_delay,time_practice_fixation,time_practice_stimuli,time_practice_study,time_test_delay,time_test_fixation,time_test_stimuli,time_test_study,trial
1,1,0,0,0,1,prac,1,1,z,Thu Mar 26 2026 13:48:35 GMT-0500 (Central Daylight Time),148652.09999990463,I,z,1040,1,2,116.bmp,-120,-120,117.bmp,120,-120,118.bmp,-120,120,119.bmp,120,120,9856.099999904633,138796.0,8094,yes,SM,A,116.bmp,-120,-120,138838,132814,140855,134823,,,,,1
3,0,0,1,0,1,prac,1,0,m,Thu Mar 26 2026 13:48:35 GMT-0500 (Central Daylight Time),159465.59999990463,I,None,2014,2,2,120.bmp,-120,-120,121.bmp,120,-120,122.bmp,-120,120,123.bmp,120,120,10810.299999952316,148655.29999995232,8094,no,SM,A,123.bmp,-120,120,148701,142673,150703,144687,,,,,2
4,0,0,0,1,1,prac,1,0,m,Thu Mar 26 2026 13:48:35 GMT-0500 (Central Daylight Time),169496.59999990463,I,z,1212,3,2,124.bmp,-120,-120,125.bmp,120,-120,126.bmp,-120,120,127.bmp,120,120,10028.400000095367,159468.19999980927,8094,no,SM,A,124.bmp,120,120,159516,153486,161531,155500,,,,,3
2,0,1,0,0,2,prac,1,1,z,Thu Mar 26 2026 13:48:35 GMT-0500 (Central Daylight Time),179426.59999990463,I,z,1109,4,2,128.bmp,-120,-120,129.bmp,120,-120,130.bmp,-120,120,131.bmp,120,120,9926.799999952316,169499.79999995232,8094,yes,SM,A,129.bmp,120,-120,169546,163518,171562,165530,,,,,4
3,0,0,1,0,3,prac,1,1,z,Thu Mar 26 2026 13:48:35 GMT-0500 (Central Daylight Time),189606.39999985695,I,z,1364,5,2,132.bmp,-120,-120,133.bmp,120,-120,134.bmp,-120,120,135.bmp,120,120,10177.5,179428.89999985695,8094,yes,SM,A,134.bmp,-120,120,179476,173447,181492,175461,,,,,5
1,1,0,0,0,3,prac,1,0,m,Thu Mar 26 2026 13:48:35 GMT-0500 (Central Daylight Time),199953.0,I,z,1519,6,2,136.bmp,-120,-120,137.bmp,120,-120,138.bmp,-120,120,139.bmp,120,120,10344.100000143051,189608.89999985695,8094,no,SM,A,139.bmp,-120,-120,189656,183627,191672,185640,,,,,6
2,0,1,0,0,4,prac,1,1,m,Thu Mar 26 2026 13:48:35 GMT-0500 (Central Daylight Time),210366.0,I,m,1613,7,2,140.bmp,-120,-120,141.bmp,120,-120,142.bmp,-120,120,143.bmp,120,120,10410.600000143051,199955.39999985695,8094,no,SM,A,140.bmp,120,-120,200001,193974,202002,195987,,,,,7
4,0,0,0,1,4,prac,1,0,z,Thu Mar 26 2026 13:48:35 GMT-0500 (Central Daylight Time),220648.19999980927,I,m,1464,8,2,144.bmp,-120,-120,145.bmp,120,-120,146.bmp,-120,120,147.bmp,120,120,10279.399999856949,210368.79999995232,8094,yes,SM,A,147.bmp,120,120,210417,204387,212434,206401,,,,,8
1,1,0,0,0,1,prac,2,1,z,Thu Mar 26 2026 13:48:35 GMT-0500 (Central Daylight Time),235976.0,I,z,1086,1,2,116.bmp,-120,-120,117.bmp,120,-120,118.bmp,-120,120,119.bmp,120,120,9909.5,226066.5,8094,yes,SM,A,116.bmp,-120,-120,226112,220085,228130,222099,,,,,1
3,0,0,1,0,2,prac,2,1,m,Thu Mar 26 2026 13:48:35 GMT-0500 (Central Daylight Time),246224.0,I,m,1439,2,2,120.bmp,-120,-120,121.bmp,120,-120,122.bmp,-120,120,123.bmp,120,120,10243.700000047684,235980.29999995232,8094,no,SM,A,123.bmp,-120,120,236025,229999,238026,232011,,,,,2
4,0,0,0,1,3,prac,2,1,m,Thu Mar 26 2026 13:48:35 GMT-0500 (Central Daylight Time),256286.5,I,m,1241,3,2,124.bmp,-120,-120,125.bmp,120,-120,126.bmp,-120,120,127.bmp,120,120,10058.400000095367,246228.09999990463,8094,no,SM,A,124.bmp,120,120,246273,240246,248288,242256,,,,,3
2,0,1,0,0,3,prac,2,0,z,Thu Mar 26 2026 13:48:35 GMT-0500 (Central Daylight Time),266764.5,I,m,1662,4,2,128.bmp,-120,-120,129.bmp,120,-120,130.bmp,-120,120,131.bmp,120,120,10472.300000190735,256292.19999980927,8094,yes,SM,A,129.bmp,120,-120,256336,250310,258352,252321,,,,,4
3,0,0,1,0,4,prac,2,1,z,Thu Mar 26 2026 13:48:35 GMT-0500 (Central Daylight Time),277029.7999999523,I,z,1447,5,2,132.bmp,-120,-120,133.bmp,120,-120,134.bmp,-120,120,135.bmp,120,120,10262.299999952316,266767.5,8094,yes,SM,A,134.bmp,-120,120,266816,260786,268833,262800,,,,,5
1,1,0,0,0,4,prac,2,0,m,Thu Mar 26 2026 13:48:35 GMT-0500 (Central Daylight Time),287059.59999990463,I,z,1200,6,2,136.bmp,-120,-120,137.bmp,120,-120,138.bmp,-120,120,139.bmp,120,120,10022.799999952316,277036.7999999523,8094,no,SM,A,139.bmp,-120,-120,277078,271055,279095,273063,,,,,6
2,0,1,0,0,5,prac,2,1,m,Thu Mar 26 2026 13:48:35 GMT-0500 (Central Daylight Time),297406.59999990463,I,m,1531,7,2,140.bmp,-120,-120,141.bmp,120,-120,142.bmp,-120,120,143.bmp,120,120,10342.099999904633,287064.5,8094,no,SM,A,140.bmp,120,-120,287109,281083,289126,283096,,,,,7
4,0,0,0,1,6,prac,2,1,z,Thu Mar 26 2026 13:48:35 GMT-0500 (Central Daylight Time),307401.5,I,z,1165,8,2,144.bmp,-120,-120,145.bmp,120,-120,146.bmp,-120,120,147.bmp,120,120,9990.5,297411.0,8094,yes,SM,A,147.bmp,120,120,297457,291429,299473,293441,,,,,8
4,0,0,0,1,1,test,1,1,m,Thu Mar 26 2026 13:48:35 GMT-0500 (Central Daylight Time),335312.5,I,m,1632,1,2,148.bmp,-120,-120,149.bmp,120,-120,150.bmp,-120,120,143.bmp,120,120,9676.0,325636.5,8094,no,SM,A,150.bmp,120,120,297457,291429,299473,293441,325681.0,319655.0,327697.0,321665.0,1
2,0,1,0,0,2,test,1,1,m,Thu Mar 26 2026 13:48:35 GMT-0500 (Central Daylight Time),344439.69999980927,I,m,1077,2,2,101.bmp,-120,-120,102.bmp,120,-120,103.bmp,-120,120,104.bmp,120,120,9124.199999809265,335315.5,8094,no,SM,A,103.bmp,120,-120,297457,291429,299473,293441,335361.0,329334.0,337378.0,331344.0,2
1,1,0,0,0,3,test,1,1,z,Thu Mar 26 2026 13:48:35 GMT-0500 (Central Daylight Time),353704.59999990463,I,z,1213,3,2,105.bmp,-120,-120,106.bmp,120,-120,107.bmp,-120,120,108.bmp,120,120,9262.0,344442.59999990463,8094,yes,SM,A,105.bmp,-120,-120,297457,291429,299473,293441,344490.0,338461.0,346507.0,340476.0,3
3,0,0,1,0,3,test,1,0,m,Thu Mar 26 2026 13:48:35 GMT-0500 (Central Daylight Time),362686.7999999523,I,z,933,4,2,109.bmp,-120,-120,110.bmp,120,-120,111.bmp,-120,120,112.bmp,120,120,8977.600000143051,353709.19999980927,8094,no,SM,A,109.bmp,-120,120,297457,291429,299473,293441,353755.0,347727.0,355771.0,349740.0,4
2,0,1,0,0,3,test,1,0,z,Thu Mar 26 2026 13:48:35 GMT-0500 (Central Daylight Time),372265.39999985695,I,m,1519,5,2,113.bmp,-120,-120,114.bmp,120,-120,115.bmp,-120,120,116.bmp,120,120,9573.700000047684,362691.69999980927,8094,yes,SM,A,114.bmp,120,-120,297457,291429,299473,293441,362736.0,356710.0,364752.0,358721.0,5
3,0,0,1,0,4,test,1,1,z,Thu Mar 26 2026 13:48:35 GMT-0500 (Central Daylight Time),381313.09999990463,I,z,987,6,2,117.bmp,-120,-120,118.bmp,120,-120,119.bmp,-120,120,120.bmp,120,120,9043.099999904633,372270.0,8094,yes,SM,A,119.bmp,-120,120,297457,291429,299473,293441,372315.0,366288.0,374333.0,368300.0,6
4,0,0,0,1,4,test,1,0,z,Thu Mar 26 2026 13:48:35 GMT-0500 (Central Daylight Time),390992.69999980927,I,m,1644,7,2,121.bmp,-120,-120,122.bmp,120,-120,123.bmp,-120,120,124.bmp,120,120,9674.599999904633,381318.09999990463,8094,yes,SM,A,124.bmp,120,120,297457,291429,299473,293441,381362.0,375336.0,383364.0,377347.0,7
2,0,1,0,0,4,test,1,0,m,Thu Mar 26 2026 13:48:35 GMT-0500 (Central Daylight Time),400306.59999990463,I,z,1252,8,2,125.bmp,-120,-120,126.bmp,120,-120,127.bmp,-120,120,128.bmp,120,120,9309.5,390997.09999990463,8094,no,SM,A,125.bmp,120,-120,297457,291429,299473,293441,391043.0,385015.0,393059.0,387030.0,8
3,0,0,1,0,4,test,1,0,m,Thu Mar 26 2026 13:48:35 GMT-0500 (Central Daylight Time),409386.19999980927,I,z,1027,9,2,129.bmp,-120,-120,130.bmp,120,-120,131.bmp,-120,120,132.bmp,120,120,9077.0,400309.19999980927,8094,no,SM,A,130.bmp,-120,120,297457,291429,299473,293441,400357.0,394327.0,402373.0,396343.0,9
4,0,0,0,1,5,test,1,1,z,Thu Mar 26 2026 13:48:35 GMT-0500 (Central Daylight Time),418285.19999980927,I,z,835,10,2,137.bmp,-120,-120,138.bmp,120,-120,139.bmp,-120,120,140.bmp,120,120,8896.5,409388.69999980927,8094,yes,SM,A,140.bmp,120,120,297457,291429,299473,293441,409438.0,403407.0,411453.0,405423.0,10
3,0,0,1,0,6,test,1,1,z,Thu Mar 26 2026 13:48:35 GMT-0500 (Central Daylight Time),427382.09999990463,I,z,1049,11,2,133.bmp,-120,-120,134.bmp,120,-120,135.bmp,-120,120,136.bmp,120,120,9092.700000047684,418289.39999985695,8094,yes,SM,A,135.bmp,-120,120,297457,291429,299473,293441,418334.0,412308.0,420335.0,414320.0,11
2,0,1,0,0,7,test,1,1,m,Thu Mar 26 2026 13:48:35 GMT-0500 (Central Daylight Time),436695.0,I,m,1280,12,2,141.bmp,-120,-120,142.bmp,120,-120,143.bmp,-120,120,144.bmp,120,120,9308.900000095367,427386.09999990463,8094,no,SM,A,141.bmp,120,-120,297457,291429,299473,293441,427418.0,421404.0,429433.0,423414.0,12
3,0,0,1,0,8,test,1,1,m,Thu Mar 26 2026 13:48:35 GMT-0500 (Central Daylight Time),445993.39999985695,I,m,1249,13,2,145.bmp,-120,-120,146.bmp,120,-120,147.bmp,-120,120,148.bmp,120,120,9296.200000047684,436697.19999980927,8094,no,SM,A,146.bmp,-120,120,297457,291429,299473,293441,436744.0,430715.0,438761.0,432729.0,13
1,1,0,0,0,9,test,1,1,z,Thu Mar 26 2026 13:48:35 GMT-0500 (Central Daylight Time),455456.7999999523,I,z,1421,14,2,149.bmp,-120,-120,150.bmp,120,-120,104.bmp,-120,120,101.bmp,120,120,9458.700000047684,445998.09999990463,8094,yes,SM,A,149.bmp,-120,-120,297457,291429,299473,293441,446027.0,440016.0,448042.0,442025.0,14
4,0,0,0,1,10,test,1,1,m,Thu Mar 26 2026 13:48:35 GMT-0500 (Central Daylight Time),464888.7999999523,I,m,1365,15,2,110.bmp,-120,-120,111.bmp,120,-120,112.bmp,-120,120,113.bmp,120,120,9428.299999952316,455460.5,8094,no,SM,A,111.bmp,120,120,297457,291429,299473,293441,455506.0,449479.0,457522.0,451491.0,15
1,1,0,0,0,10,test,1,0,m,Thu Mar 26 2026 13:48:35 GMT-0500 (Central Daylight Time),474066.69999980927,I,z,1128,16,2,102.bmp,-120,-120,103.bmp,120,-120,104.bmp,-120,120,105.bmp,120,120,9174.099999904633,464892.59999990463,8094,no,SM,A,105.bmp,-120,-120,297457,291429,299473,293441,464937.0,458911.0,466953.0,460923.0,16
3,0,0,1,0,11,test,1,1,m,Thu Mar 26 2026 13:48:35 GMT-0500 (Central Daylight Time),483415.89999985695,I,m,1300,17,2,122.bmp,-120,-120,123.bmp,120,-120,124.bmp,-120,120,125.bmp,120,120,9345.599999904633,474070.2999999523,8094,no,SM,A,122.bmp,-120,120,297457,291429,299473,293441,474117.0,468089.0,476134.0,470102.0,17
1,1,0,0,0,11,test,1,0,z,Thu Mar 26 2026 13:48:35 GMT-0500 (Central Daylight Time),493460.09999990463,I,None,2001,18,2,106.bmp,-120,-120,107.bmp,120,-120,108.bmp,-120,120,109.bmp,120,120,10041.200000047684,483418.89999985695,8094,yes,SM,A,106.bmp,-120,-120,297457,291429,299473,293441,483464.0,477437.0,485477.0,479451.0,18
2,0,1,0,0,12,test,1,1,z,Thu Mar 26 2026 13:48:35 GMT-0500 (Central Daylight Time),502407.09999990463,I,z,886,19,2,126.bmp,-120,-120,127.bmp,120,-120,128.bmp,-120,120,129.bmp,120,120,8942.0,493465.09999990463,8094,yes,SM,A,127.bmp,120,-120,297457,291429,299473,293441,493510.0,487483.0,495530.0,489498.0,19
3,0,0,1,0,13,test,1,1,z,Thu Mar 26 2026 13:48:35 GMT-0500 (Central Daylight Time),511670.59999990463,I,z,1206,20,2,130.bmp,-120,-120,131.bmp,120,-120,132.bmp,-120,120,133.bmp,120,120,9256.200000047684,502414.39999985695,8094,yes,SM,A,132.bmp,-120,120,297457,291429,299473,293441,502456.0,496433.0,504473.0,498442.0,20
1,1,0,0,0,13,test,1,0,m,Thu Mar 26 2026 13:48:35 GMT-0500 (Central Daylight Time),520719.19999980927,I,z,999,21,2,114.bmp,-120,-120,115.bmp,120,-120,116.bmp,-120,120,117.bmp,120,120,9044.899999856949,511674.2999999523,8094,no,SM,A,116.bmp,-120,-120,297457,291429,299473,293441,511722.0,505693.0,513737.0,507706.0,21
4,0,0,0,1,13,test,1,0,z,Thu Mar 26 2026 13:48:35 GMT-0500 (Central Daylight Time),529882.7999999523,I,m,1103,22,2,118.bmp,-120,-120,119.bmp,120,-120,120.bmp,-120,120,121.bmp,120,120,9159.299999952316,520723.5,8094,yes,SM,A,121.bmp,120,120,297457,291429,299473,293441,520769.0,514742.0,522785.0,516752.0,22
1,1,0,0,0,13,test,1,0,m,Thu Mar 26 2026 13:48:35 GMT-0500 (Central Daylight Time),538978.5999999046,I,z,1042,23,2,134.bmp,-120,-120,135.bmp,120,-120,136.bmp,-120,120,137.bmp,120,120,9092.799999952316,529885.7999999523,8094,no,SM,A,137.bmp,-120,-120,297457,291429,299473,293441,529931.0,523904.0,531948.0,525916.0,23
2,0,1,0,0,14,test,1,1,z,Thu Mar 26 2026 13:48:35 GMT-0500 (Central Daylight Time),548625.2999999523,I,z,1600,24,2,142.bmp,-120,-120,143.bmp,120,-120,144.bmp,-120,120,145.bmp,120,120,9644.400000095367,538980.899999857,8094,yes,SM,A,143.bmp,120,-120,297457,291429,299473,293441,539028.0,532999.0,541031.0,535012.0,24
4,0,0,0,1,15,test,1,1,m,Thu Mar 26 2026 13:48:35 GMT-0500 (Central Daylight Time),557758.899999857,I,m,1068,25,2,146.bmp,-120,-120,147.bmp,120,-120,148.bmp,-120,120,149.bmp,120,120,9131.5,548627.399999857,8094,no,SM,A,148.bmp,120,120,297457,291429,299473,293441,548677.0,542646.0,550693.0,544661.0,25
1,1,0,0,0,16,test,1,1,z,Thu Mar 26 2026 13:48:35 GMT-0500 (Central Daylight Time),566936.1999998093,I,z,1130,26,2,138.bmp,-120,-120,139.bmp,120,-120,140.bmp,-120,120,141.bmp,120,120,9173.599999904633,557762.5999999046,8094,yes,SM,A,138.bmp,-120,-120,297457,291429,299473,293441,557807.0,551781.0,559822.0,553791.0,26
4,0,0,0,1,17,test,1,1,z,Thu Mar 26 2026 13:48:35 GMT-0500 (Central Daylight Time),576049.6999998093,I,z,1068,27,2,150.bmp,-120,-120,111.bmp,120,-120,101.bmp,-120,120,102.bmp,120,120,9111.099999904633,566938.5999999046,8094,yes,SM,A,102.bmp,120,120,297457,291429,299473,293441,566971.0,560957.0,568987.0,562970.0,27
3,0,0,1,0,18,test,1,1,m,Thu Mar 26 2026 13:48:35 GMT-0500 (Central Daylight Time),585583.2999999523,I,m,1482,28,2,103.bmp,-120,-120,104.bmp,120,-120,105.bmp,-120,120,106.bmp,120,120,9531.200000047684,576052.0999999046,8094,no,SM,A,103.bmp,-120,120,297457,291429,299473,293441,576101.0,570070.0,578117.0,572085.0,28
2,0,1,0,0,19,test,1,1,z,Thu Mar 26 2026 13:48:35 GMT-0500 (Central Daylight Time),594712.5999999046,I,z,1082,29,2,107.bmp,-120,-120,108.bmp,120,-120,109.bmp,-120,120,110.bmp,120,120,9127.299999952316,585585.2999999523,8094,yes,SM,A,108.bmp,120,-120,297457,291429,299473,293441,585632.0,579603.0,587647.0,581616.0,29
3,0,0,1,0,19,test,1,0,z,Thu Mar 26 2026 13:48:35 GMT-0500 (Central Daylight Time),603824.899999857,I,m,1054,30,2,111.bmp,-120,-120,112.bmp,120,-120,113.bmp,-120,120,114.bmp,120,120,9108.099999904633,594716.7999999523,8094,yes,SM,A,113.bmp,-120,120,297457,291429,299473,293441,594761.0,588735.0,596778.0,590745.0,30
1,1,0,0,0,20,test,1,1,z,Thu Mar 26 2026 13:48:35 GMT-0500 (Central Daylight Time),612790.0,I,z,909,31,2,115.bmp,-120,-120,116.bmp,120,-120,117.bmp,-120,120,118.bmp,120,120,8962.0,603828.0,8094,yes,SM,A,115.bmp,-120,-120,297457,291429,299473,293441,603875.0,597846.0,605891.0,599860.0,31
2,0,1,0,0,21,test,1,1,m,Thu Mar 26 2026 13:48:35 GMT-0500 (Central Daylight Time),622052.6999998093,I,m,1200,32,2,119.bmp,-120,-120,120.bmp,120,-120,121.bmp,-120,120,122.bmp,120,120,9259.5,612793.1999998093,8094,no,SM,A,119.bmp,120,-120,297457,291429,299473,293441,612839.0,606811.0,614855.0,608824.0,32
4,0,0,0,1,22,test,1,1,z,Thu Mar 26 2026 13:48:35 GMT-0500 (Central Daylight Time),631483.2999999523,I,z,1378,33,2,131.bmp,-120,-120,132.bmp,120,-120,133.bmp,-120,120,134.bmp,120,120,9426.100000143051,622057.1999998093,8094,yes,SM,A,134.bmp,120,120,297457,291429,299473,293441,622103.0,616076.0,624118.0,618089.0,33
2,0,1,0,0,23,test,1,1,z,Thu Mar 26 2026 13:48:35 GMT-0500 (Central Daylight Time),641013.7999999523,I,z,1475,34,2,123.bmp,-120,-120,124.bmp,120,-120,125.bmp,-120,120,126.bmp,120,120,9526.799999952316,631487.0,8094,yes,SM,A,124.bmp,120,-120,297457,291429,299473,293441,631533.0,625505.0,633549.0,627517.0,34
4,0,0,0,1,23,test,1,0,m,Thu Mar 26 2026 13:48:35 GMT-0500 (Central Daylight Time),650293.399999857,I,z,1224,35,2,127.bmp,-120,-120,128.bmp,120,-120,129.bmp,-120,120,130.bmp,120,120,9276.700000047684,641016.6999998093,8094,no,SM,A,129.bmp,120,120,297457,291429,299473,293441,641063.0,635035.0,643080.0,637053.0,35
3,0,0,1,0,24,test,1,1,m,Thu Mar 26 2026 13:48:35 GMT-0500 (Central Daylight Time),659324.1999998093,I,m,967,36,2,135.bmp,-120,-120,136.bmp,120,-120,137.bmp,-120,120,138.bmp,120,120,9027.699999809265,650296.5,8094,no,SM,A,135.bmp,-120,120,297457,291429,299473,293441,650343.0,644315.0,652360.0,646329.0,36
1,1,0,0,0,25,test,1,1,m,Thu Mar 26 2026 13:48:35 GMT-0500 (Central Daylight Time),668421.0,I,m,1042,37,2,139.bmp,-120,-120,140.bmp,120,-120,141.bmp,-120,120,142.bmp,120,120,9092.900000095367,659328.0999999046,8094,no,SM,A,140.bmp,-120,-120,297457,291429,299473,293441,659374.0,653346.0,661390.0,655359.0,37
2,0,1,0,0,25,test,1,0,m,Thu Mar 26 2026 13:48:35 GMT-0500 (Central Daylight Time),677835.0999999046,I,z,1360,38,2,143.bmp,-120,-120,144.bmp,120,-120,145.bmp,-120,120,146.bmp,120,120,9411.200000047684,668423.899999857,8094,no,SM,A,145.bmp,120,-120,297457,291429,299473,293441,668472.0,662442.0,670488.0,664458.0,38
4,0,0,0,1,26,test,1,1,z,Thu Mar 26 2026 13:48:35 GMT-0500 (Central Daylight Time),686881.2999999523,I,z,995,39,2,147.bmp,-120,-120,148.bmp,120,-120,149.bmp,-120,120,150.bmp,120,120,9044.200000047684,677837.0999999046,8094,yes,SM,A,150.bmp,120,120,297457,291429,299473,293441,677884.0,671856.0,679900.0,673869.0,39
3,0,0,1,0,26,test,1,0,m,Thu Mar 26 2026 13:48:35 GMT-0500 (Central Daylight Time),696845.1999998093,I,z,1899,40,2,104.bmp,-120,-120,105.bmp,120,-120,106.bmp,-120,120,107.bmp,120,120,9962.0,686883.1999998093,8094,no,SM,A,105.bmp,-120,120,297457,291429,299473,293441,686932.0,680901.0,688948.0,682917.0,40
1,1,0,0,0,26,test,1,0,z,Thu Mar 26 2026 13:48:35 GMT-0500 (Central Daylight Time),706660.0,I,m,1760,41,2,108.bmp,-120,-120,109.bmp,120,-120,110.bmp,-120,120,111.bmp,120,120,9812.400000095367,696847.5999999046,8094,yes,SM,A,108.bmp,-120,-120,297457,291429,299473,293441,696895.0,690866.0,698912.0,692881.0,41
4,0,0,0,1,26,test,1,0,z,Thu Mar 26 2026 13:48:35 GMT-0500 (Central Daylight Time),716389.5,I,m,1675,42,2,112.bmp,-120,-120,113.bmp,120,-120,114.bmp,-120,120,115.bmp,120,120,9725.900000095367,706663.5999999046,8094,yes,SM,A,115.bmp,120,120,297457,291429,299473,293441,706709.0,700682.0,708725.0,702693.0,42
1,1,0,0,0,27,test,1,1,z,Thu Mar 26 2026 13:48:35 GMT-0500 (Central Daylight Time),725620.2999999523,I,z,1185,43,2,116.bmp,-120,-120,117.bmp,120,-120,118.bmp,-120,120,119.bmp,120,120,9227.100000143051,716393.1999998093,8094,yes,SM,A,116.bmp,-120,-120,297457,291429,299473,293441,716438.0,710411.0,718439.0,712424.0,43
4,0,0,0,1,28,test,1,1,m,Thu Mar 26 2026 13:48:35 GMT-0500 (Central Daylight Time),734883.0,I,m,1209,44,2,104.bmp,-120,-120,101.bmp,120,-120,102.bmp,-120,120,103.bmp,120,120,9259.0,725624.0,8094,no,SM,A,104.bmp,120,120,297457,291429,299473,293441,725670.0,719642.0,727686.0,721655.0,44
1,1,0,0,0,29,test,1,1,m,Thu Mar 26 2026 13:48:35 GMT-0500 (Central Daylight Time),744147.0,I,m,1200,45,2,128.bmp,-120,-120,129.bmp,120,-120,130.bmp,-120,120,131.bmp,120,120,9260.700000047684,734886.2999999523,8094,no,SM,A,131.bmp,-120,-120,297457,291429,299473,293441,734934.0,728904.0,736951.0,730919.0,45
1,1,0,0,0,30,test,1,1,m,Thu Mar 26 2026 13:48:35 GMT-0500 (Central Daylight Time),754010.0999999046,I,m,1803,46,2,120.bmp,-120,-120,121.bmp,120,-120,122.bmp,-120,120,123.bmp,120,120,9860.400000095367,744149.6999998093,8094,no,SM,A,121.bmp,-120,-120,297457,291429,299473,293441,744196.0,738168.0,746213.0,740182.0,46
3,0,0,1,0,31,test,1,1,z,Thu Mar 26 2026 13:48:35 GMT-0500 (Central Daylight Time),763058.399999857,I,z,989,47,2,124.bmp,-120,-120,125.bmp,120,-120,126.bmp,-120,120,127.bmp,120,120,9043.700000047684,754014.6999998093,8094,yes,SM,A,126.bmp,-120,120,297457,291429,299473,293441,754060.0,748033.0,756076.0,750047.0,47
3,0,0,1,0,31,test,1,0,z,Thu Mar 26 2026 13:48:35 GMT-0500 (Central Daylight Time),772504.5999999046,I,m,1398,48,2,140.bmp,-120,-120,141.bmp,120,-120,142.bmp,-120,120,143.bmp,120,120,9442.5,763062.0999999046,8094,yes,SM,A,142.bmp,-120,120,297457,291429,299473,293441,763107.0,757080.0,765124.0,759093.0,48
2,0,1,0,0,32,test,1,1,z,Thu Mar 26 2026 13:48:35 GMT-0500 (Central Daylight Time),782520.0,I,z,1984,49,2,136.bmp,-120,-120,137.bmp,120,-120,138.bmp,-120,120,139.bmp,120,120,10011.100000143051,772508.899999857,8094,yes,SM,A,137.bmp,120,-120,297457,291429,299473,293441,772538.0,766527.0,774554.0,768537.0,49
3,0,0,1,0,32,test,1,0,m,Thu Mar 26 2026 13:48:35 GMT-0500 (Central Daylight Time),791799.399999857,I,z,1231,50,2,132.bmp,-120,-120,133.bmp,120,-120,134.bmp,-120,120,135.bmp,120,120,9275.399999856949,782524.0,8094,no,SM,A,132.bmp,-120,120,297457,291429,299473,293441,782569.0,776542.0,784585.0,778553.0,50
2,0,1,0,0,32,test,1,0,z,Thu Mar 26 2026 13:48:35 GMT-0500 (Central Daylight Time),801863.5,I,None,2017,51,2,144.bmp,-120,-120,145.bmp,120,-120,146.bmp,-120,120,147.bmp,120,120,10058.300000190735,791805.1999998093,8094,yes,SM,A,145.bmp,120,-120,297457,291429,299473,293441,791849.0,785823.0,793864.0,787834.0,51
4,0,0,0,1,32,test,1,0,m,Thu Mar 26 2026 13:48:35 GMT-0500 (Central Daylight Time),811293.399999857,I,z,1383,52,2,148.bmp,-120,-120,149.bmp,120,-120,150.bmp,-120,120,131.bmp,120,120,9427.299999952316,801866.0999999046,8094,no,SM,A,148.bmp,120,120,297457,291429,299473,293441,801912.0,795884.0,803913.0,797897.0,52
3,0,0,1,0,32,test,1,0,z,Thu Mar 26 2026 13:48:35 GMT-0500 (Central Daylight Time),820989.899999857,I,m,1656,53,2,101.bmp,-120,-120,102.bmp,120,-120,103.bmp,-120,120,104.bmp,120,120,9692.5,811297.399999857,8094,yes,SM,A,103.bmp,-120,120,297457,291429,299473,293441,811327.0,805316.0,813344.0,807326.0,53
1,1,0,0,0,33,test,1,1,m,Thu Mar 26 2026 13:48:35 GMT-0500 (Central Daylight Time),830852.5999999046,I,m,1807,54,2,105.bmp,-120,-120,106.bmp,120,-120,107.bmp,-120,120,108.bmp,120,120,9858.5,820994.0999999046,8094,no,SM,A,107.bmp,-120,-120,297457,291429,299473,293441,821039.0,815012.0,823057.0,817025.0,54
4,0,0,0,1,34,test,1,1,z,Thu Mar 26 2026 13:48:35 GMT-0500 (Central Daylight Time),840151.399999857,I,z,1233,55,2,109.bmp,-120,-120,110.bmp,120,-120,111.bmp,-120,120,112.bmp,120,120,9295.700000047684,830855.6999998093,8094,yes,SM,A,112.bmp,120,120,297457,291429,299473,293441,830902.0,824874.0,832920.0,826889.0,55
2,0,1,0,0,35,test,1,1,m,Thu Mar 26 2026 13:48:35 GMT-0500 (Central Daylight Time),849297.0999999046,I,m,1094,56,2,113.bmp,-120,-120,114.bmp,120,-120,115.bmp,-120,120,116.bmp,120,120,9141.900000095367,840155.1999998093,8094,no,SM,A,113.bmp,120,-120,297457,291429,299473,293441,840201.0,834173.0,842217.0,836186.0,56
4,0,0,0,1,36,test,1,1,m,Thu Mar 26 2026 13:48:35 GMT-0500 (Central Daylight Time),858994.6999998093,I,m,1636,57,2,117.bmp,-120,-120,118.bmp,120,-120,119.bmp,-120,120,120.bmp,120,120,9695.5,849299.1999998093,8094,no,SM,A,118.bmp,120,120,297457,291429,299473,293441,849350.0,843317.0,851363.0,845330.0,57
3,0,0,1,0,37,test,1,1,z,Thu Mar 26 2026 13:48:35 GMT-0500 (Central Daylight Time),868906.899999857,I,z,1860,58,2,121.bmp,-120,-120,122.bmp,120,-120,123.bmp,-120,120,124.bmp,120,120,9908.0,858998.899999857,8094,yes,SM,A,123.bmp,-120,120,297457,291429,299473,293441,859043.0,853017.0,861060.0,855028.0,58
2,0,1,0,0,38,test,1,1,m,Thu Mar 26 2026 13:48:35 GMT-0500 (Central Daylight Time),878386.7999999523,I,m,1434,59,2,125.bmp,-120,-120,126.bmp,120,-120,127.bmp,-120,120,128.bmp,120,120,9474.700000047684,868912.0999999046,8094,no,SM,A,128.bmp,120,-120,297457,291429,299473,293441,868944.0,862930.0,870957.0,864942.0,59
1,1,0,0,0,39,test,1,1,z,Thu Mar 26 2026 13:48:35 GMT-0500 (Central Daylight Time),887851.0999999046,I,z,1410,60,2,129.bmp,-120,-120,130.bmp,120,-120,131.bmp,-120,120,132.bmp,120,120,9459.799999952316,878391.2999999523,8094,yes,SM,A,129.bmp,-120,-120,297457,291429,299473,293441,878439.0,872409.0,880454.0,874422.0,60
2,0,1,0,0,40,test,1,1,z,Thu Mar 26 2026 13:48:35 GMT-0500 (Central Daylight Time),897814.6999998093,I,z,1908,61,2,133.bmp,-120,-120,134.bmp,120,-120,135.bmp,-120,120,136.bmp,120,120,9959.299999952316,887855.399999857,8094,yes,SM,A,134.bmp,120,-120,297457,291429,299473,293441,887901.0,881874.0,889917.0,883886.0,61
4,0,0,0,1,41,test,1,1,z,Thu Mar 26 2026 13:48:35 GMT-0500 (Central Daylight Time),907194.5999999046,I,z,1320,62,2,141.bmp,-120,-120,142.bmp,120,-120,143.bmp,-120,120,144.bmp,120,120,9375.799999952316,897818.7999999523,8094,yes,SM,A,144.bmp,120,120,297457,291429,299473,293441,897865.0,891837.0,899880.0,893849.0,62
1,1,0,0,0,41,test,1,0,m,Thu Mar 26 2026 13:48:35 GMT-0500 (Central Daylight Time),916126.5999999046,I,z,882,63,2,145.bmp,-120,-120,146.bmp,120,-120,147.bmp,-120,120,148.bmp,120,120,8927.099999904633,907199.5,8094,no,SM,A,145.bmp,-120,120,297457,291429,299473,293441,907246.0,901218.0,909262.0,903230.0,63
2,0,1,0,0,42,test,1,1,z,Thu Mar 26 2026 13:48:35 GMT-0500 (Central Daylight Time),925323.399999857,I,z,1144,64,2,149.bmp,-120,-120,150.bmp,120,-120,112.bmp,-120,120,101.bmp,120,120,9192.599999904633,916130.7999999523,8094,yes,SM,A,150.bmp,120,-120,297457,291429,299473,293441,916176.0,910149.0,918192.0,912162.0,64
4,0,0,0,1,42,test,1,0,m,Thu Mar 26 2026 13:48:35 GMT-0500 (Central Daylight Time),934503.6999998093,I,z,1121,65,2,102.bmp,-120,-120,103.bmp,120,-120,104.bmp,-120,120,105.bmp,120,120,9178.099999904633,925325.5999999046,8094,no,SM,A,104.bmp,120,120,297457,291429,299473,293441,925375.0,919344.0,927389.0,921358.0,65
3,0,0,1,0,42,test,1,0,m,Thu Mar 26 2026 13:48:35 GMT-0500 (Central Daylight Time),944117.399999857,I,z,1549,66,2,106.bmp,-120,-120,107.bmp,120,-120,108.bmp,-120,120,109.bmp,120,120,9610.399999856949,934507.0,8094,no,SM,A,109.bmp,-120,120,297457,291429,299473,293441,934553.0,928526.0,936570.0,930539.0,66
2,0,1,0,0,42,test,1,0,m,Thu Mar 26 2026 13:48:35 GMT-0500 (Central Daylight Time),953930.0999999046,I,z,1761,67,2,137.bmp,-120,-120,138.bmp,120,-120,139.bmp,-120,120,140.bmp,120,120,9809.0,944121.0999999046,8094,no,SM,A,139.bmp,120,-120,297457,291429,299473,293441,944167.0,938139.0,946184.0,940152.0,67
3,0,0,1,0,43,test,1,1,z,Thu Mar 26 2026 13:48:35 GMT-0500 (Central Daylight Time),963245.5,I,z,1260,68,2,110.bmp,-120,-120,111.bmp,120,-120,112.bmp,-120,120,113.bmp,120,120,9312.0,953933.5,8094,yes,SM,A,112.bmp,-120,120,297457,291429,299473,293441,953981.0,947952.0,955997.0,949967.0,68
1,1,0,0,0,43,test,1,0,m,Thu Mar 26 2026 13:48:35 GMT-0500 (Central Daylight Time),972456.899999857,I,z,1154,69,2,114.bmp,-120,-120,115.bmp,120,-120,116.bmp,-120,120,117.bmp,120,120,9208.700000047684,963248.1999998093,8094,no,SM,A,115.bmp,-120,-120,297457,291429,299473,293441,963295.0,957267.0,965309.0,959279.0,69
2,0,1,0,0,43,test,1,0,m,Thu Mar 26 2026 13:48:35 GMT-0500 (Central Daylight Time),982206.2999999523,I,z,1694,70,2,118.bmp,-120,-120,119.bmp,120,-120,120.bmp,-120,120,121.bmp,120,120,9747.100000143051,972459.1999998093,8094,no,SM,A,120.bmp,120,-120,297457,291429,299473,293441,972506.0,966477.0,974523.0,968492.0,70
4,0,0,0,1,44,test,1,1,z,Thu Mar 26 2026 13:48:35 GMT-0500 (Central Daylight Time),991983.0,I,z,1730,71,2,122.bmp,-120,-120,123.bmp,120,-120,124.bmp,-120,120,125.bmp,120,120,9771.0,982212.0,8094,yes,SM,A,125.bmp,120,120,297457,291429,299473,293441,982255.0,976230.0,984269.0,978240.0,71
1,1,0,0,0,44,test,1,0,z,Thu Mar 26 2026 13:48:35 GMT-0500 (Central Daylight Time),1001647.1999998093,I,m,1621,72,2,126.bmp,-120,-120,127.bmp,120,-120,128.bmp,-120,120,129.bmp,120,120,9662.199999809265,991985.0,8094,yes,SM,A,126.bmp,-120,-120,297457,291429,299473,293441,992018.0,986003.0,994034.0,988004.0,72
2,0,1,0,0,45,test,1,1,z,Thu Mar 26 2026 13:48:35 GMT-0500 (Central Daylight Time),1011195.5999999046,I,z,1502,73,2,130.bmp,-120,-120,131.bmp,120,-120,132.bmp,-120,120,133.bmp,120,120,9543.099999904633,1001652.5,8094,yes,SM,A,131.bmp,120,-120,297457,291429,299473,293441,1001682.0,995671.0,1003698.0,997681.0,73
4,0,0,0,1,45,test,1,0,m,Thu Mar 26 2026 13:48:35 GMT-0500 (Central Daylight Time),1021257.899999857,I,None,2014,74,2,134.bmp,-120,-120,135.bmp,120,-120,136.bmp,-120,120,137.bmp,120,120,10058.599999904633,1011199.2999999523,8094,no,SM,A,136.bmp,120,120,297457,291429,299473,293441,1011246.0,1005218.0,1013262.0,1007229.0,74
2,0,1,0,0,45,test,1,0,m,Thu Mar 26 2026 13:48:35 GMT-0500 (Central Daylight Time),1031156.1999998093,I,z,1835,75,2,138.bmp,-120,-120,139.bmp,120,-120,140.bmp,-120,120,141.bmp,120,120,9895.199999809265,1021261.0,8094,no,SM,A,141.bmp,120,-120,297457,291429,299473,293441,1021308.0,1015279.0,1023325.0,1017295.0,75
1,1,0,0,0,46,test,1,1,z,Thu Mar 26 2026 13:48:35 GMT-0500 (Central Daylight Time),1040537.5,I,z,1323,76,2,142.bmp,-120,-120,143.bmp,120,-120,144.bmp,-120,120,145.bmp,120,120,9378.0,1031159.5,8094,yes,SM,A,142.bmp,-120,-120,297457,291429,299473,293441,1031206.0,1025178.0,1033222.0,1027191.0,76
3,0,0,1,0,47,test,1,1,z,Thu Mar 26 2026 13:48:35 GMT-0500 (Central Daylight Time),1050048.0999999046,I,z,1453,77,2,150.bmp,-120,-120,111.bmp,120,-120,101.bmp,-120,120,102.bmp,120,120,9507.400000095367,1040540.6999998093,8094,yes,SM,A,101.bmp,-120,120,297457,291429,299473,293441,1040586.0,1034559.0,1042602.0,1036570.0,77
1,1,0,0,0,48,test,1,1,m,Thu Mar 26 2026 13:48:35 GMT-0500 (Central Daylight Time),1059731.0,I,m,1628,78,2,146.bmp,-120,-120,147.bmp,120,-120,148.bmp,-120,120,149.bmp,120,120,9681.0,1050050.0,8094,no,SM,A,147.bmp,-120,-120,297457,291429,299473,293441,1050100.0,1044068.0,1052116.0,1046084.0,78
4,0,0,0,1,49,test,1,1,m,Thu Mar 26 2026 13:48:35 GMT-0500 (Central Daylight Time),1069144.6999998093,I,m,1357,79,2,107.bmp,-120,-120,108.bmp,120,-120,109.bmp,-120,120,110.bmp,120,120,9410.099999904633,1059734.5999999046,8094,no,SM,A,107.bmp,120,120,297457,291429,299473,293441,1059780.0,1053753.0,1061796.0,1055765.0,79
3,0,0,1,0,50,test,1,1,m,Thu Mar 26 2026 13:48:35 GMT-0500 (Central Daylight Time),1078941.5,I,m,1733,80,2,103.bmp,-120,-120,104.bmp,120,-120,105.bmp,-120,120,106.bmp,120,120,9793.0,1069148.5,8094,no,SM,A,106.bmp,-120,120,297457,291429,299473,293441,1069194.0,1063167.0,1071211.0,1065178.0,80
