acc_sum,block,block_c,change,condition,correct,correct_response,datetime,endtime,face,project,response,response_time,row_sel,session_number,start_end,starttime,subject_id,task,task_vers,trial
0,prac,1,,1-Back,,,Fri Apr 17 2026 15:31:29 GMT-0400 (Eastern Daylight Time),,005_o_f_d_a.png,I,space,10690,1,1,,,9078,VNB,B,0
1,prac,1,0.0,1-Back,1.0,m,Fri Apr 17 2026 15:31:29 GMT-0400 (Eastern Daylight Time),194365.39999961853,020_y_f_n_a.png,I,m,1424,2,1,2315.5999999046326,192049.7999997139,9078,VNB,B,1
2,prac,1,0.0,1-Back,1.0,m,Fri Apr 17 2026 15:31:29 GMT-0400 (Eastern Daylight Time),196831.7999997139,007_m_m_h_a.png,I,m,1545,3,1,2458.5999999046326,194373.19999980927,9078,VNB,B,2
3,prac,1,0.0,1-Back,1.0,m,Fri Apr 17 2026 15:31:29 GMT-0400 (Eastern Daylight Time),198898.2999997139,016_y_m_d_a.png,I,m,1128,4,1,2051.5,196846.7999997139,9078,VNB,B,3
3,prac,1,0.0,1-Back,0.0,m,Fri Apr 17 2026 15:31:29 GMT-0400 (Eastern Daylight Time),201081.7999997139,005_o_f_n_a.png,I,z,1266,5,1,2176.4000000953674,198905.39999961853,9078,VNB,B,4
3,prac,1,1.0,1-Back,0.0,z,Fri Apr 17 2026 15:31:29 GMT-0400 (Eastern Daylight Time),204031.59999990463,016_y_m_n_a.png,I,None,2014,6,1,2932.300000190735,201099.2999997139,9078,VNB,B,5
4,prac,1,0.0,1-Back,1.0,m,Fri Apr 17 2026 15:31:29 GMT-0400 (Eastern Daylight Time),206348.39999961853,004_o_m_h_a.png,I,m,1412,7,1,2308.699999809265,204039.69999980927,9078,VNB,B,6
5,prac,1,0.0,1-Back,1.0,m,Fri Apr 17 2026 15:31:29 GMT-0400 (Eastern Daylight Time),208581.7999997139,011_m_f_d_a.png,I,m,1300,8,1,2216.0,206365.7999997139,9078,VNB,B,7
6,prac,1,1.0,1-Back,1.0,z,Fri Apr 17 2026 15:31:29 GMT-0400 (Eastern Daylight Time),210548.39999961853,020_y_f_d_a.png,I,z,1063,9,1,1957.7999997138977,208590.59999990463,9078,VNB,B,8
7,prac,1,0.0,1-Back,1.0,m,Fri Apr 17 2026 15:31:29 GMT-0400 (Eastern Daylight Time),212965.09999990463,007_m_m_n_a.png,I,m,1473,10,1,2400.9000000953674,210564.19999980927,9078,VNB,B,9
8,prac,1,0.0,1-Back,1.0,m,Fri Apr 17 2026 15:31:29 GMT-0400 (Eastern Daylight Time),215148.39999961853,005_o_f_h_a.png,I,m,1259,11,1,2174.8999996185303,212973.5,9078,VNB,B,10
9,prac,1,0.0,1-Back,1.0,m,Fri Apr 17 2026 15:31:29 GMT-0400 (Eastern Daylight Time),217698.59999990463,016_y_m_d_a.png,I,m,1605,12,1,2528.5999999046326,215170.0,9078,VNB,B,11
0,test,1,0.0,1-Back,,,Fri Apr 17 2026 15:31:29 GMT-0400 (Eastern Daylight Time),217698.59999990463,020_y_f_d_a.png,I,space,9958,1,1,2528.5999999046326,215170.0,9078,VNB,B,0
1,test,1,0.0,1-Back,1.0,m,Fri Apr 17 2026 15:31:29 GMT-0400 (Eastern Daylight Time),237165.0,011_m_f_n_a.png,I,m,1551,2,1,2569.5,234595.5,9078,VNB,B,1
2,test,1,0.0,1-Back,1.0,m,Fri Apr 17 2026 15:31:29 GMT-0400 (Eastern Daylight Time),239281.5,004_o_m_h_a.png,I,m,1096,3,1,2109.1000003814697,237172.39999961853,9078,VNB,B,2
3,test,1,1.0,1-Back,1.0,z,Fri Apr 17 2026 15:31:29 GMT-0400 (Eastern Daylight Time),241398.19999980927,007_m_m_h_a.png,I,z,1091,4,1,2103.9000000953674,239294.2999997139,9078,VNB,B,3
4,test,1,0.0,1-Back,1.0,m,Fri Apr 17 2026 15:31:29 GMT-0400 (Eastern Daylight Time),243164.89999961853,005_o_f_n_a.png,I,m,734,5,1,1759.5999999046326,241405.2999997139,9078,VNB,B,4
4,test,1,0.0,1-Back,0.0,m,Fri Apr 17 2026 15:31:29 GMT-0400 (Eastern Daylight Time),246198.5,016_y_m_d_a.png,I,None,2016,6,1,3020.1000003814697,243178.39999961853,9078,VNB,B,5
4,test,1,1.0,1-Back,0.0,z,Fri Apr 17 2026 15:31:29 GMT-0400 (Eastern Daylight Time),249231.59999990463,011_m_f_d_a.png,I,None,2017,7,1,3024.7000002861023,246206.89999961853,9078,VNB,B,6
5,test,1,0.0,1-Back,1.0,m,Fri Apr 17 2026 15:31:29 GMT-0400 (Eastern Daylight Time),251231.19999980927,020_y_f_h_a.png,I,m,981,8,1,1986.8000001907349,249244.39999961853,9078,VNB,B,7
6,test,1,0.0,1-Back,1.0,m,Fri Apr 17 2026 15:31:29 GMT-0400 (Eastern Daylight Time),253914.89999961853,004_o_m_n_a.png,I,m,1653,9,1,2677.0,251237.89999961853,9078,VNB,B,8
7,test,1,0.0,1-Back,1.0,m,Fri Apr 17 2026 15:31:29 GMT-0400 (Eastern Daylight Time),256264.89999961853,016_y_m_h_a.png,I,m,1322,10,1,2335.5999999046326,253929.2999997139,9078,VNB,B,9
8,test,1,0.0,1-Back,1.0,m,Fri Apr 17 2026 15:31:29 GMT-0400 (Eastern Daylight Time),259181.59999990463,004_o_m_d_a.png,I,m,1884,11,1,2909.800000190735,256271.7999997139,9078,VNB,B,10
9,test,1,1.0,1-Back,1.0,z,Fri Apr 17 2026 15:31:29 GMT-0400 (Eastern Daylight Time),261214.39999961853,005_o_f_d_a.png,I,z,1014,12,1,2021.7999997138977,259192.59999990463,9078,VNB,B,11
10,test,1,0.0,1-Back,1.0,m,Fri Apr 17 2026 15:31:29 GMT-0400 (Eastern Daylight Time),263348.09999990463,007_m_m_n_a.png,I,m,1110,13,1,2130.4000000953674,261217.69999980927,9078,VNB,B,12
11,test,1,1.0,1-Back,1.0,z,Fri Apr 17 2026 15:31:29 GMT-0400 (Eastern Daylight Time),265614.89999961853,020_y_f_n_a.png,I,z,1248,14,1,2252.699999809265,263362.19999980927,9078,VNB,B,13
12,test,1,0.0,1-Back,1.0,m,Fri Apr 17 2026 15:31:29 GMT-0400 (Eastern Daylight Time),267764.69999980927,011_m_f_h_a.png,I,m,1126,15,1,2141.5,265623.19999980927,9078,VNB,B,14
12,test,1,0.0,1-Back,0.0,m,Fri Apr 17 2026 15:31:29 GMT-0400 (Eastern Daylight Time),270798.39999961853,007_m_m_d_a.png,I,None,2015,16,1,3018.7999997138977,267779.59999990463,9078,VNB,B,15
13,test,1,0.0,1-Back,1.0,m,Fri Apr 17 2026 15:31:29 GMT-0400 (Eastern Daylight Time),273681.2999997139,016_y_m_n_a.png,I,m,1862,17,1,2875.7999997138977,270805.5,9078,VNB,B,16
14,test,1,0.0,1-Back,1.0,m,Fri Apr 17 2026 15:31:29 GMT-0400 (Eastern Daylight Time),275714.69999980927,005_o_f_h_a.png,I,m,1012,18,1,2019.5,273695.19999980927,9078,VNB,B,17
0,test,2,0.0,1-Back,,,Fri Apr 17 2026 15:31:29 GMT-0400 (Eastern Daylight Time),275714.69999980927,016_y_m_n_a.png,I,space,2178,1,1,2019.5,273695.19999980927,9078,VNB,B,0
1,test,2,0.0,1-Back,1.0,m,Fri Apr 17 2026 15:31:29 GMT-0400 (Eastern Daylight Time),281964.89999961853,020_y_f_h_a.png,I,m,1018,2,1,2035.6999998092651,279929.19999980927,9078,VNB,B,1
1,test,2,1.0,1-Back,0.0,m,Fri Apr 17 2026 15:31:29 GMT-0400 (Eastern Daylight Time),284998.19999980927,004_o_m_n_a.png,I,None,2016,3,1,3024.5,281973.69999980927,9078,VNB,B,2
1,test,2,0.0,1-Back,0.0,m,Fri Apr 17 2026 15:31:29 GMT-0400 (Eastern Daylight Time),287247.89999961853,011_m_f_d_a.png,I,z,1231,4,1,2237.3999996185303,285010.5,9078,VNB,B,3
2,test,2,0.0,1-Back,1.0,z,Fri Apr 17 2026 15:31:29 GMT-0400 (Eastern Daylight Time),289098.09999990463,007_m_m_d_a.png,I,z,820,5,1,1841.8000001907349,287256.2999997139,9078,VNB,B,4
3,test,2,0.0,1-Back,1.0,m,Fri Apr 17 2026 15:31:29 GMT-0400 (Eastern Daylight Time),290864.5,016_y_m_h_a.png,I,m,746,6,1,1752.2000002861023,289112.2999997139,9078,VNB,B,5
3,test,2,1.0,1-Back,0.0,z,Fri Apr 17 2026 15:31:29 GMT-0400 (Eastern Daylight Time),293182.09999990463,005_o_f_h_a.png,I,m,1284,7,1,2313.4000000953674,290868.69999980927,9078,VNB,B,6
3,test,2,0.0,1-Back,0.0,m,Fri Apr 17 2026 15:31:29 GMT-0400 (Eastern Daylight Time),296214.7999997139,011_m_f_n_a.png,I,None,2016,8,1,3024.5,293190.2999997139,9078,VNB,B,7
3,test,2,0.0,1-Back,0.0,m,Fri Apr 17 2026 15:31:29 GMT-0400 (Eastern Daylight Time),299248.2999997139,020_y_f_d_a.png,I,None,2016,9,1,3026.0,296222.2999997139,9078,VNB,B,8
3,test,2,0.0,1-Back,0.0,m,Fri Apr 17 2026 15:31:29 GMT-0400 (Eastern Daylight Time),302281.59999990463,007_m_m_n_a.png,I,None,2015,10,1,3020.9000000953674,299260.69999980927,9078,VNB,B,9
3,test,2,1.0,1-Back,0.0,m,Fri Apr 17 2026 15:31:29 GMT-0400 (Eastern Daylight Time),305314.7999997139,011_m_f_h_a.png,I,None,2016,11,1,3023.4000000953674,302291.39999961853,9078,VNB,B,10
4,test,2,0.0,1-Back,1.0,z,Fri Apr 17 2026 15:31:29 GMT-0400 (Eastern Daylight Time),307247.89999961853,004_o_m_h_a.png,I,z,914,12,1,1920.5999999046326,305327.2999997139,9078,VNB,B,11
5,test,2,0.0,1-Back,1.0,m,Fri Apr 17 2026 15:31:29 GMT-0400 (Eastern Daylight Time),309348.09999990463,016_y_m_d_a.png,I,m,1077,13,1,2092.9000000953674,307255.19999980927,9078,VNB,B,12
5,test,2,0.0,1-Back,0.0,m,Fri Apr 17 2026 15:31:29 GMT-0400 (Eastern Daylight Time),311614.89999961853,005_o_f_n_a.png,I,z,1249,14,1,2253.8999996185303,309361.0,9078,VNB,B,13
6,test,2,0.0,1-Back,1.0,z,Fri Apr 17 2026 15:31:29 GMT-0400 (Eastern Daylight Time),313764.7999997139,020_y_f_n_a.png,I,z,1126,15,1,2143.9000000953674,311620.89999961853,9078,VNB,B,14
7,test,2,1.0,1-Back,1.0,m,Fri Apr 17 2026 15:31:29 GMT-0400 (Eastern Daylight Time),315664.7999997139,007_m_m_h_a.png,I,m,880,16,1,1890.9000000953674,313773.89999961853,9078,VNB,B,15
8,test,2,0.0,1-Back,1.0,m,Fri Apr 17 2026 15:31:29 GMT-0400 (Eastern Daylight Time),318681.39999961853,005_o_f_d_a.png,I,m,1988,17,1,3008.5999999046326,315672.7999997139,9078,VNB,B,16
9,test,2,1.0,1-Back,1.0,z,Fri Apr 17 2026 15:31:29 GMT-0400 (Eastern Daylight Time),321314.69999980927,004_o_m_d_a.png,I,z,1611,18,1,2618.4000000953674,318696.2999997139,9078,VNB,B,17
0,test,3,1.0,1-Back,,,Fri Apr 17 2026 15:31:29 GMT-0400 (Eastern Daylight Time),321314.69999980927,005_o_f_h_a.png,I,space,1698,1,1,2618.4000000953674,318696.2999997139,9078,VNB,B,0
1,test,3,0.0,1-Back,1.0,m,Fri Apr 17 2026 15:31:29 GMT-0400 (Eastern Daylight Time),328064.69999980927,011_m_f_d_a.png,I,m,1863,2,1,2881.9000000953674,325182.7999997139,9078,VNB,B,1
2,test,3,1.0,1-Back,1.0,m,Fri Apr 17 2026 15:31:29 GMT-0400 (Eastern Daylight Time),330331.39999961853,007_m_m_n_a.png,I,m,1236,3,1,2259.699999809265,328071.69999980927,9078,VNB,B,2
2,test,3,0.0,1-Back,0.0,z,Fri Apr 17 2026 15:31:29 GMT-0400 (Eastern Daylight Time),333365.09999990463,005_o_f_n_a.png,I,None,2016,4,1,3020.2000002861023,330344.89999961853,9078,VNB,B,3
3,test,3,1.0,1-Back,1.0,m,Fri Apr 17 2026 15:31:29 GMT-0400 (Eastern Daylight Time),336148.09999990463,004_o_m_d_a.png,I,m,1760,5,1,2777.0999999046326,333371.0,9078,VNB,B,4
4,test,3,0.0,1-Back,1.0,m,Fri Apr 17 2026 15:31:29 GMT-0400 (Eastern Daylight Time),338114.69999980927,020_y_f_h_a.png,I,m,944,6,1,1953.1999998092651,336161.5,9078,VNB,B,5
5,test,3,0.0,1-Back,1.0,z,Fri Apr 17 2026 15:31:29 GMT-0400 (Eastern Daylight Time),339831.39999961853,016_y_m_h_a.png,I,z,690,7,1,1707.8999996185303,338123.5,9078,VNB,B,6
6,test,3,0.0,1-Back,1.0,m,Fri Apr 17 2026 15:31:29 GMT-0400 (Eastern Daylight Time),341831.39999961853,011_m_f_n_a.png,I,m,973,8,1,1987.6999998092651,339843.69999980927,9078,VNB,B,7
7,test,3,0.0,1-Back,1.0,m,Fri Apr 17 2026 15:31:29 GMT-0400 (Eastern Daylight Time),344781.39999961853,020_y_f_d_a.png,I,m,1916,9,1,2943.0,341838.39999961853,9078,VNB,B,8
7,test,3,1.0,1-Back,0.0,m,Fri Apr 17 2026 15:31:29 GMT-0400 (Eastern Daylight Time),347498.09999990463,004_o_m_n_a.png,I,z,1671,10,1,2701.5999999046326,344796.5,9078,VNB,B,9
8,test,3,0.0,1-Back,1.0,m,Fri Apr 17 2026 15:31:29 GMT-0400 (Eastern Daylight Time),350164.69999980927,007_m_m_h_a.png,I,m,1642,11,1,2658.300000190735,347506.39999961853,9078,VNB,B,10
9,test,3,0.0,1-Back,1.0,z,Fri Apr 17 2026 15:31:29 GMT-0400 (Eastern Daylight Time),352431.09999990463,011_m_f_h_a.png,I,z,1246,12,1,2253.5999999046326,350177.5,9078,VNB,B,11
10,test,3,1.0,1-Back,1.0,m,Fri Apr 17 2026 15:31:29 GMT-0400 (Eastern Daylight Time),354481.0,005_o_f_d_a.png,I,m,1028,13,1,2044.0,352437.0,9078,VNB,B,12
11,test,3,0.0,1-Back,1.0,z,Fri Apr 17 2026 15:31:29 GMT-0400 (Eastern Daylight Time),356414.59999990463,007_m_m_d_a.png,I,z,915,14,1,1921.4000000953674,354493.19999980927,9078,VNB,B,13
12,test,3,0.0,1-Back,1.0,m,Fri Apr 17 2026 15:31:29 GMT-0400 (Eastern Daylight Time),358498.0,016_y_m_n_a.png,I,m,1062,15,1,2078.0,356420.0,9078,VNB,B,14
13,test,3,1.0,1-Back,1.0,m,Fri Apr 17 2026 15:31:29 GMT-0400 (Eastern Daylight Time),360764.69999980927,004_o_m_h_a.png,I,m,1234,16,1,2253.5999999046326,358511.09999990463,9078,VNB,B,15
14,test,3,0.0,1-Back,1.0,m,Fri Apr 17 2026 15:31:29 GMT-0400 (Eastern Daylight Time),363064.7999997139,016_y_m_d_a.png,I,m,1272,17,1,2294.0,360770.7999997139,9078,VNB,B,16
14,test,3,1.0,1-Back,0.0,m,Fri Apr 17 2026 15:31:29 GMT-0400 (Eastern Daylight Time),365698.0,020_y_f_n_a.png,I,z,1612,18,1,2618.9000000953674,363079.09999990463,9078,VNB,B,17
0,test,4,1.0,1-Back,,,Fri Apr 17 2026 15:31:29 GMT-0400 (Eastern Daylight Time),365698.0,007_m_m_d_a.png,I,space,1546,1,1,2618.9000000953674,363079.09999990463,9078,VNB,B,0
1,test,4,0.0,1-Back,1.0,z,Fri Apr 17 2026 15:31:29 GMT-0400 (Eastern Daylight Time),371314.7999997139,004_o_m_d_a.png,I,z,1028,2,1,2036.2999997138977,369278.5,9078,VNB,B,1
2,test,4,0.0,1-Back,1.0,m,Fri Apr 17 2026 15:31:29 GMT-0400 (Eastern Daylight Time),373131.0,016_y_m_h_a.png,I,m,786,3,1,1809.4000000953674,371321.59999990463,9078,VNB,B,2
3,test,4,0.0,1-Back,1.0,m,Fri Apr 17 2026 15:31:29 GMT-0400 (Eastern Daylight Time),376114.69999980927,011_m_f_n_a.png,I,m,1961,4,1,2975.199999809265,373139.5,9078,VNB,B,3
3,test,4,1.0,1-Back,0.0,m,Fri Apr 17 2026 15:31:29 GMT-0400 (Eastern Daylight Time),378181.19999980927,005_o_f_h_a.png,I,z,1041,5,1,2060.4000000953674,376120.7999997139,9078,VNB,B,4
4,test,4,0.0,1-Back,1.0,m,Fri Apr 17 2026 15:31:29 GMT-0400 (Eastern Daylight Time),380181.19999980927,007_m_m_n_a.png,I,m,975,6,1,1990.4000000953674,378190.7999997139,9078,VNB,B,5
5,test,4,0.0,1-Back,1.0,m,Fri Apr 17 2026 15:31:29 GMT-0400 (Eastern Daylight Time),382449.0,016_y_m_d_a.png,I,m,1247,7,1,2260.800000190735,380188.19999980927,9078,VNB,B,6
6,test,4,1.0,1-Back,1.0,z,Fri Apr 17 2026 15:31:29 GMT-0400 (Eastern Daylight Time),384531.2999997139,020_y_f_d_a.png,I,z,1059,8,1,2071.0,382460.2999997139,9078,VNB,B,7
7,test,4,0.0,1-Back,1.0,m,Fri Apr 17 2026 15:31:29 GMT-0400 (Eastern Daylight Time),386897.89999961853,011_m_f_h_a.png,I,m,1345,9,1,2359.5999999046326,384538.2999997139,9078,VNB,B,8
8,test,4,0.0,1-Back,1.0,z,Fri Apr 17 2026 15:31:29 GMT-0400 (Eastern Daylight Time),389764.59999990463,004_o_m_h_a.png,I,z,1826,10,1,2852.2000002861023,386912.39999961853,9078,VNB,B,9
9,test,4,1.0,1-Back,1.0,m,Fri Apr 17 2026 15:31:29 GMT-0400 (Eastern Daylight Time),391964.69999980927,005_o_f_n_a.png,I,m,1167,11,1,2191.800000190735,389772.89999961853,9078,VNB,B,10
9,test,4,0.0,1-Back,0.0,m,Fri Apr 17 2026 15:31:29 GMT-0400 (Eastern Daylight Time),394449.0,011_m_f_d_a.png,I,z,1448,12,1,2470.5,391978.5,9078,VNB,B,11
9,test,4,0.0,1-Back,0.0,m,Fri Apr 17 2026 15:31:29 GMT-0400 (Eastern Daylight Time),397481.5,020_y_f_n_a.png,I,None,2016,13,1,3025.4000000953674,394456.09999990463,9078,VNB,B,12
9,test,4,0.0,1-Back,0.0,m,Fri Apr 17 2026 15:31:29 GMT-0400 (Eastern Daylight Time),400398.0,005_o_f_d_a.png,I,z,1883,14,1,2902.5,397495.5,9078,VNB,B,13
10,test,4,0.0,1-Back,1.0,m,Fri Apr 17 2026 15:31:29 GMT-0400 (Eastern Daylight Time),402264.69999980927,020_y_f_h_a.png,I,m,839,15,1,1859.6999998092651,400405.0,9078,VNB,B,14
11,test,4,1.0,1-Back,1.0,z,Fri Apr 17 2026 15:31:29 GMT-0400 (Eastern Daylight Time),404314.69999980927,007_m_m_h_a.png,I,z,1019,16,1,2037.1999998092651,402277.5,9078,VNB,B,15
12,test,4,0.0,1-Back,1.0,m,Fri Apr 17 2026 15:31:29 GMT-0400 (Eastern Daylight Time),406614.59999990463,004_o_m_n_a.png,I,m,1274,17,1,2291.300000190735,404323.2999997139,9078,VNB,B,16
13,test,4,1.0,1-Back,1.0,z,Fri Apr 17 2026 15:31:29 GMT-0400 (Eastern Daylight Time),408564.59999990463,016_y_m_n_a.png,I,z,910,18,1,1936.0999999046326,406628.5,9078,VNB,B,17
0,test,5,1.0,1-Back,,,Fri Apr 17 2026 15:31:29 GMT-0400 (Eastern Daylight Time),408564.59999990463,004_o_m_n_a.png,I,space,2184,1,1,1936.0999999046326,406628.5,9078,VNB,B,0
1,test,5,1.0,1-Back,1.0,m,Fri Apr 17 2026 15:31:29 GMT-0400 (Eastern Daylight Time),414648.0,005_o_f_h_a.png,I,m,839,2,1,1854.6000003814697,412793.39999961853,9078,VNB,B,1
2,test,5,0.0,1-Back,1.0,m,Fri Apr 17 2026 15:31:29 GMT-0400 (Eastern Daylight Time),416682.0,016_y_m_d_a.png,I,m,1004,3,1,2026.8000001907349,414655.19999980927,9078,VNB,B,2
3,test,5,0.0,1-Back,1.0,z,Fri Apr 17 2026 15:31:29 GMT-0400 (Eastern Daylight Time),418548.0,004_o_m_d_a.png,I,z,842,4,1,1859.7000002861023,416688.2999997139,9078,VNB,B,3
4,test,5,0.0,1-Back,1.0,m,Fri Apr 17 2026 15:31:29 GMT-0400 (Eastern Daylight Time),420797.7999997139,011_m_f_h_a.png,I,m,1217,5,1,2242.699999809265,418555.09999990463,9078,VNB,B,4
4,test,5,0.0,1-Back,0.0,m,Fri Apr 17 2026 15:31:29 GMT-0400 (Eastern Daylight Time),423198.09999990463,020_y_f_n_a.png,I,z,1383,6,1,2387.800000190735,420810.2999997139,9078,VNB,B,5
5,test,5,1.0,1-Back,1.0,z,Fri Apr 17 2026 15:31:29 GMT-0400 (Eastern Daylight Time),425481.2999997139,005_o_f_n_a.png,I,z,1254,7,1,2276.7999997138977,423204.5,9078,VNB,B,6
6,test,5,0.0,1-Back,1.0,m,Fri Apr 17 2026 15:31:29 GMT-0400 (Eastern Daylight Time),428381.2999997139,011_m_f_d_a.png,I,m,1867,8,1,2885.2999997138977,425496.0,9078,VNB,B,7
7,test,5,0.0,1-Back,1.0,m,Fri Apr 17 2026 15:31:29 GMT-0400 (Eastern Daylight Time),430347.89999961853,016_y_m_h_a.png,I,m,935,9,1,1960.5,428387.39999961853,9078,VNB,B,8
8,test,5,0.0,1-Back,1.0,m,Fri Apr 17 2026 15:31:29 GMT-0400 (Eastern Daylight Time),432814.59999990463,020_y_f_d_a.png,I,m,1433,10,1,2453.0,430361.59999990463,9078,VNB,B,9
9,test,5,0.0,1-Back,1.0,m,Fri Apr 17 2026 15:31:29 GMT-0400 (Eastern Daylight Time),435631.0,007_m_m_n_a.png,I,m,1798,11,1,2807.7000002861023,432823.2999997139,9078,VNB,B,10
10,test,5,1.0,1-Back,1.0,z,Fri Apr 17 2026 15:31:29 GMT-0400 (Eastern Daylight Time),437914.59999990463,011_m_f_n_a.png,I,z,1253,12,1,2272.300000190735,435642.2999997139,9078,VNB,B,11
11,test,5,0.0,1-Back,1.0,m,Fri Apr 17 2026 15:31:29 GMT-0400 (Eastern Daylight Time),440097.7999997139,004_o_m_h_a.png,I,m,1161,13,1,2175.0999999046326,437922.69999980927,9078,VNB,B,12
12,test,5,0.0,1-Back,1.0,z,Fri Apr 17 2026 15:31:29 GMT-0400 (Eastern Daylight Time),442131.0,007_m_m_h_a.png,I,z,1012,14,1,2022.6000003814697,440108.39999961853,9078,VNB,B,13
13,test,5,1.0,1-Back,1.0,m,Fri Apr 17 2026 15:31:29 GMT-0400 (Eastern Daylight Time),444297.7999997139,005_o_f_d_a.png,I,m,1138,15,1,2160.9000000953674,442136.89999961853,9078,VNB,B,14
13,test,5,0.0,1-Back,0.0,m,Fri Apr 17 2026 15:31:29 GMT-0400 (Eastern Daylight Time),447331.59999990463,016_y_m_n_a.png,I,None,2016,16,1,3020.5999999046326,444311.0,9078,VNB,B,15
14,test,5,0.0,1-Back,1.0,m,Fri Apr 17 2026 15:31:29 GMT-0400 (Eastern Daylight Time),450014.19999980927,020_y_f_h_a.png,I,m,1664,17,1,2676.5,447337.69999980927,9078,VNB,B,16
15,test,5,0.0,1-Back,1.0,m,Fri Apr 17 2026 15:31:29 GMT-0400 (Eastern Daylight Time),452381.19999980927,007_m_m_d_a.png,I,m,1333,18,1,2354.699999809265,450026.5,9078,VNB,B,17
0,prac,1,0.0,2-Back,,,Fri Apr 17 2026 15:31:29 GMT-0400 (Eastern Daylight Time),452381.19999980927,011_m_f_n_a.png,I,space,3476,1,1,2354.699999809265,450026.5,9078,VNB,B,0
0,prac,1,0.0,2-Back,,,Fri Apr 17 2026 15:31:29 GMT-0400 (Eastern Daylight Time),452381.19999980927,005_o_f_h_a.png,I,space,3476,2,1,2354.699999809265,450026.5,9078,VNB,B,0
0,prac,1,0.0,2-Back,0.0,m,Fri Apr 17 2026 15:31:29 GMT-0400 (Eastern Daylight Time),577598.0999999046,004_o_m_d_a.png,I,z,1856,3,1,2737.7000002861023,574860.3999996185,9078,VNB,B,1
0,prac,1,1.0,2-Back,0.0,z,Fri Apr 17 2026 15:31:29 GMT-0400 (Eastern Daylight Time),580547.6999998093,007_m_m_h_a.png,I,None,2017,4,1,2929.5999999046326,577618.0999999046,9078,VNB,B,2
1,prac,1,0.0,2-Back,1.0,m,Fri Apr 17 2026 15:31:29 GMT-0400 (Eastern Daylight Time),581581.1999998093,020_y_f_n_a.png,I,m,120,5,1,1022.9000000953674,580558.2999997139,9078,VNB,B,3
1,prac,1,1.0,2-Back,0.0,z,Fri Apr 17 2026 15:31:29 GMT-0400 (Eastern Daylight Time),584497.7999997139,004_o_m_h_a.png,I,None,2010,6,1,2899.699999809265,581598.0999999046,9078,VNB,B,4
2,prac,1,1.0,2-Back,1.0,z,Fri Apr 17 2026 15:31:29 GMT-0400 (Eastern Daylight Time),587181.1999998093,016_y_m_n_a.png,I,z,1747,7,1,2673.699999809265,584507.5,9078,VNB,B,5
2,prac,1,0.0,2-Back,0.0,m,Fri Apr 17 2026 15:31:29 GMT-0400 (Eastern Daylight Time),590114.3999996185,011_m_f_d_a.png,I,None,2013,8,1,2917.3999996185303,587197.0,9078,VNB,B,6
2,prac,1,0.0,2-Back,0.0,m,Fri Apr 17 2026 15:31:29 GMT-0400 (Eastern Daylight Time),592281.0999999046,005_o_f_d_a.png,I,z,1234,9,1,2159.0,590122.0999999046,9078,VNB,B,7
3,prac,1,0.0,2-Back,1.0,m,Fri Apr 17 2026 15:31:29 GMT-0400 (Eastern Daylight Time),594748.2999997139,007_m_m_h_a.png,I,m,1665,10,1,2448.7999997138977,592299.5,9078,VNB,B,8
4,prac,1,1.0,2-Back,1.0,z,Fri Apr 17 2026 15:31:29 GMT-0400 (Eastern Daylight Time),597430.5,020_y_f_d_a.png,I,z,1768,11,1,2672.1000003814697,594758.3999996185,9078,VNB,B,9
5,prac,1,0.0,2-Back,1.0,m,Fri Apr 17 2026 15:31:29 GMT-0400 (Eastern Daylight Time),599881.1999998093,004_o_m_n_a.png,I,m,1534,12,1,2437.9000000953674,597443.2999997139,9078,VNB,B,10
0,prac,2,0.0,2-Back,,,Fri Apr 17 2026 15:31:29 GMT-0400 (Eastern Daylight Time),599881.1999998093,011_m_f_n_a.png,I,a,13997,1,1,2437.9000000953674,597443.2999997139,9078,VNB,B,0
0,prac,2,0.0,2-Back,,,Fri Apr 17 2026 15:31:29 GMT-0400 (Eastern Daylight Time),599881.1999998093,005_o_f_h_a.png,I,a,13997,2,1,2437.9000000953674,597443.2999997139,9078,VNB,B,0
0,prac,2,0.0,2-Back,0.0,m,Fri Apr 17 2026 15:31:29 GMT-0400 (Eastern Daylight Time),621697.6999998093,004_o_m_d_a.png,I,z,1592,3,1,2487.0999999046326,619210.5999999046,9078,VNB,B,1
0,prac,2,1.0,2-Back,0.0,z,Fri Apr 17 2026 15:31:29 GMT-0400 (Eastern Daylight Time),624497.6999998093,007_m_m_h_a.png,I,None,2016,4,1,2783.199999809265,621714.5,9078,VNB,B,2
0,prac,2,0.0,2-Back,0.0,m,Fri Apr 17 2026 15:31:29 GMT-0400 (Eastern Daylight Time),627397.5999999046,020_y_f_n_a.png,I,None,2005,5,1,2892.4000000953674,624505.1999998093,9078,VNB,B,3
0,prac,2,1.0,2-Back,0.0,z,Fri Apr 17 2026 15:31:29 GMT-0400 (Eastern Daylight Time),628597.6999998093,004_o_m_h_a.png,I,m,286,6,1,1184.6999998092651,627413.0,9078,VNB,B,4
1,prac,2,1.0,2-Back,1.0,z,Fri Apr 17 2026 15:31:29 GMT-0400 (Eastern Daylight Time),630931.0999999046,016_y_m_n_a.png,I,z,1408,7,1,2325.5,628605.5999999046,9078,VNB,B,5
1,prac,2,0.0,2-Back,0.0,m,Fri Apr 17 2026 15:31:29 GMT-0400 (Eastern Daylight Time),633864.2999997139,011_m_f_d_a.png,I,None,2006,8,1,2914.699999809265,630949.5999999046,9078,VNB,B,6
2,prac,2,0.0,2-Back,1.0,m,Fri Apr 17 2026 15:31:29 GMT-0400 (Eastern Daylight Time),634764.3999996185,005_o_f_d_a.png,I,m,2,9,1,891.3999996185303,633873.0,9078,VNB,B,7
2,prac,2,0.0,2-Back,0.0,m,Fri Apr 17 2026 15:31:29 GMT-0400 (Eastern Daylight Time),636914.5,007_m_m_h_a.png,I,z,1356,10,1,2130.1000003814697,634784.3999996185,9078,VNB,B,8
2,prac,2,1.0,2-Back,0.0,z,Fri Apr 17 2026 15:31:29 GMT-0400 (Eastern Daylight Time),639481.0999999046,020_y_f_d_a.png,I,m,1656,11,1,2556.4000000953674,636924.6999998093,9078,VNB,B,9
2,prac,2,0.0,2-Back,0.0,m,Fri Apr 17 2026 15:31:29 GMT-0400 (Eastern Daylight Time),642331.0,004_o_m_n_a.png,I,z,1927,12,1,2835.4000000953674,639495.5999999046,9078,VNB,B,10
0,test,1,0.0,2-Back,,,Fri Apr 17 2026 15:31:29 GMT-0400 (Eastern Daylight Time),642331.0,016_y_m_h_a.png,I,space,15262,1,1,2835.4000000953674,639495.5999999046,9078,VNB,B,0
0,test,1,0.0,2-Back,,,Fri Apr 17 2026 15:31:29 GMT-0400 (Eastern Daylight Time),642331.0,005_o_f_n_a.png,I,space,15262,2,1,2835.4000000953674,639495.5999999046,9078,VNB,B,0
1,test,1,0.0,2-Back,1.0,z,Fri Apr 17 2026 15:31:29 GMT-0400 (Eastern Daylight Time),706531.0,004_o_m_h_a.png,I,z,1277,3,1,2291.7000002861023,704239.2999997139,9078,VNB,B,1
2,test,1,0.0,2-Back,1.0,m,Fri Apr 17 2026 15:31:29 GMT-0400 (Eastern Daylight Time),708814.0,011_m_f_d_a.png,I,m,1265,4,1,2269.2000002861023,706544.7999997139,9078,VNB,B,2
2,test,1,1.0,2-Back,0.0,m,Fri Apr 17 2026 15:31:29 GMT-0400 (Eastern Daylight Time),711847.5999999046,016_y_m_n_a.png,I,None,2015,5,1,3027.5,708820.0999999046,9078,VNB,B,3
3,test,1,0.0,2-Back,1.0,z,Fri Apr 17 2026 15:31:29 GMT-0400 (Eastern Daylight Time),714780.7999997139,020_y_f_d_a.png,I,z,1900,6,1,2922.0999999046326,711858.6999998093,9078,VNB,B,4
4,test,1,0.0,2-Back,1.0,m,Fri Apr 17 2026 15:31:29 GMT-0400 (Eastern Daylight Time),717580.6999998093,007_m_m_h_a.png,I,m,1767,7,1,2792.699999809265,714788.0,9078,VNB,B,5
4,test,1,1.0,2-Back,0.0,m,Fri Apr 17 2026 15:31:29 GMT-0400 (Eastern Daylight Time),720614.1999998093,020_y_f_n_a.png,I,None,2016,8,1,3020.699999809265,717593.5,9078,VNB,B,6
4,test,1,0.0,2-Back,0.0,z,Fri Apr 17 2026 15:31:29 GMT-0400 (Eastern Daylight Time),722430.6999998093,005_o_f_h_a.png,I,m,798,9,1,1810.3000001907349,720620.3999996185,9078,VNB,B,7
4,test,1,0.0,2-Back,0.0,m,Fri Apr 17 2026 15:31:29 GMT-0400 (Eastern Daylight Time),725147.5,004_o_m_d_a.png,I,z,1684,10,1,2706.4000000953674,722441.0999999046,9078,VNB,B,8
5,test,1,1.0,2-Back,1.0,m,Fri Apr 17 2026 15:31:29 GMT-0400 (Eastern Daylight Time),727730.8999996185,007_m_m_d_a.png,I,m,1560,11,1,2576.199999809265,725154.6999998093,9078,VNB,B,9
5,test,1,0.0,2-Back,0.0,m,Fri Apr 17 2026 15:31:29 GMT-0400 (Eastern Daylight Time),730764.1999998093,011_m_f_n_a.png,I,None,2016,12,1,3018.0999999046326,727746.0999999046,9078,VNB,B,10
5,test,1,0.0,2-Back,0.0,m,Fri Apr 17 2026 15:31:29 GMT-0400 (Eastern Daylight Time),733797.5,020_y_f_h_a.png,I,None,2016,13,1,3025.300000190735,730772.1999998093,9078,VNB,B,11
5,test,1,0.0,2-Back,0.0,z,Fri Apr 17 2026 15:31:29 GMT-0400 (Eastern Daylight Time),736380.7999997139,007_m_m_n_a.png,I,m,1550,14,1,2570.0999999046326,733810.6999998093,9078,VNB,B,12
5,test,1,0.0,2-Back,0.0,m,Fri Apr 17 2026 15:31:29 GMT-0400 (Eastern Daylight Time),739414.0999999046,016_y_m_d_a.png,I,None,2016,15,1,3026.4000000953674,736387.6999998093,9078,VNB,B,13
6,test,1,1.0,2-Back,1.0,m,Fri Apr 17 2026 15:31:29 GMT-0400 (Eastern Daylight Time),742097.5,011_m_f_h_a.png,I,m,1661,16,1,2670.5,739427.0,9078,VNB,B,14
7,test,1,0.0,2-Back,1.0,z,Fri Apr 17 2026 15:31:29 GMT-0400 (Eastern Daylight Time),744630.7999997139,005_o_f_d_a.png,I,z,1506,17,1,2527.5,742103.2999997139,9078,VNB,B,15
7,test,1,0.0,2-Back,0.0,m,Fri Apr 17 2026 15:31:29 GMT-0400 (Eastern Daylight Time),747664.1999998093,004_o_m_n_a.png,I,None,2015,18,1,3018.300000190735,744645.8999996185,9078,VNB,B,16
0,test,2,0.0,2-Back,,,Fri Apr 17 2026 15:31:29 GMT-0400 (Eastern Daylight Time),747664.1999998093,007_m_m_h_a.png,I,space,1755,1,1,3018.300000190735,744645.8999996185,9078,VNB,B,0
0,test,2,0.0,2-Back,,,Fri Apr 17 2026 15:31:29 GMT-0400 (Eastern Daylight Time),747664.1999998093,020_y_f_n_a.png,I,space,1755,2,1,3018.300000190735,744645.8999996185,9078,VNB,B,0
0,test,2,1.0,2-Back,0.0,z,Fri Apr 17 2026 15:31:29 GMT-0400 (Eastern Daylight Time),756697.5,005_o_f_h_a.png,I,m,937,3,1,1960.5,754737.0,9078,VNB,B,1
0,test,2,0.0,2-Back,0.0,m,Fri Apr 17 2026 15:31:29 GMT-0400 (Eastern Daylight Time),759730.8999996185,004_o_m_d_a.png,I,None,2016,4,1,3020.0,756710.8999996185,9078,VNB,B,2
0,test,2,0.0,2-Back,0.0,m,Fri Apr 17 2026 15:31:29 GMT-0400 (Eastern Daylight Time),762764.0999999046,011_m_f_d_a.png,I,None,2016,5,1,3027.0,759737.0999999046,9078,VNB,B,3
1,test,2,0.0,2-Back,1.0,m,Fri Apr 17 2026 15:31:29 GMT-0400 (Eastern Daylight Time),765747.3999996185,016_y_m_h_a.png,I,m,1944,6,1,2966.5,762780.8999996185,9078,VNB,B,4
1,test,2,0.0,2-Back,0.0,m,Fri Apr 17 2026 15:31:29 GMT-0400 (Eastern Daylight Time),767997.3999996185,005_o_f_n_a.png,I,z,1217,7,1,2242.7999997138977,765754.5999999046,9078,VNB,B,5
2,test,2,1.0,2-Back,1.0,z,Fri Apr 17 2026 15:31:29 GMT-0400 (Eastern Daylight Time),770914.0,004_o_m_h_a.png,I,z,1894,8,1,2902.300000190735,768011.6999998093,9078,VNB,B,6
2,test,2,0.0,2-Back,0.0,m,Fri Apr 17 2026 15:31:29 GMT-0400 (Eastern Daylight Time),773947.5,020_y_f_d_a.png,I,None,2016,9,1,3026.2000002861023,770921.2999997139,9078,VNB,B,7
2,test,2,0.0,2-Back,0.0,m,Fri Apr 17 2026 15:31:29 GMT-0400 (Eastern Daylight Time),776980.6999998093,016_y_m_d_a.png,I,None,2016,10,1,3019.0,773961.6999998093,9078,VNB,B,8
2,test,2,0.0,2-Back,0.0,m,Fri Apr 17 2026 15:31:29 GMT-0400 (Eastern Daylight Time),780014.0999999046,007_m_m_n_a.png,I,None,2016,11,1,3026.5,776987.5999999046,9078,VNB,B,9
3,test,2,0.0,2-Back,1.0,m,Fri Apr 17 2026 15:31:29 GMT-0400 (Eastern Daylight Time),782980.6999998093,011_m_f_h_a.png,I,m,1942,12,1,2958.0999999046326,780022.5999999046,9078,VNB,B,10
4,test,2,1.0,2-Back,1.0,z,Fri Apr 17 2026 15:31:29 GMT-0400 (Eastern Daylight Time),785114.0,004_o_m_n_a.png,I,z,1103,13,1,2126.1000003814697,782987.8999996185,9078,VNB,B,11
4,test,2,0.0,2-Back,0.0,m,Fri Apr 17 2026 15:31:29 GMT-0400 (Eastern Daylight Time),788147.5,005_o_f_d_a.png,I,None,2015,14,1,3019.800000190735,785127.6999998093,9078,VNB,B,12
5,test,2,0.0,2-Back,1.0,m,Fri Apr 17 2026 15:31:29 GMT-0400 (Eastern Daylight Time),791014.0,020_y_f_h_a.png,I,m,1840,15,1,2860.2000002861023,788153.7999997139,9078,VNB,B,13
5,test,2,0.0,2-Back,0.0,z,Fri Apr 17 2026 15:31:29 GMT-0400 (Eastern Daylight Time),794047.5,007_m_m_d_a.png,I,None,2015,16,1,3020.0,791027.5,9078,VNB,B,14
5,test,2,0.0,2-Back,0.0,m,Fri Apr 17 2026 15:31:29 GMT-0400 (Eastern Daylight Time),797080.6999998093,016_y_m_n_a.png,I,None,2016,17,1,3024.800000190735,794055.8999996185,9078,VNB,B,15
5,test,2,1.0,2-Back,0.0,m,Fri Apr 17 2026 15:31:29 GMT-0400 (Eastern Daylight Time),799997.3999996185,011_m_f_n_a.png,I,z,1882,18,1,2902.8999996185303,797094.5,9078,VNB,B,16
0,test,3,1.0,2-Back,,,Fri Apr 17 2026 15:31:29 GMT-0400 (Eastern Daylight Time),799997.3999996185,004_o_m_n_a.png,I,space,1350,1,1,2902.8999996185303,797094.5,9078,VNB,B,0
0,test,3,1.0,2-Back,,,Fri Apr 17 2026 15:31:29 GMT-0400 (Eastern Daylight Time),799997.3999996185,005_o_f_d_a.png,I,space,1350,2,1,2902.8999996185303,797094.5,9078,VNB,B,0
1,test,3,0.0,2-Back,1.0,m,Fri Apr 17 2026 15:31:29 GMT-0400 (Eastern Daylight Time),809030.6999998093,020_y_f_h_a.png,I,m,1590,3,1,2610.800000190735,806419.8999996185,9078,VNB,B,1
1,test,3,0.0,2-Back,0.0,z,Fri Apr 17 2026 15:31:29 GMT-0400 (Eastern Daylight Time),812014.0999999046,011_m_f_d_a.png,I,m,1950,4,1,2970.9000000953674,809043.1999998093,9078,VNB,B,2
1,test,3,1.0,2-Back,0.0,m,Fri Apr 17 2026 15:31:29 GMT-0400 (Eastern Daylight Time),814430.3999996185,016_y_m_n_a.png,I,z,1398,5,1,2409.0,812021.3999996185,9078,VNB,B,3
2,test,3,0.0,2-Back,1.0,m,Fri Apr 17 2026 15:31:29 GMT-0400 (Eastern Daylight Time),817414.0999999046,004_o_m_h_a.png,I,m,1957,6,1,2970.0999999046326,814444.0,9078,VNB,B,4
3,test,3,0.0,2-Back,1.0,z,Fri Apr 17 2026 15:31:29 GMT-0400 (Eastern Daylight Time),820397.2999997139,020_y_f_n_a.png,I,z,1950,7,1,2974.7999997138977,817422.5,9078,VNB,B,5
4,test,3,1.0,2-Back,1.0,m,Fri Apr 17 2026 15:31:29 GMT-0400 (Eastern Daylight Time),822964.0,007_m_m_d_a.png,I,m,1542,8,1,2552.7000002861023,820411.2999997139,9078,VNB,B,6
4,test,3,0.0,2-Back,0.0,m,Fri Apr 17 2026 15:31:29 GMT-0400 (Eastern Daylight Time),825997.3999996185,016_y_m_d_a.png,I,None,2016,9,1,3024.5999999046326,822972.7999997139,9078,VNB,B,7
4,test,3,0.0,2-Back,0.0,m,Fri Apr 17 2026 15:31:29 GMT-0400 (Eastern Daylight Time),829047.3999996185,005_o_f_h_a.png,I,None,2016,10,1,3034.199999809265,826013.1999998093,9078,VNB,B,8
4,test,3,1.0,2-Back,0.0,m,Fri Apr 17 2026 15:31:29 GMT-0400 (Eastern Daylight Time),831763.8999996185,011_m_f_n_a.png,I,z,1692,11,1,2709.2999997138977,829054.5999999046,9078,VNB,B,9
5,test,3,1.0,2-Back,1.0,z,Fri Apr 17 2026 15:31:29 GMT-0400 (Eastern Daylight Time),834297.3999996185,007_m_m_h_a.png,I,z,1505,12,1,2520.3999996185303,831777.0,9078,VNB,B,10
5,test,3,0.0,2-Back,0.0,m,Fri Apr 17 2026 15:31:29 GMT-0400 (Eastern Daylight Time),837330.6999998093,020_y_f_d_a.png,I,None,2016,13,1,3025.5999999046326,834305.0999999046,9078,VNB,B,11
5,test,3,0.0,2-Back,0.0,m,Fri Apr 17 2026 15:31:29 GMT-0400 (Eastern Daylight Time),840364.0,005_o_f_n_a.png,I,None,2016,14,1,3023.1000003814697,837340.8999996185,9078,VNB,B,12
5,test,3,0.0,2-Back,0.0,z,Fri Apr 17 2026 15:31:29 GMT-0400 (Eastern Daylight Time),843397.2999997139,004_o_m_d_a.png,I,None,2016,15,1,3025.5,840371.7999997139,9078,VNB,B,13
5,test,3,1.0,2-Back,0.0,m,Fri Apr 17 2026 15:31:29 GMT-0400 (Eastern Daylight Time),846430.6999998093,011_m_f_h_a.png,I,None,2016,16,1,3019.199999809265,843411.5,9078,VNB,B,14
5,test,3,0.0,2-Back,0.0,m,Fri Apr 17 2026 15:31:29 GMT-0400 (Eastern Daylight Time),849097.2999997139,007_m_m_n_a.png,I,z,1637,17,1,2660.5,846436.7999997139,9078,VNB,B,15
6,test,3,0.0,2-Back,1.0,z,Fri Apr 17 2026 15:31:29 GMT-0400 (Eastern Daylight Time),851697.2999997139,016_y_m_h_a.png,I,z,1545,18,1,2560.4000000953674,849136.8999996185,9078,VNB,B,16
0,test,4,0.0,2-Back,,,Fri Apr 17 2026 15:31:29 GMT-0400 (Eastern Daylight Time),851697.2999997139,011_m_f_n_a.png,I,space,1618,1,1,2560.4000000953674,849136.8999996185,9078,VNB,B,0
0,test,4,0.0,2-Back,,,Fri Apr 17 2026 15:31:29 GMT-0400 (Eastern Daylight Time),851697.2999997139,004_o_m_n_a.png,I,space,1618,2,1,2560.4000000953674,849136.8999996185,9078,VNB,B,0
1,test,4,1.0,2-Back,1.0,m,Fri Apr 17 2026 15:31:29 GMT-0400 (Eastern Daylight Time),861197.5999999046,016_y_m_h_a.png,I,m,1566,3,1,2577.2000002861023,858620.3999996185,9078,VNB,B,1
1,test,4,1.0,2-Back,0.0,m,Fri Apr 17 2026 15:31:29 GMT-0400 (Eastern Daylight Time),864230.6999998093,005_o_f_d_a.png,I,None,2016,4,1,3022.699999809265,861208.0,9078,VNB,B,2
1,test,4,0.0,2-Back,0.0,z,Fri Apr 17 2026 15:31:29 GMT-0400 (Eastern Daylight Time),867263.8999996185,004_o_m_h_a.png,I,None,2016,5,1,3026.8999996185303,864237.0,9078,VNB,B,3
1,test,4,0.0,2-Back,0.0,m,Fri Apr 17 2026 15:31:29 GMT-0400 (Eastern Daylight Time),870297.6999998093,007_m_m_n_a.png,I,None,2016,6,1,3020.9000000953674,867276.7999997139,9078,VNB,B,4
1,test,4,0.0,2-Back,0.0,m,Fri Apr 17 2026 15:31:29 GMT-0400 (Eastern Daylight Time),872363.7999997139,011_m_f_d_a.png,I,z,1034,7,1,2059.9000000953674,870303.8999996185,9078,VNB,B,5
1,test,4,0.0,2-Back,0.0,z,Fri Apr 17 2026 15:31:29 GMT-0400 (Eastern Daylight Time),875163.8999996185,020_y_f_n_a.png,I,m,1768,8,1,2789.7999997138977,872374.0999999046,9078,VNB,B,6
1,test,4,1.0,2-Back,0.0,m,Fri Apr 17 2026 15:31:29 GMT-0400 (Eastern Daylight Time),878197.2999997139,005_o_f_h_a.png,I,None,2016,9,1,3025.7999997138977,875171.5,9078,VNB,B,7
1,test,4,0.0,2-Back,0.0,m,Fri Apr 17 2026 15:31:29 GMT-0400 (Eastern Daylight Time),879231.0,007_m_m_h_a.png,I,z,15,10,1,1021.9000000953674,878209.0999999046,9078,VNB,B,8
2,test,4,0.0,2-Back,1.0,m,Fri Apr 17 2026 15:31:29 GMT-0400 (Eastern Daylight Time),882030.2999997139,020_y_f_d_a.png,I,m,1782,11,1,2790.4000000953674,879239.8999996185,9078,VNB,B,9
2,test,4,0.0,2-Back,0.0,m,Fri Apr 17 2026 15:31:29 GMT-0400 (Eastern Daylight Time),885063.8999996185,016_y_m_n_a.png,I,None,2016,12,1,3018.7999997138977,882045.0999999046,9078,VNB,B,10
2,test,4,0.0,2-Back,0.0,z,Fri Apr 17 2026 15:31:29 GMT-0400 (Eastern Daylight Time),887547.1999998093,004_o_m_d_a.png,I,m,1452,13,1,2477.199999809265,885070.0,9078,VNB,B,11
2,test,4,1.0,2-Back,0.0,m,Fri Apr 17 2026 15:31:29 GMT-0400 (Eastern Daylight Time),890597.2999997139,011_m_f_h_a.png,I,None,2016,14,1,3032.4000000953674,887564.8999996185,9078,VNB,B,12
2,test,4,1.0,2-Back,0.0,m,Fri Apr 17 2026 15:31:29 GMT-0400 (Eastern Daylight Time),893630.5999999046,020_y_f_h_a.png,I,None,2017,15,1,3027.4000000953674,890603.1999998093,9078,VNB,B,13
3,test,4,0.0,2-Back,1.0,m,Fri Apr 17 2026 15:31:29 GMT-0400 (Eastern Daylight Time),896380.5999999046,005_o_f_n_a.png,I,m,1717,16,1,2739.2000002861023,893641.3999996185,9078,VNB,B,14
3,test,4,0.0,2-Back,0.0,m,Fri Apr 17 2026 15:31:29 GMT-0400 (Eastern Daylight Time),899429.8999996185,016_y_m_d_a.png,I,None,2016,17,1,3026.2999997138977,896403.5999999046,9078,VNB,B,15
4,test,4,1.0,2-Back,1.0,m,Fri Apr 17 2026 15:31:29 GMT-0400 (Eastern Daylight Time),902396.8999996185,007_m_m_d_a.png,I,m,1848,18,1,2854.199999809265,899542.6999998093,9078,VNB,B,16
0,test,5,1.0,2-Back,,,Fri Apr 17 2026 15:31:29 GMT-0400 (Eastern Daylight Time),902396.8999996185,020_y_f_d_a.png,I,space,1318,1,1,2854.199999809265,899542.6999998093,9078,VNB,B,0
0,test,5,1.0,2-Back,,,Fri Apr 17 2026 15:31:29 GMT-0400 (Eastern Daylight Time),902396.8999996185,005_o_f_h_a.png,I,space,1318,2,1,2854.199999809265,899542.6999998093,9078,VNB,B,0
1,test,5,1.0,2-Back,1.0,z,Fri Apr 17 2026 15:31:29 GMT-0400 (Eastern Daylight Time),911546.8999996185,004_o_m_d_a.png,I,z,1435,3,1,2459.0999999046326,909087.7999997139,9078,VNB,B,1
1,test,5,1.0,2-Back,0.0,m,Fri Apr 17 2026 15:31:29 GMT-0400 (Eastern Daylight Time),914580.5999999046,011_m_f_n_a.png,I,None,2015,4,1,3020.7000002861023,911559.8999996185,9078,VNB,B,2
1,test,5,0.0,2-Back,0.0,m,Fri Apr 17 2026 15:31:29 GMT-0400 (Eastern Daylight Time),917480.3999996185,007_m_m_h_a.png,I,z,1871,5,1,2892.8999996185303,914587.5,9078,VNB,B,3
2,test,5,0.0,2-Back,1.0,z,Fri Apr 17 2026 15:31:29 GMT-0400 (Eastern Daylight Time),919613.5999999046,020_y_f_n_a.png,I,z,1115,6,1,2118.5,917495.0999999046,9078,VNB,B,4
3,test,5,0.0,2-Back,1.0,m,Fri Apr 17 2026 15:31:29 GMT-0400 (Eastern Daylight Time),921930.2999997139,005_o_f_d_a.png,I,m,1285,7,1,2308.0,919622.2999997139,9078,VNB,B,5
3,test,5,0.0,2-Back,0.0,m,Fri Apr 17 2026 15:31:29 GMT-0400 (Eastern Daylight Time),924963.8999996185,004_o_m_h_a.png,I,None,2016,8,1,3024.699999809265,921939.1999998093,9078,VNB,B,6
3,test,5,1.0,2-Back,0.0,z,Fri Apr 17 2026 15:31:29 GMT-0400 (Eastern Daylight Time),927997.1999998093,011_m_f_d_a.png,I,None,2016,9,1,3026.5,924970.6999998093,9078,VNB,B,7
4,test,5,0.0,2-Back,1.0,m,Fri Apr 17 2026 15:31:29 GMT-0400 (Eastern Daylight Time),930863.6999998093,016_y_m_n_a.png,I,m,1846,10,1,2852.9000000953674,928010.7999997139,9078,VNB,B,8
4,test,5,0.0,2-Back,0.0,m,Fri Apr 17 2026 15:31:29 GMT-0400 (Eastern Daylight Time),933246.8999996185,007_m_m_n_a.png,I,z,1364,11,1,2374.7999997138977,930872.0999999046,9078,VNB,B,9
4,test,5,0.0,2-Back,0.0,m,Fri Apr 17 2026 15:31:29 GMT-0400 (Eastern Daylight Time),936280.5999999046,020_y_f_h_a.png,I,None,2016,12,1,3020.5,933260.0999999046,9078,VNB,B,10
4,test,5,0.0,2-Back,0.0,m,Fri Apr 17 2026 15:31:29 GMT-0400 (Eastern Daylight Time),939313.7999997139,016_y_m_d_a.png,I,None,2016,13,1,3026.7999997138977,936287.0,9078,VNB,B,11
5,test,5,1.0,2-Back,1.0,z,Fri Apr 17 2026 15:31:29 GMT-0400 (Eastern Daylight Time),941646.8999996185,011_m_f_h_a.png,I,z,1314,14,1,2323.2999997138977,939323.5999999046,9078,VNB,B,12
5,test,5,0.0,2-Back,0.0,m,Fri Apr 17 2026 15:31:29 GMT-0400 (Eastern Daylight Time),944530.3999996185,004_o_m_n_a.png,I,z,1861,15,1,2874.699999809265,941655.6999998093,9078,VNB,B,13
6,test,5,0.0,2-Back,1.0,m,Fri Apr 17 2026 15:31:29 GMT-0400 (Eastern Daylight Time),946997.1999998093,007_m_m_d_a.png,I,m,1441,16,1,2454.0,944543.1999998093,9078,VNB,B,14
6,test,5,0.0,2-Back,0.0,z,Fri Apr 17 2026 15:31:29 GMT-0400 (Eastern Daylight Time),950030.5,005_o_f_n_a.png,I,None,2016,17,1,3026.2000002861023,947004.2999997139,9078,VNB,B,15
7,test,5,1.0,2-Back,1.0,m,Fri Apr 17 2026 15:31:29 GMT-0400 (Eastern Daylight Time),952530.5,016_y_m_h_a.png,I,m,1477,18,1,2488.0,950042.5,9078,VNB,B,16
