acc_sum,block,block_c,change,condition,correct,correct_response,datetime,endtime,face,project,response,response_time,row_sel,session_number,start_end,starttime,subject_id,task,task_vers,trial
0,prac,1,,1-Back,,,Wed Mar 18 2026 14:11:28 GMT-0500 (Central Daylight Time),,005_o_f_d_a.png,O,space,7564,1,1,,,7782,VNB,B,0
1,prac,1,0.0,1-Back,1.0,m,Wed Mar 18 2026 14:11:28 GMT-0500 (Central Daylight Time),357593.2000000477,020_y_f_n_a.png,O,m,1235,2,1,2071.2000000476837,355522.0,7782,VNB,B,1
2,prac,1,0.0,1-Back,1.0,m,Wed Mar 18 2026 14:11:28 GMT-0500 (Central Daylight Time),359360.3000000715,007_m_m_h_a.png,O,m,894,3,1,1759.2000000476837,357601.10000002384,7782,VNB,B,2
3,prac,1,0.0,1-Back,1.0,m,Wed Mar 18 2026 14:11:28 GMT-0500 (Central Daylight Time),361426.7000000477,016_y_m_d_a.png,O,m,1190,4,1,2052.899999976158,359373.8000000715,7782,VNB,B,3
4,prac,1,0.0,1-Back,1.0,m,Wed Mar 18 2026 14:11:28 GMT-0500 (Central Daylight Time),363511.2000000477,005_o_f_n_a.png,O,m,1216,5,1,2075.5,361435.7000000477,7782,VNB,B,4
5,prac,1,1.0,1-Back,1.0,z,Wed Mar 18 2026 14:11:28 GMT-0500 (Central Daylight Time),365574.60000002384,016_y_m_n_a.png,O,z,1190,6,1,2050.7000000476837,363523.89999997616,7782,VNB,B,5
6,prac,1,0.0,1-Back,1.0,m,Wed Mar 18 2026 14:11:28 GMT-0500 (Central Daylight Time),367425.60000002384,004_o_m_h_a.png,O,m,999,7,1,1844.6000000238419,365581.0,7782,VNB,B,6
7,prac,1,0.0,1-Back,1.0,m,Wed Mar 18 2026 14:11:28 GMT-0500 (Central Daylight Time),369490.60000002384,011_m_f_d_a.png,O,m,1202,8,1,2055.7000000476837,367434.89999997616,7782,VNB,B,7
8,prac,1,1.0,1-Back,1.0,z,Wed Mar 18 2026 14:11:28 GMT-0500 (Central Daylight Time),371555.7000000477,020_y_f_d_a.png,O,z,1219,9,1,2058.7000000476837,369497.0,7782,VNB,B,8
9,prac,1,0.0,1-Back,1.0,m,Wed Mar 18 2026 14:11:28 GMT-0500 (Central Daylight Time),373439.2000000477,007_m_m_n_a.png,O,m,996,10,1,1873.3999999761581,371565.8000000715,7782,VNB,B,9
10,prac,1,0.0,1-Back,1.0,m,Wed Mar 18 2026 14:11:28 GMT-0500 (Central Daylight Time),376187.7000000477,005_o_f_h_a.png,O,m,1891,11,1,2742.600000023842,373445.10000002384,7782,VNB,B,10
11,prac,1,0.0,1-Back,1.0,m,Wed Mar 18 2026 14:11:28 GMT-0500 (Central Daylight Time),378155.0,016_y_m_d_a.png,O,m,1101,12,1,1949.8999999761581,376205.10000002384,7782,VNB,B,11
0,test,1,0.0,1-Back,,,Wed Mar 18 2026 14:11:28 GMT-0500 (Central Daylight Time),378155.0,020_y_f_d_a.png,O,space,8057,1,1,1949.8999999761581,376205.10000002384,7782,VNB,B,0
1,test,1,0.0,1-Back,1.0,m,Wed Mar 18 2026 14:11:28 GMT-0500 (Central Daylight Time),405627.60000002384,011_m_f_n_a.png,O,m,1044,2,1,2055.5,403572.10000002384,7782,VNB,B,1
2,test,1,0.0,1-Back,1.0,m,Wed Mar 18 2026 14:11:28 GMT-0500 (Central Daylight Time),407526.89999997616,004_o_m_h_a.png,O,m,866,3,1,1897.5,405629.39999997616,7782,VNB,B,2
3,test,1,1.0,1-Back,1.0,z,Wed Mar 18 2026 14:11:28 GMT-0500 (Central Daylight Time),409710.60000002384,007_m_m_h_a.png,O,z,1152,4,1,2177.100000023842,407533.5,7782,VNB,B,3
4,test,1,0.0,1-Back,1.0,m,Wed Mar 18 2026 14:11:28 GMT-0500 (Central Daylight Time),411394.10000002384,005_o_f_n_a.png,O,m,649,5,1,1680.5,409713.60000002384,7782,VNB,B,4
4,test,1,0.0,1-Back,0.0,m,Wed Mar 18 2026 14:11:28 GMT-0500 (Central Daylight Time),413360.0,016_y_m_d_a.png,O,z,935,6,1,1957.7999999523163,411402.2000000477,7782,VNB,B,5
4,test,1,1.0,1-Back,0.0,z,Wed Mar 18 2026 14:11:28 GMT-0500 (Central Daylight Time),416392.8000000715,011_m_f_d_a.png,O,None,2015,7,1,3029.2000000476837,413363.60000002384,7782,VNB,B,6
5,test,1,0.0,1-Back,1.0,m,Wed Mar 18 2026 14:11:28 GMT-0500 (Central Daylight Time),418357.39999997616,020_y_f_h_a.png,O,m,944,8,1,1957.3999999761581,416400.0,7782,VNB,B,7
6,test,1,0.0,1-Back,1.0,m,Wed Mar 18 2026 14:11:28 GMT-0500 (Central Daylight Time),420906.60000002384,004_o_m_n_a.png,O,m,1531,9,1,2546.600000023842,418360.0,7782,VNB,B,8
7,test,1,0.0,1-Back,1.0,m,Wed Mar 18 2026 14:11:28 GMT-0500 (Central Daylight Time),422674.5,016_y_m_h_a.png,O,m,750,10,1,1759.5,420915.0,7782,VNB,B,9
8,test,1,0.0,1-Back,1.0,m,Wed Mar 18 2026 14:11:28 GMT-0500 (Central Daylight Time),424588.10000002384,004_o_m_d_a.png,O,m,895,11,1,1909.1000000238419,422679.0,7782,VNB,B,10
9,test,1,1.0,1-Back,1.0,z,Wed Mar 18 2026 14:11:28 GMT-0500 (Central Daylight Time),426504.8000000715,005_o_f_d_a.png,O,z,893,12,1,1909.4000000953674,424595.39999997616,7782,VNB,B,11
10,test,1,0.0,1-Back,1.0,m,Wed Mar 18 2026 14:11:28 GMT-0500 (Central Daylight Time),428604.10000002384,007_m_m_n_a.png,O,m,1069,13,1,2096.5,426507.60000002384,7782,VNB,B,12
11,test,1,1.0,1-Back,1.0,z,Wed Mar 18 2026 14:11:28 GMT-0500 (Central Daylight Time),430688.10000002384,020_y_f_n_a.png,O,z,1051,14,1,2075.7999999523163,428612.3000000715,7782,VNB,B,13
12,test,1,0.0,1-Back,1.0,m,Wed Mar 18 2026 14:11:28 GMT-0500 (Central Daylight Time),433085.8000000715,011_m_f_h_a.png,O,m,1378,15,1,2393.9000000953674,430691.89999997616,7782,VNB,B,14
13,test,1,0.0,1-Back,1.0,m,Wed Mar 18 2026 14:11:28 GMT-0500 (Central Daylight Time),435051.60000002384,007_m_m_d_a.png,O,m,945,16,1,1956.8999999761581,433094.7000000477,7782,VNB,B,15
14,test,1,0.0,1-Back,1.0,m,Wed Mar 18 2026 14:11:28 GMT-0500 (Central Daylight Time),437234.5,016_y_m_n_a.png,O,m,1154,17,1,2179.100000023842,435055.39999997616,7782,VNB,B,16
15,test,1,0.0,1-Back,1.0,m,Wed Mar 18 2026 14:11:28 GMT-0500 (Central Daylight Time),439085.3000000715,005_o_f_h_a.png,O,m,817,18,1,1845.7000000476837,437239.60000002384,7782,VNB,B,17
0,test,2,0.0,1-Back,,,Wed Mar 18 2026 14:11:28 GMT-0500 (Central Daylight Time),439085.3000000715,016_y_m_n_a.png,O,space,1804,1,1,1845.7000000476837,437239.60000002384,7782,VNB,B,0
1,test,2,0.0,1-Back,1.0,m,Wed Mar 18 2026 14:11:28 GMT-0500 (Central Daylight Time),444799.2000000477,020_y_f_h_a.png,O,m,850,2,1,1874.1000000238419,442925.10000002384,7782,VNB,B,1
2,test,2,1.0,1-Back,1.0,m,Wed Mar 18 2026 14:11:28 GMT-0500 (Central Daylight Time),446748.7000000477,004_o_m_n_a.png,O,m,919,3,1,1945.8000000715256,444802.89999997616,7782,VNB,B,2
3,test,2,0.0,1-Back,1.0,m,Wed Mar 18 2026 14:11:28 GMT-0500 (Central Daylight Time),448647.8000000715,011_m_f_d_a.png,O,m,874,4,1,1891.8000000715256,446756.0,7782,VNB,B,3
3,test,2,0.0,1-Back,0.0,z,Wed Mar 18 2026 14:11:28 GMT-0500 (Central Daylight Time),451561.39999997616,007_m_m_d_a.png,O,m,1894,5,1,2910.899999976158,448650.5,7782,VNB,B,4
4,test,2,0.0,1-Back,1.0,m,Wed Mar 18 2026 14:11:28 GMT-0500 (Central Daylight Time),453730.60000002384,016_y_m_h_a.png,O,m,1149,6,1,2166.2999999523163,451564.3000000715,7782,VNB,B,5
5,test,2,1.0,1-Back,1.0,z,Wed Mar 18 2026 14:11:28 GMT-0500 (Central Daylight Time),455962.2000000477,005_o_f_h_a.png,O,z,1199,7,1,2227.7000000476837,453734.5,7782,VNB,B,6
6,test,2,0.0,1-Back,1.0,m,Wed Mar 18 2026 14:11:28 GMT-0500 (Central Daylight Time),458060.0,011_m_f_n_a.png,O,m,1069,8,1,2089.399999976158,455970.60000002384,7782,VNB,B,7
7,test,2,0.0,1-Back,1.0,m,Wed Mar 18 2026 14:11:28 GMT-0500 (Central Daylight Time),460610.5,020_y_f_d_a.png,O,m,1523,9,1,2548.6999999284744,458061.8000000715,7782,VNB,B,8
7,test,2,0.0,1-Back,0.0,m,Wed Mar 18 2026 14:11:28 GMT-0500 (Central Daylight Time),462844.10000002384,007_m_m_n_a.png,O,z,1214,10,1,2227.0,460617.10000002384,7782,VNB,B,9
8,test,2,1.0,1-Back,1.0,m,Wed Mar 18 2026 14:11:28 GMT-0500 (Central Daylight Time),465095.10000002384,011_m_f_h_a.png,O,m,1219,11,1,2247.2000000476837,462847.89999997616,7782,VNB,B,10
9,test,2,0.0,1-Back,1.0,z,Wed Mar 18 2026 14:11:28 GMT-0500 (Central Daylight Time),467140.7000000477,004_o_m_h_a.png,O,z,1026,12,1,2042.3000000715256,465098.39999997616,7782,VNB,B,11
10,test,2,0.0,1-Back,1.0,m,Wed Mar 18 2026 14:11:28 GMT-0500 (Central Daylight Time),469242.2000000477,016_y_m_d_a.png,O,m,1096,13,1,2099.100000023842,467143.10000002384,7782,VNB,B,12
11,test,2,0.0,1-Back,1.0,m,Wed Mar 18 2026 14:11:28 GMT-0500 (Central Daylight Time),471356.60000002384,005_o_f_n_a.png,O,m,1085,14,1,2106.2999999523163,469250.3000000715,7782,VNB,B,13
12,test,2,0.0,1-Back,1.0,z,Wed Mar 18 2026 14:11:28 GMT-0500 (Central Daylight Time),473473.0,020_y_f_n_a.png,O,z,1097,15,1,2112.1999999284744,471360.8000000715,7782,VNB,B,14
13,test,2,1.0,1-Back,1.0,m,Wed Mar 18 2026 14:11:28 GMT-0500 (Central Daylight Time),475156.60000002384,007_m_m_h_a.png,O,m,664,16,1,1680.7000000476837,473475.89999997616,7782,VNB,B,15
14,test,2,0.0,1-Back,1.0,m,Wed Mar 18 2026 14:11:28 GMT-0500 (Central Daylight Time),477306.89999997616,005_o_f_d_a.png,O,m,1134,17,1,2145.899999976158,475161.0,7782,VNB,B,16
15,test,2,1.0,1-Back,1.0,z,Wed Mar 18 2026 14:11:28 GMT-0500 (Central Daylight Time),479371.2000000477,004_o_m_d_a.png,O,z,1032,18,1,2061.8000000715256,477309.39999997616,7782,VNB,B,17
0,test,3,1.0,1-Back,,,Wed Mar 18 2026 14:11:28 GMT-0500 (Central Daylight Time),479371.2000000477,005_o_f_h_a.png,O,space,1757,1,1,2061.8000000715256,477309.39999997616,7782,VNB,B,0
1,test,3,0.0,1-Back,1.0,m,Wed Mar 18 2026 14:11:28 GMT-0500 (Central Daylight Time),485368.2000000477,011_m_f_d_a.png,O,m,1107,2,1,2131.7000000476837,483236.5,7782,VNB,B,1
2,test,3,1.0,1-Back,1.0,m,Wed Mar 18 2026 14:11:28 GMT-0500 (Central Daylight Time),487634.8000000715,007_m_m_n_a.png,O,m,1241,3,1,2262.600000023842,485372.2000000477,7782,VNB,B,2
3,test,3,0.0,1-Back,1.0,z,Wed Mar 18 2026 14:11:28 GMT-0500 (Central Daylight Time),489685.5,005_o_f_n_a.png,O,z,1020,4,1,2047.6999999284744,487637.8000000715,7782,VNB,B,3
4,test,3,1.0,1-Back,1.0,m,Wed Mar 18 2026 14:11:28 GMT-0500 (Central Daylight Time),491385.0,004_o_m_d_a.png,O,m,678,5,1,1692.8999999761581,489692.10000002384,7782,VNB,B,4
5,test,3,0.0,1-Back,1.0,m,Wed Mar 18 2026 14:11:28 GMT-0500 (Central Daylight Time),493382.3000000715,020_y_f_h_a.png,O,m,966,6,1,1994.3000000715256,491388.0,7782,VNB,B,5
5,test,3,0.0,1-Back,0.0,z,Wed Mar 18 2026 14:11:28 GMT-0500 (Central Daylight Time),494982.7000000477,016_y_m_h_a.png,O,m,567,7,1,1597.7000000476837,493385.0,7782,VNB,B,6
6,test,3,0.0,1-Back,1.0,m,Wed Mar 18 2026 14:11:28 GMT-0500 (Central Daylight Time),497799.2000000477,011_m_f_n_a.png,O,m,1783,8,1,2811.7000000476837,494987.5,7782,VNB,B,7
6,test,3,0.0,1-Back,0.0,m,Wed Mar 18 2026 14:11:28 GMT-0500 (Central Daylight Time),499664.89999997616,020_y_f_d_a.png,O,z,840,9,1,1857.7999999523163,497807.10000002384,7782,VNB,B,8
7,test,3,1.0,1-Back,1.0,m,Wed Mar 18 2026 14:11:28 GMT-0500 (Central Daylight Time),502197.89999997616,004_o_m_n_a.png,O,m,1503,10,1,2531.0999999046326,499666.8000000715,7782,VNB,B,9
8,test,3,0.0,1-Back,1.0,m,Wed Mar 18 2026 14:11:28 GMT-0500 (Central Daylight Time),504011.8000000715,007_m_m_h_a.png,O,m,795,11,1,1807.5,502204.3000000715,7782,VNB,B,10
9,test,3,0.0,1-Back,1.0,z,Wed Mar 18 2026 14:11:28 GMT-0500 (Central Daylight Time),506348.7000000477,011_m_f_h_a.png,O,z,1314,12,1,2335.100000023842,504013.60000002384,7782,VNB,B,11
10,test,3,1.0,1-Back,1.0,m,Wed Mar 18 2026 14:11:28 GMT-0500 (Central Daylight Time),508529.89999997616,005_o_f_d_a.png,O,m,1158,13,1,2176.399999976158,506353.5,7782,VNB,B,12
11,test,3,0.0,1-Back,1.0,z,Wed Mar 18 2026 14:11:28 GMT-0500 (Central Daylight Time),510677.89999997616,007_m_m_d_a.png,O,z,1118,14,1,2145.2999999523163,508532.60000002384,7782,VNB,B,13
12,test,3,0.0,1-Back,1.0,m,Wed Mar 18 2026 14:11:28 GMT-0500 (Central Daylight Time),512393.10000002384,016_y_m_n_a.png,O,m,698,15,1,1708.5,510684.60000002384,7782,VNB,B,14
13,test,3,1.0,1-Back,1.0,m,Wed Mar 18 2026 14:11:28 GMT-0500 (Central Daylight Time),514325.3000000715,004_o_m_h_a.png,O,m,908,16,1,1929.8000000715256,512395.5,7782,VNB,B,15
14,test,3,0.0,1-Back,1.0,m,Wed Mar 18 2026 14:11:28 GMT-0500 (Central Daylight Time),516210.2000000477,016_y_m_d_a.png,O,m,865,17,1,1881.2000000476837,514329.0,7782,VNB,B,16
15,test,3,1.0,1-Back,1.0,m,Wed Mar 18 2026 14:11:28 GMT-0500 (Central Daylight Time),518110.39999997616,020_y_f_n_a.png,O,m,878,18,1,1897.2999999523163,516213.10000002384,7782,VNB,B,17
0,test,4,1.0,1-Back,,,Wed Mar 18 2026 14:11:28 GMT-0500 (Central Daylight Time),518110.39999997616,007_m_m_d_a.png,O,space,1689,1,1,1897.2999999523163,516213.10000002384,7782,VNB,B,0
1,test,4,0.0,1-Back,1.0,z,Wed Mar 18 2026 14:11:28 GMT-0500 (Central Daylight Time),524406.8999999762,004_o_m_d_a.png,O,z,1560,2,1,2575.5,521831.39999997616,7782,VNB,B,1
2,test,4,0.0,1-Back,1.0,m,Wed Mar 18 2026 14:11:28 GMT-0500 (Central Daylight Time),526173.1000000238,016_y_m_h_a.png,O,m,744,3,1,1762.8999999761581,524410.2000000477,7782,VNB,B,2
3,test,4,0.0,1-Back,1.0,m,Wed Mar 18 2026 14:11:28 GMT-0500 (Central Daylight Time),528355.1000000238,011_m_f_n_a.png,O,m,1153,4,1,2177.2999999523163,526177.8000000715,7782,VNB,B,3
4,test,4,1.0,1-Back,1.0,m,Wed Mar 18 2026 14:11:28 GMT-0500 (Central Daylight Time),530370.7000000477,005_o_f_h_a.png,O,m,987,5,1,2013.8000000715256,528356.8999999762,7782,VNB,B,4
5,test,4,0.0,1-Back,1.0,m,Wed Mar 18 2026 14:11:28 GMT-0500 (Central Daylight Time),532274.6000000238,007_m_m_n_a.png,O,m,875,6,1,1898.1000000238419,530376.5,7782,VNB,B,5
6,test,4,0.0,1-Back,1.0,m,Wed Mar 18 2026 14:11:28 GMT-0500 (Central Daylight Time),534237.5,016_y_m_d_a.png,O,m,943,7,1,1960.0,532277.5,7782,VNB,B,6
7,test,4,1.0,1-Back,1.0,z,Wed Mar 18 2026 14:11:28 GMT-0500 (Central Daylight Time),535971.8000000715,020_y_f_d_a.png,O,z,715,8,1,1727.9000000953674,534243.8999999762,7782,VNB,B,7
8,test,4,0.0,1-Back,1.0,m,Wed Mar 18 2026 14:11:28 GMT-0500 (Central Daylight Time),537936.1000000238,011_m_f_h_a.png,O,m,932,9,1,1961.7999999523163,535974.3000000715,7782,VNB,B,8
9,test,4,0.0,1-Back,1.0,z,Wed Mar 18 2026 14:11:28 GMT-0500 (Central Daylight Time),540034.7000000477,004_o_m_h_a.png,O,z,1079,10,1,2093.100000023842,537941.6000000238,7782,VNB,B,9
10,test,4,1.0,1-Back,1.0,m,Wed Mar 18 2026 14:11:28 GMT-0500 (Central Daylight Time),542085.2000000477,005_o_f_n_a.png,O,m,1020,11,1,2048.5,540036.7000000477,7782,VNB,B,10
11,test,4,0.0,1-Back,1.0,m,Wed Mar 18 2026 14:11:28 GMT-0500 (Central Daylight Time),544316.6000000238,011_m_f_d_a.png,O,m,1211,12,1,2223.899999976158,542092.7000000477,7782,VNB,B,11
11,test,4,0.0,1-Back,0.0,m,Wed Mar 18 2026 14:11:28 GMT-0500 (Central Daylight Time),546983.3000000715,020_y_f_n_a.png,O,z,1633,13,1,2664.4000000953674,544318.8999999762,7782,VNB,B,12
12,test,4,0.0,1-Back,1.0,m,Wed Mar 18 2026 14:11:28 GMT-0500 (Central Daylight Time),549548.5,005_o_f_d_a.png,O,m,1543,14,1,2558.100000023842,546990.3999999762,7782,VNB,B,13
13,test,4,0.0,1-Back,1.0,m,Wed Mar 18 2026 14:11:28 GMT-0500 (Central Daylight Time),551449.8000000715,020_y_f_h_a.png,O,m,867,15,1,1898.7000000476837,549551.1000000238,7782,VNB,B,14
14,test,4,1.0,1-Back,1.0,z,Wed Mar 18 2026 14:11:28 GMT-0500 (Central Daylight Time),553116.1000000238,007_m_m_h_a.png,O,z,650,16,1,1657.7999999523163,551458.3000000715,7782,VNB,B,15
15,test,4,0.0,1-Back,1.0,m,Wed Mar 18 2026 14:11:28 GMT-0500 (Central Daylight Time),555048.8000000715,004_o_m_n_a.png,O,m,917,17,1,1929.8000000715256,553119.0,7782,VNB,B,16
16,test,4,1.0,1-Back,1.0,z,Wed Mar 18 2026 14:11:28 GMT-0500 (Central Daylight Time),557314.3999999762,016_y_m_n_a.png,O,z,1250,18,1,2256.5,555057.8999999762,7782,VNB,B,17
0,test,5,1.0,1-Back,,,Wed Mar 18 2026 14:11:28 GMT-0500 (Central Daylight Time),557314.3999999762,004_o_m_n_a.png,O,space,1901,1,1,2256.5,555057.8999999762,7782,VNB,B,0
1,test,5,1.0,1-Back,1.0,m,Wed Mar 18 2026 14:11:28 GMT-0500 (Central Daylight Time),563111.6000000238,005_o_f_h_a.png,O,m,862,2,1,1875.7000000476837,561235.8999999762,7782,VNB,B,1
2,test,5,0.0,1-Back,1.0,m,Wed Mar 18 2026 14:11:28 GMT-0500 (Central Daylight Time),565210.1000000238,016_y_m_d_a.png,O,m,1077,3,1,2095.600000023842,563114.5,7782,VNB,B,2
3,test,5,0.0,1-Back,1.0,z,Wed Mar 18 2026 14:11:28 GMT-0500 (Central Daylight Time),567227.2000000477,004_o_m_d_a.png,O,z,988,4,1,2013.2000000476837,565214.0,7782,VNB,B,3
4,test,5,0.0,1-Back,1.0,m,Wed Mar 18 2026 14:11:28 GMT-0500 (Central Daylight Time),569459.6000000238,011_m_f_h_a.png,O,m,1216,5,1,2230.2000000476837,567229.3999999762,7782,VNB,B,4
5,test,5,0.0,1-Back,1.0,m,Wed Mar 18 2026 14:11:28 GMT-0500 (Central Daylight Time),571507.8999999762,020_y_f_n_a.png,O,m,1029,6,1,2042.5,569465.3999999762,7782,VNB,B,5
6,test,5,1.0,1-Back,1.0,z,Wed Mar 18 2026 14:11:28 GMT-0500 (Central Daylight Time),573659.3000000715,005_o_f_n_a.png,O,z,1134,7,1,2149.2000000476837,571510.1000000238,7782,VNB,B,6
6,test,5,0.0,1-Back,0.0,m,Wed Mar 18 2026 14:11:28 GMT-0500 (Central Daylight Time),576506.7000000477,011_m_f_d_a.png,O,z,1823,8,1,2839.5,573667.2000000477,7782,VNB,B,7
7,test,5,0.0,1-Back,1.0,m,Wed Mar 18 2026 14:11:28 GMT-0500 (Central Daylight Time),578456.5,016_y_m_h_a.png,O,m,917,9,1,1946.5,576510.0,7782,VNB,B,8
8,test,5,0.0,1-Back,1.0,m,Wed Mar 18 2026 14:11:28 GMT-0500 (Central Daylight Time),580606.8000000715,020_y_f_d_a.png,O,m,1120,10,1,2143.4000000953674,578463.3999999762,7782,VNB,B,9
9,test,5,0.0,1-Back,1.0,m,Wed Mar 18 2026 14:11:28 GMT-0500 (Central Daylight Time),582656.1000000238,007_m_m_n_a.png,O,m,1026,11,1,2043.2999999523163,580612.8000000715,7782,VNB,B,10
10,test,5,1.0,1-Back,1.0,z,Wed Mar 18 2026 14:11:28 GMT-0500 (Central Daylight Time),584903.8999999762,011_m_f_n_a.png,O,z,1222,12,1,2239.5,582664.3999999762,7782,VNB,B,11
11,test,5,0.0,1-Back,1.0,m,Wed Mar 18 2026 14:11:28 GMT-0500 (Central Daylight Time),586870.3000000715,004_o_m_h_a.png,O,m,944,13,1,1959.6000000238419,584910.7000000477,7782,VNB,B,12
12,test,5,0.0,1-Back,1.0,z,Wed Mar 18 2026 14:11:28 GMT-0500 (Central Daylight Time),588952.6000000238,007_m_m_h_a.png,O,z,1058,14,1,2074.899999976158,586877.7000000477,7782,VNB,B,13
13,test,5,1.0,1-Back,1.0,m,Wed Mar 18 2026 14:11:28 GMT-0500 (Central Daylight Time),591119.7000000477,005_o_f_d_a.png,O,m,1134,15,1,2163.100000023842,588956.6000000238,7782,VNB,B,14
14,test,5,0.0,1-Back,1.0,m,Wed Mar 18 2026 14:11:28 GMT-0500 (Central Daylight Time),593903.6000000238,016_y_m_n_a.png,O,m,1762,16,1,2777.2000000476837,591126.3999999762,7782,VNB,B,15
15,test,5,0.0,1-Back,1.0,m,Wed Mar 18 2026 14:11:28 GMT-0500 (Central Daylight Time),595917.8999999762,020_y_f_h_a.png,O,m,987,17,1,2010.5,593907.3999999762,7782,VNB,B,16
16,test,5,0.0,1-Back,1.0,m,Wed Mar 18 2026 14:11:28 GMT-0500 (Central Daylight Time),598200.3999999762,007_m_m_d_a.png,O,m,1259,18,1,2274.899999976158,595925.5,7782,VNB,B,17
0,prac,1,0.0,2-Back,,,Wed Mar 18 2026 14:11:28 GMT-0500 (Central Daylight Time),598200.3999999762,011_m_f_n_a.png,O,space,4148,1,1,2274.899999976158,595925.5,7782,VNB,B,0
0,prac,1,0.0,2-Back,,,Wed Mar 18 2026 14:11:28 GMT-0500 (Central Daylight Time),598200.3999999762,005_o_f_h_a.png,O,space,4148,2,1,2274.899999976158,595925.5,7782,VNB,B,0
1,prac,1,0.0,2-Back,1.0,m,Wed Mar 18 2026 14:11:28 GMT-0500 (Central Daylight Time),746655.3999999762,004_o_m_d_a.png,O,m,1320,3,1,2160.6999999284744,744494.7000000477,7782,VNB,B,1
1,prac,1,1.0,2-Back,0.0,z,Wed Mar 18 2026 14:11:28 GMT-0500 (Central Daylight Time),749536.7000000477,007_m_m_h_a.png,O,None,2002,4,1,2857.2000000476837,746679.5,7782,VNB,B,2
1,prac,1,0.0,2-Back,0.0,m,Wed Mar 18 2026 14:11:28 GMT-0500 (Central Daylight Time),752384.7000000477,020_y_f_n_a.png,O,None,2007,5,1,2842.8000000715256,749541.8999999762,7782,VNB,B,3
2,prac,1,1.0,2-Back,1.0,z,Wed Mar 18 2026 14:11:28 GMT-0500 (Central Daylight Time),754967.8999999762,004_o_m_h_a.png,O,z,1798,6,1,2572.5,752395.3999999762,7782,VNB,B,4
3,prac,1,1.0,2-Back,1.0,z,Wed Mar 18 2026 14:11:28 GMT-0500 (Central Daylight Time),757617.6000000238,016_y_m_n_a.png,O,z,1795,7,1,2644.899999976158,754972.7000000477,7782,VNB,B,5
3,prac,1,0.0,2-Back,0.0,m,Wed Mar 18 2026 14:11:28 GMT-0500 (Central Daylight Time),760465.8000000715,011_m_f_d_a.png,O,None,2011,8,1,2841.2000000476837,757624.6000000238,7782,VNB,B,6
4,prac,1,0.0,2-Back,1.0,m,Wed Mar 18 2026 14:11:28 GMT-0500 (Central Daylight Time),763199.1000000238,005_o_f_d_a.png,O,m,1871,9,1,2728.600000023842,760470.5,7782,VNB,B,7
5,prac,1,0.0,2-Back,1.0,m,Wed Mar 18 2026 14:11:28 GMT-0500 (Central Daylight Time),765515.0,007_m_m_h_a.png,O,m,1545,10,1,2307.100000023842,763207.8999999762,7782,VNB,B,8
6,prac,1,1.0,2-Back,1.0,z,Wed Mar 18 2026 14:11:28 GMT-0500 (Central Daylight Time),767846.8000000715,020_y_f_d_a.png,O,z,1478,11,1,2327.100000023842,765519.7000000477,7782,VNB,B,9
7,prac,1,0.0,2-Back,1.0,m,Wed Mar 18 2026 14:11:28 GMT-0500 (Central Daylight Time),770013.3000000715,004_o_m_n_a.png,O,m,1310,12,1,2157.5,767855.8000000715,7782,VNB,B,10
0,test,1,0.0,2-Back,,,Wed Mar 18 2026 14:11:28 GMT-0500 (Central Daylight Time),770013.3000000715,016_y_m_h_a.png,O,space,175474,1,1,2157.5,767855.8000000715,7782,VNB,B,0
0,test,1,0.0,2-Back,,,Wed Mar 18 2026 14:11:28 GMT-0500 (Central Daylight Time),770013.3000000715,005_o_f_n_a.png,O,space,175474,2,1,2157.5,767855.8000000715,7782,VNB,B,0
1,test,1,0.0,2-Back,1.0,z,Wed Mar 18 2026 14:11:28 GMT-0500 (Central Daylight Time),969247.8000000715,004_o_m_h_a.png,O,z,1181,3,1,2193.600000023842,967054.2000000477,7782,VNB,B,1
1,test,1,0.0,2-Back,0.0,m,Wed Mar 18 2026 14:11:28 GMT-0500 (Central Daylight Time),972280.8000000715,011_m_f_d_a.png,O,None,2015,4,1,3026.9000000953674,969253.8999999762,7782,VNB,B,2
1,test,1,1.0,2-Back,0.0,m,Wed Mar 18 2026 14:11:28 GMT-0500 (Central Daylight Time),975314.8999999762,016_y_m_n_a.png,O,None,2018,5,1,3030.0,972284.8999999762,7782,VNB,B,3
1,test,1,0.0,2-Back,0.0,z,Wed Mar 18 2026 14:11:28 GMT-0500 (Central Daylight Time),978348.3000000715,020_y_f_d_a.png,O,None,2018,6,1,3025.4000000953674,975322.8999999762,7782,VNB,B,4
1,test,1,0.0,2-Back,0.0,m,Wed Mar 18 2026 14:11:28 GMT-0500 (Central Daylight Time),981345.8999999762,007_m_m_h_a.png,O,z,1973,7,1,2994.0999999046326,978351.8000000715,7782,VNB,B,5
2,test,1,1.0,2-Back,1.0,m,Wed Mar 18 2026 14:11:28 GMT-0500 (Central Daylight Time),984244.8000000715,020_y_f_n_a.png,O,m,1882,8,1,2893.8000000715256,981351.0,7782,VNB,B,6
2,test,1,0.0,2-Back,0.0,z,Wed Mar 18 2026 14:11:28 GMT-0500 (Central Daylight Time),987060.3000000715,005_o_f_h_a.png,O,m,1795,9,1,2812.5,984247.8000000715,7782,VNB,B,7
3,test,1,0.0,2-Back,1.0,m,Wed Mar 18 2026 14:11:28 GMT-0500 (Central Daylight Time),990041.7000000477,004_o_m_d_a.png,O,m,1956,10,1,2973.100000023842,987068.6000000238,7782,VNB,B,8
3,test,1,1.0,2-Back,0.0,m,Wed Mar 18 2026 14:11:28 GMT-0500 (Central Daylight Time),993075.1000000238,007_m_m_d_a.png,O,None,2017,11,1,3030.5,990044.6000000238,7782,VNB,B,9
4,test,1,0.0,2-Back,1.0,m,Wed Mar 18 2026 14:11:28 GMT-0500 (Central Daylight Time),995555.3999999762,011_m_f_n_a.png,O,m,1460,12,1,2474.1999999284744,993081.2000000477,7782,VNB,B,10
5,test,1,0.0,2-Back,1.0,m,Wed Mar 18 2026 14:11:28 GMT-0500 (Central Daylight Time),998223.0,020_y_f_h_a.png,O,m,1659,13,1,2665.7999999523163,995557.2000000477,7782,VNB,B,11
6,test,1,0.0,2-Back,1.0,z,Wed Mar 18 2026 14:11:28 GMT-0500 (Central Daylight Time),1001189.0,007_m_m_n_a.png,O,z,1948,14,1,2959.6999999284744,998229.3000000715,7782,VNB,B,12
6,test,1,0.0,2-Back,0.0,m,Wed Mar 18 2026 14:11:28 GMT-0500 (Central Daylight Time),1004221.1000000238,016_y_m_d_a.png,O,None,2014,15,1,3029.0,1001192.1000000238,7782,VNB,B,13
7,test,1,1.0,2-Back,1.0,m,Wed Mar 18 2026 14:11:28 GMT-0500 (Central Daylight Time),1007119.8999999762,011_m_f_h_a.png,O,m,1874,16,1,2891.5999999046326,1004228.3000000715,7782,VNB,B,14
8,test,1,0.0,2-Back,1.0,z,Wed Mar 18 2026 14:11:28 GMT-0500 (Central Daylight Time),1009787.3999999762,005_o_f_d_a.png,O,z,1640,17,1,2665.1999999284744,1007122.2000000477,7782,VNB,B,15
9,test,1,0.0,2-Back,1.0,m,Wed Mar 18 2026 14:11:28 GMT-0500 (Central Daylight Time),1012336.0,004_o_m_n_a.png,O,m,1517,18,1,2542.1999999284744,1009793.8000000715,7782,VNB,B,16
0,test,2,0.0,2-Back,,,Wed Mar 18 2026 14:11:28 GMT-0500 (Central Daylight Time),1012336.0,007_m_m_h_a.png,O,space,12401,1,1,2542.1999999284744,1009793.8000000715,7782,VNB,B,0
0,test,2,0.0,2-Back,,,Wed Mar 18 2026 14:11:28 GMT-0500 (Central Daylight Time),1012336.0,020_y_f_n_a.png,O,space,12401,2,1,2542.1999999284744,1009793.8000000715,7782,VNB,B,0
1,test,2,1.0,2-Back,1.0,z,Wed Mar 18 2026 14:11:28 GMT-0500 (Central Daylight Time),1032114.3999999762,005_o_f_h_a.png,O,z,1144,3,1,2164.1999999284744,1029950.2000000477,7782,VNB,B,1
2,test,2,0.0,2-Back,1.0,m,Wed Mar 18 2026 14:11:28 GMT-0500 (Central Daylight Time),1034362.7000000477,004_o_m_d_a.png,O,m,1223,4,1,2241.899999976158,1032120.8000000715,7782,VNB,B,2
2,test,2,0.0,2-Back,0.0,m,Wed Mar 18 2026 14:11:28 GMT-0500 (Central Daylight Time),1037195.1000000238,011_m_f_d_a.png,O,z,1816,5,1,2829.0,1034366.1000000238,7782,VNB,B,3
2,test,2,0.0,2-Back,0.0,m,Wed Mar 18 2026 14:11:28 GMT-0500 (Central Daylight Time),1040227.1000000238,016_y_m_h_a.png,O,None,2016,6,1,3025.399999976158,1037201.7000000477,7782,VNB,B,4
2,test,2,0.0,2-Back,0.0,m,Wed Mar 18 2026 14:11:28 GMT-0500 (Central Daylight Time),1043141.0,005_o_f_n_a.png,O,z,1893,7,1,2910.5,1040230.5,7782,VNB,B,5
2,test,2,1.0,2-Back,0.0,z,Wed Mar 18 2026 14:11:28 GMT-0500 (Central Daylight Time),1046173.3999999762,004_o_m_h_a.png,O,None,2014,8,1,3026.5999999046326,1043146.8000000715,7782,VNB,B,6
3,test,2,0.0,2-Back,1.0,m,Wed Mar 18 2026 14:11:28 GMT-0500 (Central Daylight Time),1048573.6000000238,020_y_f_d_a.png,O,m,1378,9,1,2397.899999976158,1046175.7000000477,7782,VNB,B,7
4,test,2,0.0,2-Back,1.0,m,Wed Mar 18 2026 14:11:28 GMT-0500 (Central Daylight Time),1051190.3000000715,016_y_m_d_a.png,O,m,1594,10,1,2611.9000000953674,1048578.3999999762,7782,VNB,B,8
5,test,2,0.0,2-Back,1.0,m,Wed Mar 18 2026 14:11:28 GMT-0500 (Central Daylight Time),1054206.1000000238,007_m_m_n_a.png,O,m,1994,11,1,3013.5,1051192.6000000238,7782,VNB,B,9
6,test,2,0.0,2-Back,1.0,m,Wed Mar 18 2026 14:11:28 GMT-0500 (Central Daylight Time),1056871.0,011_m_f_h_a.png,O,m,1644,12,1,2658.600000023842,1054212.3999999762,7782,VNB,B,10
6,test,2,1.0,2-Back,0.0,z,Wed Mar 18 2026 14:11:28 GMT-0500 (Central Daylight Time),1059519.8000000715,004_o_m_n_a.png,O,m,1625,13,1,2645.5,1056874.3000000715,7782,VNB,B,11
7,test,2,0.0,2-Back,1.0,m,Wed Mar 18 2026 14:11:28 GMT-0500 (Central Daylight Time),1062438.0,005_o_f_d_a.png,O,m,1898,14,1,2909.0,1059529.0,7782,VNB,B,12
7,test,2,0.0,2-Back,0.0,m,Wed Mar 18 2026 14:11:28 GMT-0500 (Central Daylight Time),1065468.5,020_y_f_h_a.png,O,None,2016,15,1,3027.399999976158,1062441.1000000238,7782,VNB,B,13
8,test,2,0.0,2-Back,1.0,z,Wed Mar 18 2026 14:11:28 GMT-0500 (Central Daylight Time),1068201.7000000477,007_m_m_d_a.png,O,z,1703,16,1,2725.5,1065476.2000000477,7782,VNB,B,14
8,test,2,0.0,2-Back,0.0,m,Wed Mar 18 2026 14:11:28 GMT-0500 (Central Daylight Time),1071232.7000000477,016_y_m_n_a.png,O,None,2016,17,1,3025.399999976158,1068207.3000000715,7782,VNB,B,15
8,test,2,1.0,2-Back,0.0,m,Wed Mar 18 2026 14:11:28 GMT-0500 (Central Daylight Time),1074265.2000000477,011_m_f_n_a.png,O,None,2016,18,1,3026.2000000476837,1071239.0,7782,VNB,B,16
0,test,3,1.0,2-Back,,,Wed Mar 18 2026 14:11:28 GMT-0500 (Central Daylight Time),1074265.2000000477,004_o_m_n_a.png,O,space,8845,1,1,3026.2000000476837,1071239.0,7782,VNB,B,0
0,test,3,1.0,2-Back,,,Wed Mar 18 2026 14:11:28 GMT-0500 (Central Daylight Time),1074265.2000000477,005_o_f_d_a.png,O,space,8845,2,1,3026.2000000476837,1071239.0,7782,VNB,B,0
1,test,3,0.0,2-Back,1.0,m,Wed Mar 18 2026 14:11:28 GMT-0500 (Central Daylight Time),1090178.1000000238,020_y_f_h_a.png,O,m,977,3,1,1997.3999999761581,1088180.7000000477,7782,VNB,B,1
1,test,3,0.0,2-Back,0.0,z,Wed Mar 18 2026 14:11:28 GMT-0500 (Central Daylight Time),1093210.2000000477,011_m_f_d_a.png,O,None,2016,4,1,3024.3000000715256,1090185.8999999762,7782,VNB,B,2
1,test,3,1.0,2-Back,0.0,m,Wed Mar 18 2026 14:11:28 GMT-0500 (Central Daylight Time),1095725.5,016_y_m_n_a.png,O,z,1486,5,1,2511.399999976158,1093214.1000000238,7782,VNB,B,3
1,test,3,0.0,2-Back,0.0,m,Wed Mar 18 2026 14:11:28 GMT-0500 (Central Daylight Time),1098758.3999999762,004_o_m_h_a.png,O,None,2016,6,1,3025.1999999284744,1095733.2000000477,7782,VNB,B,4
2,test,3,0.0,2-Back,1.0,z,Wed Mar 18 2026 14:11:28 GMT-0500 (Central Daylight Time),1101540.3000000715,020_y_f_n_a.png,O,z,1755,7,1,2777.9000000953674,1098762.3999999762,7782,VNB,B,5
3,test,3,1.0,2-Back,1.0,m,Wed Mar 18 2026 14:11:28 GMT-0500 (Central Daylight Time),1104406.3999999762,007_m_m_d_a.png,O,m,1843,8,1,2859.1999999284744,1101547.2000000477,7782,VNB,B,6
3,test,3,0.0,2-Back,0.0,m,Wed Mar 18 2026 14:11:28 GMT-0500 (Central Daylight Time),1107439.2000000477,016_y_m_d_a.png,O,None,2016,9,1,3028.8000000715256,1104410.3999999762,7782,VNB,B,7
4,test,3,0.0,2-Back,1.0,m,Wed Mar 18 2026 14:11:28 GMT-0500 (Central Daylight Time),1109838.5,005_o_f_h_a.png,O,m,1368,10,1,2389.5,1107449.0,7782,VNB,B,8
5,test,3,1.0,2-Back,1.0,m,Wed Mar 18 2026 14:11:28 GMT-0500 (Central Daylight Time),1112321.3000000715,011_m_f_n_a.png,O,m,1450,11,1,2479.4000000953674,1109841.8999999762,7782,VNB,B,9
6,test,3,1.0,2-Back,1.0,z,Wed Mar 18 2026 14:11:28 GMT-0500 (Central Daylight Time),1114702.6000000238,007_m_m_h_a.png,O,z,1360,12,1,2373.5,1112329.1000000238,7782,VNB,B,10
6,test,3,0.0,2-Back,0.0,m,Wed Mar 18 2026 14:11:28 GMT-0500 (Central Daylight Time),1117735.3999999762,020_y_f_d_a.png,O,None,2015,13,1,3030.0999999046326,1114705.3000000715,7782,VNB,B,11
6,test,3,0.0,2-Back,0.0,m,Wed Mar 18 2026 14:11:28 GMT-0500 (Central Daylight Time),1120118.7000000477,005_o_f_n_a.png,O,z,1362,14,1,2376.3000000715256,1117742.3999999762,7782,VNB,B,12
6,test,3,0.0,2-Back,0.0,z,Wed Mar 18 2026 14:11:28 GMT-0500 (Central Daylight Time),1123150.8000000715,004_o_m_d_a.png,O,None,2015,15,1,3029.3000000715256,1120121.5,7782,VNB,B,13
7,test,3,1.0,2-Back,1.0,m,Wed Mar 18 2026 14:11:28 GMT-0500 (Central Daylight Time),1125381.0,011_m_f_h_a.png,O,m,1200,16,1,2222.5,1123158.5,7782,VNB,B,14
8,test,3,0.0,2-Back,1.0,m,Wed Mar 18 2026 14:11:28 GMT-0500 (Central Daylight Time),1127665.8000000715,007_m_m_n_a.png,O,m,1259,17,1,2283.0,1125382.8000000715,7782,VNB,B,15
8,test,3,0.0,2-Back,0.0,z,Wed Mar 18 2026 14:11:28 GMT-0500 (Central Daylight Time),1130380.6000000238,016_y_m_h_a.png,O,m,1684,18,1,2706.7999999523163,1127673.8000000715,7782,VNB,B,16
0,test,4,0.0,2-Back,,,Wed Mar 18 2026 14:11:28 GMT-0500 (Central Daylight Time),1130380.6000000238,011_m_f_n_a.png,O,space,26557,1,1,2706.7999999523163,1127673.8000000715,7782,VNB,B,0
0,test,4,0.0,2-Back,,,Wed Mar 18 2026 14:11:28 GMT-0500 (Central Daylight Time),1130380.6000000238,004_o_m_n_a.png,O,space,26557,2,1,2706.7999999523163,1127673.8000000715,7782,VNB,B,0
1,test,4,1.0,2-Back,1.0,m,Wed Mar 18 2026 14:11:28 GMT-0500 (Central Daylight Time),1163920.0,016_y_m_h_a.png,O,m,750,3,1,1778.3999999761581,1162141.6000000238,7782,VNB,B,1
2,test,4,1.0,2-Back,1.0,m,Wed Mar 18 2026 14:11:28 GMT-0500 (Central Daylight Time),1166102.7000000477,005_o_f_d_a.png,O,m,1160,4,1,2179.0,1163923.7000000477,7782,VNB,B,2
2,test,4,0.0,2-Back,0.0,z,Wed Mar 18 2026 14:11:28 GMT-0500 (Central Daylight Time),1168619.0,004_o_m_h_a.png,O,m,1489,5,1,2513.1999999284744,1166105.8000000715,7782,VNB,B,3
3,test,4,0.0,2-Back,1.0,m,Wed Mar 18 2026 14:11:28 GMT-0500 (Central Daylight Time),1171352.3000000715,007_m_m_n_a.png,O,m,1702,6,1,2725.4000000953674,1168626.8999999762,7782,VNB,B,4
3,test,4,0.0,2-Back,0.0,m,Wed Mar 18 2026 14:11:28 GMT-0500 (Central Daylight Time),1174384.1000000238,011_m_f_d_a.png,O,None,2016,7,1,3028.5,1171355.6000000238,7782,VNB,B,5
4,test,4,0.0,2-Back,1.0,z,Wed Mar 18 2026 14:11:28 GMT-0500 (Central Daylight Time),1176798.7000000477,020_y_f_n_a.png,O,z,1382,8,1,2407.5,1174391.2000000477,7782,VNB,B,6
4,test,4,1.0,2-Back,0.0,m,Wed Mar 18 2026 14:11:28 GMT-0500 (Central Daylight Time),1179832.3999999762,005_o_f_h_a.png,O,None,2015,9,1,3031.7999999523163,1176800.6000000238,7782,VNB,B,7
5,test,4,0.0,2-Back,1.0,m,Wed Mar 18 2026 14:11:28 GMT-0500 (Central Daylight Time),1182216.8999999762,007_m_m_h_a.png,O,m,1360,10,1,2376.0,1179840.8999999762,7782,VNB,B,8
6,test,4,0.0,2-Back,1.0,m,Wed Mar 18 2026 14:11:28 GMT-0500 (Central Daylight Time),1185166.0,020_y_f_d_a.png,O,m,1929,11,1,2946.1999999284744,1182219.8000000715,7782,VNB,B,9
7,test,4,0.0,2-Back,1.0,m,Wed Mar 18 2026 14:11:28 GMT-0500 (Central Daylight Time),1188061.8999999762,016_y_m_n_a.png,O,m,1876,12,1,2888.1999999284744,1185173.7000000477,7782,VNB,B,10
8,test,4,0.0,2-Back,1.0,z,Wed Mar 18 2026 14:11:28 GMT-0500 (Central Daylight Time),1190045.7000000477,004_o_m_d_a.png,O,z,950,13,1,1981.3999999761581,1188064.3000000715,7782,VNB,B,11
9,test,4,1.0,2-Back,1.0,m,Wed Mar 18 2026 14:11:28 GMT-0500 (Central Daylight Time),1192277.7000000477,011_m_f_h_a.png,O,m,1210,14,1,2227.100000023842,1190050.6000000238,7782,VNB,B,12
9,test,4,1.0,2-Back,0.0,m,Wed Mar 18 2026 14:11:28 GMT-0500 (Central Daylight Time),1195310.0,020_y_f_h_a.png,O,None,2015,15,1,3028.600000023842,1192281.3999999762,7782,VNB,B,13
9,test,4,0.0,2-Back,0.0,m,Wed Mar 18 2026 14:11:28 GMT-0500 (Central Daylight Time),1198342.3999999762,005_o_f_n_a.png,O,None,2015,16,1,3025.2999999523163,1195317.1000000238,7782,VNB,B,14
10,test,4,0.0,2-Back,1.0,m,Wed Mar 18 2026 14:11:28 GMT-0500 (Central Daylight Time),1201259.3999999762,016_y_m_d_a.png,O,m,1883,17,1,2912.0,1198347.3999999762,7782,VNB,B,15
10,test,4,1.0,2-Back,0.0,m,Wed Mar 18 2026 14:11:28 GMT-0500 (Central Daylight Time),1204291.8000000715,007_m_m_d_a.png,O,None,2016,18,1,3025.4000000953674,1201266.3999999762,7782,VNB,B,16
0,test,5,1.0,2-Back,,,Wed Mar 18 2026 14:11:28 GMT-0500 (Central Daylight Time),1204291.8000000715,020_y_f_d_a.png,O,space,2915,1,1,3025.4000000953674,1201266.3999999762,7782,VNB,B,0
0,test,5,1.0,2-Back,,,Wed Mar 18 2026 14:11:28 GMT-0500 (Central Daylight Time),1204291.8000000715,005_o_f_h_a.png,O,space,2915,2,1,3025.4000000953674,1201266.3999999762,7782,VNB,B,0
0,test,5,1.0,2-Back,0.0,z,Wed Mar 18 2026 14:11:28 GMT-0500 (Central Daylight Time),1214887.5,004_o_m_d_a.png,O,m,1432,3,1,2461.6999999284744,1212425.8000000715,7782,VNB,B,1
1,test,5,1.0,2-Back,1.0,m,Wed Mar 18 2026 14:11:28 GMT-0500 (Central Daylight Time),1217169.1000000238,011_m_f_n_a.png,O,m,1254,4,1,2273.2999999523163,1214895.8000000715,7782,VNB,B,2
2,test,5,0.0,2-Back,1.0,m,Wed Mar 18 2026 14:11:28 GMT-0500 (Central Daylight Time),1219469.3999999762,007_m_m_h_a.png,O,m,1278,5,1,2297.6999999284744,1217171.7000000477,7782,VNB,B,3
3,test,5,0.0,2-Back,1.0,z,Wed Mar 18 2026 14:11:28 GMT-0500 (Central Daylight Time),1221601.7000000477,020_y_f_n_a.png,O,z,1109,6,1,2124.399999976158,1219477.3000000715,7782,VNB,B,4
3,test,5,0.0,2-Back,0.0,m,Wed Mar 18 2026 14:11:28 GMT-0500 (Central Daylight Time),1224183.0,005_o_f_d_a.png,O,z,1557,7,1,2578.0,1221605.0,7782,VNB,B,5
4,test,5,0.0,2-Back,1.0,m,Wed Mar 18 2026 14:11:28 GMT-0500 (Central Daylight Time),1226716.3999999762,004_o_m_h_a.png,O,m,1504,8,1,2530.899999976158,1224185.5,7782,VNB,B,6
4,test,5,1.0,2-Back,0.0,z,Wed Mar 18 2026 14:11:28 GMT-0500 (Central Daylight Time),1229349.5,011_m_f_d_a.png,O,m,1601,9,1,2630.1999999284744,1226719.3000000715,7782,VNB,B,7
5,test,5,0.0,2-Back,1.0,m,Wed Mar 18 2026 14:11:28 GMT-0500 (Central Daylight Time),1232231.5,016_y_m_n_a.png,O,m,1851,10,1,2874.7999999523163,1229356.7000000477,7782,VNB,B,8
5,test,5,0.0,2-Back,0.0,m,Wed Mar 18 2026 14:11:28 GMT-0500 (Central Daylight Time),1235264.2000000477,007_m_m_n_a.png,O,None,2016,11,1,3028.7000000476837,1232235.5,7782,VNB,B,9
5,test,5,0.0,2-Back,0.0,m,Wed Mar 18 2026 14:11:28 GMT-0500 (Central Daylight Time),1237930.8999999762,020_y_f_h_a.png,O,z,1634,12,1,2659.0999999046326,1235271.8000000715,7782,VNB,B,10
6,test,5,0.0,2-Back,1.0,m,Wed Mar 18 2026 14:11:28 GMT-0500 (Central Daylight Time),1240397.3000000715,016_y_m_d_a.png,O,m,1449,13,1,2462.7000000476837,1237934.6000000238,7782,VNB,B,11
7,test,5,1.0,2-Back,1.0,z,Wed Mar 18 2026 14:11:28 GMT-0500 (Central Daylight Time),1242930.2000000477,011_m_f_h_a.png,O,z,1503,14,1,2526.3000000715256,1240403.8999999762,7782,VNB,B,12
8,test,5,0.0,2-Back,1.0,m,Wed Mar 18 2026 14:11:28 GMT-0500 (Central Daylight Time),1245179.3000000715,004_o_m_n_a.png,O,m,1216,15,1,2245.9000000953674,1242933.3999999762,7782,VNB,B,13
9,test,5,0.0,2-Back,1.0,m,Wed Mar 18 2026 14:11:28 GMT-0500 (Central Daylight Time),1247643.0,007_m_m_d_a.png,O,m,1435,16,1,2457.7999999523163,1245185.2000000477,7782,VNB,B,14
10,test,5,0.0,2-Back,1.0,z,Wed Mar 18 2026 14:11:28 GMT-0500 (Central Daylight Time),1249877.0,005_o_f_n_a.png,O,z,1213,17,1,2231.6999999284744,1247645.3000000715,7782,VNB,B,15
10,test,5,1.0,2-Back,0.0,m,Wed Mar 18 2026 14:11:28 GMT-0500 (Central Daylight Time),1252526.2000000477,016_y_m_h_a.png,O,z,1620,18,1,2640.8000000715256,1249885.3999999762,7782,VNB,B,16
