Number,acc_sum,block,block_c,block_cond,con_img,correct,correct_response,datetime,endtime,jitter,project,response,response_time,row_sel,session_number,start_end,starttime,subject_id,task,task_vers,trial
7,1,prac,1,A,circle.png,1,m,Fri May 08 2026 13:16:32 GMT-0500 (Central Daylight Time),63562.200000047684,1700,I,m,1251,6,,3742.899999976158,59819.300000071526,8074,NTS,A,1
3,2,prac,1,A,circle.png,1,z,Fri May 08 2026 13:16:32 GMT-0500 (Central Daylight Time),66111.39999997616,1200,I,z,562,3,,2540.2999999523163,63571.10000002384,8074,NTS,A,2
4,3,prac,1,A,circle.png,1,z,Fri May 08 2026 13:16:32 GMT-0500 (Central Daylight Time),68960.5,1400,I,z,660,4,,2843.0,66117.5,8074,NTS,A,3
4,4,prac,1,A,circle.png,1,z,Fri May 08 2026 13:16:32 GMT-0500 (Central Daylight Time),71726.30000007153,1400,I,z,572,4,,2760.5,68965.80000007153,8074,NTS,A,4
2,5,prac,1,A,circle.png,1,z,Fri May 08 2026 13:16:32 GMT-0500 (Central Daylight Time),75108.60000002384,2000,I,z,584,2,,3375.899999976158,71732.70000004768,8074,NTS,A,5
8,6,prac,1,A,circle.png,1,m,Fri May 08 2026 13:16:32 GMT-0500 (Central Daylight Time),78040.89999997616,1600,I,m,535,7,,2925.899999976158,75115.0,8074,NTS,A,6
1,7,prac,1,A,circle.png,1,z,Fri May 08 2026 13:16:32 GMT-0500 (Central Daylight Time),80323.5,1000,I,z,483,1,,2276.5,78047.0,8074,NTS,A,7
9,8,prac,1,A,circle.png,1,m,Fri May 08 2026 13:16:32 GMT-0500 (Central Daylight Time),83289.30000007153,1500,I,m,677,8,,2960.3000000715256,80329.0,8074,NTS,A,8
6,9,prac,1,A,circle.png,1,m,Fri May 08 2026 13:16:32 GMT-0500 (Central Daylight Time),86655.10000002384,1900,I,m,679,5,,3359.7999999523163,83295.30000007153,8074,NTS,A,9
1,10,prac,1,A,circle.png,1,z,Fri May 08 2026 13:16:32 GMT-0500 (Central Daylight Time),89037.5,1000,I,z,597,1,,2376.6999999284744,86660.80000007153,8074,NTS,A,10
7,11,prac,1,A,circle.png,1,m,Fri May 08 2026 13:16:32 GMT-0500 (Central Daylight Time),92053.30000007153,1700,I,m,523,6,,3011.0,89042.30000007153,8074,NTS,A,11
2,12,prac,1,A,circle.png,1,z,Fri May 08 2026 13:16:32 GMT-0500 (Central Daylight Time),95285.70000004768,2000,I,z,447,2,,3227.2000000476837,92058.5,8074,NTS,A,12
8,1,prac,1,B,triangle.png,1,m,Fri May 08 2026 13:16:32 GMT-0500 (Central Daylight Time),119894.60000002384,1200,I,m,589,7,,2577.100000023842,117317.5,8074,NTS,A,1
9,2,prac,1,B,triangle.png,1,z,Fri May 08 2026 13:16:32 GMT-0500 (Central Daylight Time),122677.0,1400,I,z,478,8,,2777.0,119900.0,8074,NTS,A,2
3,3,prac,1,B,triangle.png,1,z,Fri May 08 2026 13:16:32 GMT-0500 (Central Daylight Time),125942.60000002384,1600,I,z,880,3,,3260.399999976158,122682.20000004768,8074,NTS,A,3
7,4,prac,1,B,triangle.png,1,z,Fri May 08 2026 13:16:32 GMT-0500 (Central Daylight Time),129274.89999997616,2000,I,z,542,6,,3326.1999999284744,125948.70000004768,8074,NTS,A,4
7,5,prac,1,B,triangle.png,1,z,Fri May 08 2026 13:16:32 GMT-0500 (Central Daylight Time),132940.30000007153,2000,I,z,882,6,,3659.9000000953674,129280.39999997616,8074,NTS,A,5
1,6,prac,1,B,triangle.png,1,z,Fri May 08 2026 13:16:32 GMT-0500 (Central Daylight Time),136405.89999997616,1900,I,z,772,1,,3459.899999976158,132946.0,8074,NTS,A,6
6,7,prac,1,B,triangle.png,1,m,Fri May 08 2026 13:16:32 GMT-0500 (Central Daylight Time),138755.20000004768,1000,I,m,566,5,,2344.3000000715256,136410.89999997616,8074,NTS,A,7
1,8,prac,1,B,triangle.png,1,z,Fri May 08 2026 13:16:32 GMT-0500 (Central Daylight Time),141937.70000004768,1900,I,z,485,1,,3177.0,138760.70000004768,8074,NTS,A,8
8,9,prac,1,B,triangle.png,1,m,Fri May 08 2026 13:16:32 GMT-0500 (Central Daylight Time),144703.5,1200,I,m,771,7,,2760.2999999523163,141943.20000004768,8074,NTS,A,9
2,10,prac,1,B,triangle.png,1,m,Fri May 08 2026 13:16:32 GMT-0500 (Central Daylight Time),147919.20000004768,1700,I,m,721,2,,3210.5,144708.70000004768,8074,NTS,A,10
4,11,prac,1,B,triangle.png,1,m,Fri May 08 2026 13:16:32 GMT-0500 (Central Daylight Time),150818.20000004768,1500,I,m,601,4,,2893.100000023842,147925.10000002384,8074,NTS,A,11
4,12,prac,1,B,triangle.png,1,m,Fri May 08 2026 13:16:32 GMT-0500 (Central Daylight Time),153600.60000002384,1500,I,m,486,4,,2777.2999999523163,150823.30000007153,8074,NTS,A,12
4,1,test,1,A,circle.png,1,z,Fri May 08 2026 13:16:32 GMT-0500 (Central Daylight Time),168443.60000002384,1400,I,z,833,4,,2292.5,166151.10000002384,8074,NTS,A,1
3,2,test,1,A,circle.png,1,z,Fri May 08 2026 13:16:32 GMT-0500 (Central Daylight Time),170212.0,1200,I,z,534,3,,1762.1999999284744,168449.80000007153,8074,NTS,A,2
2,3,test,1,A,circle.png,1,z,Fri May 08 2026 13:16:32 GMT-0500 (Central Daylight Time),172911.20000004768,2000,I,z,672,2,,2695.5,170215.70000004768,8074,NTS,A,3
9,4,test,1,A,circle.png,1,m,Fri May 08 2026 13:16:32 GMT-0500 (Central Daylight Time),175110.39999997616,1500,I,m,681,8,,2194.899999976158,172915.5,8074,NTS,A,4
4,5,test,1,A,circle.png,1,z,Fri May 08 2026 13:16:32 GMT-0500 (Central Daylight Time),177393.10000002384,1400,I,z,862,4,,2278.899999976158,175114.20000004768,8074,NTS,A,5
8,6,test,1,A,circle.png,1,m,Fri May 08 2026 13:16:32 GMT-0500 (Central Daylight Time),179592.60000002384,1600,I,m,571,7,,2196.0,177396.60000002384,8074,NTS,A,6
2,7,test,1,A,circle.png,1,z,Fri May 08 2026 13:16:32 GMT-0500 (Central Daylight Time),182208.20000004768,2000,I,z,596,2,,2611.5,179596.70000004768,8074,NTS,A,7
7,8,test,1,A,circle.png,1,m,Fri May 08 2026 13:16:32 GMT-0500 (Central Daylight Time),184490.80000007153,1700,I,m,560,6,,2278.9000000953674,182211.89999997616,8074,NTS,A,8
3,9,test,1,A,circle.png,1,z,Fri May 08 2026 13:16:32 GMT-0500 (Central Daylight Time),186490.5,1200,I,z,769,3,,1995.5,184495.0,8074,NTS,A,9
4,10,test,1,A,circle.png,1,z,Fri May 08 2026 13:16:32 GMT-0500 (Central Daylight Time),188522.89999997616,1400,I,z,602,4,,2028.1999999284744,186494.70000004768,8074,NTS,A,10
1,11,test,1,A,circle.png,1,z,Fri May 08 2026 13:16:32 GMT-0500 (Central Daylight Time),190572.30000007153,1000,I,z,1016,1,,2045.8000000715256,188526.5,8074,NTS,A,11
1,12,test,1,A,circle.png,1,z,Fri May 08 2026 13:16:32 GMT-0500 (Central Daylight Time),192371.80000007153,1000,I,z,767,1,,1795.2000000476837,190576.60000002384,8074,NTS,A,12
8,13,test,1,A,circle.png,1,m,Fri May 08 2026 13:16:32 GMT-0500 (Central Daylight Time),194671.30000007153,1600,I,m,672,7,,2295.5,192375.80000007153,8074,NTS,A,13
7,14,test,1,A,circle.png,1,m,Fri May 08 2026 13:16:32 GMT-0500 (Central Daylight Time),196920.39999997616,1700,I,m,521,6,,2244.399999976158,194676.0,8074,NTS,A,14
6,15,test,1,A,circle.png,1,m,Fri May 08 2026 13:16:32 GMT-0500 (Central Daylight Time),199469.60000002384,1900,I,m,624,5,,2545.5,196924.10000002384,8074,NTS,A,15
3,16,test,1,A,circle.png,1,z,Fri May 08 2026 13:16:32 GMT-0500 (Central Daylight Time),201353.60000002384,1200,I,z,655,3,,1879.8999999761581,199473.70000004768,8074,NTS,A,16
4,16,test,1,A,circle.png,0,z,Fri May 08 2026 13:16:32 GMT-0500 (Central Daylight Time),203718.20000004768,1400,I,m,939,4,,2360.600000023842,201357.60000002384,8074,NTS,A,17
9,17,test,1,A,circle.png,1,m,Fri May 08 2026 13:16:32 GMT-0500 (Central Daylight Time),205801.0,1500,I,m,562,8,,2079.0,203722.0,8074,NTS,A,18
6,18,test,1,A,circle.png,1,m,Fri May 08 2026 13:16:32 GMT-0500 (Central Daylight Time),208700.0,1900,I,m,975,5,,2895.2999999523163,205804.70000004768,8074,NTS,A,19
1,19,test,1,A,circle.png,1,z,Fri May 08 2026 13:16:32 GMT-0500 (Central Daylight Time),210333.10000002384,1000,I,z,616,1,,1629.7000000476837,208703.39999997616,8074,NTS,A,20
7,20,test,1,A,circle.png,1,m,Fri May 08 2026 13:16:32 GMT-0500 (Central Daylight Time),212848.80000007153,1700,I,m,795,6,,2512.0,210336.80000007153,8074,NTS,A,21
2,21,test,1,A,circle.png,1,z,Fri May 08 2026 13:16:32 GMT-0500 (Central Daylight Time),215743.20000004768,2000,I,z,729,2,,2890.2000000476837,212853.0,8074,NTS,A,22
9,22,test,1,A,circle.png,1,m,Fri May 08 2026 13:16:32 GMT-0500 (Central Daylight Time),218047.0,1500,I,m,772,8,,2299.5,215747.5,8074,NTS,A,23
6,23,test,1,A,circle.png,1,m,Fri May 08 2026 13:16:32 GMT-0500 (Central Daylight Time),220612.89999997616,1900,I,m,641,5,,2562.399999976158,218050.5,8074,NTS,A,24
9,0,test,1,B,triangle.png,0,z,Fri May 08 2026 13:16:32 GMT-0500 (Central Daylight Time),232142.60000002384,1400,I,m,964,8,,2379.2000000476837,229763.39999997616,8074,NTS,A,1
3,1,test,1,B,triangle.png,1,z,Fri May 08 2026 13:16:32 GMT-0500 (Central Daylight Time),235008.30000007153,2000,I,z,846,11,,2861.2000000476837,232147.10000002384,8074,NTS,A,2
4,2,test,1,B,triangle.png,1,m,Fri May 08 2026 13:16:32 GMT-0500 (Central Daylight Time),237207.70000004768,1500,I,m,680,4,,2195.8000000715256,235011.89999997616,8074,NTS,A,3
9,3,test,1,B,triangle.png,1,z,Fri May 08 2026 13:16:32 GMT-0500 (Central Daylight Time),239457.10000002384,1400,I,z,821,8,,2245.7000000476837,237211.39999997616,8074,NTS,A,4
9,4,test,1,B,triangle.png,1,z,Fri May 08 2026 13:16:32 GMT-0500 (Central Daylight Time),241956.20000004768,1900,I,z,575,16,,2494.8000000715256,239461.39999997616,8074,NTS,A,5
8,5,test,1,B,triangle.png,1,m,Fri May 08 2026 13:16:32 GMT-0500 (Central Daylight Time),244505.39999997616,1700,I,m,820,15,,2545.2999999523163,241960.10000002384,8074,NTS,A,6
7,6,test,1,B,triangle.png,1,z,Fri May 08 2026 13:16:32 GMT-0500 (Central Daylight Time),247304.5,2000,I,z,771,6,,2795.2999999523163,244509.20000004768,8074,NTS,A,7
7,6,test,1,B,triangle.png,0,z,Fri May 08 2026 13:16:32 GMT-0500 (Central Daylight Time),249920.39999997616,2000,I,m,596,6,,2610.0,247310.39999997616,8074,NTS,A,8
6,7,test,1,B,triangle.png,1,m,Fri May 08 2026 13:16:32 GMT-0500 (Central Daylight Time),252253.0,1500,I,m,808,13,,2328.6999999284744,249924.30000007153,8074,NTS,A,9
2,8,test,1,B,triangle.png,1,m,Fri May 08 2026 13:16:32 GMT-0500 (Central Daylight Time),254902.30000007153,1700,I,m,923,2,,2645.7000000476837,252256.60000002384,8074,NTS,A,10
2,9,test,1,B,triangle.png,1,m,Fri May 08 2026 13:16:32 GMT-0500 (Central Daylight Time),256868.10000002384,1200,I,m,742,10,,1961.7000000476837,254906.39999997616,8074,NTS,A,11
1,10,test,1,B,triangle.png,1,z,Fri May 08 2026 13:16:32 GMT-0500 (Central Daylight Time),259301.0,1900,I,z,508,1,,2429.1999999284744,256871.80000007153,8074,NTS,A,12
6,11,test,1,B,triangle.png,1,m,Fri May 08 2026 13:16:32 GMT-0500 (Central Daylight Time),261616.80000007153,1500,I,m,796,13,,2312.0,259304.80000007153,8074,NTS,A,13
2,11,test,1,B,triangle.png,0,m,Fri May 08 2026 13:16:32 GMT-0500 (Central Daylight Time),264265.89999997616,1700,I,z,920,2,,2645.399999976158,261620.5,8074,NTS,A,14
7,11,test,1,B,triangle.png,0,z,Fri May 08 2026 13:16:32 GMT-0500 (Central Daylight Time),266831.7000000477,1600,I,m,939,14,,2561.899999976158,264269.8000000715,8074,NTS,A,15
3,12,test,1,B,triangle.png,1,z,Fri May 08 2026 13:16:32 GMT-0500 (Central Daylight Time),269164.2000000477,1600,I,z,709,3,,2328.3000000715256,266835.89999997616,8074,NTS,A,16
6,13,test,1,B,triangle.png,1,m,Fri May 08 2026 13:16:32 GMT-0500 (Central Daylight Time),271130.39999997616,1000,I,m,936,5,,1962.5999999046326,269167.8000000715,8074,NTS,A,17
1,14,test,1,B,triangle.png,1,z,Fri May 08 2026 13:16:32 GMT-0500 (Central Daylight Time),273946.2000000477,1900,I,z,894,1,,2811.899999976158,271134.3000000715,8074,NTS,A,18
4,15,test,1,B,triangle.png,1,m,Fri May 08 2026 13:16:32 GMT-0500 (Central Daylight Time),276162.2000000477,1500,I,m,686,4,,2212.3000000715256,273949.89999997616,8074,NTS,A,19
4,16,test,1,B,triangle.png,1,m,Fri May 08 2026 13:16:32 GMT-0500 (Central Daylight Time),277895.10000002384,1000,I,m,706,12,,1729.1000000238419,276166.0,8074,NTS,A,20
8,17,test,1,B,triangle.png,1,m,Fri May 08 2026 13:16:32 GMT-0500 (Central Daylight Time),279844.39999997616,1200,I,m,717,7,,1945.1999999284744,277899.2000000477,8074,NTS,A,21
3,18,test,1,B,triangle.png,1,z,Fri May 08 2026 13:16:32 GMT-0500 (Central Daylight Time),282076.89999997616,1600,I,z,600,3,,2228.7999999523163,279848.10000002384,8074,NTS,A,22
1,19,test,1,B,triangle.png,1,z,Fri May 08 2026 13:16:32 GMT-0500 (Central Daylight Time),284193.0,1400,I,z,696,9,,2112.6999999284744,282080.3000000715,8074,NTS,A,23
8,20,test,1,B,triangle.png,1,m,Fri May 08 2026 13:16:32 GMT-0500 (Central Daylight Time),286593.60000002384,1700,I,m,671,15,,2397.0,284196.60000002384,8074,NTS,A,24
7,0,prac,1,C,triangle.png,0,z,Fri May 08 2026 13:16:32 GMT-0500 (Central Daylight Time),329812.10000002384,1200,I,None,1515,6,,3494.2999999523163,326317.8000000715,8074,NTS,A,1
4,0,prac,1,C,circle.png,0,z,Fri May 08 2026 13:16:32 GMT-0500 (Central Daylight Time),332294.60000002384,1000,I,m,687,4,,2476.0,329818.60000002384,8074,NTS,A,2
8,1,prac,1,C,triangle.png,1,m,Fri May 08 2026 13:16:32 GMT-0500 (Central Daylight Time),335193.89999997616,1400,I,m,708,7,,2894.399999976158,332299.5,8074,NTS,A,3
7,2,prac,1,C,triangle.png,1,z,Fri May 08 2026 13:16:32 GMT-0500 (Central Daylight Time),338042.89999997616,1200,I,z,859,6,,2844.0,335198.89999997616,8074,NTS,A,4
3,3,prac,1,C,triangle.png,1,z,Fri May 08 2026 13:16:32 GMT-0500 (Central Daylight Time),341075.2000000477,1500,I,z,750,3,,3027.399999976158,338047.8000000715,8074,NTS,A,5
4,4,prac,1,C,circle.png,1,z,Fri May 08 2026 13:16:32 GMT-0500 (Central Daylight Time),343791.0,1000,I,z,920,4,,2710.399999976158,341080.60000002384,8074,NTS,A,6
8,5,prac,1,C,triangle.png,1,m,Fri May 08 2026 13:16:32 GMT-0500 (Central Daylight Time),346906.89999997616,1400,I,m,925,7,,3110.7999999523163,343796.10000002384,8074,NTS,A,7
1,6,prac,1,C,circle.png,1,z,Fri May 08 2026 13:16:32 GMT-0500 (Central Daylight Time),350189.2000000477,1700,I,z,798,1,,3277.2000000476837,346912.0,8074,NTS,A,8
9,7,prac,1,C,circle.png,1,m,Fri May 08 2026 13:16:32 GMT-0500 (Central Daylight Time),353704.60000002384,1900,I,m,827,8,,3510.5,350194.10000002384,8074,NTS,A,9
6,8,prac,1,C,circle.png,1,m,Fri May 08 2026 13:16:32 GMT-0500 (Central Daylight Time),357536.89999997616,2000,I,m,1036,5,,3827.0,353709.89999997616,8074,NTS,A,10
2,8,prac,1,C,triangle.png,0,m,Fri May 08 2026 13:16:32 GMT-0500 (Central Daylight Time),360919.10000002384,1600,I,z,987,2,,3377.100000023842,357542.0,8074,NTS,A,11
2,9,prac,1,C,triangle.png,1,m,Fri May 08 2026 13:16:32 GMT-0500 (Central Daylight Time),364418.10000002384,1600,I,m,1110,2,,3494.0,360924.10000002384,8074,NTS,A,12
6,0,test,1,C,circle.png,0,m,Fri May 08 2026 13:16:32 GMT-0500 (Central Daylight Time),382445.7000000477,1900,I,z,1207,5,,3129.2000000476837,379316.5,8074,NTS,A,1
9,1,test,1,C,circle.png,1,m,Fri May 08 2026 13:16:32 GMT-0500 (Central Daylight Time),385061.5,1500,I,m,1090,24,,2610.1999999284744,382451.3000000715,8074,NTS,A,2
4,1,test,1,C,triangle.png,0,m,Fri May 08 2026 13:16:32 GMT-0500 (Central Daylight Time),387744.10000002384,1500,I,z,1155,12,,2678.399999976158,385065.7000000477,8074,NTS,A,3
2,2,test,1,C,triangle.png,1,m,Fri May 08 2026 13:16:32 GMT-0500 (Central Daylight Time),390661.0,2000,I,m,885,2,,2913.0,387748.0,8074,NTS,A,4
8,3,test,1,C,triangle.png,1,m,Fri May 08 2026 13:16:32 GMT-0500 (Central Daylight Time),393542.2000000477,1600,I,m,1257,7,,2876.5,390665.7000000477,8074,NTS,A,5
3,4,test,1,C,triangle.png,1,z,Fri May 08 2026 13:16:32 GMT-0500 (Central Daylight Time),395741.60000002384,1200,I,z,982,3,,2195.2999999523163,393546.3000000715,8074,NTS,A,6
9,5,test,1,C,circle.png,1,m,Fri May 08 2026 13:16:32 GMT-0500 (Central Daylight Time),398240.8000000715,1500,I,m,971,8,,2495.3000000715256,395745.5,8074,NTS,A,7
3,6,test,1,C,circle.png,1,z,Fri May 08 2026 13:16:32 GMT-0500 (Central Daylight Time),400789.89999997616,1600,I,z,932,11,,2545.0,398244.89999997616,8074,NTS,A,8
9,6,test,1,C,triangle.png,0,z,Fri May 08 2026 13:16:32 GMT-0500 (Central Daylight Time),403172.5,1400,I,m,959,16,,2378.7999999523163,400793.7000000477,8074,NTS,A,9
1,6,test,1,C,triangle.png,0,z,Fri May 08 2026 13:16:32 GMT-0500 (Central Daylight Time),406171.39999997616,1900,I,m,1068,17,,2995.399999976158,403176.0,8074,NTS,A,10
4,7,test,1,C,circle.png,1,z,Fri May 08 2026 13:16:32 GMT-0500 (Central Daylight Time),408804.0,1400,I,z,1201,4,,2628.5,406175.5,8074,NTS,A,11
7,7,test,1,C,triangle.png,0,z,Fri May 08 2026 13:16:32 GMT-0500 (Central Daylight Time),411419.8000000715,1700,I,m,885,22,,2612.100000023842,408807.7000000477,8074,NTS,A,12
7,7,test,1,C,triangle.png,0,z,Fri May 08 2026 13:16:32 GMT-0500 (Central Daylight Time),413802.5,1700,I,m,653,6,,2378.6999999284744,411423.8000000715,8074,NTS,A,13
2,8,test,1,C,circle.png,1,z,Fri May 08 2026 13:16:32 GMT-0500 (Central Daylight Time),416268.5,1700,I,z,734,18,,2462.2999999523163,413806.2000000477,8074,NTS,A,14
8,9,test,1,C,circle.png,1,m,Fri May 08 2026 13:16:32 GMT-0500 (Central Daylight Time),418701.10000002384,1200,I,m,1216,15,,2428.399999976158,416272.7000000477,8074,NTS,A,15
4,9,test,1,C,triangle.png,0,m,Fri May 08 2026 13:16:32 GMT-0500 (Central Daylight Time),421068.0,1500,I,z,836,20,,2362.6999999284744,418705.3000000715,8074,NTS,A,16
6,10,test,1,C,circle.png,1,m,Fri May 08 2026 13:16:32 GMT-0500 (Central Daylight Time),423699.39999997616,1900,I,m,710,21,,2627.5999999046326,421071.8000000715,8074,NTS,A,17
1,11,test,1,C,triangle.png,1,z,Fri May 08 2026 13:16:32 GMT-0500 (Central Daylight Time),426665.2000000477,1900,I,z,1045,9,,2962.100000023842,423703.10000002384,8074,NTS,A,18
8,12,test,1,C,triangle.png,1,m,Fri May 08 2026 13:16:32 GMT-0500 (Central Daylight Time),429397.7000000477,1600,I,m,1115,23,,2728.399999976158,426669.3000000715,8074,NTS,A,19
2,13,test,1,C,circle.png,1,z,Fri May 08 2026 13:16:32 GMT-0500 (Central Daylight Time),431946.8000000715,1700,I,z,819,10,,2545.5,429401.3000000715,8074,NTS,A,20
3,14,test,1,C,circle.png,1,z,Fri May 08 2026 13:16:32 GMT-0500 (Central Daylight Time),434529.5,1600,I,z,962,19,,2578.6999999284744,431950.8000000715,8074,NTS,A,21
7,14,test,1,C,circle.png,0,m,Fri May 08 2026 13:16:32 GMT-0500 (Central Daylight Time),437661.7000000477,2000,I,z,1107,14,,3128.399999976158,434533.3000000715,8074,NTS,A,22
1,15,test,1,C,circle.png,1,z,Fri May 08 2026 13:16:32 GMT-0500 (Central Daylight Time),439777.7000000477,1000,I,z,1095,1,,2112.2000000476837,437665.5,8074,NTS,A,23
6,16,test,1,C,triangle.png,1,m,Fri May 08 2026 13:16:32 GMT-0500 (Central Daylight Time),442026.89999997616,1000,I,m,1227,13,,2245.5,439781.39999997616,8074,NTS,A,24
3,1,test,2,C,circle.png,1,z,Fri May 08 2026 13:16:32 GMT-0500 (Central Daylight Time),449508.10000002384,1600,I,z,801,19,,2428.100000023842,447080.0,8074,NTS,A,1
4,1,test,2,C,triangle.png,0,m,Fri May 08 2026 13:16:32 GMT-0500 (Central Daylight Time),452057.10000002384,1500,I,z,1028,20,,2545.0,449512.10000002384,8074,NTS,A,2
7,2,test,2,C,circle.png,1,m,Fri May 08 2026 13:16:32 GMT-0500 (Central Daylight Time),455572.8000000715,2000,I,m,1492,22,,3511.4000000953674,452061.39999997616,8074,NTS,A,3
3,3,test,2,C,triangle.png,1,z,Fri May 08 2026 13:16:32 GMT-0500 (Central Daylight Time),458205.39999997616,1200,I,z,1400,3,,2628.399999976158,455577.0,8074,NTS,A,4
4,4,test,2,C,triangle.png,1,m,Fri May 08 2026 13:16:32 GMT-0500 (Central Daylight Time),461087.7000000477,1500,I,m,1355,12,,2878.8000000715256,458208.89999997616,8074,NTS,A,5
8,5,test,2,C,circle.png,1,m,Fri May 08 2026 13:16:32 GMT-0500 (Central Daylight Time),463670.2000000477,1200,I,m,1365,23,,2578.3000000715256,461091.89999997616,8074,NTS,A,6
7,6,test,2,C,circle.png,1,m,Fri May 08 2026 13:16:32 GMT-0500 (Central Daylight Time),466719.3000000715,2000,I,m,1031,14,,3044.8000000715256,463674.5,8074,NTS,A,7
1,7,test,2,C,circle.png,1,z,Fri May 08 2026 13:16:32 GMT-0500 (Central Daylight Time),469085.2000000477,1000,I,z,1349,1,,2361.899999976158,466723.3000000715,8074,NTS,A,8
2,8,test,2,C,circle.png,1,z,Fri May 08 2026 13:16:32 GMT-0500 (Central Daylight Time),471517.8000000715,1700,I,z,708,18,,2428.8000000715256,469089.0,8074,NTS,A,9
4,9,test,2,C,circle.png,1,z,Fri May 08 2026 13:16:32 GMT-0500 (Central Daylight Time),473717.0,1400,I,z,783,4,,2194.899999976158,471522.10000002384,8074,NTS,A,10
2,10,test,2,C,circle.png,1,z,Fri May 08 2026 13:16:32 GMT-0500 (Central Daylight Time),476349.60000002384,1700,I,z,915,10,,2628.600000023842,473721.0,8074,NTS,A,11
8,11,test,2,C,triangle.png,1,m,Fri May 08 2026 13:16:32 GMT-0500 (Central Daylight Time),478615.5,1600,I,m,647,7,,2261.7999999523163,476353.7000000477,8074,NTS,A,12
1,11,test,2,C,triangle.png,0,z,Fri May 08 2026 13:16:32 GMT-0500 (Central Daylight Time),481897.8000000715,1900,I,m,1353,9,,3278.100000023842,478619.7000000477,8074,NTS,A,13
9,12,test,2,C,triangle.png,1,z,Fri May 08 2026 13:16:32 GMT-0500 (Central Daylight Time),484197.2000000477,1400,I,z,875,16,,2295.0,481902.2000000477,8074,NTS,A,14
9,13,test,2,C,circle.png,1,m,Fri May 08 2026 13:16:32 GMT-0500 (Central Daylight Time),486646.3000000715,1500,I,m,923,8,,2445.2000000476837,484201.10000002384,8074,NTS,A,15
3,14,test,2,C,circle.png,1,z,Fri May 08 2026 13:16:32 GMT-0500 (Central Daylight Time),489312.3000000715,1600,I,z,1046,11,,2662.3000000715256,486650.0,8074,NTS,A,16
2,15,test,2,C,triangle.png,1,m,Fri May 08 2026 13:16:32 GMT-0500 (Central Daylight Time),492344.8000000715,2000,I,m,1004,2,,3028.0,489316.8000000715,8074,NTS,A,17
7,16,test,2,C,triangle.png,1,z,Fri May 08 2026 13:16:32 GMT-0500 (Central Daylight Time),494993.89999997616,1700,I,z,920,6,,2644.7999999523163,492349.10000002384,8074,NTS,A,18
8,17,test,2,C,circle.png,1,m,Fri May 08 2026 13:16:32 GMT-0500 (Central Daylight Time),497226.5,1200,I,m,1003,15,,2228.100000023842,494998.39999997616,8074,NTS,A,19
9,18,test,2,C,triangle.png,1,z,Fri May 08 2026 13:16:32 GMT-0500 (Central Daylight Time),500142.2000000477,1400,I,z,1465,24,,2912.0,497230.2000000477,8074,NTS,A,20
1,19,test,2,C,triangle.png,1,z,Fri May 08 2026 13:16:32 GMT-0500 (Central Daylight Time),502741.3000000715,1900,I,z,675,17,,2595.2000000476837,500146.10000002384,8074,NTS,A,21
6,20,test,2,C,triangle.png,1,m,Fri May 08 2026 13:16:32 GMT-0500 (Central Daylight Time),504407.5,1000,I,m,639,13,,1662.1999999284744,502745.3000000715,8074,NTS,A,22
6,21,test,2,C,circle.png,1,m,Fri May 08 2026 13:16:32 GMT-0500 (Central Daylight Time),507273.39999997616,1900,I,m,937,5,,2861.899999976158,504411.5,8074,NTS,A,23
6,21,test,2,C,triangle.png,0,m,Fri May 08 2026 13:16:32 GMT-0500 (Central Daylight Time),509205.89999997616,1000,I,z,915,21,,1928.5,507277.39999997616,8074,NTS,A,24
8,0,test,3,C,circle.png,0,m,Fri May 08 2026 13:16:32 GMT-0500 (Central Daylight Time),571969.8999999762,1200,I,None,1516,15,,2731.2999999523163,569238.6000000238,8074,NTS,A,1
8,0,test,3,C,triangle.png,0,m,Fri May 08 2026 13:16:32 GMT-0500 (Central Daylight Time),575102.2000000477,1600,I,None,1516,7,,3127.5,571974.7000000477,8074,NTS,A,2
8,0,test,3,C,triangle.png,0,m,Fri May 08 2026 13:16:32 GMT-0500 (Central Daylight Time),578234.3000000715,1600,I,None,1515,23,,3127.4000000953674,575106.8999999762,8074,NTS,A,3
9,0,test,3,C,circle.png,0,m,Fri May 08 2026 13:16:32 GMT-0500 (Central Daylight Time),581266.8000000715,1500,I,None,1516,8,,3028.9000000953674,578237.8999999762,8074,NTS,A,4
9,0,test,3,C,circle.png,0,m,Fri May 08 2026 13:16:32 GMT-0500 (Central Daylight Time),584299.3999999762,1500,I,None,1516,24,,3029.0,581270.3999999762,8074,NTS,A,5
4,0,test,3,C,circle.png,0,z,Fri May 08 2026 13:16:32 GMT-0500 (Central Daylight Time),587231.5,1400,I,None,1516,20,,2928.0,584303.5,8074,NTS,A,6
6,0,test,3,C,triangle.png,0,m,Fri May 08 2026 13:16:32 GMT-0500 (Central Daylight Time),589764.1000000238,1000,I,None,1516,13,,2528.7999999523163,587235.3000000715,8074,NTS,A,7
4,0,test,3,C,circle.png,0,z,Fri May 08 2026 13:16:32 GMT-0500 (Central Daylight Time),592696.6000000238,1400,I,None,1516,4,,2928.7000000476837,589767.8999999762,8074,NTS,A,8
1,0,test,3,C,circle.png,0,z,Fri May 08 2026 13:16:32 GMT-0500 (Central Daylight Time),595229.0,1000,I,None,1516,17,,2528.600000023842,592700.3999999762,8074,NTS,A,9
3,0,test,3,C,triangle.png,0,z,Fri May 08 2026 13:16:32 GMT-0500 (Central Daylight Time),597961.6000000238,1200,I,None,1516,3,,2728.7000000476837,595232.8999999762,8074,NTS,A,10
3,0,test,3,C,circle.png,0,z,Fri May 08 2026 13:16:32 GMT-0500 (Central Daylight Time),601093.8999999762,1600,I,None,1516,11,,3128.6999999284744,597965.2000000477,8074,NTS,A,11
1,0,test,3,C,circle.png,0,z,Fri May 08 2026 13:16:32 GMT-0500 (Central Daylight Time),603626.3000000715,1000,I,None,1515,1,,2528.3000000715256,601098.0,8074,NTS,A,12
9,0,test,3,C,triangle.png,0,z,Fri May 08 2026 13:16:32 GMT-0500 (Central Daylight Time),606558.8999999762,1400,I,None,1516,16,,2928.6999999284744,603630.2000000477,8074,NTS,A,13
2,1,test,3,C,circle.png,1,z,Fri May 08 2026 13:16:32 GMT-0500 (Central Daylight Time),609058.0,1700,I,z,778,10,,2494.899999976158,606563.1000000238,8074,NTS,A,14
6,2,test,3,C,circle.png,1,m,Fri May 08 2026 13:16:32 GMT-0500 (Central Daylight Time),612057.2000000477,1900,I,m,1079,21,,2995.399999976158,609061.8000000715,8074,NTS,A,15
6,3,test,3,C,circle.png,1,m,Fri May 08 2026 13:16:32 GMT-0500 (Central Daylight Time),614622.8999999762,1900,I,m,648,5,,2561.6999999284744,612061.2000000477,8074,NTS,A,16
7,3,test,3,C,triangle.png,0,z,Fri May 08 2026 13:16:32 GMT-0500 (Central Daylight Time),617622.2000000477,1700,I,m,1187,22,,2995.5,614626.7000000477,8074,NTS,A,17
7,4,test,3,C,triangle.png,1,z,Fri May 08 2026 13:16:32 GMT-0500 (Central Daylight Time),620171.3000000715,1700,I,z,827,6,,2545.0,617626.3000000715,8074,NTS,A,18
7,5,test,3,C,circle.png,1,m,Fri May 08 2026 13:16:32 GMT-0500 (Central Daylight Time),622987.0,2000,I,m,793,14,,2812.0,620175.0,8074,NTS,A,19
4,5,test,3,C,triangle.png,0,m,Fri May 08 2026 13:16:32 GMT-0500 (Central Daylight Time),625536.3000000715,1500,I,z,1022,12,,2545.5,622990.8000000715,8074,NTS,A,20
3,6,test,3,C,triangle.png,1,z,Fri May 08 2026 13:16:32 GMT-0500 (Central Daylight Time),627952.1000000238,1200,I,z,1188,19,,2412.0,625540.1000000238,8074,NTS,A,21
1,7,test,3,C,triangle.png,1,z,Fri May 08 2026 13:16:32 GMT-0500 (Central Daylight Time),630401.3999999762,1900,I,z,528,9,,2444.0999999046326,627957.3000000715,8074,NTS,A,22
2,8,test,3,C,triangle.png,1,m,Fri May 08 2026 13:16:32 GMT-0500 (Central Daylight Time),633183.8000000715,2000,I,m,763,18,,2778.7000000476837,630405.1000000238,8074,NTS,A,23
2,9,test,3,C,triangle.png,1,m,Fri May 08 2026 13:16:32 GMT-0500 (Central Daylight Time),635949.6000000238,2000,I,m,741,2,,2761.2000000476837,633188.3999999762,8074,NTS,A,24
1,1,test,4,C,circle.png,1,z,Fri May 08 2026 13:16:32 GMT-0500 (Central Daylight Time),641231.3999999762,1000,I,z,756,1,,1779.6999999284744,639451.7000000477,8074,NTS,A,1
4,2,test,4,C,triangle.png,1,m,Fri May 08 2026 13:16:32 GMT-0500 (Central Daylight Time),643897.3000000715,1500,I,m,1137,12,,2661.7000000476837,641235.6000000238,8074,NTS,A,2
1,3,test,4,C,triangle.png,1,z,Fri May 08 2026 13:16:32 GMT-0500 (Central Daylight Time),647012.8999999762,1900,I,z,1184,9,,3111.7999999523163,643901.1000000238,8074,NTS,A,3
9,4,test,4,C,circle.png,1,m,Fri May 08 2026 13:16:32 GMT-0500 (Central Daylight Time),649445.3000000715,1500,I,m,900,8,,2428.100000023842,647017.2000000477,8074,NTS,A,4
7,5,test,4,C,triangle.png,1,z,Fri May 08 2026 13:16:32 GMT-0500 (Central Daylight Time),652361.2000000477,1700,I,z,1195,22,,2911.899999976158,649449.3000000715,8074,NTS,A,5
3,6,test,4,C,circle.png,1,z,Fri May 08 2026 13:16:32 GMT-0500 (Central Daylight Time),655160.3000000715,1600,I,z,1179,11,,2794.3000000715256,652366.0,8074,NTS,A,6
2,7,test,4,C,triangle.png,1,m,Fri May 08 2026 13:16:32 GMT-0500 (Central Daylight Time),658259.5,2000,I,m,1076,2,,3095.5,655164.0,8074,NTS,A,7
4,8,test,4,C,circle.png,1,z,Fri May 08 2026 13:16:32 GMT-0500 (Central Daylight Time),660808.8999999762,1400,I,z,1122,20,,2545.2999999523163,658263.6000000238,8074,NTS,A,8
7,9,test,4,C,triangle.png,1,z,Fri May 08 2026 13:16:32 GMT-0500 (Central Daylight Time),663590.8999999762,1700,I,z,1065,6,,2778.1999999284744,660812.7000000477,8074,NTS,A,9
9,10,test,4,C,circle.png,1,m,Fri May 08 2026 13:16:32 GMT-0500 (Central Daylight Time),665973.7000000477,1500,I,m,850,24,,2378.7000000476837,663595.0,8074,NTS,A,10
3,11,test,4,C,triangle.png,1,z,Fri May 08 2026 13:16:32 GMT-0500 (Central Daylight Time),668589.3000000715,1200,I,z,1391,19,,2611.5,665977.8000000715,8074,NTS,A,11
7,12,test,4,C,circle.png,1,m,Fri May 08 2026 13:16:32 GMT-0500 (Central Daylight Time),671405.5,2000,I,m,799,14,,2811.6999999284744,668593.8000000715,8074,NTS,A,12
2,13,test,4,C,circle.png,1,z,Fri May 08 2026 13:16:32 GMT-0500 (Central Daylight Time),674137.7000000477,1700,I,z,1003,10,,2727.899999976158,671409.8000000715,8074,NTS,A,13
8,14,test,4,C,triangle.png,1,m,Fri May 08 2026 13:16:32 GMT-0500 (Central Daylight Time),676853.5,1600,I,m,1083,23,,2711.2999999523163,674142.2000000477,8074,NTS,A,14
6,15,test,4,C,triangle.png,1,m,Fri May 08 2026 13:16:32 GMT-0500 (Central Daylight Time),678453.3999999762,1000,I,m,583,13,,1596.0,676857.3999999762,8074,NTS,A,15
8,16,test,4,C,triangle.png,1,m,Fri May 08 2026 13:16:32 GMT-0500 (Central Daylight Time),680852.3000000715,1600,I,m,775,7,,2395.2000000476837,678457.1000000238,8074,NTS,A,16
1,17,test,4,C,circle.png,1,z,Fri May 08 2026 13:16:32 GMT-0500 (Central Daylight Time),682818.3000000715,1000,I,z,936,17,,1961.9000000953674,680856.3999999762,8074,NTS,A,17
2,18,test,4,C,triangle.png,1,m,Fri May 08 2026 13:16:32 GMT-0500 (Central Daylight Time),685850.7000000477,2000,I,m,1002,18,,3028.7000000476837,682822.0,8074,NTS,A,18
8,19,test,4,C,circle.png,1,m,Fri May 08 2026 13:16:32 GMT-0500 (Central Daylight Time),688216.7000000477,1200,I,m,1057,15,,2361.899999976158,685854.8000000715,8074,NTS,A,19
9,20,test,4,C,triangle.png,1,z,Fri May 08 2026 13:16:32 GMT-0500 (Central Daylight Time),690732.6000000238,1400,I,z,1092,16,,2511.7999999523163,688220.8000000715,8074,NTS,A,20
6,21,test,4,C,circle.png,1,m,Fri May 08 2026 13:16:32 GMT-0500 (Central Daylight Time),693581.6000000238,1900,I,m,924,21,,2845.399999976158,690736.2000000477,8074,NTS,A,21
3,22,test,4,C,triangle.png,1,z,Fri May 08 2026 13:16:32 GMT-0500 (Central Daylight Time),696264.3000000715,1200,I,z,1454,3,,2678.8000000715256,693585.5,8074,NTS,A,22
4,23,test,4,C,circle.png,1,z,Fri May 08 2026 13:16:32 GMT-0500 (Central Daylight Time),698513.3999999762,1400,I,z,828,4,,2244.5999999046326,696268.8000000715,8074,NTS,A,23
6,24,test,4,C,circle.png,1,m,Fri May 08 2026 13:16:32 GMT-0500 (Central Daylight Time),701245.8999999762,1900,I,m,815,5,,2728.399999976158,698517.5,8074,NTS,A,24
