acc_sum,block,block_c,change,condition,correct,correct_response,datetime,endtime,face,project,response,response_time,row_sel,session_number,start_end,starttime,subject_id,task,task_vers,trial
0,prac,1,,1-Back,,,Thu Feb 05 2026 11:09:26 GMT-0500 (Eastern Standard Time),,093_m_f_n_a.png,I,space,2542,1,2,,,9033,NNB,C,0
1,prac,1,0.0,1-Back,1.0,m,Thu Feb 05 2026 11:09:26 GMT-0500 (Eastern Standard Time),134112.1000000015,098_y_f_n_a.png,I,m,990,2,2,1825.2000000029802,132286.8999999985,9033,NNB,C,1
2,prac,1,1.0,1-Back,1.0,z,Thu Feb 05 2026 11:09:26 GMT-0500 (Eastern Standard Time),135962.3999999985,098_y_f_n_a.png,I,z,1071,3,2,1843.7999999970198,134118.6000000015,9033,NNB,C,2
3,prac,1,0.0,1-Back,1.0,m,Thu Feb 05 2026 11:09:26 GMT-0500 (Eastern Standard Time),137995.30000000447,059_o_m_n_a.png,I,m,1185,4,2,2024.3000000044703,135971.0,9033,NNB,C,3
4,prac,1,0.0,1-Back,1.0,m,Thu Feb 05 2026 11:09:26 GMT-0500 (Eastern Standard Time),139795.1000000015,092_m_m_n_a.png,I,m,951,5,2,1793.2000000029802,138001.8999999985,9033,NNB,C,4
5,prac,1,1.0,1-Back,1.0,z,Thu Feb 05 2026 11:09:26 GMT-0500 (Eastern Standard Time),141328.6000000015,092_m_m_n_a.png,I,z,756,6,2,1526.8999999985099,139801.70000000298,9033,NNB,C,5
6,prac,1,0.0,1-Back,1.0,m,Thu Feb 05 2026 11:09:26 GMT-0500 (Eastern Standard Time),143245.8999999985,130_o_f_n_a.png,I,m,1051,7,2,1908.5999999940395,141337.30000000447,9033,NNB,C,6
7,prac,1,0.0,1-Back,1.0,m,Thu Feb 05 2026 11:09:26 GMT-0500 (Eastern Standard Time),145512.0,082_m_m_n_a.png,I,m,1420,8,2,2258.5,143253.5,9033,NNB,C,7
8,prac,1,0.0,1-Back,1.0,m,Thu Feb 05 2026 11:09:26 GMT-0500 (Eastern Standard Time),147178.3999999985,093_m_f_n_a.png,I,m,880,9,2,1661.5,145516.8999999985,9033,NNB,C,8
9,prac,1,1.0,1-Back,1.0,z,Thu Feb 05 2026 11:09:26 GMT-0500 (Eastern Standard Time),148845.3999999985,093_m_f_n_a.png,I,z,893,10,2,1660.6999999955297,147184.70000000298,9033,NNB,C,9
10,prac,1,0.0,1-Back,1.0,m,Thu Feb 05 2026 11:09:26 GMT-0500 (Eastern Standard Time),150529.0,059_o_m_n_a.png,I,m,894,11,2,1673.6000000014901,148855.3999999985,9033,NNB,C,10
11,prac,1,0.0,1-Back,1.0,m,Thu Feb 05 2026 11:09:26 GMT-0500 (Eastern Standard Time),152345.3999999985,028_y_f_n_a.png,I,m,970,12,2,1808.0,150537.3999999985,9033,NNB,C,11
0,test,1,0.0,1-Back,,,Thu Feb 05 2026 11:09:26 GMT-0500 (Eastern Standard Time),152345.3999999985,098_y_f_n_a.png,I,space,6771,1,2,1808.0,150537.3999999985,9033,NNB,C,0
1,test,1,0.0,1-Back,1.0,m,Thu Feb 05 2026 11:09:26 GMT-0500 (Eastern Standard Time),176595.20000000298,006_m_f_n_a.png,I,m,728,2,2,1745.7000000029802,174849.5,9033,NNB,C,1
2,test,1,0.0,1-Back,1.0,m,Thu Feb 05 2026 11:09:26 GMT-0500 (Eastern Standard Time),178511.8999999985,028_y_f_n_a.png,I,m,898,3,2,1911.0999999940395,176600.80000000447,9033,NNB,C,2
3,test,1,1.0,1-Back,1.0,z,Thu Feb 05 2026 11:09:26 GMT-0500 (Eastern Standard Time),180228.3999999985,028_y_f_n_a.png,I,z,693,4,2,1713.6999999955297,178514.70000000298,9033,NNB,C,3
4,test,1,0.0,1-Back,1.0,m,Thu Feb 05 2026 11:09:26 GMT-0500 (Eastern Standard Time),181861.8999999985,006_m_f_n_a.png,I,m,608,5,2,1628.8999999985099,180233.0,9033,NNB,C,4
5,test,1,0.0,1-Back,1.0,m,Thu Feb 05 2026 11:09:26 GMT-0500 (Eastern Standard Time),183728.6000000015,059_o_m_n_a.png,I,m,839,6,2,1859.7999999970198,181868.80000000447,9033,NNB,C,5
6,test,1,1.0,1-Back,1.0,z,Thu Feb 05 2026 11:09:26 GMT-0500 (Eastern Standard Time),185894.70000000298,059_o_m_n_a.png,I,z,1147,7,2,2161.3000000044703,183733.3999999985,9033,NNB,C,6
7,test,1,0.0,1-Back,1.0,m,Thu Feb 05 2026 11:09:26 GMT-0500 (Eastern Standard Time),187528.3999999985,092_m_m_n_a.png,I,m,614,8,2,1629.5,185898.8999999985,9033,NNB,C,7
8,test,1,0.0,1-Back,1.0,m,Thu Feb 05 2026 11:09:26 GMT-0500 (Eastern Standard Time),189328.3999999985,130_o_f_n_a.png,I,m,781,9,2,1792.0,187536.3999999985,9033,NNB,C,8
9,test,1,0.0,1-Back,1.0,m,Thu Feb 05 2026 11:09:26 GMT-0500 (Eastern Standard Time),191461.70000000298,092_m_m_n_a.png,I,m,1109,10,2,2128.60000000149,189333.1000000015,9033,NNB,C,9
10,test,1,0.0,1-Back,1.0,m,Thu Feb 05 2026 11:09:26 GMT-0500 (Eastern Standard Time),193295.1000000015,057_y_m_n_a.png,I,m,808,11,2,1828.5,191466.6000000015,9033,NNB,C,10
11,test,1,1.0,1-Back,1.0,z,Thu Feb 05 2026 11:09:26 GMT-0500 (Eastern Standard Time),195028.5,057_y_m_n_a.png,I,z,710,12,2,1727.6000000014901,193300.8999999985,9033,NNB,C,11
12,test,1,0.0,1-Back,1.0,m,Thu Feb 05 2026 11:09:26 GMT-0500 (Eastern Standard Time),196828.5,030_o_f_n_a.png,I,m,776,13,2,1795.6999999955297,195032.80000000447,9033,NNB,C,12
13,test,1,1.0,1-Back,1.0,z,Thu Feb 05 2026 11:09:26 GMT-0500 (Eastern Standard Time),198712.1000000015,030_o_f_n_a.png,I,z,864,14,2,1879.1000000014901,196833.0,9033,NNB,C,13
14,test,1,0.0,1-Back,1.0,m,Thu Feb 05 2026 11:09:26 GMT-0500 (Eastern Standard Time),200511.80000000447,031_y_m_n_a.png,I,m,773,15,2,1792.3000000044703,198719.5,9033,NNB,C,14
15,test,1,0.0,1-Back,1.0,m,Thu Feb 05 2026 11:09:26 GMT-0500 (Eastern Standard Time),202245.1000000015,093_m_f_n_a.png,I,m,701,16,2,1728.5,200516.6000000015,9033,NNB,C,15
16,test,1,0.0,1-Back,1.0,m,Thu Feb 05 2026 11:09:26 GMT-0500 (Eastern Standard Time),204011.70000000298,146_o_m_n_a.png,I,m,736,17,2,1761.3000000044703,202250.3999999985,9033,NNB,C,16
17,test,1,0.0,1-Back,1.0,m,Thu Feb 05 2026 11:09:26 GMT-0500 (Eastern Standard Time),205895.30000000447,093_m_f_n_a.png,I,m,857,18,2,1876.4000000059605,204018.8999999985,9033,NNB,C,17
0,test,2,0.0,1-Back,,,Thu Feb 05 2026 11:09:26 GMT-0500 (Eastern Standard Time),205895.30000000447,092_m_m_n_a.png,I,space,6925,1,2,1876.4000000059605,204018.8999999985,9033,NNB,C,0
1,test,2,0.0,1-Back,1.0,m,Thu Feb 05 2026 11:09:26 GMT-0500 (Eastern Standard Time),216528.5,006_m_f_n_a.png,I,m,664,2,2,1679.7999999970198,214848.70000000298,9033,NNB,C,1
2,test,2,1.0,1-Back,1.0,z,Thu Feb 05 2026 11:09:26 GMT-0500 (Eastern Standard Time),218745.0,006_m_f_n_a.png,I,z,1196,3,2,2208.39999999851,216536.6000000015,9033,NNB,C,2
3,test,2,0.0,1-Back,1.0,m,Thu Feb 05 2026 11:09:26 GMT-0500 (Eastern Standard Time),220328.5,092_m_m_n_a.png,I,m,564,4,2,1579.1999999955297,218749.30000000447,9033,NNB,C,3
4,test,2,0.0,1-Back,1.0,m,Thu Feb 05 2026 11:09:26 GMT-0500 (Eastern Standard Time),222178.3999999985,057_y_m_n_a.png,I,m,820,5,2,1844.5999999940395,220333.80000000447,9033,NNB,C,4
5,test,2,0.0,1-Back,1.0,m,Thu Feb 05 2026 11:09:26 GMT-0500 (Eastern Standard Time),224078.5,098_y_f_n_a.png,I,m,882,6,2,1893.6999999955297,222184.80000000447,9033,NNB,C,5
6,test,2,1.0,1-Back,1.0,z,Thu Feb 05 2026 11:09:26 GMT-0500 (Eastern Standard Time),225862.1000000015,098_y_f_n_a.png,I,z,750,7,2,1778.2000000029802,224083.8999999985,9033,NNB,C,6
7,test,2,0.0,1-Back,1.0,m,Thu Feb 05 2026 11:09:26 GMT-0500 (Eastern Standard Time),227744.80000000447,057_y_m_n_a.png,I,m,854,8,2,1877.1000000014901,225867.70000000298,9033,NNB,C,7
8,test,2,0.0,1-Back,1.0,m,Thu Feb 05 2026 11:09:26 GMT-0500 (Eastern Standard Time),229444.8999999985,030_o_f_n_a.png,I,m,675,9,2,1695.5,227749.3999999985,9033,NNB,C,8
9,test,2,0.0,1-Back,1.0,m,Thu Feb 05 2026 11:09:26 GMT-0500 (Eastern Standard Time),231312.20000000298,082_m_m_n_a.png,I,m,840,10,2,1863.5,229448.70000000298,9033,NNB,C,9
10,test,2,1.0,1-Back,1.0,z,Thu Feb 05 2026 11:09:26 GMT-0500 (Eastern Standard Time),233012.1000000015,082_m_m_n_a.png,I,z,677,11,2,1694.8999999985099,231317.20000000298,9033,NNB,C,10
11,test,2,0.0,1-Back,1.0,m,Thu Feb 05 2026 11:09:26 GMT-0500 (Eastern Standard Time),234744.80000000447,030_o_f_n_a.png,I,m,704,12,2,1726.8000000044703,233018.0,9033,NNB,C,11
12,test,2,0.0,1-Back,1.0,m,Thu Feb 05 2026 11:09:26 GMT-0500 (Eastern Standard Time),236545.30000000447,130_o_f_n_a.png,I,m,780,13,2,1797.9000000059605,234747.3999999985,9033,NNB,C,12
13,test,2,0.0,1-Back,1.0,m,Thu Feb 05 2026 11:09:26 GMT-0500 (Eastern Standard Time),238228.5,059_o_m_n_a.png,I,m,652,14,2,1678.5,236550.0,9033,NNB,C,13
14,test,2,0.0,1-Back,1.0,m,Thu Feb 05 2026 11:09:26 GMT-0500 (Eastern Standard Time),239961.30000000447,146_o_m_n_a.png,I,m,703,15,2,1725.6000000014901,238235.70000000298,9033,NNB,C,14
15,test,2,1.0,1-Back,1.0,z,Thu Feb 05 2026 11:09:26 GMT-0500 (Eastern Standard Time),241711.8999999985,146_o_m_n_a.png,I,z,723,16,2,1746.5999999940395,239965.30000000447,9033,NNB,C,15
16,test,2,0.0,1-Back,1.0,m,Thu Feb 05 2026 11:09:26 GMT-0500 (Eastern Standard Time),243161.8999999985,031_y_m_n_a.png,I,m,421,17,2,1444.6999999955297,241717.20000000298,9033,NNB,C,16
17,test,2,1.0,1-Back,1.0,z,Thu Feb 05 2026 11:09:26 GMT-0500 (Eastern Standard Time),245028.3999999985,031_y_m_n_a.png,I,z,843,18,2,1857.0,243171.3999999985,9033,NNB,C,17
0,test,3,1.0,1-Back,,,Thu Feb 05 2026 11:09:26 GMT-0500 (Eastern Standard Time),245028.3999999985,028_y_f_n_a.png,I,space,2641,1,2,1857.0,243171.3999999985,9033,NNB,C,0
1,test,3,0.0,1-Back,1.0,m,Thu Feb 05 2026 11:09:26 GMT-0500 (Eastern Standard Time),251394.70000000298,146_o_m_n_a.png,I,m,610,1,2,1627.1000000014901,249767.6000000015,9033,NNB,C,1
2,test,3,1.0,1-Back,1.0,z,Thu Feb 05 2026 11:09:26 GMT-0500 (Eastern Standard Time),253111.8999999985,146_o_m_n_a.png,I,z,698,1,2,1713.0999999940395,251398.80000000447,9033,NNB,C,2
3,test,3,0.0,1-Back,1.0,m,Thu Feb 05 2026 11:09:26 GMT-0500 (Eastern Standard Time),254828.0,093_m_f_n_a.png,I,m,684,1,2,1711.1000000014901,253116.8999999985,9033,NNB,C,3
4,test,3,1.0,1-Back,1.0,z,Thu Feb 05 2026 11:09:26 GMT-0500 (Eastern Standard Time),256561.6000000015,093_m_f_n_a.png,I,z,712,1,2,1729.2999999970198,254832.30000000447,9033,NNB,C,4
5,test,3,0.0,1-Back,1.0,m,Thu Feb 05 2026 11:09:26 GMT-0500 (Eastern Standard Time),258328.3999999985,030_o_f_n_a.png,I,m,748,1,2,1761.7999999970198,256566.6000000015,9033,NNB,C,5
6,test,3,0.0,1-Back,1.0,m,Thu Feb 05 2026 11:09:26 GMT-0500 (Eastern Standard Time),260145.30000000447,057_y_m_n_a.png,I,m,788,1,2,1811.5,258333.80000000447,9033,NNB,C,6
7,test,3,0.0,1-Back,1.0,m,Thu Feb 05 2026 11:09:26 GMT-0500 (Eastern Standard Time),262261.8999999985,030_o_f_n_a.png,I,m,1084,1,2,2112.0,260149.8999999985,9033,NNB,C,7
8,test,3,0.0,1-Back,1.0,m,Thu Feb 05 2026 11:09:26 GMT-0500 (Eastern Standard Time),264028.8999999985,031_y_m_n_a.png,I,m,743,1,2,1762.0,262266.8999999985,9033,NNB,C,8
9,test,3,1.0,1-Back,1.0,z,Thu Feb 05 2026 11:09:26 GMT-0500 (Eastern Standard Time),265861.6000000015,031_y_m_n_a.png,I,z,808,1,2,1828.2999999970198,264033.30000000447,9033,NNB,C,9
10,test,3,0.0,1-Back,1.0,m,Thu Feb 05 2026 11:09:26 GMT-0500 (Eastern Standard Time),267678.8999999985,006_m_f_n_a.png,I,m,801,1,2,1813.0999999940395,265865.80000000447,9033,NNB,C,10
10,test,3,0.0,1-Back,0.0,m,Thu Feb 05 2026 11:09:26 GMT-0500 (Eastern Standard Time),269528.6000000015,098_y_f_n_a.png,I,z,830,1,2,1844.8999999985099,267683.700000003,9033,NNB,C,11
10,test,3,1.0,1-Back,0.0,z,Thu Feb 05 2026 11:09:26 GMT-0500 (Eastern Standard Time),272561.3999999985,098_y_f_n_a.png,I,None,2015,1,2,3028.0999999940395,269533.30000000447,9033,NNB,C,12
11,test,3,0.0,1-Back,1.0,m,Thu Feb 05 2026 11:09:26 GMT-0500 (Eastern Standard Time),274295.1000000015,006_m_f_n_a.png,I,m,715,1,2,1730.7000000029802,272564.3999999985,9033,NNB,C,13
12,test,3,0.0,1-Back,1.0,m,Thu Feb 05 2026 11:09:26 GMT-0500 (Eastern Standard Time),276295.1000000015,092_m_m_n_a.png,I,m,981,1,2,1991.7000000029802,274303.3999999985,9033,NNB,C,14
13,test,3,1.0,1-Back,1.0,z,Thu Feb 05 2026 11:09:26 GMT-0500 (Eastern Standard Time),277995.0,092_m_m_n_a.png,I,z,670,1,2,1696.1999999955297,276298.80000000447,9033,NNB,C,15
14,test,3,0.0,1-Back,1.0,m,Thu Feb 05 2026 11:09:26 GMT-0500 (Eastern Standard Time),279761.700000003,130_o_f_n_a.png,I,m,746,1,2,1762.1000000014901,277999.6000000015,9033,NNB,C,16
14,test,3,1.0,1-Back,0.0,z,Thu Feb 05 2026 11:09:26 GMT-0500 (Eastern Standard Time),281995.3999999985,130_o_f_n_a.png,I,m,1211,1,2,2227.0,279768.3999999985,9033,NNB,C,17
0,test,4,1.0,1-Back,,,Thu Feb 05 2026 11:09:26 GMT-0500 (Eastern Standard Time),281995.3999999985,093_m_f_n_a.png,I,space,4041,1,2,2227.0,279768.3999999985,9033,NNB,C,0
1,test,4,0.0,1-Back,1.0,m,Thu Feb 05 2026 11:09:26 GMT-0500 (Eastern Standard Time),289911.700000003,146_o_m_n_a.png,I,m,765,2,2,1779.8999999985099,288131.80000000447,9033,NNB,C,1
2,test,4,0.0,1-Back,1.0,m,Thu Feb 05 2026 11:09:26 GMT-0500 (Eastern Standard Time),291878.5,093_m_f_n_a.png,I,m,941,3,2,1958.7999999970198,289919.700000003,9033,NNB,C,2
3,test,4,0.0,1-Back,1.0,m,Thu Feb 05 2026 11:09:26 GMT-0500 (Eastern Standard Time),293528.200000003,030_o_f_n_a.png,I,m,629,4,2,1644.1000000014901,291884.1000000015,9033,NNB,C,3
4,test,4,1.0,1-Back,1.0,z,Thu Feb 05 2026 11:09:26 GMT-0500 (Eastern Standard Time),295245.3999999985,030_o_f_n_a.png,I,z,694,5,2,1715.1999999955297,293530.200000003,9033,NNB,C,4
5,test,4,0.0,1-Back,1.0,m,Thu Feb 05 2026 11:09:26 GMT-0500 (Eastern Standard Time),297045.1000000015,098_y_f_n_a.png,I,m,776,6,2,1792.3999999985099,295252.700000003,9033,NNB,C,5
6,test,4,0.0,1-Back,1.0,m,Thu Feb 05 2026 11:09:26 GMT-0500 (Eastern Standard Time),298761.80000000447,057_y_m_n_a.png,I,m,695,7,2,1712.0,297049.80000000447,9033,NNB,C,6
6,test,4,1.0,1-Back,0.0,z,Thu Feb 05 2026 11:09:26 GMT-0500 (Eastern Standard Time),300961.8999999985,057_y_m_n_a.png,I,m,1179,8,2,2196.39999999851,298765.5,9033,NNB,C,7
7,test,4,0.0,1-Back,1.0,m,Thu Feb 05 2026 11:09:26 GMT-0500 (Eastern Standard Time),302695.200000003,098_y_f_n_a.png,I,m,715,9,2,1725.7000000029802,300969.5,9033,NNB,C,8
8,test,4,0.0,1-Back,1.0,m,Thu Feb 05 2026 11:09:26 GMT-0500 (Eastern Standard Time),304311.700000003,082_m_m_n_a.png,I,m,598,10,2,1612.6000000014901,302699.1000000015,9033,NNB,C,9
9,test,4,1.0,1-Back,1.0,z,Thu Feb 05 2026 11:09:26 GMT-0500 (Eastern Standard Time),306178.1000000015,082_m_m_n_a.png,I,z,844,11,2,1861.7999999970198,304316.30000000447,9033,NNB,C,10
10,test,4,0.0,1-Back,1.0,m,Thu Feb 05 2026 11:09:26 GMT-0500 (Eastern Standard Time),308295.30000000447,130_o_f_n_a.png,I,m,1098,12,2,2111.8000000044703,306183.5,9033,NNB,C,11
11,test,4,0.0,1-Back,1.0,m,Thu Feb 05 2026 11:09:26 GMT-0500 (Eastern Standard Time),310912.200000003,059_o_m_n_a.png,I,m,1590,13,2,2612.2000000029802,308300.0,9033,NNB,C,12
11,test,4,0.0,1-Back,0.0,m,Thu Feb 05 2026 11:09:26 GMT-0500 (Eastern Standard Time),313944.8999999985,130_o_f_n_a.png,I,None,2017,14,2,3028.0,310916.8999999985,9033,NNB,C,13
12,test,4,0.0,1-Back,1.0,m,Thu Feb 05 2026 11:09:26 GMT-0500 (Eastern Standard Time),315761.30000000447,028_y_f_n_a.png,I,m,796,15,2,1810.9000000059605,313950.3999999985,9033,NNB,C,14
13,test,4,1.0,1-Back,1.0,z,Thu Feb 05 2026 11:09:26 GMT-0500 (Eastern Standard Time),317444.6000000015,028_y_f_n_a.png,I,z,651,16,2,1679.6000000014901,315765.0,9033,NNB,C,15
14,test,4,0.0,1-Back,1.0,m,Thu Feb 05 2026 11:09:26 GMT-0500 (Eastern Standard Time),319245.3999999985,006_m_f_n_a.png,I,m,768,17,2,1796.5,317448.8999999985,9033,NNB,C,16
14,test,4,1.0,1-Back,0.0,z,Thu Feb 05 2026 11:09:26 GMT-0500 (Eastern Standard Time),321278.6000000015,006_m_f_n_a.png,I,m,1000,18,2,2027.5,319251.1000000015,9033,NNB,C,17
0,test,5,1.0,1-Back,,,Thu Feb 05 2026 11:09:26 GMT-0500 (Eastern Standard Time),321278.6000000015,059_o_m_n_a.png,I,space,2854,1,2,2027.5,319251.1000000015,9033,NNB,C,0
1,test,5,1.0,1-Back,1.0,z,Thu Feb 05 2026 11:09:26 GMT-0500 (Eastern Standard Time),327861.3999999985,059_o_m_n_a.png,I,z,675,2,2,1695.8999999985099,326165.5,9033,NNB,C,1
2,test,5,0.0,1-Back,1.0,m,Thu Feb 05 2026 11:09:26 GMT-0500 (Eastern Standard Time),329661.6000000015,098_y_f_n_a.png,I,m,776,3,2,1795.5,327866.1000000015,9033,NNB,C,2
3,test,5,0.0,1-Back,1.0,m,Thu Feb 05 2026 11:09:26 GMT-0500 (Eastern Standard Time),331544.8999999985,057_y_m_n_a.png,I,m,863,4,2,1878.5999999940395,329666.30000000447,9033,NNB,C,3
4,test,5,0.0,1-Back,1.0,m,Thu Feb 05 2026 11:09:26 GMT-0500 (Eastern Standard Time),333294.8999999985,098_y_f_n_a.png,I,m,732,5,2,1745.5,331549.3999999985,9033,NNB,C,4
5,test,5,0.0,1-Back,1.0,m,Thu Feb 05 2026 11:09:26 GMT-0500 (Eastern Standard Time),335194.700000003,092_m_m_n_a.png,I,m,869,6,2,1895.8000000044703,333298.8999999985,9033,NNB,C,5
6,test,5,1.0,1-Back,1.0,z,Thu Feb 05 2026 11:09:26 GMT-0500 (Eastern Standard Time),337061.8999999985,092_m_m_n_a.png,I,z,842,7,2,1862.0,335199.8999999985,9033,NNB,C,6
7,test,5,0.0,1-Back,1.0,m,Thu Feb 05 2026 11:09:26 GMT-0500 (Eastern Standard Time),338961.3999999985,028_y_f_n_a.png,I,m,870,8,2,1895.7999999970198,337065.6000000015,9033,NNB,C,7
8,test,5,0.0,1-Back,1.0,m,Thu Feb 05 2026 11:09:26 GMT-0500 (Eastern Standard Time),340811.30000000447,031_y_m_n_a.png,I,m,826,9,2,1846.1000000014901,338965.200000003,9033,NNB,C,8
9,test,5,0.0,1-Back,1.0,m,Thu Feb 05 2026 11:09:26 GMT-0500 (Eastern Standard Time),342761.700000003,028_y_f_n_a.png,I,m,922,10,2,1946.8999999985099,340814.80000000447,9033,NNB,C,9
10,test,5,0.0,1-Back,1.0,m,Thu Feb 05 2026 11:09:26 GMT-0500 (Eastern Standard Time),344594.80000000447,130_o_f_n_a.png,I,m,810,11,2,1827.7000000029802,342767.1000000015,9033,NNB,C,10
10,test,5,1.0,1-Back,0.0,z,Thu Feb 05 2026 11:09:26 GMT-0500 (Eastern Standard Time),346578.5,130_o_f_n_a.png,I,m,954,12,2,1979.2999999970198,344599.200000003,9033,NNB,C,11
11,test,5,0.0,1-Back,1.0,m,Thu Feb 05 2026 11:09:26 GMT-0500 (Eastern Standard Time),348311.3999999985,146_o_m_n_a.png,I,m,705,13,2,1728.5999999940395,346582.80000000447,9033,NNB,C,12
12,test,5,0.0,1-Back,1.0,m,Thu Feb 05 2026 11:09:26 GMT-0500 (Eastern Standard Time),349845.0,093_m_f_n_a.png,I,m,501,14,2,1529.8999999985099,348315.1000000015,9033,NNB,C,13
13,test,5,1.0,1-Back,1.0,z,Thu Feb 05 2026 11:09:26 GMT-0500 (Eastern Standard Time),351462.0,093_m_f_n_a.png,I,z,592,15,2,1612.1000000014901,349849.8999999985,9033,NNB,C,14
14,test,5,0.0,1-Back,1.0,m,Thu Feb 05 2026 11:09:26 GMT-0500 (Eastern Standard Time),353161.8999999985,146_o_m_n_a.png,I,m,679,16,2,1695.1999999955297,351466.700000003,9033,NNB,C,15
15,test,5,0.0,1-Back,1.0,m,Thu Feb 05 2026 11:09:26 GMT-0500 (Eastern Standard Time),355295.1000000015,006_m_f_n_a.png,I,m,1115,17,2,2128.7999999970198,353166.30000000447,9033,NNB,C,16
16,test,5,0.0,1-Back,1.0,m,Thu Feb 05 2026 11:09:26 GMT-0500 (Eastern Standard Time),357594.700000003,082_m_m_n_a.png,I,m,1269,18,2,2296.3000000044703,355298.3999999985,9033,NNB,C,17
0,prac,1,0.0,2-Back,,,Thu Feb 05 2026 11:09:26 GMT-0500 (Eastern Standard Time),357594.700000003,031_y_m_n_a.png,I,space,3995,1,2,2296.3000000044703,355298.3999999985,9033,NNB,C,0
0,prac,1,0.0,2-Back,,,Thu Feb 05 2026 11:09:26 GMT-0500 (Eastern Standard Time),357594.700000003,006_m_f_n_a.png,I,space,3995,2,2,2296.3000000044703,355298.3999999985,9033,NNB,C,0
1,prac,1,1.0,2-Back,1.0,m,Thu Feb 05 2026 11:09:26 GMT-0500 (Eastern Standard Time),526878.8999999985,146_o_m_n_a.png,I,m,984,3,2,1828.0999999940395,525050.8000000045,9033,NNB,C,1
2,prac,1,0.0,2-Back,1.0,m,Thu Feb 05 2026 11:09:26 GMT-0500 (Eastern Standard Time),528628.5,130_o_f_n_a.png,I,m,885,4,2,1744.0,526884.5,9033,NNB,C,2
2,prac,1,0.0,2-Back,0.0,z,Thu Feb 05 2026 11:09:26 GMT-0500 (Eastern Standard Time),530378.3999999985,146_o_m_n_a.png,I,m,970,5,2,1743.0999999940395,528635.3000000045,9033,NNB,C,3
2,prac,1,1.0,2-Back,0.0,z,Thu Feb 05 2026 11:09:26 GMT-0500 (Eastern Standard Time),532562.200000003,130_o_f_n_a.png,I,m,1398,6,2,2178.8000000044703,530383.3999999985,9033,NNB,C,4
2,prac,1,0.0,2-Back,0.0,m,Thu Feb 05 2026 11:09:26 GMT-0500 (Eastern Standard Time),535035.8999999985,082_m_m_n_a.png,I,z,1686,7,2,2467.7999999970198,532568.1000000015,9033,NNB,C,5
3,prac,1,0.0,2-Back,1.0,m,Thu Feb 05 2026 11:09:26 GMT-0500 (Eastern Standard Time),537878.6000000015,059_o_m_n_a.png,I,m,1988,8,2,2840.2999999970198,535038.3000000045,9033,NNB,C,6
4,prac,1,0.0,2-Back,1.0,m,Thu Feb 05 2026 11:09:26 GMT-0500 (Eastern Standard Time),540211.8999999985,028_y_f_n_a.png,I,m,1503,9,2,2328.1999999955297,537883.700000003,9033,NNB,C,7
4,prac,1,1.0,2-Back,0.0,z,Thu Feb 05 2026 11:09:26 GMT-0500 (Eastern Standard Time),542995.200000003,059_o_m_n_a.png,I,None,2008,10,2,2775.8000000044703,540219.3999999985,9033,NNB,C,8
5,prac,1,0.0,2-Back,1.0,m,Thu Feb 05 2026 11:09:26 GMT-0500 (Eastern Standard Time),545462.0,098_y_f_n_a.png,I,m,1632,11,2,2461.6999999955297,543000.3000000045,9033,NNB,C,9
6,prac,1,0.0,2-Back,1.0,m,Thu Feb 05 2026 11:09:26 GMT-0500 (Eastern Standard Time),547345.3999999985,082_m_m_n_a.png,I,m,1101,12,2,1881.0,545464.3999999985,9033,NNB,C,10
0,prac,2,0.0,2-Back,,,Thu Feb 05 2026 11:09:26 GMT-0500 (Eastern Standard Time),547345.3999999985,031_y_m_n_a.png,I,a,7245,1,2,1881.0,545464.3999999985,9033,NNB,C,0
0,prac,2,0.0,2-Back,,,Thu Feb 05 2026 11:09:26 GMT-0500 (Eastern Standard Time),547345.3999999985,006_m_f_n_a.png,I,a,7245,2,2,1881.0,545464.3999999985,9033,NNB,C,0
1,prac,2,1.0,2-Back,1.0,m,Thu Feb 05 2026 11:09:26 GMT-0500 (Eastern Standard Time),561645.5,146_o_m_n_a.png,I,m,992,3,2,1841.7999999970198,559803.700000003,9033,NNB,C,1
2,prac,2,0.0,2-Back,1.0,m,Thu Feb 05 2026 11:09:26 GMT-0500 (Eastern Standard Time),563478.3999999985,130_o_f_n_a.png,I,m,977,4,2,1825.5999999940395,561652.8000000045,9033,NNB,C,2
3,prac,2,0.0,2-Back,1.0,z,Thu Feb 05 2026 11:09:26 GMT-0500 (Eastern Standard Time),565228.1000000015,146_o_m_n_a.png,I,z,962,5,2,1744.6000000014901,563483.5,9033,NNB,C,3
3,prac,2,1.0,2-Back,0.0,z,Thu Feb 05 2026 11:09:26 GMT-0500 (Eastern Standard Time),568011.8999999985,130_o_f_n_a.png,I,None,2009,6,2,2776.1999999955297,565235.700000003,9033,NNB,C,4
4,prac,2,0.0,2-Back,1.0,m,Thu Feb 05 2026 11:09:26 GMT-0500 (Eastern Standard Time),570312.0,082_m_m_n_a.png,I,m,1516,7,2,2293.7999999970198,568018.200000003,9033,NNB,C,5
5,prac,2,0.0,2-Back,1.0,m,Thu Feb 05 2026 11:09:26 GMT-0500 (Eastern Standard Time),572328.8000000045,059_o_m_n_a.png,I,m,1160,8,2,2007.8000000044703,570321.0,9033,NNB,C,6
6,prac,2,0.0,2-Back,1.0,m,Thu Feb 05 2026 11:09:26 GMT-0500 (Eastern Standard Time),574462.1000000015,028_y_f_n_a.png,I,m,1287,9,2,2129.0,572333.1000000015,9033,NNB,C,7
7,prac,2,1.0,2-Back,1.0,z,Thu Feb 05 2026 11:09:26 GMT-0500 (Eastern Standard Time),576211.700000003,059_o_m_n_a.png,I,z,971,10,2,1744.7000000029802,574467.0,9033,NNB,C,8
8,prac,2,0.0,2-Back,1.0,m,Thu Feb 05 2026 11:09:26 GMT-0500 (Eastern Standard Time),578128.700000003,098_y_f_n_a.png,I,m,1077,11,2,1910.5,576218.200000003,9033,NNB,C,9
9,prac,2,0.0,2-Back,1.0,m,Thu Feb 05 2026 11:09:26 GMT-0500 (Eastern Standard Time),579828.700000003,082_m_m_n_a.png,I,m,917,12,2,1691.7000000029802,578137.0,9033,NNB,C,10
0,test,1,0.0,2-Back,,,Thu Feb 05 2026 11:09:26 GMT-0500 (Eastern Standard Time),579828.700000003,057_y_m_n_a.png,I,space,1437,1,2,1691.7000000029802,578137.0,9033,NNB,C,0
0,test,1,0.0,2-Back,,,Thu Feb 05 2026 11:09:26 GMT-0500 (Eastern Standard Time),579828.700000003,057_y_m_n_a.png,I,space,1437,2,2,1691.7000000029802,578137.0,9033,NNB,C,0
1,test,1,0.0,2-Back,1.0,m,Thu Feb 05 2026 11:09:26 GMT-0500 (Eastern Standard Time),603778.700000003,130_o_f_n_a.png,I,m,437,3,2,1462.2000000029802,602316.5,9033,NNB,C,1
2,test,1,0.0,2-Back,1.0,m,Thu Feb 05 2026 11:09:26 GMT-0500 (Eastern Standard Time),605644.8000000045,092_m_m_n_a.png,I,m,842,4,2,1861.3000000044703,603783.5,9033,NNB,C,2
3,test,1,1.0,2-Back,1.0,z,Thu Feb 05 2026 11:09:26 GMT-0500 (Eastern Standard Time),607478.0,130_o_f_n_a.png,I,z,815,5,2,1827.8999999985099,605650.1000000015,9033,NNB,C,3
4,test,1,0.0,2-Back,1.0,m,Thu Feb 05 2026 11:09:26 GMT-0500 (Eastern Standard Time),609761.8000000045,098_y_f_n_a.png,I,m,1254,6,2,2278.8000000044703,607483.0,9033,NNB,C,4
4,test,1,0.0,2-Back,0.0,m,Thu Feb 05 2026 11:09:26 GMT-0500 (Eastern Standard Time),611778.200000003,092_m_m_n_a.png,I,z,986,7,2,2011.8999999985099,609766.3000000045,9033,NNB,C,5
5,test,1,1.0,2-Back,1.0,z,Thu Feb 05 2026 11:09:26 GMT-0500 (Eastern Standard Time),614095.200000003,098_y_f_n_a.png,I,z,1298,8,2,2313.89999999851,611781.3000000045,9033,NNB,C,6
6,test,1,0.0,2-Back,1.0,m,Thu Feb 05 2026 11:09:26 GMT-0500 (Eastern Standard Time),616161.5,031_y_m_n_a.png,I,m,1045,9,2,2062.7999999970198,614098.700000003,9033,NNB,C,7
7,test,1,0.0,2-Back,1.0,m,Thu Feb 05 2026 11:09:26 GMT-0500 (Eastern Standard Time),617978.3000000045,030_o_f_n_a.png,I,m,795,10,2,1812.5,616165.8000000045,9033,NNB,C,8
7,test,1,1.0,2-Back,0.0,z,Thu Feb 05 2026 11:09:26 GMT-0500 (Eastern Standard Time),620178.6000000015,031_y_m_n_a.png,I,m,1171,11,2,2195.39999999851,617983.200000003,9033,NNB,C,9
8,test,1,0.0,2-Back,1.0,m,Thu Feb 05 2026 11:09:26 GMT-0500 (Eastern Standard Time),622045.200000003,006_m_f_n_a.png,I,m,842,12,2,1861.3000000044703,620183.8999999985,9033,NNB,C,10
9,test,1,0.0,2-Back,1.0,m,Thu Feb 05 2026 11:09:26 GMT-0500 (Eastern Standard Time),624545.200000003,006_m_f_n_a.png,I,m,1480,13,2,2495.10000000149,622050.1000000015,9033,NNB,C,11
10,test,1,0.0,2-Back,1.0,m,Thu Feb 05 2026 11:09:26 GMT-0500 (Eastern Standard Time),626761.8999999985,146_o_m_n_a.png,I,m,1189,14,2,2211.6999999955297,624550.200000003,9033,NNB,C,12
11,test,1,0.0,2-Back,1.0,m,Thu Feb 05 2026 11:09:26 GMT-0500 (Eastern Standard Time),628778.3999999985,030_o_f_n_a.png,I,m,988,15,2,2009.5,626768.8999999985,9033,NNB,C,13
11,test,1,1.0,2-Back,0.0,z,Thu Feb 05 2026 11:09:26 GMT-0500 (Eastern Standard Time),630728.5,146_o_m_n_a.png,I,m,930,16,2,1945.6000000014901,628782.8999999985,9033,NNB,C,14
12,test,1,0.0,2-Back,1.0,m,Thu Feb 05 2026 11:09:26 GMT-0500 (Eastern Standard Time),632795.1000000015,093_m_f_n_a.png,I,m,1036,17,2,2063.2000000029802,630731.8999999985,9033,NNB,C,15
13,test,1,0.0,2-Back,1.0,m,Thu Feb 05 2026 11:09:26 GMT-0500 (Eastern Standard Time),634861.6000000015,082_m_m_n_a.png,I,m,1042,18,2,2061.5,632800.1000000015,9033,NNB,C,16
0,test,2,0.0,2-Back,,,Thu Feb 05 2026 11:09:26 GMT-0500 (Eastern Standard Time),634861.6000000015,082_m_m_n_a.png,I,space,5113,1,2,2061.5,632800.1000000015,9033,NNB,C,0
0,test,2,0.0,2-Back,,,Thu Feb 05 2026 11:09:26 GMT-0500 (Eastern Standard Time),634861.6000000015,028_y_f_n_a.png,I,space,5113,2,2,2061.5,632800.1000000015,9033,NNB,C,0
1,test,2,1.0,2-Back,1.0,z,Thu Feb 05 2026 11:09:26 GMT-0500 (Eastern Standard Time),647062.1000000015,082_m_m_n_a.png,I,z,934,3,2,1962.3999999985099,645099.700000003,9033,NNB,C,1
1,test,2,0.0,2-Back,0.0,m,Thu Feb 05 2026 11:09:26 GMT-0500 (Eastern Standard Time),649061.8999999985,093_m_f_n_a.png,I,z,967,4,2,1993.7999999970198,647068.1000000015,9033,NNB,C,2
2,test,2,0.0,2-Back,1.0,m,Thu Feb 05 2026 11:09:26 GMT-0500 (Eastern Standard Time),651278.3999999985,028_y_f_n_a.png,I,m,1191,5,2,2211.6999999955297,649066.700000003,9033,NNB,C,3
3,test,2,0.0,2-Back,1.0,m,Thu Feb 05 2026 11:09:26 GMT-0500 (Eastern Standard Time),653178.3999999985,146_o_m_n_a.png,I,m,871,6,2,1894.6999999955297,651283.700000003,9033,NNB,C,4
4,test,2,0.0,2-Back,1.0,m,Thu Feb 05 2026 11:09:26 GMT-0500 (Eastern Standard Time),655062.1000000015,098_y_f_n_a.png,I,m,866,7,2,1879.0,653183.1000000015,9033,NNB,C,5
5,test,2,1.0,2-Back,1.0,z,Thu Feb 05 2026 11:09:26 GMT-0500 (Eastern Standard Time),657095.0,146_o_m_n_a.png,I,z,1015,8,2,2025.5,655069.5,9033,NNB,C,6
6,test,2,0.0,2-Back,1.0,m,Thu Feb 05 2026 11:09:26 GMT-0500 (Eastern Standard Time),659161.700000003,031_y_m_n_a.png,I,m,1045,9,2,2063.0,657098.700000003,9033,NNB,C,7
6,test,2,0.0,2-Back,0.0,m,Thu Feb 05 2026 11:09:26 GMT-0500 (Eastern Standard Time),661845.0,031_y_m_n_a.png,I,z,1651,10,2,2681.0,659164.0,9033,NNB,C,8
7,test,2,0.0,2-Back,1.0,m,Thu Feb 05 2026 11:09:26 GMT-0500 (Eastern Standard Time),664011.5,006_m_f_n_a.png,I,m,1136,11,2,2161.2999999970198,661850.200000003,9033,NNB,C,9
8,test,2,0.0,2-Back,1.0,m,Thu Feb 05 2026 11:09:26 GMT-0500 (Eastern Standard Time),666278.5,028_y_f_n_a.png,I,m,1241,12,2,2262.7999999970198,664015.700000003,9033,NNB,C,10
9,test,2,1.0,2-Back,1.0,z,Thu Feb 05 2026 11:09:26 GMT-0500 (Eastern Standard Time),668228.5,006_m_f_n_a.png,I,z,926,13,2,1944.8999999985099,666283.6000000015,9033,NNB,C,11
10,test,2,0.0,2-Back,1.0,m,Thu Feb 05 2026 11:09:26 GMT-0500 (Eastern Standard Time),670328.700000003,059_o_m_n_a.png,I,m,1080,14,2,2094.3000000044703,668234.3999999985,9033,NNB,C,12
10,test,2,0.0,2-Back,0.0,m,Thu Feb 05 2026 11:09:26 GMT-0500 (Eastern Standard Time),672445.200000003,059_o_m_n_a.png,I,z,1093,15,2,2112.2000000029802,670333.0,9033,NNB,C,13
11,test,2,0.0,2-Back,1.0,m,Thu Feb 05 2026 11:09:26 GMT-0500 (Eastern Standard Time),674362.0,030_o_f_n_a.png,I,m,887,16,2,1911.6000000014901,672450.3999999985,9033,NNB,C,14
12,test,2,0.0,2-Back,1.0,m,Thu Feb 05 2026 11:09:26 GMT-0500 (Eastern Standard Time),676728.3000000045,092_m_m_n_a.png,I,m,1347,17,2,2362.3000000044703,674366.0,9033,NNB,C,15
12,test,2,1.0,2-Back,0.0,z,Thu Feb 05 2026 11:09:26 GMT-0500 (Eastern Standard Time),679361.8999999985,030_o_f_n_a.png,I,m,1612,18,2,2629.6999999955297,676732.200000003,9033,NNB,C,16
0,test,3,1.0,2-Back,,,Thu Feb 05 2026 11:09:26 GMT-0500 (Eastern Standard Time),679361.8999999985,057_y_m_n_a.png,I,space,2947,1,2,2629.6999999955297,676732.200000003,9033,NNB,C,0
0,test,3,1.0,2-Back,,,Thu Feb 05 2026 11:09:26 GMT-0500 (Eastern Standard Time),679361.8999999985,057_y_m_n_a.png,I,space,2947,2,2,2629.6999999955297,676732.200000003,9033,NNB,C,0
1,test,3,0.0,2-Back,1.0,m,Thu Feb 05 2026 11:09:26 GMT-0500 (Eastern Standard Time),689128.700000003,030_o_f_n_a.png,I,m,672,3,2,1697.5,687431.200000003,9033,NNB,C,1
1,test,3,0.0,2-Back,0.0,m,Thu Feb 05 2026 11:09:26 GMT-0500 (Eastern Standard Time),692162.3000000045,082_m_m_n_a.png,I,None,2016,4,2,3029.10000000149,689133.200000003,9033,NNB,C,2
2,test,3,1.0,2-Back,1.0,z,Thu Feb 05 2026 11:09:26 GMT-0500 (Eastern Standard Time),693928.700000003,030_o_f_n_a.png,I,z,747,5,2,1761.3999999985099,692167.3000000045,9033,NNB,C,3
3,test,3,0.0,2-Back,1.0,m,Thu Feb 05 2026 11:09:26 GMT-0500 (Eastern Standard Time),696178.5,031_y_m_n_a.png,I,m,1228,6,2,2245.60000000149,693932.8999999985,9033,NNB,C,4
4,test,3,0.0,2-Back,1.0,m,Thu Feb 05 2026 11:09:26 GMT-0500 (Eastern Standard Time),698145.3000000045,082_m_m_n_a.png,I,m,947,7,2,1961.7000000029802,696183.6000000015,9033,NNB,C,5
4,test,3,1.0,2-Back,0.0,z,Thu Feb 05 2026 11:09:26 GMT-0500 (Eastern Standard Time),700262.0,031_y_m_n_a.png,I,m,1092,8,2,2111.7999999970198,698150.200000003,9033,NNB,C,6
5,test,3,0.0,2-Back,1.0,m,Thu Feb 05 2026 11:09:26 GMT-0500 (Eastern Standard Time),702494.6000000015,028_y_f_n_a.png,I,m,1206,9,2,2228.5,700266.1000000015,9033,NNB,C,7
6,test,3,0.0,2-Back,1.0,m,Thu Feb 05 2026 11:09:26 GMT-0500 (Eastern Standard Time),704361.8000000045,092_m_m_n_a.png,I,m,837,10,2,1863.1000000014901,702498.700000003,9033,NNB,C,8
6,test,3,1.0,2-Back,0.0,z,Thu Feb 05 2026 11:09:26 GMT-0500 (Eastern Standard Time),706711.200000003,028_y_f_n_a.png,I,m,1322,11,2,2345.39999999851,704365.8000000045,9033,NNB,C,9
6,test,3,1.0,2-Back,0.0,z,Thu Feb 05 2026 11:09:26 GMT-0500 (Eastern Standard Time),708495.0,092_m_m_n_a.png,I,m,765,12,2,1781.6000000014901,706713.3999999985,9033,NNB,C,10
6,test,3,0.0,2-Back,0.0,m,Thu Feb 05 2026 11:09:26 GMT-0500 (Eastern Standard Time),711528.700000003,030_o_f_n_a.png,I,None,2017,13,2,3028.89999999851,708499.8000000045,9033,NNB,C,11
7,test,3,0.0,2-Back,1.0,m,Thu Feb 05 2026 11:09:26 GMT-0500 (Eastern Standard Time),713511.8999999985,093_m_f_n_a.png,I,m,956,14,2,1978.6999999955297,711533.200000003,9033,NNB,C,12
8,test,3,0.0,2-Back,1.0,m,Thu Feb 05 2026 11:09:26 GMT-0500 (Eastern Standard Time),715845.0,146_o_m_n_a.png,I,m,1308,15,2,2328.1999999955297,713516.8000000045,9033,NNB,C,13
9,test,3,1.0,2-Back,1.0,z,Thu Feb 05 2026 11:09:26 GMT-0500 (Eastern Standard Time),717678.0,093_m_f_n_a.png,I,z,807,16,2,1829.1999999955297,715848.8000000045,9033,NNB,C,14
10,test,3,0.0,2-Back,1.0,m,Thu Feb 05 2026 11:09:26 GMT-0500 (Eastern Standard Time),719861.3999999985,130_o_f_n_a.png,I,m,1150,17,2,2179.89999999851,717681.5,9033,NNB,C,15
10,test,3,0.0,2-Back,0.0,m,Thu Feb 05 2026 11:09:26 GMT-0500 (Eastern Standard Time),722895.0,130_o_f_n_a.png,I,None,2016,18,2,3028.2999999970198,719866.700000003,9033,NNB,C,16
0,test,4,0.0,2-Back,,,Thu Feb 05 2026 11:09:26 GMT-0500 (Eastern Standard Time),722895.0,059_o_m_n_a.png,I,space,4638,1,2,3028.2999999970198,719866.700000003,9033,NNB,C,0
0,test,4,0.0,2-Back,,,Thu Feb 05 2026 11:09:26 GMT-0500 (Eastern Standard Time),722895.0,098_y_f_n_a.png,I,space,4638,2,2,3028.2999999970198,719866.700000003,9033,NNB,C,0
0,test,4,1.0,2-Back,0.0,z,Thu Feb 05 2026 11:09:26 GMT-0500 (Eastern Standard Time),734578.700000003,059_o_m_n_a.png,I,m,821,3,2,1847.5,732731.200000003,9033,NNB,C,1
0,test,4,1.0,2-Back,0.0,z,Thu Feb 05 2026 11:09:26 GMT-0500 (Eastern Standard Time),737161.8000000045,098_y_f_n_a.png,I,m,1554,4,2,2578.60000000149,734583.200000003,9033,NNB,C,2
1,test,4,0.0,2-Back,1.0,m,Thu Feb 05 2026 11:09:26 GMT-0500 (Eastern Standard Time),739111.700000003,030_o_f_n_a.png,I,m,923,5,2,1945.5,737166.200000003,9033,NNB,C,3
2,test,4,0.0,2-Back,1.0,m,Thu Feb 05 2026 11:09:26 GMT-0500 (Eastern Standard Time),741961.8999999985,030_o_f_n_a.png,I,m,1821,6,2,2843.2999999970198,739118.6000000015,9033,NNB,C,4
3,test,4,0.0,2-Back,1.0,m,Thu Feb 05 2026 11:09:26 GMT-0500 (Eastern Standard Time),744645.1000000015,006_m_f_n_a.png,I,m,1659,7,2,2677.7000000029802,741967.3999999985,9033,NNB,C,5
4,test,4,0.0,2-Back,1.0,m,Thu Feb 05 2026 11:09:26 GMT-0500 (Eastern Standard Time),746544.8999999985,031_y_m_n_a.png,I,m,871,8,2,1896.1999999955297,744648.700000003,9033,NNB,C,6
5,test,4,1.0,2-Back,1.0,z,Thu Feb 05 2026 11:09:26 GMT-0500 (Eastern Standard Time),748595.200000003,006_m_f_n_a.png,I,z,1020,9,2,2046.3000000044703,746548.8999999985,9033,NNB,C,7
6,test,4,0.0,2-Back,1.0,m,Thu Feb 05 2026 11:09:26 GMT-0500 (Eastern Standard Time),750794.6000000015,092_m_m_n_a.png,I,m,1169,10,2,2194.10000000149,748600.5,9033,NNB,C,8
7,test,4,0.0,2-Back,1.0,m,Thu Feb 05 2026 11:09:26 GMT-0500 (Eastern Standard Time),752844.8000000045,031_y_m_n_a.png,I,m,1025,11,2,2047.1000000014901,750797.700000003,9033,NNB,C,9
8,test,4,0.0,2-Back,1.0,m,Thu Feb 05 2026 11:09:26 GMT-0500 (Eastern Standard Time),755162.0,130_o_f_n_a.png,I,m,1288,12,2,2312.10000000149,752849.8999999985,9033,NNB,C,10
9,test,4,0.0,2-Back,1.0,m,Thu Feb 05 2026 11:09:26 GMT-0500 (Eastern Standard Time),757577.8999999985,057_y_m_n_a.png,I,m,1394,13,2,2411.0,755166.8999999985,9033,NNB,C,11
9,test,4,1.0,2-Back,0.0,z,Thu Feb 05 2026 11:09:26 GMT-0500 (Eastern Standard Time),760611.3000000045,130_o_f_n_a.png,I,None,2016,14,2,3030.3000000044703,757581.0,9033,NNB,C,12
9,test,4,1.0,2-Back,0.0,z,Thu Feb 05 2026 11:09:26 GMT-0500 (Eastern Standard Time),762728.5,057_y_m_n_a.png,I,m,1097,15,2,2113.6999999955297,760614.8000000045,9033,NNB,C,13
10,test,4,0.0,2-Back,1.0,m,Thu Feb 05 2026 11:09:26 GMT-0500 (Eastern Standard Time),764762.200000003,082_m_m_n_a.png,I,m,1004,16,2,2031.0,762731.200000003,9033,NNB,C,14
11,test,4,0.0,2-Back,1.0,m,Thu Feb 05 2026 11:09:26 GMT-0500 (Eastern Standard Time),766811.700000003,093_m_f_n_a.png,I,m,1028,17,2,2047.8000000044703,764763.8999999985,9033,NNB,C,15
11,test,4,1.0,2-Back,0.0,z,Thu Feb 05 2026 11:09:26 GMT-0500 (Eastern Standard Time),768894.8000000045,082_m_m_n_a.png,I,m,1064,18,2,2077.3000000044703,766817.5,9033,NNB,C,16
0,test,5,1.0,2-Back,,,Thu Feb 05 2026 11:09:26 GMT-0500 (Eastern Standard Time),768894.8000000045,057_y_m_n_a.png,I,space,2254,1,2,2077.3000000044703,766817.5,9033,NNB,C,0
0,test,5,1.0,2-Back,,,Thu Feb 05 2026 11:09:26 GMT-0500 (Eastern Standard Time),768894.8000000045,093_m_f_n_a.png,I,space,2254,2,2,2077.3000000044703,766817.5,9033,NNB,C,0
0,test,5,1.0,2-Back,0.0,z,Thu Feb 05 2026 11:09:26 GMT-0500 (Eastern Standard Time),779245.3999999985,057_y_m_n_a.png,I,None,2016,3,2,3031.0999999940395,776214.3000000045,9033,NNB,C,1
1,test,5,1.0,2-Back,1.0,z,Thu Feb 05 2026 11:09:26 GMT-0500 (Eastern Standard Time),781145.1000000015,093_m_f_n_a.png,I,z,880,4,2,1894.2000000029802,779250.8999999985,9033,NNB,C,2
1,test,5,0.0,2-Back,0.0,m,Thu Feb 05 2026 11:09:26 GMT-0500 (Eastern Standard Time),784178.700000003,130_o_f_n_a.png,I,None,2017,5,2,3030.0,781148.700000003,9033,NNB,C,3
2,test,5,0.0,2-Back,1.0,m,Thu Feb 05 2026 11:09:26 GMT-0500 (Eastern Standard Time),786061.3999999985,057_y_m_n_a.png,I,m,857,6,2,1876.7999999970198,784184.6000000015,9033,NNB,C,4
3,test,5,0.0,2-Back,1.0,m,Thu Feb 05 2026 11:09:26 GMT-0500 (Eastern Standard Time),788211.5,028_y_f_n_a.png,I,m,1126,7,2,2146.10000000149,786065.3999999985,9033,NNB,C,5
4,test,5,0.0,2-Back,1.0,m,Thu Feb 05 2026 11:09:26 GMT-0500 (Eastern Standard Time),790445.0,130_o_f_n_a.png,I,m,1210,8,2,2229.2999999970198,788215.700000003,9033,NNB,C,6
4,test,5,1.0,2-Back,0.0,z,Thu Feb 05 2026 11:09:26 GMT-0500 (Eastern Standard Time),792528.5,028_y_f_n_a.png,I,m,1056,9,2,2078.7999999970198,790449.700000003,9033,NNB,C,7
5,test,5,0.0,2-Back,1.0,m,Thu Feb 05 2026 11:09:26 GMT-0500 (Eastern Standard Time),794628.3999999985,146_o_m_n_a.png,I,m,1068,10,2,2095.39999999851,792533.0,9033,NNB,C,8
5,test,5,0.0,2-Back,0.0,m,Thu Feb 05 2026 11:09:26 GMT-0500 (Eastern Standard Time),797028.3999999985,006_m_f_n_a.png,I,z,1376,11,2,2394.6999999955297,794633.700000003,9033,NNB,C,9
6,test,5,0.0,2-Back,1.0,m,Thu Feb 05 2026 11:09:26 GMT-0500 (Eastern Standard Time),799428.5,092_m_m_n_a.png,I,m,1369,12,2,2394.89999999851,797033.6000000015,9033,NNB,C,10
7,test,5,0.0,2-Back,1.0,m,Thu Feb 05 2026 11:09:26 GMT-0500 (Eastern Standard Time),801561.8999999985,146_o_m_n_a.png,I,m,1112,13,2,2129.1999999955297,799432.700000003,9033,NNB,C,11
7,test,5,1.0,2-Back,0.0,z,Thu Feb 05 2026 11:09:26 GMT-0500 (Eastern Standard Time),804595.3999999985,092_m_m_n_a.png,I,None,2016,14,2,3029.5,801565.8999999985,9033,NNB,C,12
7,test,5,0.0,2-Back,0.0,m,Thu Feb 05 2026 11:09:26 GMT-0500 (Eastern Standard Time),807628.3000000045,098_y_f_n_a.png,I,None,2015,15,2,3027.5,804600.8000000045,9033,NNB,C,13
8,test,5,0.0,2-Back,1.0,m,Thu Feb 05 2026 11:09:26 GMT-0500 (Eastern Standard Time),809511.8000000045,059_o_m_n_a.png,I,m,857,16,2,1879.1000000014901,807632.700000003,9033,NNB,C,14
9,test,5,0.0,2-Back,1.0,m,Thu Feb 05 2026 11:09:26 GMT-0500 (Eastern Standard Time),811778.5,006_m_f_n_a.png,I,m,1237,17,2,2258.0,809520.5,9033,NNB,C,15
10,test,5,1.0,2-Back,1.0,z,Thu Feb 05 2026 11:09:26 GMT-0500 (Eastern Standard Time),813478.6000000015,059_o_m_n_a.png,I,z,674,18,2,1695.7000000029802,811782.8999999985,9033,NNB,C,16
