acc_sum,block,block_c,change,condition,correct,correct_response,datetime,endtime,face,project,response,response_time,row_sel,session_number,start_end,starttime,subject_id,task,task_vers,trial
0,prac,1,,1-Back,,,Wed Jul 23 2025 15:19:16 GMT-0500 (Central Daylight Time),,050_m_f_n_a.png,O,space,11037,1,1,,,7186,NNB,A,0
1,prac,1,0.0,1-Back,1,m,Wed Jul 23 2025 15:19:16 GMT-0500 (Central Daylight Time),160541.39999997616,063_y_f_n_a.png,O,m,1310,2,1,2168.699999988079,158372.69999998808,7186,NNB,A,1
1,prac,1,1.0,1-Back,0,z,Wed Jul 23 2025 15:19:16 GMT-0500 (Central Daylight Time),163340.39999997616,063_y_f_n_a.png,O,None,2004,3,1,2771.100000023842,160569.29999995232,7186,NNB,A,2
2,prac,1,0.0,1-Back,1,m,Wed Jul 23 2025 15:19:16 GMT-0500 (Central Daylight Time),166121.79999995232,053_o_m_n_a.png,O,m,1915,4,1,2742.199999988079,163379.59999996424,7186,NNB,A,3
3,prac,1,0.0,1-Back,1,m,Wed Jul 23 2025 15:19:16 GMT-0500 (Central Daylight Time),168637.79999995232,058_m_m_n_a.png,O,m,1686,5,1,2505.5,166132.29999995232,7186,NNB,A,4
4,prac,1,1.0,1-Back,1,z,Wed Jul 23 2025 15:19:16 GMT-0500 (Central Daylight Time),170354.89999997616,058_m_m_n_a.png,O,z,931,6,1,1706.3999999761581,168648.5,7186,NNB,A,5
5,prac,1,0.0,1-Back,1,m,Wed Jul 23 2025 15:19:16 GMT-0500 (Central Daylight Time),172353.29999995232,047_o_f_n_a.png,O,m,1085,7,1,1972.699999988079,170380.59999996424,7186,NNB,A,6
6,prac,1,0.0,1-Back,1,m,Wed Jul 23 2025 15:19:16 GMT-0500 (Central Daylight Time),174053.69999998808,045_m_m_n_a.png,O,m,879,8,1,1688.199999988079,172365.5,7186,NNB,A,7
7,prac,1,0.0,1-Back,1,m,Wed Jul 23 2025 15:19:16 GMT-0500 (Central Daylight Time),176019.09999996424,050_m_f_n_a.png,O,m,1107,9,1,1926.8999999761581,174092.19999998808,7186,NNB,A,8
8,prac,1,1.0,1-Back,1,z,Wed Jul 23 2025 15:19:16 GMT-0500 (Central Daylight Time),177635.69999998808,050_m_f_n_a.png,O,z,819,10,1,1596.6000000238419,176039.09999996424,7186,NNB,A,9
9,prac,1,0.0,1-Back,1,m,Wed Jul 23 2025 15:19:16 GMT-0500 (Central Daylight Time),179435.19999998808,053_o_m_n_a.png,O,m,953,11,1,1767.9000000357628,177667.29999995232,7186,NNB,A,10
10,prac,1,0.0,1-Back,1,m,Wed Jul 23 2025 15:19:16 GMT-0500 (Central Daylight Time),181334.79999995232,010_y_f_n_a.png,O,m,997,12,1,1864.3999999761581,179470.39999997616,7186,NNB,A,11
0,test,1,0.0,1-Back,,,Wed Jul 23 2025 15:19:16 GMT-0500 (Central Daylight Time),181334.79999995232,063_y_f_n_a.png,O,space,8306,1,1,1864.3999999761581,179470.39999997616,7186,NNB,A,0
1,test,1,0.0,1-Back,1,m,Wed Jul 23 2025 15:19:16 GMT-0500 (Central Daylight Time),202961.0,043_m_f_n_a.png,O,m,704,2,1,1718.1000000238419,201242.89999997616,7186,NNB,A,1
2,test,1,0.0,1-Back,1,m,Wed Jul 23 2025 15:19:16 GMT-0500 (Central Daylight Time),205059.89999997616,010_y_f_n_a.png,O,m,1057,3,1,2073.600000023842,202986.29999995232,7186,NNB,A,2
3,test,1,1.0,1-Back,1,z,Wed Jul 23 2025 15:19:16 GMT-0500 (Central Daylight Time),207042.69999998808,010_y_f_n_a.png,O,z,942,4,1,1956.199999988079,205086.5,7186,NNB,A,3
4,test,1,0.0,1-Back,1,m,Wed Jul 23 2025 15:19:16 GMT-0500 (Central Daylight Time),208858.59999996424,043_m_f_n_a.png,O,m,775,5,1,1790.3999999761581,207068.19999998808,7186,NNB,A,4
5,test,1,0.0,1-Back,1,m,Wed Jul 23 2025 15:19:16 GMT-0500 (Central Daylight Time),210608.19999998808,053_o_m_n_a.png,O,m,712,6,1,1719.300000011921,208888.89999997616,7186,NNB,A,5
6,test,1,1.0,1-Back,1,z,Wed Jul 23 2025 15:19:16 GMT-0500 (Central Daylight Time),212507.79999995232,053_o_m_n_a.png,O,z,851,7,1,1872.5,210635.29999995232,7186,NNB,A,6
7,test,1,0.0,1-Back,1,m,Wed Jul 23 2025 15:19:16 GMT-0500 (Central Daylight Time),214390.29999995232,058_m_m_n_a.png,O,m,822,8,1,1850.0999999642372,212540.19999998808,7186,NNB,A,7
8,test,1,0.0,1-Back,1,m,Wed Jul 23 2025 15:19:16 GMT-0500 (Central Daylight Time),216256.39999997616,047_o_f_n_a.png,O,m,821,9,1,1840.1000000238419,214416.29999995232,7186,NNB,A,8
9,test,1,0.0,1-Back,1,m,Wed Jul 23 2025 15:19:16 GMT-0500 (Central Daylight Time),218173.29999995232,058_m_m_n_a.png,O,m,865,10,1,1885.0999999642372,216288.19999998808,7186,NNB,A,9
10,test,1,0.0,1-Back,1,m,Wed Jul 23 2025 15:19:16 GMT-0500 (Central Daylight Time),220171.69999998808,041_y_m_n_a.png,O,m,950,11,1,1975.199999988079,218196.5,7186,NNB,A,10
11,test,1,1.0,1-Back,1,z,Wed Jul 23 2025 15:19:16 GMT-0500 (Central Daylight Time),221721.19999998808,041_y_m_n_a.png,O,z,511,12,1,1518.6000000238419,220202.59999996424,7186,NNB,A,11
12,test,1,0.0,1-Back,1,m,Wed Jul 23 2025 15:19:16 GMT-0500 (Central Daylight Time),223603.0,044_o_f_n_a.png,O,m,833,13,1,1861.6000000238419,221741.39999997616,7186,NNB,A,12
13,test,1,1.0,1-Back,1,z,Wed Jul 23 2025 15:19:16 GMT-0500 (Central Daylight Time),225435.59999996424,044_o_f_n_a.png,O,z,815,14,1,1823.800000011921,223611.79999995232,7186,NNB,A,13
14,test,1,0.0,1-Back,1,m,Wed Jul 23 2025 15:19:16 GMT-0500 (Central Daylight Time),227168.39999997616,008_y_m_n_a.png,O,m,703,15,1,1721.6000000238419,225446.79999995232,7186,NNB,A,14
15,test,1,0.0,1-Back,1,m,Wed Jul 23 2025 15:19:16 GMT-0500 (Central Daylight Time),228834.69999998808,050_m_f_n_a.png,O,m,634,16,1,1657.800000011921,227176.89999997616,7186,NNB,A,15
16,test,1,0.0,1-Back,1,m,Wed Jul 23 2025 15:19:16 GMT-0500 (Central Daylight Time),230551.09999996424,046_o_m_n_a.png,O,m,694,17,1,1706.699999988079,228844.39999997616,7186,NNB,A,16
17,test,1,0.0,1-Back,1,m,Wed Jul 23 2025 15:19:16 GMT-0500 (Central Daylight Time),232634.29999995232,050_m_f_n_a.png,O,m,1035,18,1,2053.699999988079,230580.59999996424,7186,NNB,A,17
0,test,2,0.0,1-Back,,,Wed Jul 23 2025 15:19:16 GMT-0500 (Central Daylight Time),232634.29999995232,058_m_m_n_a.png,O,space,3151,1,1,2053.699999988079,230580.59999996424,7186,NNB,A,0
1,test,2,0.0,1-Back,1,m,Wed Jul 23 2025 15:19:16 GMT-0500 (Central Daylight Time),239664.5,043_m_f_n_a.png,O,m,794,2,1,1807.7000000476837,237856.79999995232,7186,NNB,A,1
2,test,2,1.0,1-Back,1,z,Wed Jul 23 2025 15:19:16 GMT-0500 (Central Daylight Time),241264.69999998808,043_m_f_n_a.png,O,z,570,3,1,1590.699999988079,239674.0,7186,NNB,A,2
3,test,2,0.0,1-Back,1,m,Wed Jul 23 2025 15:19:16 GMT-0500 (Central Daylight Time),243064.19999998808,058_m_m_n_a.png,O,m,761,4,1,1770.800000011921,241293.39999997616,7186,NNB,A,3
4,test,2,0.0,1-Back,1,m,Wed Jul 23 2025 15:19:16 GMT-0500 (Central Daylight Time),244947.0,041_y_m_n_a.png,O,m,842,5,1,1852.300000011921,243094.69999998808,7186,NNB,A,4
5,test,2,0.0,1-Back,1,m,Wed Jul 23 2025 15:19:16 GMT-0500 (Central Daylight Time),246695.79999995232,063_y_f_n_a.png,O,m,695,6,1,1715.699999988079,244980.09999996424,7186,NNB,A,5
5,test,2,1.0,1-Back,0,z,Wed Jul 23 2025 15:19:16 GMT-0500 (Central Daylight Time),248629.09999996424,063_y_f_n_a.png,O,m,890,7,1,1916.199999988079,246712.89999997616,7186,NNB,A,6
6,test,2,0.0,1-Back,1,m,Wed Jul 23 2025 15:19:16 GMT-0500 (Central Daylight Time),250560.79999995232,041_y_m_n_a.png,O,m,867,8,1,1899.0999999642372,248661.69999998808,7186,NNB,A,7
7,test,2,0.0,1-Back,1,m,Wed Jul 23 2025 15:19:16 GMT-0500 (Central Daylight Time),252261.39999997616,044_o_f_n_a.png,O,m,684,9,1,1691.699999988079,250569.69999998808,7186,NNB,A,8
8,test,2,0.0,1-Back,1,m,Wed Jul 23 2025 15:19:16 GMT-0500 (Central Daylight Time),254210.29999995232,045_m_m_n_a.png,O,m,884,10,1,1914.7999999523163,252295.5,7186,NNB,A,9
9,test,2,1.0,1-Back,1,z,Wed Jul 23 2025 15:19:16 GMT-0500 (Central Daylight Time),255875.69999998808,045_m_m_n_a.png,O,z,623,11,1,1643.300000011921,254232.39999997616,7186,NNB,A,10
10,test,2,0.0,1-Back,1,m,Wed Jul 23 2025 15:19:16 GMT-0500 (Central Daylight Time),257509.69999998808,044_o_f_n_a.png,O,m,617,12,1,1625.300000011921,255884.39999997616,7186,NNB,A,11
11,test,2,0.0,1-Back,1,m,Wed Jul 23 2025 15:19:16 GMT-0500 (Central Daylight Time),259375.39999997616,047_o_f_n_a.png,O,m,804,13,1,1834.199999988079,257541.19999998808,7186,NNB,A,12
12,test,2,0.0,1-Back,1,m,Wed Jul 23 2025 15:19:16 GMT-0500 (Central Daylight Time),261241.79999995232,053_o_m_n_a.png,O,m,819,14,1,1845.3999999761581,259396.39999997616,7186,NNB,A,13
13,test,2,0.0,1-Back,1,m,Wed Jul 23 2025 15:19:16 GMT-0500 (Central Daylight Time),262940.39999997616,046_o_m_n_a.png,O,m,656,15,1,1667.3999999761581,261273.0,7186,NNB,A,14
14,test,2,1.0,1-Back,1,z,Wed Jul 23 2025 15:19:16 GMT-0500 (Central Daylight Time),264790.5,046_o_m_n_a.png,O,z,822,16,1,1836.9000000357628,262953.59999996424,7186,NNB,A,15
15,test,2,0.0,1-Back,1,m,Wed Jul 23 2025 15:19:16 GMT-0500 (Central Daylight Time),266673.1999999881,008_y_m_n_a.png,O,m,836,17,1,1857.0,264816.1999999881,7186,NNB,A,16
16,test,2,1.0,1-Back,1,z,Wed Jul 23 2025 15:19:16 GMT-0500 (Central Daylight Time),268339.2999999523,008_y_m_n_a.png,O,z,626,18,1,1636.699999988079,266702.59999996424,7186,NNB,A,17
0,test,3,1.0,1-Back,,,Wed Jul 23 2025 15:19:16 GMT-0500 (Central Daylight Time),268339.2999999523,010_y_f_n_a.png,O,space,1567,1,1,1636.699999988079,266702.59999996424,7186,NNB,A,0
1,test,3,0.0,1-Back,1,m,Wed Jul 23 2025 15:19:16 GMT-0500 (Central Daylight Time),273754.2999999523,046_o_m_n_a.png,O,m,677,2,1,1699.0,272055.2999999523,7186,NNB,A,1
2,test,3,1.0,1-Back,1,z,Wed Jul 23 2025 15:19:16 GMT-0500 (Central Daylight Time),275635.89999997616,046_o_m_n_a.png,O,z,848,3,1,1852.800000011921,273783.09999996424,7186,NNB,A,2
3,test,3,0.0,1-Back,1,m,Wed Jul 23 2025 15:19:16 GMT-0500 (Central Daylight Time),277452.89999997616,050_m_f_n_a.png,O,m,790,4,1,1807.199999988079,275645.6999999881,7186,NNB,A,3
4,test,3,1.0,1-Back,1,z,Wed Jul 23 2025 15:19:16 GMT-0500 (Central Daylight Time),279102.0,050_m_f_n_a.png,O,z,614,5,1,1623.1000000238419,277478.89999997616,7186,NNB,A,4
5,test,3,0.0,1-Back,1,m,Wed Jul 23 2025 15:19:16 GMT-0500 (Central Daylight Time),280885.1999999881,044_o_f_n_a.png,O,m,741,6,1,1758.9000000357628,279126.2999999523,7186,NNB,A,5
6,test,3,0.0,1-Back,1,m,Wed Jul 23 2025 15:19:16 GMT-0500 (Central Daylight Time),282668.1999999881,041_y_m_n_a.png,O,m,715,7,1,1752.199999988079,280916.0,7186,NNB,A,6
7,test,3,0.0,1-Back,1,m,Wed Jul 23 2025 15:19:16 GMT-0500 (Central Daylight Time),284567.0,044_o_f_n_a.png,O,m,854,8,1,1869.5,282697.5,7186,NNB,A,7
8,test,3,0.0,1-Back,1,m,Wed Jul 23 2025 15:19:16 GMT-0500 (Central Daylight Time),286299.09999996424,008_y_m_n_a.png,O,m,690,9,1,1713.5999999642372,284585.5,7186,NNB,A,8
9,test,3,1.0,1-Back,1,z,Wed Jul 23 2025 15:19:16 GMT-0500 (Central Daylight Time),287898.59999996424,008_y_m_n_a.png,O,z,567,10,1,1590.8999999761581,286307.6999999881,7186,NNB,A,9
10,test,3,0.0,1-Back,1,m,Wed Jul 23 2025 15:19:16 GMT-0500 (Central Daylight Time),289715.5,043_m_f_n_a.png,O,m,786,11,1,1808.300000011921,287907.1999999881,7186,NNB,A,10
11,test,3,0.0,1-Back,1,m,Wed Jul 23 2025 15:19:16 GMT-0500 (Central Daylight Time),291481.6999999881,063_y_f_n_a.png,O,m,719,12,1,1737.0,289744.6999999881,7186,NNB,A,11
12,test,3,1.0,1-Back,1,z,Wed Jul 23 2025 15:19:16 GMT-0500 (Central Daylight Time),292997.89999997616,063_y_f_n_a.png,O,z,473,13,1,1485.6000000238419,291512.2999999523,7186,NNB,A,12
13,test,3,0.0,1-Back,1,m,Wed Jul 23 2025 15:19:16 GMT-0500 (Central Daylight Time),294680.6999999881,043_m_f_n_a.png,O,m,644,14,1,1658.5,293022.1999999881,7186,NNB,A,13
14,test,3,0.0,1-Back,1,m,Wed Jul 23 2025 15:19:16 GMT-0500 (Central Daylight Time),296596.6999999881,058_m_m_n_a.png,O,m,856,15,1,1880.9000000357628,294715.7999999523,7186,NNB,A,14
15,test,3,1.0,1-Back,1,z,Wed Jul 23 2025 15:19:16 GMT-0500 (Central Daylight Time),298398.1999999881,058_m_m_n_a.png,O,z,766,16,1,1776.6000000238419,296621.59999996424,7186,NNB,A,15
16,test,3,0.0,1-Back,1,m,Wed Jul 23 2025 15:19:16 GMT-0500 (Central Daylight Time),300228.6999999881,047_o_f_n_a.png,O,m,791,17,1,1809.1000000238419,298419.59999996424,7186,NNB,A,16
17,test,3,1.0,1-Back,1,z,Wed Jul 23 2025 15:19:16 GMT-0500 (Central Daylight Time),302094.89999997616,047_o_f_n_a.png,O,z,815,18,1,1835.199999988079,300259.6999999881,7186,NNB,A,17
0,test,4,1.0,1-Back,,,Wed Jul 23 2025 15:19:16 GMT-0500 (Central Daylight Time),302094.89999997616,050_m_f_n_a.png,O,space,1403,1,1,1835.199999988079,300259.6999999881,7186,NNB,A,0
1,test,4,0.0,1-Back,1,m,Wed Jul 23 2025 15:19:16 GMT-0500 (Central Daylight Time),307326.5,046_o_m_n_a.png,O,m,723,2,1,1751.6000000238419,305574.89999997616,7186,NNB,A,1
2,test,4,0.0,1-Back,1,m,Wed Jul 23 2025 15:19:16 GMT-0500 (Central Daylight Time),309392.6999999881,050_m_f_n_a.png,O,m,1020,3,1,2037.699999988079,307355.0,7186,NNB,A,2
3,test,4,0.0,1-Back,1,m,Wed Jul 23 2025 15:19:16 GMT-0500 (Central Daylight Time),311241.89999997616,044_o_f_n_a.png,O,m,794,4,1,1817.699999988079,309424.1999999881,7186,NNB,A,3
4,test,4,1.0,1-Back,1,z,Wed Jul 23 2025 15:19:16 GMT-0500 (Central Daylight Time),312791.5,044_o_f_n_a.png,O,z,497,5,1,1517.800000011921,311273.6999999881,7186,NNB,A,4
5,test,4,0.0,1-Back,1,m,Wed Jul 23 2025 15:19:16 GMT-0500 (Central Daylight Time),314674.09999996424,063_y_f_n_a.png,O,m,843,6,1,1856.199999988079,312817.89999997616,7186,NNB,A,5
6,test,4,0.0,1-Back,1,m,Wed Jul 23 2025 15:19:16 GMT-0500 (Central Daylight Time),316473.59999996424,041_y_m_n_a.png,O,m,752,7,1,1770.199999988079,314703.39999997616,7186,NNB,A,6
7,test,4,1.0,1-Back,1,z,Wed Jul 23 2025 15:19:16 GMT-0500 (Central Daylight Time),318272.6999999881,041_y_m_n_a.png,O,z,753,8,1,1768.5,316504.1999999881,7186,NNB,A,7
8,test,4,0.0,1-Back,1,m,Wed Jul 23 2025 15:19:16 GMT-0500 (Central Daylight Time),320005.39999997616,063_y_f_n_a.png,O,m,689,9,1,1701.8999999761581,318303.5,7186,NNB,A,8
9,test,4,0.0,1-Back,1,m,Wed Jul 23 2025 15:19:16 GMT-0500 (Central Daylight Time),321855.0,045_m_m_n_a.png,O,m,805,10,1,1828.4000000357628,320026.59999996424,7186,NNB,A,9
10,test,4,1.0,1-Back,1,z,Wed Jul 23 2025 15:19:16 GMT-0500 (Central Daylight Time),323388.0,045_m_m_n_a.png,O,z,491,11,1,1507.7000000476837,321880.2999999523,7186,NNB,A,10
11,test,4,0.0,1-Back,1,m,Wed Jul 23 2025 15:19:16 GMT-0500 (Central Daylight Time),325087.39999997616,047_o_f_n_a.png,O,m,646,12,1,1664.5,323422.89999997616,7186,NNB,A,11
12,test,4,0.0,1-Back,1,m,Wed Jul 23 2025 15:19:16 GMT-0500 (Central Daylight Time),326853.5,053_o_m_n_a.png,O,m,723,13,1,1737.1000000238419,325116.39999997616,7186,NNB,A,12
13,test,4,0.0,1-Back,1,m,Wed Jul 23 2025 15:19:16 GMT-0500 (Central Daylight Time),328819.0,047_o_f_n_a.png,O,m,926,14,1,1935.2000000476837,326883.7999999523,7186,NNB,A,13
14,test,4,0.0,1-Back,1,m,Wed Jul 23 2025 15:19:16 GMT-0500 (Central Daylight Time),330818.6999999881,010_y_f_n_a.png,O,m,959,15,1,1980.199999988079,328838.5,7186,NNB,A,14
15,test,4,1.0,1-Back,1,z,Wed Jul 23 2025 15:19:16 GMT-0500 (Central Daylight Time),332301.59999996424,010_y_f_n_a.png,O,z,449,16,1,1454.8999999761581,330846.6999999881,7186,NNB,A,15
16,test,4,0.0,1-Back,1,m,Wed Jul 23 2025 15:19:16 GMT-0500 (Central Daylight Time),334101.09999996424,043_m_f_n_a.png,O,m,740,17,1,1766.5999999642372,332334.5,7186,NNB,A,16
17,test,4,1.0,1-Back,1,z,Wed Jul 23 2025 15:19:16 GMT-0500 (Central Daylight Time),335966.7999999523,043_m_f_n_a.png,O,z,813,18,1,1833.5999999642372,334133.1999999881,7186,NNB,A,17
0,test,5,1.0,1-Back,,,Wed Jul 23 2025 15:19:16 GMT-0500 (Central Daylight Time),335966.7999999523,053_o_m_n_a.png,O,space,1356,1,1,1833.5999999642372,334133.1999999881,7186,NNB,A,0
1,test,5,1.0,1-Back,1,z,Wed Jul 23 2025 15:19:16 GMT-0500 (Central Daylight Time),341132.1999999881,053_o_m_n_a.png,O,z,725,2,1,1743.1000000238419,339389.09999996424,7186,NNB,A,1
2,test,5,0.0,1-Back,1,m,Wed Jul 23 2025 15:19:16 GMT-0500 (Central Daylight Time),342998.09999996424,063_y_f_n_a.png,O,m,824,3,1,1835.0,341163.09999996424,7186,NNB,A,2
3,test,5,0.0,1-Back,1,m,Wed Jul 23 2025 15:19:16 GMT-0500 (Central Daylight Time),344981.7999999523,041_y_m_n_a.png,O,m,949,4,1,1956.199999988079,343025.59999996424,7186,NNB,A,3
4,test,5,0.0,1-Back,1,m,Wed Jul 23 2025 15:19:16 GMT-0500 (Central Daylight Time),346629.2999999523,063_y_f_n_a.png,O,m,614,5,1,1622.199999988079,345007.09999996424,7186,NNB,A,4
5,test,5,0.0,1-Back,1,m,Wed Jul 23 2025 15:19:16 GMT-0500 (Central Daylight Time),348612.09999996424,058_m_m_n_a.png,O,m,965,6,1,1973.699999988079,346638.39999997616,7186,NNB,A,5
6,test,5,1.0,1-Back,1,z,Wed Jul 23 2025 15:19:16 GMT-0500 (Central Daylight Time),350396.0,058_m_m_n_a.png,O,z,750,7,1,1774.800000011921,348621.1999999881,7186,NNB,A,6
7,test,5,0.0,1-Back,1,m,Wed Jul 23 2025 15:19:16 GMT-0500 (Central Daylight Time),352277.7999999523,010_y_f_n_a.png,O,m,830,8,1,1846.5,350431.2999999523,7186,NNB,A,7
8,test,5,0.0,1-Back,1,m,Wed Jul 23 2025 15:19:16 GMT-0500 (Central Daylight Time),354061.7999999523,008_y_m_n_a.png,O,m,749,9,1,1760.5999999642372,352301.1999999881,7186,NNB,A,8
9,test,5,0.0,1-Back,1,m,Wed Jul 23 2025 15:19:16 GMT-0500 (Central Daylight Time),355827.2999999523,010_y_f_n_a.png,O,m,725,10,1,1734.5999999642372,354092.6999999881,7186,NNB,A,9
10,test,5,0.0,1-Back,1,m,Wed Jul 23 2025 15:19:16 GMT-0500 (Central Daylight Time),357677.0,047_o_f_n_a.png,O,m,798,11,1,1818.0,355859.0,7186,NNB,A,10
10,test,5,1.0,1-Back,0,z,Wed Jul 23 2025 15:19:16 GMT-0500 (Central Daylight Time),359942.59999996424,047_o_f_n_a.png,O,m,1221,12,1,2243.899999976158,357698.6999999881,7186,NNB,A,11
11,test,5,0.0,1-Back,1,m,Wed Jul 23 2025 15:19:16 GMT-0500 (Central Daylight Time),361724.89999997616,046_o_m_n_a.png,O,m,740,13,1,1751.8999999761581,359973.0,7186,NNB,A,12
12,test,5,0.0,1-Back,1,m,Wed Jul 23 2025 15:19:16 GMT-0500 (Central Daylight Time),363441.5,050_m_f_n_a.png,O,m,670,14,1,1697.0,361744.5,7186,NNB,A,13
13,test,5,1.0,1-Back,1,z,Wed Jul 23 2025 15:19:16 GMT-0500 (Central Daylight Time),365090.7999999523,050_m_f_n_a.png,O,z,584,15,1,1615.699999988079,363475.09999996424,7186,NNB,A,14
14,test,5,0.0,1-Back,1,m,Wed Jul 23 2025 15:19:16 GMT-0500 (Central Daylight Time),366823.59999996424,046_o_m_n_a.png,O,m,679,16,1,1700.699999988079,365122.89999997616,7186,NNB,A,15
15,test,5,0.0,1-Back,1,m,Wed Jul 23 2025 15:19:16 GMT-0500 (Central Daylight Time),368523.39999997616,043_m_f_n_a.png,O,m,651,17,1,1673.6000000238419,366849.7999999523,7186,NNB,A,16
16,test,5,0.0,1-Back,1,m,Wed Jul 23 2025 15:19:16 GMT-0500 (Central Daylight Time),370305.7999999523,045_m_m_n_a.png,O,m,743,18,1,1752.8999999761581,368552.89999997616,7186,NNB,A,17
0,prac,1,0.0,2-Back,,,Wed Jul 23 2025 15:19:16 GMT-0500 (Central Daylight Time),370305.7999999523,008_y_m_n_a.png,O,space,8644,1,1,1752.8999999761581,368552.89999997616,7186,NNB,A,0
0,prac,1,0.0,2-Back,,,Wed Jul 23 2025 15:19:16 GMT-0500 (Central Daylight Time),370305.7999999523,043_m_f_n_a.png,O,space,8644,2,1,1752.8999999761581,368552.89999997616,7186,NNB,A,0
1,prac,1,1.0,2-Back,1,m,Wed Jul 23 2025 15:19:16 GMT-0500 (Central Daylight Time),513859.1999999881,046_o_m_n_a.png,O,m,1668,3,1,2510.199999988079,511349.0,7186,NNB,A,1
1,prac,1,0.0,2-Back,0,m,Wed Jul 23 2025 15:19:16 GMT-0500 (Central Daylight Time),516574.6999999881,047_o_f_n_a.png,O,z,1804,4,1,2671.5,513903.1999999881,7186,NNB,A,2
1,prac,1,0.0,2-Back,0,z,Wed Jul 23 2025 15:19:16 GMT-0500 (Central Daylight Time),519389.6999999881,046_o_m_n_a.png,O,None,2014,5,1,2779.900000035763,516609.7999999523,7186,NNB,A,3
2,prac,1,1.0,2-Back,1,z,Wed Jul 23 2025 15:19:16 GMT-0500 (Central Daylight Time),521223.2999999523,047_o_f_n_a.png,O,z,1027,6,1,1806.0,519417.2999999523,7186,NNB,A,4
3,prac,1,0.0,2-Back,1,m,Wed Jul 23 2025 15:19:16 GMT-0500 (Central Daylight Time),523905.6999999881,045_m_m_n_a.png,O,m,1814,7,1,2647.400000035763,521258.2999999523,7186,NNB,A,5
4,prac,1,0.0,2-Back,1,m,Wed Jul 23 2025 15:19:16 GMT-0500 (Central Daylight Time),526020.6999999881,053_o_m_n_a.png,O,m,1254,8,1,2089.300000011921,523931.39999997616,7186,NNB,A,6
4,prac,1,0.0,2-Back,0,m,Wed Jul 23 2025 15:19:16 GMT-0500 (Central Daylight Time),527836.5999999642,010_y_f_n_a.png,O,z,955,9,1,1804.5999999642372,526032.0,7186,NNB,A,7
4,prac,1,1.0,2-Back,0,z,Wed Jul 23 2025 15:19:16 GMT-0500 (Central Daylight Time),529903.7999999523,053_o_m_n_a.png,O,m,1279,10,1,2051.099999964237,527852.6999999881,7186,NNB,A,8
5,prac,1,0.0,2-Back,1,m,Wed Jul 23 2025 15:19:16 GMT-0500 (Central Daylight Time),532019.5999999642,063_y_f_n_a.png,O,m,1245,11,1,2088.0,529931.5999999642,7186,NNB,A,9
5,prac,1,0.0,2-Back,0,m,Wed Jul 23 2025 15:19:16 GMT-0500 (Central Daylight Time),534102.0,045_m_m_n_a.png,O,z,1275,12,1,2045.0,532057.0,7186,NNB,A,10
0,prac,2,0.0,2-Back,,,Wed Jul 23 2025 15:19:16 GMT-0500 (Central Daylight Time),534102.0,008_y_m_n_a.png,O,a,6052,1,1,2045.0,532057.0,7186,NNB,A,0
0,prac,2,0.0,2-Back,,,Wed Jul 23 2025 15:19:16 GMT-0500 (Central Daylight Time),534102.0,043_m_f_n_a.png,O,a,6052,2,1,2045.0,532057.0,7186,NNB,A,0
1,prac,2,1.0,2-Back,1,m,Wed Jul 23 2025 15:19:16 GMT-0500 (Central Daylight Time),547581.0999999642,046_o_m_n_a.png,O,m,1514,3,1,2290.5,545290.5999999642,7186,NNB,A,1
1,prac,2,0.0,2-Back,0,m,Wed Jul 23 2025 15:19:16 GMT-0500 (Central Daylight Time),550196.7999999523,047_o_f_n_a.png,O,z,1805,4,1,2574.0,547622.7999999523,7186,NNB,A,2
2,prac,2,0.0,2-Back,1,z,Wed Jul 23 2025 15:19:16 GMT-0500 (Central Daylight Time),552662.8999999762,046_o_m_n_a.png,O,z,1658,5,1,2428.699999988079,550234.1999999881,7186,NNB,A,3
2,prac,2,1.0,2-Back,0,z,Wed Jul 23 2025 15:19:16 GMT-0500 (Central Daylight Time),555478.2999999523,047_o_f_n_a.png,O,None,2015,6,1,2781.7999999523163,552696.5,7186,NNB,A,4
3,prac,2,0.0,2-Back,1,m,Wed Jul 23 2025 15:19:16 GMT-0500 (Central Daylight Time),557626.8999999762,045_m_m_n_a.png,O,m,1338,7,1,2112.699999988079,555514.1999999881,7186,NNB,A,5
4,prac,2,0.0,2-Back,1,m,Wed Jul 23 2025 15:19:16 GMT-0500 (Central Daylight Time),559393.3999999762,053_o_m_n_a.png,O,m,982,8,1,1755.0,557638.3999999762,7186,NNB,A,6
5,prac,2,0.0,2-Back,1,m,Wed Jul 23 2025 15:19:16 GMT-0500 (Central Daylight Time),561543.1999999881,010_y_f_n_a.png,O,m,1360,9,1,2130.699999988079,559412.5,7186,NNB,A,7
6,prac,2,1.0,2-Back,1,z,Wed Jul 23 2025 15:19:16 GMT-0500 (Central Daylight Time),563242.6999999881,053_o_m_n_a.png,O,z,892,10,1,1666.5,561576.1999999881,7186,NNB,A,8
6,prac,2,0.0,2-Back,0,m,Wed Jul 23 2025 15:19:16 GMT-0500 (Central Daylight Time),566058.5,063_y_f_n_a.png,O,None,2009,11,1,2776.5,563282.0,7186,NNB,A,9
7,prac,2,0.0,2-Back,1,m,Wed Jul 23 2025 15:19:16 GMT-0500 (Central Daylight Time),568041.1999999881,045_m_m_n_a.png,O,m,1168,12,1,1941.199999988079,566100.0,7186,NNB,A,10
0,test,1,0.0,2-Back,,,Wed Jul 23 2025 15:19:16 GMT-0500 (Central Daylight Time),568041.1999999881,041_y_m_n_a.png,O,space,10348,1,1,1941.199999988079,566100.0,7186,NNB,A,0
0,test,1,0.0,2-Back,,,Wed Jul 23 2025 15:19:16 GMT-0500 (Central Daylight Time),568041.1999999881,041_y_m_n_a.png,O,space,10348,2,1,1941.199999988079,566100.0,7186,NNB,A,0
1,test,1,0.0,2-Back,1,m,Wed Jul 23 2025 15:19:16 GMT-0500 (Central Daylight Time),594032.7999999523,047_o_f_n_a.png,O,m,1804,3,1,2824.5,591208.2999999523,7186,NNB,A,1
2,test,1,0.0,2-Back,1,m,Wed Jul 23 2025 15:19:16 GMT-0500 (Central Daylight Time),596515.3999999762,058_m_m_n_a.png,O,m,1418,4,1,2449.199999988079,594066.1999999881,7186,NNB,A,2
3,test,1,1.0,2-Back,1,z,Wed Jul 23 2025 15:19:16 GMT-0500 (Central Daylight Time),598631.0,047_o_f_n_a.png,O,z,1056,5,1,2078.600000023842,596552.3999999762,7186,NNB,A,3
4,test,1,0.0,2-Back,1,m,Wed Jul 23 2025 15:19:16 GMT-0500 (Central Daylight Time),600629.8999999762,063_y_f_n_a.png,O,m,964,6,1,1971.199999988079,598658.6999999881,7186,NNB,A,4
4,test,1,0.0,2-Back,0,m,Wed Jul 23 2025 15:19:16 GMT-0500 (Central Daylight Time),602579.7999999523,058_m_m_n_a.png,O,z,892,7,1,1916.699999988079,600663.0999999642,7186,NNB,A,5
5,test,1,1.0,2-Back,1,z,Wed Jul 23 2025 15:19:16 GMT-0500 (Central Daylight Time),604478.1999999881,063_y_f_n_a.png,O,z,846,8,1,1865.699999988079,602612.5,7186,NNB,A,6
6,test,1,0.0,2-Back,1,m,Wed Jul 23 2025 15:19:16 GMT-0500 (Central Daylight Time),606295.1999999881,008_y_m_n_a.png,O,m,788,9,1,1803.800000011921,604491.3999999762,7186,NNB,A,7
7,test,1,0.0,2-Back,1,m,Wed Jul 23 2025 15:19:16 GMT-0500 (Central Daylight Time),608261.2999999523,044_o_f_n_a.png,O,m,899,10,1,1928.0,606333.2999999523,7186,NNB,A,8
8,test,1,1.0,2-Back,1,z,Wed Jul 23 2025 15:19:16 GMT-0500 (Central Daylight Time),610260.5999999642,008_y_m_n_a.png,O,z,958,11,1,1972.8999999761581,608287.6999999881,7186,NNB,A,9
9,test,1,0.0,2-Back,1,m,Wed Jul 23 2025 15:19:16 GMT-0500 (Central Daylight Time),612126.0999999642,043_m_f_n_a.png,O,m,816,12,1,1833.800000011921,610292.2999999523,7186,NNB,A,10
10,test,1,0.0,2-Back,1,m,Wed Jul 23 2025 15:19:16 GMT-0500 (Central Daylight Time),615108.8999999762,043_m_f_n_a.png,O,m,1941,13,1,2953.300000011921,612155.5999999642,7186,NNB,A,11
11,test,1,0.0,2-Back,1,m,Wed Jul 23 2025 15:19:16 GMT-0500 (Central Daylight Time),617125.5999999642,046_o_m_n_a.png,O,m,966,14,1,1982.699999988079,615142.8999999762,7186,NNB,A,12
12,test,1,0.0,2-Back,1,m,Wed Jul 23 2025 15:19:16 GMT-0500 (Central Daylight Time),619357.5,044_o_f_n_a.png,O,m,1173,15,1,2197.0,617160.5,7186,NNB,A,13
13,test,1,1.0,2-Back,1,z,Wed Jul 23 2025 15:19:16 GMT-0500 (Central Daylight Time),621090.0999999642,046_o_m_n_a.png,O,z,694,16,1,1703.800000011921,619386.2999999523,7186,NNB,A,14
13,test,1,0.0,2-Back,0,m,Wed Jul 23 2025 15:19:16 GMT-0500 (Central Daylight Time),624138.6999999881,050_m_f_n_a.png,O,None,2016,17,1,3016.699999988079,621122.0,7186,NNB,A,15
14,test,1,0.0,2-Back,1,m,Wed Jul 23 2025 15:19:16 GMT-0500 (Central Daylight Time),626288.7999999523,045_m_m_n_a.png,O,m,1121,18,1,2137.599999964237,624151.1999999881,7186,NNB,A,16
0,test,2,0.0,2-Back,,,Wed Jul 23 2025 15:19:16 GMT-0500 (Central Daylight Time),626288.7999999523,045_m_m_n_a.png,O,space,1410,1,1,2137.599999964237,624151.1999999881,7186,NNB,A,0
0,test,2,0.0,2-Back,,,Wed Jul 23 2025 15:19:16 GMT-0500 (Central Daylight Time),626288.7999999523,010_y_f_n_a.png,O,space,1410,2,1,2137.599999964237,624151.1999999881,7186,NNB,A,0
1,test,2,1.0,2-Back,1,z,Wed Jul 23 2025 15:19:16 GMT-0500 (Central Daylight Time),634652.6999999881,045_m_m_n_a.png,O,z,733,3,1,1758.300000011921,632894.3999999762,7186,NNB,A,1
2,test,2,0.0,2-Back,1,m,Wed Jul 23 2025 15:19:16 GMT-0500 (Central Daylight Time),636801.8999999762,050_m_f_n_a.png,O,m,1094,4,1,2116.199999988079,634685.6999999881,7186,NNB,A,2
2,test,2,0.0,2-Back,0,m,Wed Jul 23 2025 15:19:16 GMT-0500 (Central Daylight Time),639600.5999999642,010_y_f_n_a.png,O,z,1745,5,1,2762.300000011921,636838.2999999523,7186,NNB,A,3
3,test,2,0.0,2-Back,1,m,Wed Jul 23 2025 15:19:16 GMT-0500 (Central Daylight Time),641766.5999999642,046_o_m_n_a.png,O,m,1114,6,1,2133.399999976158,639633.1999999881,7186,NNB,A,4
4,test,2,0.0,2-Back,1,m,Wed Jul 23 2025 15:19:16 GMT-0500 (Central Daylight Time),644199.3999999762,063_y_f_n_a.png,O,m,1397,7,1,2403.199999988079,641796.1999999881,7186,NNB,A,5
5,test,2,1.0,2-Back,1,z,Wed Jul 23 2025 15:19:16 GMT-0500 (Central Daylight Time),646348.7999999523,046_o_m_n_a.png,O,z,1100,8,1,2122.5,644226.2999999523,7186,NNB,A,6
6,test,2,0.0,2-Back,1,m,Wed Jul 23 2025 15:19:16 GMT-0500 (Central Daylight Time),648448.0999999642,008_y_m_n_a.png,O,m,1038,9,1,2065.199999988079,646382.8999999762,7186,NNB,A,7
6,test,2,0.0,2-Back,0,m,Wed Jul 23 2025 15:19:16 GMT-0500 (Central Daylight Time),650447.3999999762,008_y_m_n_a.png,O,z,939,10,1,1962.6000000238419,648484.7999999523,7186,NNB,A,8
7,test,2,0.0,2-Back,1,m,Wed Jul 23 2025 15:19:16 GMT-0500 (Central Daylight Time),652380.2999999523,043_m_f_n_a.png,O,m,892,11,1,1907.8999999761581,650472.3999999762,7186,NNB,A,9
7,test,2,0.0,2-Back,0,m,Wed Jul 23 2025 15:19:16 GMT-0500 (Central Daylight Time),654345.8999999762,010_y_f_n_a.png,O,z,903,12,1,1933.1000000238419,652412.7999999523,7186,NNB,A,10
7,test,2,1.0,2-Back,0,z,Wed Jul 23 2025 15:19:16 GMT-0500 (Central Daylight Time),656062.1999999881,043_m_f_n_a.png,O,m,656,13,1,1681.6000000238419,654380.5999999642,7186,NNB,A,11
8,test,2,0.0,2-Back,1,m,Wed Jul 23 2025 15:19:16 GMT-0500 (Central Daylight Time),658094.5,053_o_m_n_a.png,O,m,973,14,1,2000.1000000238419,656094.3999999762,7186,NNB,A,12
9,test,2,0.0,2-Back,1,m,Wed Jul 23 2025 15:19:16 GMT-0500 (Central Daylight Time),660377.2999999523,053_o_m_n_a.png,O,m,1237,15,1,2255.699999988079,658121.5999999642,7186,NNB,A,13
10,test,2,0.0,2-Back,1,m,Wed Jul 23 2025 15:19:16 GMT-0500 (Central Daylight Time),662360.0,044_o_f_n_a.png,O,m,930,16,1,1948.9000000357628,660411.0999999642,7186,NNB,A,14
11,test,2,0.0,2-Back,1,m,Wed Jul 23 2025 15:19:16 GMT-0500 (Central Daylight Time),664292.0,058_m_m_n_a.png,O,m,882,17,1,1895.800000011921,662396.1999999881,7186,NNB,A,15
12,test,2,1.0,2-Back,1,z,Wed Jul 23 2025 15:19:16 GMT-0500 (Central Daylight Time),665892.3999999762,044_o_f_n_a.png,O,z,567,18,1,1589.8999999761581,664302.5,7186,NNB,A,16
0,test,3,1.0,2-Back,,,Wed Jul 23 2025 15:19:16 GMT-0500 (Central Daylight Time),665892.3999999762,041_y_m_n_a.png,O,space,1383,1,1,1589.8999999761581,664302.5,7186,NNB,A,0
0,test,3,1.0,2-Back,,,Wed Jul 23 2025 15:19:16 GMT-0500 (Central Daylight Time),665892.3999999762,041_y_m_n_a.png,O,space,1383,2,1,1589.8999999761581,664302.5,7186,NNB,A,0
1,test,3,0.0,2-Back,1,m,Wed Jul 23 2025 15:19:16 GMT-0500 (Central Daylight Time),674106.2999999523,044_o_f_n_a.png,O,m,644,3,1,1652.2999999523163,672454.0,7186,NNB,A,1
2,test,3,0.0,2-Back,1,m,Wed Jul 23 2025 15:19:16 GMT-0500 (Central Daylight Time),676289.0999999642,045_m_m_n_a.png,O,m,1139,4,1,2153.5,674135.5999999642,7186,NNB,A,2
3,test,3,1.0,2-Back,1,z,Wed Jul 23 2025 15:19:16 GMT-0500 (Central Daylight Time),678321.6999999881,044_o_f_n_a.png,O,z,977,5,1,1997.0,676324.6999999881,7186,NNB,A,3
4,test,3,0.0,2-Back,1,m,Wed Jul 23 2025 15:19:16 GMT-0500 (Central Daylight Time),680336.5999999642,008_y_m_n_a.png,O,m,959,6,1,1982.800000011921,678353.7999999523,7186,NNB,A,4
4,test,3,0.0,2-Back,0,m,Wed Jul 23 2025 15:19:16 GMT-0500 (Central Daylight Time),682186.8999999762,045_m_m_n_a.png,O,z,818,7,1,1838.1000000238419,680348.7999999523,7186,NNB,A,5
5,test,3,1.0,2-Back,1,z,Wed Jul 23 2025 15:19:16 GMT-0500 (Central Daylight Time),684053.8999999762,008_y_m_n_a.png,O,z,834,8,1,1836.800000011921,682217.0999999642,7186,NNB,A,6
6,test,3,0.0,2-Back,1,m,Wed Jul 23 2025 15:19:16 GMT-0500 (Central Daylight Time),686002.3999999762,010_y_f_n_a.png,O,m,894,9,1,1915.199999988079,684087.1999999881,7186,NNB,A,7
6,test,3,0.0,2-Back,0,m,Wed Jul 23 2025 15:19:16 GMT-0500 (Central Daylight Time),688251.5999999642,058_m_m_n_a.png,O,z,1209,10,1,2225.0,686026.5999999642,7186,NNB,A,8
7,test,3,1.0,2-Back,1,z,Wed Jul 23 2025 15:19:16 GMT-0500 (Central Daylight Time),690267.6999999881,010_y_f_n_a.png,O,z,959,11,1,1982.199999988079,688285.5,7186,NNB,A,9
7,test,3,1.0,2-Back,0,z,Wed Jul 23 2025 15:19:16 GMT-0500 (Central Daylight Time),692317.1999999881,058_m_m_n_a.png,O,m,983,12,1,2016.0,690301.1999999881,7186,NNB,A,10
8,test,3,0.0,2-Back,1,m,Wed Jul 23 2025 15:19:16 GMT-0500 (Central Daylight Time),694299.8999999762,044_o_f_n_a.png,O,m,934,13,1,1954.0,692345.8999999762,7186,NNB,A,11
9,test,3,0.0,2-Back,1,m,Wed Jul 23 2025 15:19:16 GMT-0500 (Central Daylight Time),696365.3999999762,050_m_f_n_a.png,O,m,1024,14,1,2038.8999999761581,694326.5,7186,NNB,A,12
10,test,3,0.0,2-Back,1,m,Wed Jul 23 2025 15:19:16 GMT-0500 (Central Daylight Time),698498.3999999762,046_o_m_n_a.png,O,m,1085,15,1,2103.399999976158,696395.0,7186,NNB,A,13
11,test,3,1.0,2-Back,1,z,Wed Jul 23 2025 15:19:16 GMT-0500 (Central Daylight Time),700214.1999999881,050_m_f_n_a.png,O,z,681,16,1,1688.6000000238419,698525.5999999642,7186,NNB,A,14
11,test,3,0.0,2-Back,0,m,Wed Jul 23 2025 15:19:16 GMT-0500 (Central Daylight Time),703263.5,047_o_f_n_a.png,O,None,2015,17,1,3025.400000035763,700238.0999999642,7186,NNB,A,15
11,test,3,0.0,2-Back,0,m,Wed Jul 23 2025 15:19:16 GMT-0500 (Central Daylight Time),705362.8999999762,047_o_f_n_a.png,O,z,1034,18,1,2067.699999988079,703295.1999999881,7186,NNB,A,16
0,test,4,0.0,2-Back,,,Wed Jul 23 2025 15:19:16 GMT-0500 (Central Daylight Time),705362.8999999762,053_o_m_n_a.png,O,space,1357,1,1,2067.699999988079,703295.1999999881,7186,NNB,A,0
0,test,4,0.0,2-Back,,,Wed Jul 23 2025 15:19:16 GMT-0500 (Central Daylight Time),705362.8999999762,063_y_f_n_a.png,O,space,1357,2,1,2067.699999988079,703295.1999999881,7186,NNB,A,0
1,test,4,1.0,2-Back,1,z,Wed Jul 23 2025 15:19:16 GMT-0500 (Central Daylight Time),713859.7999999523,053_o_m_n_a.png,O,z,877,3,1,1887.7999999523163,711972.0,7186,NNB,A,1
2,test,4,1.0,2-Back,1,z,Wed Jul 23 2025 15:19:16 GMT-0500 (Central Daylight Time),715842.5,063_y_f_n_a.png,O,z,944,4,1,1954.6000000238419,713887.8999999762,7186,NNB,A,2
3,test,4,0.0,2-Back,1,m,Wed Jul 23 2025 15:19:16 GMT-0500 (Central Daylight Time),717542.3999999762,044_o_f_n_a.png,O,m,665,5,1,1673.0,715869.3999999762,7186,NNB,A,3
4,test,4,0.0,2-Back,1,m,Wed Jul 23 2025 15:19:16 GMT-0500 (Central Daylight Time),719758.0999999642,044_o_f_n_a.png,O,m,1165,6,1,2184.199999988079,717573.8999999762,7186,NNB,A,4
5,test,4,0.0,2-Back,1,m,Wed Jul 23 2025 15:19:16 GMT-0500 (Central Daylight Time),722007.1999999881,043_m_f_n_a.png,O,m,1197,7,1,2214.800000011921,719792.3999999762,7186,NNB,A,5
6,test,4,0.0,2-Back,1,m,Wed Jul 23 2025 15:19:16 GMT-0500 (Central Daylight Time),723789.0999999642,008_y_m_n_a.png,O,m,723,8,1,1746.8999999761581,722042.1999999881,7186,NNB,A,6
7,test,4,1.0,2-Back,1,z,Wed Jul 23 2025 15:19:16 GMT-0500 (Central Daylight Time),725571.7999999523,043_m_f_n_a.png,O,z,749,9,1,1771.2999999523163,723800.5,7186,NNB,A,7
8,test,4,0.0,2-Back,1,m,Wed Jul 23 2025 15:19:16 GMT-0500 (Central Daylight Time),727589.2999999523,058_m_m_n_a.png,O,m,992,10,1,2007.199999988079,725582.0999999642,7186,NNB,A,8
9,test,4,0.0,2-Back,1,m,Wed Jul 23 2025 15:19:16 GMT-0500 (Central Daylight Time),729504.7999999523,008_y_m_n_a.png,O,m,854,11,1,1882.199999988079,727622.5999999642,7186,NNB,A,9
10,test,4,0.0,2-Back,1,m,Wed Jul 23 2025 15:19:16 GMT-0500 (Central Daylight Time),731654.0,047_o_f_n_a.png,O,m,1090,12,1,2112.900000035763,729541.0999999642,7186,NNB,A,10
11,test,4,0.0,2-Back,1,m,Wed Jul 23 2025 15:19:16 GMT-0500 (Central Daylight Time),733536.8999999762,041_y_m_n_a.png,O,m,846,13,1,1855.5,731681.3999999762,7186,NNB,A,11
12,test,4,1.0,2-Back,1,z,Wed Jul 23 2025 15:19:16 GMT-0500 (Central Daylight Time),735202.8999999762,047_o_f_n_a.png,O,z,619,14,1,1636.800000011921,733566.0999999642,7186,NNB,A,12
13,test,4,1.0,2-Back,1,z,Wed Jul 23 2025 15:19:16 GMT-0500 (Central Daylight Time),737417.8999999762,041_y_m_n_a.png,O,z,1150,15,1,2180.800000011921,735237.0999999642,7186,NNB,A,13
14,test,4,0.0,2-Back,1,m,Wed Jul 23 2025 15:19:16 GMT-0500 (Central Daylight Time),739234.7999999523,045_m_m_n_a.png,O,m,794,16,1,1806.8999999761581,737427.8999999762,7186,NNB,A,14
15,test,4,0.0,2-Back,1,m,Wed Jul 23 2025 15:19:16 GMT-0500 (Central Daylight Time),741250.6999999881,050_m_f_n_a.png,O,m,969,17,1,1985.9000000357628,739264.7999999523,7186,NNB,A,15
16,test,4,1.0,2-Back,1,z,Wed Jul 23 2025 15:19:16 GMT-0500 (Central Daylight Time),743167.0999999642,045_m_m_n_a.png,O,z,872,18,1,1887.3999999761581,741279.6999999881,7186,NNB,A,16
0,test,5,1.0,2-Back,,,Wed Jul 23 2025 15:19:16 GMT-0500 (Central Daylight Time),743167.0999999642,041_y_m_n_a.png,O,space,1363,1,1,1887.3999999761581,741279.6999999881,7186,NNB,A,0
0,test,5,1.0,2-Back,,,Wed Jul 23 2025 15:19:16 GMT-0500 (Central Daylight Time),743167.0999999642,050_m_f_n_a.png,O,space,1363,2,1,1887.3999999761581,741279.6999999881,7186,NNB,A,0
1,test,5,1.0,2-Back,1,z,Wed Jul 23 2025 15:19:16 GMT-0500 (Central Daylight Time),751331.0999999642,041_y_m_n_a.png,O,z,693,3,1,1707.699999988079,749623.3999999762,7186,NNB,A,1
2,test,5,1.0,2-Back,1,z,Wed Jul 23 2025 15:19:16 GMT-0500 (Central Daylight Time),753229.2999999523,050_m_f_n_a.png,O,z,863,4,1,1871.0,751358.2999999523,7186,NNB,A,2
3,test,5,0.0,2-Back,1,m,Wed Jul 23 2025 15:19:16 GMT-0500 (Central Daylight Time),755113.0999999642,047_o_f_n_a.png,O,m,862,5,1,1870.0999999642372,753243.0,7186,NNB,A,3
4,test,5,0.0,2-Back,1,m,Wed Jul 23 2025 15:19:16 GMT-0500 (Central Daylight Time),757412.2999999523,041_y_m_n_a.png,O,m,1258,6,1,2272.899999976158,755139.3999999762,7186,NNB,A,4
5,test,5,0.0,2-Back,1,m,Wed Jul 23 2025 15:19:16 GMT-0500 (Central Daylight Time),759244.1999999881,010_y_f_n_a.png,O,m,781,7,1,1799.800000011921,757444.3999999762,7186,NNB,A,5
5,test,5,0.0,2-Back,0,m,Wed Jul 23 2025 15:19:16 GMT-0500 (Central Daylight Time),760927.8999999762,047_o_f_n_a.png,O,z,663,8,1,1674.1000000238419,759253.7999999523,7186,NNB,A,6
6,test,5,1.0,2-Back,1,z,Wed Jul 23 2025 15:19:16 GMT-0500 (Central Daylight Time),762993.7999999523,010_y_f_n_a.png,O,z,1020,9,1,2037.5999999642372,760956.1999999881,7186,NNB,A,7
7,test,5,0.0,2-Back,1,m,Wed Jul 23 2025 15:19:16 GMT-0500 (Central Daylight Time),764643.1999999881,046_o_m_n_a.png,O,m,593,10,1,1617.699999988079,763025.5,7186,NNB,A,8
8,test,5,0.0,2-Back,1,m,Wed Jul 23 2025 15:19:16 GMT-0500 (Central Daylight Time),766609.2999999523,043_m_f_n_a.png,O,m,920,11,1,1935.3999999761581,764673.8999999762,7186,NNB,A,9
8,test,5,0.0,2-Back,0,m,Wed Jul 23 2025 15:19:16 GMT-0500 (Central Daylight Time),768841.8999999762,058_m_m_n_a.png,O,z,1178,12,1,2198.399999976158,766643.5,7186,NNB,A,10
9,test,5,0.0,2-Back,1,m,Wed Jul 23 2025 15:19:16 GMT-0500 (Central Daylight Time),770574.6999999881,046_o_m_n_a.png,O,m,673,13,1,1700.5,768874.1999999881,7186,NNB,A,11
9,test,5,1.0,2-Back,0,z,Wed Jul 23 2025 15:19:16 GMT-0500 (Central Daylight Time),772440.6999999881,058_m_m_n_a.png,O,m,812,14,1,1831.4000000357628,770609.2999999523,7186,NNB,A,12
10,test,5,0.0,2-Back,1,m,Wed Jul 23 2025 15:19:16 GMT-0500 (Central Daylight Time),774573.5999999642,063_y_f_n_a.png,O,m,1066,15,1,2100.300000011921,772473.2999999523,7186,NNB,A,13
11,test,5,0.0,2-Back,1,m,Wed Jul 23 2025 15:19:16 GMT-0500 (Central Daylight Time),776372.8999999762,053_o_m_n_a.png,O,m,758,16,1,1768.8999999761581,774604.0,7186,NNB,A,14
11,test,5,0.0,2-Back,0,m,Wed Jul 23 2025 15:19:16 GMT-0500 (Central Daylight Time),778122.0999999642,043_m_f_n_a.png,O,z,686,17,1,1717.5,776404.5999999642,7186,NNB,A,15
11,test,5,1.0,2-Back,0,z,Wed Jul 23 2025 15:19:16 GMT-0500 (Central Daylight Time),780171.0999999642,053_o_m_n_a.png,O,m,1008,18,1,2020.300000011921,778150.7999999523,7186,NNB,A,16
