acc_sum,block_c,block_dur,condition,correct,correct_response,countdown,datetime,endtime,project,response,response_time,response_time_test1_response,response_time_test2_response,row_sel,same,session_number,start_end,starttime,stim1,stim2,subject_id,task,task_vers,time_test1,time_test2,trial
1,1,0.0,prac,1,m,30000.0,Fri May 16 2025 19:12:32 GMT-0500 (Central Daylight Time),27908.39999999851,O,m,1768,,,3,no,1,3293.199999999255,24615.199999999255,QHZXPC,QHZWPC,7141,LC,B,,,1
2,1,0.0,prac,1,z,30000.0,Fri May 16 2025 19:12:32 GMT-0500 (Central Daylight Time),30623.800000000745,O,z,1178,,,2,yes,1,2707.900000002235,27915.89999999851,NBGFSM,NBGFSM,7141,LC,B,,,2
3,1,0.0,prac,1,z,30000.0,Fri May 16 2025 19:12:32 GMT-0500 (Central Daylight Time),33005.699999999255,O,z,861,,,4,yes,1,2376.599999997765,30629.10000000149,RSM,RSM,7141,LC,B,,,3
4,1,0.0,prac,1,m,30000.0,Fri May 16 2025 19:12:32 GMT-0500 (Central Daylight Time),35355.0,O,m,811,,,1,no,1,2342.5,33012.5,RNV,FNV,7141,LC,B,,,4
5,1,0.0,prac,1,m,30000.0,Fri May 16 2025 19:12:32 GMT-0500 (Central Daylight Time),38419.60000000149,O,m,1533,,,5,no,1,3057.7000000029802,35361.89999999851,LNDPRSKQB,LNDPRSJQB,7141,LC,B,,,5
6,1,0.0,prac,1,z,30000.0,Fri May 16 2025 19:12:32 GMT-0500 (Central Daylight Time),41137.699999999255,O,z,1183,,,6,yes,1,2712.800000000745,38424.89999999851,CSDBFPHXZ,CSDBFPHXZ,7141,LC,B,,,6
1,1,1.432999849319458,test,1,m,28567.000150680542,Fri May 16 2025 19:12:32 GMT-0500 (Central Daylight Time),50134.699999999255,O,m,1413,1413,,1,no,1,1428.3999999985099,48706.300000000745,HCF,RCF,7141,LC,B,47041,,1
1,1,2.7009999752044678,test,0,m,27299.000024795532,Fri May 16 2025 19:12:32 GMT-0500 (Central Daylight Time),51402.89999999851,O,z,1262,1262,,2,no,1,1263.5999999977648,50139.300000000745,QTPRJX,QTPNJX,7141,LC,B,48474,,2
1,1,4.997999906539917,test,0,m,25002.000093460083,Fri May 16 2025 19:12:32 GMT-0500 (Central Daylight Time),53700.0,O,z,2280,2280,,3,no,1,2293.0,51407.0,MZDYGVGKQ,MZDYGLBKQ,7141,LC,B,49742,,3
2,1,6.132999897003174,test,1,m,23867.000102996826,Fri May 16 2025 19:12:32 GMT-0500 (Central Daylight Time),54834.800000000745,O,m,1130,1130,,4,no,1,1131.300000000745,53703.5,FQTNMK,JQTNMK,7141,LC,B,52038,,4
3,1,7.395999908447266,test,1,z,22604.000091552734,Fri May 16 2025 19:12:32 GMT-0500 (Central Daylight Time),56098.10000000149,O,z,1256,1256,,5,yes,1,1259.2000000029802,54838.89999999851,CLJ,CLJ,7141,LC,B,53174,,5
3,1,10.662999868392944,test,0,m,19337.000131607056,Fri May 16 2025 19:12:32 GMT-0500 (Central Daylight Time),59364.699999999255,O,z,3263,3263,,6,no,1,3264.300000000745,56100.39999999851,JGDMNSVPW,JGZMNSVPW,7141,LC,B,54435,,6
4,1,13.34500002861023,test,1,z,16654.99997138977,Fri May 16 2025 19:12:32 GMT-0500 (Central Daylight Time),62046.89999999851,O,z,2672,2672,,7,yes,1,2678.099999997765,59368.800000000745,FPTVHKCBJ,FPTVHKCBJ,7141,LC,B,57703,,7
5,1,14.244999885559082,test,1,m,15755.000114440918,Fri May 16 2025 19:12:32 GMT-0500 (Central Daylight Time),62947.0,O,m,893,893,,8,no,1,896.5,62050.5,XRPZBS,ZRPBDH,7141,LC,B,60385,,8
6,1,15.4760000705719,test,1,m,14523.9999294281,Fri May 16 2025 19:12:32 GMT-0500 (Central Daylight Time),64178.300000000745,O,m,1215,1215,,9,no,1,1226.300000000745,62952.0,ZSQ,ZSP,7141,LC,B,61287,,9
7,1,19.16100001335144,test,1,z,10838.99998664856,Fri May 16 2025 19:12:32 GMT-0500 (Central Daylight Time),67863.19999999925,O,z,3665,3665,,10,yes,1,3680.39999999851,64182.800000000745,MPZRXL,MPZRXL,7141,LC,B,62517,,10
8,1,20.175999879837036,test,1,m,9824.000120162964,Fri May 16 2025 19:12:32 GMT-0500 (Central Daylight Time),68878.80000000075,O,m,995,995,,11,no,1,1011.0,67867.80000000075,KJH,KRH,7141,LC,B,66202,,11
9,1,25.307999849319458,test,1,z,4692.000150680542,Fri May 16 2025 19:12:32 GMT-0500 (Central Daylight Time),74010.19999999925,O,z,5118,5118,,12,yes,1,5127.800000000745,68882.39999999851,SMNHVTFCB,SMNHVTFCB,7141,LC,B,67217,,12
10,1,26.990000009536743,test,1,z,3009.999990463257,Fri May 16 2025 19:12:32 GMT-0500 (Central Daylight Time),75692.60000000149,O,z,1673,1673,,13,yes,1,1678.7000000029802,74013.89999999851,KJWTQF,KJWTQF,7141,LC,B,72349,,13
11,1,29.54099988937378,test,1,z,459.0001106262207,Fri May 16 2025 19:12:32 GMT-0500 (Central Daylight Time),78243.30000000075,O,z,2546,2546,,14,yes,1,2547.0,75696.30000000075,CHDKQGLMB,CHDKQGLMB,7141,LC,B,74031,,14
11,1,30.006999969482422,test,0,z,-6.999969482421875,Fri May 16 2025 19:12:32 GMT-0500 (Central Daylight Time),78708.80000000075,O,None,461,461,,15,yes,1,461.1000000014901,78247.69999999925,GHQ,GHQ,7141,LC,B,76582,,15
1,2,2.6640000343322754,test,1,z,27335.999965667725,Fri May 16 2025 19:12:32 GMT-0500 (Central Daylight Time),82723.89999999851,O,z,2647,,2647.0,1,yes,1,4476.199999999255,78247.69999999925,PRDBZTYFN,PRDBZTYFN,7141,LC,B,,78399.0,1
1,2,3.9119999408721924,test,0,m,26088.000059127808,Fri May 16 2025 19:12:32 GMT-0500 (Central Daylight Time),83972.69999999925,O,z,1239,,1239.0,2,no,1,5725.0,78247.69999999925,NCWJDZ,NCMJDZ,7141,LC,B,,81063.0,2
2,2,4.9629998207092285,test,1,m,25037.00017929077,Fri May 16 2025 19:12:32 GMT-0500 (Central Daylight Time),85023.19999999925,O,m,1039,,1039.0,3,no,1,6775.5,78247.69999999925,KHW,KBW,7141,LC,B,,82311.0,3
3,2,6.893999814987183,test,1,m,23106.000185012817,Fri May 16 2025 19:12:32 GMT-0500 (Central Daylight Time),86954.5,O,m,1925,,1925.0,4,no,1,8706.800000000745,78247.69999999925,ZRBGMF,ZRBCMF,7141,LC,B,,83361.0,4
4,2,8.794999837875366,test,1,m,21205.000162124634,Fri May 16 2025 19:12:32 GMT-0500 (Central Daylight Time),88854.89999999851,O,m,1888,,1888.0,5,no,1,10607.199999999255,78247.69999999925,BTH,BYH,7141,LC,B,,85294.0,5
4,2,11.82699990272522,test,0,z,18173.00009727478,Fri May 16 2025 19:12:32 GMT-0500 (Central Daylight Time),91887.30000000075,O,m,3011,,3011.0,6,yes,1,13639.60000000149,78247.69999999925,XWKQRYCNZ,XWKQRYCNZ,7141,LC,B,,87195.0,6
5,2,13.425999879837036,test,1,z,16574.000120162964,Fri May 16 2025 19:12:32 GMT-0500 (Central Daylight Time),93485.80000000075,O,z,1588,,1588.0,7,yes,1,15238.10000000149,78247.69999999925,HNPDLK,HNPDLK,7141,LC,B,,90226.0,7
5,2,15.243000030517578,test,0,m,14756.999969482422,Fri May 16 2025 19:12:32 GMT-0500 (Central Daylight Time),95303.60000000149,O,z,1799,,1799.0,8,no,1,17055.900000002235,78247.69999999925,WMQTRSGLZ,WMQTRZGLZ,7141,LC,B,,91823.0,8
6,2,16.625999927520752,test,1,z,13374.000072479248,Fri May 16 2025 19:12:32 GMT-0500 (Central Daylight Time),96685.69999999925,O,z,1374,,1374.0,9,yes,1,18438.0,78247.69999999925,JPN,JPN,7141,LC,B,,93641.0,9
7,2,19.508999824523926,test,1,m,10491.000175476074,Fri May 16 2025 19:12:32 GMT-0500 (Central Daylight Time),99569.0,O,m,2863,,2863.0,10,no,1,21321.300000000745,78247.69999999925,QLXSVT,QLNSVT,7141,LC,B,,95024.0,10
7,2,22.4229998588562,test,0,z,7577.000141143799,Fri May 16 2025 19:12:32 GMT-0500 (Central Daylight Time),102483.19999999925,O,m,2899,,2899.0,11,yes,1,24235.5,78247.69999999925,YXHKZVFPB,YXHKZVFPD,7141,LC,B,,97907.0,11
8,2,24.141000032424927,test,1,z,5858.999967575073,Fri May 16 2025 19:12:32 GMT-0500 (Central Daylight Time),104201.10000000149,O,z,1714,,1714.0,12,yes,1,25953.400000002235,78247.69999999925,RJZ,RJZ,7141,LC,B,,100821.0,12
9,2,25.238999843597412,test,1,z,4761.000156402588,Fri May 16 2025 19:12:32 GMT-0500 (Central Daylight Time),105299.0,O,z,1092,,1092.0,13,yes,1,27051.300000000745,78247.69999999925,CLNPZD,CLNPZD,7141,LC,B,,102540.0,13
9,2,27.039000034332275,test,0,m,2960.9999656677246,Fri May 16 2025 19:12:32 GMT-0500 (Central Daylight Time),107099.19999999925,O,z,1786,,1786.0,14,no,1,28851.5,78247.69999999925,DCBPFHXYJ,DCBPFHLYJ,7141,LC,B,,103636.0,14
10,2,28.15499997138977,test,1,m,1845.0000286102295,Fri May 16 2025 19:12:32 GMT-0500 (Central Daylight Time),108215.69999999925,O,m,1105,,1105.0,15,no,1,29968.0,78247.69999999925,MWR,ZWR,7141,LC,B,,105438.0,15
10,2,30.00599980354309,test,0,z,-5.99980354309082,Fri May 16 2025 19:12:32 GMT-0500 (Central Daylight Time),110066.19999999925,O,None,1846,,1846.0,16,yes,1,31818.5,78247.69999999925,LPKXZW,LPKXZW,7141,LC,B,,106554.0,16
