block_c,block_dur,condition,countdown,datetime,endtime,list,multichar_response,project,response,response_time,session_number,start_end,starttime,subject_id,task,task_vers,trial
,,,,Mon Dec 08 2025 18:22:52 GMT-0600 (Central Standard Time),,,,O,space,548,1,,,7249,WL,C,
prac,,0,,Mon Dec 08 2025 18:22:52 GMT-0600 (Central Standard Time),,NA,b,O,b,1063,1,,,7249,WL,C,1.0
prac,,0,,Mon Dec 08 2025 18:22:52 GMT-0600 (Central Standard Time),,NA,bo,O,o,124,1,,,7249,WL,C,1.0
prac,,0,,Mon Dec 08 2025 18:22:52 GMT-0600 (Central Standard Time),,NA,boo,O,o,143,1,,,7249,WL,C,1.0
prac,,0,,Mon Dec 08 2025 18:22:52 GMT-0600 (Central Standard Time),,NA,boos,O,s,210,1,,,7249,WL,C,1.0
prac,,0,,Mon Dec 08 2025 18:22:52 GMT-0600 (Central Standard Time),,NA,boost,O,t,298,1,,,7249,WL,C,1.0
prac,,0,,Mon Dec 08 2025 18:22:52 GMT-0600 (Central Standard Time),,NA,boostenter,O,enter,1341,1,,,7249,WL,C,1.0
1,0.7170000076293945,learn,59282.999992370605,Mon Dec 08 2025 18:22:52 GMT-0600 (Central Standard Time),165205.19999998808,A,t,O,t,709,1,716.6999999880791,164488.5,7249,WL,C,1.0
1,0.8670001029968262,learn,59132.999897003174,Mon Dec 08 2025 18:22:52 GMT-0600 (Central Standard Time),165354.69999998808,A,to,O,o,136,1,866.1999999880791,164488.5,7249,WL,C,1.0
1,1.0329999923706055,learn,58967.000007629395,Mon Dec 08 2025 18:22:52 GMT-0600 (Central Standard Time),165520.90000000596,A,tow,O,w,152,1,1032.4000000059605,164488.5,7249,WL,C,1.0
1,1.2330000400543213,learn,58766.99995994568,Mon Dec 08 2025 18:22:52 GMT-0600 (Central Standard Time),165720.90000000596,A,towe,O,e,180,1,1232.4000000059605,164488.5,7249,WL,C,1.0
1,1.4520001411437988,learn,58547.9998588562,Mon Dec 08 2025 18:22:52 GMT-0600 (Central Standard Time),165939.69999998808,A,tower,O,r,197,1,1451.199999988079,164488.5,7249,WL,C,1.0
1,4.431999921798706,learn,55568.000078201294,Mon Dec 08 2025 18:22:52 GMT-0600 (Central Standard Time),168919.5,A,towerenter,O,enter,2970,1,4431.0,164488.5,7249,WL,C,1.0
1,4.916000127792358,learn,55083.99987220764,Mon Dec 08 2025 18:22:52 GMT-0600 (Central Standard Time),169404.19999998808,A,w,O,w,477,1,484.19999998807907,168920.0,7249,WL,C,2.0
1,6.565999984741211,learn,53434.00001525879,Mon Dec 08 2025 18:22:52 GMT-0600 (Central Standard Time),171053.40000000596,A,wh,O,h,1635,1,2133.4000000059605,168920.0,7249,WL,C,2.0
1,6.799000024795532,learn,53200.99997520447,Mon Dec 08 2025 18:22:52 GMT-0600 (Central Standard Time),171286.69999998808,A,whe,O,e,214,1,2366.699999988079,168920.0,7249,WL,C,2.0
1,7.29800009727478,learn,52701.99990272522,Mon Dec 08 2025 18:22:52 GMT-0600 (Central Standard Time),171785.5,A,whea,O,a,483,1,2865.5,168920.0,7249,WL,C,2.0
1,7.63100004196167,learn,52368.99995803833,Mon Dec 08 2025 18:22:52 GMT-0600 (Central Standard Time),172119.0,A,wheat,O,t,316,1,3199.0,168920.0,7249,WL,C,2.0
1,8.197999954223633,learn,51802.00004577637,Mon Dec 08 2025 18:22:52 GMT-0600 (Central Standard Time),172686.09999999404,A,wheatenter,O,enter,551,1,3766.0999999940395,168920.0,7249,WL,C,2.0
1,8.847000122070312,learn,51152.99987792969,Mon Dec 08 2025 18:22:52 GMT-0600 (Central Standard Time),173334.69999998808,A,q,O,q,629,1,648.2999999821186,172686.40000000596,7249,WL,C,3.0
1,9.180999994277954,learn,50819.000005722046,Mon Dec 08 2025 18:22:52 GMT-0600 (Central Standard Time),173668.59999999404,A,qu,O,u,319,1,982.1999999880791,172686.40000000596,7249,WL,C,3.0
1,9.38100004196167,learn,50618.99995803833,Mon Dec 08 2025 18:22:52 GMT-0600 (Central Standard Time),173868.90000000596,A,que,O,e,185,1,1182.5,172686.40000000596,7249,WL,C,3.0
1,9.549000024795532,learn,50450.99997520447,Mon Dec 08 2025 18:22:52 GMT-0600 (Central Standard Time),174037.0,A,quee,O,e,151,1,1350.5999999940395,172686.40000000596,7249,WL,C,3.0
1,9.847000122070312,learn,50152.99987792969,Mon Dec 08 2025 18:22:52 GMT-0600 (Central Standard Time),174335.0,A,queen,O,n,288,1,1648.5999999940395,172686.40000000596,7249,WL,C,3.0
1,10.396000146865845,learn,49603.999853134155,Mon Dec 08 2025 18:22:52 GMT-0600 (Central Standard Time),174884.30000001192,A,queenenter,O,enter,542,1,2197.9000000059605,172686.40000000596,7249,WL,C,3.0
1,10.77999997138977,learn,49220.00002861023,Mon Dec 08 2025 18:22:52 GMT-0600 (Central Standard Time),175268.09999999404,A,s,O,s,368,1,383.5,174884.59999999404,7249,WL,C,4.0
1,11.013999938964844,learn,48986.000061035156,Mon Dec 08 2025 18:22:52 GMT-0600 (Central Standard Time),175501.5,A,su,O,u,223,1,616.9000000059605,174884.59999999404,7249,WL,C,4.0
1,11.531000137329102,learn,48468.9998626709,Mon Dec 08 2025 18:22:52 GMT-0600 (Central Standard Time),176019.19999998808,A,sug,O,g,495,1,1134.5999999940395,174884.59999999404,7249,WL,C,4.0
1,11.86300015449524,learn,48136.99984550476,Mon Dec 08 2025 18:22:52 GMT-0600 (Central Standard Time),176350.5,A,suga,O,a,312,1,1465.9000000059605,174884.59999999404,7249,WL,C,4.0
1,12.02999997138977,learn,47970.00002861023,Mon Dec 08 2025 18:22:52 GMT-0600 (Central Standard Time),176517.59999999404,A,sugar,O,r,158,1,1633.0,174884.59999999404,7249,WL,C,4.0
1,12.531000137329102,learn,47468.9998626709,Mon Dec 08 2025 18:22:52 GMT-0600 (Central Standard Time),177018.80000001192,A,sugarenter,O,enter,488,1,2134.2000000178814,174884.59999999404,7249,WL,C,4.0
1,13.44700002670288,learn,46552.99997329712,Mon Dec 08 2025 18:22:52 GMT-0600 (Central Standard Time),177934.59999999404,A,b,O,b,900,1,915.5999999940395,177019.0,7249,WL,C,5.0
1,13.663000106811523,learn,46336.99989318848,Mon Dec 08 2025 18:22:52 GMT-0600 (Central Standard Time),178150.59999999404,A,bo,O,o,205,1,1131.5999999940395,177019.0,7249,WL,C,5.0
1,14.062999963760376,learn,45937.000036239624,Mon Dec 08 2025 18:22:52 GMT-0600 (Central Standard Time),178550.80000001192,A,boy,O,y,392,1,1531.800000011921,177019.0,7249,WL,C,5.0
1,14.73200011253357,learn,45267.99988746643,Mon Dec 08 2025 18:22:52 GMT-0600 (Central Standard Time),179219.30000001192,A,boyenter,O,enter,664,1,2200.300000011921,177019.0,7249,WL,C,5.0
1,15.364000082015991,learn,44635.99991798401,Mon Dec 08 2025 18:22:52 GMT-0600 (Central Standard Time),179851.80000001192,A,c,O,c,626,1,632.2000000178814,179219.59999999404,7249,WL,C,6.0
1,15.661999940872192,learn,44338.00005912781,Mon Dec 08 2025 18:22:52 GMT-0600 (Central Standard Time),180150.19999998808,A,ca,O,a,280,1,930.5999999940395,179219.59999999404,7249,WL,C,6.0
1,15.765000104904175,learn,44234.999895095825,Mon Dec 08 2025 18:22:52 GMT-0600 (Central Standard Time),180252.69999998808,A,cam,O,m,96,1,1033.0999999940395,179219.59999999404,7249,WL,C,6.0
1,16.02900004386902,learn,43970.99995613098,Mon Dec 08 2025 18:22:52 GMT-0600 (Central Standard Time),180516.90000000596,A,camp,O,p,255,1,1297.300000011921,179219.59999999404,7249,WL,C,6.0
1,16.396000146865845,learn,43603.999853134155,Mon Dec 08 2025 18:22:52 GMT-0600 (Central Standard Time),180883.59999999404,A,campenter,O,enter,360,1,1664.0,179219.59999999404,7249,WL,C,6.0
1,16.76200008392334,learn,43237.99991607666,Mon Dec 08 2025 18:22:52 GMT-0600 (Central Standard Time),181250.09999999404,A,d,O,d,354,1,366.19999998807907,180883.90000000596,7249,WL,C,7.0
1,16.894999980926514,learn,43105.000019073486,Mon Dec 08 2025 18:22:52 GMT-0600 (Central Standard Time),181383.0,A,do,O,o,122,1,499.09999999403954,180883.90000000596,7249,WL,C,7.0
1,17.09599995613098,learn,42904.00004386902,Mon Dec 08 2025 18:22:52 GMT-0600 (Central Standard Time),181583.40000000596,A,doc,O,c,189,1,699.5,180883.90000000596,7249,WL,C,7.0
1,17.396000146865845,learn,42603.999853134155,Mon Dec 08 2025 18:22:52 GMT-0600 (Central Standard Time),181884.19999998808,A,doct,O,t,287,1,1000.2999999821186,180883.90000000596,7249,WL,C,7.0
1,17.644999980926514,learn,42355.000019073486,Mon Dec 08 2025 18:22:52 GMT-0600 (Central Standard Time),182132.30000001192,A,docto,O,o,233,1,1248.4000000059605,180883.90000000596,7249,WL,C,7.0
1,17.811000108718872,learn,42188.99989128113,Mon Dec 08 2025 18:22:52 GMT-0600 (Central Standard Time),182298.80000001192,A,doctor,O,r,152,1,1414.9000000059605,180883.90000000596,7249,WL,C,7.0
1,17.999000072479248,learn,42000.99992752075,Mon Dec 08 2025 18:22:52 GMT-0600 (Central Standard Time),182486.40000000596,A,doctorenter,O,enter,184,1,1602.5,180883.90000000596,7249,WL,C,7.0
1,18.36300015449524,learn,41636.99984550476,Mon Dec 08 2025 18:22:52 GMT-0600 (Central Standard Time),182851.0,A,n,O,n,350,1,364.30000001192093,182486.69999998808,7249,WL,C,8.0
1,18.545000076293945,learn,41454.999923706055,Mon Dec 08 2025 18:22:52 GMT-0600 (Central Standard Time),183032.90000000596,A,na,O,a,170,1,546.2000000178814,182486.69999998808,7249,WL,C,8.0
1,18.694000005722046,learn,41305.999994277954,Mon Dec 08 2025 18:22:52 GMT-0600 (Central Standard Time),183181.69999998808,A,nai,O,i,141,1,695.0,182486.69999998808,7249,WL,C,8.0
1,19.34500002861023,learn,40654.99997138977,Mon Dec 08 2025 18:22:52 GMT-0600 (Central Standard Time),183832.59999999404,A,nail,O,l,641,1,1345.9000000059605,182486.69999998808,7249,WL,C,8.0
1,19.710000038146973,learn,40289.99996185303,Mon Dec 08 2025 18:22:52 GMT-0600 (Central Standard Time),184197.69999998808,A,nailenter,O,enter,357,1,1711.0,182486.69999998808,7249,WL,C,8.0
1,20.261000156402588,learn,39738.99984359741,Mon Dec 08 2025 18:22:52 GMT-0600 (Central Standard Time),184748.59999999404,A,f,O,f,536,1,550.5999999940395,184198.0,7249,WL,C,9.0
1,20.427000045776367,learn,39572.99995422363,Mon Dec 08 2025 18:22:52 GMT-0600 (Central Standard Time),184914.80000001192,A,fl,O,l,154,1,716.8000000119209,184198.0,7249,WL,C,9.0
1,20.812000036239624,learn,39187.999963760376,Mon Dec 08 2025 18:22:52 GMT-0600 (Central Standard Time),185299.59999999404,A,fla,O,a,371,1,1101.5999999940395,184198.0,7249,WL,C,9.0
1,21.094000101089478,learn,38905.99989891052,Mon Dec 08 2025 18:22:52 GMT-0600 (Central Standard Time),185582.09999999404,A,flag,O,g,274,1,1384.0999999940395,184198.0,7249,WL,C,9.0
1,21.47699999809265,learn,38523.00000190735,Mon Dec 08 2025 18:22:52 GMT-0600 (Central Standard Time),185964.40000000596,A,flagenter,O,enter,376,1,1766.4000000059605,184198.0,7249,WL,C,9.0
1,22.194000005722046,learn,37805.999994277954,Mon Dec 08 2025 18:22:52 GMT-0600 (Central Standard Time),186682.0,A,s,O,s,714,1,717.3000000119209,185964.69999998808,7249,WL,C,10.0
1,22.542999982833862,learn,37457.00001716614,Mon Dec 08 2025 18:22:52 GMT-0600 (Central Standard Time),187030.90000000596,A,,O,backspace,339,1,1066.2000000178814,185964.69999998808,7249,WL,C,10.0
1,22.80999994277954,learn,37190.00005722046,Mon Dec 08 2025 18:22:52 GMT-0600 (Central Standard Time),187298.09999999404,A,c,O,c,247,1,1333.4000000059605,185964.69999998808,7249,WL,C,10.0
1,22.960000038146973,learn,37039.99996185303,Mon Dec 08 2025 18:22:52 GMT-0600 (Central Standard Time),187447.80000001192,A,co,O,o,138,1,1483.1000000238419,185964.69999998808,7249,WL,C,10.0
1,23.276000022888184,learn,36723.99997711182,Mon Dec 08 2025 18:22:52 GMT-0600 (Central Standard Time),187764.09999999404,A,cow,O,w,300,1,1799.4000000059605,185964.69999998808,7249,WL,C,10.0
1,23.594000101089478,learn,36405.99989891052,Mon Dec 08 2025 18:22:52 GMT-0600 (Central Standard Time),188081.30000001192,A,cowenter,O,enter,311,1,2116.600000023842,185964.69999998808,7249,WL,C,10.0
1,24.092999935150146,learn,35907.00006484985,Mon Dec 08 2025 18:22:52 GMT-0600 (Central Standard Time),188580.5,A,s,O,s,484,1,498.90000000596046,188081.59999999404,7249,WL,C,11.0
1,24.39300012588501,learn,35606.99987411499,Mon Dec 08 2025 18:22:52 GMT-0600 (Central Standard Time),188880.69999998808,A,sh,O,h,289,1,799.0999999940395,188081.59999999404,7249,WL,C,11.0
1,24.64300012588501,learn,35356.99987411499,Mon Dec 08 2025 18:22:52 GMT-0600 (Central Standard Time),189130.59999999404,A,sho,O,o,245,1,1049.0,188081.59999999404,7249,WL,C,11.0
1,24.877000093460083,learn,35122.99990653992,Mon Dec 08 2025 18:22:52 GMT-0600 (Central Standard Time),189364.40000000596,A,shor,O,r,228,1,1282.800000011921,188081.59999999404,7249,WL,C,11.0
1,25.092999935150146,learn,34907.00006484985,Mon Dec 08 2025 18:22:52 GMT-0600 (Central Standard Time),189580.69999998808,A,shore,O,e,210,1,1499.0999999940395,188081.59999999404,7249,WL,C,11.0
1,25.5770001411438,learn,34422.9998588562,Mon Dec 08 2025 18:22:52 GMT-0600 (Central Standard Time),190064.80000001192,A,shoreenter,O,enter,463,1,1983.2000000178814,188081.59999999404,7249,WL,C,11.0
1,27.825999975204468,learn,32174.000024795532,Mon Dec 08 2025 18:22:52 GMT-0600 (Central Standard Time),192314.0,A,c,O,c,2228,1,2248.9000000059605,190065.09999999404,7249,WL,C,12.0
1,27.89199995994568,learn,32108.00004005432,Mon Dec 08 2025 18:22:52 GMT-0600 (Central Standard Time),192379.40000000596,A,co,O,o,60,1,2314.300000011921,190065.09999999404,7249,WL,C,12.0
1,28.20900011062622,learn,31790.99988937378,Mon Dec 08 2025 18:22:52 GMT-0600 (Central Standard Time),192696.5,A,cor,O,r,306,1,2631.4000000059605,190065.09999999404,7249,WL,C,12.0
1,28.311000108718872,learn,31688.999891281128,Mon Dec 08 2025 18:22:52 GMT-0600 (Central Standard Time),192799.09999999404,A,corn,O,n,99,1,2734.0,190065.09999999404,7249,WL,C,12.0
1,28.692000150680542,learn,31307.999849319458,Mon Dec 08 2025 18:22:52 GMT-0600 (Central Standard Time),193179.5,A,cornenter,O,enter,366,1,3114.4000000059605,190065.09999999404,7249,WL,C,12.0
1,49.00200009346008,learn,10997.999906539917,Mon Dec 08 2025 18:22:52 GMT-0600 (Central Standard Time),213489.59999999404,A,enter,O,enter,20290,1,20309.90000000596,193179.69999998808,7249,WL,C,13.0
1,55.56599998474121,learn,4434.000015258789,Mon Dec 08 2025 18:22:52 GMT-0600 (Central Standard Time),220054.0,A,enter,O,enter,6548,1,6564.0999999940395,213489.90000000596,7249,WL,C,14.0
1,56.6489999294281,learn,3351.0000705718994,Mon Dec 08 2025 18:22:52 GMT-0600 (Central Standard Time),221136.59999999404,A,enter,O,enter,1062,1,1082.2999999821186,220054.30000001192,7249,WL,C,15.0
2,1.182999849319458,learn,58817.00015068054,Mon Dec 08 2025 18:22:52 GMT-0600 (Central Standard Time),295830.6999999881,A,t,O,t,1173,1,1183.199999988079,294647.5,7249,WL,C,1.0
2,1.3819999694824219,learn,58618.00003051758,Mon Dec 08 2025 18:22:52 GMT-0600 (Central Standard Time),296029.8000000119,A,to,O,o,192,1,1382.300000011921,294647.5,7249,WL,C,1.0
2,1.5819997787475586,learn,58418.00022125244,Mon Dec 08 2025 18:22:52 GMT-0600 (Central Standard Time),296229.09999999404,A,tow,O,w,190,1,1581.5999999940395,294647.5,7249,WL,C,1.0
2,1.8339998722076416,learn,58166.00012779236,Mon Dec 08 2025 18:22:52 GMT-0600 (Central Standard Time),296481.1999999881,A,towe,O,e,233,1,1833.699999988079,294647.5,7249,WL,C,1.0
2,2.049999952316284,learn,57950.000047683716,Mon Dec 08 2025 18:22:52 GMT-0600 (Central Standard Time),296697.09999999404,A,tower,O,r,204,1,2049.5999999940395,294647.5,7249,WL,C,1.0
2,2.6489999294281006,learn,57351.0000705719,Mon Dec 08 2025 18:22:52 GMT-0600 (Central Standard Time),297296.3000000119,A,towerenter,O,enter,588,1,2648.800000011921,294647.5,7249,WL,C,1.0
2,3.2319998741149902,learn,56768.00012588501,Mon Dec 08 2025 18:22:52 GMT-0600 (Central Standard Time),297879.90000000596,A,w,O,w,573,1,583.3000000119209,297296.59999999404,7249,WL,C,2.0
2,3.3979997634887695,learn,56602.00023651123,Mon Dec 08 2025 18:22:52 GMT-0600 (Central Standard Time),298045.6999999881,A,wh,O,h,149,1,749.0999999940395,297296.59999999404,7249,WL,C,2.0
2,3.6479997634887695,learn,56352.00023651123,Mon Dec 08 2025 18:22:52 GMT-0600 (Central Standard Time),298296.0,A,whe,O,e,230,1,999.4000000059605,297296.59999999404,7249,WL,C,2.0
2,3.8999998569488525,learn,56100.00014305115,Mon Dec 08 2025 18:22:52 GMT-0600 (Central Standard Time),298547.6999999881,A,whea,O,a,246,1,1251.0999999940395,297296.59999999404,7249,WL,C,2.0
2,4.23199987411499,learn,55768.00012588501,Mon Dec 08 2025 18:22:52 GMT-0600 (Central Standard Time),298879.1999999881,A,wheat,O,t,312,1,1582.5999999940395,297296.59999999404,7249,WL,C,2.0
2,4.697999954223633,learn,55302.00004577637,Mon Dec 08 2025 18:22:52 GMT-0600 (Central Standard Time),299345.1999999881,A,wheatenter,O,enter,453,1,2048.5999999940395,297296.59999999404,7249,WL,C,2.0
2,5.21399998664856,learn,54786.00001335144,Mon Dec 08 2025 18:22:52 GMT-0600 (Central Standard Time),299861.6999999881,A,q,O,q,499,1,516.2999999821186,299345.40000000596,7249,WL,C,3.0
2,5.3979997634887695,learn,54602.00023651123,Mon Dec 08 2025 18:22:52 GMT-0600 (Central Standard Time),300045.40000000596,A,qu,O,u,171,1,700.0,299345.40000000596,7249,WL,C,3.0
2,5.580999851226807,learn,54419.00014877319,Mon Dec 08 2025 18:22:52 GMT-0600 (Central Standard Time),300228.90000000596,A,que,O,e,177,1,883.5,299345.40000000596,7249,WL,C,3.0
2,5.864999771118164,learn,54135.000228881836,Mon Dec 08 2025 18:22:52 GMT-0600 (Central Standard Time),300512.09999999404,A,quee,O,e,262,1,1166.699999988079,299345.40000000596,7249,WL,C,3.0
2,6.080999851226807,learn,53919.00014877319,Mon Dec 08 2025 18:22:52 GMT-0600 (Central Standard Time),300728.8000000119,A,queen,O,n,206,1,1383.4000000059605,299345.40000000596,7249,WL,C,3.0
2,6.563999891281128,learn,53436.00010871887,Mon Dec 08 2025 18:22:52 GMT-0600 (Central Standard Time),301211.3000000119,A,queenenter,O,enter,468,1,1865.9000000059605,299345.40000000596,7249,WL,C,3.0
2,6.997999906539917,learn,53002.00009346008,Mon Dec 08 2025 18:22:52 GMT-0600 (Central Standard Time),301645.6999999881,A,h,O,h,426,1,434.19999998807907,301211.5,7249,WL,C,4.0
2,7.229999780654907,learn,52770.00021934509,Mon Dec 08 2025 18:22:52 GMT-0600 (Central Standard Time),301877.1999999881,A,ho,O,o,223,1,665.6999999880791,301211.5,7249,WL,C,4.0
2,7.831999778747559,learn,52168.00022125244,Mon Dec 08 2025 18:22:52 GMT-0600 (Central Standard Time),302479.5,A,hom,O,m,584,1,1268.0,301211.5,7249,WL,C,4.0
2,8.115999937057495,learn,51884.000062942505,Mon Dec 08 2025 18:22:52 GMT-0600 (Central Standard Time),302764.0,A,home,O,e,263,1,1552.5,301211.5,7249,WL,C,4.0
2,8.580999851226807,learn,51419.00014877319,Mon Dec 08 2025 18:22:52 GMT-0600 (Central Standard Time),303228.6999999881,A,homeenter,O,enter,460,1,2017.199999988079,301211.5,7249,WL,C,4.0
2,9.095999956130981,learn,50904.00004386902,Mon Dec 08 2025 18:22:52 GMT-0600 (Central Standard Time),303743.1999999881,A,b,O,b,495,1,514.1999999880791,303229.0,7249,WL,C,5.0
2,9.36299991607666,learn,50637.00008392334,Mon Dec 08 2025 18:22:52 GMT-0600 (Central Standard Time),304010.6999999881,A,bo,O,o,254,1,781.6999999880791,303229.0,7249,WL,C,5.0
2,9.812999963760376,learn,50187.000036239624,Mon Dec 08 2025 18:22:52 GMT-0600 (Central Standard Time),304460.40000000596,A,boy,O,y,443,1,1231.4000000059605,303229.0,7249,WL,C,5.0
2,10.828999996185303,learn,49171.0000038147,Mon Dec 08 2025 18:22:52 GMT-0600 (Central Standard Time),305476.3000000119,A,boyenter,O,enter,1001,1,2247.300000011921,303229.0,7249,WL,C,5.0
2,11.363999843597412,learn,48636.00015640259,Mon Dec 08 2025 18:22:52 GMT-0600 (Central Standard Time),306011.1999999881,A,c,O,c,530,1,534.5999999940395,305476.59999999404,7249,WL,C,6.0
2,11.562999963760376,learn,48437.000036239624,Mon Dec 08 2025 18:22:52 GMT-0600 (Central Standard Time),306210.1999999881,A,ca,O,a,178,1,733.5999999940395,305476.59999999404,7249,WL,C,6.0
2,11.728999853134155,learn,48271.000146865845,Mon Dec 08 2025 18:22:52 GMT-0600 (Central Standard Time),306376.90000000596,A,cam,O,m,147,1,900.3000000119209,305476.59999999404,7249,WL,C,6.0
2,11.996999979019165,learn,48003.000020980835,Mon Dec 08 2025 18:22:52 GMT-0600 (Central Standard Time),306644.1999999881,A,camp,O,p,260,1,1167.5999999940395,305476.59999999404,7249,WL,C,6.0
2,12.52899980545044,learn,47471.00019454956,Mon Dec 08 2025 18:22:52 GMT-0600 (Central Standard Time),307176.90000000596,A,campenter,O,enter,520,1,1700.300000011921,305476.59999999404,7249,WL,C,6.0
2,13.144999980926514,learn,46855.000019073486,Mon Dec 08 2025 18:22:52 GMT-0600 (Central Standard Time),307792.90000000596,A,s,O,s,596,1,615.8000000119209,307177.09999999404,7249,WL,C,7.0
2,13.328999996185303,learn,46671.0000038147,Mon Dec 08 2025 18:22:52 GMT-0600 (Central Standard Time),307976.6999999881,A,su,O,u,164,1,799.5999999940395,307177.09999999404,7249,WL,C,7.0
2,13.828999996185303,learn,46171.0000038147,Mon Dec 08 2025 18:22:52 GMT-0600 (Central Standard Time),308476.3000000119,A,sug,O,g,486,1,1299.2000000178814,307177.09999999404,7249,WL,C,7.0
2,14.044999837875366,learn,45955.000162124634,Mon Dec 08 2025 18:22:52 GMT-0600 (Central Standard Time),308692.6999999881,A,suga,O,a,201,1,1515.5999999940395,307177.09999999404,7249,WL,C,7.0
2,14.211999893188477,learn,45788.00010681152,Mon Dec 08 2025 18:22:52 GMT-0600 (Central Standard Time),308859.40000000596,A,sugar,O,r,162,1,1682.300000011921,307177.09999999404,7249,WL,C,7.0
2,14.67799997329712,learn,45322.00002670288,Mon Dec 08 2025 18:22:52 GMT-0600 (Central Standard Time),309325.8000000119,A,sugarenter,O,enter,458,1,2148.7000000178814,307177.09999999404,7249,WL,C,7.0
2,15.077999830245972,learn,44922.00016975403,Mon Dec 08 2025 18:22:52 GMT-0600 (Central Standard Time),309725.5,A,d,O,d,383,1,399.40000000596046,309326.09999999404,7249,WL,C,8.0
2,15.293999910354614,learn,44706.000089645386,Mon Dec 08 2025 18:22:52 GMT-0600 (Central Standard Time),309942.0,A,do,O,o,207,1,615.9000000059605,309326.09999999404,7249,WL,C,8.0
2,15.459999799728394,learn,44540.00020027161,Mon Dec 08 2025 18:22:52 GMT-0600 (Central Standard Time),310107.90000000596,A,doc,O,c,151,1,781.8000000119209,309326.09999999404,7249,WL,C,8.0
2,15.727999925613403,learn,44272.0000743866,Mon Dec 08 2025 18:22:52 GMT-0600 (Central Standard Time),310375.8000000119,A,doct,O,t,249,1,1049.7000000178814,309326.09999999404,7249,WL,C,8.0
2,15.878999948501587,learn,44121.00005149841,Mon Dec 08 2025 18:22:52 GMT-0600 (Central Standard Time),310526.40000000596,A,docto,O,o,132,1,1200.300000011921,309326.09999999404,7249,WL,C,8.0
2,16.07699990272522,learn,43923.00009727478,Mon Dec 08 2025 18:22:52 GMT-0600 (Central Standard Time),310724.90000000596,A,doctor,O,r,181,1,1398.800000011921,309326.09999999404,7249,WL,C,8.0
2,16.443999767303467,learn,43556.00023269653,Mon Dec 08 2025 18:22:52 GMT-0600 (Central Standard Time),311091.6999999881,A,doctorenter,O,enter,361,1,1765.5999999940395,309326.09999999404,7249,WL,C,8.0
2,16.994999885559082,learn,43005.00011444092,Mon Dec 08 2025 18:22:52 GMT-0600 (Central Standard Time),311642.8000000119,A,l,O,l,537,1,551.0,311091.8000000119,7249,WL,C,9.0
2,17.176999807357788,learn,42823.00019264221,Mon Dec 08 2025 18:22:52 GMT-0600 (Central Standard Time),311824.5,A,le,O,e,162,1,732.6999999880791,311091.8000000119,7249,WL,C,9.0
2,17.544999837875366,learn,42455.000162124634,Mon Dec 08 2025 18:22:52 GMT-0600 (Central Standard Time),312192.1999999881,A,let,O,t,355,1,1100.3999999761581,311091.8000000119,7249,WL,C,9.0
2,18.293999910354614,learn,41706.000089645386,Mon Dec 08 2025 18:22:52 GMT-0600 (Central Standard Time),312941.40000000596,A,lett,O,t,741,1,1849.5999999940395,311091.8000000119,7249,WL,C,9.0
2,18.5939998626709,learn,41406.0001373291,Mon Dec 08 2025 18:22:52 GMT-0600 (Central Standard Time),313241.90000000596,A,lette,O,e,294,1,2150.0999999940395,311091.8000000119,7249,WL,C,9.0
2,18.792999982833862,learn,41207.00001716614,Mon Dec 08 2025 18:22:52 GMT-0600 (Central Standard Time),313441.0,A,letter,O,r,179,1,2349.199999988079,311091.8000000119,7249,WL,C,9.0
2,19.193999767303467,learn,40806.00023269653,Mon Dec 08 2025 18:22:52 GMT-0600 (Central Standard Time),313841.8000000119,A,letterenter,O,enter,389,1,2750.0,311091.8000000119,7249,WL,C,9.0
2,20.192999839782715,learn,39807.000160217285,Mon Dec 08 2025 18:22:52 GMT-0600 (Central Standard Time),314840.90000000596,A,n,O,n,979,1,998.8000000119209,313842.09999999404,7249,WL,C,10.0
2,20.375999927520752,learn,39624.00007247925,Mon Dec 08 2025 18:22:52 GMT-0600 (Central Standard Time),315023.8000000119,A,na,O,a,172,1,1181.7000000178814,313842.09999999404,7249,WL,C,10.0
2,20.592999935150146,learn,39407.00006484985,Mon Dec 08 2025 18:22:52 GMT-0600 (Central Standard Time),315240.1999999881,A,nai,O,i,198,1,1398.0999999940395,313842.09999999404,7249,WL,C,10.0
2,20.80999994277954,learn,39190.00005722046,Mon Dec 08 2025 18:22:52 GMT-0600 (Central Standard Time),315457.59999999404,A,nail,O,l,195,1,1615.5,313842.09999999404,7249,WL,C,10.0
2,21.127999782562256,learn,38872.000217437744,Mon Dec 08 2025 18:22:52 GMT-0600 (Central Standard Time),315775.09999999404,A,nailenter,O,enter,298,1,1933.0,313842.09999999404,7249,WL,C,10.0
2,21.792999982833862,learn,38207.00001716614,Mon Dec 08 2025 18:22:52 GMT-0600 (Central Standard Time),316440.59999999404,A,c,O,c,645,1,665.2999999821186,315775.3000000119,7249,WL,C,11.0
2,21.99399995803833,learn,38006.00004196167,Mon Dec 08 2025 18:22:52 GMT-0600 (Central Standard Time),316641.8000000119,A,co,O,o,181,1,866.5,315775.3000000119,7249,WL,C,11.0
2,22.293999910354614,learn,37706.000089645386,Mon Dec 08 2025 18:22:52 GMT-0600 (Central Standard Time),316941.1999999881,A,cor,O,r,291,1,1165.8999999761581,315775.3000000119,7249,WL,C,11.0
2,22.45899987220764,learn,37541.00012779236,Mon Dec 08 2025 18:22:52 GMT-0600 (Central Standard Time),317107.0,A,corn,O,n,153,1,1331.699999988079,315775.3000000119,7249,WL,C,11.0
2,22.80899977684021,learn,37191.00022315979,Mon Dec 08 2025 18:22:52 GMT-0600 (Central Standard Time),317456.6999999881,A,cornenter,O,enter,339,1,1681.3999999761581,315775.3000000119,7249,WL,C,11.0
2,23.140999794006348,learn,36859.00020599365,Mon Dec 08 2025 18:22:52 GMT-0600 (Central Standard Time),317788.90000000596,A,c,O,c,324,1,331.90000000596046,317457.0,7249,WL,C,12.0
2,23.408999919891357,learn,36591.00008010864,Mon Dec 08 2025 18:22:52 GMT-0600 (Central Standard Time),318056.8000000119,A,ca,O,a,249,1,599.8000000119209,317457.0,7249,WL,C,12.0
2,23.625,learn,36375.0,Mon Dec 08 2025 18:22:52 GMT-0600 (Central Standard Time),318272.6999999881,A,cat,O,t,204,1,815.6999999880791,317457.0,7249,WL,C,12.0
2,23.825999975204468,learn,36174.00002479553,Mon Dec 08 2025 18:22:52 GMT-0600 (Central Standard Time),318473.59999999404,A,catt,O,t,179,1,1016.5999999940395,317457.0,7249,WL,C,12.0
2,24.14199995994568,learn,35858.00004005432,Mon Dec 08 2025 18:22:52 GMT-0600 (Central Standard Time),318789.40000000596,A,cattl,O,l,298,1,1332.4000000059605,317457.0,7249,WL,C,12.0
2,24.358999967575073,learn,35641.00003242493,Mon Dec 08 2025 18:22:52 GMT-0600 (Central Standard Time),319006.90000000596,A,cattle,O,e,210,1,1549.9000000059605,317457.0,7249,WL,C,12.0
2,24.625,learn,35375.0,Mon Dec 08 2025 18:22:52 GMT-0600 (Central Standard Time),319272.09999999404,A,cattleenter,O,enter,246,1,1815.0999999940395,317457.0,7249,WL,C,12.0
2,25.091999769210815,learn,34908.000230789185,Mon Dec 08 2025 18:22:52 GMT-0600 (Central Standard Time),319739.5,A,s,O,s,462,1,467.09999999403954,319272.40000000596,7249,WL,C,13.0
2,25.223999977111816,learn,34776.00002288818,Mon Dec 08 2025 18:22:52 GMT-0600 (Central Standard Time),319871.6999999881,A,sh,O,h,121,1,599.2999999821186,319272.40000000596,7249,WL,C,13.0
2,25.424999952316284,learn,34575.000047683716,Mon Dec 08 2025 18:22:52 GMT-0600 (Central Standard Time),320072.59999999404,A,sho,O,o,189,1,800.1999999880791,319272.40000000596,7249,WL,C,13.0
2,25.722999811172485,learn,34277.000188827515,Mon Dec 08 2025 18:22:52 GMT-0600 (Central Standard Time),320370.6999999881,A,shor,O,r,284,1,1098.2999999821186,319272.40000000596,7249,WL,C,13.0
2,25.85699987411499,learn,34143.00012588501,Mon Dec 08 2025 18:22:52 GMT-0600 (Central Standard Time),320504.40000000596,A,shore,O,e,124,1,1232.0,319272.40000000596,7249,WL,C,13.0
2,26.29099988937378,learn,33709.00011062622,Mon Dec 08 2025 18:22:52 GMT-0600 (Central Standard Time),320938.59999999404,A,shoreenter,O,enter,431,1,1666.199999988079,319272.40000000596,7249,WL,C,13.0
2,26.64199995994568,learn,33358.00004005432,Mon Dec 08 2025 18:22:52 GMT-0600 (Central Standard Time),321289.09999999404,A,b,O,b,338,1,349.7999999821186,320939.3000000119,7249,WL,C,14.0
2,26.824999809265137,learn,33175.00019073486,Mon Dec 08 2025 18:22:52 GMT-0600 (Central Standard Time),321472.6999999881,A,bo,O,o,161,1,533.3999999761581,320939.3000000119,7249,WL,C,14.0
2,27.02299976348877,learn,32977.00023651123,Mon Dec 08 2025 18:22:52 GMT-0600 (Central Standard Time),321670.59999999404,A,bod,O,d,189,1,731.2999999821186,320939.3000000119,7249,WL,C,14.0
2,27.274999856948853,learn,32725.000143051147,Mon Dec 08 2025 18:22:52 GMT-0600 (Central Standard Time),321922.6999999881,A,body,O,y,239,1,983.3999999761581,320939.3000000119,7249,WL,C,14.0
2,28.107999801635742,learn,31892.000198364258,Mon Dec 08 2025 18:22:52 GMT-0600 (Central Standard Time),322755.1999999881,A,bodyenter,O,enter,828,1,1815.8999999761581,320939.3000000119,7249,WL,C,14.0
2,39.80999994277954,learn,20190.00005722046,Mon Dec 08 2025 18:22:52 GMT-0600 (Central Standard Time),334457.6999999881,A,enter,O,enter,11681,1,11702.199999988079,322755.5,7249,WL,C,15.0
3,0.8480000495910645,learn,59151.999950408936,Mon Dec 08 2025 18:22:52 GMT-0600 (Central Standard Time),403429.90000000596,A,t,O,t,828,1,847.2000000178814,402582.6999999881,7249,WL,C,1.0
3,1.1470000743865967,learn,58852.9999256134,Mon Dec 08 2025 18:22:52 GMT-0600 (Central Standard Time),403729.59999999404,A,to,O,o,278,1,1146.9000000059605,402582.6999999881,7249,WL,C,1.0
3,1.3970000743865967,learn,58602.9999256134,Mon Dec 08 2025 18:22:52 GMT-0600 (Central Standard Time),403979.0,A,tow,O,w,244,1,1396.300000011921,402582.6999999881,7249,WL,C,1.0
3,1.7139999866485596,learn,58286.00001335144,Mon Dec 08 2025 18:22:52 GMT-0600 (Central Standard Time),404296.0,A,towe,O,e,307,1,1713.300000011921,402582.6999999881,7249,WL,C,1.0
3,1.9620001316070557,learn,58037.999868392944,Mon Dec 08 2025 18:22:52 GMT-0600 (Central Standard Time),404544.1999999881,A,tower,O,r,235,1,1961.5,402582.6999999881,7249,WL,C,1.0
3,2.5460000038146973,learn,57453.9999961853,Mon Dec 08 2025 18:22:52 GMT-0600 (Central Standard Time),405128.0,A,towerenter,O,enter,566,1,2545.300000011921,402582.6999999881,7249,WL,C,1.0
3,3.198000192642212,learn,56801.99980735779,Mon Dec 08 2025 18:22:52 GMT-0600 (Central Standard Time),405780.1999999881,A,w,O,w,647,1,652.0,405128.1999999881,7249,WL,C,2.0
3,3.447000026702881,learn,56552.99997329712,Mon Dec 08 2025 18:22:52 GMT-0600 (Central Standard Time),406028.90000000596,A,wh,O,h,244,1,900.7000000178814,405128.1999999881,7249,WL,C,2.0
3,3.6630001068115234,learn,56336.99989318848,Mon Dec 08 2025 18:22:52 GMT-0600 (Central Standard Time),406245.3000000119,A,whe,O,e,208,1,1117.1000000238419,405128.1999999881,7249,WL,C,2.0
3,3.945000171661377,learn,56054.99982833862,Mon Dec 08 2025 18:22:52 GMT-0600 (Central Standard Time),406527.5,A,whea,O,a,261,1,1399.300000011921,405128.1999999881,7249,WL,C,2.0
3,4.229000091552734,learn,55770.999908447266,Mon Dec 08 2025 18:22:52 GMT-0600 (Central Standard Time),406811.5,A,whear,O,r,279,1,1683.300000011921,405128.1999999881,7249,WL,C,2.0
3,5.461000204086304,learn,54538.999795913696,Mon Dec 08 2025 18:22:52 GMT-0600 (Central Standard Time),408043.40000000596,A,whea,O,backspace,1219,1,2915.2000000178814,405128.1999999881,7249,WL,C,2.0
3,6.111999988555908,learn,53888.00001144409,Mon Dec 08 2025 18:22:52 GMT-0600 (Central Standard Time),408693.90000000596,A,wheat,O,t,635,1,3565.7000000178814,405128.1999999881,7249,WL,C,2.0
3,6.67900013923645,learn,53320.99986076355,Mon Dec 08 2025 18:22:52 GMT-0600 (Central Standard Time),409261.5,A,wheatenter,O,enter,552,1,4133.300000011921,405128.1999999881,7249,WL,C,2.0
3,7.2790000438690186,learn,52720.99995613098,Mon Dec 08 2025 18:22:52 GMT-0600 (Central Standard Time),409861.0,A,q,O,q,595,1,599.1999999880791,409261.8000000119,7249,WL,C,3.0
3,7.562000036239624,learn,52437.999963760376,Mon Dec 08 2025 18:22:52 GMT-0600 (Central Standard Time),410143.90000000596,A,qu,O,u,262,1,882.0999999940395,409261.8000000119,7249,WL,C,3.0
3,7.794000148773193,learn,52205.99985122681,Mon Dec 08 2025 18:22:52 GMT-0600 (Central Standard Time),410376.59999999404,A,que,O,e,214,1,1114.7999999821186,409261.8000000119,7249,WL,C,3.0
3,8.044000148773193,learn,51955.99985122681,Mon Dec 08 2025 18:22:52 GMT-0600 (Central Standard Time),410626.3000000119,A,quee,O,e,235,1,1364.5,409261.8000000119,7249,WL,C,3.0
3,8.344000101089478,learn,51655.99989891052,Mon Dec 08 2025 18:22:52 GMT-0600 (Central Standard Time),410926.1999999881,A,queen,O,n,293,1,1664.3999999761581,409261.8000000119,7249,WL,C,3.0
3,8.96399998664856,learn,51036.00001335144,Mon Dec 08 2025 18:22:52 GMT-0600 (Central Standard Time),411545.90000000596,A,queenenter,O,enter,606,1,2284.0999999940395,409261.8000000119,7249,WL,C,3.0
3,9.561000108718872,learn,50438.99989128113,Mon Dec 08 2025 18:22:52 GMT-0600 (Central Standard Time),412143.90000000596,A,s,O,s,587,1,597.8000000119209,411546.09999999404,7249,WL,C,4.0
3,9.74400019645691,learn,50255.99980354309,Mon Dec 08 2025 18:22:52 GMT-0600 (Central Standard Time),412326.6999999881,A,su,O,u,173,1,780.5999999940395,411546.09999999404,7249,WL,C,4.0
3,10.094000101089478,learn,49905.99989891052,Mon Dec 08 2025 18:22:52 GMT-0600 (Central Standard Time),412675.90000000596,A,sug,O,g,334,1,1129.800000011921,411546.09999999404,7249,WL,C,4.0
3,10.378000020980835,learn,49621.999979019165,Mon Dec 08 2025 18:22:52 GMT-0600 (Central Standard Time),412960.59999999404,A,suga,O,a,274,1,1414.5,411546.09999999404,7249,WL,C,4.0
3,10.680000066757202,learn,49319.9999332428,Mon Dec 08 2025 18:22:52 GMT-0600 (Central Standard Time),413262.0,A,sugar,O,r,297,1,1715.9000000059605,411546.09999999404,7249,WL,C,4.0
3,11.860000133514404,learn,48139.999866485596,Mon Dec 08 2025 18:22:52 GMT-0600 (Central Standard Time),414442.09999999404,A,sugarenter,O,enter,1167,1,2896.0,411546.09999999404,7249,WL,C,4.0
3,12.31000018119812,learn,47689.99981880188,Mon Dec 08 2025 18:22:52 GMT-0600 (Central Standard Time),414892.6999999881,A,h,O,h,436,1,450.2999999821186,414442.40000000596,7249,WL,C,5.0
3,12.544000148773193,learn,47455.99985122681,Mon Dec 08 2025 18:22:52 GMT-0600 (Central Standard Time),415126.5,A,ho,O,o,216,1,684.0999999940395,414442.40000000596,7249,WL,C,5.0
3,12.843000173568726,learn,47156.999826431274,Mon Dec 08 2025 18:22:52 GMT-0600 (Central Standard Time),415425.0,A,hom,O,m,287,1,982.5999999940395,414442.40000000596,7249,WL,C,5.0
3,13.125,learn,46875.0,Mon Dec 08 2025 18:22:52 GMT-0600 (Central Standard Time),415707.8000000119,A,home,O,e,277,1,1265.4000000059605,414442.40000000596,7249,WL,C,5.0
3,13.826000213623047,learn,46173.99978637695,Mon Dec 08 2025 18:22:52 GMT-0600 (Central Standard Time),416408.09999999404,A,homeenter,O,enter,681,1,1965.699999988079,414442.40000000596,7249,WL,C,5.0
3,14.442000150680542,learn,45557.99984931946,Mon Dec 08 2025 18:22:52 GMT-0600 (Central Standard Time),417024.6999999881,A,b,O,b,605,1,616.3999999761581,416408.3000000119,7249,WL,C,6.0
3,14.677000045776367,learn,45322.99995422363,Mon Dec 08 2025 18:22:52 GMT-0600 (Central Standard Time),417259.6999999881,A,bo,O,o,213,1,851.3999999761581,416408.3000000119,7249,WL,C,6.0
3,14.95900011062622,learn,45040.99988937378,Mon Dec 08 2025 18:22:52 GMT-0600 (Central Standard Time),417541.1999999881,A,boy,O,y,273,1,1132.8999999761581,416408.3000000119,7249,WL,C,6.0
3,15.491000175476074,learn,44508.999824523926,Mon Dec 08 2025 18:22:52 GMT-0600 (Central Standard Time),418073.5,A,boyenter,O,enter,521,1,1665.199999988079,416408.3000000119,7249,WL,C,6.0
3,16.125,learn,43875.0,Mon Dec 08 2025 18:22:52 GMT-0600 (Central Standard Time),418707.5,A,d,O,d,629,1,633.8000000119209,418073.6999999881,7249,WL,C,7.0
3,16.37600016593933,learn,43623.99983406067,Mon Dec 08 2025 18:22:52 GMT-0600 (Central Standard Time),418958.09999999404,A,do,O,o,233,1,884.4000000059605,418073.6999999881,7249,WL,C,7.0
3,16.942000150680542,learn,43057.99984931946,Mon Dec 08 2025 18:22:52 GMT-0600 (Central Standard Time),419524.3000000119,A,doc,O,c,553,1,1450.6000000238419,418073.6999999881,7249,WL,C,7.0
3,17.261000156402588,learn,42738.99984359741,Mon Dec 08 2025 18:22:52 GMT-0600 (Central Standard Time),419843.3000000119,A,doct,O,t,314,1,1769.6000000238419,418073.6999999881,7249,WL,C,7.0
3,17.54200005531311,learn,42457.99994468689,Mon Dec 08 2025 18:22:52 GMT-0600 (Central Standard Time),420124.8000000119,A,docto,O,o,276,1,2051.100000023842,418073.6999999881,7249,WL,C,7.0
3,17.741000175476074,learn,42258.999824523926,Mon Dec 08 2025 18:22:52 GMT-0600 (Central Standard Time),420323.1999999881,A,doctor,O,r,192,1,2249.5,418073.6999999881,7249,WL,C,7.0
3,18.125,learn,41875.0,Mon Dec 08 2025 18:22:52 GMT-0600 (Central Standard Time),420707.8000000119,A,doctorenter,O,enter,369,1,2634.100000023842,418073.6999999881,7249,WL,C,7.0
3,18.591000080108643,learn,41408.99991989136,Mon Dec 08 2025 18:22:52 GMT-0600 (Central Standard Time),421173.8000000119,A,c,O,c,451,1,465.80000001192093,420708.0,7249,WL,C,8.0
3,18.824000120162964,learn,41175.999879837036,Mon Dec 08 2025 18:22:52 GMT-0600 (Central Standard Time),421406.8000000119,A,ca,O,a,215,1,698.8000000119209,420708.0,7249,WL,C,8.0
3,19.057000160217285,learn,40942.999839782715,Mon Dec 08 2025 18:22:52 GMT-0600 (Central Standard Time),421639.8000000119,A,cam,O,m,223,1,931.8000000119209,420708.0,7249,WL,C,8.0
3,19.424000024795532,learn,40575.99997520447,Mon Dec 08 2025 18:22:52 GMT-0600 (Central Standard Time),422006.8000000119,A,camp,O,p,359,1,1298.800000011921,420708.0,7249,WL,C,8.0
3,19.95800018310547,learn,40041.99981689453,Mon Dec 08 2025 18:22:52 GMT-0600 (Central Standard Time),422539.90000000596,A,campenter,O,enter,518,1,1831.9000000059605,420708.0,7249,WL,C,8.0
3,20.374000072479248,learn,39625.99992752075,Mon Dec 08 2025 18:22:52 GMT-0600 (Central Standard Time),422956.5,A,f,O,f,412,1,416.30000001192093,422540.1999999881,7249,WL,C,9.0
3,20.657000064849854,learn,39342.99993515015,Mon Dec 08 2025 18:22:52 GMT-0600 (Central Standard Time),423239.09999999404,A,fl,O,l,273,1,698.9000000059605,422540.1999999881,7249,WL,C,9.0
3,20.891000032424927,learn,39108.99996757507,Mon Dec 08 2025 18:22:52 GMT-0600 (Central Standard Time),423473.8000000119,A,fla,O,a,215,1,933.6000000238419,422540.1999999881,7249,WL,C,9.0
3,21.35700011253357,learn,38642.99988746643,Mon Dec 08 2025 18:22:52 GMT-0600 (Central Standard Time),423939.59999999404,A,flag,O,g,461,1,1399.4000000059605,422540.1999999881,7249,WL,C,9.0
3,21.790000200271606,learn,38209.99979972839,Mon Dec 08 2025 18:22:52 GMT-0600 (Central Standard Time),424372.40000000596,A,flagenter,O,enter,419,1,1832.2000000178814,422540.1999999881,7249,WL,C,9.0
3,22.23900008201599,learn,37760.99991798401,Mon Dec 08 2025 18:22:52 GMT-0600 (Central Standard Time),424821.6999999881,A,l,O,l,432,1,449.0,424372.6999999881,7249,WL,C,10.0
3,22.473000049591064,learn,37526.999950408936,Mon Dec 08 2025 18:22:52 GMT-0600 (Central Standard Time),425055.3000000119,A,le,O,e,223,1,682.6000000238419,424372.6999999881,7249,WL,C,10.0
3,22.77300000190735,learn,37226.99999809265,Mon Dec 08 2025 18:22:52 GMT-0600 (Central Standard Time),425355.5,A,let,O,t,295,1,982.8000000119209,424372.6999999881,7249,WL,C,10.0
3,22.956000089645386,learn,37043.999910354614,Mon Dec 08 2025 18:22:52 GMT-0600 (Central Standard Time),425538.8000000119,A,lett,O,t,171,1,1166.1000000238419,424372.6999999881,7249,WL,C,10.0
3,23.257000207901,learn,36742.999792099,Mon Dec 08 2025 18:22:52 GMT-0600 (Central Standard Time),425839.0,A,lette,O,e,289,1,1466.300000011921,424372.6999999881,7249,WL,C,10.0
3,23.407000064849854,learn,36592.99993515015,Mon Dec 08 2025 18:22:52 GMT-0600 (Central Standard Time),425988.90000000596,A,letter,O,r,145,1,1616.2000000178814,424372.6999999881,7249,WL,C,10.0
3,23.890000104904175,learn,36109.999895095825,Mon Dec 08 2025 18:22:52 GMT-0600 (Central Standard Time),426472.0,A,letterenter,O,enter,473,1,2099.300000011921,424372.6999999881,7249,WL,C,10.0
3,24.407000064849854,learn,35592.99993515015,Mon Dec 08 2025 18:22:52 GMT-0600 (Central Standard Time),426989.1999999881,A,c,O,c,496,1,517.0,426472.1999999881,7249,WL,C,11.0
3,24.58899998664856,learn,35411.00001335144,Mon Dec 08 2025 18:22:52 GMT-0600 (Central Standard Time),427171.3000000119,A,co,O,o,167,1,699.1000000238419,426472.1999999881,7249,WL,C,11.0
3,24.83899998664856,learn,35161.00001335144,Mon Dec 08 2025 18:22:52 GMT-0600 (Central Standard Time),427421.8000000119,A,cor,O,r,233,1,949.6000000238419,426472.1999999881,7249,WL,C,11.0
3,25.04100012779236,learn,34958.99987220764,Mon Dec 08 2025 18:22:52 GMT-0600 (Central Standard Time),427622.90000000596,A,corn,O,n,193,1,1150.7000000178814,426472.1999999881,7249,WL,C,11.0
3,25.373000144958496,learn,34626.999855041504,Mon Dec 08 2025 18:22:52 GMT-0600 (Central Standard Time),427955.40000000596,A,cornenter,O,enter,328,1,1483.2000000178814,426472.1999999881,7249,WL,C,11.0
3,25.823000192642212,learn,34176.99980735779,Mon Dec 08 2025 18:22:52 GMT-0600 (Central Standard Time),428405.59999999404,A,n,O,n,445,1,449.90000000596046,427955.6999999881,7249,WL,C,12.0
3,26.02300000190735,learn,33976.99999809265,Mon Dec 08 2025 18:22:52 GMT-0600 (Central Standard Time),428604.90000000596,A,na,O,a,193,1,649.2000000178814,427955.6999999881,7249,WL,C,12.0
3,26.140000104904175,learn,33859.999895095825,Mon Dec 08 2025 18:22:52 GMT-0600 (Central Standard Time),428722.0,A,nai,O,i,111,1,766.3000000119209,427955.6999999881,7249,WL,C,12.0
3,26.378000020980835,learn,33621.999979019165,Mon Dec 08 2025 18:22:52 GMT-0600 (Central Standard Time),428960.1999999881,A,nail,O,l,220,1,1004.5,427955.6999999881,7249,WL,C,12.0
3,26.83899998664856,learn,33161.00001335144,Mon Dec 08 2025 18:22:52 GMT-0600 (Central Standard Time),429420.90000000596,A,nailenter,O,enter,447,1,1465.2000000178814,427955.6999999881,7249,WL,C,12.0
3,27.272000074386597,learn,32727.999925613403,Mon Dec 08 2025 18:22:52 GMT-0600 (Central Standard Time),429854.09999999404,A,c,O,c,418,1,432.90000000596046,429421.1999999881,7249,WL,C,13.0
3,27.48800015449524,learn,32511.99984550476,Mon Dec 08 2025 18:22:52 GMT-0600 (Central Standard Time),430070.09999999404,A,ca,O,a,206,1,648.9000000059605,429421.1999999881,7249,WL,C,13.0
3,27.65500020980835,learn,32344.99979019165,Mon Dec 08 2025 18:22:52 GMT-0600 (Central Standard Time),430237.40000000596,A,cat,O,t,159,1,816.2000000178814,429421.1999999881,7249,WL,C,13.0
3,27.838000059127808,learn,32161.999940872192,Mon Dec 08 2025 18:22:52 GMT-0600 (Central Standard Time),430420.6999999881,A,catt,O,t,165,1,999.5,429421.1999999881,7249,WL,C,13.0
3,28.038000106811523,learn,31961.999893188477,Mon Dec 08 2025 18:22:52 GMT-0600 (Central Standard Time),430620.59999999404,A,cattl,O,l,183,1,1199.4000000059605,429421.1999999881,7249,WL,C,13.0
3,28.23800015449524,learn,31761.99984550476,Mon Dec 08 2025 18:22:52 GMT-0600 (Central Standard Time),430820.6999999881,A,cattle,O,e,176,1,1399.5,429421.1999999881,7249,WL,C,13.0
3,28.472000122070312,learn,31527.999877929688,Mon Dec 08 2025 18:22:52 GMT-0600 (Central Standard Time),431054.59999999404,A,cattleenter,O,enter,214,1,1633.4000000059605,429421.1999999881,7249,WL,C,13.0
3,28.75600004196167,learn,31243.99995803833,Mon Dec 08 2025 18:22:52 GMT-0600 (Central Standard Time),431338.09999999404,A,s,O,s,261,1,283.19999998807907,431054.90000000596,7249,WL,C,14.0
3,28.871000051498413,learn,31128.999948501587,Mon Dec 08 2025 18:22:52 GMT-0600 (Central Standard Time),431453.40000000596,A,sh,O,h,106,1,398.5,431054.90000000596,7249,WL,C,14.0
3,29.08899998664856,learn,30911.00001335144,Mon Dec 08 2025 18:22:52 GMT-0600 (Central Standard Time),431671.59999999404,A,sho,O,o,207,1,616.6999999880791,431054.90000000596,7249,WL,C,14.0
3,29.288000106811523,learn,30711.999893188477,Mon Dec 08 2025 18:22:52 GMT-0600 (Central Standard Time),431870.40000000596,A,shor,O,r,180,1,815.5,431054.90000000596,7249,WL,C,14.0
3,29.456000089645386,learn,30543.999910354614,Mon Dec 08 2025 18:22:52 GMT-0600 (Central Standard Time),432037.90000000596,A,shore,O,e,159,1,983.0,431054.90000000596,7249,WL,C,14.0
3,29.687000036239624,learn,30312.999963760376,Mon Dec 08 2025 18:22:52 GMT-0600 (Central Standard Time),432269.5,A,shoreenter,O,enter,220,1,1214.5999999940395,431054.90000000596,7249,WL,C,14.0
3,29.986999988555908,learn,30013.00001144409,Mon Dec 08 2025 18:22:52 GMT-0600 (Central Standard Time),432569.8000000119,A,b,O,b,289,1,300.0,432269.8000000119,7249,WL,C,15.0
3,30.171000003814697,learn,29828.999996185303,Mon Dec 08 2025 18:22:52 GMT-0600 (Central Standard Time),432753.40000000596,A,bo,O,o,160,1,483.59999999403954,432269.8000000119,7249,WL,C,15.0
3,30.338000059127808,learn,29661.999940872192,Mon Dec 08 2025 18:22:52 GMT-0600 (Central Standard Time),432920.09999999404,A,bod,O,d,155,1,650.2999999821186,432269.8000000119,7249,WL,C,15.0
3,30.51900005340576,learn,29480.99994659424,Mon Dec 08 2025 18:22:52 GMT-0600 (Central Standard Time),433101.3000000119,A,body,O,y,172,1,831.5,432269.8000000119,7249,WL,C,15.0
3,30.78700017929077,learn,29212.99982070923,Mon Dec 08 2025 18:22:52 GMT-0600 (Central Standard Time),433369.3000000119,A,bodyenter,O,enter,248,1,1099.5,432269.8000000119,7249,WL,C,15.0
4,0.7319998741149902,learn,59268.00012588501,Mon Dec 08 2025 18:22:52 GMT-0600 (Central Standard Time),499832.0,A,t,O,t,717,1,732.3000000119209,499099.6999999881,7249,WL,C,1.0
4,0.9639999866485596,learn,59036.00001335144,Mon Dec 08 2025 18:22:52 GMT-0600 (Central Standard Time),500064.1999999881,A,to,O,o,222,1,964.5,499099.6999999881,7249,WL,C,1.0
4,1.1969997882843018,learn,58803.0002117157,Mon Dec 08 2025 18:22:52 GMT-0600 (Central Standard Time),500297.1999999881,A,tow,O,w,221,1,1197.5,499099.6999999881,7249,WL,C,1.0
4,1.4649999141693115,learn,58535.00008583069,Mon Dec 08 2025 18:22:52 GMT-0600 (Central Standard Time),500564.3000000119,A,towe,O,e,253,1,1464.6000000238419,499099.6999999881,7249,WL,C,1.0
4,1.7149999141693115,learn,58285.00008583069,Mon Dec 08 2025 18:22:52 GMT-0600 (Central Standard Time),500814.90000000596,A,tower,O,r,232,1,1715.2000000178814,499099.6999999881,7249,WL,C,1.0
4,2.1649999618530273,learn,57835.00003814697,Mon Dec 08 2025 18:22:52 GMT-0600 (Central Standard Time),501264.3000000119,A,towerenter,O,enter,437,1,2164.600000023842,499099.6999999881,7249,WL,C,1.0
4,2.681999921798706,learn,57318.000078201294,Mon Dec 08 2025 18:22:52 GMT-0600 (Central Standard Time),501782.0,A,w,O,w,502,1,517.4000000059605,501264.59999999404,7249,WL,C,2.0
4,2.9649999141693115,learn,57035.00008583069,Mon Dec 08 2025 18:22:52 GMT-0600 (Central Standard Time),502064.90000000596,A,wh,O,h,271,1,800.3000000119209,501264.59999999404,7249,WL,C,2.0
4,3.2829999923706055,learn,56717.000007629395,Mon Dec 08 2025 18:22:52 GMT-0600 (Central Standard Time),502382.1999999881,A,whe,O,e,310,1,1117.5999999940395,501264.59999999404,7249,WL,C,2.0
4,3.613999843597412,learn,56386.00015640259,Mon Dec 08 2025 18:22:52 GMT-0600 (Central Standard Time),502714.0,A,whea,O,a,318,1,1449.4000000059605,501264.59999999404,7249,WL,C,2.0
4,3.8989999294281006,learn,56101.0000705719,Mon Dec 08 2025 18:22:52 GMT-0600 (Central Standard Time),502998.6999999881,A,wheat,O,t,266,1,1734.0999999940395,501264.59999999404,7249,WL,C,2.0
4,4.330999851226807,learn,55669.00014877319,Mon Dec 08 2025 18:22:52 GMT-0600 (Central Standard Time),503430.5,A,wheatenter,O,enter,422,1,2165.9000000059605,501264.59999999404,7249,WL,C,2.0
4,4.830999851226807,learn,55169.00014877319,Mon Dec 08 2025 18:22:52 GMT-0600 (Central Standard Time),503930.8000000119,A,q,O,q,487,1,500.0,503430.8000000119,7249,WL,C,3.0
4,5.0299999713897705,learn,54970.00002861023,Mon Dec 08 2025 18:22:52 GMT-0600 (Central Standard Time),504129.59999999404,A,qu,O,u,185,1,698.7999999821186,503430.8000000119,7249,WL,C,3.0
4,5.263999938964844,learn,54736.000061035156,Mon Dec 08 2025 18:22:52 GMT-0600 (Central Standard Time),504364.40000000596,A,que,O,e,231,1,933.5999999940395,503430.8000000119,7249,WL,C,3.0
4,5.730999946594238,learn,54269.00005340576,Mon Dec 08 2025 18:22:52 GMT-0600 (Central Standard Time),504830.59999999404,A,quee,O,e,454,1,1399.7999999821186,503430.8000000119,7249,WL,C,3.0
4,6.2799999713897705,learn,53720.00002861023,Mon Dec 08 2025 18:22:52 GMT-0600 (Central Standard Time),505379.6999999881,A,queen,O,n,543,1,1948.8999999761581,503430.8000000119,7249,WL,C,3.0
4,6.796000003814697,learn,53203.9999961853,Mon Dec 08 2025 18:22:52 GMT-0600 (Central Standard Time),505895.90000000596,A,queenenter,O,enter,496,1,2465.0999999940395,503430.8000000119,7249,WL,C,3.0
4,7.2799999713897705,learn,52720.00002861023,Mon Dec 08 2025 18:22:52 GMT-0600 (Central Standard Time),506379.6999999881,A,h,O,h,478,1,483.5,505896.1999999881,7249,WL,C,4.0
4,7.514999866485596,learn,52485.000133514404,Mon Dec 08 2025 18:22:52 GMT-0600 (Central Standard Time),506614.5,A,ho,O,o,223,1,718.3000000119209,505896.1999999881,7249,WL,C,4.0
4,7.812999963760376,learn,52187.000036239624,Mon Dec 08 2025 18:22:52 GMT-0600 (Central Standard Time),506912.5,A,hom,O,m,276,1,1016.3000000119209,505896.1999999881,7249,WL,C,4.0
4,8.078999996185303,learn,51921.0000038147,Mon Dec 08 2025 18:22:52 GMT-0600 (Central Standard Time),507178.59999999404,A,home,O,e,252,1,1282.4000000059605,505896.1999999881,7249,WL,C,4.0
4,8.54699993133545,learn,51453.00006866455,Mon Dec 08 2025 18:22:52 GMT-0600 (Central Standard Time),507646.40000000596,A,homeenter,O,enter,460,1,1750.2000000178814,505896.1999999881,7249,WL,C,4.0
4,9.013000011444092,learn,50986.99998855591,Mon Dec 08 2025 18:22:52 GMT-0600 (Central Standard Time),508112.8000000119,A,s,O,s,447,1,466.10000002384186,507646.6999999881,7249,WL,C,5.0
4,9.212999820709229,learn,50787.00017929077,Mon Dec 08 2025 18:22:52 GMT-0600 (Central Standard Time),508312.5,A,su,O,u,187,1,665.8000000119209,507646.6999999881,7249,WL,C,5.0
4,10.763000011444092,learn,49236.99998855591,Mon Dec 08 2025 18:22:52 GMT-0600 (Central Standard Time),509862.6999999881,A,sug,O,g,1540,1,2216.0,507646.6999999881,7249,WL,C,5.0
4,11.013000011444092,learn,48986.99998855591,Mon Dec 08 2025 18:22:52 GMT-0600 (Central Standard Time),510112.6999999881,A,suga,O,a,232,1,2466.0,507646.6999999881,7249,WL,C,5.0
4,11.263999938964844,learn,48736.000061035156,Mon Dec 08 2025 18:22:52 GMT-0600 (Central Standard Time),510363.6999999881,A,sugar,O,r,247,1,2717.0,507646.6999999881,7249,WL,C,5.0
4,11.878999948501587,learn,48121.00005149841,Mon Dec 08 2025 18:22:52 GMT-0600 (Central Standard Time),510978.59999999404,A,sugarenter,O,enter,591,1,3331.9000000059605,507646.6999999881,7249,WL,C,5.0
4,12.494999885559082,learn,47505.00011444092,Mon Dec 08 2025 18:22:52 GMT-0600 (Central Standard Time),511594.5,A,b,O,b,603,1,615.6999999880791,510978.8000000119,7249,WL,C,6.0
4,12.728999853134155,learn,47271.000146865845,Mon Dec 08 2025 18:22:52 GMT-0600 (Central Standard Time),511829.09999999404,A,bo,O,o,227,1,850.2999999821186,510978.8000000119,7249,WL,C,6.0
4,13.044999837875366,learn,46955.000162124634,Mon Dec 08 2025 18:22:52 GMT-0600 (Central Standard Time),512144.1999999881,A,bor,O,r,294,1,1165.3999999761581,510978.8000000119,7249,WL,C,6.0
4,13.478999853134155,learn,46521.000146865845,Mon Dec 08 2025 18:22:52 GMT-0600 (Central Standard Time),512579.1999999881,A,bo,O,backspace,412,1,1600.3999999761581,510978.8000000119,7249,WL,C,6.0
4,13.962999820709229,learn,46037.00017929077,Mon Dec 08 2025 18:22:52 GMT-0600 (Central Standard Time),513063.1999999881,A,boy,O,y,464,1,2084.399999976158,510978.8000000119,7249,WL,C,6.0
4,14.460999965667725,learn,45539.000034332275,Mon Dec 08 2025 18:22:52 GMT-0600 (Central Standard Time),513560.90000000596,A,boyenter,O,enter,477,1,2582.0999999940395,510978.8000000119,7249,WL,C,6.0
4,14.944000005722046,learn,45055.999994277954,Mon Dec 08 2025 18:22:52 GMT-0600 (Central Standard Time),514043.90000000596,A,d,O,d,476,1,482.7000000178814,513561.1999999881,7249,WL,C,7.0
4,15.192999839782715,learn,44807.000160217285,Mon Dec 08 2025 18:22:52 GMT-0600 (Central Standard Time),514292.90000000596,A,do,O,o,241,1,731.7000000178814,513561.1999999881,7249,WL,C,7.0
4,15.426999807357788,learn,44573.00019264221,Mon Dec 08 2025 18:22:52 GMT-0600 (Central Standard Time),514526.8000000119,A,doc,O,c,226,1,965.6000000238419,513561.1999999881,7249,WL,C,7.0
4,15.694000005722046,learn,44305.999994277954,Mon Dec 08 2025 18:22:52 GMT-0600 (Central Standard Time),514793.6999999881,A,doct,O,t,256,1,1232.5,513561.1999999881,7249,WL,C,7.0
4,15.944999933242798,learn,44055.0000667572,Mon Dec 08 2025 18:22:52 GMT-0600 (Central Standard Time),515044.3000000119,A,docto,O,o,244,1,1483.1000000238419,513561.1999999881,7249,WL,C,7.0
4,16.59499979019165,learn,43405.00020980835,Mon Dec 08 2025 18:22:52 GMT-0600 (Central Standard Time),515694.8000000119,A,doctor,O,r,641,1,2133.600000023842,513561.1999999881,7249,WL,C,7.0
4,17.008999824523926,learn,42991.000175476074,Mon Dec 08 2025 18:22:52 GMT-0600 (Central Standard Time),516109.09999999404,A,doctorenter,O,enter,408,1,2547.9000000059605,513561.1999999881,7249,WL,C,7.0
4,17.444000005722046,learn,42555.999994277954,Mon Dec 08 2025 18:22:52 GMT-0600 (Central Standard Time),516543.59999999404,A,c,O,c,424,1,434.19999998807907,516109.40000000596,7249,WL,C,8.0
4,17.691999912261963,learn,42308.00008773804,Mon Dec 08 2025 18:22:52 GMT-0600 (Central Standard Time),516791.6999999881,A,ca,O,a,227,1,682.2999999821186,516109.40000000596,7249,WL,C,8.0
4,17.89299988746643,learn,42107.00011253357,Mon Dec 08 2025 18:22:52 GMT-0600 (Central Standard Time),516992.59999999404,A,cam,O,m,182,1,883.1999999880791,516109.40000000596,7249,WL,C,8.0
4,18.30999994277954,learn,41690.00005722046,Mon Dec 08 2025 18:22:52 GMT-0600 (Central Standard Time),517409.5,A,camp,O,p,406,1,1300.0999999940395,516109.40000000596,7249,WL,C,8.0
4,18.776000022888184,learn,41223.99997711182,Mon Dec 08 2025 18:22:52 GMT-0600 (Central Standard Time),517875.3000000119,A,campenter,O,enter,461,1,1765.9000000059605,516109.40000000596,7249,WL,C,8.0
4,19.22699999809265,learn,40773.00000190735,Mon Dec 08 2025 18:22:52 GMT-0600 (Central Standard Time),518326.59999999404,A,f,O,f,443,1,451.09999999403954,517875.5,7249,WL,C,9.0
4,19.375999927520752,learn,40624.00007247925,Mon Dec 08 2025 18:22:52 GMT-0600 (Central Standard Time),518475.5,A,fl,O,l,143,1,600.0,517875.5,7249,WL,C,9.0
4,19.626999855041504,learn,40373.000144958496,Mon Dec 08 2025 18:22:52 GMT-0600 (Central Standard Time),518726.59999999404,A,fla,O,a,241,1,851.0999999940395,517875.5,7249,WL,C,9.0
4,19.930999994277954,learn,40069.000005722046,Mon Dec 08 2025 18:22:52 GMT-0600 (Central Standard Time),519030.40000000596,A,flag,O,g,282,1,1154.9000000059605,517875.5,7249,WL,C,9.0
4,20.39199995994568,learn,39608.00004005432,Mon Dec 08 2025 18:22:52 GMT-0600 (Central Standard Time),519491.59999999404,A,flagenter,O,enter,455,1,1616.0999999940395,517875.5,7249,WL,C,9.0
4,20.824999809265137,learn,39175.00019073486,Mon Dec 08 2025 18:22:52 GMT-0600 (Central Standard Time),519924.8000000119,A,l,O,l,428,1,432.90000000596046,519491.90000000596,7249,WL,C,10.0
4,20.97499990463257,learn,39025.00009536743,Mon Dec 08 2025 18:22:52 GMT-0600 (Central Standard Time),520074.3000000119,A,le,O,e,145,1,582.4000000059605,519491.90000000596,7249,WL,C,10.0
4,21.24399995803833,learn,38756.00004196167,Mon Dec 08 2025 18:22:52 GMT-0600 (Central Standard Time),520343.90000000596,A,let,O,t,249,1,852.0,519491.90000000596,7249,WL,C,10.0
4,21.408999919891357,learn,38591.00008010864,Mon Dec 08 2025 18:22:52 GMT-0600 (Central Standard Time),520508.6999999881,A,lett,O,t,150,1,1016.7999999821186,519491.90000000596,7249,WL,C,10.0
4,21.72599983215332,learn,38274.00016784668,Mon Dec 08 2025 18:22:52 GMT-0600 (Central Standard Time),520825.59999999404,A,lette,O,e,296,1,1333.699999988079,519491.90000000596,7249,WL,C,10.0
4,21.878000020980835,learn,38121.999979019165,Mon Dec 08 2025 18:22:52 GMT-0600 (Central Standard Time),520977.5,A,letter,O,r,130,1,1485.5999999940395,519491.90000000596,7249,WL,C,10.0
4,22.29199981689453,learn,37708.00018310547,Mon Dec 08 2025 18:22:52 GMT-0600 (Central Standard Time),521391.6999999881,A,letterenter,O,enter,404,1,1899.7999999821186,519491.90000000596,7249,WL,C,10.0
4,22.69099998474121,learn,37309.00001525879,Mon Dec 08 2025 18:22:52 GMT-0600 (Central Standard Time),521791.1999999881,A,c,O,c,391,1,399.2999999821186,521391.90000000596,7249,WL,C,11.0
4,22.824999809265137,learn,37175.00019073486,Mon Dec 08 2025 18:22:52 GMT-0600 (Central Standard Time),521925.1999999881,A,co,O,o,128,1,533.2999999821186,521391.90000000596,7249,WL,C,11.0
4,23.108999967575073,learn,36891.00003242493,Mon Dec 08 2025 18:22:52 GMT-0600 (Central Standard Time),522208.6999999881,A,cor,O,r,263,1,816.7999999821186,521391.90000000596,7249,WL,C,11.0
4,23.24399995803833,learn,36756.00004196167,Mon Dec 08 2025 18:22:52 GMT-0600 (Central Standard Time),522344.1999999881,A,corn,O,n,128,1,952.2999999821186,521391.90000000596,7249,WL,C,11.0
4,23.70799994468689,learn,36292.00005531311,Mon Dec 08 2025 18:22:52 GMT-0600 (Central Standard Time),522808.40000000596,A,cornenter,O,enter,455,1,1416.5,521391.90000000596,7249,WL,C,11.0
4,24.132999897003174,learn,35867.000102996826,Mon Dec 08 2025 18:22:52 GMT-0600 (Central Standard Time),523233.3000000119,A,n,O,n,420,1,424.60000002384186,522808.6999999881,7249,WL,C,12.0
4,24.35699987411499,learn,35643.00012588501,Mon Dec 08 2025 18:22:52 GMT-0600 (Central Standard Time),523457.3000000119,A,na,O,a,202,1,648.6000000238419,522808.6999999881,7249,WL,C,12.0
4,24.55900001525879,learn,35440.99998474121,Mon Dec 08 2025 18:22:52 GMT-0600 (Central Standard Time),523658.6999999881,A,nai,O,i,181,1,850.0,522808.6999999881,7249,WL,C,12.0
4,24.789999961853027,learn,35210.00003814697,Mon Dec 08 2025 18:22:52 GMT-0600 (Central Standard Time),523890.3000000119,A,nail,O,l,216,1,1081.6000000238419,522808.6999999881,7249,WL,C,12.0
4,25.175999879837036,learn,34824.000120162964,Mon Dec 08 2025 18:22:52 GMT-0600 (Central Standard Time),524276.1999999881,A,nailenter,O,enter,382,1,1467.5,522808.6999999881,7249,WL,C,12.0
4,25.490999937057495,learn,34509.000062942505,Mon Dec 08 2025 18:22:52 GMT-0600 (Central Standard Time),524590.599999994,A,c,O,c,296,1,314.19999998807907,524276.40000000596,7249,WL,C,13.0
4,25.68999981880188,learn,34310.00018119812,Mon Dec 08 2025 18:22:52 GMT-0600 (Central Standard Time),524790.400000006,A,ca,O,a,190,1,514.0,524276.40000000596,7249,WL,C,13.0
4,25.990999937057495,learn,34009.000062942505,Mon Dec 08 2025 18:22:52 GMT-0600 (Central Standard Time),525091.1999999881,A,cat,O,t,279,1,814.7999999821186,524276.40000000596,7249,WL,C,13.0
4,26.174000024795532,learn,33825.99997520447,Mon Dec 08 2025 18:22:52 GMT-0600 (Central Standard Time),525274.1999999881,A,catt,O,t,161,1,997.7999999821186,524276.40000000596,7249,WL,C,13.0
4,26.472999811172485,learn,33527.000188827515,Mon Dec 08 2025 18:22:52 GMT-0600 (Central Standard Time),525573.1999999881,A,cattl,O,l,283,1,1296.7999999821186,524276.40000000596,7249,WL,C,13.0
4,26.674000024795532,learn,33325.99997520447,Mon Dec 08 2025 18:22:52 GMT-0600 (Central Standard Time),525773.8000000119,A,cattle,O,e,182,1,1497.4000000059605,524276.40000000596,7249,WL,C,13.0
4,26.87399983406067,learn,33126.00016593933,Mon Dec 08 2025 18:22:52 GMT-0600 (Central Standard Time),525974.1999999881,A,cattleenter,O,enter,182,1,1697.7999999821186,524276.40000000596,7249,WL,C,13.0
4,28.271999835968018,learn,31728.000164031982,Mon Dec 08 2025 18:22:52 GMT-0600 (Central Standard Time),527371.8000000119,A,s,O,s,1382,1,1397.4000000059605,525974.400000006,7249,WL,C,14.0
4,28.389999866485596,learn,31610.000133514404,Mon Dec 08 2025 18:22:52 GMT-0600 (Central Standard Time),527489.8000000119,A,sh,O,h,105,1,1515.4000000059605,525974.400000006,7249,WL,C,14.0
4,28.58999991416931,learn,31410.00008583069,Mon Dec 08 2025 18:22:52 GMT-0600 (Central Standard Time),527690.099999994,A,sho,O,o,180,1,1715.699999988079,525974.400000006,7249,WL,C,14.0
4,28.806999921798706,learn,31193.000078201294,Mon Dec 08 2025 18:22:52 GMT-0600 (Central Standard Time),527906.599999994,A,shor,O,r,213,1,1932.199999988079,525974.400000006,7249,WL,C,14.0
4,28.9229998588562,learn,31077.0001411438,Mon Dec 08 2025 18:22:52 GMT-0600 (Central Standard Time),528022.8000000119,A,shore,O,e,107,1,2048.4000000059605,525974.400000006,7249,WL,C,14.0
4,29.138999938964844,learn,30861.000061035156,Mon Dec 08 2025 18:22:52 GMT-0600 (Central Standard Time),528239.0,A,shoreenter,O,enter,206,1,2264.5999999940395,525974.400000006,7249,WL,C,14.0
4,29.473999977111816,learn,30526.000022888184,Mon Dec 08 2025 18:22:52 GMT-0600 (Central Standard Time),528573.8000000119,A,b,O,b,331,1,334.60000002384186,528239.1999999881,7249,WL,C,15.0
4,29.622999906539917,learn,30377.000093460083,Mon Dec 08 2025 18:22:52 GMT-0600 (Central Standard Time),528722.6999999881,A,bo,O,o,133,1,483.5,528239.1999999881,7249,WL,C,15.0
4,29.75599980354309,learn,30244.00019645691,Mon Dec 08 2025 18:22:52 GMT-0600 (Central Standard Time),528856.400000006,A,bod,O,d,123,1,617.2000000178814,528239.1999999881,7249,WL,C,15.0
4,29.955999851226807,learn,30044.000148773193,Mon Dec 08 2025 18:22:52 GMT-0600 (Central Standard Time),529055.599999994,A,body,O,y,179,1,816.4000000059605,528239.1999999881,7249,WL,C,15.0
4,30.207000017166138,learn,29792.999982833862,Mon Dec 08 2025 18:22:52 GMT-0600 (Central Standard Time),529306.599999994,A,bodyenter,O,enter,238,1,1067.4000000059605,528239.1999999881,7249,WL,C,15.0
5,0.8159999847412109,learn,60000.0,Mon Dec 08 2025 18:22:52 GMT-0600 (Central Standard Time),597717.8000000119,A,t,O,t,807,1,816.1000000238419,596901.6999999881,7249,WL,C,1.0
5,1.0490000247955322,learn,60000.0,Mon Dec 08 2025 18:22:52 GMT-0600 (Central Standard Time),597950.900000006,A,to,O,o,212,1,1049.2000000178814,596901.6999999881,7249,WL,C,1.0
5,1.249000072479248,learn,60000.0,Mon Dec 08 2025 18:22:52 GMT-0600 (Central Standard Time),598150.400000006,A,tow,O,w,189,1,1248.7000000178814,596901.6999999881,7249,WL,C,1.0
5,1.4820001125335693,learn,60000.0,Mon Dec 08 2025 18:22:52 GMT-0600 (Central Standard Time),598383.3000000119,A,towe,O,e,217,1,1481.6000000238419,596901.6999999881,7249,WL,C,1.0
5,1.7990000247955322,learn,60000.0,Mon Dec 08 2025 18:22:52 GMT-0600 (Central Standard Time),598700.1999999881,A,tower,O,r,301,1,1798.5,596901.6999999881,7249,WL,C,1.0
5,3.765000104904175,learn,60000.0,Mon Dec 08 2025 18:22:52 GMT-0600 (Central Standard Time),600666.5,A,towerenter,O,enter,1951,1,3764.800000011921,596901.6999999881,7249,WL,C,1.0
5,4.398000001907349,learn,60000.0,Mon Dec 08 2025 18:22:52 GMT-0600 (Central Standard Time),601300.0,A,w,O,w,619,1,633.3000000119209,600666.6999999881,7249,WL,C,2.0
5,4.615000009536743,learn,60000.0,Mon Dec 08 2025 18:22:52 GMT-0600 (Central Standard Time),601516.599999994,A,wh,O,h,195,1,849.9000000059605,600666.6999999881,7249,WL,C,2.0
5,5.180999994277954,learn,60000.0,Mon Dec 08 2025 18:22:52 GMT-0600 (Central Standard Time),602082.6999999881,A,whe,O,e,560,1,1416.0,600666.6999999881,7249,WL,C,2.0
5,5.447999954223633,learn,60000.0,Mon Dec 08 2025 18:22:52 GMT-0600 (Central Standard Time),602349.1999999881,A,whea,O,a,248,1,1682.5,600666.6999999881,7249,WL,C,2.0
5,5.730999946594238,learn,60000.0,Mon Dec 08 2025 18:22:52 GMT-0600 (Central Standard Time),602632.3000000119,A,wheat,O,t,267,1,1965.6000000238419,600666.6999999881,7249,WL,C,2.0
5,6.365000009536743,learn,60000.0,Mon Dec 08 2025 18:22:52 GMT-0600 (Central Standard Time),603266.0,A,wheatenter,O,enter,608,1,2599.300000011921,600666.6999999881,7249,WL,C,2.0
5,6.931999921798706,learn,60000.0,Mon Dec 08 2025 18:22:52 GMT-0600 (Central Standard Time),603833.0,A,q,O,q,547,1,566.8000000119209,603266.1999999881,7249,WL,C,3.0
5,7.180000066757202,learn,60000.0,Mon Dec 08 2025 18:22:52 GMT-0600 (Central Standard Time),604081.8000000119,A,qu,O,u,233,1,815.6000000238419,603266.1999999881,7249,WL,C,3.0
5,7.38100004196167,learn,60000.0,Mon Dec 08 2025 18:22:52 GMT-0600 (Central Standard Time),604282.099999994,A,que,O,e,194,1,1015.9000000059605,603266.1999999881,7249,WL,C,3.0
5,7.614000082015991,learn,60000.0,Mon Dec 08 2025 18:22:52 GMT-0600 (Central Standard Time),604515.5,A,quee,O,e,216,1,1249.300000011921,603266.1999999881,7249,WL,C,3.0
5,7.96399998664856,learn,60000.0,Mon Dec 08 2025 18:22:52 GMT-0600 (Central Standard Time),604865.099999994,A,queen,O,n,329,1,1598.9000000059605,603266.1999999881,7249,WL,C,3.0
5,8.746999979019165,learn,60000.0,Mon Dec 08 2025 18:22:52 GMT-0600 (Central Standard Time),605648.1999999881,A,queenenter,O,enter,770,1,2382.0,603266.1999999881,7249,WL,C,3.0
5,9.296000003814697,learn,60000.0,Mon Dec 08 2025 18:22:52 GMT-0600 (Central Standard Time),606197.900000006,A,s,O,s,541,1,549.4000000059605,605648.5,7249,WL,C,4.0
5,9.52999997138977,learn,60000.0,Mon Dec 08 2025 18:22:52 GMT-0600 (Central Standard Time),606431.6999999881,A,su,O,u,211,1,783.1999999880791,605648.5,7249,WL,C,4.0
5,9.79699993133545,learn,60000.0,Mon Dec 08 2025 18:22:52 GMT-0600 (Central Standard Time),606698.3000000119,A,sug,O,g,252,1,1049.800000011921,605648.5,7249,WL,C,4.0
5,10.046000003814697,learn,60000.0,Mon Dec 08 2025 18:22:52 GMT-0600 (Central Standard Time),606948.0,A,suga,O,a,227,1,1299.5,605648.5,7249,WL,C,4.0
5,10.279000043869019,learn,60000.0,Mon Dec 08 2025 18:22:52 GMT-0600 (Central Standard Time),607180.8000000119,A,sugar,O,r,215,1,1532.300000011921,605648.5,7249,WL,C,4.0
5,10.845999956130981,learn,60000.0,Mon Dec 08 2025 18:22:52 GMT-0600 (Central Standard Time),607747.5,A,sugarenter,O,enter,551,1,2099.0,605648.5,7249,WL,C,4.0
5,11.395999908447266,learn,60000.0,Mon Dec 08 2025 18:22:52 GMT-0600 (Central Standard Time),608297.5,A,h,O,h,530,1,549.8000000119209,607747.6999999881,7249,WL,C,5.0
5,11.661999940872192,learn,60000.0,Mon Dec 08 2025 18:22:52 GMT-0600 (Central Standard Time),608564.0,A,ho,O,o,255,1,816.3000000119209,607747.6999999881,7249,WL,C,5.0
5,11.914000034332275,learn,60000.0,Mon Dec 08 2025 18:22:52 GMT-0600 (Central Standard Time),608815.5,A,hom,O,m,238,1,1067.800000011921,607747.6999999881,7249,WL,C,5.0
5,12.19700002670288,learn,60000.0,Mon Dec 08 2025 18:22:52 GMT-0600 (Central Standard Time),609098.3000000119,A,home,O,e,262,1,1350.6000000238419,607747.6999999881,7249,WL,C,5.0
5,12.444999933242798,learn,60000.0,Mon Dec 08 2025 18:22:52 GMT-0600 (Central Standard Time),609346.6999999881,A,homeenter,O,enter,236,1,1599.0,607747.6999999881,7249,WL,C,5.0
5,13.164999961853027,learn,60000.0,Mon Dec 08 2025 18:22:52 GMT-0600 (Central Standard Time),610066.6999999881,A,b,O,b,708,1,719.7999999821186,609346.900000006,7249,WL,C,6.0
5,13.430000066757202,learn,60000.0,Mon Dec 08 2025 18:22:52 GMT-0600 (Central Standard Time),610331.0,A,bo,O,o,256,1,984.0999999940395,609346.900000006,7249,WL,C,6.0
5,13.894999980926514,learn,60000.0,Mon Dec 08 2025 18:22:52 GMT-0600 (Central Standard Time),610796.6999999881,A,boy,O,y,458,1,1449.7999999821186,609346.900000006,7249,WL,C,6.0
5,14.312000036239624,learn,60000.0,Mon Dec 08 2025 18:22:52 GMT-0600 (Central Standard Time),611213.400000006,A,boyenter,O,enter,407,1,1866.5,609346.900000006,7249,WL,C,6.0
5,14.894000053405762,learn,60000.0,Mon Dec 08 2025 18:22:52 GMT-0600 (Central Standard Time),611795.6999999881,A,d,O,d,567,1,582.0999999940395,611213.599999994,7249,WL,C,7.0
5,15.09500002861023,learn,60000.0,Mon Dec 08 2025 18:22:52 GMT-0600 (Central Standard Time),611996.0,A,do,O,o,185,1,782.4000000059605,611213.599999994,7249,WL,C,7.0
5,15.295000076293945,learn,60000.0,Mon Dec 08 2025 18:22:52 GMT-0600 (Central Standard Time),612196.1999999881,A,doc,O,c,195,1,982.5999999940395,611213.599999994,7249,WL,C,7.0
5,15.561000108718872,learn,60000.0,Mon Dec 08 2025 18:22:52 GMT-0600 (Central Standard Time),612462.3000000119,A,doct,O,t,255,1,1248.7000000178814,611213.599999994,7249,WL,C,7.0
5,15.727999925613403,learn,60000.0,Mon Dec 08 2025 18:22:52 GMT-0600 (Central Standard Time),612629.1999999881,A,docto,O,o,157,1,1415.5999999940395,611213.599999994,7249,WL,C,7.0
5,15.894999980926514,learn,60000.0,Mon Dec 08 2025 18:22:52 GMT-0600 (Central Standard Time),612796.099999994,A,doctor,O,r,163,1,1582.5,611213.599999994,7249,WL,C,7.0
5,16.55999994277954,learn,60000.0,Mon Dec 08 2025 18:22:52 GMT-0600 (Central Standard Time),613461.599999994,A,doctorenter,O,enter,657,1,2248.0,611213.599999994,7249,WL,C,7.0
5,17.043999910354614,learn,60000.0,Mon Dec 08 2025 18:22:52 GMT-0600 (Central Standard Time),613945.6999999881,A,c,O,c,470,1,483.89999997615814,613461.8000000119,7249,WL,C,8.0
5,17.276999950408936,learn,60000.0,Mon Dec 08 2025 18:22:52 GMT-0600 (Central Standard Time),614178.900000006,A,ca,O,a,226,1,717.0999999940395,613461.8000000119,7249,WL,C,8.0
5,17.460999965667725,learn,60000.0,Mon Dec 08 2025 18:22:52 GMT-0600 (Central Standard Time),614362.8000000119,A,cam,O,m,177,1,901.0,613461.8000000119,7249,WL,C,8.0
5,17.74399995803833,learn,60000.0,Mon Dec 08 2025 18:22:52 GMT-0600 (Central Standard Time),614645.3000000119,A,camp,O,p,264,1,1183.5,613461.8000000119,7249,WL,C,8.0
5,18.276999950408936,learn,60000.0,Mon Dec 08 2025 18:22:52 GMT-0600 (Central Standard Time),615178.3000000119,A,campenter,O,enter,521,1,1716.5,613461.8000000119,7249,WL,C,8.0
5,18.89300012588501,learn,60000.0,Mon Dec 08 2025 18:22:52 GMT-0600 (Central Standard Time),615794.400000006,A,f,O,f,611,1,615.9000000059605,615178.5,7249,WL,C,9.0
5,19.377000093460083,learn,60000.0,Mon Dec 08 2025 18:22:52 GMT-0600 (Central Standard Time),616278.099999994,A,fl,O,l,466,1,1099.5999999940395,615178.5,7249,WL,C,9.0
5,19.844000101089478,learn,60000.0,Mon Dec 08 2025 18:22:52 GMT-0600 (Central Standard Time),616745.5,A,fla,O,a,454,1,1567.0,615178.5,7249,WL,C,9.0
5,20.22699999809265,learn,60000.0,Mon Dec 08 2025 18:22:52 GMT-0600 (Central Standard Time),617128.8000000119,A,flag,O,g,373,1,1950.300000011921,615178.5,7249,WL,C,9.0
5,20.759999990463257,learn,60000.0,Mon Dec 08 2025 18:22:52 GMT-0600 (Central Standard Time),617661.400000006,A,flagenter,O,enter,524,1,2482.9000000059605,615178.5,7249,WL,C,9.0
5,21.625999927520752,learn,60000.0,Mon Dec 08 2025 18:22:52 GMT-0600 (Central Standard Time),618527.400000006,A,l,O,l,856,1,865.7000000178814,617661.6999999881,7249,WL,C,10.0
5,21.825999975204468,learn,60000.0,Mon Dec 08 2025 18:22:52 GMT-0600 (Central Standard Time),618727.400000006,A,le,O,e,191,1,1065.7000000178814,617661.6999999881,7249,WL,C,10.0
5,21.993000030517578,learn,60000.0,Mon Dec 08 2025 18:22:52 GMT-0600 (Central Standard Time),618894.0,A,let,O,t,158,1,1232.300000011921,617661.6999999881,7249,WL,C,10.0
5,22.158999919891357,learn,60000.0,Mon Dec 08 2025 18:22:52 GMT-0600 (Central Standard Time),619060.8000000119,A,lett,O,t,149,1,1399.1000000238419,617661.6999999881,7249,WL,C,10.0
5,22.424999952316284,learn,60000.0,Mon Dec 08 2025 18:22:52 GMT-0600 (Central Standard Time),619326.8000000119,A,lette,O,e,248,1,1665.1000000238419,617661.6999999881,7249,WL,C,10.0
5,22.526000022888184,learn,60000.0,Mon Dec 08 2025 18:22:52 GMT-0600 (Central Standard Time),619427.099999994,A,letter,O,r,86,1,1765.4000000059605,617661.6999999881,7249,WL,C,10.0
5,23.157999992370605,learn,60000.0,Mon Dec 08 2025 18:22:52 GMT-0600 (Central Standard Time),620059.6999999881,A,letterenter,O,enter,625,1,2398.0,617661.6999999881,7249,WL,C,10.0
5,24.4760000705719,learn,60000.0,Mon Dec 08 2025 18:22:52 GMT-0600 (Central Standard Time),621377.6999999881,A,c,O,c,1297,1,1317.699999988079,620060.0,7249,WL,C,11.0
5,24.625,learn,60000.0,Mon Dec 08 2025 18:22:52 GMT-0600 (Central Standard Time),621526.400000006,A,co,O,o,132,1,1466.4000000059605,620060.0,7249,WL,C,11.0
5,24.874000072479248,learn,60000.0,Mon Dec 08 2025 18:22:52 GMT-0600 (Central Standard Time),621775.8000000119,A,cor,O,r,230,1,1715.800000011921,620060.0,7249,WL,C,11.0
5,24.990999937057495,learn,60000.0,Mon Dec 08 2025 18:22:52 GMT-0600 (Central Standard Time),621892.599999994,A,corn,O,n,108,1,1832.5999999940395,620060.0,7249,WL,C,11.0
5,25.375,learn,60000.0,Mon Dec 08 2025 18:22:52 GMT-0600 (Central Standard Time),622276.099999994,A,cornenter,O,enter,376,1,2216.0999999940395,620060.0,7249,WL,C,11.0
5,26.176000118255615,learn,60000.0,Mon Dec 08 2025 18:22:52 GMT-0600 (Central Standard Time),623077.0,A,n,O,n,785,1,800.6999999880791,622276.3000000119,7249,WL,C,12.0
5,26.375,learn,60000.0,Mon Dec 08 2025 18:22:52 GMT-0600 (Central Standard Time),623276.6999999881,A,na,O,a,186,1,1000.3999999761581,622276.3000000119,7249,WL,C,12.0
5,26.473999977111816,learn,60000.0,Mon Dec 08 2025 18:22:52 GMT-0600 (Central Standard Time),623375.599999994,A,nai,O,i,88,1,1099.2999999821186,622276.3000000119,7249,WL,C,12.0
5,26.691999912261963,learn,60000.0,Mon Dec 08 2025 18:22:52 GMT-0600 (Central Standard Time),623593.0,A,nail,O,l,198,1,1316.699999988079,622276.3000000119,7249,WL,C,12.0
5,27.074000120162964,learn,60000.0,Mon Dec 08 2025 18:22:52 GMT-0600 (Central Standard Time),623975.8000000119,A,nailenter,O,enter,372,1,1699.5,622276.3000000119,7249,WL,C,12.0
5,27.60800004005432,learn,60000.0,Mon Dec 08 2025 18:22:52 GMT-0600 (Central Standard Time),624509.900000006,A,c,O,c,517,1,533.8000000119209,623976.099999994,7249,WL,C,13.0
5,27.891000032424927,learn,60000.0,Mon Dec 08 2025 18:22:52 GMT-0600 (Central Standard Time),624792.3000000119,A,ca,O,a,272,1,816.2000000178814,623976.099999994,7249,WL,C,13.0
5,28.08999991416931,learn,60000.0,Mon Dec 08 2025 18:22:52 GMT-0600 (Central Standard Time),624991.8000000119,A,cat,O,t,180,1,1015.7000000178814,623976.099999994,7249,WL,C,13.0
5,28.258000135421753,learn,60000.0,Mon Dec 08 2025 18:22:52 GMT-0600 (Central Standard Time),625159.8000000119,A,catt,O,t,147,1,1183.7000000178814,623976.099999994,7249,WL,C,13.0
5,28.424000024795532,learn,60000.0,Mon Dec 08 2025 18:22:52 GMT-0600 (Central Standard Time),625325.900000006,A,cattl,O,l,150,1,1349.800000011921,623976.099999994,7249,WL,C,13.0
5,28.657000064849854,learn,60000.0,Mon Dec 08 2025 18:22:52 GMT-0600 (Central Standard Time),625558.1999999881,A,cattle,O,e,214,1,1582.0999999940395,623976.099999994,7249,WL,C,13.0
5,28.874000072479248,learn,60000.0,Mon Dec 08 2025 18:22:52 GMT-0600 (Central Standard Time),625775.5,A,cattleenter,O,enter,205,1,1799.4000000059605,623976.099999994,7249,WL,C,13.0
5,29.407000064849854,learn,60000.0,Mon Dec 08 2025 18:22:52 GMT-0600 (Central Standard Time),626308.400000006,A,s,O,s,528,1,532.7000000178814,625775.6999999881,7249,WL,C,14.0
5,29.574000120162964,learn,60000.0,Mon Dec 08 2025 18:22:52 GMT-0600 (Central Standard Time),626475.0,A,sh,O,h,151,1,699.3000000119209,625775.6999999881,7249,WL,C,14.0
5,29.758000135421753,learn,60000.0,Mon Dec 08 2025 18:22:52 GMT-0600 (Central Standard Time),626659.0,A,sho,O,o,180,1,883.3000000119209,625775.6999999881,7249,WL,C,14.0
5,29.924000024795532,learn,60000.0,Mon Dec 08 2025 18:22:52 GMT-0600 (Central Standard Time),626825.599999994,A,shor,O,r,145,1,1049.9000000059605,625775.6999999881,7249,WL,C,14.0
5,30.072999954223633,learn,60000.0,Mon Dec 08 2025 18:22:52 GMT-0600 (Central Standard Time),626974.3000000119,A,shore,O,e,129,1,1198.6000000238419,625775.6999999881,7249,WL,C,14.0
5,30.289000034332275,learn,60000.0,Mon Dec 08 2025 18:22:52 GMT-0600 (Central Standard Time),627190.8000000119,A,shoreenter,O,enter,197,1,1415.1000000238419,625775.6999999881,7249,WL,C,14.0
5,30.77300000190735,learn,60000.0,Mon Dec 08 2025 18:22:52 GMT-0600 (Central Standard Time),627674.5,A,b,O,b,470,1,483.5,627191.0,7249,WL,C,15.0
5,30.924000024795532,learn,60000.0,Mon Dec 08 2025 18:22:52 GMT-0600 (Central Standard Time),627824.900000006,A,bo,O,o,140,1,633.9000000059605,627191.0,7249,WL,C,15.0
5,31.10700011253357,learn,60000.0,Mon Dec 08 2025 18:22:52 GMT-0600 (Central Standard Time),628008.6999999881,A,bod,O,d,171,1,817.6999999880791,627191.0,7249,WL,C,15.0
5,31.255000114440918,learn,60000.0,Mon Dec 08 2025 18:22:52 GMT-0600 (Central Standard Time),628156.6999999881,A,body,O,y,132,1,965.6999999880791,627191.0,7249,WL,C,15.0
5,31.621999979019165,learn,60000.0,Mon Dec 08 2025 18:22:52 GMT-0600 (Central Standard Time),628523.599999994,A,bodyenter,O,enter,353,1,1332.5999999940395,627191.0,7249,WL,C,15.0
6,0.9170000553131104,distr,59082.99994468689,Mon Dec 08 2025 18:22:52 GMT-0600 (Central Standard Time),765497.3000000119,B,s,O,s,896,1,916.6000000238419,764580.6999999881,7249,WL,C,1.0
6,1.2000000476837158,distr,58799.999952316284,Mon Dec 08 2025 18:22:52 GMT-0600 (Central Standard Time),765780.900000006,B,sk,O,k,269,1,1200.2000000178814,764580.6999999881,7249,WL,C,1.0
6,1.6000001430511475,distr,58399.99985694885,Mon Dec 08 2025 18:22:52 GMT-0600 (Central Standard Time),766180.400000006,B,sky,O,y,378,1,1599.7000000178814,764580.6999999881,7249,WL,C,1.0
6,2.2160000801086426,distr,57783.99991989136,Mon Dec 08 2025 18:22:52 GMT-0600 (Central Standard Time),766796.8000000119,B,skyenter,O,enter,611,1,2216.100000023842,764580.6999999881,7249,WL,C,1.0
6,2.8990001678466797,distr,57100.99983215332,Mon Dec 08 2025 18:22:52 GMT-0600 (Central Standard Time),767480.0,B,d,O,d,665,1,682.9000000059605,766797.099999994,7249,WL,C,2.0
6,3.115999937057495,distr,56884.000062942505,Mon Dec 08 2025 18:22:52 GMT-0600 (Central Standard Time),767696.599999994,B,do,O,o,203,1,899.5,766797.099999994,7249,WL,C,2.0
6,3.4170000553131104,distr,56582.99994468689,Mon Dec 08 2025 18:22:52 GMT-0600 (Central Standard Time),767997.5,B,dol,O,l,293,1,1200.4000000059605,766797.099999994,7249,WL,C,2.0
6,3.633000135421753,distr,56366.99986457825,Mon Dec 08 2025 18:22:52 GMT-0600 (Central Standard Time),768213.599999994,B,doll,O,l,210,1,1416.5,766797.099999994,7249,WL,C,2.0
6,3.9000000953674316,distr,56099.99990463257,Mon Dec 08 2025 18:22:52 GMT-0600 (Central Standard Time),768480.3000000119,B,dolla,O,a,256,1,1683.2000000178814,766797.099999994,7249,WL,C,2.0
6,4.183000087738037,distr,55816.99991226196,Mon Dec 08 2025 18:22:52 GMT-0600 (Central Standard Time),768763.0,B,dollar,O,r,266,1,1965.9000000059605,766797.099999994,7249,WL,C,2.0
6,4.832000017166138,distr,55167.99998283386,Mon Dec 08 2025 18:22:52 GMT-0600 (Central Standard Time),769413.0,B,dollarenter,O,enter,643,1,2615.9000000059605,766797.099999994,7249,WL,C,2.0
6,5.317000150680542,distr,54682.99984931946,Mon Dec 08 2025 18:22:52 GMT-0600 (Central Standard Time),769897.6999999881,B,v,O,v,466,1,484.5,769413.1999999881,7249,WL,C,3.0
6,5.4679999351501465,distr,54532.00006484985,Mon Dec 08 2025 18:22:52 GMT-0600 (Central Standard Time),770048.3000000119,B,va,O,a,143,1,635.1000000238419,769413.1999999881,7249,WL,C,3.0
6,5.682000160217285,distr,54317.999839782715,Mon Dec 08 2025 18:22:52 GMT-0600 (Central Standard Time),770262.6999999881,B,val,O,l,198,1,849.5,769413.1999999881,7249,WL,C,3.0
6,5.8480000495910645,distr,54151.999950408936,Mon Dec 08 2025 18:22:52 GMT-0600 (Central Standard Time),770428.900000006,B,vall,O,l,152,1,1015.7000000178814,769413.1999999881,7249,WL,C,3.0
6,6.58299994468689,distr,53417.00005531311,Mon Dec 08 2025 18:22:52 GMT-0600 (Central Standard Time),771163.599999994,B,vally,O,y,715,1,1750.4000000059605,769413.1999999881,7249,WL,C,3.0
6,7.281000137329102,distr,52718.9998626709,Mon Dec 08 2025 18:22:52 GMT-0600 (Central Standard Time),771861.3000000119,B,vall,O,backspace,682,1,2448.100000023842,769413.1999999881,7249,WL,C,3.0
6,7.664999961853027,distr,52335.00003814697,Mon Dec 08 2025 18:22:52 GMT-0600 (Central Standard Time),772245.6999999881,B,valle,O,e,369,1,2832.5,769413.1999999881,7249,WL,C,3.0
6,7.965000152587891,distr,52034.99984741211,Mon Dec 08 2025 18:22:52 GMT-0600 (Central Standard Time),772545.1999999881,B,valley,O,y,280,1,3132.0,769413.1999999881,7249,WL,C,3.0
6,8.365000009536743,distr,51634.99999046326,Mon Dec 08 2025 18:22:52 GMT-0600 (Central Standard Time),772945.8000000119,B,valleyenter,O,enter,396,1,3532.600000023842,769413.1999999881,7249,WL,C,3.0
6,8.998000144958496,distr,51001.999855041504,Mon Dec 08 2025 18:22:52 GMT-0600 (Central Standard Time),773578.5,B,b,O,b,619,1,632.4000000059605,772946.099999994,7249,WL,C,4.0
6,9.263999938964844,distr,50736.000061035156,Mon Dec 08 2025 18:22:52 GMT-0600 (Central Standard Time),773844.0,B,bu,O,u,250,1,897.9000000059605,772946.099999994,7249,WL,C,4.0
6,9.582000017166138,distr,50417.99998283386,Mon Dec 08 2025 18:22:52 GMT-0600 (Central Standard Time),774161.900000006,B,but,O,t,306,1,1215.800000011921,772946.099999994,7249,WL,C,4.0
6,9.781000137329102,distr,50218.9998626709,Mon Dec 08 2025 18:22:52 GMT-0600 (Central Standard Time),774361.8000000119,B,butt,O,t,181,1,1415.7000000178814,772946.099999994,7249,WL,C,4.0
6,10.11300015449524,distr,49886.99984550476,Mon Dec 08 2025 18:22:52 GMT-0600 (Central Standard Time),774693.5,B,butte,O,e,323,1,1747.4000000059605,772946.099999994,7249,WL,C,4.0
6,10.414000034332275,distr,49585.999965667725,Mon Dec 08 2025 18:22:52 GMT-0600 (Central Standard Time),774994.900000006,B,butter,O,r,296,1,2048.800000011921,772946.099999994,7249,WL,C,4.0
6,10.763999938964844,distr,49236.000061035156,Mon Dec 08 2025 18:22:52 GMT-0600 (Central Standard Time),775344.3000000119,B,butterenter,O,enter,330,1,2398.2000000178814,772946.099999994,7249,WL,C,4.0
6,11.581000089645386,distr,48418.999910354614,Mon Dec 08 2025 18:22:52 GMT-0600 (Central Standard Time),776161.400000006,B,h,O,h,796,1,816.9000000059605,775344.5,7249,WL,C,5.0
6,11.847000122070312,distr,48152.99987792969,Mon Dec 08 2025 18:22:52 GMT-0600 (Central Standard Time),776427.6999999881,B,ha,O,a,251,1,1083.199999988079,775344.5,7249,WL,C,5.0
6,12.21399998664856,distr,47786.00001335144,Mon Dec 08 2025 18:22:52 GMT-0600 (Central Standard Time),776794.599999994,B,hal,O,l,354,1,1450.0999999940395,775344.5,7249,WL,C,5.0
6,12.447999954223633,distr,47552.00004577637,Mon Dec 08 2025 18:22:52 GMT-0600 (Central Standard Time),777028.900000006,B,hall,O,l,220,1,1684.4000000059605,775344.5,7249,WL,C,5.0
6,12.979000091552734,distr,47020.999908447266,Mon Dec 08 2025 18:22:52 GMT-0600 (Central Standard Time),777559.599999994,B,hallenter,O,enter,513,1,2215.0999999940395,775344.5,7249,WL,C,5.0
6,14.230000019073486,distr,45769.999980926514,Mon Dec 08 2025 18:22:52 GMT-0600 (Central Standard Time),778810.099999994,B,w,O,w,1239,1,1250.4000000059605,777559.6999999881,7249,WL,C,6.0
6,14.396000146865845,distr,45603.999853134155,Mon Dec 08 2025 18:22:52 GMT-0600 (Central Standard Time),778976.6999999881,B,wi,O,i,147,1,1417.0,777559.6999999881,7249,WL,C,6.0
6,14.63100004196167,distr,45368.99995803833,Mon Dec 08 2025 18:22:52 GMT-0600 (Central Standard Time),779211.8000000119,B,win,O,n,228,1,1652.1000000238419,777559.6999999881,7249,WL,C,6.0
6,15.480000019073486,distr,44519.999980926514,Mon Dec 08 2025 18:22:52 GMT-0600 (Central Standard Time),780060.400000006,B,wint,O,t,843,1,2500.7000000178814,777559.6999999881,7249,WL,C,6.0
6,15.828999996185303,distr,44171.0000038147,Mon Dec 08 2025 18:22:52 GMT-0600 (Central Standard Time),780409.099999994,B,winte,O,e,337,1,2849.4000000059605,777559.6999999881,7249,WL,C,6.0
6,16.128000020980835,distr,43871.999979019165,Mon Dec 08 2025 18:22:52 GMT-0600 (Central Standard Time),780708.900000006,B,winter,O,r,292,1,3149.2000000178814,777559.6999999881,7249,WL,C,6.0
6,17.562000036239624,distr,42437.999963760376,Mon Dec 08 2025 18:22:52 GMT-0600 (Central Standard Time),782142.3000000119,B,winterenter,O,enter,1424,1,4582.600000023842,777559.6999999881,7249,WL,C,6.0
6,20.812000036239624,distr,39187.999963760376,Mon Dec 08 2025 18:22:52 GMT-0600 (Central Standard Time),785392.900000006,B,d,O,d,3233,1,3250.4000000059605,782142.5,7249,WL,C,7.0
6,20.99399995803833,distr,39006.00004196167,Mon Dec 08 2025 18:22:52 GMT-0600 (Central Standard Time),785574.3000000119,B,di,O,i,172,1,3431.800000011921,782142.5,7249,WL,C,7.0
6,21.177000045776367,distr,38822.99995422363,Mon Dec 08 2025 18:22:52 GMT-0600 (Central Standard Time),785757.8000000119,B,dia,O,a,175,1,3615.300000011921,782142.5,7249,WL,C,7.0
6,21.361000061035156,distr,38638.999938964844,Mon Dec 08 2025 18:22:52 GMT-0600 (Central Standard Time),785941.6999999881,B,diam,O,m,164,1,3799.199999988079,782142.5,7249,WL,C,7.0
6,21.611000061035156,distr,38388.999938964844,Mon Dec 08 2025 18:22:52 GMT-0600 (Central Standard Time),786191.900000006,B,diamo,O,o,231,1,4049.4000000059605,782142.5,7249,WL,C,7.0
6,21.84500002861023,distr,38154.99997138977,Mon Dec 08 2025 18:22:52 GMT-0600 (Central Standard Time),786426.099999994,B,diamon,O,n,213,1,4283.5999999940395,782142.5,7249,WL,C,7.0
6,22.17799997329712,distr,37822.00002670288,Mon Dec 08 2025 18:22:52 GMT-0600 (Central Standard Time),786758.400000006,B,diamond,O,d,314,1,4615.9000000059605,782142.5,7249,WL,C,7.0
6,22.592999935150146,distr,37407.00006484985,Mon Dec 08 2025 18:22:52 GMT-0600 (Central Standard Time),787173.6999999881,B,diamondenter,O,enter,400,1,5031.199999988079,782142.5,7249,WL,C,7.0
6,23.176000118255615,distr,36823.999881744385,Mon Dec 08 2025 18:22:52 GMT-0600 (Central Standard Time),787756.6999999881,B,m,O,m,568,1,582.7999999821186,787173.900000006,7249,WL,C,8.0
6,23.460999965667725,distr,36539.000034332275,Mon Dec 08 2025 18:22:52 GMT-0600 (Central Standard Time),788041.1999999881,B,mo,O,o,262,1,867.2999999821186,787173.900000006,7249,WL,C,8.0
6,23.74399995803833,distr,36256.00004196167,Mon Dec 08 2025 18:22:52 GMT-0600 (Central Standard Time),788324.900000006,B,mot,O,t,269,1,1151.0,787173.900000006,7249,WL,C,8.0
6,23.89400005340576,distr,36105.99994659424,Mon Dec 08 2025 18:22:52 GMT-0600 (Central Standard Time),788474.099999994,B,moth,O,h,138,1,1300.199999988079,787173.900000006,7249,WL,C,8.0
6,24.176000118255615,distr,35823.999881744385,Mon Dec 08 2025 18:22:52 GMT-0600 (Central Standard Time),788756.3000000119,B,mothe,O,e,275,1,1582.4000000059605,787173.900000006,7249,WL,C,8.0
6,24.377000093460083,distr,35622.99990653992,Mon Dec 08 2025 18:22:52 GMT-0600 (Central Standard Time),788957.3000000119,B,mother,O,r,196,1,1783.4000000059605,787173.900000006,7249,WL,C,8.0
6,25.409000158309937,distr,34590.99984169006,Mon Dec 08 2025 18:22:52 GMT-0600 (Central Standard Time),789989.599999994,B,motherenter,O,enter,1016,1,2815.699999988079,787173.900000006,7249,WL,C,8.0
6,25.943000078201294,distr,34056.999921798706,Mon Dec 08 2025 18:22:52 GMT-0600 (Central Standard Time),790523.900000006,B,f,O,f,530,1,534.0999999940395,789989.8000000119,7249,WL,C,9.0
6,26.12600016593933,distr,33873.99983406067,Mon Dec 08 2025 18:22:52 GMT-0600 (Central Standard Time),790706.3000000119,B,fo,O,o,162,1,716.5,789989.8000000119,7249,WL,C,9.0
6,26.325999975204468,distr,33674.00002479553,Mon Dec 08 2025 18:22:52 GMT-0600 (Central Standard Time),790906.6999999881,B,for,O,r,178,1,916.8999999761581,789989.8000000119,7249,WL,C,9.0
6,26.641000032424927,distr,33358.99996757507,Mon Dec 08 2025 18:22:52 GMT-0600 (Central Standard Time),791221.5,B,fore,O,e,295,1,1231.699999988079,789989.8000000119,7249,WL,C,9.0
6,26.875,distr,33125.0,Mon Dec 08 2025 18:22:52 GMT-0600 (Central Standard Time),791455.400000006,B,fores,O,s,223,1,1465.5999999940395,789989.8000000119,7249,WL,C,9.0
6,27.225000143051147,distr,32774.99985694885,Mon Dec 08 2025 18:22:52 GMT-0600 (Central Standard Time),791805.5,B,forest,O,t,334,1,1815.699999988079,789989.8000000119,7249,WL,C,9.0
6,28.19099998474121,distr,31809.00001525879,Mon Dec 08 2025 18:22:52 GMT-0600 (Central Standard Time),792771.6999999881,B,forestenter,O,enter,962,1,2781.899999976158,789989.8000000119,7249,WL,C,9.0
6,34.5220000743866,distr,25477.999925613403,Mon Dec 08 2025 18:22:52 GMT-0600 (Central Standard Time),799102.900000006,B,p,O,p,6314,1,6330.9000000059605,792772.0,7249,WL,C,10.0
6,34.85700011253357,distr,25142.99988746643,Mon Dec 08 2025 18:22:52 GMT-0600 (Central Standard Time),799437.099999994,B,pl,O,l,318,1,6665.0999999940395,792772.0,7249,WL,C,10.0
6,35.07299995422363,distr,24927.000045776367,Mon Dec 08 2025 18:22:52 GMT-0600 (Central Standard Time),799653.3000000119,B,pla,O,a,208,1,6881.300000011921,792772.0,7249,WL,C,10.0
6,35.305999994277954,distr,24694.000005722046,Mon Dec 08 2025 18:22:52 GMT-0600 (Central Standard Time),799886.599999994,B,plan,O,n,213,1,7114.5999999940395,792772.0,7249,WL,C,10.0
6,35.59000015258789,distr,24409.99984741211,Mon Dec 08 2025 18:22:52 GMT-0600 (Central Standard Time),800170.400000006,B,plant,O,t,276,1,7398.4000000059605,792772.0,7249,WL,C,10.0
6,36.15499997138977,distr,23845.00002861023,Mon Dec 08 2025 18:22:52 GMT-0600 (Central Standard Time),800735.1999999881,B,plantenter,O,enter,544,1,7963.199999988079,792772.0,7249,WL,C,10.0
6,36.85800004005432,distr,23141.99995994568,Mon Dec 08 2025 18:22:52 GMT-0600 (Central Standard Time),801438.400000006,B,m,O,m,686,1,703.0,800735.400000006,7249,WL,C,11.0
6,37.08899998664856,distr,22911.00001335144,Mon Dec 08 2025 18:22:52 GMT-0600 (Central Standard Time),801669.099999994,B,mo,O,o,215,1,933.6999999880791,800735.400000006,7249,WL,C,11.0
6,37.789000034332275,distr,22210.999965667725,Mon Dec 08 2025 18:22:52 GMT-0600 (Central Standard Time),802369.400000006,B,moe,O,e,685,1,1634.0,800735.400000006,7249,WL,C,11.0
6,38.33899998664856,distr,21661.00001335144,Mon Dec 08 2025 18:22:52 GMT-0600 (Central Standard Time),802919.0,B,mo,O,backspace,539,1,2183.5999999940395,800735.400000006,7249,WL,C,11.0
6,38.65499997138977,distr,21345.00002861023,Mon Dec 08 2025 18:22:52 GMT-0600 (Central Standard Time),803235.400000006,B,mon,O,n,302,1,2500.0,800735.400000006,7249,WL,C,11.0
6,38.937999963760376,distr,21062.000036239624,Mon Dec 08 2025 18:22:52 GMT-0600 (Central Standard Time),803519.0,B,mone,O,e,272,1,2783.5999999940395,800735.400000006,7249,WL,C,11.0
6,39.15499997138977,distr,20845.00002861023,Mon Dec 08 2025 18:22:52 GMT-0600 (Central Standard Time),803735.599999994,B,money,O,y,206,1,3000.199999988079,800735.400000006,7249,WL,C,11.0
6,39.605000019073486,distr,20394.999980926514,Mon Dec 08 2025 18:22:52 GMT-0600 (Central Standard Time),804185.0,B,moneyenter,O,enter,438,1,3449.5999999940395,800735.400000006,7249,WL,C,11.0
6,40.32100009918213,distr,19678.99990081787,Mon Dec 08 2025 18:22:52 GMT-0600 (Central Standard Time),804901.5,B,h,O,h,710,1,716.1999999880791,804185.3000000119,7249,WL,C,12.0
6,40.57000017166138,distr,19429.999828338623,Mon Dec 08 2025 18:22:52 GMT-0600 (Central Standard Time),805150.900000006,B,ho,O,o,231,1,965.5999999940395,804185.3000000119,7249,WL,C,12.0
6,40.82000017166138,distr,19179.999828338623,Mon Dec 08 2025 18:22:52 GMT-0600 (Central Standard Time),805400.900000006,B,hot,O,t,228,1,1215.5999999940395,804185.3000000119,7249,WL,C,12.0
6,41.03699994087219,distr,18963.000059127808,Mon Dec 08 2025 18:22:52 GMT-0600 (Central Standard Time),805617.900000006,B,hote,O,e,203,1,1432.5999999940395,804185.3000000119,7249,WL,C,12.0
6,41.32100009918213,distr,18678.99990081787,Mon Dec 08 2025 18:22:52 GMT-0600 (Central Standard Time),805902.0,B,hotel,O,l,267,1,1716.699999988079,804185.3000000119,7249,WL,C,12.0
6,42.47099995613098,distr,17529.00004386902,Mon Dec 08 2025 18:22:52 GMT-0600 (Central Standard Time),807051.3000000119,B,hotelenter,O,enter,1144,1,2866.0,804185.3000000119,7249,WL,C,12.0
6,46.30200004577637,distr,13697.999954223633,Mon Dec 08 2025 18:22:52 GMT-0600 (Central Standard Time),810882.8000000119,B,enter,O,enter,3818,1,3831.2000000178814,807051.599999994,7249,WL,C,13.0
6,46.91900014877319,distr,13080.999851226807,Mon Dec 08 2025 18:22:52 GMT-0600 (Central Standard Time),811499.900000006,B,enter,O,enter,612,1,616.9000000059605,810883.0,7249,WL,C,14.0
6,47.90400004386902,distr,12095.999956130981,Mon Dec 08 2025 18:22:52 GMT-0600 (Central Standard Time),812484.5,B,enter,O,enter,980,1,984.1999999880791,811500.3000000119,7249,WL,C,15.0
7,1.3670001029968262,immed,58632.999897003174,Mon Dec 08 2025 18:22:52 GMT-0600 (Central Standard Time),824295.3000000119,A,t,O,t,1348,1,1366.6000000238419,822928.6999999881,7249,WL,C,1.0
7,1.5510001182556152,immed,58448.999881744385,Mon Dec 08 2025 18:22:52 GMT-0600 (Central Standard Time),824479.400000006,A,to,O,o,166,1,1550.7000000178814,822928.6999999881,7249,WL,C,1.0
7,1.75,immed,58250.0,Mon Dec 08 2025 18:22:52 GMT-0600 (Central Standard Time),824678.599999994,A,tow,O,w,183,1,1749.9000000059605,822928.6999999881,7249,WL,C,1.0
7,1.934000015258789,immed,58065.99998474121,Mon Dec 08 2025 18:22:52 GMT-0600 (Central Standard Time),824862.400000006,A,towe,O,e,163,1,1933.7000000178814,822928.6999999881,7249,WL,C,1.0
7,2.0989999771118164,immed,57901.00002288818,Mon Dec 08 2025 18:22:52 GMT-0600 (Central Standard Time),825028.099999994,A,tower,O,r,149,1,2099.4000000059605,822928.6999999881,7249,WL,C,1.0
7,2.4830000400543213,immed,57516.99995994568,Mon Dec 08 2025 18:22:52 GMT-0600 (Central Standard Time),825412.099999994,A,towerenter,O,enter,369,1,2483.4000000059605,822928.6999999881,7249,WL,C,1.0
7,3.2829999923706055,immed,56717.000007629395,Mon Dec 08 2025 18:22:52 GMT-0600 (Central Standard Time),826212.1999999881,A,w,O,w,786,1,799.8999999761581,825412.3000000119,7249,WL,C,2.0
7,3.500999927520752,immed,56499.00007247925,Mon Dec 08 2025 18:22:52 GMT-0600 (Central Standard Time),826429.599999994,A,wh,O,h,206,1,1017.2999999821186,825412.3000000119,7249,WL,C,2.0
7,3.6659998893737793,immed,56334.00011062622,Mon Dec 08 2025 18:22:52 GMT-0600 (Central Standard Time),826594.6999999881,A,whe,O,e,159,1,1182.3999999761581,825412.3000000119,7249,WL,C,2.0
7,3.949000120162964,immed,56050.999879837036,Mon Dec 08 2025 18:22:52 GMT-0600 (Central Standard Time),826877.8000000119,A,whea,O,a,273,1,1465.5,825412.3000000119,7249,WL,C,2.0
7,4.148000001907349,immed,55851.99999809265,Mon Dec 08 2025 18:22:52 GMT-0600 (Central Standard Time),827077.1999999881,A,wheat,O,t,178,1,1664.8999999761581,825412.3000000119,7249,WL,C,2.0
7,4.7820000648498535,immed,55217.99993515015,Mon Dec 08 2025 18:22:52 GMT-0600 (Central Standard Time),827711.099999994,A,wheatenter,O,enter,615,1,2298.7999999821186,825412.3000000119,7249,WL,C,2.0
7,5.25,immed,54750.0,Mon Dec 08 2025 18:22:52 GMT-0600 (Central Standard Time),828178.3000000119,A,q,O,q,447,1,467.0,827711.3000000119,7249,WL,C,3.0
7,5.401000022888184,immed,54598.99997711182,Mon Dec 08 2025 18:22:52 GMT-0600 (Central Standard Time),828329.5,A,qu,O,u,145,1,618.1999999880791,827711.3000000119,7249,WL,C,3.0
7,5.582000017166138,immed,54417.99998283386,Mon Dec 08 2025 18:22:52 GMT-0600 (Central Standard Time),828510.900000006,A,que,O,e,173,1,799.5999999940395,827711.3000000119,7249,WL,C,3.0
7,6.418999910354614,immed,53581.000089645386,Mon Dec 08 2025 18:22:52 GMT-0600 (Central Standard Time),829348.0,A,quee,O,e,819,1,1636.699999988079,827711.3000000119,7249,WL,C,3.0
7,6.565999984741211,immed,53434.00001525879,Mon Dec 08 2025 18:22:52 GMT-0600 (Central Standard Time),829494.5,A,queen,O,n,131,1,1783.199999988079,827711.3000000119,7249,WL,C,3.0
7,6.829999923706055,immed,53170.000076293945,Mon Dec 08 2025 18:22:52 GMT-0600 (Central Standard Time),829759.1999999881,A,queenenter,O,enter,245,1,2047.8999999761581,827711.3000000119,7249,WL,C,3.0
7,7.313999891281128,immed,52686.00010871887,Mon Dec 08 2025 18:22:52 GMT-0600 (Central Standard Time),830243.0,A,s,O,s,472,1,483.59999999403954,829759.400000006,7249,WL,C,4.0
7,7.480999946594238,immed,52519.00005340576,Mon Dec 08 2025 18:22:52 GMT-0600 (Central Standard Time),830410.3000000119,A,su,O,u,161,1,650.9000000059605,829759.400000006,7249,WL,C,4.0
7,8.430999994277954,immed,51569.000005722046,Mon Dec 08 2025 18:22:52 GMT-0600 (Central Standard Time),831359.599999994,A,sug,O,g,928,1,1600.199999988079,829759.400000006,7249,WL,C,4.0
7,8.63100004196167,immed,51368.99995803833,Mon Dec 08 2025 18:22:52 GMT-0600 (Central Standard Time),831559.599999994,A,suga,O,a,189,1,1800.199999988079,829759.400000006,7249,WL,C,4.0
7,8.765000104904175,immed,51234.999895095825,Mon Dec 08 2025 18:22:52 GMT-0600 (Central Standard Time),831693.5,A,sugar,O,r,124,1,1934.0999999940395,829759.400000006,7249,WL,C,4.0
7,9.081000089645386,immed,50918.999910354614,Mon Dec 08 2025 18:22:52 GMT-0600 (Central Standard Time),832009.5,A,sugarenter,O,enter,302,1,2250.0999999940395,829759.400000006,7249,WL,C,4.0
7,9.63100004196167,immed,50368.99995803833,Mon Dec 08 2025 18:22:52 GMT-0600 (Central Standard Time),832559.900000006,A,h,O,h,531,1,550.2000000178814,832009.6999999881,7249,WL,C,5.0
7,9.815000057220459,immed,50184.99994277954,Mon Dec 08 2025 18:22:52 GMT-0600 (Central Standard Time),832744.1999999881,A,ho,O,o,164,1,734.5,832009.6999999881,7249,WL,C,5.0
7,10.164000034332275,immed,49835.999965667725,Mon Dec 08 2025 18:22:52 GMT-0600 (Central Standard Time),833092.599999994,A,hom,O,m,330,1,1082.9000000059605,832009.6999999881,7249,WL,C,5.0
7,10.930999994277954,immed,49069.000005722046,Mon Dec 08 2025 18:22:52 GMT-0600 (Central Standard Time),833859.599999994,A,home,O,e,746,1,1849.9000000059605,832009.6999999881,7249,WL,C,5.0
7,11.097000122070312,immed,48902.99987792969,Mon Dec 08 2025 18:22:52 GMT-0600 (Central Standard Time),834026.3000000119,A,homeenter,O,enter,152,1,2016.6000000238419,832009.6999999881,7249,WL,C,5.0
7,11.578999996185303,immed,48421.0000038147,Mon Dec 08 2025 18:22:52 GMT-0600 (Central Standard Time),834508.1999999881,A,b,O,b,475,1,481.59999999403954,834026.599999994,7249,WL,C,6.0
7,11.71399998664856,immed,48286.00001335144,Mon Dec 08 2025 18:22:52 GMT-0600 (Central Standard Time),834642.5,A,bo,O,o,115,1,615.9000000059605,834026.599999994,7249,WL,C,6.0
7,11.980999946594238,immed,48019.00005340576,Mon Dec 08 2025 18:22:52 GMT-0600 (Central Standard Time),834909.400000006,A,boy,O,y,250,1,882.8000000119209,834026.599999994,7249,WL,C,6.0
7,12.296000003814697,immed,47703.9999961853,Mon Dec 08 2025 18:22:52 GMT-0600 (Central Standard Time),835225.3000000119,A,boyenter,O,enter,301,1,1198.7000000178814,834026.599999994,7249,WL,C,6.0
7,12.730000019073486,immed,47269.999980926514,Mon Dec 08 2025 18:22:52 GMT-0600 (Central Standard Time),835659.0,A,d,O,d,430,1,433.40000000596046,835225.599999994,7249,WL,C,7.0
7,12.864000082015991,immed,47135.99991798401,Mon Dec 08 2025 18:22:52 GMT-0600 (Central Standard Time),835792.599999994,A,do,O,o,111,1,567.0,835225.599999994,7249,WL,C,7.0
7,13.848999977111816,immed,46151.00002288818,Mon Dec 08 2025 18:22:52 GMT-0600 (Central Standard Time),836777.599999994,A,doc,O,c,978,1,1552.0,835225.599999994,7249,WL,C,7.0
7,14.130000114440918,immed,45869.99988555908,Mon Dec 08 2025 18:22:52 GMT-0600 (Central Standard Time),837058.8000000119,A,doct,O,t,267,1,1833.2000000178814,835225.599999994,7249,WL,C,7.0
7,14.26200008392334,immed,45737.99991607666,Mon Dec 08 2025 18:22:52 GMT-0600 (Central Standard Time),837191.3000000119,A,docto,O,o,122,1,1965.7000000178814,835225.599999994,7249,WL,C,7.0
7,14.395999908447266,immed,45604.000091552734,Mon Dec 08 2025 18:22:52 GMT-0600 (Central Standard Time),837324.900000006,A,doctor,O,r,118,1,2099.300000011921,835225.599999994,7249,WL,C,7.0
7,14.611000061035156,immed,45388.999938964844,Mon Dec 08 2025 18:22:52 GMT-0600 (Central Standard Time),837540.3000000119,A,doctorenter,O,enter,198,1,2314.7000000178814,835225.599999994,7249,WL,C,7.0
7,15.128000020980835,immed,44871.999979019165,Mon Dec 08 2025 18:22:52 GMT-0600 (Central Standard Time),838057.099999994,A,c,O,c,505,1,516.6999999880791,837540.400000006,7249,WL,C,8.0
7,15.312000036239624,immed,44687.999963760376,Mon Dec 08 2025 18:22:52 GMT-0600 (Central Standard Time),838240.599999994,A,ca,O,a,166,1,700.1999999880791,837540.400000006,7249,WL,C,8.0
7,15.430000066757202,immed,44569.9999332428,Mon Dec 08 2025 18:22:52 GMT-0600 (Central Standard Time),838359.3000000119,A,cam,O,m,111,1,818.9000000059605,837540.400000006,7249,WL,C,8.0
7,15.694999933242798,immed,44305.0000667572,Mon Dec 08 2025 18:22:52 GMT-0600 (Central Standard Time),838624.3000000119,A,camp,O,p,246,1,1083.9000000059605,837540.400000006,7249,WL,C,8.0
7,16.02900004386902,immed,43970.99995613098,Mon Dec 08 2025 18:22:52 GMT-0600 (Central Standard Time),838957.5,A,campenter,O,enter,324,1,1417.0999999940395,837540.400000006,7249,WL,C,8.0
7,17.494999885559082,immed,42505.00011444092,Mon Dec 08 2025 18:22:52 GMT-0600 (Central Standard Time),840423.900000006,A,f,O,f,1456,1,1466.0999999940395,838957.8000000119,7249,WL,C,9.0
7,17.694000005722046,immed,42305.999994277954,Mon Dec 08 2025 18:22:52 GMT-0600 (Central Standard Time),840622.6999999881,A,fl,O,l,180,1,1664.8999999761581,838957.8000000119,7249,WL,C,9.0
7,17.844000101089478,immed,42155.99989891052,Mon Dec 08 2025 18:22:52 GMT-0600 (Central Standard Time),840773.1999999881,A,fla,O,a,143,1,1815.3999999761581,838957.8000000119,7249,WL,C,9.0
