acc_sum,block,block_c,change,condition,correct,correct_response,datetime,endtime,face,project,response,response_time,row_sel,session_number,start_end,starttime,subject_id,task,task_vers,trial
0,prac,1,,1-Back,,,Thu May 14 2026 10:23:08 GMT-0500 (Central Daylight Time),,012_o_f_d_a.png,O,space,2017,1,1,,,7802,VNB,C,0
0,prac,1,0.0,1-Back,0.0,m,Thu May 14 2026 10:23:08 GMT-0500 (Central Daylight Time),159287.60000002384,022_y_f_n_a.png,O,None,2006,2,1,2865.7000000178814,156421.90000000596,7802,VNB,C,1
1,prac,1,0.0,1-Back,1.0,m,Thu May 14 2026 10:23:08 GMT-0500 (Central Daylight Time),162086.80000001192,014_m_m_h_a.png,O,m,1941,3,1,2792.0999999940395,159294.70000001788,7802,VNB,C,2
2,prac,1,0.0,1-Back,1.0,m,Thu May 14 2026 10:23:08 GMT-0500 (Central Daylight Time),164519.90000000596,025_y_m_d_a.png,O,m,1559,4,1,2415.7999999821186,162104.10000002384,7802,VNB,C,3
3,prac,1,0.0,1-Back,1.0,m,Thu May 14 2026 10:23:08 GMT-0500 (Central Daylight Time),166568.5,012_o_f_n_a.png,O,m,1184,5,1,2039.8999999761581,164528.60000002384,7802,VNB,C,4
4,prac,1,1.0,1-Back,1.0,z,Thu May 14 2026 10:23:08 GMT-0500 (Central Daylight Time),168354.80000001192,025_y_m_n_a.png,O,z,945,6,1,1774.5999999940395,166580.20000001788,7802,VNB,C,5
5,prac,1,0.0,1-Back,1.0,m,Thu May 14 2026 10:23:08 GMT-0500 (Central Daylight Time),170284.90000000596,015_o_m_h_a.png,O,m,1053,7,1,1921.0,168363.90000000596,7802,VNB,C,6
5,prac,1,0.0,1-Back,0.0,m,Thu May 14 2026 10:23:08 GMT-0500 (Central Daylight Time),172250.10000002384,019_m_f_d_a.png,O,z,1076,8,1,1957.9000000059605,170292.20000001788,7802,VNB,C,7
6,prac,1,1.0,1-Back,1.0,z,Thu May 14 2026 10:23:08 GMT-0500 (Central Daylight Time),174616.80000001192,022_y_f_d_a.png,O,z,1497,9,1,2358.300000011921,172258.5,7802,VNB,C,8
7,prac,1,0.0,1-Back,1.0,m,Thu May 14 2026 10:23:08 GMT-0500 (Central Daylight Time),176599.0,014_m_m_n_a.png,O,m,1127,10,1,1971.8999999761581,174627.10000002384,7802,VNB,C,9
8,prac,1,0.0,1-Back,1.0,m,Thu May 14 2026 10:23:08 GMT-0500 (Central Daylight Time),178549.90000000596,012_o_f_h_a.png,O,m,1091,11,1,1945.0999999940395,176604.80000001192,7802,VNB,C,10
8,prac,1,0.0,1-Back,0.0,m,Thu May 14 2026 10:23:08 GMT-0500 (Central Daylight Time),181414.5,025_y_m_d_a.png,O,None,2011,12,1,2848.699999988079,178565.80000001192,7802,VNB,C,11
0,test,1,0.0,1-Back,,,Thu May 14 2026 10:23:08 GMT-0500 (Central Daylight Time),181414.5,022_y_f_d_a.png,O,space,4633,1,1,2848.699999988079,178565.80000001192,7802,VNB,C,0
1,test,1,0.0,1-Back,1.0,m,Thu May 14 2026 10:23:08 GMT-0500 (Central Daylight Time),197374.0,019_m_f_n_a.png,O,m,1095,2,1,2103.5,195270.5,7802,VNB,C,1
1,test,1,0.0,1-Back,0.0,m,Thu May 14 2026 10:23:08 GMT-0500 (Central Daylight Time),199990.20000001788,015_o_m_h_a.png,O,z,1596,3,1,2614.4000000059605,197375.80000001192,7802,VNB,C,2
1,test,1,1.0,1-Back,0.0,z,Thu May 14 2026 10:23:08 GMT-0500 (Central Daylight Time),202610.40000000596,014_m_m_h_a.png,O,m,1589,4,1,2613.7999999821186,199996.60000002384,7802,VNB,C,3
2,test,1,0.0,1-Back,1.0,m,Thu May 14 2026 10:23:08 GMT-0500 (Central Daylight Time),204756.60000002384,012_o_f_n_a.png,O,m,1125,5,1,2142.2000000178814,202614.40000000596,7802,VNB,C,4
3,test,1,0.0,1-Back,1.0,m,Thu May 14 2026 10:23:08 GMT-0500 (Central Daylight Time),206688.90000000596,025_y_m_d_a.png,O,m,903,6,1,1923.4000000059605,204765.5,7802,VNB,C,5
4,test,1,1.0,1-Back,1.0,z,Thu May 14 2026 10:23:08 GMT-0500 (Central Daylight Time),208705.90000000596,019_m_f_d_a.png,O,z,986,7,1,2015.199999988079,206690.70000001788,7802,VNB,C,6
5,test,1,0.0,1-Back,1.0,m,Thu May 14 2026 10:23:08 GMT-0500 (Central Daylight Time),210671.10000002384,022_y_f_h_a.png,O,m,938,8,1,1961.300000011921,208709.80000001192,7802,VNB,C,7
6,test,1,0.0,1-Back,1.0,m,Thu May 14 2026 10:23:08 GMT-0500 (Central Daylight Time),212621.20000001788,015_o_m_n_a.png,O,m,925,9,1,1946.800000011921,210674.40000000596,7802,VNB,C,8
7,test,1,0.0,1-Back,1.0,m,Thu May 14 2026 10:23:08 GMT-0500 (Central Daylight Time),214586.80000001192,025_y_m_h_a.png,O,m,944,10,1,1958.4000000059605,212628.40000000596,7802,VNB,C,9
8,test,1,0.0,1-Back,1.0,m,Thu May 14 2026 10:23:08 GMT-0500 (Central Daylight Time),216454.0,015_o_m_d_a.png,O,m,839,11,1,1864.7999999821186,214589.20000001788,7802,VNB,C,10
9,test,1,1.0,1-Back,1.0,z,Thu May 14 2026 10:23:08 GMT-0500 (Central Daylight Time),218119.20000001788,012_o_f_d_a.png,O,z,639,12,1,1656.300000011921,216462.90000000596,7802,VNB,C,11
10,test,1,0.0,1-Back,1.0,m,Thu May 14 2026 10:23:08 GMT-0500 (Central Daylight Time),220034.70000001788,014_m_m_n_a.png,O,m,883,13,1,1912.5,218122.20000001788,7802,VNB,C,12
11,test,1,1.0,1-Back,1.0,z,Thu May 14 2026 10:23:08 GMT-0500 (Central Daylight Time),222134.90000000596,022_y_f_n_a.png,O,z,1083,14,1,2094.7999999821186,220040.10000002384,7802,VNB,C,13
12,test,1,0.0,1-Back,1.0,m,Thu May 14 2026 10:23:08 GMT-0500 (Central Daylight Time),224000.80000001192,019_m_f_h_a.png,O,m,834,15,1,1863.5,222137.30000001192,7802,VNB,C,14
12,test,1,0.0,1-Back,0.0,m,Thu May 14 2026 10:23:08 GMT-0500 (Central Daylight Time),226216.0,014_m_m_d_a.png,O,z,1195,16,1,2208.199999988079,224007.80000001192,7802,VNB,C,15
13,test,1,0.0,1-Back,1.0,m,Thu May 14 2026 10:23:08 GMT-0500 (Central Daylight Time),228399.60000002384,025_y_m_n_a.png,O,m,1165,17,1,2180.300000011921,226219.30000001192,7802,VNB,C,16
14,test,1,0.0,1-Back,1.0,m,Thu May 14 2026 10:23:08 GMT-0500 (Central Daylight Time),230431.10000002384,012_o_f_h_a.png,O,m,1012,18,1,2023.7000000178814,228407.40000000596,7802,VNB,C,17
0,test,2,0.0,1-Back,,,Thu May 14 2026 10:23:08 GMT-0500 (Central Daylight Time),230431.10000002384,025_y_m_n_a.png,O,space,1502,1,1,2023.7000000178814,228407.40000000596,7802,VNB,C,0
1,test,2,0.0,1-Back,1.0,m,Thu May 14 2026 10:23:08 GMT-0500 (Central Daylight Time),236198.0,022_y_f_h_a.png,O,m,1235,2,1,2238.5999999940395,233959.40000000596,7802,VNB,C,1
2,test,2,1.0,1-Back,1.0,m,Thu May 14 2026 10:23:08 GMT-0500 (Central Daylight Time),238229.90000000596,015_o_m_n_a.png,O,m,1005,3,1,2028.699999988079,236201.20000001788,7802,VNB,C,2
3,test,2,0.0,1-Back,1.0,m,Thu May 14 2026 10:23:08 GMT-0500 (Central Daylight Time),240246.80000001192,019_m_f_d_a.png,O,m,1000,4,1,2007.0999999940395,238239.70000001788,7802,VNB,C,3
4,test,2,0.0,1-Back,1.0,z,Thu May 14 2026 10:23:08 GMT-0500 (Central Daylight Time),242245.5,014_m_m_d_a.png,O,z,975,5,1,1995.699999988079,240249.80000001192,7802,VNB,C,4
5,test,2,0.0,1-Back,1.0,m,Thu May 14 2026 10:23:08 GMT-0500 (Central Daylight Time),244110.20000001788,025_y_m_h_a.png,O,m,839,6,1,1857.4000000059605,242252.80000001192,7802,VNB,C,5
6,test,2,1.0,1-Back,1.0,z,Thu May 14 2026 10:23:08 GMT-0500 (Central Daylight Time),246095.40000000596,012_o_f_h_a.png,O,z,967,7,1,1982.4000000059605,244113.0,7802,VNB,C,6
7,test,2,0.0,1-Back,1.0,m,Thu May 14 2026 10:23:08 GMT-0500 (Central Daylight Time),247927.30000001192,019_m_f_n_a.png,O,m,814,8,1,1821.5,246105.80000001192,7802,VNB,C,7
8,test,2,0.0,1-Back,1.0,m,Thu May 14 2026 10:23:08 GMT-0500 (Central Daylight Time),249859.40000000596,022_y_f_d_a.png,O,m,909,9,1,1928.7999999821186,247930.60000002384,7802,VNB,C,8
9,test,2,0.0,1-Back,1.0,m,Thu May 14 2026 10:23:08 GMT-0500 (Central Daylight Time),251675.20000001788,014_m_m_n_a.png,O,m,792,10,1,1806.5999999940395,249868.60000002384,7802,VNB,C,9
10,test,2,1.0,1-Back,1.0,m,Thu May 14 2026 10:23:08 GMT-0500 (Central Daylight Time),253592.60000002384,019_m_f_h_a.png,O,m,883,11,1,1914.9000000059605,251677.70000001788,7802,VNB,C,10
11,test,2,0.0,1-Back,1.0,z,Thu May 14 2026 10:23:08 GMT-0500 (Central Daylight Time),255440.40000000596,015_o_m_h_a.png,O,z,830,12,1,1838.0,253602.40000000596,7802,VNB,C,11
12,test,2,0.0,1-Back,1.0,m,Thu May 14 2026 10:23:08 GMT-0500 (Central Daylight Time),257539.90000000596,025_y_m_d_a.png,O,m,1074,13,1,2096.4000000059605,255443.5,7802,VNB,C,12
13,test,2,0.0,1-Back,1.0,m,Thu May 14 2026 10:23:08 GMT-0500 (Central Daylight Time),259971.0,012_o_f_n_a.png,O,m,1407,14,1,2420.5,257550.5,7802,VNB,C,13
14,test,2,0.0,1-Back,1.0,z,Thu May 14 2026 10:23:08 GMT-0500 (Central Daylight Time),261754.70000001788,022_y_f_n_a.png,O,z,759,15,1,1781.800000011921,259972.90000000596,7802,VNB,C,14
15,test,2,1.0,1-Back,1.0,m,Thu May 14 2026 10:23:08 GMT-0500 (Central Daylight Time),263637.60000002384,014_m_m_h_a.png,O,m,857,16,1,1873.800000011921,261763.80000001192,7802,VNB,C,15
16,test,2,0.0,1-Back,1.0,m,Thu May 14 2026 10:23:08 GMT-0500 (Central Daylight Time),266071.0,012_o_f_d_a.png,O,m,1406,17,1,2428.5999999940395,263642.40000000596,7802,VNB,C,16
17,test,2,1.0,1-Back,1.0,z,Thu May 14 2026 10:23:08 GMT-0500 (Central Daylight Time),267952.90000000596,015_o_m_d_a.png,O,z,861,18,1,1875.0,266077.90000000596,7802,VNB,C,17
0,test,3,1.0,1-Back,,,Thu May 14 2026 10:23:08 GMT-0500 (Central Daylight Time),267952.90000000596,012_o_f_h_a.png,O,space,1451,1,1,1875.0,266077.90000000596,7802,VNB,C,0
0,test,3,0.0,1-Back,0.0,m,Thu May 14 2026 10:23:08 GMT-0500 (Central Daylight Time),273901.40000000596,019_m_f_d_a.png,O,z,1349,2,1,2373.5999999940395,271527.8000000119,7802,VNB,C,1
1,test,3,1.0,1-Back,1.0,m,Thu May 14 2026 10:23:08 GMT-0500 (Central Daylight Time),276016.0,014_m_m_n_a.png,O,m,1086,3,1,2110.0,273906.0,7802,VNB,C,2
2,test,3,0.0,1-Back,1.0,z,Thu May 14 2026 10:23:08 GMT-0500 (Central Daylight Time),278049.5,012_o_f_n_a.png,O,z,1010,4,1,2021.2999999821186,276028.2000000179,7802,VNB,C,3
3,test,3,1.0,1-Back,1.0,m,Thu May 14 2026 10:23:08 GMT-0500 (Central Daylight Time),279967.0,015_o_m_d_a.png,O,m,885,5,1,1915.699999988079,278051.3000000119,7802,VNB,C,4
4,test,3,0.0,1-Back,1.0,m,Thu May 14 2026 10:23:08 GMT-0500 (Central Daylight Time),281865.2000000179,022_y_f_h_a.png,O,m,868,6,1,1887.300000011921,279977.90000000596,7802,VNB,C,5
5,test,3,0.0,1-Back,1.0,z,Thu May 14 2026 10:23:08 GMT-0500 (Central Daylight Time),283682.8000000119,025_y_m_h_a.png,O,z,785,7,1,1814.0,281868.8000000119,7802,VNB,C,6
6,test,3,0.0,1-Back,1.0,m,Thu May 14 2026 10:23:08 GMT-0500 (Central Daylight Time),285564.0,019_m_f_n_a.png,O,m,851,8,1,1869.699999988079,283694.3000000119,7802,VNB,C,7
7,test,3,0.0,1-Back,1.0,m,Thu May 14 2026 10:23:08 GMT-0500 (Central Daylight Time),287530.7000000179,022_y_f_d_a.png,O,m,935,9,1,1962.0999999940395,285568.60000002384,7802,VNB,C,8
8,test,3,1.0,1-Back,1.0,m,Thu May 14 2026 10:23:08 GMT-0500 (Central Daylight Time),289313.0,015_o_m_n_a.png,O,m,762,10,1,1773.7999999821186,287539.2000000179,7802,VNB,C,9
9,test,3,0.0,1-Back,1.0,m,Thu May 14 2026 10:23:08 GMT-0500 (Central Daylight Time),291445.5,014_m_m_h_a.png,O,m,1114,11,1,2129.2999999821186,289316.2000000179,7802,VNB,C,10
10,test,3,0.0,1-Back,1.0,z,Thu May 14 2026 10:23:08 GMT-0500 (Central Daylight Time),293195.10000002384,019_m_f_h_a.png,O,z,717,12,1,1741.2000000178814,291453.90000000596,7802,VNB,C,11
11,test,3,1.0,1-Back,1.0,m,Thu May 14 2026 10:23:08 GMT-0500 (Central Daylight Time),295077.5,012_o_f_d_a.png,O,m,863,13,1,1879.0999999940395,293198.40000000596,7802,VNB,C,12
12,test,3,0.0,1-Back,1.0,z,Thu May 14 2026 10:23:08 GMT-0500 (Central Daylight Time),296895.0,014_m_m_d_a.png,O,z,790,14,1,1804.8999999761581,295090.10000002384,7802,VNB,C,13
13,test,3,0.0,1-Back,1.0,m,Thu May 14 2026 10:23:08 GMT-0500 (Central Daylight Time),298827.90000000596,025_y_m_n_a.png,O,m,908,15,1,1929.9000000059605,296898.0,7802,VNB,C,14
14,test,3,1.0,1-Back,1.0,m,Thu May 14 2026 10:23:08 GMT-0500 (Central Daylight Time),300675.8000000119,015_o_m_h_a.png,O,m,826,16,1,1844.9000000059605,298830.90000000596,7802,VNB,C,15
15,test,3,0.0,1-Back,1.0,m,Thu May 14 2026 10:23:08 GMT-0500 (Central Daylight Time),302592.8000000119,025_y_m_d_a.png,O,m,896,17,1,1915.199999988079,300677.60000002384,7802,VNB,C,16
16,test,3,1.0,1-Back,1.0,m,Thu May 14 2026 10:23:08 GMT-0500 (Central Daylight Time),304575.3000000119,022_y_f_n_a.png,O,m,965,18,1,1971.199999988079,302604.10000002384,7802,VNB,C,17
0,test,4,1.0,1-Back,,,Thu May 14 2026 10:23:08 GMT-0500 (Central Daylight Time),304575.3000000119,014_m_m_d_a.png,O,space,1268,1,1,1971.199999988079,302604.10000002384,7802,VNB,C,0
1,test,4,0.0,1-Back,1.0,z,Thu May 14 2026 10:23:08 GMT-0500 (Central Daylight Time),309791.10000002384,015_o_m_d_a.png,O,z,908,2,1,1922.9000000059605,307868.2000000179,7802,VNB,C,1
2,test,4,0.0,1-Back,1.0,m,Thu May 14 2026 10:23:08 GMT-0500 (Central Daylight Time),312105.7000000179,025_y_m_h_a.png,O,m,1287,3,1,2311.5999999940395,309794.10000002384,7802,VNB,C,2
3,test,4,0.0,1-Back,1.0,m,Thu May 14 2026 10:23:08 GMT-0500 (Central Daylight Time),314838.0,019_m_f_n_a.png,O,m,1702,4,1,2726.0,312112.0,7802,VNB,C,3
4,test,4,1.0,1-Back,1.0,m,Thu May 14 2026 10:23:08 GMT-0500 (Central Daylight Time),317071.5,012_o_f_h_a.png,O,m,1217,5,1,2230.899999976158,314840.60000002384,7802,VNB,C,4
5,test,4,0.0,1-Back,1.0,m,Thu May 14 2026 10:23:08 GMT-0500 (Central Daylight Time),319038.2000000179,014_m_m_n_a.png,O,m,934,6,1,1957.9000000059605,317080.3000000119,7802,VNB,C,5
6,test,4,0.0,1-Back,1.0,m,Thu May 14 2026 10:23:08 GMT-0500 (Central Daylight Time),320952.3000000119,025_y_m_d_a.png,O,m,885,7,1,1910.199999988079,319042.10000002384,7802,VNB,C,6
7,test,4,1.0,1-Back,1.0,z,Thu May 14 2026 10:23:08 GMT-0500 (Central Daylight Time),322770.5,022_y_f_d_a.png,O,z,787,8,1,1808.3999999761581,320962.10000002384,7802,VNB,C,7
8,test,4,0.0,1-Back,1.0,m,Thu May 14 2026 10:23:08 GMT-0500 (Central Daylight Time),324618.10000002384,019_m_f_h_a.png,O,m,827,9,1,1844.300000011921,322773.8000000119,7802,VNB,C,8
9,test,4,0.0,1-Back,1.0,z,Thu May 14 2026 10:23:08 GMT-0500 (Central Daylight Time),326434.0,015_o_m_h_a.png,O,z,792,10,1,1807.5999999940395,324626.40000000596,7802,VNB,C,9
10,test,4,1.0,1-Back,1.0,m,Thu May 14 2026 10:23:08 GMT-0500 (Central Daylight Time),328285.2000000179,012_o_f_n_a.png,O,m,826,11,1,1848.0999999940395,326437.10000002384,7802,VNB,C,10
11,test,4,0.0,1-Back,1.0,m,Thu May 14 2026 10:23:08 GMT-0500 (Central Daylight Time),330753.0,019_m_f_d_a.png,O,m,1438,12,1,2459.699999988079,328293.3000000119,7802,VNB,C,11
12,test,4,0.0,1-Back,1.0,m,Thu May 14 2026 10:23:08 GMT-0500 (Central Daylight Time),332550.3000000119,022_y_f_n_a.png,O,m,783,13,1,1795.0,330755.3000000119,7802,VNB,C,12
13,test,4,0.0,1-Back,1.0,m,Thu May 14 2026 10:23:08 GMT-0500 (Central Daylight Time),334533.8000000119,012_o_f_d_a.png,O,m,967,14,1,1975.699999988079,332558.10000002384,7802,VNB,C,13
14,test,4,0.0,1-Back,1.0,m,Thu May 14 2026 10:23:08 GMT-0500 (Central Daylight Time),336299.40000000596,022_y_f_h_a.png,O,m,743,15,1,1763.2999999821186,334536.10000002384,7802,VNB,C,14
15,test,4,1.0,1-Back,1.0,z,Thu May 14 2026 10:23:08 GMT-0500 (Central Daylight Time),338134.3000000119,014_m_m_h_a.png,O,z,800,16,1,1828.9000000059605,336305.40000000596,7802,VNB,C,15
16,test,4,0.0,1-Back,1.0,m,Thu May 14 2026 10:23:08 GMT-0500 (Central Daylight Time),340130.5,015_o_m_n_a.png,O,m,976,17,1,1994.3999999761581,338136.10000002384,7802,VNB,C,16
16,test,4,1.0,1-Back,0.0,z,Thu May 14 2026 10:23:08 GMT-0500 (Central Daylight Time),342363.40000000596,025_y_m_n_a.png,O,m,1202,18,1,2222.2999999821186,340141.10000002384,7802,VNB,C,17
0,test,5,1.0,1-Back,,,Thu May 14 2026 10:23:08 GMT-0500 (Central Daylight Time),342363.40000000596,015_o_m_n_a.png,O,space,1483,1,1,2222.2999999821186,340141.10000002384,7802,VNB,C,0
1,test,5,1.0,1-Back,1.0,m,Thu May 14 2026 10:23:08 GMT-0500 (Central Daylight Time),347696.5,012_o_f_h_a.png,O,m,806,2,1,1826.5999999940395,345869.90000000596,7802,VNB,C,1
2,test,5,0.0,1-Back,1.0,m,Thu May 14 2026 10:23:08 GMT-0500 (Central Daylight Time),349745.40000000596,025_y_m_d_a.png,O,m,1032,3,1,2046.0,347699.40000000596,7802,VNB,C,2
3,test,5,0.0,1-Back,1.0,z,Thu May 14 2026 10:23:08 GMT-0500 (Central Daylight Time),351411.60000002384,015_o_m_d_a.png,O,z,636,4,1,1659.2000000178814,349752.40000000596,7802,VNB,C,3
4,test,5,0.0,1-Back,1.0,m,Thu May 14 2026 10:23:08 GMT-0500 (Central Daylight Time),353176.8000000119,019_m_f_h_a.png,O,m,746,5,1,1762.5,351414.3000000119,7802,VNB,C,4
5,test,5,0.0,1-Back,1.0,m,Thu May 14 2026 10:23:08 GMT-0500 (Central Daylight Time),354942.5,022_y_f_n_a.png,O,m,740,6,1,1758.8999999761581,353183.60000002384,7802,VNB,C,5
6,test,5,1.0,1-Back,1.0,z,Thu May 14 2026 10:23:08 GMT-0500 (Central Daylight Time),356957.3000000119,012_o_f_n_a.png,O,z,990,7,1,2011.5,354945.8000000119,7802,VNB,C,6
7,test,5,0.0,1-Back,1.0,m,Thu May 14 2026 10:23:08 GMT-0500 (Central Daylight Time),358658.7000000179,019_m_f_d_a.png,O,m,668,8,1,1693.300000011921,356965.40000000596,7802,VNB,C,7
8,test,5,0.0,1-Back,1.0,m,Thu May 14 2026 10:23:08 GMT-0500 (Central Daylight Time),360542.10000002384,025_y_m_h_a.png,O,m,866,9,1,1880.300000011921,358661.8000000119,7802,VNB,C,8
8,test,5,0.0,1-Back,0.0,m,Thu May 14 2026 10:23:08 GMT-0500 (Central Daylight Time),363022.3000000119,022_y_f_d_a.png,O,z,1465,10,1,2473.0999999940395,360549.2000000179,7802,VNB,C,9
9,test,5,0.0,1-Back,1.0,m,Thu May 14 2026 10:23:08 GMT-0500 (Central Daylight Time),365088.90000000596,014_m_m_n_a.png,O,m,1038,11,1,2064.5,363024.40000000596,7802,VNB,C,10
10,test,5,1.0,1-Back,1.0,z,Thu May 14 2026 10:23:08 GMT-0500 (Central Daylight Time),367369.90000000596,019_m_f_n_a.png,O,z,1251,12,1,2271.0999999940395,365098.8000000119,7802,VNB,C,11
11,test,5,0.0,1-Back,1.0,m,Thu May 14 2026 10:23:08 GMT-0500 (Central Daylight Time),369221.7000000179,015_o_m_h_a.png,O,m,832,13,1,1849.9000000059605,367371.8000000119,7802,VNB,C,12
12,test,5,0.0,1-Back,1.0,z,Thu May 14 2026 10:23:08 GMT-0500 (Central Daylight Time),371121.60000002384,014_m_m_h_a.png,O,z,883,14,1,1892.5,369229.10000002384,7802,VNB,C,13
13,test,5,1.0,1-Back,1.0,m,Thu May 14 2026 10:23:08 GMT-0500 (Central Daylight Time),372970.40000000596,012_o_f_d_a.png,O,m,819,15,1,1846.0999999940395,371124.3000000119,7802,VNB,C,14
14,test,5,0.0,1-Back,1.0,m,Thu May 14 2026 10:23:08 GMT-0500 (Central Daylight Time),375103.8000000119,025_y_m_n_a.png,O,m,1116,16,1,2123.0999999940395,372980.7000000179,7802,VNB,C,15
15,test,5,0.0,1-Back,1.0,m,Thu May 14 2026 10:23:08 GMT-0500 (Central Daylight Time),377103.40000000596,022_y_f_h_a.png,O,m,982,17,1,1995.199999988079,375108.2000000179,7802,VNB,C,16
16,test,5,0.0,1-Back,1.0,m,Thu May 14 2026 10:23:08 GMT-0500 (Central Daylight Time),379017.8000000119,014_m_m_d_a.png,O,m,885,18,1,1905.300000011921,377112.5,7802,VNB,C,17
0,prac,1,0.0,2-Back,,,Thu May 14 2026 10:23:08 GMT-0500 (Central Daylight Time),379017.8000000119,019_m_f_n_a.png,O,space,3234,1,1,1905.300000011921,377112.5,7802,VNB,C,0
0,prac,1,0.0,2-Back,,,Thu May 14 2026 10:23:08 GMT-0500 (Central Daylight Time),379017.8000000119,012_o_f_h_a.png,O,space,3234,2,1,1905.300000011921,377112.5,7802,VNB,C,0
0,prac,1,0.0,2-Back,0.0,m,Thu May 14 2026 10:23:08 GMT-0500 (Central Daylight Time),454060.7000000179,015_o_m_d_a.png,O,z,1425,3,1,2291.0,451769.7000000179,7802,VNB,C,1
0,prac,1,1.0,2-Back,0.0,z,Thu May 14 2026 10:23:08 GMT-0500 (Central Daylight Time),456461.8000000119,014_m_m_h_a.png,O,m,1540,4,1,2391.0999999940395,454070.7000000179,7802,VNB,C,2
1,prac,1,0.0,2-Back,1.0,m,Thu May 14 2026 10:23:08 GMT-0500 (Central Daylight Time),458877.90000000596,022_y_f_n_a.png,O,m,1557,5,1,2412.0,456465.90000000596,7802,VNB,C,3
1,prac,1,1.0,2-Back,0.0,z,Thu May 14 2026 10:23:08 GMT-0500 (Central Daylight Time),461294.5,015_o_m_h_a.png,O,m,1532,6,1,2403.2999999821186,458891.2000000179,7802,VNB,C,4
1,prac,1,1.0,2-Back,0.0,z,Thu May 14 2026 10:23:08 GMT-0500 (Central Daylight Time),463460.2000000179,025_y_m_n_a.png,O,m,1309,7,1,2161.800000011921,461298.40000000596,7802,VNB,C,5
1,prac,1,0.0,2-Back,0.0,m,Thu May 14 2026 10:23:08 GMT-0500 (Central Daylight Time),466341.3000000119,019_m_f_d_a.png,O,None,2011,8,1,2872.0,463469.3000000119,7802,VNB,C,6
1,prac,1,0.0,2-Back,0.0,m,Thu May 14 2026 10:23:08 GMT-0500 (Central Daylight Time),468691.40000000596,012_o_f_d_a.png,O,z,1477,9,1,2344.9000000059605,466346.5,7802,VNB,C,7
2,prac,1,0.0,2-Back,1.0,m,Thu May 14 2026 10:23:08 GMT-0500 (Central Daylight Time),471222.5,014_m_m_h_a.png,O,m,1740,10,1,2519.0,468703.5,7802,VNB,C,8
2,prac,1,1.0,2-Back,0.0,z,Thu May 14 2026 10:23:08 GMT-0500 (Central Daylight Time),474072.40000000596,022_y_f_d_a.png,O,None,2005,11,1,2844.4000000059605,471228.0,7802,VNB,C,9
2,prac,1,0.0,2-Back,0.0,m,Thu May 14 2026 10:23:08 GMT-0500 (Central Daylight Time),476886.8000000119,015_o_m_n_a.png,O,z,1931,12,1,2801.5,474085.3000000119,7802,VNB,C,10
0,prac,2,0.0,2-Back,,,Thu May 14 2026 10:23:08 GMT-0500 (Central Daylight Time),476886.8000000119,019_m_f_n_a.png,O,a,7395,1,1,2801.5,474085.3000000119,7802,VNB,C,0
0,prac,2,0.0,2-Back,,,Thu May 14 2026 10:23:08 GMT-0500 (Central Daylight Time),476886.8000000119,012_o_f_h_a.png,O,a,7395,2,1,2801.5,474085.3000000119,7802,VNB,C,0
0,prac,2,0.0,2-Back,0.0,m,Thu May 14 2026 10:23:08 GMT-0500 (Central Daylight Time),492382.5,015_o_m_d_a.png,O,None,2002,3,1,2858.7999999821186,489523.7000000179,7802,VNB,C,1
0,prac,2,1.0,2-Back,0.0,z,Thu May 14 2026 10:23:08 GMT-0500 (Central Daylight Time),495162.60000002384,014_m_m_h_a.png,O,None,2004,4,1,2767.800000011921,492394.8000000119,7802,VNB,C,2
0,prac,2,0.0,2-Back,0.0,m,Thu May 14 2026 10:23:08 GMT-0500 (Central Daylight Time),498015.10000002384,022_y_f_n_a.png,O,None,2011,5,1,2849.5,495165.60000002384,7802,VNB,C,3
0,prac,2,1.0,2-Back,0.0,z,Thu May 14 2026 10:23:08 GMT-0500 (Central Daylight Time),500030.3000000119,015_o_m_h_a.png,O,m,1142,6,1,2001.9000000059605,498028.40000000596,7802,VNB,C,4
0,prac,2,1.0,2-Back,0.0,z,Thu May 14 2026 10:23:08 GMT-0500 (Central Daylight Time),502878.2000000179,025_y_m_n_a.png,O,None,2006,7,1,2843.2000000178814,500035.0,7802,VNB,C,5
0,prac,2,0.0,2-Back,0.0,m,Thu May 14 2026 10:23:08 GMT-0500 (Central Daylight Time),505744.7000000179,019_m_f_d_a.png,O,None,2001,8,1,2858.4000000059605,502886.3000000119,7802,VNB,C,6
1,prac,2,0.0,2-Back,1.0,m,Thu May 14 2026 10:23:08 GMT-0500 (Central Daylight Time),508392.90000000596,012_o_f_d_a.png,O,m,1775,9,1,2640.0999999940395,505752.8000000119,7802,VNB,C,7
2,prac,2,0.0,2-Back,1.0,m,Thu May 14 2026 10:23:08 GMT-0500 (Central Daylight Time),510492.60000002384,014_m_m_h_a.png,O,m,1312,10,1,2088.2000000178814,508404.40000000596,7802,VNB,C,8
3,prac,2,1.0,2-Back,1.0,z,Thu May 14 2026 10:23:08 GMT-0500 (Central Daylight Time),512758.5,022_y_f_d_a.png,O,z,1387,11,1,2254.399999976158,510504.10000002384,7802,VNB,C,9
3,prac,2,0.0,2-Back,0.0,m,Thu May 14 2026 10:23:08 GMT-0500 (Central Daylight Time),515441.10000002384,015_o_m_n_a.png,O,z,1807,12,1,2669.9000000059605,512771.2000000179,7802,VNB,C,10
0,prac,3,0.0,2-Back,,,Thu May 14 2026 10:23:08 GMT-0500 (Central Daylight Time),515441.10000002384,019_m_f_n_a.png,O,a,8492,1,1,2669.9000000059605,512771.2000000179,7802,VNB,C,0
0,prac,3,0.0,2-Back,,,Thu May 14 2026 10:23:08 GMT-0500 (Central Daylight Time),515441.10000002384,012_o_f_h_a.png,O,a,8492,2,1,2669.9000000059605,512771.2000000179,7802,VNB,C,0
1,prac,3,0.0,2-Back,1.0,m,Thu May 14 2026 10:23:08 GMT-0500 (Central Daylight Time),531502.3000000119,015_o_m_d_a.png,O,m,1462,3,1,2325.0,529177.3000000119,7802,VNB,C,1
1,prac,3,1.0,2-Back,0.0,z,Thu May 14 2026 10:23:08 GMT-0500 (Central Daylight Time),533835.900000006,014_m_m_h_a.png,O,m,1537,4,1,2320.0999999940395,531515.8000000119,7802,VNB,C,2
1,prac,3,0.0,2-Back,0.0,m,Thu May 14 2026 10:23:08 GMT-0500 (Central Daylight Time),535950.8000000119,022_y_f_n_a.png,O,z,1239,5,1,2107.5999999940395,533843.2000000179,7802,VNB,C,3
1,prac,3,1.0,2-Back,0.0,z,Thu May 14 2026 10:23:08 GMT-0500 (Central Daylight Time),538318.7000000179,015_o_m_h_a.png,O,m,1477,6,1,2356.4000000059605,535962.3000000119,7802,VNB,C,4
1,prac,3,1.0,2-Back,0.0,z,Thu May 14 2026 10:23:08 GMT-0500 (Central Daylight Time),540299.8000000119,025_y_m_n_a.png,O,m,1152,7,1,1974.800000011921,538325.0,7802,VNB,C,5
1,prac,3,0.0,2-Back,0.0,m,Thu May 14 2026 10:23:08 GMT-0500 (Central Daylight Time),542016.3000000119,019_m_f_d_a.png,O,z,841,8,1,1710.5,540305.8000000119,7802,VNB,C,6
2,prac,3,0.0,2-Back,1.0,m,Thu May 14 2026 10:23:08 GMT-0500 (Central Daylight Time),543665.5,012_o_f_d_a.png,O,m,776,9,1,1641.0,542024.5,7802,VNB,C,7
3,prac,3,0.0,2-Back,1.0,m,Thu May 14 2026 10:23:08 GMT-0500 (Central Daylight Time),545515.8000000119,014_m_m_h_a.png,O,m,1056,10,1,1839.4000000059605,543676.400000006,7802,VNB,C,8
4,prac,3,1.0,2-Back,1.0,z,Thu May 14 2026 10:23:08 GMT-0500 (Central Daylight Time),547781.900000006,022_y_f_d_a.png,O,z,1400,11,1,2261.199999988079,545520.7000000179,7802,VNB,C,9
5,prac,3,0.0,2-Back,1.0,m,Thu May 14 2026 10:23:08 GMT-0500 (Central Daylight Time),550314.2000000179,015_o_m_n_a.png,O,m,1650,12,1,2523.4000000059605,547790.8000000119,7802,VNB,C,10
0,test,1,0.0,2-Back,,,Thu May 14 2026 10:23:08 GMT-0500 (Central Daylight Time),550314.2000000179,025_y_m_h_a.png,O,space,1674,1,1,2523.4000000059605,547790.8000000119,7802,VNB,C,0
0,test,1,0.0,2-Back,,,Thu May 14 2026 10:23:08 GMT-0500 (Central Daylight Time),550314.2000000179,012_o_f_n_a.png,O,space,1674,2,1,2523.4000000059605,547790.8000000119,7802,VNB,C,0
1,test,1,0.0,2-Back,1.0,z,Thu May 14 2026 10:23:08 GMT-0500 (Central Daylight Time),571672.3000000119,015_o_m_h_a.png,O,z,1335,3,1,2363.300000011921,569309.0,7802,VNB,C,1
2,test,1,0.0,2-Back,1.0,m,Thu May 14 2026 10:23:08 GMT-0500 (Central Daylight Time),574038.6000000238,019_m_f_d_a.png,O,m,1349,4,1,2359.5,571679.1000000238,7802,VNB,C,2
2,test,1,1.0,2-Back,0.0,m,Thu May 14 2026 10:23:08 GMT-0500 (Central Daylight Time),576605.5,025_y_m_n_a.png,O,z,1541,5,1,2565.2999999821186,574040.2000000179,7802,VNB,C,3
3,test,1,0.0,2-Back,1.0,z,Thu May 14 2026 10:23:08 GMT-0500 (Central Daylight Time),579552.8000000119,022_y_f_d_a.png,O,z,1920,6,1,2937.199999988079,576615.6000000238,7802,VNB,C,4
4,test,1,0.0,2-Back,1.0,m,Thu May 14 2026 10:23:08 GMT-0500 (Central Daylight Time),582304.1000000238,014_m_m_h_a.png,O,m,1721,7,1,2749.5,579554.6000000238,7802,VNB,C,5
4,test,1,1.0,2-Back,0.0,m,Thu May 14 2026 10:23:08 GMT-0500 (Central Daylight Time),584752.2000000179,022_y_f_n_a.png,O,z,1422,8,1,2440.0,582312.2000000179,7802,VNB,C,6
4,test,1,0.0,2-Back,0.0,z,Thu May 14 2026 10:23:08 GMT-0500 (Central Daylight Time),587184.8000000119,012_o_f_h_a.png,O,m,1403,9,1,2430.300000011921,584754.5,7802,VNB,C,7
5,test,1,0.0,2-Back,1.0,m,Thu May 14 2026 10:23:08 GMT-0500 (Central Daylight Time),589584.0,015_o_m_d_a.png,O,m,1380,10,1,2390.0999999940395,587193.900000006,7802,VNB,C,8
6,test,1,1.0,2-Back,1.0,m,Thu May 14 2026 10:23:08 GMT-0500 (Central Daylight Time),591466.8000000119,014_m_m_d_a.png,O,m,852,11,1,1880.4000000059605,589586.400000006,7802,VNB,C,9
7,test,1,0.0,2-Back,1.0,m,Thu May 14 2026 10:23:08 GMT-0500 (Central Daylight Time),593548.2000000179,019_m_f_n_a.png,O,m,1064,12,1,2074.800000011921,591473.400000006,7802,VNB,C,10
8,test,1,0.0,2-Back,1.0,m,Thu May 14 2026 10:23:08 GMT-0500 (Central Daylight Time),595830.5,022_y_f_h_a.png,O,m,1262,13,1,2280.699999988079,593549.8000000119,7802,VNB,C,11
8,test,1,0.0,2-Back,0.0,z,Thu May 14 2026 10:23:08 GMT-0500 (Central Daylight Time),598248.7000000179,014_m_m_n_a.png,O,m,1390,14,1,2412.0,595836.7000000179,7802,VNB,C,12
9,test,1,0.0,2-Back,1.0,m,Thu May 14 2026 10:23:08 GMT-0500 (Central Daylight Time),601147.8000000119,025_y_m_d_a.png,O,m,1867,15,1,2895.5999999940395,598252.2000000179,7802,VNB,C,13
10,test,1,1.0,2-Back,1.0,m,Thu May 14 2026 10:23:08 GMT-0500 (Central Daylight Time),603179.900000006,019_m_f_h_a.png,O,m,1003,16,1,2022.9000000059605,601157.0,7802,VNB,C,14
10,test,1,0.0,2-Back,0.0,z,Thu May 14 2026 10:23:08 GMT-0500 (Central Daylight Time),605613.3000000119,012_o_f_d_a.png,O,m,1415,17,1,2429.9000000059605,603183.400000006,7802,VNB,C,15
11,test,1,0.0,2-Back,1.0,m,Thu May 14 2026 10:23:08 GMT-0500 (Central Daylight Time),608430.400000006,015_o_m_n_a.png,O,m,1784,18,1,2807.699999988079,605622.7000000179,7802,VNB,C,16
0,test,2,0.0,2-Back,,,Thu May 14 2026 10:23:08 GMT-0500 (Central Daylight Time),608430.400000006,014_m_m_h_a.png,O,space,1342,1,1,2807.699999988079,605622.7000000179,7802,VNB,C,0
0,test,2,0.0,2-Back,,,Thu May 14 2026 10:23:08 GMT-0500 (Central Daylight Time),608430.400000006,022_y_f_n_a.png,O,space,1342,2,1,2807.699999988079,605622.7000000179,7802,VNB,C,0
0,test,2,1.0,2-Back,0.0,z,Thu May 14 2026 10:23:08 GMT-0500 (Central Daylight Time),617260.400000006,012_o_f_h_a.png,O,m,1251,3,1,2282.0999999940395,614978.3000000119,7802,VNB,C,1
0,test,2,0.0,2-Back,0.0,m,Thu May 14 2026 10:23:08 GMT-0500 (Central Daylight Time),619825.3000000119,015_o_m_d_a.png,O,z,1537,4,1,2559.300000011921,617266.0,7802,VNB,C,2
0,test,2,0.0,2-Back,0.0,m,Thu May 14 2026 10:23:08 GMT-0500 (Central Daylight Time),622323.2000000179,019_m_f_d_a.png,O,z,1475,5,1,2494.7000000178814,619828.5,7802,VNB,C,3
1,test,2,0.0,2-Back,1.0,m,Thu May 14 2026 10:23:08 GMT-0500 (Central Daylight Time),624755.900000006,025_y_m_h_a.png,O,m,1399,6,1,2422.7999999821186,622333.1000000238,7802,VNB,C,4
2,test,2,0.0,2-Back,1.0,m,Thu May 14 2026 10:23:08 GMT-0500 (Central Daylight Time),626872.6000000238,012_o_f_n_a.png,O,m,1087,7,1,2111.2000000178814,624761.400000006,7802,VNB,C,5
2,test,2,1.0,2-Back,0.0,z,Thu May 14 2026 10:23:08 GMT-0500 (Central Daylight Time),629387.7000000179,015_o_m_h_a.png,O,m,1468,8,1,2500.0999999940395,626887.6000000238,7802,VNB,C,6
3,test,2,0.0,2-Back,1.0,m,Thu May 14 2026 10:23:08 GMT-0500 (Central Daylight Time),631771.400000006,022_y_f_d_a.png,O,m,1360,9,1,2379.5999999940395,629391.8000000119,7802,VNB,C,7
4,test,2,0.0,2-Back,1.0,m,Thu May 14 2026 10:23:08 GMT-0500 (Central Daylight Time),634336.6000000238,025_y_m_d_a.png,O,m,1545,10,1,2554.2000000178814,631782.400000006,7802,VNB,C,8
5,test,2,0.0,2-Back,1.0,m,Thu May 14 2026 10:23:08 GMT-0500 (Central Daylight Time),637102.7000000179,014_m_m_n_a.png,O,m,1740,11,1,2761.800000011921,634340.900000006,7802,VNB,C,9
6,test,2,0.0,2-Back,1.0,m,Thu May 14 2026 10:23:08 GMT-0500 (Central Daylight Time),639452.1000000238,019_m_f_h_a.png,O,m,1318,12,1,2337.7000000178814,637114.400000006,7802,VNB,C,10
6,test,2,1.0,2-Back,0.0,z,Thu May 14 2026 10:23:08 GMT-0500 (Central Daylight Time),642117.900000006,015_o_m_n_a.png,O,m,1650,13,1,2661.5,639456.400000006,7802,VNB,C,11
7,test,2,0.0,2-Back,1.0,m,Thu May 14 2026 10:23:08 GMT-0500 (Central Daylight Time),644699.5,012_o_f_d_a.png,O,m,1559,14,1,2578.0999999940395,642121.400000006,7802,VNB,C,12
7,test,2,0.0,2-Back,0.0,m,Thu May 14 2026 10:23:08 GMT-0500 (Central Daylight Time),647665.8000000119,022_y_f_h_a.png,O,z,1933,15,1,2964.199999988079,644701.6000000238,7802,VNB,C,13
7,test,2,0.0,2-Back,0.0,z,Thu May 14 2026 10:23:08 GMT-0500 (Central Daylight Time),650064.5,014_m_m_d_a.png,O,m,1369,16,1,2387.199999988079,647677.3000000119,7802,VNB,C,14
7,test,2,0.0,2-Back,0.0,m,Thu May 14 2026 10:23:08 GMT-0500 (Central Daylight Time),653097.1000000238,025_y_m_n_a.png,O,None,2016,17,1,3026.9000000059605,650070.2000000179,7802,VNB,C,15
7,test,2,1.0,2-Back,0.0,m,Thu May 14 2026 10:23:08 GMT-0500 (Central Daylight Time),656131.2000000179,019_m_f_n_a.png,O,None,2017,18,1,3025.7000000178814,653105.5,7802,VNB,C,16
0,test,3,1.0,2-Back,,,Thu May 14 2026 10:23:08 GMT-0500 (Central Daylight Time),656131.2000000179,015_o_m_n_a.png,O,space,1368,1,1,3025.7000000178814,653105.5,7802,VNB,C,0
0,test,3,1.0,2-Back,,,Thu May 14 2026 10:23:08 GMT-0500 (Central Daylight Time),656131.2000000179,012_o_f_d_a.png,O,space,1368,2,1,3025.7000000178814,653105.5,7802,VNB,C,0
1,test,3,0.0,2-Back,1.0,m,Thu May 14 2026 10:23:08 GMT-0500 (Central Daylight Time),664993.7000000179,022_y_f_h_a.png,O,m,1405,3,1,2429.5,662564.2000000179,7802,VNB,C,1
2,test,3,0.0,2-Back,1.0,z,Thu May 14 2026 10:23:08 GMT-0500 (Central Daylight Time),666959.0,019_m_f_d_a.png,O,z,949,4,1,1958.699999988079,665000.3000000119,7802,VNB,C,2
2,test,3,1.0,2-Back,0.0,m,Thu May 14 2026 10:23:08 GMT-0500 (Central Daylight Time),669424.3000000119,025_y_m_n_a.png,O,z,1444,5,1,2461.800000011921,666962.5,7802,VNB,C,3
3,test,3,0.0,2-Back,1.0,m,Thu May 14 2026 10:23:08 GMT-0500 (Central Daylight Time),671808.400000006,015_o_m_h_a.png,O,m,1353,6,1,2378.4000000059605,669430.0,7802,VNB,C,4
3,test,3,0.0,2-Back,0.0,z,Thu May 14 2026 10:23:08 GMT-0500 (Central Daylight Time),674157.8000000119,022_y_f_n_a.png,O,m,1317,7,1,2346.5999999940395,671811.2000000179,7802,VNB,C,5
3,test,3,1.0,2-Back,0.0,m,Thu May 14 2026 10:23:08 GMT-0500 (Central Daylight Time),677190.6000000238,014_m_m_d_a.png,O,None,2015,8,1,3024.4000000059605,674166.2000000179,7802,VNB,C,6
4,test,3,0.0,2-Back,1.0,m,Thu May 14 2026 10:23:08 GMT-0500 (Central Daylight Time),680138.2000000179,025_y_m_d_a.png,O,m,1925,9,1,2942.9000000059605,677195.3000000119,7802,VNB,C,7
4,test,3,0.0,2-Back,0.0,m,Thu May 14 2026 10:23:08 GMT-0500 (Central Daylight Time),683172.900000006,012_o_f_h_a.png,O,None,2017,10,1,3027.2999999821186,680145.6000000238,7802,VNB,C,8
4,test,3,1.0,2-Back,0.0,m,Thu May 14 2026 10:23:08 GMT-0500 (Central Daylight Time),685287.7000000179,019_m_f_n_a.png,O,z,1088,11,1,2111.7000000178814,683176.0,7802,VNB,C,9
4,test,3,1.0,2-Back,0.0,z,Thu May 14 2026 10:23:08 GMT-0500 (Central Daylight Time),687271.3000000119,014_m_m_h_a.png,O,m,968,12,1,1978.199999988079,685293.1000000238,7802,VNB,C,10
5,test,3,0.0,2-Back,1.0,m,Thu May 14 2026 10:23:08 GMT-0500 (Central Daylight Time),689269.900000006,022_y_f_d_a.png,O,m,983,13,1,1995.199999988079,687274.7000000179,7802,VNB,C,11
6,test,3,0.0,2-Back,1.0,m,Thu May 14 2026 10:23:08 GMT-0500 (Central Daylight Time),691568.1000000238,012_o_f_n_a.png,O,m,1270,14,1,2288.2000000178814,689279.900000006,7802,VNB,C,12
7,test,3,0.0,2-Back,1.0,z,Thu May 14 2026 10:23:08 GMT-0500 (Central Daylight Time),693751.8000000119,015_o_m_d_a.png,O,z,1167,15,1,2180.300000011921,691571.5,7802,VNB,C,13
8,test,3,1.0,2-Back,1.0,m,Thu May 14 2026 10:23:08 GMT-0500 (Central Daylight Time),696567.400000006,019_m_f_h_a.png,O,m,1796,16,1,2808.9000000059605,693758.5,7802,VNB,C,14
9,test,3,0.0,2-Back,1.0,m,Thu May 14 2026 10:23:08 GMT-0500 (Central Daylight Time),699216.2000000179,014_m_m_n_a.png,O,m,1629,17,1,2646.9000000059605,696569.3000000119,7802,VNB,C,15
9,test,3,0.0,2-Back,0.0,z,Thu May 14 2026 10:23:08 GMT-0500 (Central Daylight Time),701965.8000000119,025_y_m_h_a.png,O,m,1716,18,1,2745.9000000059605,699219.900000006,7802,VNB,C,16
0,test,4,0.0,2-Back,,,Thu May 14 2026 10:23:08 GMT-0500 (Central Daylight Time),701965.8000000119,019_m_f_n_a.png,O,space,1599,1,1,2745.9000000059605,699219.900000006,7802,VNB,C,0
0,test,4,0.0,2-Back,,,Thu May 14 2026 10:23:08 GMT-0500 (Central Daylight Time),701965.8000000119,015_o_m_n_a.png,O,space,1599,2,1,2745.9000000059605,699219.900000006,7802,VNB,C,0
1,test,4,1.0,2-Back,1.0,m,Thu May 14 2026 10:23:08 GMT-0500 (Central Daylight Time),710913.5,025_y_m_h_a.png,O,m,1113,3,1,2131.5,708782.0,7802,VNB,C,1
2,test,4,1.0,2-Back,1.0,m,Thu May 14 2026 10:23:08 GMT-0500 (Central Daylight Time),713011.6000000238,012_o_f_d_a.png,O,m,1078,4,1,2088.9000000059605,710922.7000000179,7802,VNB,C,2
3,test,4,0.0,2-Back,1.0,z,Thu May 14 2026 10:23:08 GMT-0500 (Central Daylight Time),714994.3000000119,015_o_m_h_a.png,O,z,951,5,1,1978.9000000059605,713015.400000006,7802,VNB,C,3
4,test,4,0.0,2-Back,1.0,m,Thu May 14 2026 10:23:08 GMT-0500 (Central Daylight Time),717143.3000000119,014_m_m_n_a.png,O,m,1131,6,1,2139.0999999940395,715004.2000000179,7802,VNB,C,4
4,test,4,0.0,2-Back,0.0,m,Thu May 14 2026 10:23:08 GMT-0500 (Central Daylight Time),719459.900000006,019_m_f_d_a.png,O,z,1284,7,1,2312.4000000059605,717147.5,7802,VNB,C,5
4,test,4,0.0,2-Back,0.0,z,Thu May 14 2026 10:23:08 GMT-0500 (Central Daylight Time),721660.5,022_y_f_n_a.png,O,m,1167,8,1,2191.5,719469.0,7802,VNB,C,6
5,test,4,1.0,2-Back,1.0,m,Thu May 14 2026 10:23:08 GMT-0500 (Central Daylight Time),723789.8000000119,012_o_f_h_a.png,O,m,1105,9,1,2125.4000000059605,721664.400000006,7802,VNB,C,7
6,test,4,0.0,2-Back,1.0,m,Thu May 14 2026 10:23:08 GMT-0500 (Central Daylight Time),725839.8000000119,014_m_m_h_a.png,O,m,1029,10,1,2045.4000000059605,723794.400000006,7802,VNB,C,8
7,test,4,0.0,2-Back,1.0,m,Thu May 14 2026 10:23:08 GMT-0500 (Central Daylight Time),727706.1000000238,022_y_f_d_a.png,O,m,842,11,1,1864.2000000178814,725841.900000006,7802,VNB,C,9
8,test,4,0.0,2-Back,1.0,m,Thu May 14 2026 10:23:08 GMT-0500 (Central Daylight Time),729639.1000000238,025_y_m_n_a.png,O,m,906,12,1,1929.800000011921,727709.3000000119,7802,VNB,C,10
8,test,4,0.0,2-Back,0.0,z,Thu May 14 2026 10:23:08 GMT-0500 (Central Daylight Time),731788.5,015_o_m_d_a.png,O,m,1124,13,1,2145.5,729643.0,7802,VNB,C,11
9,test,4,1.0,2-Back,1.0,m,Thu May 14 2026 10:23:08 GMT-0500 (Central Daylight Time),733588.3000000119,019_m_f_h_a.png,O,m,775,14,1,1791.199999988079,731797.1000000238,7802,VNB,C,12
10,test,4,1.0,2-Back,1.0,m,Thu May 14 2026 10:23:08 GMT-0500 (Central Daylight Time),735971.0,022_y_f_h_a.png,O,m,1360,15,1,2379.399999976158,733591.6000000238,7802,VNB,C,13
11,test,4,0.0,2-Back,1.0,m,Thu May 14 2026 10:23:08 GMT-0500 (Central Daylight Time),737870.400000006,012_o_f_n_a.png,O,m,881,16,1,1892.0,735978.400000006,7802,VNB,C,14
12,test,4,0.0,2-Back,1.0,m,Thu May 14 2026 10:23:08 GMT-0500 (Central Daylight Time),739870.6000000238,025_y_m_d_a.png,O,m,974,17,1,1997.800000011921,737872.8000000119,7802,VNB,C,15
13,test,4,1.0,2-Back,1.0,m,Thu May 14 2026 10:23:08 GMT-0500 (Central Daylight Time),742103.1000000238,014_m_m_d_a.png,O,m,1217,18,1,2226.600000023842,739876.5,7802,VNB,C,16
0,test,5,1.0,2-Back,,,Thu May 14 2026 10:23:08 GMT-0500 (Central Daylight Time),742103.1000000238,022_y_f_d_a.png,O,space,1253,1,1,2226.600000023842,739876.5,7802,VNB,C,0
0,test,5,1.0,2-Back,,,Thu May 14 2026 10:23:08 GMT-0500 (Central Daylight Time),742103.1000000238,012_o_f_h_a.png,O,space,1253,2,1,2226.600000023842,739876.5,7802,VNB,C,0
1,test,5,1.0,2-Back,1.0,z,Thu May 14 2026 10:23:08 GMT-0500 (Central Daylight Time),751551.400000006,015_o_m_d_a.png,O,z,1933,3,1,2962.5,748588.900000006,7802,VNB,C,1
2,test,5,1.0,2-Back,1.0,m,Thu May 14 2026 10:23:08 GMT-0500 (Central Daylight Time),753614.2000000179,019_m_f_n_a.png,O,m,1036,4,1,2052.5999999940395,751561.6000000238,7802,VNB,C,2
2,test,5,0.0,2-Back,0.0,m,Thu May 14 2026 10:23:08 GMT-0500 (Central Daylight Time),756116.0,014_m_m_h_a.png,O,z,1469,5,1,2499.699999988079,753616.3000000119,7802,VNB,C,3
2,test,5,0.0,2-Back,0.0,z,Thu May 14 2026 10:23:08 GMT-0500 (Central Daylight Time),758380.7000000179,022_y_f_n_a.png,O,m,1235,6,1,2256.2000000178814,756124.5,7802,VNB,C,4
3,test,5,0.0,2-Back,1.0,m,Thu May 14 2026 10:23:08 GMT-0500 (Central Daylight Time),760397.8000000119,012_o_f_d_a.png,O,m,991,7,1,2013.9000000059605,758383.900000006,7802,VNB,C,5
4,test,5,0.0,2-Back,1.0,m,Thu May 14 2026 10:23:08 GMT-0500 (Central Daylight Time),762795.3000000119,015_o_m_h_a.png,O,m,1366,8,1,2387.0999999940395,760408.2000000179,7802,VNB,C,6
5,test,5,1.0,2-Back,1.0,z,Thu May 14 2026 10:23:08 GMT-0500 (Central Daylight Time),764627.900000006,019_m_f_d_a.png,O,z,798,9,1,1828.4000000059605,762799.5,7802,VNB,C,7
5,test,5,0.0,2-Back,0.0,m,Thu May 14 2026 10:23:08 GMT-0500 (Central Daylight Time),766878.7000000179,025_y_m_n_a.png,O,z,1232,10,1,2241.300000011921,764637.400000006,7802,VNB,C,8
6,test,5,0.0,2-Back,1.0,m,Thu May 14 2026 10:23:08 GMT-0500 (Central Daylight Time),769444.400000006,014_m_m_n_a.png,O,m,1541,11,1,2562.0,766882.400000006,7802,VNB,C,9
7,test,5,0.0,2-Back,1.0,m,Thu May 14 2026 10:23:08 GMT-0500 (Central Daylight Time),772276.8000000119,022_y_f_h_a.png,O,m,1816,12,1,2824.9000000059605,769451.900000006,7802,VNB,C,10
8,test,5,0.0,2-Back,1.0,m,Thu May 14 2026 10:23:08 GMT-0500 (Central Daylight Time),775224.900000006,025_y_m_d_a.png,O,m,1927,13,1,2944.5999999940395,772280.3000000119,7802,VNB,C,11
8,test,5,1.0,2-Back,0.0,z,Thu May 14 2026 10:23:08 GMT-0500 (Central Daylight Time),777458.3000000119,019_m_f_h_a.png,O,m,1210,14,1,2227.699999988079,775230.6000000238,7802,VNB,C,12
9,test,5,0.0,2-Back,1.0,m,Thu May 14 2026 10:23:08 GMT-0500 (Central Daylight Time),780390.0,015_o_m_n_a.png,O,m,1907,15,1,2928.7999999821186,777461.2000000179,7802,VNB,C,13
10,test,5,0.0,2-Back,1.0,m,Thu May 14 2026 10:23:08 GMT-0500 (Central Daylight Time),782489.0,014_m_m_d_a.png,O,m,1077,16,1,2088.899999976158,780400.1000000238,7802,VNB,C,14
10,test,5,0.0,2-Back,0.0,z,Thu May 14 2026 10:23:08 GMT-0500 (Central Daylight Time),784722.5,012_o_f_n_a.png,O,m,1211,17,1,2231.5,782491.0,7802,VNB,C,15
11,test,5,1.0,2-Back,1.0,m,Thu May 14 2026 10:23:08 GMT-0500 (Central Daylight Time),787237.1000000238,025_y_m_h_a.png,O,m,1489,18,1,2506.5,784730.6000000238,7802,VNB,C,16
