acc_sum,block,block_c,change,condition,correct,correct_response,datetime,endtime,face,project,response,response_time,row_sel,session_number,start_end,starttime,subject_id,task,task_vers,trial
0,prac,1,,1-Back,,,Tue Feb 03 2026 09:27:47 GMT-0600 (Central Standard Time),,097_m_f_n_a.png,O,space,4900,1,1,,,7736,NNB,B,0
0,prac,1,0.0,1-Back,0.0,m,Tue Feb 03 2026 09:27:47 GMT-0600 (Central Standard Time),147245.09999990463,152_y_f_n_a.png,O,z,1086,2,1,1937.4000000953674,145307.69999980927,7736,NNB,B,1
0,prac,1,1.0,1-Back,0.0,z,Tue Feb 03 2026 09:27:47 GMT-0600 (Central Standard Time),150028.59999990463,152_y_f_n_a.png,O,None,2008,3,1,2775.0,147253.59999990463,7736,NNB,B,2
0,prac,1,0.0,1-Back,0.0,m,Tue Feb 03 2026 09:27:47 GMT-0600 (Central Standard Time),152861.7999997139,176_o_m_n_a.png,O,None,2001,4,1,2823.0999999046326,150038.69999980927,7736,NNB,B,3
1,prac,1,0.0,1-Back,1.0,m,Tue Feb 03 2026 09:27:47 GMT-0600 (Central Standard Time),154559.19999980927,126_m_m_n_a.png,O,m,907,5,1,1688.5999999046326,152870.59999990463,7736,NNB,B,4
2,prac,1,1.0,1-Back,1.0,z,Tue Feb 03 2026 09:27:47 GMT-0600 (Central Standard Time),156359.19999980927,126_m_m_n_a.png,O,z,1019,6,1,1791.8000001907349,154567.39999961853,7736,NNB,B,5
3,prac,1,0.0,1-Back,1.0,m,Tue Feb 03 2026 09:27:47 GMT-0600 (Central Standard Time),158726.7999997139,086_o_f_n_a.png,O,m,1592,7,1,2357.7999997138977,156369.0,7736,NNB,B,6
4,prac,1,0.0,1-Back,1.0,m,Tue Feb 03 2026 09:27:47 GMT-0600 (Central Standard Time),160641.59999990463,178_m_m_n_a.png,O,m,1071,8,1,1906.8000001907349,158734.7999997139,7736,NNB,B,7
5,prac,1,0.0,1-Back,1.0,m,Tue Feb 03 2026 09:27:47 GMT-0600 (Central Standard Time),162123.2999997139,097_m_f_n_a.png,O,m,702,9,1,1472.5999999046326,160650.69999980927,7736,NNB,B,8
6,prac,1,1.0,1-Back,1.0,z,Tue Feb 03 2026 09:27:47 GMT-0600 (Central Standard Time),163506.5,097_m_f_n_a.png,O,z,598,10,1,1376.1000003814697,162130.39999961853,7736,NNB,B,9
7,prac,1,0.0,1-Back,1.0,m,Tue Feb 03 2026 09:27:47 GMT-0600 (Central Standard Time),165356.0,176_o_m_n_a.png,O,m,1070,11,1,1840.8000001907349,163515.19999980927,7736,NNB,B,10
8,prac,1,0.0,1-Back,1.0,m,Tue Feb 03 2026 09:27:47 GMT-0600 (Central Standard Time),166972.19999980927,173_y_f_n_a.png,O,m,755,12,1,1604.3000001907349,165367.89999961853,7736,NNB,B,11
0,test,1,0.0,1-Back,,,Tue Feb 03 2026 09:27:47 GMT-0600 (Central Standard Time),166972.19999980927,152_y_f_n_a.png,O,space,9197,1,1,1604.3000001907349,165367.89999961853,7736,NNB,B,0
1,test,1,0.0,1-Back,1.0,m,Tue Feb 03 2026 09:27:47 GMT-0600 (Central Standard Time),187598.39999961853,029_m_f_n_a.png,O,m,1610,2,1,2624.5999999046326,184973.7999997139,7736,NNB,B,1
2,test,1,0.0,1-Back,1.0,m,Tue Feb 03 2026 09:27:47 GMT-0600 (Central Standard Time),189548.69999980927,173_y_f_n_a.png,O,m,929,3,1,1946.0,187602.69999980927,7736,NNB,B,2
3,test,1,1.0,1-Back,1.0,z,Tue Feb 03 2026 09:27:47 GMT-0600 (Central Standard Time),191397.5,173_y_f_n_a.png,O,z,820,4,1,1841.8000001907349,189555.69999980927,7736,NNB,B,3
4,test,1,0.0,1-Back,1.0,m,Tue Feb 03 2026 09:27:47 GMT-0600 (Central Standard Time),193396.7999997139,029_m_f_n_a.png,O,m,971,5,1,1994.0999999046326,191402.69999980927,7736,NNB,B,4
5,test,1,0.0,1-Back,1.0,m,Tue Feb 03 2026 09:27:47 GMT-0600 (Central Standard Time),195113.2999997139,176_o_m_n_a.png,O,m,684,6,1,1709.5,193403.7999997139,7736,NNB,B,5
6,test,1,1.0,1-Back,1.0,z,Tue Feb 03 2026 09:27:47 GMT-0600 (Central Standard Time),196896.19999980927,176_o_m_n_a.png,O,z,750,7,1,1776.4000000953674,195119.7999997139,7736,NNB,B,6
7,test,1,0.0,1-Back,1.0,m,Tue Feb 03 2026 09:27:47 GMT-0600 (Central Standard Time),198828.09999990463,126_m_m_n_a.png,O,m,913,8,1,1925.9000000953674,196902.19999980927,7736,NNB,B,7
8,test,1,0.0,1-Back,1.0,m,Tue Feb 03 2026 09:27:47 GMT-0600 (Central Standard Time),200762.2999997139,086_o_f_n_a.png,O,m,908,9,1,1930.5,198831.7999997139,7736,NNB,B,8
9,test,1,0.0,1-Back,1.0,m,Tue Feb 03 2026 09:27:47 GMT-0600 (Central Standard Time),202710.59999990463,126_m_m_n_a.png,O,m,928,10,1,1944.9000000953674,200765.69999980927,7736,NNB,B,9
10,test,1,0.0,1-Back,1.0,m,Tue Feb 03 2026 09:27:47 GMT-0600 (Central Standard Time),204410.39999961853,153_y_m_n_a.png,O,m,674,11,1,1695.5,202714.89999961853,7736,NNB,B,10
11,test,1,1.0,1-Back,1.0,z,Tue Feb 03 2026 09:27:47 GMT-0600 (Central Standard Time),206210.0,153_y_m_n_a.png,O,z,776,12,1,1794.0,204416.0,7736,NNB,B,11
12,test,1,0.0,1-Back,1.0,m,Tue Feb 03 2026 09:27:47 GMT-0600 (Central Standard Time),208042.0,110_o_f_n_a.png,O,m,810,13,1,1825.7000002861023,206216.2999997139,7736,NNB,B,12
13,test,1,1.0,1-Back,1.0,z,Tue Feb 03 2026 09:27:47 GMT-0600 (Central Standard Time),209691.7999997139,110_o_f_n_a.png,O,z,621,14,1,1644.9000000953674,208046.89999961853,7736,NNB,B,13
14,test,1,0.0,1-Back,1.0,m,Tue Feb 03 2026 09:27:47 GMT-0600 (Central Standard Time),211624.5,013_y_m_n_a.png,O,m,900,15,1,1927.8000001907349,209696.69999980927,7736,NNB,B,14
15,test,1,0.0,1-Back,1.0,m,Tue Feb 03 2026 09:27:47 GMT-0600 (Central Standard Time),213458.69999980927,097_m_f_n_a.png,O,m,816,16,1,1830.3000001907349,211628.39999961853,7736,NNB,B,15
16,test,1,0.0,1-Back,1.0,m,Tue Feb 03 2026 09:27:47 GMT-0600 (Central Standard Time),215173.2999997139,065_o_m_n_a.png,O,m,689,17,1,1708.9000000953674,213464.39999961853,7736,NNB,B,16
17,test,1,0.0,1-Back,1.0,m,Tue Feb 03 2026 09:27:47 GMT-0600 (Central Standard Time),216755.69999980927,097_m_f_n_a.png,O,m,564,18,1,1577.1999998092651,215178.5,7736,NNB,B,17
0,test,2,0.0,1-Back,,,Tue Feb 03 2026 09:27:47 GMT-0600 (Central Standard Time),216755.69999980927,126_m_m_n_a.png,O,space,3405,1,1,1577.1999998092651,215178.5,7736,NNB,B,0
1,test,2,0.0,1-Back,1.0,m,Tue Feb 03 2026 09:27:47 GMT-0600 (Central Standard Time),223837.69999980927,029_m_f_n_a.png,O,m,622,2,1,1642.0999999046326,222195.59999990463,7736,NNB,B,1
2,test,2,1.0,1-Back,1.0,z,Tue Feb 03 2026 09:27:47 GMT-0600 (Central Standard Time),225452.89999961853,029_m_f_n_a.png,O,z,593,3,1,1609.5,223843.39999961853,7736,NNB,B,2
3,test,2,0.0,1-Back,1.0,m,Tue Feb 03 2026 09:27:47 GMT-0600 (Central Standard Time),227187.09999990463,126_m_m_n_a.png,O,m,716,4,1,1727.8000001907349,225459.2999997139,7736,NNB,B,3
4,test,2,0.0,1-Back,1.0,m,Tue Feb 03 2026 09:27:47 GMT-0600 (Central Standard Time),228887.2999997139,153_y_m_n_a.png,O,m,669,5,1,1691.5999999046326,227195.69999980927,7736,NNB,B,4
5,test,2,0.0,1-Back,1.0,m,Tue Feb 03 2026 09:27:47 GMT-0600 (Central Standard Time),230518.39999961853,152_y_f_n_a.png,O,m,602,6,1,1626.6999998092651,228891.69999980927,7736,NNB,B,5
6,test,2,1.0,1-Back,1.0,z,Tue Feb 03 2026 09:27:47 GMT-0600 (Central Standard Time),232218.09999990463,152_y_f_n_a.png,O,z,683,7,1,1694.9000000953674,230523.19999980927,7736,NNB,B,6
7,test,2,0.0,1-Back,1.0,m,Tue Feb 03 2026 09:27:47 GMT-0600 (Central Standard Time),234050.59999990463,153_y_m_n_a.png,O,m,803,8,1,1825.3000001907349,232225.2999997139,7736,NNB,B,7
8,test,2,0.0,1-Back,1.0,m,Tue Feb 03 2026 09:27:47 GMT-0600 (Central Standard Time),235934.59999990463,110_o_f_n_a.png,O,m,862,9,1,1880.3000001907349,234054.2999997139,7736,NNB,B,8
9,test,2,0.0,1-Back,1.0,m,Tue Feb 03 2026 09:27:47 GMT-0600 (Central Standard Time),237550.2999997139,178_m_m_n_a.png,O,m,589,10,1,1608.7999997138977,235941.5,7736,NNB,B,9
9,test,2,1.0,1-Back,0.0,z,Tue Feb 03 2026 09:27:47 GMT-0600 (Central Standard Time),239283.0,178_m_m_n_a.png,O,m,707,11,1,1725.1000003814697,237557.89999961853,7736,NNB,B,10
10,test,2,0.0,1-Back,1.0,m,Tue Feb 03 2026 09:27:47 GMT-0600 (Central Standard Time),240999.09999990463,110_o_f_n_a.png,O,m,691,12,1,1709.9000000953674,239289.19999980927,7736,NNB,B,11
11,test,2,0.0,1-Back,1.0,m,Tue Feb 03 2026 09:27:47 GMT-0600 (Central Standard Time),242780.5,086_o_f_n_a.png,O,m,753,13,1,1775.4000000953674,241005.09999990463,7736,NNB,B,12
12,test,2,0.0,1-Back,1.0,m,Tue Feb 03 2026 09:27:47 GMT-0600 (Central Standard Time),244314.7999997139,176_o_m_n_a.png,O,m,514,14,1,1527.9000000953674,242786.89999961853,7736,NNB,B,13
13,test,2,0.0,1-Back,1.0,m,Tue Feb 03 2026 09:27:47 GMT-0600 (Central Standard Time),245932.69999980927,065_o_m_n_a.png,O,m,601,15,1,1612.5,244320.19999980927,7736,NNB,B,14
14,test,2,1.0,1-Back,1.0,z,Tue Feb 03 2026 09:27:47 GMT-0600 (Central Standard Time),247579.19999980927,065_o_m_n_a.png,O,z,616,16,1,1639.8000001907349,245939.39999961853,7736,NNB,B,15
15,test,2,0.0,1-Back,1.0,m,Tue Feb 03 2026 09:27:47 GMT-0600 (Central Standard Time),249295.89999961853,013_y_m_n_a.png,O,m,683,17,1,1708.5999999046326,247587.2999997139,7736,NNB,B,16
15,test,2,1.0,1-Back,0.0,z,Tue Feb 03 2026 09:27:47 GMT-0600 (Central Standard Time),251094.5,013_y_m_n_a.png,O,m,768,18,1,1795.5,249299.0,7736,NNB,B,17
0,test,3,1.0,1-Back,,,Tue Feb 03 2026 09:27:47 GMT-0600 (Central Standard Time),251094.5,173_y_f_n_a.png,O,space,2938,1,1,1795.5,249299.0,7736,NNB,B,0
1,test,3,0.0,1-Back,1.0,m,Tue Feb 03 2026 09:27:47 GMT-0600 (Central Standard Time),257809.5,065_o_m_n_a.png,O,m,666,1,1,1676.8000001907349,256132.69999980927,7736,NNB,B,1
2,test,3,1.0,1-Back,1.0,z,Tue Feb 03 2026 09:27:47 GMT-0600 (Central Standard Time),259659.5,065_o_m_n_a.png,O,z,825,1,1,1847.1000003814697,257812.39999961853,7736,NNB,B,2
3,test,3,0.0,1-Back,1.0,m,Tue Feb 03 2026 09:27:47 GMT-0600 (Central Standard Time),261276.09999990463,097_m_f_n_a.png,O,m,592,1,1,1611.0999999046326,259665.0,7736,NNB,B,3
4,test,3,1.0,1-Back,1.0,z,Tue Feb 03 2026 09:27:47 GMT-0600 (Central Standard Time),262792.59999990463,097_m_f_n_a.png,O,z,492,1,1,1508.2000002861023,261284.39999961853,7736,NNB,B,4
5,test,3,0.0,1-Back,1.0,m,Tue Feb 03 2026 09:27:47 GMT-0600 (Central Standard Time),264541.19999980927,110_o_f_n_a.png,O,m,721,1,1,1745.8000001907349,262795.39999961853,7736,NNB,B,5
6,test,3,0.0,1-Back,1.0,m,Tue Feb 03 2026 09:27:47 GMT-0600 (Central Standard Time),266141.7999997139,153_y_m_n_a.png,O,m,580,1,1,1595.6999998092651,264546.09999990463,7736,NNB,B,6
7,test,3,0.0,1-Back,1.0,m,Tue Feb 03 2026 09:27:47 GMT-0600 (Central Standard Time),267671.89999961853,110_o_f_n_a.png,O,m,499,1,1,1523.2999997138977,266148.59999990463,7736,NNB,B,7
8,test,3,0.0,1-Back,1.0,m,Tue Feb 03 2026 09:27:47 GMT-0600 (Central Standard Time),269355.39999961853,013_y_m_n_a.png,O,m,663,1,1,1677.8999996185303,267677.5,7736,NNB,B,8
9,test,3,1.0,1-Back,1.0,z,Tue Feb 03 2026 09:27:47 GMT-0600 (Central Standard Time),270955.69999980927,013_y_m_n_a.png,O,z,573,1,1,1593.5,269362.19999980927,7736,NNB,B,9
10,test,3,0.0,1-Back,1.0,m,Tue Feb 03 2026 09:27:47 GMT-0600 (Central Standard Time),272572.2999997139,029_m_f_n_a.png,O,m,598,1,1,1610.9000000953674,270961.39999961853,7736,NNB,B,10
11,test,3,0.0,1-Back,1.0,m,Tue Feb 03 2026 09:27:47 GMT-0600 (Central Standard Time),274371.0,152_y_f_n_a.png,O,m,765,1,1,1792.5,272578.5,7736,NNB,B,11
12,test,3,1.0,1-Back,1.0,z,Tue Feb 03 2026 09:27:47 GMT-0600 (Central Standard Time),276020.89999961853,152_y_f_n_a.png,O,z,614,1,1,1643.7999997138977,274377.09999990463,7736,NNB,B,12
13,test,3,0.0,1-Back,1.0,m,Tue Feb 03 2026 09:27:47 GMT-0600 (Central Standard Time),277670.59999990463,029_m_f_n_a.png,O,m,629,1,1,1641.2000002861023,276029.39999961853,7736,NNB,B,13
14,test,3,0.0,1-Back,1.0,m,Tue Feb 03 2026 09:27:47 GMT-0600 (Central Standard Time),279252.7999997139,126_m_m_n_a.png,O,m,553,1,1,1574.5999999046326,277678.19999980927,7736,NNB,B,14
15,test,3,1.0,1-Back,1.0,z,Tue Feb 03 2026 09:27:47 GMT-0600 (Central Standard Time),280753.5,126_m_m_n_a.png,O,z,467,1,1,1492.4000000953674,279261.09999990463,7736,NNB,B,15
16,test,3,0.0,1-Back,1.0,m,Tue Feb 03 2026 09:27:47 GMT-0600 (Central Standard Time),282351.19999980927,086_o_f_n_a.png,O,m,568,1,1,1590.4000000953674,280760.7999997139,7736,NNB,B,16
17,test,3,1.0,1-Back,1.0,z,Tue Feb 03 2026 09:27:47 GMT-0600 (Central Standard Time),284020.59999990463,086_o_f_n_a.png,O,z,641,1,1,1664.9000000953674,282355.69999980927,7736,NNB,B,17
0,test,4,1.0,1-Back,,,Tue Feb 03 2026 09:27:47 GMT-0600 (Central Standard Time),284020.59999990463,097_m_f_n_a.png,O,space,3029,1,1,1664.9000000953674,282355.69999980927,7736,NNB,B,0
1,test,4,0.0,1-Back,1.0,m,Tue Feb 03 2026 09:27:47 GMT-0600 (Central Standard Time),291282.19999980927,065_o_m_n_a.png,O,m,1116,2,1,2146.0,289136.19999980927,7736,NNB,B,1
2,test,4,0.0,1-Back,1.0,m,Tue Feb 03 2026 09:27:47 GMT-0600 (Central Standard Time),293797.69999980927,097_m_f_n_a.png,O,m,1493,3,1,2510.199999809265,291287.5,7736,NNB,B,2
3,test,4,0.0,1-Back,1.0,m,Tue Feb 03 2026 09:27:47 GMT-0600 (Central Standard Time),295514.59999990463,110_o_f_n_a.png,O,m,690,4,1,1711.0999999046326,293803.5,7736,NNB,B,3
4,test,4,1.0,1-Back,1.0,z,Tue Feb 03 2026 09:27:47 GMT-0600 (Central Standard Time),297280.59999990463,110_o_f_n_a.png,O,z,735,5,1,1763.2000002861023,295517.39999961853,7736,NNB,B,4
5,test,4,0.0,1-Back,1.0,m,Tue Feb 03 2026 09:27:47 GMT-0600 (Central Standard Time),299112.69999980927,152_y_f_n_a.png,O,m,808,6,1,1825.5999999046326,297287.09999990463,7736,NNB,B,5
6,test,4,0.0,1-Back,1.0,m,Tue Feb 03 2026 09:27:47 GMT-0600 (Central Standard Time),300763.69999980927,153_y_m_n_a.png,O,m,634,7,1,1645.9000000953674,299117.7999997139,7736,NNB,B,6
7,test,4,1.0,1-Back,1.0,z,Tue Feb 03 2026 09:27:47 GMT-0600 (Central Standard Time),302361.19999980927,153_y_m_n_a.png,O,z,580,8,1,1592.9000000953674,300768.2999997139,7736,NNB,B,7
8,test,4,0.0,1-Back,1.0,m,Tue Feb 03 2026 09:27:47 GMT-0600 (Central Standard Time),304011.0,152_y_f_n_a.png,O,m,627,9,1,1647.2000002861023,302363.7999997139,7736,NNB,B,8
9,test,4,0.0,1-Back,1.0,m,Tue Feb 03 2026 09:27:47 GMT-0600 (Central Standard Time),305594.69999980927,178_m_m_n_a.png,O,m,552,10,1,1579.0999999046326,304015.59999990463,7736,NNB,B,9
10,test,4,1.0,1-Back,1.0,z,Tue Feb 03 2026 09:27:47 GMT-0600 (Central Standard Time),307293.59999990463,178_m_m_n_a.png,O,z,670,11,1,1693.9000000953674,305599.69999980927,7736,NNB,B,10
11,test,4,0.0,1-Back,1.0,m,Tue Feb 03 2026 09:27:47 GMT-0600 (Central Standard Time),309010.7999997139,086_o_f_n_a.png,O,m,683,12,1,1707.5,307303.2999997139,7736,NNB,B,11
12,test,4,0.0,1-Back,1.0,m,Tue Feb 03 2026 09:27:47 GMT-0600 (Central Standard Time),310645.39999961853,176_o_m_n_a.png,O,m,604,13,1,1628.0,309017.39999961853,7736,NNB,B,12
13,test,4,0.0,1-Back,1.0,m,Tue Feb 03 2026 09:27:47 GMT-0600 (Central Standard Time),312363.39999961853,086_o_f_n_a.png,O,m,693,14,1,1711.7999997138977,310651.59999990463,7736,NNB,B,13
14,test,4,0.0,1-Back,1.0,m,Tue Feb 03 2026 09:27:47 GMT-0600 (Central Standard Time),313991.69999980927,173_y_f_n_a.png,O,m,611,15,1,1620.0,312371.69999980927,7736,NNB,B,14
15,test,4,1.0,1-Back,1.0,z,Tue Feb 03 2026 09:27:47 GMT-0600 (Central Standard Time),315459.09999990463,173_y_f_n_a.png,O,z,440,16,1,1461.8000001907349,313997.2999997139,7736,NNB,B,15
16,test,4,0.0,1-Back,1.0,m,Tue Feb 03 2026 09:27:47 GMT-0600 (Central Standard Time),317058.39999961853,029_m_f_n_a.png,O,m,583,17,1,1593.1999998092651,315465.19999980927,7736,NNB,B,16
17,test,4,1.0,1-Back,1.0,z,Tue Feb 03 2026 09:27:47 GMT-0600 (Central Standard Time),318707.2999997139,029_m_f_n_a.png,O,z,622,18,1,1644.0,317063.2999997139,7736,NNB,B,17
0,test,5,1.0,1-Back,,,Tue Feb 03 2026 09:27:47 GMT-0600 (Central Standard Time),318707.2999997139,176_o_m_n_a.png,O,space,1958,1,1,1644.0,317063.2999997139,7736,NNB,B,0
1,test,5,1.0,1-Back,1.0,z,Tue Feb 03 2026 09:27:47 GMT-0600 (Central Standard Time),324492.69999980927,176_o_m_n_a.png,O,z,798,2,1,1811.4000000953674,322681.2999997139,7736,NNB,B,1
2,test,5,0.0,1-Back,1.0,m,Tue Feb 03 2026 09:27:47 GMT-0600 (Central Standard Time),326154.2999997139,152_y_f_n_a.png,O,m,639,3,1,1659.0,324495.2999997139,7736,NNB,B,2
3,test,5,0.0,1-Back,1.0,m,Tue Feb 03 2026 09:27:47 GMT-0600 (Central Standard Time),327771.5,153_y_m_n_a.png,O,m,590,4,1,1610.5,326161.0,7736,NNB,B,3
4,test,5,0.0,1-Back,1.0,m,Tue Feb 03 2026 09:27:47 GMT-0600 (Central Standard Time),329519.89999961853,152_y_f_n_a.png,O,m,726,5,1,1742.0999999046326,327777.7999997139,7736,NNB,B,4
5,test,5,0.0,1-Back,1.0,m,Tue Feb 03 2026 09:27:47 GMT-0600 (Central Standard Time),331137.19999980927,126_m_m_n_a.png,O,m,594,6,1,1614.0999999046326,329523.09999990463,7736,NNB,B,5
6,test,5,1.0,1-Back,1.0,z,Tue Feb 03 2026 09:27:47 GMT-0600 (Central Standard Time),332754.0,126_m_m_n_a.png,O,z,601,7,1,1612.8000001907349,331141.19999980927,7736,NNB,B,6
7,test,5,0.0,1-Back,1.0,m,Tue Feb 03 2026 09:27:47 GMT-0600 (Central Standard Time),334469.69999980927,173_y_f_n_a.png,O,m,698,8,1,1709.0,332760.69999980927,7736,NNB,B,7
8,test,5,0.0,1-Back,1.0,m,Tue Feb 03 2026 09:27:47 GMT-0600 (Central Standard Time),336051.59999990463,013_y_m_n_a.png,O,m,556,9,1,1576.7000002861023,334474.89999961853,7736,NNB,B,8
9,test,5,0.0,1-Back,1.0,m,Tue Feb 03 2026 09:27:47 GMT-0600 (Central Standard Time),337667.0,173_y_f_n_a.png,O,m,596,10,1,1610.7000002861023,336056.2999997139,7736,NNB,B,9
10,test,5,0.0,1-Back,1.0,m,Tue Feb 03 2026 09:27:47 GMT-0600 (Central Standard Time),339367.19999980927,086_o_f_n_a.png,O,m,670,11,1,1693.3000001907349,337673.89999961853,7736,NNB,B,10
11,test,5,1.0,1-Back,1.0,z,Tue Feb 03 2026 09:27:47 GMT-0600 (Central Standard Time),340983.2999997139,086_o_f_n_a.png,O,z,586,12,1,1610.6999998092651,339372.59999990463,7736,NNB,B,11
12,test,5,0.0,1-Back,1.0,m,Tue Feb 03 2026 09:27:47 GMT-0600 (Central Standard Time),342567.2999997139,065_o_m_n_a.png,O,m,553,13,1,1578.2999997138977,340989.0,7736,NNB,B,12
13,test,5,0.0,1-Back,1.0,m,Tue Feb 03 2026 09:27:47 GMT-0600 (Central Standard Time),344132.0,097_m_f_n_a.png,O,m,548,14,1,1558.1000003814697,342573.89999961853,7736,NNB,B,13
14,test,5,1.0,1-Back,1.0,z,Tue Feb 03 2026 09:27:47 GMT-0600 (Central Standard Time),345632.2999997139,097_m_f_n_a.png,O,z,478,15,1,1493.1999998092651,344139.09999990463,7736,NNB,B,14
15,test,5,0.0,1-Back,1.0,m,Tue Feb 03 2026 09:27:47 GMT-0600 (Central Standard Time),347282.19999980927,065_o_m_n_a.png,O,m,614,16,1,1643.1999998092651,345639.0,7736,NNB,B,15
16,test,5,0.0,1-Back,1.0,m,Tue Feb 03 2026 09:27:47 GMT-0600 (Central Standard Time),349015.2999997139,029_m_f_n_a.png,O,m,705,17,1,1728.2999997138977,347287.0,7736,NNB,B,16
17,test,5,0.0,1-Back,1.0,m,Tue Feb 03 2026 09:27:47 GMT-0600 (Central Standard Time),350580.19999980927,178_m_m_n_a.png,O,m,539,18,1,1560.5,349019.69999980927,7736,NNB,B,17
0,prac,1,0.0,2-Back,,,Tue Feb 03 2026 09:27:47 GMT-0600 (Central Standard Time),350580.19999980927,013_y_m_n_a.png,O,space,6237,1,1,1560.5,349019.69999980927,7736,NNB,B,0
0,prac,1,0.0,2-Back,,,Tue Feb 03 2026 09:27:47 GMT-0600 (Central Standard Time),350580.19999980927,029_m_f_n_a.png,O,space,6237,2,1,1560.5,349019.69999980927,7736,NNB,B,0
1,prac,1,1.0,2-Back,1.0,m,Tue Feb 03 2026 09:27:47 GMT-0600 (Central Standard Time),473308.5,065_o_m_n_a.png,O,m,774,3,1,1623.4000000953674,471685.09999990463,7736,NNB,B,1
2,prac,1,0.0,2-Back,1.0,m,Tue Feb 03 2026 09:27:47 GMT-0600 (Central Standard Time),475307.2999997139,086_o_f_n_a.png,O,m,1129,4,1,1990.1999998092651,473317.09999990463,7736,NNB,B,2
3,prac,1,0.0,2-Back,1.0,z,Tue Feb 03 2026 09:27:47 GMT-0600 (Central Standard Time),477157.19999980927,065_o_m_n_a.png,O,z,1073,5,1,1844.9000000953674,475312.2999997139,7736,NNB,B,3
4,prac,1,1.0,2-Back,1.0,z,Tue Feb 03 2026 09:27:47 GMT-0600 (Central Standard Time),478956.39999961853,086_o_f_n_a.png,O,z,1010,6,1,1790.2999997138977,477166.09999990463,7736,NNB,B,4
5,prac,1,0.0,2-Back,1.0,m,Tue Feb 03 2026 09:27:47 GMT-0600 (Central Standard Time),480958.19999980927,178_m_m_n_a.png,O,m,1161,7,1,1993.3000001907349,478964.89999961853,7736,NNB,B,5
6,prac,1,0.0,2-Back,1.0,m,Tue Feb 03 2026 09:27:47 GMT-0600 (Central Standard Time),482955.0,176_o_m_n_a.png,O,m,1141,8,1,1988.5,480966.5,7736,NNB,B,6
6,prac,1,0.0,2-Back,0.0,m,Tue Feb 03 2026 09:27:47 GMT-0600 (Central Standard Time),484958.19999980927,173_y_f_n_a.png,O,z,1165,9,1,1996.5,482961.69999980927,7736,NNB,B,7
7,prac,1,1.0,2-Back,1.0,z,Tue Feb 03 2026 09:27:47 GMT-0600 (Central Standard Time),487186.59999990463,176_o_m_n_a.png,O,z,1451,10,1,2218.9000000953674,484967.69999980927,7736,NNB,B,8
8,prac,1,0.0,2-Back,1.0,m,Tue Feb 03 2026 09:27:47 GMT-0600 (Central Standard Time),488869.69999980927,152_y_f_n_a.png,O,m,832,11,1,1677.0999999046326,487192.59999990463,7736,NNB,B,9
9,prac,1,0.0,2-Back,1.0,m,Tue Feb 03 2026 09:27:47 GMT-0600 (Central Standard Time),490870.7999997139,178_m_m_n_a.png,O,m,1237,12,1,1994.0,488876.7999997139,7736,NNB,B,10
0,test,1,0.0,2-Back,,,Tue Feb 03 2026 09:27:47 GMT-0600 (Central Standard Time),490870.7999997139,153_y_m_n_a.png,O,space,8792,1,1,1994.0,488876.7999997139,7736,NNB,B,0
0,test,1,0.0,2-Back,,,Tue Feb 03 2026 09:27:47 GMT-0600 (Central Standard Time),490870.7999997139,153_y_m_n_a.png,O,space,8792,2,1,1994.0,488876.7999997139,7736,NNB,B,0
1,test,1,0.0,2-Back,1.0,m,Tue Feb 03 2026 09:27:47 GMT-0600 (Central Standard Time),525391.8999996185,086_o_f_n_a.png,O,m,1542,3,1,2559.0,522832.89999961853,7736,NNB,B,1
2,test,1,0.0,2-Back,1.0,m,Tue Feb 03 2026 09:27:47 GMT-0600 (Central Standard Time),527856.8999996185,126_m_m_n_a.png,O,m,1433,4,1,2457.3999996185303,525399.5,7736,NNB,B,2
3,test,1,1.0,2-Back,1.0,z,Tue Feb 03 2026 09:27:47 GMT-0600 (Central Standard Time),529725.0999999046,086_o_f_n_a.png,O,z,840,5,1,1862.7000002861023,527862.3999996185,7736,NNB,B,3
4,test,1,0.0,2-Back,1.0,m,Tue Feb 03 2026 09:27:47 GMT-0600 (Central Standard Time),531607.5999999046,152_y_f_n_a.png,O,m,854,6,1,1875.8000001907349,529731.7999997139,7736,NNB,B,4
5,test,1,0.0,2-Back,1.0,m,Tue Feb 03 2026 09:27:47 GMT-0600 (Central Standard Time),533755.5,126_m_m_n_a.png,O,m,1133,7,1,2140.4000000953674,531615.0999999046,7736,NNB,B,5
6,test,1,1.0,2-Back,1.0,z,Tue Feb 03 2026 09:27:47 GMT-0600 (Central Standard Time),535521.1999998093,152_y_f_n_a.png,O,z,732,8,1,1760.4000000953674,533760.7999997139,7736,NNB,B,6
7,test,1,0.0,2-Back,1.0,m,Tue Feb 03 2026 09:27:47 GMT-0600 (Central Standard Time),537404.3999996185,013_y_m_n_a.png,O,m,856,9,1,1876.5,535527.8999996185,7736,NNB,B,7
8,test,1,0.0,2-Back,1.0,m,Tue Feb 03 2026 09:27:47 GMT-0600 (Central Standard Time),539404.5,110_o_f_n_a.png,O,m,974,10,1,1995.0,537409.5,7736,NNB,B,8
8,test,1,1.0,2-Back,0.0,z,Tue Feb 03 2026 09:27:47 GMT-0600 (Central Standard Time),541869.1999998093,013_y_m_n_a.png,O,m,1446,11,1,2459.5,539409.6999998093,7736,NNB,B,9
9,test,1,0.0,2-Back,1.0,m,Tue Feb 03 2026 09:27:47 GMT-0600 (Central Standard Time),543918.7999997139,029_m_f_n_a.png,O,m,1028,12,1,2043.4000000953674,541875.3999996185,7736,NNB,B,10
10,test,1,0.0,2-Back,1.0,m,Tue Feb 03 2026 09:27:47 GMT-0600 (Central Standard Time),546668.0,029_m_f_n_a.png,O,m,1721,13,1,2739.800000190735,543928.1999998093,7736,NNB,B,11
11,test,1,0.0,2-Back,1.0,m,Tue Feb 03 2026 09:27:47 GMT-0600 (Central Standard Time),548617.8999996185,065_o_m_n_a.png,O,m,926,14,1,1943.3999996185303,546674.5,7736,NNB,B,12
11,test,1,0.0,2-Back,0.0,m,Tue Feb 03 2026 09:27:47 GMT-0600 (Central Standard Time),550515.7999997139,110_o_f_n_a.png,O,z,872,15,1,1894.0999999046326,548621.6999998093,7736,NNB,B,13
12,test,1,1.0,2-Back,1.0,z,Tue Feb 03 2026 09:27:47 GMT-0600 (Central Standard Time),552781.8999996185,065_o_m_n_a.png,O,z,1235,16,1,2258.699999809265,550523.1999998093,7736,NNB,B,14
13,test,1,0.0,2-Back,1.0,m,Tue Feb 03 2026 09:27:47 GMT-0600 (Central Standard Time),554765.3999996185,097_m_f_n_a.png,O,m,962,17,1,1977.0999999046326,552788.2999997139,7736,NNB,B,15
14,test,1,0.0,2-Back,1.0,m,Tue Feb 03 2026 09:27:47 GMT-0600 (Central Standard Time),556732.7999997139,178_m_m_n_a.png,O,m,937,18,1,1960.6999998092651,554772.0999999046,7736,NNB,B,16
0,test,2,0.0,2-Back,,,Tue Feb 03 2026 09:27:47 GMT-0600 (Central Standard Time),556732.7999997139,178_m_m_n_a.png,O,space,3381,1,1,1960.6999998092651,554772.0999999046,7736,NNB,B,0
0,test,2,0.0,2-Back,,,Tue Feb 03 2026 09:27:47 GMT-0600 (Central Standard Time),556732.7999997139,173_y_f_n_a.png,O,space,3381,2,1,1960.6999998092651,554772.0999999046,7736,NNB,B,0
1,test,2,1.0,2-Back,1.0,z,Tue Feb 03 2026 09:27:47 GMT-0600 (Central Standard Time),567128.5999999046,178_m_m_n_a.png,O,z,868,3,1,1896.7000002861023,565231.8999996185,7736,NNB,B,1
2,test,2,0.0,2-Back,1.0,m,Tue Feb 03 2026 09:27:47 GMT-0600 (Central Standard Time),569044.0,097_m_f_n_a.png,O,m,899,4,1,1910.2000002861023,567133.7999997139,7736,NNB,B,2
2,test,2,0.0,2-Back,0.0,m,Tue Feb 03 2026 09:27:47 GMT-0600 (Central Standard Time),570877.2999997139,173_y_f_n_a.png,O,z,814,5,1,1827.5999999046326,569049.6999998093,7736,NNB,B,3
3,test,2,0.0,2-Back,1.0,m,Tue Feb 03 2026 09:27:47 GMT-0600 (Central Standard Time),573443.0999999046,065_o_m_n_a.png,O,m,1548,6,1,2560.800000190735,570882.2999997139,7736,NNB,B,4
4,test,2,0.0,2-Back,1.0,m,Tue Feb 03 2026 09:27:47 GMT-0600 (Central Standard Time),575475.7999997139,152_y_f_n_a.png,O,m,1006,7,1,2028.1999998092651,573447.5999999046,7736,NNB,B,5
5,test,2,1.0,2-Back,1.0,z,Tue Feb 03 2026 09:27:47 GMT-0600 (Central Standard Time),577125.6999998093,065_o_m_n_a.png,O,z,623,8,1,1646.6999998092651,575479.0,7736,NNB,B,6
6,test,2,0.0,2-Back,1.0,m,Tue Feb 03 2026 09:27:47 GMT-0600 (Central Standard Time),578956.7999997139,013_y_m_n_a.png,O,m,811,9,1,1827.0,577129.7999997139,7736,NNB,B,7
7,test,2,0.0,2-Back,1.0,m,Tue Feb 03 2026 09:27:47 GMT-0600 (Central Standard Time),581657.1999998093,013_y_m_n_a.png,O,m,1674,10,1,2695.0,578962.1999998093,7736,NNB,B,8
8,test,2,0.0,2-Back,1.0,m,Tue Feb 03 2026 09:27:47 GMT-0600 (Central Standard Time),583877.5999999046,029_m_f_n_a.png,O,m,1203,11,1,2216.4000000953674,581661.1999998093,7736,NNB,B,9
8,test,2,0.0,2-Back,0.0,m,Tue Feb 03 2026 09:27:47 GMT-0600 (Central Standard Time),586325.5999999046,173_y_f_n_a.png,O,z,1435,12,1,2442.9000000953674,583882.6999998093,7736,NNB,B,10
9,test,2,1.0,2-Back,1.0,z,Tue Feb 03 2026 09:27:47 GMT-0600 (Central Standard Time),588306.2999997139,029_m_f_n_a.png,O,z,959,13,1,1975.1999998092651,586331.0999999046,7736,NNB,B,11
10,test,2,0.0,2-Back,1.0,m,Tue Feb 03 2026 09:27:47 GMT-0600 (Central Standard Time),590104.2999997139,176_o_m_n_a.png,O,m,769,14,1,1792.2999997138977,588312.0,7736,NNB,B,12
11,test,2,0.0,2-Back,1.0,m,Tue Feb 03 2026 09:27:47 GMT-0600 (Central Standard Time),592268.6999998093,176_o_m_n_a.png,O,m,1144,15,1,2159.4000000953674,590109.2999997139,7736,NNB,B,13
12,test,2,0.0,2-Back,1.0,m,Tue Feb 03 2026 09:27:47 GMT-0600 (Central Standard Time),594119.5,110_o_f_n_a.png,O,m,818,16,1,1845.4000000953674,592274.0999999046,7736,NNB,B,14
13,test,2,0.0,2-Back,1.0,m,Tue Feb 03 2026 09:27:47 GMT-0600 (Central Standard Time),595986.5,126_m_m_n_a.png,O,m,834,17,1,1861.5,594125.0,7736,NNB,B,15
14,test,2,1.0,2-Back,1.0,z,Tue Feb 03 2026 09:27:47 GMT-0600 (Central Standard Time),597636.0,110_o_f_n_a.png,O,z,631,18,1,1641.4000000953674,595994.5999999046,7736,NNB,B,16
0,test,3,1.0,2-Back,,,Tue Feb 03 2026 09:27:47 GMT-0600 (Central Standard Time),597636.0,153_y_m_n_a.png,O,space,1925,1,1,1641.4000000953674,595994.5999999046,7736,NNB,B,0
0,test,3,1.0,2-Back,,,Tue Feb 03 2026 09:27:47 GMT-0600 (Central Standard Time),597636.0,153_y_m_n_a.png,O,space,1925,2,1,1641.4000000953674,595994.5999999046,7736,NNB,B,0
1,test,3,0.0,2-Back,1.0,m,Tue Feb 03 2026 09:27:47 GMT-0600 (Central Standard Time),606633.3999996185,110_o_f_n_a.png,O,m,920,3,1,1942.2999997138977,604691.0999999046,7736,NNB,B,1
2,test,3,0.0,2-Back,1.0,m,Tue Feb 03 2026 09:27:47 GMT-0600 (Central Standard Time),608515.5,178_m_m_n_a.png,O,m,850,4,1,1875.8000001907349,606639.6999998093,7736,NNB,B,2
3,test,3,1.0,2-Back,1.0,z,Tue Feb 03 2026 09:27:47 GMT-0600 (Central Standard Time),610115.5,110_o_f_n_a.png,O,z,574,5,1,1590.7000002861023,608524.7999997139,7736,NNB,B,3
4,test,3,0.0,2-Back,1.0,m,Tue Feb 03 2026 09:27:47 GMT-0600 (Central Standard Time),612113.5999999046,013_y_m_n_a.png,O,m,975,6,1,1990.8000001907349,610122.7999997139,7736,NNB,B,4
4,test,3,0.0,2-Back,0.0,m,Tue Feb 03 2026 09:27:47 GMT-0600 (Central Standard Time),613963.1999998093,178_m_m_n_a.png,O,z,822,7,1,1843.1999998092651,612120.0,7736,NNB,B,5
4,test,3,1.0,2-Back,0.0,z,Tue Feb 03 2026 09:27:47 GMT-0600 (Central Standard Time),615931.0999999046,013_y_m_n_a.png,O,m,951,8,1,1962.2000002861023,613968.8999996185,7736,NNB,B,6
5,test,3,0.0,2-Back,1.0,m,Tue Feb 03 2026 09:27:47 GMT-0600 (Central Standard Time),618061.6999998093,173_y_f_n_a.png,O,m,1105,9,1,2122.300000190735,615939.3999996185,7736,NNB,B,7
6,test,3,0.0,2-Back,1.0,m,Tue Feb 03 2026 09:27:47 GMT-0600 (Central Standard Time),619778.0,126_m_m_n_a.png,O,m,683,10,1,1708.3000001907349,618069.6999998093,7736,NNB,B,8
7,test,3,1.0,2-Back,1.0,z,Tue Feb 03 2026 09:27:47 GMT-0600 (Central Standard Time),621394.0,173_y_f_n_a.png,O,z,599,11,1,1608.7000002861023,619785.2999997139,7736,NNB,B,9
8,test,3,1.0,2-Back,1.0,z,Tue Feb 03 2026 09:27:47 GMT-0600 (Central Standard Time),623426.2999997139,126_m_m_n_a.png,O,z,1014,12,1,2026.1999998092651,621400.0999999046,7736,NNB,B,10
9,test,3,0.0,2-Back,1.0,m,Tue Feb 03 2026 09:27:47 GMT-0600 (Central Standard Time),625242.8999996185,110_o_f_n_a.png,O,m,789,13,1,1810.5999999046326,623432.2999997139,7736,NNB,B,11
10,test,3,0.0,2-Back,1.0,m,Tue Feb 03 2026 09:27:47 GMT-0600 (Central Standard Time),627124.1999998093,097_m_f_n_a.png,O,m,861,14,1,1875.8000001907349,625248.3999996185,7736,NNB,B,12
11,test,3,0.0,2-Back,1.0,m,Tue Feb 03 2026 09:27:47 GMT-0600 (Central Standard Time),628825.5,065_o_m_n_a.png,O,m,676,15,1,1697.8000001907349,627127.6999998093,7736,NNB,B,13
12,test,3,1.0,2-Back,1.0,z,Tue Feb 03 2026 09:27:47 GMT-0600 (Central Standard Time),630574.6999998093,097_m_f_n_a.png,O,z,728,16,1,1742.3000001907349,628832.3999996185,7736,NNB,B,14
13,test,3,0.0,2-Back,1.0,m,Tue Feb 03 2026 09:27:47 GMT-0600 (Central Standard Time),632461.1999998093,086_o_f_n_a.png,O,m,852,17,1,1879.4000000953674,630581.7999997139,7736,NNB,B,15
14,test,3,0.0,2-Back,1.0,m,Tue Feb 03 2026 09:27:47 GMT-0600 (Central Standard Time),634506.5999999046,086_o_f_n_a.png,O,m,1032,18,1,2037.9000000953674,632468.6999998093,7736,NNB,B,16
0,test,4,0.0,2-Back,,,Tue Feb 03 2026 09:27:47 GMT-0600 (Central Standard Time),634506.5999999046,176_o_m_n_a.png,O,space,3901,1,1,2037.9000000953674,632468.6999998093,7736,NNB,B,0
0,test,4,0.0,2-Back,,,Tue Feb 03 2026 09:27:47 GMT-0600 (Central Standard Time),634506.5999999046,152_y_f_n_a.png,O,space,3901,2,1,2037.9000000953674,632468.6999998093,7736,NNB,B,0
1,test,4,1.0,2-Back,1.0,z,Tue Feb 03 2026 09:27:47 GMT-0600 (Central Standard Time),645554.6999998093,176_o_m_n_a.png,O,z,943,3,1,1962.0999999046326,643592.5999999046,7736,NNB,B,1
2,test,4,1.0,2-Back,1.0,z,Tue Feb 03 2026 09:27:47 GMT-0600 (Central Standard Time),647185.1999998093,152_y_f_n_a.png,O,z,607,4,1,1624.0999999046326,645561.0999999046,7736,NNB,B,2
3,test,4,0.0,2-Back,1.0,m,Tue Feb 03 2026 09:27:47 GMT-0600 (Central Standard Time),649034.1999998093,110_o_f_n_a.png,O,m,820,5,1,1844.5999999046326,647189.5999999046,7736,NNB,B,3
4,test,4,0.0,2-Back,1.0,m,Tue Feb 03 2026 09:27:47 GMT-0600 (Central Standard Time),651452.0,110_o_f_n_a.png,O,m,1389,6,1,2412.0,649040.0,7736,NNB,B,4
5,test,4,0.0,2-Back,1.0,m,Tue Feb 03 2026 09:27:47 GMT-0600 (Central Standard Time),653283.5999999046,029_m_f_n_a.png,O,m,805,7,1,1824.9000000953674,651458.6999998093,7736,NNB,B,5
6,test,4,0.0,2-Back,1.0,m,Tue Feb 03 2026 09:27:47 GMT-0600 (Central Standard Time),655017.2999997139,013_y_m_n_a.png,O,m,701,8,1,1730.2999997138977,653287.0,7736,NNB,B,6
7,test,4,1.0,2-Back,1.0,z,Tue Feb 03 2026 09:27:47 GMT-0600 (Central Standard Time),656582.5999999046,029_m_f_n_a.png,O,z,541,9,1,1559.2000002861023,655023.3999996185,7736,NNB,B,7
8,test,4,0.0,2-Back,1.0,m,Tue Feb 03 2026 09:27:47 GMT-0600 (Central Standard Time),658382.7999997139,126_m_m_n_a.png,O,m,769,10,1,1795.0,656587.7999997139,7736,NNB,B,8
9,test,4,0.0,2-Back,1.0,m,Tue Feb 03 2026 09:27:47 GMT-0600 (Central Standard Time),660381.5,013_y_m_n_a.png,O,m,970,11,1,1992.4000000953674,658389.0999999046,7736,NNB,B,9
10,test,4,0.0,2-Back,1.0,m,Tue Feb 03 2026 09:27:47 GMT-0600 (Central Standard Time),662530.5999999046,086_o_f_n_a.png,O,m,1123,12,1,2145.0999999046326,660385.5,7736,NNB,B,10
11,test,4,0.0,2-Back,1.0,m,Tue Feb 03 2026 09:27:47 GMT-0600 (Central Standard Time),664514.2999997139,153_y_m_n_a.png,O,m,951,13,1,1977.7999997138977,662536.5,7736,NNB,B,11
12,test,4,1.0,2-Back,1.0,z,Tue Feb 03 2026 09:27:47 GMT-0600 (Central Standard Time),666364.2999997139,086_o_f_n_a.png,O,z,833,14,1,1843.7999997138977,664520.5,7736,NNB,B,12
12,test,4,1.0,2-Back,0.0,z,Tue Feb 03 2026 09:27:47 GMT-0600 (Central Standard Time),668679.0,153_y_m_n_a.png,O,m,1293,15,1,2308.800000190735,666370.1999998093,7736,NNB,B,13
13,test,4,0.0,2-Back,1.0,m,Tue Feb 03 2026 09:27:47 GMT-0600 (Central Standard Time),670546.8999996185,178_m_m_n_a.png,O,m,852,16,1,1864.5,668682.3999996185,7736,NNB,B,14
14,test,4,0.0,2-Back,1.0,m,Tue Feb 03 2026 09:27:47 GMT-0600 (Central Standard Time),672411.0,097_m_f_n_a.png,O,m,840,17,1,1858.4000000953674,670552.5999999046,7736,NNB,B,15
15,test,4,1.0,2-Back,1.0,z,Tue Feb 03 2026 09:27:47 GMT-0600 (Central Standard Time),674459.7999997139,178_m_m_n_a.png,O,z,1028,18,1,2042.0,672417.7999997139,7736,NNB,B,16
0,test,5,1.0,2-Back,,,Tue Feb 03 2026 09:27:47 GMT-0600 (Central Standard Time),674459.7999997139,153_y_m_n_a.png,O,space,3926,1,1,2042.0,672417.7999997139,7736,NNB,B,0
0,test,5,1.0,2-Back,,,Tue Feb 03 2026 09:27:47 GMT-0600 (Central Standard Time),674459.7999997139,097_m_f_n_a.png,O,space,3926,2,1,2042.0,672417.7999997139,7736,NNB,B,0
1,test,5,1.0,2-Back,1.0,z,Tue Feb 03 2026 09:27:47 GMT-0600 (Central Standard Time),685075.0999999046,153_y_m_n_a.png,O,z,607,3,1,1624.7000002861023,683450.3999996185,7736,NNB,B,1
2,test,5,1.0,2-Back,1.0,z,Tue Feb 03 2026 09:27:47 GMT-0600 (Central Standard Time),687006.5999999046,097_m_f_n_a.png,O,z,911,4,1,1924.2000002861023,685082.3999996185,7736,NNB,B,2
3,test,5,0.0,2-Back,1.0,m,Tue Feb 03 2026 09:27:47 GMT-0600 (Central Standard Time),688790.5,086_o_f_n_a.png,O,m,753,5,1,1776.7000002861023,687013.7999997139,7736,NNB,B,3
3,test,5,0.0,2-Back,0.0,m,Tue Feb 03 2026 09:27:47 GMT-0600 (Central Standard Time),690554.6999998093,153_y_m_n_a.png,O,z,747,6,1,1757.0999999046326,688797.5999999046,7736,NNB,B,4
4,test,5,0.0,2-Back,1.0,m,Tue Feb 03 2026 09:27:47 GMT-0600 (Central Standard Time),692804.0,173_y_f_n_a.png,O,m,1220,7,1,2245.800000190735,690558.1999998093,7736,NNB,B,5
5,test,5,0.0,2-Back,1.0,m,Tue Feb 03 2026 09:27:47 GMT-0600 (Central Standard Time),695071.8999996185,086_o_f_n_a.png,O,m,1243,8,1,2260.8999996185303,692811.0,7736,NNB,B,6
6,test,5,1.0,2-Back,1.0,z,Tue Feb 03 2026 09:27:47 GMT-0600 (Central Standard Time),696754.0,173_y_f_n_a.png,O,z,658,9,1,1675.4000000953674,695078.5999999046,7736,NNB,B,7
7,test,5,0.0,2-Back,1.0,m,Tue Feb 03 2026 09:27:47 GMT-0600 (Central Standard Time),698588.7999997139,065_o_m_n_a.png,O,m,807,10,1,1826.7999997138977,696762.0,7736,NNB,B,8
8,test,5,0.0,2-Back,1.0,m,Tue Feb 03 2026 09:27:47 GMT-0600 (Central Standard Time),700385.8999996185,029_m_f_n_a.png,O,m,784,11,1,1790.3999996185303,698595.5,7736,NNB,B,9
9,test,5,0.0,2-Back,1.0,m,Tue Feb 03 2026 09:27:47 GMT-0600 (Central Standard Time),702202.1999998093,126_m_m_n_a.png,O,m,798,12,1,1811.1999998092651,700391.0,7736,NNB,B,10
10,test,5,0.0,2-Back,1.0,m,Tue Feb 03 2026 09:27:47 GMT-0600 (Central Standard Time),704201.1999998093,065_o_m_n_a.png,O,m,975,13,1,1992.1999998092651,702209.0,7736,NNB,B,11
11,test,5,1.0,2-Back,1.0,z,Tue Feb 03 2026 09:27:47 GMT-0600 (Central Standard Time),706367.3999996185,126_m_m_n_a.png,O,z,1144,14,1,2160.5999999046326,704206.7999997139,7736,NNB,B,12
12,test,5,0.0,2-Back,1.0,m,Tue Feb 03 2026 09:27:47 GMT-0600 (Central Standard Time),708300.0999999046,152_y_f_n_a.png,O,m,912,15,1,1925.2000002861023,706374.8999996185,7736,NNB,B,13
13,test,5,0.0,2-Back,1.0,m,Tue Feb 03 2026 09:27:47 GMT-0600 (Central Standard Time),710200.0999999046,176_o_m_n_a.png,O,m,869,16,1,1893.5,708306.5999999046,7736,NNB,B,14
14,test,5,0.0,2-Back,1.0,m,Tue Feb 03 2026 09:27:47 GMT-0600 (Central Standard Time),712215.6999998093,029_m_f_n_a.png,O,m,993,17,1,2009.4000000953674,710206.2999997139,7736,NNB,B,15
15,test,5,1.0,2-Back,1.0,z,Tue Feb 03 2026 09:27:47 GMT-0600 (Central Standard Time),713866.6999998093,176_o_m_n_a.png,O,z,621,18,1,1645.1999998092651,712221.5,7736,NNB,B,16
