acc_sum,block,block_c,block_cond,con_img,correct,correct_response,datetime,endtime,face,jitter,line,project,response,response_time,row_sel,session_number,start_end,starttime,subject_id,task,task_vers,trial
1,prac,1,A,haborder.png,1,m,Fri May 23 2025 17:59:07 GMT-0500 (Central Daylight Time),58783.19999999553,CFD-BM-020-024-HC.jpg,1500,solid,I,m,1280,3,2,3565.89999999851,55217.29999999702,8021,ATS,B,1
2,prac,1,A,haborder.png,1,m,Fri May 23 2025 17:59:07 GMT-0500 (Central Daylight Time),62564.69999999553,CFD-BM-015-017-HC.jpg,1700,solid,I,m,1291,1,2,7347.39999999851,55217.29999999702,8021,ATS,B,2
3,prac,1,A,haborder.png,1,z,Fri May 23 2025 17:59:07 GMT-0500 (Central Daylight Time),66297.09999999404,CFD-BM-037-041-A.jpg,1600,solid,I,z,1344,2,2,11079.79999999702,55217.29999999702,8021,ATS,B,3
4,prac,1,A,haborder.png,1,z,Fri May 23 2025 17:59:07 GMT-0500 (Central Daylight Time),69579.5,CFD-WF-026-008-A.jpg,1600,solid,I,z,892,10,2,14362.20000000298,55217.29999999702,8021,ATS,B,4
5,prac,1,A,haborder.png,1,m,Fri May 23 2025 17:59:07 GMT-0500 (Central Daylight Time),73294.89999999851,CFD-BF-035-007-HC.jpg,2000,solid,I,m,931,5,2,18077.60000000149,55217.29999999702,8021,ATS,B,5
6,prac,1,A,haborder.png,1,z,Fri May 23 2025 17:59:07 GMT-0500 (Central Daylight Time),77060.39999999851,CFD-WM-009-009-A.jpg,1900,solid,I,z,1074,8,2,21843.10000000149,55217.29999999702,8021,ATS,B,6
7,prac,1,A,haborder.png,1,m,Fri May 23 2025 17:59:07 GMT-0500 (Central Daylight Time),80360.29999999702,CFD-WF-011-006-HC.jpg,1500,solid,I,m,1013,11,2,25143.0,55217.29999999702,8021,ATS,B,7
7,prac,1,A,haborder.png,0,z,Fri May 23 2025 17:59:07 GMT-0500 (Central Daylight Time),83125.29999999702,CFD-BF-051-043-A.jpg,1000,solid,I,m,966,4,2,27908.0,55217.29999999702,8021,ATS,B,8
8,prac,1,A,haborder.png,1,m,Fri May 23 2025 17:59:07 GMT-0500 (Central Daylight Time),86624.19999999553,CFD-WM-012-007-HC.jpg,1700,solid,I,m,1012,9,2,31406.89999999851,55217.29999999702,8021,ATS,B,9
9,prac,1,A,haborder.png,1,m,Fri May 23 2025 17:59:07 GMT-0500 (Central Daylight Time),90239.69999999553,CFD-WM-011-006-HC.jpg,1400,solid,I,m,1421,7,2,35022.39999999851,55217.29999999702,8021,ATS,B,10
10,prac,1,A,haborder.png,1,z,Fri May 23 2025 17:59:07 GMT-0500 (Central Daylight Time),92522.09999999404,CFD-WF-013-015-A.jpg,1000,solid,I,z,485,12,2,37304.79999999702,55217.29999999702,8021,ATS,B,11
11,prac,1,A,haborder.png,1,z,Fri May 23 2025 17:59:07 GMT-0500 (Central Daylight Time),95338.29999999702,CFD-BF-050-012-A.jpg,1200,solid,I,z,827,6,2,40121.0,55217.29999999702,8021,ATS,B,12
0,prac,1,B,mfborder.png,0,m,Fri May 23 2025 17:59:07 GMT-0500 (Central Daylight Time),124862.29999999702,CFD-BM-020-024-HC.jpg,1700,dash,I,None,1516,1,2,3999.0,120863.29999999702,8021,ATS,B,1
0,prac,1,B,mfborder.png,0,m,Fri May 23 2025 17:59:07 GMT-0500 (Central Daylight Time),128644.39999999851,CFD-WM-009-009-A.jpg,1700,dash,I,z,1291,9,2,7781.10000000149,120863.29999999702,8021,ATS,B,2
1,prac,1,B,mfborder.png,1,m,Fri May 23 2025 17:59:07 GMT-0500 (Central Daylight Time),131676.59999999404,CFD-WM-037-060-A.jpg,1200,dash,I,m,1033,6,2,10813.29999999702,120863.29999999702,8021,ATS,B,3
2,prac,1,B,mfborder.png,1,m,Fri May 23 2025 17:59:07 GMT-0500 (Central Daylight Time),135259.09999999404,CFD-WM-012-007-HC.jpg,1600,dash,I,m,1193,10,2,14395.79999999702,120863.29999999702,8021,ATS,B,4
3,prac,1,B,mfborder.png,1,z,Fri May 23 2025 17:59:07 GMT-0500 (Central Daylight Time),138791.29999999702,CFD-BF-027-013-HC.jpg,1500,dash,I,z,1246,3,2,17928.0,120863.29999999702,8021,ATS,B,5
3,prac,1,B,mfborder.png,0,z,Fri May 23 2025 17:59:07 GMT-0500 (Central Daylight Time),142190.19999999553,CFD-BF-035-007-HC.jpg,1400,dash,I,m,1214,7,2,21326.89999999851,120863.29999999702,8021,ATS,B,6
4,prac,1,B,mfborder.png,1,m,Fri May 23 2025 17:59:07 GMT-0500 (Central Daylight Time),146055.5,CFD-BM-037-041-A.jpg,2000,dash,I,m,1079,5,2,25192.20000000298,120863.29999999702,8021,ATS,B,7
4,prac,1,B,mfborder.png,0,z,Fri May 23 2025 17:59:07 GMT-0500 (Central Daylight Time),149854.29999999702,CFD-WF-026-008-A.jpg,1500,dash,I,None,1516,11,2,28991.0,120863.29999999702,8021,ATS,B,8
4,prac,1,B,mfborder.png,0,z,Fri May 23 2025 17:59:07 GMT-0500 (Central Daylight Time),153153.5,CFD-WF-011-006-HC.jpg,1000,dash,I,None,1516,12,2,32290.20000000298,120863.29999999702,8021,ATS,B,9
5,prac,1,B,mfborder.png,1,z,Fri May 23 2025 17:59:07 GMT-0500 (Central Daylight Time),156702.09999999404,CFD-WF-027-007-HC.jpg,1900,dash,I,z,856,8,2,35838.79999999702,120863.29999999702,8021,ATS,B,10
6,prac,1,B,mfborder.png,1,m,Fri May 23 2025 17:59:07 GMT-0500 (Central Daylight Time),160467.69999999553,CFD-BM-041-048-A.jpg,1600,dash,I,m,1367,2,2,39604.39999999851,120863.29999999702,8021,ATS,B,11
6,prac,1,B,mfborder.png,0,z,Fri May 23 2025 17:59:07 GMT-0500 (Central Daylight Time),163766.3999999985,CFD-BF-051-043-A.jpg,1000,dash,I,None,1515,4,2,42903.10000000149,120863.29999999702,8021,ATS,B,12
0,prac,2,B,mfborder.png,0,z,Fri May 23 2025 17:59:07 GMT-0500 (Central Daylight Time),174064.19999999553,CFD-WF-027-007-HC.jpg,1900,dash,I,None,1517,8,2,53200.89999999851,120863.29999999702,8021,ATS,B,1
1,prac,2,B,mfborder.png,1,m,Fri May 23 2025 17:59:07 GMT-0500 (Central Daylight Time),177708.09999999404,CFD-WM-009-009-A.jpg,1700,dash,I,m,1146,9,2,56844.79999999702,120863.29999999702,8021,ATS,B,2
2,prac,2,B,mfborder.png,1,m,Fri May 23 2025 17:59:07 GMT-0500 (Central Daylight Time),180894.19999999553,CFD-BM-041-048-A.jpg,1600,dash,I,m,789,2,2,60030.89999999851,120863.29999999702,8021,ATS,B,3
3,prac,2,B,mfborder.png,1,z,Fri May 23 2025 17:59:07 GMT-0500 (Central Daylight Time),184210.29999999702,CFD-BF-027-013-HC.jpg,1500,dash,I,z,1027,3,2,63347.0,120863.29999999702,8021,ATS,B,4
4,prac,2,B,mfborder.png,1,z,Fri May 23 2025 17:59:07 GMT-0500 (Central Daylight Time),187759.19999999553,CFD-BF-035-007-HC.jpg,1400,dash,I,z,1363,7,2,66895.89999999851,120863.29999999702,8021,ATS,B,5
5,prac,2,B,mfborder.png,1,m,Fri May 23 2025 17:59:07 GMT-0500 (Central Daylight Time),191358.29999999702,CFD-BM-037-041-A.jpg,2000,dash,I,m,814,5,2,70495.0,120863.29999999702,8021,ATS,B,6
6,prac,2,B,mfborder.png,1,z,Fri May 23 2025 17:59:07 GMT-0500 (Central Daylight Time),193957.29999999702,CFD-WF-011-006-HC.jpg,1000,dash,I,z,807,12,2,73094.0,120863.29999999702,8021,ATS,B,7
6,prac,2,B,mfborder.png,0,z,Fri May 23 2025 17:59:07 GMT-0500 (Central Daylight Time),196939.5,CFD-BF-051-043-A.jpg,1000,dash,I,m,1192,4,2,76076.20000000298,120863.29999999702,8021,ATS,B,8
7,prac,2,B,mfborder.png,1,z,Fri May 23 2025 17:59:07 GMT-0500 (Central Daylight Time),200388.5,CFD-WF-026-008-A.jpg,1500,dash,I,z,1158,11,2,79525.20000000298,120863.29999999702,8021,ATS,B,9
8,prac,2,B,mfborder.png,1,m,Fri May 23 2025 17:59:07 GMT-0500 (Central Daylight Time),204237.19999999553,CFD-WM-012-007-HC.jpg,1600,dash,I,m,1465,10,2,83373.89999999851,120863.29999999702,8021,ATS,B,10
9,prac,2,B,mfborder.png,1,m,Fri May 23 2025 17:59:07 GMT-0500 (Central Daylight Time),207986.19999999553,CFD-BM-020-024-HC.jpg,1700,dash,I,m,1252,1,2,87122.89999999851,120863.29999999702,8021,ATS,B,11
10,prac,2,B,mfborder.png,1,m,Fri May 23 2025 17:59:07 GMT-0500 (Central Daylight Time),211385.0,CFD-WM-037-060-A.jpg,1200,dash,I,m,1403,6,2,90521.70000000298,120863.29999999702,8021,ATS,B,12
1,test,1,A,haborder.png,1,m,Fri May 23 2025 17:59:07 GMT-0500 (Central Daylight Time),231345.29999999702,CFD-BM-015-017-HC.jpg,1700,solid,I,m,946,1,2,2665.39999999851,228679.8999999985,8021,ATS,B,1
2,test,1,A,haborder.png,1,z,Fri May 23 2025 17:59:07 GMT-0500 (Central Daylight Time),233628.0,CFD-WF-026-008-A.jpg,1600,solid,I,z,652,10,2,4948.10000000149,228679.8999999985,8021,ATS,B,2
2,test,1,A,haborder.png,0,z,Fri May 23 2025 17:59:07 GMT-0500 (Central Daylight Time),236160.69999999553,CFD-BF-051-043-A.jpg,1000,solid,I,None,1516,4,2,7480.79999999702,228679.8999999985,8021,ATS,B,3
3,test,1,A,haborder.png,1,m,Fri May 23 2025 17:59:07 GMT-0500 (Central Daylight Time),238560.0,CFD-WM-012-007-HC.jpg,1700,solid,I,m,673,9,2,9880.10000000149,228679.8999999985,8021,ATS,B,4
4,test,1,A,haborder.png,1,m,Fri May 23 2025 17:59:07 GMT-0500 (Central Daylight Time),241408.79999999702,CFD-BF-035-007-HC.jpg,2000,solid,I,m,822,5,2,12728.89999999851,228679.8999999985,8021,ATS,B,5
5,test,1,A,haborder.png,1,m,Fri May 23 2025 17:59:07 GMT-0500 (Central Daylight Time),243574.8999999985,CFD-BM-020-024-HC.jpg,1500,solid,I,m,642,3,2,14895.0,228679.8999999985,8021,ATS,B,6
6,test,1,A,haborder.png,1,m,Fri May 23 2025 17:59:07 GMT-0500 (Central Daylight Time),245657.5,CFD-WM-011-006-HC.jpg,1400,solid,I,m,662,7,2,16977.60000000149,228679.8999999985,8021,ATS,B,7
7,test,1,A,haborder.png,1,z,Fri May 23 2025 17:59:07 GMT-0500 (Central Daylight Time),248337.5,CFD-WM-009-009-A.jpg,1900,solid,I,z,763,8,2,19657.60000000149,228679.8999999985,8021,ATS,B,8
8,test,1,A,haborder.png,1,m,Fri May 23 2025 17:59:07 GMT-0500 (Central Daylight Time),250839.09999999404,CFD-WM-012-007-HC.jpg,1700,solid,I,m,781,9,2,22159.19999999553,228679.8999999985,8021,ATS,B,9
9,test,1,A,haborder.png,1,z,Fri May 23 2025 17:59:07 GMT-0500 (Central Daylight Time),252656.0,CFD-BF-051-043-A.jpg,1000,solid,I,z,786,4,2,23976.10000000149,228679.8999999985,8021,ATS,B,10
10,test,1,A,haborder.png,1,z,Fri May 23 2025 17:59:07 GMT-0500 (Central Daylight Time),255354.59999999404,CFD-BM-037-041-A.jpg,1600,solid,I,z,1070,2,2,26674.69999999553,228679.8999999985,8021,ATS,B,11
11,test,1,A,haborder.png,1,m,Fri May 23 2025 17:59:07 GMT-0500 (Central Daylight Time),258053.8999999985,CFD-WF-011-006-HC.jpg,1500,solid,I,m,1163,11,2,29374.0,228679.8999999985,8021,ATS,B,12
12,test,1,A,haborder.png,1,z,Fri May 23 2025 17:59:07 GMT-0500 (Central Daylight Time),259886.69999999553,CFD-WF-013-015-A.jpg,1000,solid,I,z,807,12,2,31206.79999999702,228679.8999999985,8021,ATS,B,13
12,test,1,A,haborder.png,0,z,Fri May 23 2025 17:59:07 GMT-0500 (Central Daylight Time),262552.299999997,CFD-BM-037-041-A.jpg,1600,solid,I,m,1047,2,2,33872.39999999851,228679.8999999985,8021,ATS,B,14
12,test,1,A,haborder.png,0,z,Fri May 23 2025 17:59:07 GMT-0500 (Central Daylight Time),265352.59999999404,CFD-WM-009-009-A.jpg,1900,solid,I,m,878,8,2,36672.69999999553,228679.8999999985,8021,ATS,B,15
13,test,1,A,haborder.png,1,m,Fri May 23 2025 17:59:07 GMT-0500 (Central Daylight Time),268267.19999999553,CFD-BM-015-017-HC.jpg,1700,solid,I,m,1195,1,2,39587.29999999702,228679.8999999985,8021,ATS,B,16
14,test,1,A,haborder.png,1,m,Fri May 23 2025 17:59:07 GMT-0500 (Central Daylight Time),270599.69999999553,CFD-WM-011-006-HC.jpg,1400,solid,I,m,906,7,2,41919.79999999702,228679.8999999985,8021,ATS,B,17
15,test,1,A,haborder.png,1,m,Fri May 23 2025 17:59:07 GMT-0500 (Central Daylight Time),273099.09999999404,CFD-BM-020-024-HC.jpg,1500,solid,I,m,966,3,2,44419.19999999553,228679.8999999985,8021,ATS,B,18
16,test,1,A,haborder.png,1,m,Fri May 23 2025 17:59:07 GMT-0500 (Central Daylight Time),276148.0,CFD-BF-035-007-HC.jpg,2000,solid,I,m,1019,5,2,47468.10000000149,228679.8999999985,8021,ATS,B,19
17,test,1,A,haborder.png,1,z,Fri May 23 2025 17:59:07 GMT-0500 (Central Daylight Time),278064.19999999553,CFD-BF-050-012-A.jpg,1200,solid,I,z,697,6,2,49384.29999999702,228679.8999999985,8021,ATS,B,20
18,test,1,A,haborder.png,1,z,Fri May 23 2025 17:59:07 GMT-0500 (Central Daylight Time),280346.69999999553,CFD-WF-026-008-A.jpg,1600,solid,I,z,649,10,2,51666.79999999702,228679.8999999985,8021,ATS,B,21
19,test,1,A,haborder.png,1,m,Fri May 23 2025 17:59:07 GMT-0500 (Central Daylight Time),282879.09999999404,CFD-WF-011-006-HC.jpg,1500,solid,I,m,1016,11,2,54199.19999999553,228679.8999999985,8021,ATS,B,22
20,test,1,A,haborder.png,1,z,Fri May 23 2025 17:59:07 GMT-0500 (Central Daylight Time),284895.0,CFD-WF-013-015-A.jpg,1000,solid,I,z,995,12,2,56215.10000000149,228679.8999999985,8021,ATS,B,23
21,test,1,A,haborder.png,1,z,Fri May 23 2025 17:59:07 GMT-0500 (Central Daylight Time),286795.0,CFD-BF-050-012-A.jpg,1200,solid,I,z,671,6,2,58115.10000000149,228679.8999999985,8021,ATS,B,24
1,test,1,B,mfborder.png,1,m,Fri May 23 2025 17:59:07 GMT-0500 (Central Daylight Time),300090.3999999985,CFD-WM-009-009-A.jpg,1700,dash,I,m,703,9,2,2432.39999999851,297658.0,8021,ATS,B,1
2,test,1,B,mfborder.png,1,z,Fri May 23 2025 17:59:07 GMT-0500 (Central Daylight Time),302389.5,CFD-BF-035-007-HC.jpg,1400,dash,I,z,866,7,2,4731.5,297658.0,8021,ATS,B,2
3,test,1,B,mfborder.png,1,z,Fri May 23 2025 17:59:07 GMT-0500 (Central Daylight Time),304905.3999999985,CFD-WF-027-007-HC.jpg,1900,dash,I,z,596,8,2,7247.39999999851,297658.0,8021,ATS,B,3
4,test,1,B,mfborder.png,1,m,Fri May 23 2025 17:59:07 GMT-0500 (Central Daylight Time),307454.69999999553,CFD-BM-020-024-HC.jpg,1700,dash,I,m,831,1,2,9796.69999999553,297658.0,8021,ATS,B,4
5,test,1,B,mfborder.png,1,m,Fri May 23 2025 17:59:07 GMT-0500 (Central Daylight Time),309854.09999999404,CFD-WM-012-007-HC.jpg,1600,dash,I,m,774,10,2,12196.09999999404,297658.0,8021,ATS,B,5
6,test,1,B,mfborder.png,1,z,Fri May 23 2025 17:59:07 GMT-0500 (Central Daylight Time),311753.799999997,CFD-BF-051-043-A.jpg,1000,dash,I,z,870,4,2,14095.79999999702,297658.0,8021,ATS,B,6
7,test,1,B,mfborder.png,1,m,Fri May 23 2025 17:59:07 GMT-0500 (Central Daylight Time),314102.799999997,CFD-WM-012-007-HC.jpg,1600,dash,I,m,733,10,2,16444.79999999702,297658.0,8021,ATS,B,7
8,test,1,B,mfborder.png,1,z,Fri May 23 2025 17:59:07 GMT-0500 (Central Daylight Time),316118.8999999985,CFD-BF-051-043-A.jpg,1000,dash,I,z,990,4,2,18460.89999999851,297658.0,8021,ATS,B,8
9,test,1,B,mfborder.png,1,z,Fri May 23 2025 17:59:07 GMT-0500 (Central Daylight Time),318368.19999999553,CFD-WF-026-008-A.jpg,1500,dash,I,z,730,11,2,20710.19999999553,297658.0,8021,ATS,B,9
10,test,1,B,mfborder.png,1,z,Fri May 23 2025 17:59:07 GMT-0500 (Central Daylight Time),320550.799999997,CFD-BF-027-013-HC.jpg,1500,dash,I,z,647,3,2,22892.79999999702,297658.0,8021,ATS,B,10
11,test,1,B,mfborder.png,1,m,Fri May 23 2025 17:59:07 GMT-0500 (Central Daylight Time),322600.299999997,CFD-WM-037-060-A.jpg,1200,dash,I,m,830,6,2,24942.29999999702,297658.0,8021,ATS,B,11
12,test,1,B,mfborder.png,1,z,Fri May 23 2025 17:59:07 GMT-0500 (Central Daylight Time),325299.09999999404,CFD-WF-027-007-HC.jpg,1900,dash,I,z,769,8,2,27641.09999999404,297658.0,8021,ATS,B,12
13,test,1,B,mfborder.png,1,z,Fri May 23 2025 17:59:07 GMT-0500 (Central Daylight Time),327615.0,CFD-WF-026-008-A.jpg,1500,dash,I,z,798,11,2,29957.0,297658.0,8021,ATS,B,13
14,test,1,B,mfborder.png,1,m,Fri May 23 2025 17:59:07 GMT-0500 (Central Daylight Time),329714.69999999553,CFD-WM-037-060-A.jpg,1200,dash,I,m,870,6,2,32056.69999999553,297658.0,8021,ATS,B,14
15,test,1,B,mfborder.png,1,z,Fri May 23 2025 17:59:07 GMT-0500 (Central Daylight Time),332030.5,CFD-BF-035-007-HC.jpg,1400,dash,I,z,892,7,2,34372.5,297658.0,8021,ATS,B,15
16,test,1,B,mfborder.png,1,m,Fri May 23 2025 17:59:07 GMT-0500 (Central Daylight Time),334496.5,CFD-BM-041-048-A.jpg,1600,dash,I,m,847,2,2,36838.5,297658.0,8021,ATS,B,16
17,test,1,B,mfborder.png,1,m,Fri May 23 2025 17:59:07 GMT-0500 (Central Daylight Time),336779.09999999404,CFD-BM-041-048-A.jpg,1600,dash,I,m,661,2,2,39121.09999999404,297658.0,8021,ATS,B,17
18,test,1,B,mfborder.png,1,z,Fri May 23 2025 17:59:07 GMT-0500 (Central Daylight Time),338445.5,CFD-WF-011-006-HC.jpg,1000,dash,I,z,638,12,2,40787.5,297658.0,8021,ATS,B,18
19,test,1,B,mfborder.png,1,m,Fri May 23 2025 17:59:07 GMT-0500 (Central Daylight Time),341277.59999999404,CFD-BM-037-041-A.jpg,2000,dash,I,m,809,5,2,43619.59999999404,297658.0,8021,ATS,B,19
20,test,1,B,mfborder.png,1,z,Fri May 23 2025 17:59:07 GMT-0500 (Central Daylight Time),343993.3999999985,CFD-BF-027-013-HC.jpg,1500,dash,I,z,1184,3,2,46335.39999999851,297658.0,8021,ATS,B,20
21,test,1,B,mfborder.png,1,z,Fri May 23 2025 17:59:07 GMT-0500 (Central Daylight Time),345659.59999999404,CFD-WF-011-006-HC.jpg,1000,dash,I,z,644,12,2,48001.59999999404,297658.0,8021,ATS,B,21
22,test,1,B,mfborder.png,1,m,Fri May 23 2025 17:59:07 GMT-0500 (Central Daylight Time),348075.5,CFD-WM-009-009-A.jpg,1700,dash,I,m,693,9,2,50417.5,297658.0,8021,ATS,B,22
23,test,1,B,mfborder.png,1,m,Fri May 23 2025 17:59:07 GMT-0500 (Central Daylight Time),350574.59999999404,CFD-BM-020-024-HC.jpg,1700,dash,I,m,763,1,2,52916.59999999404,297658.0,8021,ATS,B,23
24,test,1,B,mfborder.png,1,m,Fri May 23 2025 17:59:07 GMT-0500 (Central Daylight Time),353390.5,CFD-BM-037-041-A.jpg,2000,dash,I,m,783,5,2,55732.5,297658.0,8021,ATS,B,24
1,3,1,C,mfborder.png,1,z,Fri May 23 2025 17:59:07 GMT-0500 (Central Daylight Time),392478.3999999985,CFD-BF-035-007-HC.jpg,1000,dash,I,z,1098,prac,2,2889.8000000044703,389588.59999999404,8021,ATS,B,1
2,11,1,C,haborder.png,1,m,Fri May 23 2025 17:59:07 GMT-0500 (Central Daylight Time),395477.3999999985,CFD-WM-011-006-HC.jpg,1000,dash,I,m,1207,prac,2,5888.80000000447,389588.59999999404,8021,ATS,B,2
3,2,1,C,mfborder.png,1,z,Fri May 23 2025 17:59:07 GMT-0500 (Central Daylight Time),398643.0,CFD-WF-013-015-A.jpg,1500,solid,I,z,868,prac,2,9054.40000000596,389588.59999999404,8021,ATS,B,3
4,10,1,C,haborder.png,1,m,Fri May 23 2025 17:59:07 GMT-0500 (Central Daylight Time),401725.5,CFD-BM-020-024-HC.jpg,1500,solid,I,m,799,prac,2,12136.90000000596,389588.59999999404,8021,ATS,B,4
5,9,1,C,haborder.png,1,z,Fri May 23 2025 17:59:07 GMT-0500 (Central Daylight Time),404991.299999997,CFD-WF-026-008-A.jpg,1600,dash,I,z,872,prac,2,15402.70000000298,389588.59999999404,8021,ATS,B,5
6,4,1,C,mfborder.png,1,m,Fri May 23 2025 17:59:07 GMT-0500 (Central Daylight Time),408506.59999999404,CFD-BM-015-017-HC.jpg,2000,solid,I,m,727,prac,2,18918.0,389588.59999999404,8021,ATS,B,6
7,7,1,C,haborder.png,1,z,Fri May 23 2025 17:59:07 GMT-0500 (Central Daylight Time),412272.19999999553,CFD-BF-051-043-A.jpg,1900,dash,I,z,1072,prac,2,22683.60000000149,389588.59999999404,8021,ATS,B,7
7,5,1,C,mfborder.png,0,m,Fri May 23 2025 17:59:07 GMT-0500 (Central Daylight Time),415287.799999997,CFD-BM-037-041-A.jpg,1200,dash,I,z,1021,prac,2,25699.20000000298,389588.59999999404,8021,ATS,B,8
8,8,1,C,haborder.png,1,z,Fri May 23 2025 17:59:07 GMT-0500 (Central Daylight Time),419170.69999999553,CFD-BF-050-012-A.jpg,1700,solid,I,z,1403,prac,2,29582.10000000149,389588.59999999404,8021,ATS,B,9
9,1,1,C,mfborder.png,1,z,Fri May 23 2025 17:59:07 GMT-0500 (Central Daylight Time),422585.299999997,CFD-WF-011-006-HC.jpg,1600,dash,I,z,1028,prac,2,32996.70000000298,389588.59999999404,8021,ATS,B,10
9,12,1,C,haborder.png,0,m,Fri May 23 2025 17:59:07 GMT-0500 (Central Daylight Time),426284.299999997,CFD-WM-011-006-HC.jpg,1400,solid,I,None,1516,prac,2,36695.70000000298,389588.59999999404,8021,ATS,B,11
10,6,1,C,mfborder.png,1,m,Fri May 23 2025 17:59:07 GMT-0500 (Central Daylight Time),429866.5,CFD-WM-009-009-A.jpg,1700,solid,I,m,1086,prac,2,40277.90000000596,389588.59999999404,8021,ATS,B,12
1,test,1,C,mfborder.png,1,m,Fri May 23 2025 17:59:07 GMT-0500 (Central Daylight Time),439963.5,CFD-WM-012-007-HC.jpg,1000,dash,I,m,910,4,2,1932.8000000044703,438030.69999999553,8021,ATS,B,1
2,test,1,C,mfborder.png,1,z,Fri May 23 2025 17:59:07 GMT-0500 (Central Daylight Time),442696.0,CFD-WF-026-008-A.jpg,1500,dash,I,z,1206,3,2,4665.30000000447,438030.69999999553,8021,ATS,B,2
2,test,1,C,haborder.png,0,m,Fri May 23 2025 17:59:07 GMT-0500 (Central Daylight Time),445261.59999999404,CFD-BF-035-007-HC.jpg,1600,solid,I,z,941,10,2,7230.89999999851,438030.69999999553,8021,ATS,B,3
2,test,1,C,haborder.png,0,m,Fri May 23 2025 17:59:07 GMT-0500 (Central Daylight Time),447910.799999997,CFD-WF-027-007-HC.jpg,1500,solid,I,z,1132,11,2,9880.10000000149,438030.69999999553,8021,ATS,B,4
2,test,1,C,haborder.png,0,z,Fri May 23 2025 17:59:07 GMT-0500 (Central Daylight Time),450843.3999999985,CFD-WM-009-009-A.jpg,1400,solid,I,None,1515,7,2,12812.70000000298,438030.69999999553,8021,ATS,B,5
3,test,1,C,haborder.png,1,z,Fri May 23 2025 17:59:07 GMT-0500 (Central Daylight Time),453509.09999999404,CFD-BM-041-048-A.jpg,1700,solid,I,z,938,9,2,15478.39999999851,438030.69999999553,8021,ATS,B,6
3,test,1,C,haborder.png,0,m,Fri May 23 2025 17:59:07 GMT-0500 (Central Daylight Time),456125.19999999553,CFD-WF-027-007-HC.jpg,1500,solid,I,z,1092,11,2,18094.5,438030.69999999553,8021,ATS,B,7
3,test,1,C,haborder.png,0,m,Fri May 23 2025 17:59:07 GMT-0500 (Central Daylight Time),458657.59999999404,CFD-WF-011-006-HC.jpg,1000,solid,I,None,1516,12,2,20626.89999999851,438030.69999999553,8021,ATS,B,8
4,test,1,C,haborder.png,1,m,Fri May 23 2025 17:59:07 GMT-0500 (Central Daylight Time),461090.09999999404,CFD-BF-035-007-HC.jpg,1600,solid,I,m,710,10,2,23059.39999999851,438030.69999999553,8021,ATS,B,9
4,test,1,C,mfborder.png,0,m,Fri May 23 2025 17:59:07 GMT-0500 (Central Daylight Time),463422.799999997,CFD-WM-012-007-HC.jpg,1000,dash,I,z,1308,4,2,25392.10000000149,438030.69999999553,8021,ATS,B,10
5,test,1,C,haborder.png,1,z,Fri May 23 2025 17:59:07 GMT-0500 (Central Daylight Time),466571.59999999404,CFD-BM-037-041-A.jpg,1900,solid,I,z,1226,8,2,28540.89999999851,438030.69999999553,8021,ATS,B,11
5,test,1,C,mfborder.png,0,z,Fri May 23 2025 17:59:07 GMT-0500 (Central Daylight Time),469704.0,CFD-BF-051-043-A.jpg,1600,dash,I,None,1516,2,2,31673.30000000447,438030.69999999553,8021,ATS,B,12
6,test,1,C,mfborder.png,1,m,Fri May 23 2025 17:59:07 GMT-0500 (Central Daylight Time),472087.8999999985,CFD-BM-020-024-HC.jpg,1200,dash,I,m,1150,6,2,34057.20000000298,438030.69999999553,8021,ATS,B,13
7,test,1,C,haborder.png,1,z,Fri May 23 2025 17:59:07 GMT-0500 (Central Daylight Time),475285.69999999553,CFD-BM-041-048-A.jpg,1700,solid,I,z,1475,9,2,37255.0,438030.69999999553,8021,ATS,B,14
7,test,1,C,haborder.png,0,z,Fri May 23 2025 17:59:07 GMT-0500 (Central Daylight Time),478718.0,CFD-BM-037-041-A.jpg,1900,solid,I,None,1516,8,2,40687.30000000447,438030.69999999553,8021,ATS,B,15
8,test,1,C,mfborder.png,1,z,Fri May 23 2025 17:59:07 GMT-0500 (Central Daylight Time),481618.19999999553,CFD-BF-027-013-HC.jpg,1700,dash,I,z,1180,1,2,43587.5,438030.69999999553,8021,ATS,B,16
8,test,1,C,mfborder.png,0,z,Fri May 23 2025 17:59:07 GMT-0500 (Central Daylight Time),484449.3999999985,CFD-WF-026-008-A.jpg,1500,dash,I,m,1306,3,2,46418.70000000298,438030.69999999553,8021,ATS,B,17
9,test,1,C,mfborder.png,1,m,Fri May 23 2025 17:59:07 GMT-0500 (Central Daylight Time),487565.19999999553,CFD-WM-037-060-A.jpg,2000,dash,I,m,1085,5,2,49534.5,438030.69999999553,8021,ATS,B,18
10,test,1,C,mfborder.png,1,z,Fri May 23 2025 17:59:07 GMT-0500 (Central Daylight Time),490764.299999997,CFD-BF-027-013-HC.jpg,1700,dash,I,z,1468,1,2,52733.60000000149,438030.69999999553,8021,ATS,B,19
11,test,1,C,haborder.png,1,m,Fri May 23 2025 17:59:07 GMT-0500 (Central Daylight Time),492863.19999999553,CFD-WF-011-006-HC.jpg,1000,solid,I,m,1081,12,2,54832.5,438030.69999999553,8021,ATS,B,20
12,test,1,C,mfborder.png,1,m,Fri May 23 2025 17:59:07 GMT-0500 (Central Daylight Time),495212.799999997,CFD-BM-020-024-HC.jpg,1200,dash,I,m,1118,6,2,57182.10000000149,438030.69999999553,8021,ATS,B,21
12,test,1,C,mfborder.png,0,m,Fri May 23 2025 17:59:07 GMT-0500 (Central Daylight Time),498411.69999999553,CFD-WM-037-060-A.jpg,2000,dash,I,z,1178,5,2,60381.0,438030.69999999553,8021,ATS,B,22
13,test,1,C,haborder.png,1,z,Fri May 23 2025 17:59:07 GMT-0500 (Central Daylight Time),501277.3999999985,CFD-WM-009-009-A.jpg,1400,solid,I,z,1441,7,2,63246.70000000298,438030.69999999553,8021,ATS,B,23
14,test,1,C,mfborder.png,1,z,Fri May 23 2025 17:59:07 GMT-0500 (Central Daylight Time),504159.69999999553,CFD-BF-051-043-A.jpg,1600,dash,I,z,1265,2,2,66129.0,438030.69999999553,8021,ATS,B,24
0,test,2,C,mfborder.png,0,z,Fri May 23 2025 17:59:07 GMT-0500 (Central Daylight Time),516372.69999999553,CFD-WF-011-006-HC.jpg,1700,dash,I,m,1455,1,2,3181.89999999851,513190.799999997,8021,ATS,B,1
0,test,2,C,mfborder.png,0,m,Fri May 23 2025 17:59:07 GMT-0500 (Central Daylight Time),519905.19999999553,CFD-BM-037-041-A.jpg,2000,dash,I,None,1512,5,2,6714.39999999851,513190.799999997,8021,ATS,B,2
1,test,2,C,haborder.png,1,m,Fri May 23 2025 17:59:07 GMT-0500 (Central Daylight Time),522020.8999999985,CFD-WM-011-006-HC.jpg,1000,solid,I,m,1092,12,2,8830.10000000149,513190.799999997,8021,ATS,B,3
2,test,2,C,haborder.png,1,z,Fri May 23 2025 17:59:07 GMT-0500 (Central Daylight Time),524719.799999997,CFD-WF-026-008-A.jpg,1700,solid,I,z,978,9,2,11529.0,513190.799999997,8021,ATS,B,4
3,test,2,C,mfborder.png,1,m,Fri May 23 2025 17:59:07 GMT-0500 (Central Daylight Time),526936.0,CFD-WM-009-009-A.jpg,1200,dash,I,m,997,6,2,13745.20000000298,513190.799999997,8021,ATS,B,5
4,test,2,C,haborder.png,1,z,Fri May 23 2025 17:59:07 GMT-0500 (Central Daylight Time),529468.8999999985,CFD-BF-051-043-A.jpg,1400,solid,I,z,1101,7,2,16278.10000000149,513190.799999997,8021,ATS,B,6
4,test,2,C,mfborder.png,0,z,Fri May 23 2025 17:59:07 GMT-0500 (Central Daylight Time),532534.5,CFD-BF-035-007-HC.jpg,1500,dash,I,None,1506,3,2,19343.70000000298,513190.799999997,8021,ATS,B,7
5,test,2,C,haborder.png,1,m,Fri May 23 2025 17:59:07 GMT-0500 (Central Daylight Time),535166.6999999955,CFD-BM-020-024-HC.jpg,1600,solid,I,m,999,10,2,21975.89999999851,513190.799999997,8021,ATS,B,8
6,test,2,C,mfborder.png,1,m,Fri May 23 2025 17:59:07 GMT-0500 (Central Daylight Time),537116.1999999955,CFD-BM-015-017-HC.jpg,1000,dash,I,m,926,4,2,23925.39999999851,513190.799999997,8021,ATS,B,9
7,test,2,C,mfborder.png,1,z,Fri May 23 2025 17:59:07 GMT-0500 (Central Daylight Time),539782.1999999955,CFD-WF-013-015-A.jpg,1600,dash,I,z,1033,2,2,26591.39999999851,513190.799999997,8021,ATS,B,10
8,test,2,C,haborder.png,1,z,Fri May 23 2025 17:59:07 GMT-0500 (Central Daylight Time),542597.5,CFD-BF-050-012-A.jpg,1900,solid,I,z,883,8,2,29406.70000000298,513190.799999997,8021,ATS,B,11
9,test,2,C,haborder.png,1,z,Fri May 23 2025 17:59:07 GMT-0500 (Central Daylight Time),545413.5,CFD-WF-026-008-A.jpg,1700,solid,I,z,1083,9,2,32222.70000000298,513190.799999997,8021,ATS,B,12
9,test,2,C,haborder.png,0,m,Fri May 23 2025 17:59:07 GMT-0500 (Central Daylight Time),548112.6999999955,CFD-WM-011-006-HC.jpg,1500,solid,I,z,1168,11,2,34921.89999999851,513190.799999997,8021,ATS,B,13
10,test,2,C,mfborder.png,1,m,Fri May 23 2025 17:59:07 GMT-0500 (Central Daylight Time),549978.799999997,CFD-BM-015-017-HC.jpg,1000,dash,I,m,846,4,2,36788.0,513190.799999997,8021,ATS,B,14
11,test,2,C,haborder.png,1,z,Fri May 23 2025 17:59:07 GMT-0500 (Central Daylight Time),552294.799999997,CFD-BF-051-043-A.jpg,1400,solid,I,z,883,7,2,39104.0,513190.799999997,8021,ATS,B,15
12,test,2,C,mfborder.png,1,z,Fri May 23 2025 17:59:07 GMT-0500 (Central Daylight Time),554894.0,CFD-BF-035-007-HC.jpg,1500,dash,I,z,1067,3,2,41703.20000000298,513190.799999997,8021,ATS,B,16
13,test,2,C,mfborder.png,1,m,Fri May 23 2025 17:59:07 GMT-0500 (Central Daylight Time),558093.0,CFD-BM-037-041-A.jpg,2000,dash,I,m,1167,5,2,44902.20000000298,513190.799999997,8021,ATS,B,17
14,test,2,C,haborder.png,1,m,Fri May 23 2025 17:59:07 GMT-0500 (Central Daylight Time),559979.0,CFD-WM-011-006-HC.jpg,1000,solid,I,m,865,12,2,46788.20000000298,513190.799999997,8021,ATS,B,18
15,test,2,C,haborder.png,1,z,Fri May 23 2025 17:59:07 GMT-0500 (Central Daylight Time),562675.0,CFD-BF-050-012-A.jpg,1900,solid,I,z,778,8,2,49484.20000000298,513190.799999997,8021,ATS,B,19
15,test,2,C,mfborder.png,0,z,Fri May 23 2025 17:59:07 GMT-0500 (Central Daylight Time),565907.3999999985,CFD-WF-011-006-HC.jpg,1700,dash,I,None,1516,1,2,52716.60000000149,513190.799999997,8021,ATS,B,20
16,test,2,C,haborder.png,1,m,Fri May 23 2025 17:59:07 GMT-0500 (Central Daylight Time),568056.599999994,CFD-WM-011-006-HC.jpg,1500,solid,I,m,622,11,2,54865.79999999702,513190.799999997,8021,ATS,B,21
17,test,2,C,haborder.png,1,m,Fri May 23 2025 17:59:07 GMT-0500 (Central Daylight Time),570522.299999997,CFD-BM-020-024-HC.jpg,1600,solid,I,m,845,10,2,57331.5,513190.799999997,8021,ATS,B,22
17,test,2,C,mfborder.png,0,m,Fri May 23 2025 17:59:07 GMT-0500 (Central Daylight Time),572721.6999999955,CFD-WM-009-009-A.jpg,1200,dash,I,z,967,6,2,59530.89999999851,513190.799999997,8021,ATS,B,23
18,test,2,C,mfborder.png,1,z,Fri May 23 2025 17:59:07 GMT-0500 (Central Daylight Time),575387.5,CFD-WF-013-015-A.jpg,1600,dash,I,z,1036,2,2,62196.70000000298,513190.799999997,8021,ATS,B,24
1,test,3,C,mfborder.png,1,m,Fri May 23 2025 17:59:07 GMT-0500 (Central Daylight Time),584001.599999994,CFD-WM-012-007-HC.jpg,1000,dash,I,m,1034,4,2,2066.0,581935.599999994,8021,ATS,B,1
1,test,3,C,haborder.png,0,m,Fri May 23 2025 17:59:07 GMT-0500 (Central Daylight Time),585951.099999994,CFD-WF-011-006-HC.jpg,1000,solid,I,z,920,12,2,4015.5,581935.599999994,8021,ATS,B,2
1,test,3,C,haborder.png,0,z,Fri May 23 2025 17:59:07 GMT-0500 (Central Daylight Time),589383.3999999985,CFD-BM-037-041-A.jpg,1900,solid,I,None,1515,8,2,7447.80000000447,581935.599999994,8021,ATS,B,3
1,test,3,C,haborder.png,0,z,Fri May 23 2025 17:59:07 GMT-0500 (Central Daylight Time),591982.5,CFD-BM-041-048-A.jpg,1700,solid,I,m,869,9,2,10046.90000000596,581935.599999994,8021,ATS,B,4
1,test,3,C,haborder.png,0,z,Fri May 23 2025 17:59:07 GMT-0500 (Central Daylight Time),594681.599999994,CFD-BM-037-041-A.jpg,1900,solid,I,m,779,8,2,12746.0,581935.599999994,8021,ATS,B,5
2,test,3,C,haborder.png,1,m,Fri May 23 2025 17:59:07 GMT-0500 (Central Daylight Time),596697.599999994,CFD-WF-011-006-HC.jpg,1000,solid,I,m,996,12,2,14762.0,581935.599999994,8021,ATS,B,6
3,test,3,C,haborder.png,1,m,Fri May 23 2025 17:59:07 GMT-0500 (Central Daylight Time),599046.5,CFD-WF-027-007-HC.jpg,1500,solid,I,m,832,11,2,17110.90000000596,581935.599999994,8021,ATS,B,7
4,test,3,C,mfborder.png,1,z,Fri May 23 2025 17:59:07 GMT-0500 (Central Daylight Time),601362.799999997,CFD-WF-026-008-A.jpg,1500,dash,I,z,795,3,2,19427.20000000298,581935.599999994,8021,ATS,B,8
5,test,3,C,mfborder.png,1,z,Fri May 23 2025 17:59:07 GMT-0500 (Central Daylight Time),604111.799999997,CFD-BF-027-013-HC.jpg,1700,dash,I,z,1024,1,2,22176.20000000298,581935.599999994,8021,ATS,B,9
5,test,3,C,mfborder.png,0,z,Fri May 23 2025 17:59:07 GMT-0500 (Central Daylight Time),606894.599999994,CFD-BF-027-013-HC.jpg,1700,dash,I,m,1054,1,2,24959.0,581935.599999994,8021,ATS,B,10
5,test,3,C,haborder.png,0,m,Fri May 23 2025 17:59:07 GMT-0500 (Central Daylight Time),609343.3999999985,CFD-BF-035-007-HC.jpg,1600,solid,I,z,831,10,2,27407.80000000447,581935.599999994,8021,ATS,B,11
6,test,3,C,mfborder.png,1,m,Fri May 23 2025 17:59:07 GMT-0500 (Central Daylight Time),611360.6999999955,CFD-BM-020-024-HC.jpg,1200,dash,I,m,798,6,2,29425.10000000149,581935.599999994,8021,ATS,B,12
6,test,3,C,haborder.png,0,z,Fri May 23 2025 17:59:07 GMT-0500 (Central Daylight Time),613608.799999997,CFD-WM-009-009-A.jpg,1400,solid,I,m,831,7,2,31673.20000000298,581935.599999994,8021,ATS,B,13
7,test,3,C,haborder.png,1,z,Fri May 23 2025 17:59:07 GMT-0500 (Central Daylight Time),615875.0,CFD-BM-041-048-A.jpg,1700,solid,I,z,536,9,2,33939.40000000596,581935.599999994,8021,ATS,B,14
7,test,3,C,haborder.png,0,m,Fri May 23 2025 17:59:07 GMT-0500 (Central Daylight Time),618440.799999997,CFD-BF-035-007-HC.jpg,1600,solid,I,z,938,10,2,36505.20000000298,581935.599999994,8021,ATS,B,15
8,test,3,C,mfborder.png,1,m,Fri May 23 2025 17:59:07 GMT-0500 (Central Daylight Time),620641.099999994,CFD-WM-012-007-HC.jpg,1000,dash,I,m,1180,4,2,38705.5,581935.599999994,8021,ATS,B,16
9,test,3,C,mfborder.png,1,z,Fri May 23 2025 17:59:07 GMT-0500 (Central Daylight Time),623222.799999997,CFD-BF-051-043-A.jpg,1600,dash,I,z,957,2,2,41287.20000000298,581935.599999994,8021,ATS,B,17
10,test,3,C,mfborder.png,1,z,Fri May 23 2025 17:59:07 GMT-0500 (Central Daylight Time),625788.599999994,CFD-WF-026-008-A.jpg,1500,dash,I,z,1044,3,2,43853.0,581935.599999994,8021,ATS,B,18
11,test,3,C,mfborder.png,1,m,Fri May 23 2025 17:59:07 GMT-0500 (Central Daylight Time),629004.1999999955,CFD-WM-037-060-A.jpg,2000,dash,I,m,1186,5,2,47068.60000000149,581935.599999994,8021,ATS,B,19
12,test,3,C,mfborder.png,1,m,Fri May 23 2025 17:59:07 GMT-0500 (Central Daylight Time),631686.8999999985,CFD-WM-037-060-A.jpg,2000,dash,I,m,666,5,2,49751.30000000447,581935.599999994,8021,ATS,B,20
12,test,3,C,haborder.png,0,m,Fri May 23 2025 17:59:07 GMT-0500 (Central Daylight Time),634219.299999997,CFD-WF-027-007-HC.jpg,1500,solid,I,z,1003,11,2,52283.70000000298,581935.599999994,8021,ATS,B,21
12,test,3,C,mfborder.png,0,z,Fri May 23 2025 17:59:07 GMT-0500 (Central Daylight Time),636784.8999999985,CFD-BF-051-043-A.jpg,1600,dash,I,m,938,2,2,54849.30000000447,581935.599999994,8021,ATS,B,22
12,test,3,C,haborder.png,0,z,Fri May 23 2025 17:59:07 GMT-0500 (Central Daylight Time),639234.3999999985,CFD-WM-009-009-A.jpg,1400,solid,I,m,1022,7,2,57298.80000000447,581935.599999994,8021,ATS,B,23
13,test,3,C,mfborder.png,1,m,Fri May 23 2025 17:59:07 GMT-0500 (Central Daylight Time),641250.3999999985,CFD-BM-020-024-HC.jpg,1200,dash,I,m,795,6,2,59314.80000000447,581935.599999994,8021,ATS,B,24
0,test,4,C,haborder.png,0,m,Fri May 23 2025 17:59:07 GMT-0500 (Central Daylight Time),650530.799999997,CFD-BM-020-024-HC.jpg,1600,solid,I,None,1512,10,2,3132.2999999970198,647398.5,8021,ATS,B,1
1,test,4,C,haborder.png,1,z,Fri May 23 2025 17:59:07 GMT-0500 (Central Daylight Time),653079.8999999985,CFD-WF-026-008-A.jpg,1700,solid,I,z,832,9,2,5681.39999999851,647398.5,8021,ATS,B,2
2,test,4,C,haborder.png,1,m,Fri May 23 2025 17:59:07 GMT-0500 (Central Daylight Time),655562.3999999985,CFD-BM-020-024-HC.jpg,1600,solid,I,m,854,10,2,8163.89999999851,647398.5,8021,ATS,B,3
3,test,4,C,haborder.png,1,z,Fri May 23 2025 17:59:07 GMT-0500 (Central Daylight Time),658678.3999999985,CFD-BF-050-012-A.jpg,1900,solid,I,z,1195,8,2,11279.89999999851,647398.5,8021,ATS,B,4
3,test,4,C,haborder.png,0,z,Fri May 23 2025 17:59:07 GMT-0500 (Central Daylight Time),661344.0,CFD-BF-051-043-A.jpg,1400,solid,I,m,1247,7,2,13945.5,647398.5,8021,ATS,B,5
4,test,4,C,mfborder.png,1,m,Fri May 23 2025 17:59:07 GMT-0500 (Central Daylight Time),664809.599999994,CFD-BM-037-041-A.jpg,2000,dash,I,m,1439,5,2,17411.09999999404,647398.5,8021,ATS,B,6
5,test,4,C,mfborder.png,1,z,Fri May 23 2025 17:59:07 GMT-0500 (Central Daylight Time),667442.099999994,CFD-WF-013-015-A.jpg,1600,dash,I,z,1013,2,2,20043.59999999404,647398.5,8021,ATS,B,7
6,test,4,C,haborder.png,1,m,Fri May 23 2025 17:59:07 GMT-0500 (Central Daylight Time),670224.6999999955,CFD-WM-011-006-HC.jpg,1500,solid,I,m,1263,11,2,22826.19999999553,647398.5,8021,ATS,B,8
7,test,4,C,haborder.png,1,m,Fri May 23 2025 17:59:07 GMT-0500 (Central Daylight Time),672157.099999994,CFD-WM-011-006-HC.jpg,1000,solid,I,m,910,12,2,24758.59999999404,647398.5,8021,ATS,B,9
8,test,4,C,haborder.png,1,m,Fri May 23 2025 17:59:07 GMT-0500 (Central Daylight Time),674356.5,CFD-WM-011-006-HC.jpg,1500,solid,I,m,677,11,2,26958.0,647398.5,8021,ATS,B,10
9,test,4,C,mfborder.png,1,z,Fri May 23 2025 17:59:07 GMT-0500 (Central Daylight Time),677055.6999999955,CFD-WF-011-006-HC.jpg,1700,dash,I,z,981,1,2,29657.19999999553,647398.5,8021,ATS,B,11
10,test,4,C,mfborder.png,1,z,Fri May 23 2025 17:59:07 GMT-0500 (Central Daylight Time),679505.0,CFD-BF-035-007-HC.jpg,1500,dash,I,z,930,3,2,32106.5,647398.5,8021,ATS,B,12
11,test,4,C,mfborder.png,1,z,Fri May 23 2025 17:59:07 GMT-0500 (Central Daylight Time),681787.5,CFD-BF-035-007-HC.jpg,1500,dash,I,z,756,3,2,34389.0,647398.5,8021,ATS,B,13
12,test,4,C,mfborder.png,1,m,Fri May 23 2025 17:59:07 GMT-0500 (Central Daylight Time),684753.5,CFD-BM-037-041-A.jpg,2000,dash,I,m,946,5,2,37355.0,647398.5,8021,ATS,B,14
13,test,4,C,mfborder.png,1,m,Fri May 23 2025 17:59:07 GMT-0500 (Central Daylight Time),686669.3999999985,CFD-BM-015-017-HC.jpg,1000,dash,I,m,893,4,2,39270.89999999851,647398.5,8021,ATS,B,15
14,test,4,C,mfborder.png,1,z,Fri May 23 2025 17:59:07 GMT-0500 (Central Daylight Time),689235.3999999985,CFD-WF-013-015-A.jpg,1600,dash,I,z,936,2,2,41836.89999999851,647398.5,8021,ATS,B,16
15,test,4,C,haborder.png,1,z,Fri May 23 2025 17:59:07 GMT-0500 (Central Daylight Time),692200.8999999985,CFD-WF-026-008-A.jpg,1700,solid,I,z,1238,9,2,44802.39999999851,647398.5,8021,ATS,B,17
16,test,4,C,mfborder.png,1,m,Fri May 23 2025 17:59:07 GMT-0500 (Central Daylight Time),694250.299999997,CFD-WM-009-009-A.jpg,1200,dash,I,m,829,6,2,46851.79999999702,647398.5,8021,ATS,B,18
16,test,4,C,haborder.png,0,z,Fri May 23 2025 17:59:07 GMT-0500 (Central Daylight Time),697149.5,CFD-BF-051-043-A.jpg,1400,solid,I,m,1443,7,2,49751.0,647398.5,8021,ATS,B,19
17,test,4,C,haborder.png,1,m,Fri May 23 2025 17:59:07 GMT-0500 (Central Daylight Time),699198.799999997,CFD-WM-011-006-HC.jpg,1000,solid,I,m,1032,12,2,51800.29999999702,647398.5,8021,ATS,B,20
17,test,4,C,mfborder.png,0,z,Fri May 23 2025 17:59:07 GMT-0500 (Central Daylight Time),702431.099999994,CFD-WF-011-006-HC.jpg,1700,dash,I,None,1516,1,2,55032.59999999404,647398.5,8021,ATS,B,21
18,test,4,C,haborder.png,1,z,Fri May 23 2025 17:59:07 GMT-0500 (Central Daylight Time),705230.299999997,CFD-BF-050-012-A.jpg,1900,solid,I,z,874,8,2,57831.79999999702,647398.5,8021,ATS,B,22
19,test,4,C,mfborder.png,1,m,Fri May 23 2025 17:59:07 GMT-0500 (Central Daylight Time),706946.5,CFD-BM-015-017-HC.jpg,1000,dash,I,m,684,4,2,59548.0,647398.5,8021,ATS,B,23
20,test,4,C,mfborder.png,1,m,Fri May 23 2025 17:59:07 GMT-0500 (Central Daylight Time),709098.5,CFD-WM-009-009-A.jpg,1200,dash,I,m,935,6,2,61700.0,647398.5,8021,ATS,B,24
