acc_sum,block,block_c,condition,correct,correct_response,datetime,endtime,flanker,jitter,project,response,response_test_buffer_response,response_test_target_response,response_time,response_time_test_buffer_response,response_time_test_target_response,row_sel,session_number,start_end,starttime,subject_id,target,task,task_vers,time_test_buffer,time_test_buffer_response,time_test_constants,time_test_flanker,time_test_jitter,time_test_logger,time_test_target,time_test_target_response,time_test_variables,trial
1,prac,1,con,1,z,Mon Aug 12 2024 09:01:11 GMT-0500 (Central Daylight Time),172381.5,lime,800,I,z,,,1602,,,5,1,3709.4000000059605,168672.09999999404,7000,lime,NF,B,,,,,,,,,,1
2,prac,1,inc,1,m,Mon Aug 12 2024 09:01:11 GMT-0500 (Central Daylight Time),176280.40000000596,pear,900,I,m,,,1682,,,14,1,3893.9000000059605,172386.5,7000,iron,NF,B,,,,,,,,,,2
2,prac,1,inc,0,m,Mon Aug 12 2024 09:01:11 GMT-0500 (Central Daylight Time),181445.09999999404,raisin,1100,I,None,,,1799,,,12,1,5159.5,176285.59999999404,7000,cobalt,NF,B,,,,,,,,,,3
2,prac,1,inc,0,z,Mon Aug 12 2024 09:01:11 GMT-0500 (Central Daylight Time),186609.90000000596,cobalt,1100,I,None,,,1799,,,4,1,5160.300000011921,181449.59999999404,7000,raisin,NF,B,,,,,,,,,,4
2,prac,1,con,0,m,Mon Aug 12 2024 09:01:11 GMT-0500 (Central Daylight Time),191475.09999999404,gold,800,I,None,,,1799,,,13,1,4858.799999982119,186616.30000001192,7000,gold,NF,B,,,,,,,,,,5
3,prac,1,inc,1,m,Mon Aug 12 2024 09:01:11 GMT-0500 (Central Daylight Time),194857.5,cherry,900,I,m,,,1174,,,10,1,3377.9000000059605,191479.59999999404,7000,copper,NF,B,,,,,,,,,,6
4,prac,1,con,1,m,Mon Aug 12 2024 09:01:11 GMT-0500 (Central Daylight Time),198023.19999998808,bronze,800,I,m,,,1051,,,9,1,3161.0999999940395,194862.09999999404,7000,bronze,NF,B,,,,,,,,,,7
5,prac,1,con,1,m,Mon Aug 12 2024 09:01:11 GMT-0500 (Central Daylight Time),201438.90000000596,zinc,1000,I,m,,,1110,,,15,1,3411.9000000059605,198027.0,7000,zinc,NF,B,,,,,,,,,,8
6,prac,1,inc,1,z,Mon Aug 12 2024 09:01:11 GMT-0500 (Central Daylight Time),205154.30000001192,copper,900,I,z,,,1506,,,2,1,3711.2000000178814,201443.09999999404,7000,cherry,NF,B,,,,,,,,,,9
7,prac,1,con,1,z,Mon Aug 12 2024 09:01:11 GMT-0500 (Central Daylight Time),208536.5,orange,1000,I,z,,,1074,,,3,1,3377.800000011921,205158.69999998808,7000,orange,NF,B,,,,,,,,,,10
8,prac,1,con,1,z,Mon Aug 12 2024 09:01:11 GMT-0500 (Central Daylight Time),211585.59999999404,banana,800,I,z,,,948,,,1,1,3044.5999999940395,208541.0,7000,banana,NF,B,,,,,,,,,,11
9,prac,1,con,1,z,Mon Aug 12 2024 09:01:11 GMT-0500 (Central Daylight Time),214501.5,kiwi,1000,I,z,,,612,,,7,1,2911.9000000059605,211589.59999999404,7000,kiwi,NF,B,,,,,,,,,,12
10,prac,1,inc,1,m,Mon Aug 12 2024 09:01:11 GMT-0500 (Central Daylight Time),217700.5,plum,1100,I,m,,,788,,,16,1,3194.800000011921,214505.69999998808,7000,lead,NF,B,,,,,,,,,,13
11,prac,1,inc,1,z,Mon Aug 12 2024 09:01:11 GMT-0500 (Central Daylight Time),220732.5,lead,1100,I,z,,,630,,,8,1,3028.199999988079,217704.30000001192,7000,plum,NF,B,,,,,,,,,,14
12,prac,1,inc,1,z,Mon Aug 12 2024 09:01:11 GMT-0500 (Central Daylight Time),223665.40000000596,iron,900,I,z,,,723,,,6,1,2928.0999999940395,220737.30000001192,7000,pear,NF,B,,,,,,,,,,15
13,prac,1,con,1,m,Mon Aug 12 2024 09:01:11 GMT-0500 (Central Daylight Time),226480.90000000596,silver,1000,I,m,,,515,,,11,1,2811.300000011921,223669.59999999404,7000,silver,NF,B,,,,,,,,,,16
1,test,1,con,1,z,Mon Aug 12 2024 09:01:11 GMT-0500 (Central Daylight Time),248024.09999999404,banana,1000,I,z,z,None,434,235.0,199.0,3,1,1979.199999988079,246044.90000000596,7000,banana,NF,B,242931,242931,241201,242214,241201,243180,242731,242731,243180,1
2,test,1,con,1,m,Mon Aug 12 2024 09:01:11 GMT-0500 (Central Daylight Time),249690.30000001192,lead,800,I,m,m,None,325,125.0,200.0,121,1,1662.1000000238419,248028.19999998808,7000,lead,NF,B,244713,244713,243184,243997,243185,244846,244513,244513,244846,2
3,test,1,con,1,z,Mon Aug 12 2024 09:01:11 GMT-0500 (Central Daylight Time),251722.90000000596,pear,1100,I,z,z,None,399,200.0,199.0,44,1,2028.5999999940395,249694.30000001192,7000,pear,NF,B,246679,246679,244850,245963,244851,246879,246480,246480,246879,3
4,test,1,inc,1,m,Mon Aug 12 2024 09:01:11 GMT-0500 (Central Daylight Time),253722.40000000596,kiwi,1000,I,m,m,None,458,258.0,200.0,119,1,1995.4000000059605,251727.0,7000,zinc,NF,B,248612,248612,246883,247905,246883,248878,248412,248412,248878,4
5,test,1,inc,1,z,Mon Aug 12 2024 09:01:11 GMT-0500 (Central Daylight Time),255821.40000000596,iron,900,I,z,z,None,662,463.0,199.0,38,1,2095.0999999940395,253726.30000001192,7000,lime,NF,B,250511,250511,248882,249795,248883,250978,250311,250312,250977,5
6,test,1,inc,1,m,Mon Aug 12 2024 09:01:11 GMT-0500 (Central Daylight Time),257621.0,lime,800,I,m,m,None,455,256.0,199.0,117,1,1795.699999988079,255825.30000001192,7000,zinc,NF,B,252511,252511,250981,251795,250981,252777,252311,252311,252777,6
7,test,1,con,1,m,Mon Aug 12 2024 09:01:11 GMT-0500 (Central Daylight Time),259687.19999998808,copper,900,I,m,m,None,629,429.0,200.0,74,1,2062.0999999940395,257625.09999999404,7000,copper,NF,B,254410,254410,252781,253694,252781,254843,254210,254210,254843,7
8,test,1,con,1,z,Mon Aug 12 2024 09:01:11 GMT-0500 (Central Daylight Time),261853.09999999404,kiwi,1100,I,z,z,None,522,322.0,200.0,52,1,2161.9000000059605,259691.19999998808,7000,kiwi,NF,B,256676,256676,254847,255960,254847,257009,256476,256476,257009,8
8,test,1,inc,0,z,Mon Aug 12 2024 09:01:11 GMT-0500 (Central Daylight Time),263902.40000000596,silver,1000,I,m,m,None,512,312.0,200.0,23,1,2045.2000000178814,261857.19999998808,7000,orange,NF,B,258742,258742,257013,258025,257014,259059,258542,258542,259058,9
9,test,1,inc,1,m,Mon Aug 12 2024 09:01:11 GMT-0500 (Central Daylight Time),266085.09999999404,cherry,900,I,m,m,None,746,547.0,199.0,70,1,2178.7999999821186,263906.3000000119,7000,bronze,NF,B,260691,260691,259062,259975,259063,261241,260492,260492,261241,10
10,test,1,inc,1,m,Mon Aug 12 2024 09:01:11 GMT-0500 (Central Daylight Time),268434.3000000119,orange,1000,I,m,m,None,801,601.0,200.0,87,1,2344.9000000059605,266089.40000000596,7000,silver,NF,B,262974,262974,261245,262258,261246,263590,262774,262774,263590,11
11,test,1,inc,1,m,Mon Aug 12 2024 09:01:11 GMT-0500 (Central Daylight Time),270866.8000000119,plum,1100,I,m,m,None,799,600.0,199.0,120,1,2428.800000011921,268438.0,7000,zinc,NF,B,265423,265423,263594,264707,263594,266023,265224,265224,266023,12
11,test,1,con,0,m,Mon Aug 12 2024 09:01:11 GMT-0500 (Central Daylight Time),273066.1999999881,gold,1000,I,z,z,None,657,458.0,199.0,99,1,2195.699999988079,270870.5,7000,gold,NF,B,267756,267756,266027,267040,266027,268222,267556,267556,268222,13
12,test,1,con,1,z,Mon Aug 12 2024 09:01:11 GMT-0500 (Central Daylight Time),275265.5,pear,800,I,z,z,None,852,652.0,200.0,41,1,2195.4000000059605,273070.09999999404,7000,pear,NF,B,269755,269755,268226,269039,268226,270422,269555,269555,270421,14
13,test,1,inc,1,z,Mon Aug 12 2024 09:01:11 GMT-0500 (Central Daylight Time),277564.59999999404,cobalt,1100,I,z,z,None,663,464.0,199.0,16,1,2295.5,275269.09999999404,7000,cherry,NF,B,272255,272255,270425,271538,270425,272721,272055,272055,272721,15
14,test,1,inc,1,m,Mon Aug 12 2024 09:01:11 GMT-0500 (Central Daylight Time),279647.5,banana,800,I,m,m,None,745,545.0,200.0,77,1,2079.0999999940395,277568.40000000596,7000,copper,NF,B,274254,274254,272724,273538,272725,274804,274054,274054,274804,16
15,test,1,con,1,m,Mon Aug 12 2024 09:01:11 GMT-0500 (Central Daylight Time),281780.1999999881,zinc,1000,I,m,m,None,596,381.0,215.0,115,1,2128.899999976158,279651.3000000119,7000,zinc,NF,B,276553,276553,274807,275820,274808,276936,276338,276338,276936,17
16,test,1,con,1,z,Mon Aug 12 2024 09:01:11 GMT-0500 (Central Daylight Time),283879.3000000119,cherry,1000,I,z,z,None,553,353.0,200.0,11,1,2095.100000023842,281784.1999999881,7000,cherry,NF,B,278669,278669,276940,277953,276940,279035,278469,278469,279035,18
17,test,1,con,1,m,Mon Aug 12 2024 09:01:11 GMT-0500 (Central Daylight Time),286078.5,zinc,1100,I,m,m,None,553,354.0,199.0,116,1,2195.300000011921,283883.1999999881,7000,zinc,NF,B,280868,280868,279039,280152,279039,281235,280669,280669,281235,19
18,test,1,inc,1,z,Mon Aug 12 2024 09:01:11 GMT-0500 (Central Daylight Time),287961.5,copper,900,I,z,z,None,441,242.0,199.0,22,1,1879.0,286082.5,7000,orange,NF,B,282868,282868,281239,282151,281239,283118,282668,282668,283117,20
18,test,1,con,0,z,Mon Aug 12 2024 09:01:11 GMT-0500 (Central Daylight Time),289727.5,kiwi,800,I,m,m,None,419,220.0,199.0,49,1,1760.9000000059605,287966.59999999404,7000,kiwi,NF,B,284651,284651,283123,283934,283123,284884,284451,284451,284884,21
19,test,1,con,1,z,Mon Aug 12 2024 09:01:11 GMT-0500 (Central Daylight Time),291643.5,cherry,900,I,z,z,None,473,273.0,200.0,10,1,1910.0999999940395,289733.40000000596,7000,cherry,NF,B,286517,286517,284889,285800,284890,286800,286316,286316,286800,22
20,test,1,con,1,m,Mon Aug 12 2024 09:01:11 GMT-0500 (Central Daylight Time),293343.0,bronze,800,I,m,m,None,360,161.0,199.0,65,1,1695.800000011921,291647.1999999881,7000,bronze,NF,B,288333,288333,286803,287616,286803,288499,288133,288133,288499,23
21,test,1,inc,1,m,Mon Aug 12 2024 09:01:11 GMT-0500 (Central Daylight Time),295658.90000000596,orange,1000,I,m,m,None,775,575.0,200.0,79,1,2312.0,293346.90000000596,7000,copper,NF,B,290232,290232,288503,289516,288503,290815,290032,290032,290815,24
22,test,1,con,1,m,Mon Aug 12 2024 09:01:11 GMT-0500 (Central Daylight Time),298024.6999999881,cobalt,900,I,m,m,None,927,727.0,200.0,90,1,2362.0,295662.6999999881,7000,cobalt,NF,B,292448,292448,290819,291732,290819,293181,292248,292248,293181,25
23,test,1,inc,1,z,Mon Aug 12 2024 09:01:11 GMT-0500 (Central Daylight Time),300507.1999999881,lead,1100,I,z,z,None,775,565.0,210.0,48,1,2478.2999999821186,298028.90000000596,7000,pear,NF,B,295097,295097,293185,294298,293185,295663,294887,294887,295663,26
24,test,1,inc,1,z,Mon Aug 12 2024 09:01:11 GMT-0500 (Central Daylight Time),302773.40000000596,cobalt,1100,I,z,z,None,628,429.0,199.0,24,1,2262.5999999940395,300510.8000000119,7000,orange,NF,B,297497,297497,295667,296780,295667,297929,297297,297297,297929,27
25,test,1,con,1,z,Mon Aug 12 2024 09:01:11 GMT-0500 (Central Daylight Time),304722.8000000119,banana,900,I,z,z,None,500,299.0,201.0,2,1,1945.5,302777.3000000119,7000,banana,NF,B,299564,299564,297933,298846,297934,299879,299362,299362,299879,28
26,test,1,inc,1,z,Mon Aug 12 2024 09:01:11 GMT-0500 (Central Daylight Time),306888.6999999881,iron,900,I,z,z,None,726,526.0,200.0,46,1,2162.2999999821186,304726.40000000596,7000,pear,NF,B,301512,301512,299882,300795,299883,302045,301312,301312,302045,29
27,test,1,con,1,z,Mon Aug 12 2024 09:01:11 GMT-0500 (Central Daylight Time),308871.5,kiwi,900,I,z,z,None,537,337.0,200.0,50,1,1978.9000000059605,306892.59999999404,7000,kiwi,NF,B,303678,303678,302049,302962,302049,304028,303478,303478,304027,30
28,test,1,con,1,z,Mon Aug 12 2024 09:01:11 GMT-0500 (Central Daylight Time),310970.8000000119,orange,900,I,z,z,None,657,458.0,199.0,18,1,2095.600000023842,308875.1999999881,7000,orange,NF,B,305661,305661,304031,304944,304031,306127,305461,305461,306127,31
29,test,1,con,1,z,Mon Aug 12 2024 09:01:11 GMT-0500 (Central Daylight Time),312820.3000000119,orange,800,I,z,z,None,514,314.0,200.0,17,1,1845.7000000178814,310974.59999999404,7000,orange,NF,B,307660,307660,306131,306943,306131,307976,307460,307460,307976,32
30,test,1,con,1,m,Mon Aug 12 2024 09:01:11 GMT-0500 (Central Daylight Time),314753.0,lead,900,I,m,m,None,508,293.0,215.0,122,1,1929.199999988079,312823.8000000119,7000,lead,NF,B,309609,309609,307980,308893,307980,309909,309394,309394,309909,33
31,test,1,con,1,m,Mon Aug 12 2024 09:01:11 GMT-0500 (Central Daylight Time),316885.59999999404,iron,1100,I,m,m,None,488,289.0,199.0,108,1,2128.9000000059605,314756.6999999881,7000,iron,NF,B,311742,311742,309913,311025,309913,312042,311543,311543,312042,34
32,test,1,inc,1,m,Mon Aug 12 2024 09:01:11 GMT-0500 (Central Daylight Time),319151.5,orange,1000,I,m,m,None,718,519.0,199.0,71,1,2262.0999999940395,316889.40000000596,7000,bronze,NF,B,313775,313775,312045,313058,312046,314308,313575,313575,314308,35
33,test,1,inc,1,m,Mon Aug 12 2024 09:01:11 GMT-0500 (Central Daylight Time),321400.8000000119,kiwi,1000,I,m,m,None,701,502.0,199.0,103,1,2245.4000000059605,319155.40000000596,7000,gold,NF,B,316041,316041,314311,315324,314312,316557,315841,315841,316557,36
34,test,1,con,1,m,Mon Aug 12 2024 09:01:11 GMT-0500 (Central Daylight Time),323246.90000000596,silver,800,I,m,m,None,513,313.0,200.0,81,1,1842.300000011921,321404.59999999404,7000,silver,NF,B,318090,318090,316561,317374,316561,318403,317890,317890,318403,37
35,test,1,inc,1,m,Mon Aug 12 2024 09:01:11 GMT-0500 (Central Daylight Time),325316.5,cherry,900,I,m,m,None,622,423.0,199.0,94,1,2065.300000011921,323251.1999999881,7000,cobalt,NF,B,320039,320040,318407,319323,318408,320473,319840,319840,320473,38
36,test,1,inc,1,z,Mon Aug 12 2024 09:01:11 GMT-0500 (Central Daylight Time),327482.40000000596,copper,900,I,z,z,None,725,526.0,199.0,30,1,2162.300000011921,325320.09999999404,7000,raisin,NF,B,322105,322105,320476,321389,320476,322638,321906,321906,322638,39
37,test,1,con,1,z,Mon Aug 12 2024 09:01:11 GMT-0500 (Central Daylight Time),329298.40000000596,banana,800,I,z,z,None,474,275.0,199.0,1,1,1811.9000000059605,327486.5,7000,banana,NF,B,324172,324172,322643,323455,322643,324454,323972,323972,324454,40
38,test,1,inc,1,m,Mon Aug 12 2024 09:01:11 GMT-0500 (Central Daylight Time),331581.09999999404,plum,1100,I,m,m,None,640,440.0,200.0,128,1,2279.0,329302.09999999404,7000,lead,NF,B,326287,326287,324458,325571,324458,326737,326087,326087,326737,41
39,test,1,con,1,m,Mon Aug 12 2024 09:01:11 GMT-0500 (Central Daylight Time),333463.6999999881,zinc,800,I,m,m,None,545,345.0,200.0,113,1,1879.0,331584.6999999881,7000,zinc,NF,B,328270,328270,326741,327554,326741,328620,328070,328070,328620,42
40,test,1,inc,1,z,Mon Aug 12 2024 09:01:11 GMT-0500 (Central Daylight Time),335579.59999999404,zinc,1000,I,z,z,None,582,382.0,200.0,47,1,2112.0,333467.59999999404,7000,pear,NF,B,330353,330353,328624,329636,328624,330736,330153,330153,330736,43
41,test,1,inc,1,z,Mon Aug 12 2024 09:01:11 GMT-0500 (Central Daylight Time),337712.59999999404,iron,900,I,z,z,None,685,485.0,200.0,54,1,2129.2999999821186,335583.3000000119,7000,kiwi,NF,B,332369,332369,330739,331653,330740,332869,332169,332169,332869,44
42,test,1,con,1,m,Mon Aug 12 2024 09:01:11 GMT-0500 (Central Daylight Time),339661.59999999404,bronze,1000,I,m,m,None,404,205.0,199.0,67,1,1945.2999999821186,337716.3000000119,7000,bronze,NF,B,334601,334602,332872,333885,332873,334818,334402,334402,334818,45
43,test,1,con,1,m,Mon Aug 12 2024 09:01:11 GMT-0500 (Central Daylight Time),341627.5,iron,800,I,m,m,None,632,432.0,200.0,105,1,1962.300000011921,339665.1999999881,7000,iron,NF,B,336351,336351,334821,335634,334821,336784,336151,336151,336784,46
44,test,1,con,1,m,Mon Aug 12 2024 09:01:11 GMT-0500 (Central Daylight Time),343694.0,gold,1100,I,m,m,None,421,222.0,199.0,100,1,2062.800000011921,341631.1999999881,7000,gold,NF,B,338617,338617,336787,337900,336787,338850,338417,338417,338850,47
45,test,1,inc,1,m,Mon Aug 12 2024 09:01:11 GMT-0500 (Central Daylight Time),345593.3000000119,banana,800,I,m,m,None,559,359.0,200.0,93,1,1895.6000000238419,343697.6999999881,7000,cobalt,NF,B,340383,340383,338854,339666,338854,340749,340183,340183,340749,48
46,test,1,inc,1,m,Mon Aug 12 2024 09:01:11 GMT-0500 (Central Daylight Time),347842.59999999404,raisin,1100,I,m,m,None,550,351.0,199.0,96,1,2245.5999999940395,345597.0,7000,cobalt,NF,B,342632,342632,340753,341929,340753,342999,342433,342433,342999,49
47,test,1,con,1,m,Mon Aug 12 2024 09:01:11 GMT-0500 (Central Daylight Time),350008.59999999404,cobalt,1100,I,m,m,None,517,318.0,199.0,92,1,2162.4000000059605,347846.1999999881,7000,cobalt,NF,B,344832,344832,343002,344115,343002,345165,344632,344632,345165,50
48,test,1,con,1,z,Mon Aug 12 2024 09:01:11 GMT-0500 (Central Daylight Time),352057.90000000596,lime,900,I,z,z,None,608,409.0,199.0,34,1,2045.5999999940395,350012.3000000119,7000,lime,NF,B,346798,346798,345168,346081,345169,347214,346598,346598,347214,51
48,test,1,con,0,m,Mon Aug 12 2024 09:01:11 GMT-0500 (Central Daylight Time),354173.8000000119,silver,1000,I,z,z,None,572,372.0,200.0,83,1,2112.300000011921,352061.5,7000,silver,NF,B,348947,348947,347218,348230,347218,349330,348747,348747,349330,52
49,test,1,con,1,m,Mon Aug 12 2024 09:01:11 GMT-0500 (Central Daylight Time),356373.3000000119,silver,900,I,m,m,None,764,564.0,200.0,82,1,2195.800000011921,354177.5,7000,silver,NF,B,350963,350963,349334,350246,349334,351529,350763,350763,351529,53
50,test,1,con,1,m,Mon Aug 12 2024 09:01:11 GMT-0500 (Central Daylight Time),358623.59999999404,iron,1000,I,m,m,None,704,504.0,200.0,107,1,2246.5999999940395,356377.0,7000,iron,NF,B,353262,353262,351533,352546,351533,353780,353062,353062,353780,54
51,test,1,con,1,z,Mon Aug 12 2024 09:01:11 GMT-0500 (Central Daylight Time),360988.5,plum,1100,I,z,z,None,731,532.0,199.0,60,1,2361.0,358627.5,7000,plum,NF,B,355611,355611,353784,354895,353784,356145,355412,355412,356145,55
51,test,1,inc,0,z,Mon Aug 12 2024 09:01:11 GMT-0500 (Central Daylight Time),363070.90000000596,lead,1100,I,m,m,None,446,246.0,200.0,64,1,2078.7000000178814,360992.1999999881,7000,plum,NF,B,357977,357977,356148,357261,356149,358227,357777,357777,358227,56
52,test,1,inc,1,z,Mon Aug 12 2024 09:01:11 GMT-0500 (Central Daylight Time),365136.90000000596,gold,800,I,z,z,None,725,525.0,200.0,53,1,2062.2000000178814,363074.6999999881,7000,kiwi,NF,B,359760,359761,358231,359044,358231,360293,359560,359560,360293,57
53,test,1,inc,1,m,Mon Aug 12 2024 09:01:11 GMT-0500 (Central Daylight Time),367353.09999999404,pear,900,I,m,m,None,775,576.0,199.0,110,1,2212.5999999940395,365140.5,7000,iron,NF,B,361926,361926,360297,361210,360297,362509,361727,361727,362509,58
54,test,1,inc,1,z,Mon Aug 12 2024 09:01:11 GMT-0500 (Central Daylight Time),369818.8000000119,lead,1100,I,z,z,None,833,633.0,200.0,56,1,2462.0,367356.8000000119,7000,kiwi,NF,B,364342,364342,362513,363626,362513,364975,364142,364142,364975,59
55,test,1,con,1,z,Mon Aug 12 2024 09:01:11 GMT-0500 (Central Daylight Time),371818.59999999404,raisin,800,I,z,z,None,658,458.0,200.0,25,1,1996.2999999821186,369822.3000000119,7000,raisin,NF,B,366508,366508,364978,365792,364979,366975,366308,366308,366974,60
56,test,1,inc,1,m,Mon Aug 12 2024 09:01:11 GMT-0500 (Central Daylight Time),374234.40000000596,raisin,1100,I,m,m,None,765,566.0,199.0,88,1,2411.9000000059605,371822.5,7000,silver,NF,B,368808,368808,366979,368091,366979,369390,368607,368608,369390,61
57,test,1,con,1,z,Mon Aug 12 2024 09:01:11 GMT-0500 (Central Daylight Time),376433.5,raisin,900,I,z,z,None,759,559.0,200.0,26,1,2195.4000000059605,374238.09999999404,7000,raisin,NF,B,371023,371024,369394,370307,369394,371590,370823,370823,371590,62
58,test,1,inc,1,m,Mon Aug 12 2024 09:01:11 GMT-0500 (Central Daylight Time),378699.5,kiwi,1000,I,m,m,None,722,523.0,199.0,111,1,2262.199999988079,376437.3000000119,7000,iron,NF,B,373323,373323,371593,372606,371594,373856,373123,373123,373856,63
59,test,1,inc,1,m,Mon Aug 12 2024 09:01:11 GMT-0500 (Central Daylight Time),381032.0,orange,1000,I,m,m,None,793,593.0,200.0,95,1,2328.9000000059605,378703.09999999404,7000,cobalt,NF,B,375589,375589,373859,374872,373859,376188,375388,375388,376188,64
60,test,1,con,1,m,Mon Aug 12 2024 09:01:11 GMT-0500 (Central Daylight Time),383148.0,copper,800,I,m,m,None,773,573.0,200.0,73,1,2112.0999999940395,381035.90000000596,7000,copper,NF,B,377721,377721,376192,377005,376192,378304,377521,377521,378304,65
61,test,1,inc,1,z,Mon Aug 12 2024 09:01:11 GMT-0500 (Central Daylight Time),385413.90000000596,zinc,1000,I,z,z,None,730,530.0,200.0,55,1,2262.0999999940395,383151.8000000119,7000,kiwi,NF,B,380037,380037,378308,379320,378308,380570,379837,379837,380570,66
62,test,1,inc,1,z,Mon Aug 12 2024 09:01:11 GMT-0500 (Central Daylight Time),387413.3000000119,bronze,800,I,z,z,None,655,455.0,200.0,29,1,1995.7000000178814,385417.59999999404,7000,raisin,NF,B,382103,382103,380574,381387,380574,382569,381903,381903,382569,67
63,test,1,con,1,m,Mon Aug 12 2024 09:01:11 GMT-0500 (Central Daylight Time),389695.8000000119,bronze,1100,I,m,m,None,642,443.0,199.0,68,1,2278.600000023842,387417.1999999881,7000,bronze,NF,B,384403,384403,382573,383686,382573,384852,384203,384203,384852,68
64,test,1,inc,1,z,Mon Aug 12 2024 09:01:11 GMT-0500 (Central Daylight Time),391728.6999999881,gold,800,I,z,z,None,685,485.0,200.0,37,1,2029.3999999761581,389699.3000000119,7000,lime,NF,B,386385,386385,384855,385668,384856,386885,386185,386185,386885,69
65,test,1,inc,1,m,Mon Aug 12 2024 09:01:11 GMT-0500 (Central Daylight Time),393837.0,lime,800,I,m,m,None,775,575.0,200.0,109,1,2104.800000011921,391732.1999999881,7000,iron,NF,B,388418,388418,386888,387701,386889,388993,388218,388218,388993,70
66,test,1,con,1,z,Mon Aug 12 2024 09:01:11 GMT-0500 (Central Daylight Time),395960.59999999404,orange,1100,I,z,z,None,486,286.0,200.0,20,1,2120.0999999940395,393840.5,7000,orange,NF,B,390817,390817,388997,390101,388997,391117,390617,390617,391117,71
67,test,1,inc,1,z,Mon Aug 12 2024 09:01:11 GMT-0500 (Central Daylight Time),398276.59999999404,silver,1000,I,z,z,None,780,580.0,200.0,31,1,2312.4000000059605,395964.1999999881,7000,raisin,NF,B,392850,392850,391120,392133,391120,393433,392650,392650,393433,72
68,test,1,con,1,z,Mon Aug 12 2024 09:01:11 GMT-0500 (Central Daylight Time),400259.1999999881,lime,1000,I,z,z,None,449,250.0,199.0,35,1,1979.199999988079,398280.0,7000,lime,NF,B,395165,395165,393436,394449,393436,395415,394966,394966,395415,73
69,test,1,inc,1,m,Mon Aug 12 2024 09:01:11 GMT-0500 (Central Daylight Time),402459.0,plum,1100,I,m,m,None,558,359.0,199.0,112,1,2196.5,400262.5,7000,iron,NF,B,397248,397248,395419,396532,395419,397615,397048,397049,397615,74
70,test,1,inc,1,m,Mon Aug 12 2024 09:01:11 GMT-0500 (Central Daylight Time),404657.90000000596,cherry,900,I,m,m,None,749,550.0,199.0,78,1,2195.5,402462.40000000596,7000,copper,NF,B,399248,399248,397618,398531,397619,399814,399048,399048,399814,75
71,test,1,inc,1,z,Mon Aug 12 2024 09:01:11 GMT-0500 (Central Daylight Time),406940.59999999404,cobalt,1100,I,z,z,None,648,448.0,200.0,8,1,2278.9000000059605,404661.6999999881,7000,banana,NF,B,401647,401647,399818,400930,399818,402097,401447,401447,402097,76
72,test,1,inc,1,z,Mon Aug 12 2024 09:01:11 GMT-0500 (Central Daylight Time),408973.09999999404,gold,800,I,z,z,None,697,497.0,200.0,45,1,2028.9000000059605,406944.1999999881,7000,pear,NF,B,403630,403630,402100,402913,402100,404129,403430,403430,404129,77
73,test,1,inc,1,m,Mon Aug 12 2024 09:01:11 GMT-0500 (Central Daylight Time),410906.0,lime,800,I,m,m,None,591,391.0,200.0,125,1,1929.0,408977.0,7000,lead,NF,B,405662,405663,404133,404946,404133,406062,405462,405462,406062,78
74,test,1,con,1,z,Mon Aug 12 2024 09:01:11 GMT-0500 (Central Daylight Time),412855.40000000596,plum,900,I,z,z,None,503,303.0,200.0,58,1,1945.9000000059605,410909.5,7000,plum,NF,B,407695,407695,406066,406978,406066,408011,407495,407495,408011,79
75,test,1,con,1,m,Mon Aug 12 2024 09:01:11 GMT-0500 (Central Daylight Time),414888.09999999404,iron,900,I,m,m,None,593,393.0,200.0,106,1,2029.199999988079,412858.90000000596,7000,iron,NF,B,409645,409645,408015,408928,408015,410044,409444,409444,410044,80
76,test,1,con,1,z,Mon Aug 12 2024 09:01:11 GMT-0500 (Central Daylight Time),416904.0,plum,1000,I,z,z,None,478,278.0,200.0,59,1,2012.199999988079,414891.8000000119,7000,plum,NF,B,411777,411777,410048,411061,410048,412060,411577,411577,412060,81
77,test,1,inc,1,m,Mon Aug 12 2024 09:01:11 GMT-0500 (Central Daylight Time),418886.6999999881,banana,800,I,m,m,None,638,438.0,200.0,85,1,1979.0999999940395,416907.59999999404,7000,silver,NF,B,413593,413593,412064,412877,412064,414043,413393,413393,414043,82
78,test,1,inc,1,m,Mon Aug 12 2024 09:01:11 GMT-0500 (Central Daylight Time),420919.59999999404,banana,800,I,m,m,None,686,486.0,200.0,69,1,2029.2999999821186,418890.3000000119,7000,bronze,NF,B,415576,415576,414046,414859,414047,416076,415376,415376,416076,83
79,test,1,con,1,m,Mon Aug 12 2024 09:01:11 GMT-0500 (Central Daylight Time),422868.6999999881,gold,900,I,m,m,None,505,305.0,200.0,98,1,1945.5999999940395,420923.09999999404,7000,gold,NF,B,417710,417710,416079,416992,416079,418025,417509,417509,418025,84
80,test,1,con,1,z,Mon Aug 12 2024 09:01:11 GMT-0500 (Central Daylight Time),424851.40000000596,raisin,1000,I,z,z,None,463,248.0,215.0,27,1,1978.9000000059605,422872.5,7000,raisin,NF,B,419758,419758,418029,419041,418029,420007,419543,419543,420007,85
81,test,1,inc,1,m,Mon Aug 12 2024 09:01:11 GMT-0500 (Central Daylight Time),427017.40000000596,raisin,1100,I,m,m,None,518,319.0,199.0,72,1,2162.4000000059605,424855.0,7000,bronze,NF,B,421840,421840,420011,421124,420011,422174,421641,421641,422173,86
82,test,1,con,1,z,Mon Aug 12 2024 09:01:11 GMT-0500 (Central Daylight Time),428900.3000000119,pear,900,I,z,z,None,440,241.0,199.0,42,1,1879.0,427021.3000000119,7000,pear,NF,B,423806,423806,422177,423090,422178,424056,423607,423607,424056,87
83,test,1,inc,1,z,Mon Aug 12 2024 09:01:11 GMT-0500 (Central Daylight Time),431100.59999999404,silver,1000,I,z,z,None,666,466.0,200.0,7,1,2196.699999988079,428903.90000000596,7000,banana,NF,B,425789,425789,424060,425073,424060,426257,425589,425589,426257,88
84,test,1,con,1,z,Mon Aug 12 2024 09:01:11 GMT-0500 (Central Daylight Time),432898.59999999404,plum,800,I,z,z,None,456,257.0,199.0,57,1,1794.0999999940395,431104.5,7000,plum,NF,B,427789,427789,426261,427072,426261,428055,427589,427589,428055,89
85,test,1,con,1,m,Mon Aug 12 2024 09:01:11 GMT-0500 (Central Daylight Time),434665.09999999404,cobalt,800,I,m,m,None,426,226.0,200.0,89,1,1762.7999999821186,432902.3000000119,7000,cobalt,NF,B,429588,429588,428058,428872,428059,429821,429388,429388,429821,90
86,test,1,con,1,m,Mon Aug 12 2024 09:01:11 GMT-0500 (Central Daylight Time),436581.1999999881,copper,1000,I,m,m,None,381,181.0,200.0,75,1,1912.3999999761581,434668.8000000119,7000,copper,NF,B,431554,431554,429825,430838,429825,431737,431354,431354,431737,91
87,test,1,inc,1,z,Mon Aug 12 2024 09:01:11 GMT-0500 (Central Daylight Time),438897.1999999881,cobalt,1100,I,z,z,None,668,468.0,200.0,32,1,2312.0999999940395,436585.09999999404,7000,raisin,NF,B,433570,433570,431741,432854,431741,434053,433370,433370,434053,92
88,test,1,con,1,m,Mon Aug 12 2024 09:01:11 GMT-0500 (Central Daylight Time),440970.59999999404,cobalt,1000,I,m,m,None,539,340.0,199.0,91,1,2069.699999988079,438900.90000000596,7000,cobalt,NF,B,435786,435786,434057,435070,434057,436127,435586,435587,436127,93
89,test,1,con,1,z,Mon Aug 12 2024 09:01:11 GMT-0500 (Central Daylight Time),442762.6999999881,pear,1000,I,z,z,None,267,67.0,200.0,43,1,1788.2999999821186,440974.40000000596,7000,pear,NF,B,437852,437852,436130,437136,436131,437919,437652,437652,437919,94
90,test,1,con,1,m,Mon Aug 12 2024 09:01:11 GMT-0500 (Central Daylight Time),444978.5,lead,1100,I,m,m,None,573,374.0,199.0,124,1,2212.199999988079,442766.3000000119,7000,lead,NF,B,439752,439752,437922,439035,437923,440135,439552,439552,440134,95
91,test,1,con,1,z,Mon Aug 12 2024 09:01:11 GMT-0500 (Central Daylight Time),446928.09999999404,orange,1000,I,z,z,None,410,211.0,199.0,19,1,1946.0,444982.09999999404,7000,orange,NF,B,441868,441868,440138,441151,440138,442084,441668,441668,442084,96
92,test,1,con,1,z,Mon Aug 12 2024 09:01:11 GMT-0500 (Central Daylight Time),449010.6999999881,banana,1100,I,z,z,None,450,250.0,200.0,4,1,2078.899999976158,446931.8000000119,7000,banana,NF,B,443917,443917,442088,443201,442088,444167,443717,443717,444167,97
93,test,1,inc,1,z,Mon Aug 12 2024 09:01:11 GMT-0500 (Central Daylight Time),450959.8000000119,bronze,800,I,z,z,None,609,410.0,199.0,13,1,1945.7000000178814,449014.09999999404,7000,cherry,NF,B,445700,445700,444170,444983,444170,446116,445500,445500,446116,98
94,test,1,con,1,m,Mon Aug 12 2024 09:01:11 GMT-0500 (Central Daylight Time),453075.90000000596,copper,1100,I,m,m,None,474,274.0,200.0,76,1,2112.5,450963.40000000596,7000,copper,NF,B,447949,447949,446119,447233,446120,448232,447749,447749,448232,99
95,test,1,inc,1,z,Mon Aug 12 2024 09:01:11 GMT-0500 (Central Daylight Time),455042.3000000119,bronze,800,I,z,z,None,625,426.0,199.0,21,1,1962.800000011921,453079.5,7000,orange,NF,B,449765,449765,448236,449048,448236,450198,449566,449566,450198,100
95,test,1,inc,0,z,Mon Aug 12 2024 09:01:11 GMT-0500 (Central Daylight Time),457124.6999999881,gold,800,I,m,m,None,739,539.0,200.0,61,1,2078.5999999940395,455046.09999999404,7000,plum,NF,B,451731,451731,450202,451015,450202,452281,451531,451531,452281,101
95,test,1,inc,0,m,Mon Aug 12 2024 09:01:11 GMT-0500 (Central Daylight Time),459024.0,pear,900,I,z,z,None,451,251.0,200.0,126,1,1895.800000011921,457128.1999999881,7000,lead,NF,B,453915,453915,452284,453198,452285,454180,453714,453714,454180,102
96,test,1,inc,1,z,Mon Aug 12 2024 09:01:11 GMT-0500 (Central Daylight Time),461291.1999999881,copper,900,I,z,z,None,816,617.0,199.0,14,1,2263.5,459027.6999999881,7000,cherry,NF,B,455813,455813,454184,455097,454184,456447,455614,455614,456447,103
97,test,1,con,1,z,Mon Aug 12 2024 09:01:11 GMT-0500 (Central Daylight Time),463406.09999999404,raisin,1100,I,z,z,None,472,272.0,200.0,28,1,2111.0,461295.09999999404,7000,raisin,NF,B,458279,458279,456451,457563,456451,458562,458079,458079,458562,104
98,test,1,con,1,z,Mon Aug 12 2024 09:01:11 GMT-0500 (Central Daylight Time),465172.09999999404,lime,800,I,z,z,None,424,224.0,200.0,33,1,1762.5,463409.59999999404,7000,lime,NF,B,460095,460095,458566,459380,458566,460328,459895,459895,460328,105
99,test,1,con,1,z,Mon Aug 12 2024 09:01:11 GMT-0500 (Central Daylight Time),467205.0,lime,1100,I,z,z,None,398,198.0,200.0,36,1,2029.300000011921,465175.6999999881,7000,lime,NF,B,462161,462161,460332,461445,460332,462361,461961,461961,462361,106
100,test,1,inc,1,m,Mon Aug 12 2024 09:01:11 GMT-0500 (Central Daylight Time),469354.3000000119,pear,900,I,m,m,None,700,500.0,200.0,118,1,2145.0,467209.3000000119,7000,zinc,NF,B,463994,463994,462365,463278,462366,464510,463794,463794,464510,107
100,test,1,inc,0,m,Mon Aug 12 2024 09:01:11 GMT-0500 (Central Daylight Time),471203.5,cherry,900,I,z,z,None,407,207.0,200.0,86,1,1845.0999999940395,469358.40000000596,7000,silver,NF,B,466143,466143,464514,465427,464515,466360,465943,465943,466359,108
100,test,1,con,0,z,Mon Aug 12 2024 09:01:11 GMT-0500 (Central Daylight Time),474835.8000000119,cherry,1100,I,None,None,None,1799,1799.0,199.0,12,1,3628.5,471207.3000000119,7000,cherry,NF,B,468193,468193,466363,467476,466364,469992,467993,467993,469992,109
101,test,1,inc,1,z,Mon Aug 12 2024 09:01:11 GMT-0500 (Central Daylight Time),477518.3000000119,iron,900,I,z,z,None,1238,1038.0,200.0,62,1,2678.800000011921,474839.5,7000,plum,NF,B,471625,471625,469996,470908,469996,472674,471425,471425,472674,110
102,test,1,inc,1,m,Mon Aug 12 2024 09:01:11 GMT-0500 (Central Daylight Time),479700.90000000596,raisin,1100,I,m,m,None,548,348.0,200.0,80,1,2178.5,477522.40000000596,7000,copper,NF,B,474507,474507,472678,473791,472679,474857,474307,474307,474857,111
103,test,1,inc,1,z,Mon Aug 12 2024 09:01:11 GMT-0500 (Central Daylight Time),481633.59999999404,bronze,800,I,z,z,None,593,393.0,200.0,5,1,1927.5999999940395,479706.0,7000,banana,NF,B,476390,476390,474862,475674,474862,476790,476190,476190,476790,112
104,test,1,con,1,m,Mon Aug 12 2024 09:01:11 GMT-0500 (Central Daylight Time),483716.0,silver,1100,I,m,m,None,440,240.0,200.0,84,1,2078.800000011921,481637.1999999881,7000,silver,NF,B,478622,478622,476793,477906,476794,478872,478422,478422,478872,113
105,test,1,con,1,m,Mon Aug 12 2024 09:01:11 GMT-0500 (Central Daylight Time),485482.3000000119,gold,800,I,m,m,None,425,225.0,200.0,97,1,1761.7000000178814,483720.59999999404,7000,gold,NF,B,480405,480405,478877,479689,478877,480638,480205,480205,480638,114
106,test,1,con,1,z,Mon Aug 12 2024 09:01:11 GMT-0500 (Central Daylight Time),487398.3000000119,cherry,800,I,z,z,None,579,379.0,200.0,9,1,1912.300000011921,485486.0,7000,cherry,NF,B,482171,482171,480642,481455,480642,482554,481971,481971,482554,115
107,test,1,con,1,m,Mon Aug 12 2024 09:01:11 GMT-0500 (Central Daylight Time),489281.09999999404,lead,1000,I,m,m,None,341,142.0,199.0,123,1,1879.0,487402.09999999404,7000,lead,NF,B,484288,484288,482558,483571,482558,484437,484088,484088,484437,116
108,test,1,inc,1,z,Mon Aug 12 2024 09:01:11 GMT-0500 (Central Daylight Time),491247.3000000119,copper,900,I,z,z,None,529,329.0,200.0,6,1,1962.300000011921,489285.0,7000,banana,NF,B,486070,486070,484441,485354,484441,486403,485870,485870,486403,117
109,test,1,inc,1,z,Mon Aug 12 2024 09:01:11 GMT-0500 (Central Daylight Time),493646.40000000596,lead,1100,I,z,z,None,754,554.0,200.0,40,1,2395.300000011921,491251.09999999404,7000,lime,NF,B,488236,488236,486407,487520,486407,488803,488036,488036,488802,118
110,test,1,inc,1,m,Mon Aug 12 2024 09:01:11 GMT-0500 (Central Daylight Time),495712.5,kiwi,1000,I,m,m,None,518,319.0,199.0,127,1,2062.4000000059605,493650.09999999404,7000,lead,NF,B,490535,490536,488806,489819,488806,490869,490336,490336,490868,119
111,test,1,inc,1,z,Mon Aug 12 2024 09:01:11 GMT-0500 (Central Daylight Time),497878.59999999404,zinc,1000,I,z,z,None,627,428.0,199.0,39,1,2162.5999999940395,495716.0,7000,lime,NF,B,492602,492602,490872,491885,490872,493035,492402,492402,493034,120
112,test,1,inc,1,z,Mon Aug 12 2024 09:01:11 GMT-0500 (Central Daylight Time),500012.40000000596,silver,1000,I,z,z,None,597,383.0,214.0,15,1,2130.2000000178814,497882.1999999881,7000,cherry,NF,B,494784,494784,493038,494051,493038,495168,494570,494570,495168,121
113,test,1,con,1,z,Mon Aug 12 2024 09:01:11 GMT-0500 (Central Daylight Time),502043.8000000119,kiwi,1000,I,z,z,None,490,290.0,200.0,51,1,2027.800000011921,500016.0,7000,kiwi,NF,B,496900,496900,495172,496184,495172,497200,496700,496700,497200,122
114,test,1,con,1,m,Mon Aug 12 2024 09:01:11 GMT-0500 (Central Daylight Time),504109.8000000119,bronze,900,I,m,m,None,621,421.0,200.0,66,1,2062.100000023842,502047.6999999881,7000,bronze,NF,B,498833,498833,497204,498116,497204,499266,498633,498633,499266,123
115,test,1,con,1,m,Mon Aug 12 2024 09:01:11 GMT-0500 (Central Daylight Time),506192.5,zinc,900,I,m,m,None,635,435.0,200.0,114,1,2079.300000011921,504113.1999999881,7000,zinc,NF,B,500899,500899,499269,500182,499269,501349,500699,500699,501349,124
116,test,1,inc,1,m,Mon Aug 12 2024 09:01:11 GMT-0500 (Central Daylight Time),508208.5,lime,800,I,m,m,None,667,468.0,199.0,101,1,2012.5,506196.0,7000,gold,NF,B,502882,502882,501352,502165,501352,503365,502682,502682,503364,125
116,test,1,inc,0,m,Mon Aug 12 2024 09:01:11 GMT-0500 (Central Daylight Time),510124.59999999404,pear,900,I,z,z,None,472,273.0,199.0,102,1,1912.5,508212.09999999404,7000,gold,NF,B,504998,504998,503368,504281,503368,505281,504798,504798,505281,126
117,test,1,inc,1,z,Mon Aug 12 2024 09:01:11 GMT-0500 (Central Daylight Time),512890.59999999404,zinc,1000,I,z,z,None,1171,959.0,212.0,63,1,2762.4000000059605,510128.1999999881,7000,plum,NF,B,507080,507080,505284,506297,505284,508047,506868,506868,508047,127
118,test,1,inc,1,m,Mon Aug 12 2024 09:01:11 GMT-0500 (Central Daylight Time),515173.09999999404,plum,1100,I,m,m,None,637,438.0,199.0,104,1,2278.9000000059605,512894.1999999881,7000,gold,NF,B,509880,509880,508050,509163,508050,510329,509680,509680,510329,128
