Number,acc_sum,block,block_c,block_cond,con_img,correct,correct_response,datetime,endtime,jitter,project,response,response_time,row_sel,session_number,start_end,starttime,subject_id,task,task_vers,trial
6,1,prac,1,A,circle.png,1,m,Mon May 19 2025 16:13:18 GMT-0500 (Central Daylight Time),72449.89999997616,1900,I,m,1088,5,1,3776.7000000476837,68673.19999992847,8040,NTS,C,1
4,2,prac,1,A,circle.png,1,z,Mon May 19 2025 16:13:18 GMT-0500 (Central Daylight Time),75332.5,1400,I,z,694,4,1,2876.899999976158,72455.60000002384,8040,NTS,C,2
3,3,prac,1,A,circle.png,1,z,Mon May 19 2025 16:13:18 GMT-0500 (Central Daylight Time),78265.10000002384,1200,I,z,933,3,1,2927.4000000953674,75337.69999992847,8040,NTS,C,3
3,4,prac,1,A,circle.png,1,z,Mon May 19 2025 16:13:18 GMT-0500 (Central Daylight Time),81280.5,1200,I,z,1016,3,1,3009.899999976158,78270.60000002384,8040,NTS,C,4
2,5,prac,1,A,circle.png,1,z,Mon May 19 2025 16:13:18 GMT-0500 (Central Daylight Time),84912.89999997616,2000,I,z,848,2,1,3626.2999999523163,81286.60000002384,8040,NTS,C,5
7,6,prac,1,A,circle.png,1,m,Mon May 19 2025 16:13:18 GMT-0500 (Central Daylight Time),88211.5,1700,I,m,805,6,1,3293.3000000715256,84918.19999992847,8040,NTS,C,6
9,7,prac,1,A,circle.png,1,m,Mon May 19 2025 16:13:18 GMT-0500 (Central Daylight Time),91360.89999997616,1500,I,m,856,8,1,3144.2999999523163,88216.60000002384,8040,NTS,C,7
1,8,prac,1,A,circle.png,1,z,Mon May 19 2025 16:13:18 GMT-0500 (Central Daylight Time),94243.0,1000,I,z,1088,1,1,2876.8000000715256,91366.19999992847,8040,NTS,C,8
7,9,prac,1,A,circle.png,1,m,Mon May 19 2025 16:13:18 GMT-0500 (Central Daylight Time),97591.89999997616,1700,I,m,850,6,1,3343.7000000476837,94248.19999992847,8040,NTS,C,9
8,10,prac,1,A,circle.png,1,m,Mon May 19 2025 16:13:18 GMT-0500 (Central Daylight Time),100774.39999997616,1600,I,m,785,7,1,3176.5,97597.89999997616,8040,NTS,C,10
2,11,prac,1,A,circle.png,1,z,Mon May 19 2025 16:13:18 GMT-0500 (Central Daylight Time),104306.60000002384,2000,I,z,747,2,1,3527.0,100779.60000002384,8040,NTS,C,11
4,12,prac,1,A,circle.png,1,z,Mon May 19 2025 16:13:18 GMT-0500 (Central Daylight Time),107272.5,1400,I,z,774,4,1,2960.8000000715256,104311.69999992847,8040,NTS,C,12
7,0,prac,1,B,triangle.png,0,z,Mon May 19 2025 16:13:18 GMT-0500 (Central Daylight Time),140495.10000002384,2000,I,None,1516,6,1,4294.100000023842,136201.0,8040,NTS,C,1
8,1,prac,1,B,triangle.png,1,m,Mon May 19 2025 16:13:18 GMT-0500 (Central Daylight Time),143377.5,1200,I,m,890,7,1,2876.0,140501.5,8040,NTS,C,2
9,2,prac,1,B,triangle.png,1,z,Mon May 19 2025 16:13:18 GMT-0500 (Central Daylight Time),146876.69999992847,1400,I,z,1302,8,1,3493.6999999284744,143383.0,8040,NTS,C,3
1,3,prac,1,B,triangle.png,1,z,Mon May 19 2025 16:13:18 GMT-0500 (Central Daylight Time),150442.10000002384,1900,I,z,872,1,1,3560.600000023842,146881.5,8040,NTS,C,4
7,4,prac,1,B,triangle.png,1,z,Mon May 19 2025 16:13:18 GMT-0500 (Central Daylight Time),154290.79999995232,2000,I,z,1063,6,1,3843.5,150447.29999995232,8040,NTS,C,5
2,5,prac,1,B,triangle.png,1,m,Mon May 19 2025 16:13:18 GMT-0500 (Central Daylight Time),157556.60000002384,1700,I,m,792,2,1,3260.3000000715256,154296.29999995232,8040,NTS,C,6
6,6,prac,1,B,triangle.png,1,m,Mon May 19 2025 16:13:18 GMT-0500 (Central Daylight Time),160289.19999992847,1000,I,m,949,5,1,2727.1999999284744,157562.0,8040,NTS,C,7
3,7,prac,1,B,triangle.png,1,z,Mon May 19 2025 16:13:18 GMT-0500 (Central Daylight Time),163438.39999997616,1600,I,z,751,3,1,3144.0,160294.39999997616,8040,NTS,C,8
4,8,prac,1,B,triangle.png,1,m,Mon May 19 2025 16:13:18 GMT-0500 (Central Daylight Time),166803.89999997616,1500,I,m,1079,4,1,3360.2999999523163,163443.60000002384,8040,NTS,C,9
4,9,prac,1,B,triangle.png,1,m,Mon May 19 2025 16:13:18 GMT-0500 (Central Daylight Time),169952.89999997616,1500,I,m,857,4,1,3144.0,166808.89999997616,8040,NTS,C,10
6,10,prac,1,B,triangle.png,1,m,Mon May 19 2025 16:13:18 GMT-0500 (Central Daylight Time),172701.89999997616,1000,I,m,952,5,1,2743.7000000476837,169958.19999992847,8040,NTS,C,11
3,11,prac,1,B,triangle.png,1,z,Mon May 19 2025 16:13:18 GMT-0500 (Central Daylight Time),175801.19999992847,1600,I,z,715,3,1,3094.5,172706.69999992847,8040,NTS,C,12
1,1,test,1,A,circle.png,1,z,Mon May 19 2025 16:13:18 GMT-0500 (Central Daylight Time),197610.5,1000,I,z,748,1,1,1761.7000000476837,195848.79999995232,8040,NTS,C,1
2,2,test,1,A,circle.png,1,z,Mon May 19 2025 16:13:18 GMT-0500 (Central Daylight Time),200376.79999995232,2000,I,z,734,2,1,2761.7999999523163,197615.0,8040,NTS,C,2
4,3,test,1,A,circle.png,1,z,Mon May 19 2025 16:13:18 GMT-0500 (Central Daylight Time),202842.29999995232,1400,I,z,1048,4,1,2462.0,200380.29999995232,8040,NTS,C,3
3,4,test,1,A,circle.png,1,z,Mon May 19 2025 16:13:18 GMT-0500 (Central Daylight Time),204975.19999992847,1200,I,z,911,3,1,2129.5,202845.69999992847,8040,NTS,C,4
8,5,test,1,A,circle.png,1,m,Mon May 19 2025 16:13:18 GMT-0500 (Central Daylight Time),207374.5,1600,I,m,778,7,1,2395.7000000476837,204978.79999995232,8040,NTS,C,5
9,6,test,1,A,circle.png,1,m,Mon May 19 2025 16:13:18 GMT-0500 (Central Daylight Time),209607.10000002384,1500,I,m,702,8,1,2229.0,207378.10000002384,8040,NTS,C,6
2,7,test,1,A,circle.png,1,z,Mon May 19 2025 16:13:18 GMT-0500 (Central Daylight Time),212339.5,2000,I,z,714,2,1,2728.5,209611.0,8040,NTS,C,7
7,8,test,1,A,circle.png,1,m,Mon May 19 2025 16:13:18 GMT-0500 (Central Daylight Time),215105.10000002384,1700,I,m,1033,6,1,2761.8000000715256,212343.29999995232,8040,NTS,C,8
3,9,test,1,A,circle.png,1,z,Mon May 19 2025 16:13:18 GMT-0500 (Central Daylight Time),217371.10000002384,1200,I,z,1040,3,1,2262.5,215108.60000002384,8040,NTS,C,9
2,10,test,1,A,circle.png,1,z,Mon May 19 2025 16:13:18 GMT-0500 (Central Daylight Time),220153.89999997616,2000,I,z,766,2,1,2778.7999999523163,217375.10000002384,8040,NTS,C,10
4,11,test,1,A,circle.png,1,z,Mon May 19 2025 16:13:18 GMT-0500 (Central Daylight Time),222503.0,1400,I,z,919,4,1,2345.399999976158,220157.60000002384,8040,NTS,C,11
8,12,test,1,A,circle.png,1,m,Mon May 19 2025 16:13:18 GMT-0500 (Central Daylight Time),224968.89999997616,1600,I,m,842,7,1,2462.2999999523163,222506.60000002384,8040,NTS,C,12
4,13,test,1,A,circle.png,1,z,Mon May 19 2025 16:13:18 GMT-0500 (Central Daylight Time),227349.19999992847,1400,I,z,963,4,1,2376.399999976158,224972.79999995232,8040,NTS,C,13
1,14,test,1,A,circle.png,1,z,Mon May 19 2025 16:13:18 GMT-0500 (Central Daylight Time),229684.29999995232,1000,I,z,1313,1,1,2331.2999999523163,227353.0,8040,NTS,C,14
6,15,test,1,A,circle.png,1,m,Mon May 19 2025 16:13:18 GMT-0500 (Central Daylight Time),232616.39999997616,1900,I,m,1009,5,1,2928.600000023842,229687.79999995232,8040,NTS,C,15
4,16,test,1,A,circle.png,1,z,Mon May 19 2025 16:13:18 GMT-0500 (Central Daylight Time),234999.0,1400,I,z,960,4,1,2378.7000000476837,232620.29999995232,8040,NTS,C,16
6,17,test,1,A,circle.png,1,m,Mon May 19 2025 16:13:18 GMT-0500 (Central Daylight Time),237698.19999992847,1900,I,m,782,5,1,2695.2999999523163,235002.89999997616,8040,NTS,C,17
3,18,test,1,A,circle.png,1,z,Mon May 19 2025 16:13:18 GMT-0500 (Central Daylight Time),239864.10000002384,1200,I,z,942,3,1,2162.5,237701.60000002384,8040,NTS,C,18
7,19,test,1,A,circle.png,1,m,Mon May 19 2025 16:13:18 GMT-0500 (Central Daylight Time),242463.10000002384,1700,I,m,868,6,1,2595.5,239867.60000002384,8040,NTS,C,19
8,20,test,1,A,circle.png,1,m,Mon May 19 2025 16:13:18 GMT-0500 (Central Daylight Time),244996.10000002384,1600,I,m,913,7,1,2529.5,242466.60000002384,8040,NTS,C,20
6,21,test,1,A,circle.png,1,m,Mon May 19 2025 16:13:18 GMT-0500 (Central Daylight Time),247728.60000002384,1900,I,m,809,5,1,2728.600000023842,245000.0,8040,NTS,C,21
9,22,test,1,A,circle.png,1,m,Mon May 19 2025 16:13:18 GMT-0500 (Central Daylight Time),250094.39999997616,1500,I,m,844,8,1,2362.100000023842,247732.29999995232,8040,NTS,C,22
2,23,test,1,A,circle.png,1,z,Mon May 19 2025 16:13:18 GMT-0500 (Central Daylight Time),252793.60000002384,2000,I,z,675,2,1,2695.600000023842,250098.0,8040,NTS,C,23
7,24,test,1,A,circle.png,1,m,Mon May 19 2025 16:13:18 GMT-0500 (Central Daylight Time),255425.89999997616,1700,I,m,899,6,1,2628.7000000476837,252797.19999992847,8040,NTS,C,24
6,1,test,1,B,triangle.png,1,m,Mon May 19 2025 16:13:18 GMT-0500 (Central Daylight Time),271904.0,1000,I,m,785,5,1,1812.7000000476837,270091.2999999523,8040,NTS,C,1
4,2,test,1,B,triangle.png,1,m,Mon May 19 2025 16:13:18 GMT-0500 (Central Daylight Time),273737.1999999285,1000,I,m,801,12,1,1829.0999999046326,271908.10000002384,8040,NTS,C,2
9,3,test,1,B,triangle.png,1,z,Mon May 19 2025 16:13:18 GMT-0500 (Central Daylight Time),276552.89999997616,1900,I,z,884,16,1,2812.100000023842,273740.7999999523,8040,NTS,C,3
9,4,test,1,B,triangle.png,1,z,Mon May 19 2025 16:13:18 GMT-0500 (Central Daylight Time),278918.6999999285,1400,I,z,936,8,1,2361.899999976158,276556.7999999523,8040,NTS,C,4
4,5,test,1,B,triangle.png,1,m,Mon May 19 2025 16:13:18 GMT-0500 (Central Daylight Time),281584.39999997616,1500,I,m,1135,4,1,2662.2999999523163,278922.10000002384,8040,NTS,C,5
1,6,test,1,B,triangle.png,1,z,Mon May 19 2025 16:13:18 GMT-0500 (Central Daylight Time),283783.7999999523,1400,I,z,777,9,1,2195.7999999523163,281588.0,8040,NTS,C,6
9,6,test,1,B,triangle.png,0,z,Mon May 19 2025 16:13:18 GMT-0500 (Central Daylight Time),286582.89999997616,1900,I,m,869,16,1,2795.2999999523163,283787.60000002384,8040,NTS,C,7
6,7,test,1,B,triangle.png,1,m,Mon May 19 2025 16:13:18 GMT-0500 (Central Daylight Time),288982.1999999285,1500,I,m,878,13,1,2395.6999999284744,286586.5,8040,NTS,C,8
2,8,test,1,B,triangle.png,1,m,Mon May 19 2025 16:13:18 GMT-0500 (Central Daylight Time),291948.0,1700,I,m,1247,2,1,2962.2000000476837,288985.7999999523,8040,NTS,C,9
3,9,test,1,B,triangle.png,1,z,Mon May 19 2025 16:13:18 GMT-0500 (Central Daylight Time),294847.0,2000,I,z,870,11,1,2895.100000023842,291951.89999997616,8040,NTS,C,10
9,9,test,1,B,triangle.png,0,z,Mon May 19 2025 16:13:18 GMT-0500 (Central Daylight Time),297129.89999997616,1400,I,m,850,8,1,2279.100000023842,294850.7999999523,8040,NTS,C,11
4,10,test,1,B,triangle.png,1,m,Mon May 19 2025 16:13:18 GMT-0500 (Central Daylight Time),299728.89999997616,1500,I,m,1068,4,1,2595.600000023842,297133.2999999523,8040,NTS,C,12
7,11,test,1,B,triangle.png,1,z,Mon May 19 2025 16:13:18 GMT-0500 (Central Daylight Time),302594.10000002384,2000,I,z,849,6,1,2861.8000000715256,299732.2999999523,8040,NTS,C,13
1,12,test,1,B,triangle.png,1,z,Mon May 19 2025 16:13:18 GMT-0500 (Central Daylight Time),304910.5,1400,I,z,887,9,1,2312.7000000476837,302597.7999999523,8040,NTS,C,14
8,13,test,1,B,triangle.png,1,m,Mon May 19 2025 16:13:18 GMT-0500 (Central Daylight Time),307076.60000002384,1200,I,m,947,7,1,2162.100000023842,304914.5,8040,NTS,C,15
3,14,test,1,B,triangle.png,1,z,Mon May 19 2025 16:13:18 GMT-0500 (Central Daylight Time),309992.1999999285,2000,I,z,893,11,1,2911.899999976158,307080.2999999523,8040,NTS,C,16
3,15,test,1,B,triangle.png,1,z,Mon May 19 2025 16:13:18 GMT-0500 (Central Daylight Time),312691.5,1600,I,z,1081,3,1,2696.0,309995.5,8040,NTS,C,17
6,16,test,1,B,triangle.png,1,m,Mon May 19 2025 16:13:18 GMT-0500 (Central Daylight Time),314540.7999999523,1000,I,m,830,5,1,1845.6999999284744,312695.10000002384,8040,NTS,C,18
8,17,test,1,B,triangle.png,1,m,Mon May 19 2025 16:13:18 GMT-0500 (Central Daylight Time),317239.89999997616,1700,I,m,977,15,1,2695.5,314544.39999997616,8040,NTS,C,19
2,18,test,1,B,triangle.png,1,m,Mon May 19 2025 16:13:18 GMT-0500 (Central Daylight Time),319505.7999999523,1200,I,m,1034,10,1,2262.5,317243.2999999523,8040,NTS,C,20
7,19,test,1,B,triangle.png,1,z,Mon May 19 2025 16:13:18 GMT-0500 (Central Daylight Time),322021.89999997616,1600,I,z,895,14,1,2512.399999976158,319509.5,8040,NTS,C,21
8,20,test,1,B,triangle.png,1,m,Mon May 19 2025 16:13:18 GMT-0500 (Central Daylight Time),324621.0,1700,I,m,872,15,1,2595.399999976158,322025.60000002384,8040,NTS,C,22
2,21,test,1,B,triangle.png,1,m,Mon May 19 2025 16:13:18 GMT-0500 (Central Daylight Time),326970.2999999523,1200,I,m,1124,10,1,2345.899999976158,324624.39999997616,8040,NTS,C,23
1,22,test,1,B,triangle.png,1,z,Mon May 19 2025 16:13:18 GMT-0500 (Central Daylight Time),329719.2999999523,1900,I,z,819,1,1,2745.399999976158,326973.89999997616,8040,NTS,C,24
8,1,prac,1,C,triangle.png,1,m,Mon May 19 2025 16:13:18 GMT-0500 (Central Daylight Time),379970.1999999285,1400,I,m,1456,7,1,3644.2999999523163,376325.89999997616,8040,NTS,C,1
3,2,prac,1,C,triangle.png,1,z,Mon May 19 2025 16:13:18 GMT-0500 (Central Daylight Time),383369.39999997616,1500,I,z,1115,3,1,3394.0,379975.39999997616,8040,NTS,C,2
4,3,prac,1,C,circle.png,1,z,Mon May 19 2025 16:13:18 GMT-0500 (Central Daylight Time),386285.0,1000,I,z,1120,4,1,2910.899999976158,383374.10000002384,8040,NTS,C,3
7,4,prac,1,C,triangle.png,1,z,Mon May 19 2025 16:13:18 GMT-0500 (Central Daylight Time),389551.0,1200,I,z,1276,6,1,3261.399999976158,386289.60000002384,8040,NTS,C,4
6,4,prac,1,C,circle.png,0,m,Mon May 19 2025 16:13:18 GMT-0500 (Central Daylight Time),393849.0,2000,I,None,1516,5,1,4293.200000047684,389555.7999999523,8040,NTS,C,5
7,5,prac,1,C,triangle.png,1,z,Mon May 19 2025 16:13:18 GMT-0500 (Central Daylight Time),397114.89999997616,1200,I,z,1280,6,1,3260.2000000476837,393854.6999999285,8040,NTS,C,6
9,6,prac,1,C,circle.png,1,m,Mon May 19 2025 16:13:18 GMT-0500 (Central Daylight Time),400997.0,1900,I,m,1194,8,1,3877.2000000476837,397119.7999999523,8040,NTS,C,7
2,7,prac,1,C,triangle.png,1,m,Mon May 19 2025 16:13:18 GMT-0500 (Central Daylight Time),404562.6999999285,1600,I,m,1180,2,1,3561.0999999046326,401001.60000002384,8040,NTS,C,8
8,8,prac,1,C,triangle.png,1,m,Mon May 19 2025 16:13:18 GMT-0500 (Central Daylight Time),407778.2999999523,1400,I,m,1023,7,1,3210.5,404567.7999999523,8040,NTS,C,9
2,9,prac,1,C,triangle.png,1,m,Mon May 19 2025 16:13:18 GMT-0500 (Central Daylight Time),411093.7999999523,1600,I,m,919,2,1,3310.5,407783.2999999523,8040,NTS,C,10
9,10,prac,1,C,circle.png,1,m,Mon May 19 2025 16:13:18 GMT-0500 (Central Daylight Time),415176.0,1900,I,m,1392,8,1,4077.600000023842,411098.39999997616,8040,NTS,C,11
1,11,prac,1,C,circle.png,1,z,Mon May 19 2025 16:13:18 GMT-0500 (Central Daylight Time),418674.7999999523,1700,I,z,1005,1,1,3493.899999976158,415180.89999997616,8040,NTS,C,12
1,1,test,1,C,circle.png,1,z,Mon May 19 2025 16:13:18 GMT-0500 (Central Daylight Time),439801.60000002384,1000,I,z,1041,1,1,2062.8000000715256,437738.7999999523,8040,NTS,C,1
4,1,test,1,C,circle.png,0,z,Mon May 19 2025 16:13:18 GMT-0500 (Central Daylight Time),442734.0,1400,I,None,1516,4,1,2928.2000000476837,439805.7999999523,8040,NTS,C,2
3,2,test,1,C,triangle.png,1,z,Mon May 19 2025 16:13:18 GMT-0500 (Central Daylight Time),444833.10000002384,1200,I,z,875,3,1,2095.3000000715256,442737.7999999523,8040,NTS,C,3
7,3,test,1,C,triangle.png,1,z,Mon May 19 2025 16:13:18 GMT-0500 (Central Daylight Time),447665.6999999285,1700,I,z,1100,22,1,2829.0,444836.6999999285,8040,NTS,C,4
8,4,test,1,C,triangle.png,1,m,Mon May 19 2025 16:13:18 GMT-0500 (Central Daylight Time),450281.7999999523,1600,I,m,984,7,1,2612.2999999523163,447669.5,8040,NTS,C,5
4,4,test,1,C,triangle.png,0,m,Mon May 19 2025 16:13:18 GMT-0500 (Central Daylight Time),453314.1999999285,1500,I,None,1516,12,1,3028.2999999523163,450285.89999997616,8040,NTS,C,6
6,5,test,1,C,circle.png,1,m,Mon May 19 2025 16:13:18 GMT-0500 (Central Daylight Time),456379.7999999523,1900,I,m,1147,5,1,3061.7999999523163,453318.0,8040,NTS,C,7
3,5,test,1,C,circle.png,0,z,Mon May 19 2025 16:13:18 GMT-0500 (Central Daylight Time),459512.1999999285,1600,I,None,1516,19,1,3128.2999999523163,456383.89999997616,8040,NTS,C,8
9,5,test,1,C,circle.png,0,m,Mon May 19 2025 16:13:18 GMT-0500 (Central Daylight Time),462544.5,1500,I,None,1515,24,1,3028.3000000715256,459516.1999999285,8040,NTS,C,9
2,5,test,1,C,circle.png,0,z,Mon May 19 2025 16:13:18 GMT-0500 (Central Daylight Time),465777.0,1700,I,None,1516,10,1,3228.399999976158,462548.60000002384,8040,NTS,C,10
9,5,test,1,C,circle.png,0,m,Mon May 19 2025 16:13:18 GMT-0500 (Central Daylight Time),468809.10000002384,1500,I,None,1515,8,1,3028.4000000953674,465780.6999999285,8040,NTS,C,11
1,6,test,1,C,triangle.png,1,z,Mon May 19 2025 16:13:18 GMT-0500 (Central Daylight Time),471874.7999999523,1900,I,z,1148,17,1,3062.1999999284744,468812.60000002384,8040,NTS,C,12
2,7,test,1,C,circle.png,1,z,Mon May 19 2025 16:13:18 GMT-0500 (Central Daylight Time),474557.5,1700,I,z,962,18,1,2679.399999976158,471878.10000002384,8040,NTS,C,13
6,8,test,1,C,triangle.png,1,m,Mon May 19 2025 16:13:18 GMT-0500 (Central Daylight Time),476639.89999997616,1000,I,m,1060,13,1,2078.5,474561.39999997616,8040,NTS,C,14
7,8,test,1,C,triangle.png,0,z,Mon May 19 2025 16:13:18 GMT-0500 (Central Daylight Time),479489.0,1700,I,m,1125,6,1,2845.399999976158,476643.60000002384,8040,NTS,C,15
8,8,test,1,C,triangle.png,0,m,Mon May 19 2025 16:13:18 GMT-0500 (Central Daylight Time),482621.10000002384,1600,I,None,1515,23,1,3127.600000023842,479493.5,8040,NTS,C,16
9,8,test,1,C,triangle.png,0,z,Mon May 19 2025 16:13:18 GMT-0500 (Central Daylight Time),485154.0,1400,I,m,1100,16,1,2528.899999976158,482625.10000002384,8040,NTS,C,17
2,8,test,1,C,triangle.png,0,m,Mon May 19 2025 16:13:18 GMT-0500 (Central Daylight Time),488686.2999999523,2000,I,None,1515,2,1,3528.399999976158,485157.89999997616,8040,NTS,C,18
7,9,test,1,C,circle.png,1,m,Mon May 19 2025 16:13:18 GMT-0500 (Central Daylight Time),491802.0,2000,I,m,1083,14,1,3112.2000000476837,488689.7999999523,8040,NTS,C,19
3,10,test,1,C,circle.png,1,z,Mon May 19 2025 16:13:18 GMT-0500 (Central Daylight Time),494434.5,1600,I,z,999,11,1,2628.899999976158,491805.60000002384,8040,NTS,C,20
8,11,test,1,C,circle.png,1,m,Mon May 19 2025 16:13:18 GMT-0500 (Central Daylight Time),496483.89999997616,1200,I,m,823,15,1,2045.7999999523163,494438.10000002384,8040,NTS,C,21
6,12,test,1,C,circle.png,1,m,Mon May 19 2025 16:13:18 GMT-0500 (Central Daylight Time),499532.89999997616,1900,I,m,1130,21,1,3045.0,496487.89999997616,8040,NTS,C,22
1,13,test,1,C,triangle.png,1,z,Mon May 19 2025 16:13:18 GMT-0500 (Central Daylight Time),502331.89999997616,1900,I,z,873,9,1,2795.0,499536.89999997616,8040,NTS,C,23
4,14,test,1,C,triangle.png,1,m,Mon May 19 2025 16:13:18 GMT-0500 (Central Daylight Time),505114.5,1500,I,m,1257,20,1,2779.0,502335.5,8040,NTS,C,24
4,1,test,2,C,triangle.png,1,m,Mon May 19 2025 16:13:18 GMT-0500 (Central Daylight Time),523975.1999999285,1500,I,m,986,12,1,2513.0999999046326,521462.10000002384,8040,NTS,C,1
6,2,test,2,C,circle.png,1,m,Mon May 19 2025 16:13:18 GMT-0500 (Central Daylight Time),526974.3999999762,1900,I,m,1078,5,1,2995.0,523979.39999997616,8040,NTS,C,2
7,3,test,2,C,circle.png,1,m,Mon May 19 2025 16:13:18 GMT-0500 (Central Daylight Time),530239.8999999762,2000,I,m,1235,22,1,3261.5,526978.3999999762,8040,NTS,C,3
6,3,test,2,C,triangle.png,0,m,Mon May 19 2025 16:13:18 GMT-0500 (Central Daylight Time),532772.6000000238,1000,I,None,1515,21,1,2529.0,530243.6000000238,8040,NTS,C,4
9,3,test,2,C,triangle.png,0,z,Mon May 19 2025 16:13:18 GMT-0500 (Central Daylight Time),535288.1000000238,1400,I,m,1093,24,1,2511.7000000476837,532776.3999999762,8040,NTS,C,5
2,4,test,2,C,circle.png,1,z,Mon May 19 2025 16:13:18 GMT-0500 (Central Daylight Time),538420.6999999285,1700,I,z,1413,18,1,3128.7999999523163,535291.8999999762,8040,NTS,C,6
7,5,test,2,C,triangle.png,1,z,Mon May 19 2025 16:13:18 GMT-0500 (Central Daylight Time),541219.7999999523,1700,I,z,1081,6,1,2795.5,538424.2999999523,8040,NTS,C,7
1,6,test,2,C,triangle.png,1,z,Mon May 19 2025 16:13:18 GMT-0500 (Central Daylight Time),544052.2999999523,1900,I,z,914,9,1,2826.899999976158,541225.3999999762,8040,NTS,C,8
3,6,test,2,C,circle.png,0,z,Mon May 19 2025 16:13:18 GMT-0500 (Central Daylight Time),547068.0,1600,I,m,1389,19,1,3012.3000000715256,544055.6999999285,8040,NTS,C,9
3,7,test,2,C,circle.png,1,z,Mon May 19 2025 16:13:18 GMT-0500 (Central Daylight Time),549484.0,1600,I,z,789,11,1,2412.100000023842,547071.8999999762,8040,NTS,C,10
2,8,test,2,C,triangle.png,1,m,Mon May 19 2025 16:13:18 GMT-0500 (Central Daylight Time),552749.6999999285,2000,I,m,1237,2,1,3262.1999999284744,549487.5,8040,NTS,C,11
2,9,test,2,C,circle.png,1,z,Mon May 19 2025 16:13:18 GMT-0500 (Central Daylight Time),555765.3999999762,1700,I,z,1296,10,1,3012.2000000476837,552753.1999999285,8040,NTS,C,12
8,10,test,2,C,circle.png,1,m,Mon May 19 2025 16:13:18 GMT-0500 (Central Daylight Time),558332.1000000238,1200,I,m,1348,15,1,2563.0,555769.1000000238,8040,NTS,C,13
4,11,test,2,C,circle.png,1,z,Mon May 19 2025 16:13:18 GMT-0500 (Central Daylight Time),560898.1000000238,1400,I,z,1142,4,1,2562.100000023842,558336.0,8040,NTS,C,14
7,11,test,2,C,circle.png,0,m,Mon May 19 2025 16:13:18 GMT-0500 (Central Daylight Time),564212.6000000238,2000,I,z,1288,14,1,3310.7000000476837,560901.8999999762,8040,NTS,C,15
9,11,test,2,C,triangle.png,0,z,Mon May 19 2025 16:13:18 GMT-0500 (Central Daylight Time),566928.2999999523,1400,I,m,1284,16,1,2712.1999999284744,564216.1000000238,8040,NTS,C,16
1,11,test,2,C,circle.png,0,z,Mon May 19 2025 16:13:18 GMT-0500 (Central Daylight Time),569461.0,1000,I,None,1516,1,1,2529.0,566932.0,8040,NTS,C,17
4,11,test,2,C,triangle.png,0,m,Mon May 19 2025 16:13:18 GMT-0500 (Central Daylight Time),572493.0,1500,I,None,1515,20,1,3028.0,569465.0,8040,NTS,C,18
3,12,test,2,C,triangle.png,1,z,Mon May 19 2025 16:13:18 GMT-0500 (Central Daylight Time),574626.0,1200,I,z,916,3,1,2129.399999976158,572496.6000000238,8040,NTS,C,19
6,13,test,2,C,triangle.png,1,m,Mon May 19 2025 16:13:18 GMT-0500 (Central Daylight Time),576791.7999999523,1000,I,m,1143,13,1,2162.399999976158,574629.3999999762,8040,NTS,C,20
8,14,test,2,C,circle.png,1,m,Mon May 19 2025 16:13:18 GMT-0500 (Central Daylight Time),579441.1999999285,1200,I,m,1425,23,1,2645.5999999046326,576795.6000000238,8040,NTS,C,21
9,15,test,2,C,circle.png,1,m,Mon May 19 2025 16:13:18 GMT-0500 (Central Daylight Time),582173.7999999523,1500,I,m,1217,8,1,2728.7999999523163,579445.0,8040,NTS,C,22
1,16,test,2,C,triangle.png,1,z,Mon May 19 2025 16:13:18 GMT-0500 (Central Daylight Time),585056.1000000238,1900,I,z,960,17,1,2878.4000000953674,582177.6999999285,8040,NTS,C,23
8,17,test,2,C,triangle.png,1,m,Mon May 19 2025 16:13:18 GMT-0500 (Central Daylight Time),587888.6000000238,1600,I,m,1209,7,1,2828.7000000476837,585059.8999999762,8040,NTS,C,24
3,0,test,3,C,circle.png,0,z,Mon May 19 2025 16:13:18 GMT-0500 (Central Daylight Time),600234.5,1600,I,None,1515,11,1,3129.2000000476837,597105.2999999523,8040,NTS,C,1
9,0,test,3,C,triangle.png,0,z,Mon May 19 2025 16:13:18 GMT-0500 (Central Daylight Time),603167.0,1400,I,None,1516,16,1,2927.600000023842,600239.3999999762,8040,NTS,C,2
6,1,test,3,C,circle.png,1,m,Mon May 19 2025 16:13:18 GMT-0500 (Central Daylight Time),606582.2999999523,1900,I,m,1485,5,1,3411.2999999523163,603171.0,8040,NTS,C,3
8,2,test,3,C,triangle.png,1,m,Mon May 19 2025 16:13:18 GMT-0500 (Central Daylight Time),609348.1000000238,1600,I,m,1147,23,1,2758.7000000476837,606589.3999999762,8040,NTS,C,4
9,3,test,3,C,circle.png,1,m,Mon May 19 2025 16:13:18 GMT-0500 (Central Daylight Time),611780.7999999523,1500,I,m,905,8,1,2428.100000023842,609352.6999999285,8040,NTS,C,5
1,4,test,3,C,circle.png,1,z,Mon May 19 2025 16:13:18 GMT-0500 (Central Daylight Time),613896.7999999523,1000,I,z,1083,1,1,2111.600000023842,611785.1999999285,8040,NTS,C,6
8,5,test,3,C,circle.png,1,m,Mon May 19 2025 16:13:18 GMT-0500 (Central Daylight Time),616046.0,1200,I,m,928,15,1,2145.3000000715256,613900.6999999285,8040,NTS,C,7
6,6,test,3,C,triangle.png,1,m,Mon May 19 2025 16:13:18 GMT-0500 (Central Daylight Time),618462.0,1000,I,m,1387,13,1,2411.7000000476837,616050.2999999523,8040,NTS,C,8
9,7,test,3,C,circle.png,1,m,Mon May 19 2025 16:13:18 GMT-0500 (Central Daylight Time),620944.6999999285,1500,I,m,951,24,1,2478.5999999046326,618466.1000000238,8040,NTS,C,9
8,8,test,3,C,triangle.png,1,m,Mon May 19 2025 16:13:18 GMT-0500 (Central Daylight Time),623827.3999999762,1600,I,m,1257,7,1,2878.7999999523163,620948.6000000238,8040,NTS,C,10
7,8,test,3,C,triangle.png,0,z,Mon May 19 2025 16:13:18 GMT-0500 (Central Daylight Time),626642.7999999523,1700,I,m,1090,6,1,2811.6999999284744,623831.1000000238,8040,NTS,C,11
3,9,test,3,C,triangle.png,1,z,Mon May 19 2025 16:13:18 GMT-0500 (Central Daylight Time),629042.0,1200,I,z,1117,3,1,2395.600000023842,626646.3999999762,8040,NTS,C,12
4,10,test,3,C,circle.png,1,z,Mon May 19 2025 16:13:18 GMT-0500 (Central Daylight Time),631441.2999999523,1400,I,z,967,4,1,2395.2999999523163,629046.0,8040,NTS,C,13
4,11,test,3,C,triangle.png,1,m,Mon May 19 2025 16:13:18 GMT-0500 (Central Daylight Time),634307.0,1500,I,m,1348,12,1,2861.8000000715256,631445.1999999285,8040,NTS,C,14
6,12,test,3,C,circle.png,1,m,Mon May 19 2025 16:13:18 GMT-0500 (Central Daylight Time),637172.8999999762,1900,I,m,938,21,1,2862.0,634310.8999999762,8040,NTS,C,15
2,13,test,3,C,triangle.png,1,m,Mon May 19 2025 16:13:18 GMT-0500 (Central Daylight Time),640655.1000000238,2000,I,m,1453,2,1,3478.100000023842,637177.0,8040,NTS,C,16
1,14,test,3,C,circle.png,1,z,Mon May 19 2025 16:13:18 GMT-0500 (Central Daylight Time),642871.1999999285,1000,I,z,1194,17,1,2212.399999976158,640658.7999999523,8040,NTS,C,17
7,14,test,3,C,circle.png,0,m,Mon May 19 2025 16:13:18 GMT-0500 (Central Daylight Time),646403.3999999762,2000,I,None,1515,14,1,3528.100000023842,642875.2999999523,8040,NTS,C,18
2,15,test,3,C,circle.png,1,z,Mon May 19 2025 16:13:18 GMT-0500 (Central Daylight Time),649319.0,1700,I,z,1194,10,1,2911.399999976158,646407.6000000238,8040,NTS,C,19
3,16,test,3,C,triangle.png,1,z,Mon May 19 2025 16:13:18 GMT-0500 (Central Daylight Time),651648.2999999523,1200,I,z,1094,19,1,2325.6999999284744,649322.6000000238,8040,NTS,C,20
4,17,test,3,C,circle.png,1,z,Mon May 19 2025 16:13:18 GMT-0500 (Central Daylight Time),654084.1000000238,1400,I,z,1014,20,1,2430.7000000476837,651653.3999999762,8040,NTS,C,21
7,18,test,3,C,triangle.png,1,z,Mon May 19 2025 16:13:18 GMT-0500 (Central Daylight Time),657066.6999999285,1700,I,z,1257,22,1,2976.899999976158,654089.7999999523,8040,NTS,C,22
1,19,test,3,C,triangle.png,1,z,Mon May 19 2025 16:13:18 GMT-0500 (Central Daylight Time),660098.8999999762,1900,I,z,1115,9,1,3028.0,657070.8999999762,8040,NTS,C,23
2,20,test,3,C,triangle.png,1,m,Mon May 19 2025 16:13:18 GMT-0500 (Central Daylight Time),663114.7999999523,2000,I,m,999,18,1,3012.100000023842,660102.6999999285,8040,NTS,C,24
3,1,test,4,C,triangle.png,1,z,Mon May 19 2025 16:13:18 GMT-0500 (Central Daylight Time),669829.6000000238,1200,I,z,1329,19,1,2544.8000000715256,667284.7999999523,8040,NTS,C,1
2,2,test,4,C,circle.png,1,z,Mon May 19 2025 16:13:18 GMT-0500 (Central Daylight Time),672612.0,1700,I,z,1064,10,1,2778.399999976158,669833.6000000238,8040,NTS,C,2
1,2,test,4,C,circle.png,0,z,Mon May 19 2025 16:13:18 GMT-0500 (Central Daylight Time),675201.8999999762,1000,I,None,1573,17,1,2584.899999976158,672617.0,8040,NTS,C,3
7,3,test,4,C,circle.png,1,m,Mon May 19 2025 16:13:18 GMT-0500 (Central Daylight Time),678476.8999999762,2000,I,m,1255,14,1,3270.899999976158,675206.0,8040,NTS,C,4
1,4,test,4,C,circle.png,1,z,Mon May 19 2025 16:13:18 GMT-0500 (Central Daylight Time),680542.8999999762,1000,I,z,1036,1,1,2062.2000000476837,678480.6999999285,8040,NTS,C,5
9,5,test,4,C,circle.png,1,m,Mon May 19 2025 16:13:18 GMT-0500 (Central Daylight Time),683242.1999999285,1500,I,m,1183,24,1,2695.5999999046326,680546.6000000238,8040,NTS,C,6
9,6,test,4,C,triangle.png,1,z,Mon May 19 2025 16:13:18 GMT-0500 (Central Daylight Time),685674.6000000238,1400,I,z,999,16,1,2428.9000000953674,683245.6999999285,8040,NTS,C,7
4,7,test,4,C,triangle.png,1,m,Mon May 19 2025 16:13:18 GMT-0500 (Central Daylight Time),688223.7999999523,1500,I,m,1019,12,1,2545.600000023842,685678.1999999285,8040,NTS,C,8
6,8,test,4,C,circle.png,1,m,Mon May 19 2025 16:13:18 GMT-0500 (Central Daylight Time),691272.7999999523,1900,I,m,1118,21,1,3045.5,688227.2999999523,8040,NTS,C,9
4,9,test,4,C,circle.png,1,z,Mon May 19 2025 16:13:18 GMT-0500 (Central Daylight Time),693688.6999999285,1400,I,z,984,4,1,2412.0999999046326,691276.6000000238,8040,NTS,C,10
2,10,test,4,C,triangle.png,1,m,Mon May 19 2025 16:13:18 GMT-0500 (Central Daylight Time),696687.8999999762,2000,I,m,977,2,1,2994.0,693693.8999999762,8040,NTS,C,11
7,11,test,4,C,triangle.png,1,z,Mon May 19 2025 16:13:18 GMT-0500 (Central Daylight Time),699820.1000000238,1700,I,z,1405,22,1,3128.4000000953674,696691.6999999285,8040,NTS,C,12
2,12,test,4,C,triangle.png,1,m,Mon May 19 2025 16:13:18 GMT-0500 (Central Daylight Time),702885.7999999523,2000,I,m,1037,18,1,3061.6999999284744,699824.1000000238,8040,NTS,C,13
3,13,test,4,C,triangle.png,1,z,Mon May 19 2025 16:13:18 GMT-0500 (Central Daylight Time),705435.1000000238,1200,I,z,1323,3,1,2545.0,702890.1000000238,8040,NTS,C,14
4,13,test,4,C,circle.png,0,z,Mon May 19 2025 16:13:18 GMT-0500 (Central Daylight Time),708034.1999999285,1400,I,m,1174,20,1,2595.5,705438.6999999285,8040,NTS,C,15
3,14,test,4,C,circle.png,1,z,Mon May 19 2025 16:13:18 GMT-0500 (Central Daylight Time),710849.8999999762,1600,I,z,1191,11,1,2810.7000000476837,708039.1999999285,8040,NTS,C,16
9,15,test,4,C,circle.png,1,m,Mon May 19 2025 16:13:18 GMT-0500 (Central Daylight Time),713415.7999999523,1500,I,m,1043,8,1,2562.100000023842,710853.6999999285,8040,NTS,C,17
8,16,test,4,C,circle.png,1,m,Mon May 19 2025 16:13:18 GMT-0500 (Central Daylight Time),715665.0,1200,I,m,1017,15,1,2245.399999976158,713419.6000000238,8040,NTS,C,18
6,17,test,4,C,circle.png,1,m,Mon May 19 2025 16:13:18 GMT-0500 (Central Daylight Time),718680.8999999762,1900,I,m,1093,5,1,3012.5,715668.3999999762,8040,NTS,C,19
6,18,test,4,C,triangle.png,1,m,Mon May 19 2025 16:13:18 GMT-0500 (Central Daylight Time),720863.5,1000,I,m,1152,13,1,2179.0,718684.5,8040,NTS,C,20
7,19,test,4,C,triangle.png,1,z,Mon May 19 2025 16:13:18 GMT-0500 (Central Daylight Time),723762.5,1700,I,z,1167,6,1,2895.399999976158,720867.1000000238,8040,NTS,C,21
1,20,test,4,C,triangle.png,1,z,Mon May 19 2025 16:13:18 GMT-0500 (Central Daylight Time),727061.6000000238,1900,I,z,1371,9,1,3295.3000000715256,723766.2999999523,8040,NTS,C,22
8,21,test,4,C,triangle.png,1,m,Mon May 19 2025 16:13:18 GMT-0500 (Central Daylight Time),729594.1000000238,1600,I,m,900,23,1,2527.5,727066.6000000238,8040,NTS,C,23
8,22,test,4,C,triangle.png,1,m,Mon May 19 2025 16:13:18 GMT-0500 (Central Daylight Time),732310.0,1600,I,m,1088,7,1,2712.100000023842,729597.8999999762,8040,NTS,C,24
