Number,acc_sum,block,block_c,block_cond,con_img,correct,correct_response,datetime,endtime,jitter,project,response,response_time,row_sel,session_number,start_end,starttime,subject_id,task,task_vers,trial
3,1,prac,1,A,circle.png,1,z,Wed Oct 29 2025 11:07:34 GMT-0500 (Central Daylight Time),60956.40000009537,1200,O,z,1480,3,1,3475.0,57481.40000009537,7703,NTS,A,1
2,2,prac,1,A,circle.png,1,z,Wed Oct 29 2025 11:07:34 GMT-0500 (Central Daylight Time),64506.300000190735,2000,O,z,762,2,1,3544.0,60962.300000190735,7703,NTS,A,2
6,3,prac,1,A,circle.png,1,m,Wed Oct 29 2025 11:07:34 GMT-0500 (Central Daylight Time),68621.80000019073,1900,O,m,1433,5,1,4109.700000047684,64512.10000014305,7703,NTS,A,3
8,4,prac,1,A,circle.png,1,m,Wed Oct 29 2025 11:07:34 GMT-0500 (Central Daylight Time),71587.40000009537,1600,O,m,593,7,1,2959.0,68628.40000009537,7703,NTS,A,4
3,5,prac,1,A,circle.png,1,z,Wed Oct 29 2025 11:07:34 GMT-0500 (Central Daylight Time),74118.90000009537,1200,O,z,541,3,1,2524.5,71594.40000009537,7703,NTS,A,5
4,6,prac,1,A,circle.png,1,z,Wed Oct 29 2025 11:07:34 GMT-0500 (Central Daylight Time),76903.30000019073,1400,O,z,583,4,1,2777.100000143051,74126.20000004768,7703,NTS,A,6
8,7,prac,1,A,circle.png,1,m,Wed Oct 29 2025 11:07:34 GMT-0500 (Central Daylight Time),79917.80000019073,1600,O,m,619,7,1,3007.100000143051,76910.70000004768,7703,NTS,A,7
1,8,prac,1,A,circle.png,1,z,Wed Oct 29 2025 11:07:34 GMT-0500 (Central Daylight Time),82305.90000009537,1000,O,z,610,1,1,2381.7999999523163,79924.10000014305,7703,NTS,A,8
9,9,prac,1,A,circle.png,1,m,Wed Oct 29 2025 11:07:34 GMT-0500 (Central Daylight Time),85066.5,1500,O,m,495,8,1,2756.2999999523163,82310.20000004768,7703,NTS,A,9
1,10,prac,1,A,circle.png,1,z,Wed Oct 29 2025 11:07:34 GMT-0500 (Central Daylight Time),87398.70000004768,1000,O,z,535,1,1,2324.7999999523163,85073.90000009537,7703,NTS,A,10
2,11,prac,1,A,circle.png,1,z,Wed Oct 29 2025 11:07:34 GMT-0500 (Central Daylight Time),90715.10000014305,2000,O,z,532,2,1,3306.100000143051,87409.0,7703,NTS,A,11
7,12,prac,1,A,circle.png,1,m,Wed Oct 29 2025 11:07:34 GMT-0500 (Central Daylight Time),93913.0,1700,O,m,706,6,1,3191.2999999523163,90721.70000004768,7703,NTS,A,12
7,0,prac,2,A,circle.png,0,m,Wed Oct 29 2025 11:07:34 GMT-0500 (Central Daylight Time),101260.90000009537,1700,O,None,1514,6,1,3993.2000000476837,97267.70000004768,7703,NTS,A,1
2,0,prac,2,A,circle.png,0,z,Wed Oct 29 2025 11:07:34 GMT-0500 (Central Daylight Time),105559.5,2000,O,None,1515,2,1,4294.199999809265,101265.30000019073,7703,NTS,A,2
9,0,prac,2,A,circle.png,0,m,Wed Oct 29 2025 11:07:34 GMT-0500 (Central Daylight Time),109359.20000004768,1500,O,None,1517,8,1,3793.5,105565.70000004768,7703,NTS,A,3
8,0,prac,2,A,circle.png,0,m,Wed Oct 29 2025 11:07:34 GMT-0500 (Central Daylight Time),113256.60000014305,1600,O,None,1518,7,1,3891.600000143051,109365.0,7703,NTS,A,4
9,0,prac,2,A,circle.png,0,m,Wed Oct 29 2025 11:07:34 GMT-0500 (Central Daylight Time),117042.60000014305,1500,O,None,1516,8,1,3777.7999999523163,113264.80000019073,7703,NTS,A,5
4,0,prac,2,A,circle.png,0,z,Wed Oct 29 2025 11:07:34 GMT-0500 (Central Daylight Time),120736.5,1400,O,None,1516,4,1,3688.2999999523163,117048.20000004768,7703,NTS,A,6
6,0,prac,2,A,circle.png,0,m,Wed Oct 29 2025 11:07:34 GMT-0500 (Central Daylight Time),124920.20000004768,1900,O,None,1502,5,1,4175.399999856949,120744.80000019073,7703,NTS,A,7
4,0,prac,2,A,circle.png,0,z,Wed Oct 29 2025 11:07:34 GMT-0500 (Central Daylight Time),128620.30000019073,1400,O,None,1512,4,1,3695.600000143051,124924.70000004768,7703,NTS,A,8
6,0,prac,2,A,circle.png,0,m,Wed Oct 29 2025 11:07:34 GMT-0500 (Central Daylight Time),132818.5,1900,O,None,1518,5,1,4190.099999904633,128628.40000009537,7703,NTS,A,9
1,0,prac,2,A,circle.png,0,z,Wed Oct 29 2025 11:07:34 GMT-0500 (Central Daylight Time),136115.70000004768,1000,O,None,1514,1,1,3291.5,132824.20000004768,7703,NTS,A,10
8,0,prac,2,A,circle.png,0,m,Wed Oct 29 2025 11:07:34 GMT-0500 (Central Daylight Time),140014.30000019073,1600,O,None,1517,7,1,3894.5,136119.80000019073,7703,NTS,A,11
3,0,prac,2,A,circle.png,0,z,Wed Oct 29 2025 11:07:34 GMT-0500 (Central Daylight Time),143500.60000014305,1200,O,None,1516,3,1,3481.9000000953674,140018.70000004768,7703,NTS,A,12
4,0,prac,1,B,triangle.png,0,m,Wed Oct 29 2025 11:07:34 GMT-0500 (Central Daylight Time),169042.10000014305,1500,O,None,1516,4,1,3778.7000000476837,165263.40000009537,7703,NTS,A,1
1,0,prac,1,B,triangle.png,0,z,Wed Oct 29 2025 11:07:34 GMT-0500 (Central Daylight Time),171905.10000014305,1900,O,m,173,1,1,2856.7999999523163,169048.30000019073,7703,NTS,A,2
3,1,prac,1,B,triangle.png,1,z,Wed Oct 29 2025 11:07:34 GMT-0500 (Central Daylight Time),175290.20000004768,1600,O,z,1000,3,1,3380.0,171910.20000004768,7703,NTS,A,3
7,1,prac,1,B,triangle.png,0,z,Wed Oct 29 2025 11:07:34 GMT-0500 (Central Daylight Time),178703.80000019073,2000,O,m,615,6,1,3408.7000000476837,175295.10000014305,7703,NTS,A,4
2,1,prac,1,B,triangle.png,0,m,Wed Oct 29 2025 11:07:34 GMT-0500 (Central Daylight Time),182318.0,1700,O,z,1125,2,1,3607.0,178711.0,7703,NTS,A,5
1,1,prac,1,B,triangle.png,0,z,Wed Oct 29 2025 11:07:34 GMT-0500 (Central Daylight Time),186517.20000004768,1900,O,None,1516,1,1,4194.0,182323.20000004768,7703,NTS,A,6
3,2,prac,1,B,triangle.png,1,z,Wed Oct 29 2025 11:07:34 GMT-0500 (Central Daylight Time),189983.20000004768,1600,O,z,1092,3,1,3460.399999856949,186522.80000019073,7703,NTS,A,7
9,3,prac,1,B,triangle.png,1,z,Wed Oct 29 2025 11:07:34 GMT-0500 (Central Daylight Time),193100.5,1400,O,z,929,8,1,3110.399999856949,189990.10000014305,7703,NTS,A,8
7,4,prac,1,B,triangle.png,1,z,Wed Oct 29 2025 11:07:34 GMT-0500 (Central Daylight Time),196547.70000004768,2000,O,z,669,6,1,3441.7999999523163,193105.90000009537,7703,NTS,A,9
6,5,prac,1,B,triangle.png,1,m,Wed Oct 29 2025 11:07:34 GMT-0500 (Central Daylight Time),199079.30000019073,1000,O,m,741,5,1,2525.100000143051,196554.20000004768,7703,NTS,A,10
2,6,prac,1,B,triangle.png,1,m,Wed Oct 29 2025 11:07:34 GMT-0500 (Central Daylight Time),202745.20000004768,1700,O,m,1181,2,1,3659.7000000476837,199085.5,7703,NTS,A,11
8,7,prac,1,B,triangle.png,1,m,Wed Oct 29 2025 11:07:34 GMT-0500 (Central Daylight Time),205346.40000009537,1200,O,m,598,7,1,2596.0,202750.40000009537,7703,NTS,A,12
9,0,prac,2,B,triangle.png,0,z,Wed Oct 29 2025 11:07:34 GMT-0500 (Central Daylight Time),214491.10000014305,1400,O,None,1517,8,1,3691.7000000476837,210799.40000009537,7703,NTS,A,1
8,1,prac,2,B,triangle.png,1,m,Wed Oct 29 2025 11:07:34 GMT-0500 (Central Daylight Time),217523.20000004768,1200,O,m,1037,7,1,3025.399999856949,214497.80000019073,7703,NTS,A,2
6,2,prac,2,B,triangle.png,1,m,Wed Oct 29 2025 11:07:34 GMT-0500 (Central Daylight Time),220322.5,1000,O,m,1013,5,1,2793.699999809265,217528.80000019073,7703,NTS,A,3
4,3,prac,2,B,triangle.png,1,m,Wed Oct 29 2025 11:07:34 GMT-0500 (Central Daylight Time),223239.30000019073,1500,O,m,618,4,1,2911.4000000953674,220327.90000009537,7703,NTS,A,4
7,4,prac,2,B,triangle.png,1,z,Wed Oct 29 2025 11:07:34 GMT-0500 (Central Daylight Time),226903.80000019073,2000,O,z,881,6,1,3659.5,223244.30000019073,7703,NTS,A,5
2,5,prac,2,B,triangle.png,1,m,Wed Oct 29 2025 11:07:34 GMT-0500 (Central Daylight Time),230486.10000014305,1700,O,m,1092,2,1,3577.2000000476837,226908.90000009537,7703,NTS,A,6
3,6,prac,2,B,triangle.png,1,z,Wed Oct 29 2025 11:07:34 GMT-0500 (Central Daylight Time),234200.40000009537,1600,O,z,1323,3,1,3707.0999999046326,230493.30000019073,7703,NTS,A,7
8,7,prac,2,B,triangle.png,1,m,Wed Oct 29 2025 11:07:34 GMT-0500 (Central Daylight Time),236968.60000014305,1200,O,m,767,7,1,2764.9000000953674,234203.70000004768,7703,NTS,A,8
1,7,prac,2,B,triangle.png,0,z,Wed Oct 29 2025 11:07:34 GMT-0500 (Central Daylight Time),241066.80000019073,1900,O,m,1406,1,1,4091.4000000953674,236975.40000009537,7703,NTS,A,9
4,8,prac,2,B,triangle.png,1,m,Wed Oct 29 2025 11:07:34 GMT-0500 (Central Daylight Time),244198.20000004768,1500,O,m,842,4,1,3122.0,241076.20000004768,7703,NTS,A,10
9,9,prac,2,B,triangle.png,1,z,Wed Oct 29 2025 11:07:34 GMT-0500 (Central Daylight Time),247246.90000009537,1400,O,z,873,8,1,3042.2000000476837,244204.70000004768,7703,NTS,A,11
2,10,prac,2,B,triangle.png,1,m,Wed Oct 29 2025 11:07:34 GMT-0500 (Central Daylight Time),250530.70000004768,1700,O,m,789,2,1,3276.5,247254.20000004768,7703,NTS,A,12
6,1,test,1,A,circle.png,1,m,Wed Oct 29 2025 11:07:34 GMT-0500 (Central Daylight Time),276854.7000000477,1900,O,m,885,5,1,2812.2999999523163,274042.40000009537,7703,NTS,A,1
3,2,test,1,A,circle.png,1,z,Wed Oct 29 2025 11:07:34 GMT-0500 (Central Daylight Time),278888.30000019073,1200,O,z,809,3,1,2029.1000001430511,276859.2000000477,7703,NTS,A,2
4,3,test,1,A,circle.png,1,z,Wed Oct 29 2025 11:07:34 GMT-0500 (Central Daylight Time),281386.5,1400,O,z,1081,4,1,2494.2999999523163,278892.2000000477,7703,NTS,A,3
1,4,test,1,A,circle.png,1,z,Wed Oct 29 2025 11:07:34 GMT-0500 (Central Daylight Time),282919.40000009537,1000,O,z,500,1,1,1527.5999999046326,281391.80000019073,7703,NTS,A,4
7,5,test,1,A,circle.png,1,m,Wed Oct 29 2025 11:07:34 GMT-0500 (Central Daylight Time),285269.40000009537,1700,O,m,629,6,1,2345.4000000953674,282924.0,7703,NTS,A,5
1,6,test,1,A,circle.png,1,z,Wed Oct 29 2025 11:07:34 GMT-0500 (Central Daylight Time),286869.10000014305,1000,O,z,580,1,1,1596.5,285272.60000014305,7703,NTS,A,6
2,7,test,1,A,circle.png,1,z,Wed Oct 29 2025 11:07:34 GMT-0500 (Central Daylight Time),289799.90000009537,2000,O,z,905,2,1,2926.2999999523163,286873.60000014305,7703,NTS,A,7
9,8,test,1,A,circle.png,1,m,Wed Oct 29 2025 11:07:34 GMT-0500 (Central Daylight Time),291933.90000009537,1500,O,m,611,8,1,2130.4000000953674,289803.5,7703,NTS,A,8
8,9,test,1,A,circle.png,1,m,Wed Oct 29 2025 11:07:34 GMT-0500 (Central Daylight Time),294367.2000000477,1600,O,m,802,7,1,2429.2999999523163,291937.90000009537,7703,NTS,A,9
4,10,test,1,A,circle.png,1,z,Wed Oct 29 2025 11:07:34 GMT-0500 (Central Daylight Time),296466.10000014305,1400,O,z,674,4,1,2095.4000000953674,294370.7000000477,7703,NTS,A,10
9,11,test,1,A,circle.png,1,m,Wed Oct 29 2025 11:07:34 GMT-0500 (Central Daylight Time),298565.0,1500,O,m,579,8,1,2094.5999999046326,296470.40000009537,7703,NTS,A,11
4,12,test,1,A,circle.png,1,z,Wed Oct 29 2025 11:07:34 GMT-0500 (Central Daylight Time),300815.10000014305,1400,O,z,820,4,1,2247.600000143051,298567.5,7703,NTS,A,12
7,13,test,1,A,circle.png,1,m,Wed Oct 29 2025 11:07:34 GMT-0500 (Central Daylight Time),303195.2000000477,1700,O,m,652,6,1,2375.2999999523163,300819.90000009537,7703,NTS,A,13
1,14,test,1,A,circle.png,1,z,Wed Oct 29 2025 11:07:34 GMT-0500 (Central Daylight Time),304829.2000000477,1000,O,z,613,1,1,1630.5,303198.7000000477,7703,NTS,A,14
8,15,test,1,A,circle.png,1,m,Wed Oct 29 2025 11:07:34 GMT-0500 (Central Daylight Time),307194.30000019073,1600,O,m,738,7,1,2362.100000143051,304832.2000000477,7703,NTS,A,15
6,16,test,1,A,circle.png,1,m,Wed Oct 29 2025 11:07:34 GMT-0500 (Central Daylight Time),309961.2000000477,1900,O,m,839,5,1,2762.899999856949,307198.30000019073,7703,NTS,A,16
9,17,test,1,A,circle.png,1,m,Wed Oct 29 2025 11:07:34 GMT-0500 (Central Daylight Time),311977.30000019073,1500,O,m,493,8,1,2010.8000001907349,309966.5,7703,NTS,A,17
7,18,test,1,A,circle.png,1,m,Wed Oct 29 2025 11:07:34 GMT-0500 (Central Daylight Time),314160.0,1700,O,m,451,6,1,2178.7999999523163,311981.2000000477,7703,NTS,A,18
2,19,test,1,A,circle.png,1,z,Wed Oct 29 2025 11:07:34 GMT-0500 (Central Daylight Time),316794.2000000477,2000,O,z,617,2,1,2631.0,314163.2000000477,7703,NTS,A,19
9,20,test,1,A,circle.png,1,m,Wed Oct 29 2025 11:07:34 GMT-0500 (Central Daylight Time),318825.7000000477,1500,O,m,505,8,1,2026.8999998569489,316798.80000019073,7703,NTS,A,20
3,21,test,1,A,circle.png,1,z,Wed Oct 29 2025 11:07:34 GMT-0500 (Central Daylight Time),320640.7000000477,1200,O,z,581,3,1,1811.0999999046326,318829.60000014305,7703,NTS,A,21
2,22,test,1,A,circle.png,1,z,Wed Oct 29 2025 11:07:34 GMT-0500 (Central Daylight Time),323240.10000014305,2000,O,z,575,2,1,2594.7999999523163,320645.30000019073,7703,NTS,A,22
8,23,test,1,A,circle.png,1,m,Wed Oct 29 2025 11:07:34 GMT-0500 (Central Daylight Time),325406.0,1600,O,m,539,7,1,2162.699999809265,323243.30000019073,7703,NTS,A,23
6,24,test,1,A,circle.png,1,m,Wed Oct 29 2025 11:07:34 GMT-0500 (Central Daylight Time),327871.80000019073,1900,O,m,533,5,1,2462.7000000476837,325409.10000014305,7703,NTS,A,24
9,1,test,1,B,triangle.png,1,z,Wed Oct 29 2025 11:07:34 GMT-0500 (Central Daylight Time),348731.7000000477,1900,O,z,838,16,1,2763.399999856949,345968.30000019073,7703,NTS,A,1
6,2,test,1,B,triangle.png,1,m,Wed Oct 29 2025 11:07:34 GMT-0500 (Central Daylight Time),350582.0,1000,O,m,828,5,1,1843.7999999523163,348738.2000000477,7703,NTS,A,2
4,2,test,1,B,triangle.png,0,m,Wed Oct 29 2025 11:07:34 GMT-0500 (Central Daylight Time),353614.0,1500,O,None,1516,4,1,3026.199999809265,350587.80000019073,7703,NTS,A,3
2,3,test,1,B,triangle.png,1,m,Wed Oct 29 2025 11:07:34 GMT-0500 (Central Daylight Time),356046.80000019073,1700,O,m,710,2,1,2425.300000190735,353621.5,7703,NTS,A,4
8,4,test,1,B,triangle.png,1,m,Wed Oct 29 2025 11:07:34 GMT-0500 (Central Daylight Time),357812.0,1200,O,m,546,7,1,1759.5999999046326,356052.40000009537,7703,NTS,A,5
9,5,test,1,B,triangle.png,1,z,Wed Oct 29 2025 11:07:34 GMT-0500 (Central Daylight Time),359862.10000014305,1400,O,z,620,8,1,2042.9000000953674,357819.2000000477,7703,NTS,A,6
3,6,test,1,B,triangle.png,1,z,Wed Oct 29 2025 11:07:34 GMT-0500 (Central Daylight Time),363343.5,2000,O,z,1451,11,1,3473.7999999523163,359869.7000000477,7703,NTS,A,7
6,7,test,1,B,triangle.png,1,m,Wed Oct 29 2025 11:07:34 GMT-0500 (Central Daylight Time),365525.30000019073,1500,O,m,651,13,1,2174.9000000953674,363350.40000009537,7703,NTS,A,8
4,8,test,1,B,triangle.png,1,m,Wed Oct 29 2025 11:07:34 GMT-0500 (Central Daylight Time),367743.40000009537,1500,O,m,695,4,1,2215.5,365527.90000009537,7703,NTS,A,9
4,9,test,1,B,triangle.png,1,m,Wed Oct 29 2025 11:07:34 GMT-0500 (Central Daylight Time),369275.60000014305,1000,O,m,506,12,1,1526.1000001430511,367749.5,7703,NTS,A,10
7,10,test,1,B,triangle.png,1,z,Wed Oct 29 2025 11:07:34 GMT-0500 (Central Daylight Time),371607.40000009537,1600,O,z,708,14,1,2329.0999999046326,369278.30000019073,7703,NTS,A,11
1,11,test,1,B,triangle.png,1,z,Wed Oct 29 2025 11:07:34 GMT-0500 (Central Daylight Time),374240.40000009537,1900,O,z,709,1,1,2626.2999999523163,371614.10000014305,7703,NTS,A,12
7,11,test,1,B,triangle.png,0,z,Wed Oct 29 2025 11:07:34 GMT-0500 (Central Daylight Time),377773.80000019073,2000,O,None,1515,6,1,3527.0,374246.80000019073,7703,NTS,A,13
2,12,test,1,B,triangle.png,1,m,Wed Oct 29 2025 11:07:34 GMT-0500 (Central Daylight Time),380422.10000014305,1200,O,m,1428,10,1,2643.7000000476837,377778.40000009537,7703,NTS,A,14
3,13,test,1,B,triangle.png,1,z,Wed Oct 29 2025 11:07:34 GMT-0500 (Central Daylight Time),382654.40000009537,1600,O,z,602,3,1,2228.0999999046326,380426.30000019073,7703,NTS,A,15
7,13,test,1,B,triangle.png,0,z,Wed Oct 29 2025 11:07:34 GMT-0500 (Central Daylight Time),385786.80000019073,1600,O,None,1516,14,1,3128.9000000953674,382657.90000009537,7703,NTS,A,16
9,14,test,1,B,triangle.png,1,z,Wed Oct 29 2025 11:07:34 GMT-0500 (Central Daylight Time),388251.40000009537,1900,O,z,547,16,1,2459.5,385791.90000009537,7703,NTS,A,17
4,15,test,1,B,triangle.png,1,m,Wed Oct 29 2025 11:07:34 GMT-0500 (Central Daylight Time),390086.10000014305,1000,O,m,824,12,1,1832.1000001430511,388254.0,7703,NTS,A,18
6,15,test,1,B,triangle.png,0,m,Wed Oct 29 2025 11:07:34 GMT-0500 (Central Daylight Time),392618.40000009537,1000,O,None,1516,5,1,2527.9000000953674,390090.5,7703,NTS,A,19
7,16,test,1,B,triangle.png,1,z,Wed Oct 29 2025 11:07:34 GMT-0500 (Central Daylight Time),395582.5,2000,O,z,932,6,1,2959.5999999046326,392622.90000009537,7703,NTS,A,20
1,17,test,1,B,triangle.png,1,z,Wed Oct 29 2025 11:07:34 GMT-0500 (Central Daylight Time),398300.0,1400,O,z,1297,9,1,2714.5,395585.5,7703,NTS,A,21
3,18,test,1,B,triangle.png,1,z,Wed Oct 29 2025 11:07:34 GMT-0500 (Central Daylight Time),400765.40000009537,2000,O,z,437,11,1,2461.5,398303.90000009537,7703,NTS,A,22
8,19,test,1,B,triangle.png,1,m,Wed Oct 29 2025 11:07:34 GMT-0500 (Central Daylight Time),403098.30000019073,1700,O,m,607,15,1,2328.9000000953674,400769.40000009537,7703,NTS,A,23
1,20,test,1,B,triangle.png,1,z,Wed Oct 29 2025 11:07:34 GMT-0500 (Central Daylight Time),405864.40000009537,1900,O,z,834,1,1,2760.9000000953674,403103.5,7703,NTS,A,24
9,0,prac,1,C,circle.png,0,m,Wed Oct 29 2025 11:07:34 GMT-0500 (Central Daylight Time),455031.30000019073,1900,O,None,1515,8,1,4188.200000047684,450843.10000014305,7703,NTS,A,1
2,0,prac,1,C,triangle.png,0,m,Wed Oct 29 2025 11:07:34 GMT-0500 (Central Daylight Time),458915.90000009537,1600,O,None,1514,2,1,3879.0999999046326,455036.80000019073,7703,NTS,A,2
9,1,prac,1,C,circle.png,1,m,Wed Oct 29 2025 11:07:34 GMT-0500 (Central Daylight Time),462479.40000009537,1900,O,m,876,8,1,3557.7000000476837,458921.7000000477,7703,NTS,A,3
2,1,prac,1,C,triangle.png,0,m,Wed Oct 29 2025 11:07:34 GMT-0500 (Central Daylight Time),466363.30000019073,1600,O,None,1516,2,1,3876.300000190735,462487.0,7703,NTS,A,4
8,2,prac,1,C,triangle.png,1,m,Wed Oct 29 2025 11:07:34 GMT-0500 (Central Daylight Time),469295.90000009537,1400,O,m,750,7,1,2926.5,466369.40000009537,7703,NTS,A,5
8,3,prac,1,C,triangle.png,1,m,Wed Oct 29 2025 11:07:34 GMT-0500 (Central Daylight Time),472210.7000000477,1400,O,m,730,7,1,2908.7000000476837,469302.0,7703,NTS,A,6
1,4,prac,1,C,circle.png,1,z,Wed Oct 29 2025 11:07:34 GMT-0500 (Central Daylight Time),475575.2000000477,1700,O,z,876,1,1,3357.399999856949,472217.80000019073,7703,NTS,A,7
6,5,prac,1,C,circle.png,1,m,Wed Oct 29 2025 11:07:34 GMT-0500 (Central Daylight Time),478992.0,2000,O,m,625,5,1,3409.699999809265,475582.30000019073,7703,NTS,A,8
4,5,prac,1,C,circle.png,0,z,Wed Oct 29 2025 11:07:34 GMT-0500 (Central Daylight Time),481589.40000009537,1000,O,m,810,4,1,2591.4000000953674,478998.0,7703,NTS,A,9
7,6,prac,1,C,triangle.png,1,z,Wed Oct 29 2025 11:07:34 GMT-0500 (Central Daylight Time),484688.60000014305,1200,O,z,1100,6,1,3091.7999999523163,481596.80000019073,7703,NTS,A,10
1,7,prac,1,C,circle.png,1,z,Wed Oct 29 2025 11:07:34 GMT-0500 (Central Daylight Time),488387.2000000477,1700,O,z,1211,1,1,3691.899999856949,484695.30000019073,7703,NTS,A,11
3,7,prac,1,C,triangle.png,0,z,Wed Oct 29 2025 11:07:34 GMT-0500 (Central Daylight Time),492185.40000009537,1500,O,None,1518,3,1,3790.5999999046326,488394.80000019073,7703,NTS,A,12
3,0,prac,2,C,triangle.png,0,z,Wed Oct 29 2025 11:07:34 GMT-0500 (Central Daylight Time),519445.5,1500,O,None,1502,3,1,3776.199999809265,515669.30000019073,7703,NTS,A,1
3,0,prac,2,C,triangle.png,0,z,Wed Oct 29 2025 11:07:34 GMT-0500 (Central Daylight Time),522526.5,1500,O,m,784,3,1,3072.2999999523163,519454.2000000477,7703,NTS,A,2
6,1,prac,2,C,circle.png,1,m,Wed Oct 29 2025 11:07:34 GMT-0500 (Central Daylight Time),526792.4000000954,2000,O,m,1468,5,1,4259.400000095367,522533.0,7703,NTS,A,3
2,1,prac,2,C,triangle.png,0,m,Wed Oct 29 2025 11:07:34 GMT-0500 (Central Daylight Time),530140.5,1600,O,z,959,2,1,3338.5999999046326,526801.9000000954,7703,NTS,A,4
8,1,prac,2,C,triangle.png,0,m,Wed Oct 29 2025 11:07:34 GMT-0500 (Central Daylight Time),533822.100000143,1400,O,None,1501,7,1,3676.7999999523163,530145.3000001907,7703,NTS,A,5
4,2,prac,2,C,circle.png,1,z,Wed Oct 29 2025 11:07:34 GMT-0500 (Central Daylight Time),536938.4000000954,1000,O,z,1315,4,1,3110.4000000953674,533828.0,7703,NTS,A,6
1,3,prac,2,C,circle.png,1,z,Wed Oct 29 2025 11:07:34 GMT-0500 (Central Daylight Time),540138.600000143,1700,O,z,721,1,1,3194.0,536944.600000143,7703,NTS,A,7
7,3,prac,2,C,triangle.png,0,z,Wed Oct 29 2025 11:07:34 GMT-0500 (Central Daylight Time),542718.9000000954,1200,O,m,598,6,1,2572.2999999523163,540146.600000143,7703,NTS,A,8
9,4,prac,2,C,circle.png,1,m,Wed Oct 29 2025 11:07:34 GMT-0500 (Central Daylight Time),546538.0,1900,O,m,1140,8,1,3812.7999999523163,542725.2000000477,7703,NTS,A,9
2,4,prac,2,C,triangle.png,0,m,Wed Oct 29 2025 11:07:34 GMT-0500 (Central Daylight Time),550368.7000000477,1600,O,z,1450,2,1,3825.0999999046326,546543.600000143,7703,NTS,A,10
4,4,prac,2,C,circle.png,0,z,Wed Oct 29 2025 11:07:34 GMT-0500 (Central Daylight Time),553650.600000143,1000,O,None,1516,4,1,3276.100000143051,550374.5,7703,NTS,A,11
6,4,prac,2,C,circle.png,0,m,Wed Oct 29 2025 11:07:34 GMT-0500 (Central Daylight Time),557948.4000000954,2000,O,None,1517,5,1,4293.700000047684,553654.7000000477,7703,NTS,A,12
8,0,prac,3,C,triangle.png,0,m,Wed Oct 29 2025 11:07:34 GMT-0500 (Central Daylight Time),565931.2000000477,1400,O,None,1517,7,1,3692.7999999523163,562238.4000000954,7703,NTS,A,1
8,0,prac,3,C,triangle.png,0,m,Wed Oct 29 2025 11:07:34 GMT-0500 (Central Daylight Time),569627.5,1400,O,None,1514,7,1,3690.7999999523163,565936.7000000477,7703,NTS,A,2
2,0,prac,3,C,triangle.png,0,m,Wed Oct 29 2025 11:07:34 GMT-0500 (Central Daylight Time),573527.4000000954,1600,O,None,1515,2,1,3892.7000000476837,569634.7000000477,7703,NTS,A,3
9,1,prac,3,C,circle.png,1,m,Wed Oct 29 2025 11:07:34 GMT-0500 (Central Daylight Time),577660.9000000954,1900,O,m,1461,8,1,4127.099999904633,573533.8000001907,7703,NTS,A,4
2,2,prac,3,C,triangle.png,1,m,Wed Oct 29 2025 11:07:34 GMT-0500 (Central Daylight Time),581275.5,1600,O,m,1238,2,1,3608.699999809265,577666.8000001907,7703,NTS,A,5
7,2,prac,3,C,triangle.png,0,z,Wed Oct 29 2025 11:07:34 GMT-0500 (Central Daylight Time),584773.4000000954,1200,O,None,1515,6,1,3493.4000000953674,581280.0,7703,NTS,A,6
1,3,prac,3,C,circle.png,1,z,Wed Oct 29 2025 11:07:34 GMT-0500 (Central Daylight Time),588490.100000143,1700,O,z,1238,1,1,3712.9000000953674,584777.2000000477,7703,NTS,A,7
3,3,prac,3,C,triangle.png,0,z,Wed Oct 29 2025 11:07:34 GMT-0500 (Central Daylight Time),591489.2000000477,1500,O,m,707,3,1,2990.399999856949,588498.8000001907,7703,NTS,A,8
9,4,prac,3,C,circle.png,1,m,Wed Oct 29 2025 11:07:34 GMT-0500 (Central Daylight Time),595153.100000143,1900,O,m,969,8,1,3654.100000143051,591499.0,7703,NTS,A,9
4,4,prac,3,C,circle.png,0,z,Wed Oct 29 2025 11:07:34 GMT-0500 (Central Daylight Time),597603.3000001907,1000,O,m,665,4,1,2441.2000000476837,595162.100000143,7703,NTS,A,10
6,4,prac,3,C,circle.png,0,m,Wed Oct 29 2025 11:07:34 GMT-0500 (Central Daylight Time),601457.5,2000,O,z,1078,5,1,3845.199999809265,597612.3000001907,7703,NTS,A,11
7,4,prac,3,C,triangle.png,0,z,Wed Oct 29 2025 11:07:34 GMT-0500 (Central Daylight Time),604500.600000143,1200,O,m,1061,6,1,3039.7999999523163,601460.8000001907,7703,NTS,A,12
4,0,test,1,C,circle.png,0,z,Wed Oct 29 2025 11:07:34 GMT-0500 (Central Daylight Time),635192.100000143,1400,O,None,1517,4,1,2925.5,632266.600000143,7703,NTS,A,1
1,0,test,1,C,circle.png,0,z,Wed Oct 29 2025 11:07:34 GMT-0500 (Central Daylight Time),637723.8000001907,1000,O,None,1517,1,1,2525.4000000953674,635198.4000000954,7703,NTS,A,2
4,0,test,1,C,triangle.png,0,m,Wed Oct 29 2025 11:07:34 GMT-0500 (Central Daylight Time),640755.2000000477,1500,O,None,1515,20,1,3025.899999856949,637729.3000001907,7703,NTS,A,3
2,0,test,1,C,triangle.png,0,m,Wed Oct 29 2025 11:07:34 GMT-0500 (Central Daylight Time),644272.9000000954,2000,O,None,1501,2,1,3511.5,640761.4000000954,7703,NTS,A,4
8,1,test,1,C,triangle.png,1,m,Wed Oct 29 2025 11:07:34 GMT-0500 (Central Daylight Time),646919.9000000954,1600,O,m,1025,23,1,2640.5,644279.4000000954,7703,NTS,A,5
1,2,test,1,C,triangle.png,1,z,Wed Oct 29 2025 11:07:34 GMT-0500 (Central Daylight Time),649920.100000143,1900,O,z,1078,17,1,2996.0,646924.100000143,7703,NTS,A,6
9,2,test,1,C,circle.png,0,m,Wed Oct 29 2025 11:07:34 GMT-0500 (Central Daylight Time),652952.3000001907,1500,O,None,1516,8,1,3028.0,649924.3000001907,7703,NTS,A,7
6,3,test,1,C,circle.png,1,m,Wed Oct 29 2025 11:07:34 GMT-0500 (Central Daylight Time),655617.2000000477,1900,O,m,741,5,1,2661.2000000476837,652956.0,7703,NTS,A,8
3,4,test,1,C,triangle.png,1,z,Wed Oct 29 2025 11:07:34 GMT-0500 (Central Daylight Time),658182.8000001907,1200,O,z,1343,3,1,2562.2000000476837,655620.600000143,7703,NTS,A,9
7,4,test,1,C,circle.png,0,m,Wed Oct 29 2025 11:07:34 GMT-0500 (Central Daylight Time),661716.600000143,2000,O,None,1515,14,1,3530.9000000953674,658185.7000000477,7703,NTS,A,10
6,5,test,1,C,triangle.png,1,m,Wed Oct 29 2025 11:07:34 GMT-0500 (Central Daylight Time),663848.4000000954,1000,O,m,1100,13,1,2125.9000000953674,661722.5,7703,NTS,A,11
6,6,test,1,C,circle.png,1,m,Wed Oct 29 2025 11:07:34 GMT-0500 (Central Daylight Time),667046.3000001907,1900,O,m,1276,21,1,3195.2000000476837,663851.100000143,7703,NTS,A,12
7,6,test,1,C,triangle.png,0,z,Wed Oct 29 2025 11:07:34 GMT-0500 (Central Daylight Time),669679.600000143,1700,O,m,910,6,1,2629.7000000476837,667049.9000000954,7703,NTS,A,13
3,7,test,1,C,circle.png,1,z,Wed Oct 29 2025 11:07:34 GMT-0500 (Central Daylight Time),672495.2000000477,1600,O,z,1184,19,1,2812.7999999523163,669682.4000000954,7703,NTS,A,14
7,7,test,1,C,triangle.png,0,z,Wed Oct 29 2025 11:07:34 GMT-0500 (Central Daylight Time),674795.9000000954,1700,O,m,575,22,1,2297.7999999523163,672498.100000143,7703,NTS,A,15
1,8,test,1,C,triangle.png,1,z,Wed Oct 29 2025 11:07:34 GMT-0500 (Central Daylight Time),677444.3000001907,1900,O,z,721,9,1,2643.4000000953674,674800.9000000954,7703,NTS,A,16
2,8,test,1,C,circle.png,0,z,Wed Oct 29 2025 11:07:34 GMT-0500 (Central Daylight Time),680677.100000143,1700,O,None,1517,10,1,3226.7000000476837,677450.4000000954,7703,NTS,A,17
9,8,test,1,C,circle.png,0,m,Wed Oct 29 2025 11:07:34 GMT-0500 (Central Daylight Time),683709.2000000477,1500,O,None,1517,24,1,3028.7000000476837,680680.5,7703,NTS,A,18
9,8,test,1,C,triangle.png,0,z,Wed Oct 29 2025 11:07:34 GMT-0500 (Central Daylight Time),686507.7000000477,1400,O,m,1372,16,1,2792.7999999523163,683714.9000000954,7703,NTS,A,19
2,9,test,1,C,circle.png,1,z,Wed Oct 29 2025 11:07:34 GMT-0500 (Central Daylight Time),689223.2000000477,1700,O,z,993,18,1,2712.899999856949,686510.3000001907,7703,NTS,A,20
3,9,test,1,C,circle.png,0,z,Wed Oct 29 2025 11:07:34 GMT-0500 (Central Daylight Time),691955.100000143,1600,O,m,1105,11,1,2728.9000000953674,689226.2000000477,7703,NTS,A,21
8,10,test,1,C,triangle.png,1,m,Wed Oct 29 2025 11:07:34 GMT-0500 (Central Daylight Time),694739.2000000477,1600,O,m,1166,7,1,2780.5999999046326,691958.600000143,7703,NTS,A,22
8,10,test,1,C,circle.png,0,m,Wed Oct 29 2025 11:07:34 GMT-0500 (Central Daylight Time),697471.100000143,1200,O,None,1514,15,1,2727.0,694744.100000143,7703,NTS,A,23
4,10,test,1,C,triangle.png,0,m,Wed Oct 29 2025 11:07:34 GMT-0500 (Central Daylight Time),700069.9000000954,1500,O,z,1076,12,1,2596.0,697473.9000000954,7703,NTS,A,24
3,1,test,2,C,circle.png,1,z,Wed Oct 29 2025 11:07:34 GMT-0500 (Central Daylight Time),739974.0,1600,O,z,919,19,1,2545.699999809265,737428.3000001907,7703,NTS,A,1
3,2,test,2,C,circle.png,1,z,Wed Oct 29 2025 11:07:34 GMT-0500 (Central Daylight Time),742639.600000143,1600,O,z,1036,11,1,2659.7999999523163,739979.8000001907,7703,NTS,A,2
8,3,test,2,C,circle.png,1,m,Wed Oct 29 2025 11:07:34 GMT-0500 (Central Daylight Time),744706.3000001907,1200,O,m,849,15,1,2060.9000000953674,742645.4000000954,7703,NTS,A,3
4,3,test,2,C,triangle.png,0,m,Wed Oct 29 2025 11:07:34 GMT-0500 (Central Daylight Time),747738.2000000477,1500,O,None,1515,20,1,3026.2000000476837,744712.0,7703,NTS,A,4
1,4,test,2,C,triangle.png,1,z,Wed Oct 29 2025 11:07:34 GMT-0500 (Central Daylight Time),750470.5,1900,O,z,802,17,1,2727.0,747743.5,7703,NTS,A,5
9,4,test,2,C,triangle.png,0,z,Wed Oct 29 2025 11:07:34 GMT-0500 (Central Daylight Time),753401.8000001907,1400,O,None,1516,16,1,2926.7000000476837,750475.100000143,7703,NTS,A,6
6,5,test,2,C,triangle.png,1,m,Wed Oct 29 2025 11:07:34 GMT-0500 (Central Daylight Time),755086.2000000477,1000,O,m,654,21,1,1681.0,753405.2000000477,7703,NTS,A,7
9,6,test,2,C,circle.png,1,m,Wed Oct 29 2025 11:07:34 GMT-0500 (Central Daylight Time),757685.0,1500,O,m,1079,8,1,2592.7999999523163,755092.2000000477,7703,NTS,A,8
1,7,test,2,C,circle.png,1,z,Wed Oct 29 2025 11:07:34 GMT-0500 (Central Daylight Time),759534.8000001907,1000,O,z,820,1,1,1846.0,757688.8000001907,7703,NTS,A,9
4,7,test,2,C,triangle.png,0,m,Wed Oct 29 2025 11:07:34 GMT-0500 (Central Daylight Time),762566.600000143,1500,O,None,1517,12,1,3027.600000143051,759539.0,7703,NTS,A,10
2,8,test,2,C,circle.png,1,z,Wed Oct 29 2025 11:07:34 GMT-0500 (Central Daylight Time),765382.8000001907,1700,O,z,1085,18,1,2810.5,762572.3000001907,7703,NTS,A,11
1,9,test,2,C,triangle.png,1,z,Wed Oct 29 2025 11:07:34 GMT-0500 (Central Daylight Time),768431.8000001907,1900,O,z,1118,9,1,3044.0,765387.8000001907,7703,NTS,A,12
3,10,test,2,C,triangle.png,1,z,Wed Oct 29 2025 11:07:34 GMT-0500 (Central Daylight Time),770830.3000001907,1200,O,z,1169,3,1,2394.600000143051,768435.7000000477,7703,NTS,A,13
7,11,test,2,C,circle.png,1,m,Wed Oct 29 2025 11:07:34 GMT-0500 (Central Daylight Time),774330.8000001907,2000,O,m,1481,14,1,3496.7000000476837,770834.100000143,7703,NTS,A,14
6,12,test,2,C,circle.png,1,m,Wed Oct 29 2025 11:07:34 GMT-0500 (Central Daylight Time),777580.0,1900,O,m,1324,5,1,3246.2999999523163,774333.7000000477,7703,NTS,A,15
9,12,test,2,C,triangle.png,0,z,Wed Oct 29 2025 11:07:34 GMT-0500 (Central Daylight Time),780510.9000000954,1400,O,None,1515,24,1,2927.4000000953674,777583.5,7703,NTS,A,16
8,13,test,2,C,circle.png,1,m,Wed Oct 29 2025 11:07:34 GMT-0500 (Central Daylight Time),782760.2000000477,1200,O,m,1026,23,1,2244.0999999046326,780516.100000143,7703,NTS,A,17
7,14,test,2,C,circle.png,1,m,Wed Oct 29 2025 11:07:34 GMT-0500 (Central Daylight Time),786276.100000143,2000,O,m,1487,22,1,3510.5,782765.600000143,7703,NTS,A,18
8,15,test,2,C,triangle.png,1,m,Wed Oct 29 2025 11:07:34 GMT-0500 (Central Daylight Time),788824.600000143,1600,O,m,925,7,1,2544.2000000476837,786280.4000000954,7703,NTS,A,19
6,16,test,2,C,triangle.png,1,m,Wed Oct 29 2025 11:07:34 GMT-0500 (Central Daylight Time),790775.4000000954,1000,O,m,929,13,1,1947.0999999046326,788828.3000001907,7703,NTS,A,20
2,17,test,2,C,triangle.png,1,m,Wed Oct 29 2025 11:07:34 GMT-0500 (Central Daylight Time),793689.9000000954,2000,O,m,884,2,1,2909.7000000476837,790780.2000000477,7703,NTS,A,21
2,17,test,2,C,circle.png,0,z,Wed Oct 29 2025 11:07:34 GMT-0500 (Central Daylight Time),796922.7000000477,1700,O,None,1516,10,1,3229.0,793693.7000000477,7703,NTS,A,22
4,18,test,2,C,circle.png,1,z,Wed Oct 29 2025 11:07:34 GMT-0500 (Central Daylight Time),799106.9000000954,1400,O,z,757,4,1,2179.4000000953674,796927.5,7703,NTS,A,23
7,18,test,2,C,triangle.png,0,z,Wed Oct 29 2025 11:07:34 GMT-0500 (Central Daylight Time),802122.100000143,1700,O,m,1292,6,1,3011.2999999523163,799110.8000001907,7703,NTS,A,24
2,0,test,3,C,circle.png,0,z,Wed Oct 29 2025 11:07:34 GMT-0500 (Central Daylight Time),817182.100000143,1700,O,None,1515,10,1,3222.100000143051,813960.0,7703,NTS,A,1
9,1,test,3,C,circle.png,1,m,Wed Oct 29 2025 11:07:34 GMT-0500 (Central Daylight Time),819532.5,1500,O,m,823,24,1,2345.199999809265,817187.3000001907,7703,NTS,A,2
3,2,test,3,C,circle.png,1,z,Wed Oct 29 2025 11:07:34 GMT-0500 (Central Daylight Time),822131.0,1600,O,z,972,11,1,2593.5999999046326,819537.4000000954,7703,NTS,A,3
6,2,test,3,C,triangle.png,0,m,Wed Oct 29 2025 11:07:34 GMT-0500 (Central Daylight Time),824663.9000000954,1000,O,None,1515,13,1,2526.5999999046326,822137.3000001907,7703,NTS,A,4
9,3,test,3,C,triangle.png,1,z,Wed Oct 29 2025 11:07:34 GMT-0500 (Central Daylight Time),827528.8000001907,1400,O,z,1441,16,1,2861.2000000476837,824667.600000143,7703,NTS,A,5
7,4,test,3,C,circle.png,1,m,Wed Oct 29 2025 11:07:34 GMT-0500 (Central Daylight Time),830929.5,2000,O,m,1367,14,1,3395.199999809265,827534.3000001907,7703,NTS,A,6
2,5,test,3,C,triangle.png,1,m,Wed Oct 29 2025 11:07:34 GMT-0500 (Central Daylight Time),834192.600000143,2000,O,m,1238,18,1,3258.7999999523163,830933.8000001907,7703,NTS,A,7
4,6,test,3,C,triangle.png,1,m,Wed Oct 29 2025 11:07:34 GMT-0500 (Central Daylight Time),837197.600000143,1500,O,m,1473,12,1,2999.7999999523163,834197.8000001907,7703,NTS,A,8
7,7,test,3,C,triangle.png,1,z,Wed Oct 29 2025 11:07:34 GMT-0500 (Central Daylight Time),839958.5,1700,O,z,1043,6,1,2757.2999999523163,837201.2000000477,7703,NTS,A,9
8,8,test,3,C,triangle.png,1,m,Wed Oct 29 2025 11:07:34 GMT-0500 (Central Daylight Time),842526.4000000954,1600,O,m,937,7,1,2560.0999999046326,839966.3000001907,7703,NTS,A,10
6,9,test,3,C,circle.png,1,m,Wed Oct 29 2025 11:07:34 GMT-0500 (Central Daylight Time),845556.600000143,1900,O,m,1104,21,1,3023.9000000953674,842532.7000000477,7703,NTS,A,11
1,10,test,3,C,circle.png,1,z,Wed Oct 29 2025 11:07:34 GMT-0500 (Central Daylight Time),847256.600000143,1000,O,z,675,1,1,1695.2999999523163,845561.3000001907,7703,NTS,A,12
2,10,test,3,C,triangle.png,0,m,Wed Oct 29 2025 11:07:34 GMT-0500 (Central Daylight Time),850790.8000001907,2000,O,None,1518,2,1,3529.300000190735,847261.5,7703,NTS,A,13
8,10,test,3,C,triangle.png,0,m,Wed Oct 29 2025 11:07:34 GMT-0500 (Central Daylight Time),853923.4000000954,1600,O,None,1518,23,1,3128.0,850795.4000000954,7703,NTS,A,14
1,10,test,3,C,triangle.png,0,z,Wed Oct 29 2025 11:07:34 GMT-0500 (Central Daylight Time),857354.0,1900,O,None,1517,9,1,3426.899999856949,853927.100000143,7703,NTS,A,15
6,11,test,3,C,circle.png,1,m,Wed Oct 29 2025 11:07:34 GMT-0500 (Central Daylight Time),860318.9000000954,1900,O,m,1035,5,1,2957.9000000953674,857361.0,7703,NTS,A,16
1,12,test,3,C,circle.png,1,z,Wed Oct 29 2025 11:07:34 GMT-0500 (Central Daylight Time),862202.4000000954,1000,O,z,865,17,1,1879.0,860323.4000000954,7703,NTS,A,17
8,13,test,3,C,circle.png,1,m,Wed Oct 29 2025 11:07:34 GMT-0500 (Central Daylight Time),864217.600000143,1200,O,m,783,15,1,2010.7999999523163,862206.8000001907,7703,NTS,A,18
7,13,test,3,C,triangle.png,0,z,Wed Oct 29 2025 11:07:34 GMT-0500 (Central Daylight Time),867450.7000000477,1700,O,None,1517,22,1,3227.899999856949,864222.8000001907,7703,NTS,A,19
9,14,test,3,C,circle.png,1,m,Wed Oct 29 2025 11:07:34 GMT-0500 (Central Daylight Time),870251.100000143,1500,O,m,1274,8,1,2795.2999999523163,867455.8000001907,7703,NTS,A,20
4,15,test,3,C,circle.png,1,z,Wed Oct 29 2025 11:07:34 GMT-0500 (Central Daylight Time),872915.5,1400,O,z,1247,20,1,2658.899999856949,870256.600000143,7703,NTS,A,21
3,16,test,3,C,triangle.png,1,z,Wed Oct 29 2025 11:07:34 GMT-0500 (Central Daylight Time),875481.7000000477,1200,O,z,1333,3,1,2560.5999999046326,872921.100000143,7703,NTS,A,22
4,17,test,3,C,circle.png,1,z,Wed Oct 29 2025 11:07:34 GMT-0500 (Central Daylight Time),878397.100000143,1400,O,z,1496,4,1,2908.100000143051,875489.0,7703,NTS,A,23
3,18,test,3,C,triangle.png,1,z,Wed Oct 29 2025 11:07:34 GMT-0500 (Central Daylight Time),880495.8000001907,1200,O,z,876,19,1,2092.7000000476837,878403.100000143,7703,NTS,A,24
3,0,test,4,C,triangle.png,0,z,Wed Oct 29 2025 11:07:34 GMT-0500 (Central Daylight Time),889476.3000001907,1200,O,None,1515,3,1,2726.5,886749.8000001907,7703,NTS,A,1
9,1,test,4,C,circle.png,1,m,Wed Oct 29 2025 11:07:34 GMT-0500 (Central Daylight Time),892109.0,1500,O,m,1103,24,1,2628.7999999523163,889480.2000000477,7703,NTS,A,2
3,1,test,4,C,triangle.png,0,z,Wed Oct 29 2025 11:07:34 GMT-0500 (Central Daylight Time),894742.0,1200,O,m,1404,19,1,2630.0,892112.0,7703,NTS,A,3
9,2,test,4,C,circle.png,1,m,Wed Oct 29 2025 11:07:34 GMT-0500 (Central Daylight Time),897389.600000143,1500,O,m,1118,8,1,2644.600000143051,894745.0,7703,NTS,A,4
8,3,test,4,C,circle.png,1,m,Wed Oct 29 2025 11:07:34 GMT-0500 (Central Daylight Time),899289.4000000954,1200,O,m,675,15,1,1896.7999999523163,897392.600000143,7703,NTS,A,5
4,3,test,4,C,triangle.png,0,m,Wed Oct 29 2025 11:07:34 GMT-0500 (Central Daylight Time),901772.9000000954,1500,O,z,953,12,1,2480.5,899292.4000000954,7703,NTS,A,6
2,3,test,4,C,triangle.png,0,m,Wed Oct 29 2025 11:07:34 GMT-0500 (Central Daylight Time),904988.4000000954,2000,O,z,1197,2,1,3211.7999999523163,901776.600000143,7703,NTS,A,7
4,3,test,4,C,circle.png,0,z,Wed Oct 29 2025 11:07:34 GMT-0500 (Central Daylight Time),907905.0,1400,O,None,1501,4,1,2913.0999999046326,904991.9000000954,7703,NTS,A,8
1,4,test,4,C,circle.png,1,z,Wed Oct 29 2025 11:07:34 GMT-0500 (Central Daylight Time),909969.3000001907,1000,O,z,1038,17,1,2058.9000000953674,907910.4000000954,7703,NTS,A,9
9,5,test,4,C,triangle.png,1,z,Wed Oct 29 2025 11:07:34 GMT-0500 (Central Daylight Time),912718.7000000477,1400,O,z,1317,16,1,2746.7000000476837,909972.0,7703,NTS,A,10
1,6,test,4,C,circle.png,1,z,Wed Oct 29 2025 11:07:34 GMT-0500 (Central Daylight Time),915119.5,1000,O,z,1368,1,1,2397.5999999046326,912721.9000000954,7703,NTS,A,11
2,7,test,4,C,circle.png,1,z,Wed Oct 29 2025 11:07:34 GMT-0500 (Central Daylight Time),917584.3000001907,1700,O,z,733,10,1,2460.0,915124.3000001907,7703,NTS,A,12
8,7,test,4,C,triangle.png,0,m,Wed Oct 29 2025 11:07:34 GMT-0500 (Central Daylight Time),920716.0,1600,O,None,1516,7,1,3128.2999999523163,917587.7000000477,7703,NTS,A,13
6,8,test,4,C,circle.png,1,m,Wed Oct 29 2025 11:07:34 GMT-0500 (Central Daylight Time),923765.7000000477,1900,O,m,1128,5,1,3044.7000000476837,920721.0,7703,NTS,A,14
4,9,test,4,C,circle.png,1,z,Wed Oct 29 2025 11:07:34 GMT-0500 (Central Daylight Time),926364.4000000954,1400,O,z,1180,20,1,2595.2999999523163,923769.100000143,7703,NTS,A,15
2,9,test,4,C,triangle.png,0,m,Wed Oct 29 2025 11:07:34 GMT-0500 (Central Daylight Time),929629.7000000477,2000,O,z,1244,18,1,3259.7999999523163,926369.9000000954,7703,NTS,A,16
6,9,test,4,C,circle.png,0,m,Wed Oct 29 2025 11:07:34 GMT-0500 (Central Daylight Time),932879.4000000954,1900,O,z,1326,21,1,3245.4000000953674,929634.0,7703,NTS,A,17
7,9,test,4,C,triangle.png,0,z,Wed Oct 29 2025 11:07:34 GMT-0500 (Central Daylight Time),936110.8000001907,1700,O,None,1515,6,1,3227.2000000476837,932883.600000143,7703,NTS,A,18
1,9,test,4,C,triangle.png,0,z,Wed Oct 29 2025 11:07:34 GMT-0500 (Central Daylight Time),939543.8000001907,1900,O,None,1515,9,1,3428.2000000476837,936115.600000143,7703,NTS,A,19
6,9,test,4,C,triangle.png,0,m,Wed Oct 29 2025 11:07:34 GMT-0500 (Central Daylight Time),942076.7000000477,1000,O,None,1516,13,1,2529.7999999523163,939546.9000000954,7703,NTS,A,20
7,9,test,4,C,triangle.png,0,z,Wed Oct 29 2025 11:07:34 GMT-0500 (Central Daylight Time),944426.7000000477,1700,O,m,633,22,1,2346.0,942080.7000000477,7703,NTS,A,21
8,9,test,4,C,triangle.png,0,m,Wed Oct 29 2025 11:07:34 GMT-0500 (Central Daylight Time),947557.2000000477,1600,O,None,1514,23,1,3124.7999999523163,944432.4000000954,7703,NTS,A,22
7,10,test,4,C,circle.png,1,m,Wed Oct 29 2025 11:07:34 GMT-0500 (Central Daylight Time),950806.4000000954,2000,O,m,1227,14,1,3239.5999999046326,947566.8000001907,7703,NTS,A,23
3,11,test,4,C,circle.png,1,z,Wed Oct 29 2025 11:07:34 GMT-0500 (Central Daylight Time),953705.5,1600,O,z,1274,11,1,2891.699999809265,950813.8000001907,7703,NTS,A,24
