block_c,block_dur,condition,countdown,datetime,endtime,list,multichar_response,project,response,response_time,session_number,start_end,starttime,subject_id,task,task_vers,trial
,,,,Tue Feb 24 2026 14:45:23 GMT-0600 (Central Standard Time),,,,O,space,523,1,,,7746,WL,A,
prac,,0,,Tue Feb 24 2026 14:45:23 GMT-0600 (Central Standard Time),,NA,b,O,b,920,1,,,7746,WL,A,1.0
prac,,0,,Tue Feb 24 2026 14:45:23 GMT-0600 (Central Standard Time),,NA,bo,O,o,379,1,,,7746,WL,A,1.0
prac,,0,,Tue Feb 24 2026 14:45:23 GMT-0600 (Central Standard Time),,NA,boo,O,o,157,1,,,7746,WL,A,1.0
prac,,0,,Tue Feb 24 2026 14:45:23 GMT-0600 (Central Standard Time),,NA,boos,O,s,340,1,,,7746,WL,A,1.0
prac,,0,,Tue Feb 24 2026 14:45:23 GMT-0600 (Central Standard Time),,NA,boost,O,t,564,1,,,7746,WL,A,1.0
prac,,0,,Tue Feb 24 2026 14:45:23 GMT-0600 (Central Standard Time),,NA,boostenter,O,enter,2729,1,,,7746,WL,A,1.0
1,5.115999937057495,learn,54884.000062942505,Tue Feb 24 2026 14:45:23 GMT-0600 (Central Standard Time),170272.90000000037,A,b,O,b,5107,1,5114.9000000003725,165158.0,7746,WL,A,1.0
1,5.432999849319458,learn,54567.00015068054,Tue Feb 24 2026 14:45:23 GMT-0600 (Central Standard Time),170590.5,A,bo,O,o,309,1,5432.5,165158.0,7746,WL,A,1.0
1,5.598999977111816,learn,54401.00002288818,Tue Feb 24 2026 14:45:23 GMT-0600 (Central Standard Time),170756.0,A,boo,O,o,150,1,5598.0,165158.0,7746,WL,A,1.0
1,6.097999811172485,learn,53902.000188827515,Tue Feb 24 2026 14:45:23 GMT-0600 (Central Standard Time),171255.09999999963,A,book,O,k,477,1,6097.0999999996275,165158.0,7746,WL,A,1.0
1,8.513999938964844,learn,51486.000061035156,Tue Feb 24 2026 14:45:23 GMT-0600 (Central Standard Time),173671.5,A,bookenter,O,enter,2394,1,8513.5,165158.0,7746,WL,A,1.0
1,9.615999937057495,learn,50384.000062942505,Tue Feb 24 2026 14:45:23 GMT-0600 (Central Standard Time),174772.59999999963,A,b,O,b,1091,1,1100.699999999255,173671.90000000037,7746,WL,A,2.0
1,9.748999834060669,learn,50251.00016593933,Tue Feb 24 2026 14:45:23 GMT-0600 (Central Standard Time),174905.90000000037,A,bu,O,u,108,1,1234.0,173671.90000000037,7746,WL,A,2.0
1,9.980999946594238,learn,50019.00005340576,Tue Feb 24 2026 14:45:23 GMT-0600 (Central Standard Time),175138.2000000002,A,but,O,t,214,1,1466.2999999998137,173671.90000000037,7746,WL,A,2.0
1,10.596999883651733,learn,49403.00011634827,Tue Feb 24 2026 14:45:23 GMT-0600 (Central Standard Time),175754.2999999998,A,butt,O,t,608,1,2082.399999999441,173671.90000000037,7746,WL,A,2.0
1,10.846999883651733,learn,49153.00011634827,Tue Feb 24 2026 14:45:23 GMT-0600 (Central Standard Time),176003.90000000037,A,butto,O,o,240,1,2332.0,173671.90000000037,7746,WL,A,2.0
1,11.128999948501587,learn,48871.00005149841,Tue Feb 24 2026 14:45:23 GMT-0600 (Central Standard Time),176286.5,A,button,O,n,261,1,2614.5999999996275,173671.90000000037,7746,WL,A,2.0
1,11.77999997138977,learn,48220.00002861023,Tue Feb 24 2026 14:45:23 GMT-0600 (Central Standard Time),176937.2000000002,A,buttonenter,O,enter,636,1,3265.2999999998137,173671.90000000037,7746,WL,A,2.0
1,13.679999828338623,learn,46320.00017166138,Tue Feb 24 2026 14:45:23 GMT-0600 (Central Standard Time),178837.09999999963,A,h,O,h,1882,1,1899.5999999996275,176937.5,7746,WL,A,3.0
1,14.133999824523926,learn,45866.000175476074,Tue Feb 24 2026 14:45:23 GMT-0600 (Central Standard Time),179291.5,A,ha,O,a,437,1,2354.0,176937.5,7746,WL,A,3.0
1,14.378999948501587,learn,45621.00005149841,Tue Feb 24 2026 14:45:23 GMT-0600 (Central Standard Time),179536.2000000002,A,har,O,r,232,1,2598.7000000001863,176937.5,7746,WL,A,3.0
1,14.84500002861023,learn,45154.99997138977,Tue Feb 24 2026 14:45:23 GMT-0600 (Central Standard Time),180002.5,A,harp,O,p,458,1,3065.0,176937.5,7746,WL,A,3.0
1,15.328999996185303,learn,44671.0000038147,Tue Feb 24 2026 14:45:23 GMT-0600 (Central Standard Time),180486.5,A,harpenter,O,enter,464,1,3549.0,176937.5,7746,WL,A,3.0
1,15.911999940872192,learn,44088.00005912781,Tue Feb 24 2026 14:45:23 GMT-0600 (Central Standard Time),181069.09999999963,A,m,O,m,565,1,582.2999999998137,180486.7999999998,7746,WL,A,4.0
1,16.128000020980835,learn,43871.999979019165,Tue Feb 24 2026 14:45:23 GMT-0600 (Central Standard Time),181284.7999999998,A,me,O,e,196,1,798.0,180486.7999999998,7746,WL,A,4.0
1,16.478999853134155,learn,43521.000146865845,Tue Feb 24 2026 14:45:23 GMT-0600 (Central Standard Time),181636.09999999963,A,mea,O,a,343,1,1149.2999999998137,180486.7999999998,7746,WL,A,4.0
1,17.062000036239624,learn,42937.999963760376,Tue Feb 24 2026 14:45:23 GMT-0600 (Central Standard Time),182218.7000000002,A,mead,O,d,567,1,1731.9000000003725,180486.7999999998,7746,WL,A,4.0
1,17.277999877929688,learn,42722.00012207031,Tue Feb 24 2026 14:45:23 GMT-0600 (Central Standard Time),182435.40000000037,A,meado,O,o,199,1,1948.6000000005588,180486.7999999998,7746,WL,A,4.0
1,17.544999837875366,learn,42455.000162124634,Tue Feb 24 2026 14:45:23 GMT-0600 (Central Standard Time),182701.7999999998,A,meadow,O,w,251,1,2215.0,180486.7999999998,7746,WL,A,4.0
1,17.777999877929688,learn,42222.00012207031,Tue Feb 24 2026 14:45:23 GMT-0600 (Central Standard Time),182935.2000000002,A,meadowenter,O,enter,208,1,2448.4000000003725,180486.7999999998,7746,WL,A,4.0
1,18.24399995803833,learn,41756.00004196167,Tue Feb 24 2026 14:45:23 GMT-0600 (Central Standard Time),183401.40000000037,A,t,O,t,451,1,465.90000000037253,182935.5,7746,WL,A,5.0
1,18.57799983024597,learn,41422.00016975403,Tue Feb 24 2026 14:45:23 GMT-0600 (Central Standard Time),183735.5,A,tr,O,r,314,1,800.0,182935.5,7746,WL,A,5.0
1,18.894999980926514,learn,41105.000019073486,Tue Feb 24 2026 14:45:23 GMT-0600 (Central Standard Time),184052.2000000002,A,tra,O,a,295,1,1116.7000000001863,182935.5,7746,WL,A,5.0
1,19.01199984550476,learn,40988.00015449524,Tue Feb 24 2026 14:45:23 GMT-0600 (Central Standard Time),184168.7000000002,A,trai,O,i,100,1,1233.2000000001863,182935.5,7746,WL,A,5.0
1,19.26199984550476,learn,40738.00015449524,Tue Feb 24 2026 14:45:23 GMT-0600 (Central Standard Time),184418.7000000002,A,train,O,n,230,1,1483.2000000001863,182935.5,7746,WL,A,5.0
1,19.90999984741211,learn,40090.00015258789,Tue Feb 24 2026 14:45:23 GMT-0600 (Central Standard Time),185067.40000000037,A,trainenter,O,enter,634,1,2131.9000000003725,182935.5,7746,WL,A,5.0
1,20.744999885559082,learn,39255.00011444092,Tue Feb 24 2026 14:45:23 GMT-0600 (Central Standard Time),185902.09999999963,A,c,O,c,825,1,834.2999999998137,185067.7999999998,7746,WL,A,6.0
1,20.8439998626709,learn,39156.0001373291,Tue Feb 24 2026 14:45:23 GMT-0600 (Central Standard Time),186001.2000000002,A,ch,O,h,92,1,933.4000000003725,185067.7999999998,7746,WL,A,6.0
1,21.043999910354614,learn,38956.000089645386,Tue Feb 24 2026 14:45:23 GMT-0600 (Central Standard Time),186200.90000000037,A,chi,O,i,187,1,1133.1000000005588,185067.7999999998,7746,WL,A,6.0
1,21.244999885559082,learn,38755.00011444092,Tue Feb 24 2026 14:45:23 GMT-0600 (Central Standard Time),186402.5,A,chim,O,m,193,1,1334.7000000001863,185067.7999999998,7746,WL,A,6.0
1,22.126999855041504,learn,37873.000144958496,Tue Feb 24 2026 14:45:23 GMT-0600 (Central Standard Time),187284.59999999963,A,chimn,O,n,871,1,2216.7999999998137,185067.7999999998,7746,WL,A,6.0
1,22.65999984741211,learn,37340.00015258789,Tue Feb 24 2026 14:45:23 GMT-0600 (Central Standard Time),187816.90000000037,A,chimne,O,e,518,1,2749.100000000559,185067.7999999998,7746,WL,A,6.0
1,22.842999935150146,learn,37157.00006484985,Tue Feb 24 2026 14:45:23 GMT-0600 (Central Standard Time),188000.2000000002,A,chimney,O,y,163,1,2932.4000000003725,185067.7999999998,7746,WL,A,6.0
1,23.126999855041504,learn,36873.000144958496,Tue Feb 24 2026 14:45:23 GMT-0600 (Central Standard Time),188283.90000000037,A,chimneyenter,O,enter,272,1,3216.100000000559,185067.7999999998,7746,WL,A,6.0
1,24.175999879837036,learn,35824.000120162964,Tue Feb 24 2026 14:45:23 GMT-0600 (Central Standard Time),189333.40000000037,A,l,O,l,1043,1,1049.300000000745,188284.09999999963,7746,WL,A,7.0
1,24.375999927520752,learn,35624.00007247925,Tue Feb 24 2026 14:45:23 GMT-0600 (Central Standard Time),189533.2999999998,A,lo,O,o,180,1,1249.2000000001863,188284.09999999963,7746,WL,A,7.0
1,24.575999975204468,learn,35424.00002479553,Tue Feb 24 2026 14:45:23 GMT-0600 (Central Standard Time),189733.2999999998,A,log,O,g,182,1,1449.2000000001863,188284.09999999963,7746,WL,A,7.0
1,24.842999935150146,learn,35157.00006484985,Tue Feb 24 2026 14:45:23 GMT-0600 (Central Standard Time),190000.0,A,logenter,O,enter,245,1,1715.9000000003725,188284.09999999963,7746,WL,A,7.0
1,29.774999856948853,learn,30225.000143051147,Tue Feb 24 2026 14:45:23 GMT-0600 (Central Standard Time),194931.7999999998,A,f,O,f,4924,1,4931.5,190000.2999999998,7746,WL,A,8.0
1,29.95799994468689,learn,30042.00005531311,Tue Feb 24 2026 14:45:23 GMT-0600 (Central Standard Time),195115.40000000037,A,fl,O,l,166,1,5115.100000000559,190000.2999999998,7746,WL,A,8.0
1,30.19099998474121,learn,29809.00001525879,Tue Feb 24 2026 14:45:23 GMT-0600 (Central Standard Time),195348.59999999963,A,flo,O,o,214,1,5348.299999999814,190000.2999999998,7746,WL,A,8.0
1,30.323999881744385,learn,29676.000118255615,Tue Feb 24 2026 14:45:23 GMT-0600 (Central Standard Time),195480.7000000002,A,flow,O,w,117,1,5480.4000000003725,190000.2999999998,7746,WL,A,8.0
1,30.590999841690063,learn,29409.000158309937,Tue Feb 24 2026 14:45:23 GMT-0600 (Central Standard Time),195747.90000000037,A,flowe,O,e,250,1,5747.600000000559,190000.2999999998,7746,WL,A,8.0
1,30.707000017166138,learn,29292.999982833862,Tue Feb 24 2026 14:45:23 GMT-0600 (Central Standard Time),195864.2999999998,A,flower,O,r,98,1,5864.0,190000.2999999998,7746,WL,A,8.0
1,31.141000032424927,learn,28858.999967575073,Tue Feb 24 2026 14:45:23 GMT-0600 (Central Standard Time),196298.09999999963,A,flowerenter,O,enter,416,1,6297.799999999814,190000.2999999998,7746,WL,A,8.0
1,35.83899998664856,learn,24161.00001335144,Tue Feb 24 2026 14:45:23 GMT-0600 (Central Standard Time),200995.90000000037,A,r,O,r,4690,1,4697.5,196298.40000000037,7746,WL,A,9.0
1,35.95599985122681,learn,24044.000148773193,Tue Feb 24 2026 14:45:23 GMT-0600 (Central Standard Time),201112.90000000037,A,ru,O,u,104,1,4814.5,196298.40000000037,7746,WL,A,9.0
1,36.204999923706055,learn,23795.000076293945,Tue Feb 24 2026 14:45:23 GMT-0600 (Central Standard Time),201361.7999999998,A,rug,O,g,233,1,5063.399999999441,196298.40000000037,7746,WL,A,9.0
1,36.43899989128113,learn,23561.000108718872,Tue Feb 24 2026 14:45:23 GMT-0600 (Central Standard Time),201596.09999999963,A,rugenter,O,enter,228,1,5297.699999999255,196298.40000000037,7746,WL,A,9.0
1,40.55399990081787,learn,19446.00009918213,Tue Feb 24 2026 14:45:23 GMT-0600 (Central Standard Time),205711.5,A,r,O,r,4104,1,4115.200000000186,201596.2999999998,7746,WL,A,10.0
1,40.88699984550476,learn,19113.00015449524,Tue Feb 24 2026 14:45:23 GMT-0600 (Central Standard Time),206043.7999999998,A,ra,O,a,325,1,4447.5,201596.2999999998,7746,WL,A,10.0
1,41.08699989318848,learn,18913.000106811523,Tue Feb 24 2026 14:45:23 GMT-0600 (Central Standard Time),206244.5,A,rat,O,t,193,1,4648.200000000186,201596.2999999998,7746,WL,A,10.0
1,41.33799982070923,learn,18662.00017929077,Tue Feb 24 2026 14:45:23 GMT-0600 (Central Standard Time),206494.7000000002,A,ratt,O,t,231,1,4898.4000000003725,201596.2999999998,7746,WL,A,10.0
1,41.825000047683716,learn,18174.999952316284,Tue Feb 24 2026 14:45:23 GMT-0600 (Central Standard Time),206982.2000000002,A,rattl,O,l,483,1,5385.9000000003725,201596.2999999998,7746,WL,A,10.0
1,41.98699998855591,learn,18013.00001144409,Tue Feb 24 2026 14:45:23 GMT-0600 (Central Standard Time),207143.90000000037,A,rattle,O,e,142,1,5547.600000000559,201596.2999999998,7746,WL,A,10.0
1,42.23699998855591,learn,17763.00001144409,Tue Feb 24 2026 14:45:23 GMT-0600 (Central Standard Time),207394.0,A,rattleenter,O,enter,237,1,5797.700000000186,201596.2999999998,7746,WL,A,10.0
1,60.01600003242493,learn,-16.000032424926758,Tue Feb 24 2026 14:45:23 GMT-0600 (Central Standard Time),225172.7999999998,A,None,O,None,17773,1,17778.5,207394.2999999998,7746,WL,A,11.0
2,1.5679998397827148,learn,58432.000160217285,Tue Feb 24 2026 14:45:23 GMT-0600 (Central Standard Time),304515.5,A,a,O,a,1560,1,1568.0999999996275,302947.4000000004,7746,WL,A,1.0
2,1.8659999370574951,learn,58134.000062942505,Tue Feb 24 2026 14:45:23 GMT-0600 (Central Standard Time),304812.9000000004,A,ap,O,p,279,1,1865.5,302947.4000000004,7746,WL,A,1.0
2,2.0819997787475586,learn,57918.00022125244,Tue Feb 24 2026 14:45:23 GMT-0600 (Central Standard Time),305029.2000000002,A,app,O,p,198,1,2081.7999999998137,302947.4000000004,7746,WL,A,1.0
2,2.5979998111724854,learn,57402.000188827515,Tue Feb 24 2026 14:45:23 GMT-0600 (Central Standard Time),305546.2999999998,A,appl,O,l,501,1,2598.899999999441,302947.4000000004,7746,WL,A,1.0
2,2.7649998664855957,learn,57235.000133514404,Tue Feb 24 2026 14:45:23 GMT-0600 (Central Standard Time),305713.4000000004,A,apple,O,e,158,1,2766.0,302947.4000000004,7746,WL,A,1.0
2,4.080999851226807,learn,55919.00014877319,Tue Feb 24 2026 14:45:23 GMT-0600 (Central Standard Time),307029.0999999996,A,appleenter,O,enter,1298,1,4081.699999999255,302947.4000000004,7746,WL,A,1.0
2,5.23199987411499,learn,54768.00012588501,Tue Feb 24 2026 14:45:23 GMT-0600 (Central Standard Time),308180.5999999996,A,b,O,b,1143,1,1151.199999999255,307029.4000000004,7746,WL,A,2.0
2,5.598999977111816,learn,54401.00002288818,Tue Feb 24 2026 14:45:23 GMT-0600 (Central Standard Time),308546.9000000004,A,bo,O,o,360,1,1517.5,307029.4000000004,7746,WL,A,2.0
2,5.81499981880188,learn,54185.00018119812,Tue Feb 24 2026 14:45:23 GMT-0600 (Central Standard Time),308762.7999999998,A,boo,O,o,200,1,1733.3999999994412,307029.4000000004,7746,WL,A,2.0
2,6.330999851226807,learn,53669.00014877319,Tue Feb 24 2026 14:45:23 GMT-0600 (Central Standard Time),309279.5999999996,A,book,O,k,504,1,2250.199999999255,307029.4000000004,7746,WL,A,2.0
2,6.662999868392944,learn,53337.000131607056,Tue Feb 24 2026 14:45:23 GMT-0600 (Central Standard Time),309611.4000000004,A,bookenter,O,enter,324,1,2582.0,307029.4000000004,7746,WL,A,2.0
2,7.180999994277954,learn,52819.000005722046,Tue Feb 24 2026 14:45:23 GMT-0600 (Central Standard Time),310128.7000000002,A,b,O,b,496,1,517.0,309611.7000000002,7746,WL,A,3.0
2,7.296000003814697,learn,52703.9999961853,Tue Feb 24 2026 14:45:23 GMT-0600 (Central Standard Time),310244.2000000002,A,bu,O,u,105,1,632.5,309611.7000000002,7746,WL,A,3.0
2,7.596999883651733,learn,52403.00011634827,Tue Feb 24 2026 14:45:23 GMT-0600 (Central Standard Time),310545.5999999996,A,but,O,t,280,1,933.8999999994412,309611.7000000002,7746,WL,A,3.0
2,8.230999946594238,learn,51769.00005340576,Tue Feb 24 2026 14:45:23 GMT-0600 (Central Standard Time),311178.7999999998,A,butt,O,t,615,1,1567.0999999996275,309611.7000000002,7746,WL,A,3.0
2,8.579999923706055,learn,51420.000076293945,Tue Feb 24 2026 14:45:23 GMT-0600 (Central Standard Time),311527.7000000002,A,butto,O,o,335,1,1916.0,309611.7000000002,7746,WL,A,3.0
2,8.846999883651733,learn,51153.00011634827,Tue Feb 24 2026 14:45:23 GMT-0600 (Central Standard Time),311794.7000000002,A,button,O,n,242,1,2183.0,309611.7000000002,7746,WL,A,3.0
2,9.146999835968018,learn,50853.00016403198,Tue Feb 24 2026 14:45:23 GMT-0600 (Central Standard Time),312094.7999999998,A,buttonenter,O,enter,289,1,2483.0999999996275,309611.7000000002,7746,WL,A,3.0
2,10.19599986076355,learn,49804.00013923645,Tue Feb 24 2026 14:45:23 GMT-0600 (Central Standard Time),313144.0999999996,A,c,O,c,1029,1,1049.0999999996275,312095.0,7746,WL,A,4.0
2,10.294999837875366,learn,49705.000162124634,Tue Feb 24 2026 14:45:23 GMT-0600 (Central Standard Time),313243.0999999996,A,ch,O,h,91,1,1148.0999999996275,312095.0,7746,WL,A,4.0
2,10.960999965667725,learn,49039.000034332275,Tue Feb 24 2026 14:45:23 GMT-0600 (Central Standard Time),313909.2999999998,A,chi,O,i,648,1,1814.2999999998137,312095.0,7746,WL,A,4.0
2,11.260999917984009,learn,48739.00008201599,Tue Feb 24 2026 14:45:23 GMT-0600 (Central Standard Time),314209.5,A,chim,O,m,297,1,2114.5,312095.0,7746,WL,A,4.0
2,12.245999813079834,learn,47754.000186920166,Tue Feb 24 2026 14:45:23 GMT-0600 (Central Standard Time),315194.0999999996,A,chimn,O,n,964,1,3099.0999999996275,312095.0,7746,WL,A,4.0
2,12.76199984550476,learn,47238.00015449524,Tue Feb 24 2026 14:45:23 GMT-0600 (Central Standard Time),315710.2000000002,A,chimne,O,e,496,1,3615.2000000001863,312095.0,7746,WL,A,4.0
2,12.929999828338623,learn,47070.00017166138,Tue Feb 24 2026 14:45:23 GMT-0600 (Central Standard Time),315878.2999999998,A,chimney,O,y,148,1,3783.2999999998137,312095.0,7746,WL,A,4.0
2,13.26199984550476,learn,46738.00015449524,Tue Feb 24 2026 14:45:23 GMT-0600 (Central Standard Time),316209.7000000002,A,chimneyenter,O,enter,317,1,4114.700000000186,312095.0,7746,WL,A,4.0
2,14.860999822616577,learn,45139.00017738342,Tue Feb 24 2026 14:45:23 GMT-0600 (Central Standard Time),317809.4000000004,A,f,O,f,1595,1,1599.5,316209.9000000004,7746,WL,A,5.0
2,14.994999885559082,learn,45005.00011444092,Tue Feb 24 2026 14:45:23 GMT-0600 (Central Standard Time),317943.5999999996,A,fl,O,l,121,1,1733.699999999255,316209.9000000004,7746,WL,A,5.0
2,15.226999998092651,learn,44773.00000190735,Tue Feb 24 2026 14:45:23 GMT-0600 (Central Standard Time),318175.0,A,flo,O,o,216,1,1965.0999999996275,316209.9000000004,7746,WL,A,5.0
2,15.376999855041504,learn,44623.000144958496,Tue Feb 24 2026 14:45:23 GMT-0600 (Central Standard Time),318324.9000000004,A,flow,O,w,143,1,2115.0,316209.9000000004,7746,WL,A,5.0
2,15.627999782562256,learn,44372.000217437744,Tue Feb 24 2026 14:45:23 GMT-0600 (Central Standard Time),318575.9000000004,A,flowe,O,e,238,1,2366.0,316209.9000000004,7746,WL,A,5.0
2,15.776999950408936,learn,44223.000049591064,Tue Feb 24 2026 14:45:23 GMT-0600 (Central Standard Time),318725.5,A,flower,O,r,132,1,2515.5999999996275,316209.9000000004,7746,WL,A,5.0
2,16.127999782562256,learn,43872.000217437744,Tue Feb 24 2026 14:45:23 GMT-0600 (Central Standard Time),319076.0999999996,A,flowerenter,O,enter,339,1,2866.199999999255,316209.9000000004,7746,WL,A,5.0
2,19.259999990463257,learn,40740.00000953674,Tue Feb 24 2026 14:45:23 GMT-0600 (Central Standard Time),322208.0999999996,A,l,O,l,3112,1,3131.699999999255,319076.4000000004,7746,WL,A,6.0
2,19.542999982833862,learn,40457.00001716614,Tue Feb 24 2026 14:45:23 GMT-0600 (Central Standard Time),322491.0,A,lo,O,o,267,1,3414.5999999996275,319076.4000000004,7746,WL,A,6.0
2,19.70899987220764,learn,40291.00012779236,Tue Feb 24 2026 14:45:23 GMT-0600 (Central Standard Time),322657.5999999996,A,log,O,g,146,1,3581.199999999255,319076.4000000004,7746,WL,A,6.0
2,19.942999839782715,learn,40057.000160217285,Tue Feb 24 2026 14:45:23 GMT-0600 (Central Standard Time),322890.7000000002,A,logenter,O,enter,215,1,3814.2999999998137,319076.4000000004,7746,WL,A,6.0
2,20.64299988746643,learn,39357.00011253357,Tue Feb 24 2026 14:45:23 GMT-0600 (Central Standard Time),323591.7000000002,A,r,O,r,682,1,700.7000000001863,322891.0,7746,WL,A,7.0
2,20.89299988746643,learn,39107.00011253357,Tue Feb 24 2026 14:45:23 GMT-0600 (Central Standard Time),323841.4000000004,A,ra,O,a,228,1,950.4000000003725,322891.0,7746,WL,A,7.0
2,21.042999982833862,learn,38957.00001716614,Tue Feb 24 2026 14:45:23 GMT-0600 (Central Standard Time),323991.2999999998,A,rat,O,t,138,1,1100.2999999998137,322891.0,7746,WL,A,7.0
2,21.860999822616577,learn,38139.00017738342,Tue Feb 24 2026 14:45:23 GMT-0600 (Central Standard Time),324809.0,A,ratt,O,t,802,1,1918.0,322891.0,7746,WL,A,7.0
2,22.125999927520752,learn,37874.00007247925,Tue Feb 24 2026 14:45:23 GMT-0600 (Central Standard Time),325073.7999999998,A,rattl,O,l,260,1,2182.7999999998137,322891.0,7746,WL,A,7.0
2,22.30899977684021,learn,37691.00022315979,Tue Feb 24 2026 14:45:23 GMT-0600 (Central Standard Time),325257.2000000002,A,rattle,O,e,179,1,2366.2000000001863,322891.0,7746,WL,A,7.0
2,22.592000007629395,learn,37407.999992370605,Tue Feb 24 2026 14:45:23 GMT-0600 (Central Standard Time),325539.9000000004,A,rattleenter,O,enter,264,1,2648.9000000003725,322891.0,7746,WL,A,7.0
2,23.275999784469604,learn,36724.000215530396,Tue Feb 24 2026 14:45:23 GMT-0600 (Central Standard Time),326223.9000000004,A,t,O,t,674,1,683.7000000001863,325540.2000000002,7746,WL,A,8.0
2,23.592000007629395,learn,36407.999992370605,Tue Feb 24 2026 14:45:23 GMT-0600 (Central Standard Time),326540.2000000002,A,tr,O,r,307,1,1000.0,325540.2000000002,7746,WL,A,8.0
2,23.875999927520752,learn,36124.00007247925,Tue Feb 24 2026 14:45:23 GMT-0600 (Central Standard Time),326823.7000000002,A,tra,O,a,272,1,1283.5,325540.2000000002,7746,WL,A,8.0
2,23.97599983215332,learn,36024.00016784668,Tue Feb 24 2026 14:45:23 GMT-0600 (Central Standard Time),326924.4000000004,A,trai,O,i,95,1,1384.2000000001863,325540.2000000002,7746,WL,A,8.0
2,24.241999864578247,learn,35758.00013542175,Tue Feb 24 2026 14:45:23 GMT-0600 (Central Standard Time),327190.2999999998,A,train,O,n,247,1,1650.0999999996275,325540.2000000002,7746,WL,A,8.0
2,25.557999849319458,learn,34442.00015068054,Tue Feb 24 2026 14:45:23 GMT-0600 (Central Standard Time),328506.2000000002,A,trainenter,O,enter,1292,1,2966.0,325540.2000000002,7746,WL,A,8.0
2,26.58999991416931,learn,33410.00008583069,Tue Feb 24 2026 14:45:23 GMT-0600 (Central Standard Time),329538.5999999996,A,s,O,s,1017,1,1032.0999999996275,328506.5,7746,WL,A,9.0
2,26.823999881744385,learn,33176.000118255615,Tue Feb 24 2026 14:45:23 GMT-0600 (Central Standard Time),329772.7000000002,A,sa,O,a,226,1,1266.2000000001863,328506.5,7746,WL,A,9.0
2,26.95799994468689,learn,33042.00005531311,Tue Feb 24 2026 14:45:23 GMT-0600 (Central Standard Time),329905.7000000002,A,sal,O,l,114,1,1399.2000000001863,328506.5,7746,WL,A,9.0
2,27.20899987220764,learn,32791.00012779236,Tue Feb 24 2026 14:45:23 GMT-0600 (Central Standard Time),330156.7999999998,A,salt,O,t,242,1,1650.2999999998137,328506.5,7746,WL,A,9.0
2,27.556999921798706,learn,32443.000078201294,Tue Feb 24 2026 14:45:23 GMT-0600 (Central Standard Time),330505.2000000002,A,saltenter,O,enter,336,1,1998.7000000001863,328506.5,7746,WL,A,9.0
2,28.424999952316284,learn,31575.000047683716,Tue Feb 24 2026 14:45:23 GMT-0600 (Central Standard Time),331372.9000000004,A,g,O,g,862,1,867.5,330505.4000000004,7746,WL,A,10.0
2,28.557999849319458,learn,31442.000150680542,Tue Feb 24 2026 14:45:23 GMT-0600 (Central Standard Time),331506.5,A,go,O,o,128,1,1001.0999999996275,330505.4000000004,7746,WL,A,10.0
2,28.83999991416931,learn,31160.00008583069,Tue Feb 24 2026 14:45:23 GMT-0600 (Central Standard Time),331788.5999999996,A,gol,O,l,258,1,1283.199999999255,330505.4000000004,7746,WL,A,10.0
2,28.990000009536743,learn,31009.999990463257,Tue Feb 24 2026 14:45:23 GMT-0600 (Central Standard Time),331938.5999999996,A,gold,O,d,136,1,1433.199999999255,330505.4000000004,7746,WL,A,10.0
2,29.83999991416931,learn,30160.00008583069,Tue Feb 24 2026 14:45:23 GMT-0600 (Central Standard Time),332788.2999999998,A,goldenter,O,enter,839,1,2282.899999999441,330505.4000000004,7746,WL,A,10.0
2,30.555999994277954,learn,29444.000005722046,Tue Feb 24 2026 14:45:23 GMT-0600 (Central Standard Time),333504.0999999996,A,m,O,m,694,1,715.5999999996275,332788.5,7746,WL,A,11.0
2,30.65499997138977,learn,29345.00002861023,Tue Feb 24 2026 14:45:23 GMT-0600 (Central Standard Time),333603.4000000004,A,me,O,e,86,1,814.9000000003725,332788.5,7746,WL,A,11.0
2,30.888999938964844,learn,29111.000061035156,Tue Feb 24 2026 14:45:23 GMT-0600 (Central Standard Time),333837.5999999996,A,mea,O,a,224,1,1049.0999999996275,332788.5,7746,WL,A,11.0
2,31.572999954223633,learn,28427.000045776367,Tue Feb 24 2026 14:45:23 GMT-0600 (Central Standard Time),334520.7999999998,A,mead,O,d,663,1,1732.2999999998137,332788.5,7746,WL,A,11.0
2,31.788999795913696,learn,28211.000204086304,Tue Feb 24 2026 14:45:23 GMT-0600 (Central Standard Time),334737.2999999998,A,meado,O,o,203,1,1948.7999999998137,332788.5,7746,WL,A,11.0
2,31.926999807357788,learn,28073.000192642212,Tue Feb 24 2026 14:45:23 GMT-0600 (Central Standard Time),334874.7000000002,A,meadow,O,w,132,1,2086.2000000001863,332788.5,7746,WL,A,11.0
2,32.722999811172485,learn,27277.000188827515,Tue Feb 24 2026 14:45:23 GMT-0600 (Central Standard Time),335670.7999999998,A,meadowenter,O,enter,777,1,2882.2999999998137,332788.5,7746,WL,A,11.0
2,35.4210000038147,learn,24578.999996185303,Tue Feb 24 2026 14:45:23 GMT-0600 (Central Standard Time),338369.4000000004,A,k,O,k,2686,1,2698.5,335670.9000000004,7746,WL,A,12.0
2,35.620999813079834,learn,24379.000186920166,Tue Feb 24 2026 14:45:23 GMT-0600 (Central Standard Time),338569.5999999996,A,ke,O,e,187,1,2898.699999999255,335670.9000000004,7746,WL,A,12.0
2,35.787999868392944,learn,24212.000131607056,Tue Feb 24 2026 14:45:23 GMT-0600 (Central Standard Time),338735.9000000004,A,key,O,y,145,1,3065.0,335670.9000000004,7746,WL,A,12.0
2,36.03699994087219,learn,23963.000059127808,Tue Feb 24 2026 14:45:23 GMT-0600 (Central Standard Time),338985.0999999996,A,keyenter,O,enter,234,1,3314.199999999255,335670.9000000004,7746,WL,A,12.0
2,41.73599982261658,learn,18264.000177383423,Tue Feb 24 2026 14:45:23 GMT-0600 (Central Standard Time),344683.7000000002,A,t,O,t,5691,1,5698.299999999814,338985.4000000004,7746,WL,A,13.0
2,42.05199980735779,learn,17948.000192642212,Tue Feb 24 2026 14:45:23 GMT-0600 (Central Standard Time),344999.9000000004,A,tr,O,r,303,1,6014.5,338985.4000000004,7746,WL,A,13.0
2,42.317999839782715,learn,17682.000160217285,Tue Feb 24 2026 14:45:23 GMT-0600 (Central Standard Time),345266.5999999996,A,tra,O,a,261,1,6281.199999999255,338985.4000000004,7746,WL,A,13.0
2,42.43399977684021,learn,17566.00022315979,Tue Feb 24 2026 14:45:23 GMT-0600 (Central Standard Time),345382.7000000002,A,trai,O,i,105,1,6397.299999999814,338985.4000000004,7746,WL,A,13.0
2,42.651999950408936,learn,17348.000049591064,Tue Feb 24 2026 14:45:23 GMT-0600 (Central Standard Time),345600.2000000002,A,train,O,n,206,1,6614.799999999814,338985.4000000004,7746,WL,A,13.0
2,42.88499999046326,learn,17115.000009536743,Tue Feb 24 2026 14:45:23 GMT-0600 (Central Standard Time),345833.5999999996,A,trainenter,O,enter,218,1,6848.199999999255,338985.4000000004,7746,WL,A,13.0
2,60.01599979400635,learn,-15.999794006347656,Tue Feb 24 2026 14:45:23 GMT-0600 (Central Standard Time),362963.9000000004,A,None,O,None,17127,1,17130.10000000056,345833.7999999998,7746,WL,A,14.0
3,1.1500000953674316,learn,58849.99990463257,Tue Feb 24 2026 14:45:23 GMT-0600 (Central Standard Time),432056.0,A,a,O,a,1136,1,1149.5999999996275,430906.4000000004,7746,WL,A,1.0
3,1.4520001411437988,learn,58547.9998588562,Tue Feb 24 2026 14:45:23 GMT-0600 (Central Standard Time),432358.0,A,ap,O,p,290,1,1451.5999999996275,430906.4000000004,7746,WL,A,1.0
3,1.6670000553131104,learn,58332.99994468689,Tue Feb 24 2026 14:45:23 GMT-0600 (Central Standard Time),432573.5999999996,A,app,O,p,210,1,1667.199999999255,430906.4000000004,7746,WL,A,1.0
3,2.065999984741211,learn,57934.00001525879,Tue Feb 24 2026 14:45:23 GMT-0600 (Central Standard Time),432972.0,A,appl,O,l,389,1,2065.5999999996275,430906.4000000004,7746,WL,A,1.0
3,2.4660000801086426,learn,57533.99991989136,Tue Feb 24 2026 14:45:23 GMT-0600 (Central Standard Time),433372.2000000002,A,apple,O,e,390,1,2465.7999999998137,430906.4000000004,7746,WL,A,1.0
3,3.683000087738037,learn,56316.99991226196,Tue Feb 24 2026 14:45:23 GMT-0600 (Central Standard Time),434589.7000000002,A,appleenter,O,enter,1209,1,3683.2999999998137,430906.4000000004,7746,WL,A,1.0
3,4.950999975204468,learn,55049.00002479553,Tue Feb 24 2026 14:45:23 GMT-0600 (Central Standard Time),435857.2999999998,A,b,O,b,1262,1,1267.3999999994412,434589.9000000004,7746,WL,A,2.0
3,5.248000144958496,learn,54751.999855041504,Tue Feb 24 2026 14:45:23 GMT-0600 (Central Standard Time),436154.9000000004,A,bo,O,o,283,1,1565.0,434589.9000000004,7746,WL,A,2.0
3,5.416000127792358,learn,54583.99987220764,Tue Feb 24 2026 14:45:23 GMT-0600 (Central Standard Time),436322.7000000002,A,boo,O,o,145,1,1732.7999999998137,434589.9000000004,7746,WL,A,2.0
3,5.650000095367432,learn,54349.99990463257,Tue Feb 24 2026 14:45:23 GMT-0600 (Central Standard Time),436556.7000000002,A,book,O,k,225,1,1966.7999999998137,434589.9000000004,7746,WL,A,2.0
3,5.947999954223633,learn,54052.00004577637,Tue Feb 24 2026 14:45:23 GMT-0600 (Central Standard Time),436854.7999999998,A,bookenter,O,enter,279,1,2264.899999999441,434589.9000000004,7746,WL,A,2.0
3,6.465000152587891,learn,53534.99984741211,Tue Feb 24 2026 14:45:23 GMT-0600 (Central Standard Time),437371.5,A,b,O,b,501,1,516.5,436855.0,7746,WL,A,3.0
3,6.6000001430511475,learn,53399.99985694885,Tue Feb 24 2026 14:45:23 GMT-0600 (Central Standard Time),437506.4000000004,A,bu,O,u,129,1,651.4000000003725,436855.0,7746,WL,A,3.0
3,6.817000150680542,learn,53182.99984931946,Tue Feb 24 2026 14:45:23 GMT-0600 (Central Standard Time),437722.9000000004,A,but,O,t,210,1,867.9000000003725,436855.0,7746,WL,A,3.0
3,7.084000110626221,learn,52915.99988937378,Tue Feb 24 2026 14:45:23 GMT-0600 (Central Standard Time),437990.0999999996,A,butt,O,t,249,1,1135.0999999996275,436855.0,7746,WL,A,3.0
3,7.430999994277954,learn,52569.000005722046,Tue Feb 24 2026 14:45:23 GMT-0600 (Central Standard Time),438337.0,A,butto,O,o,324,1,1482.0,436855.0,7746,WL,A,3.0
3,7.680999994277954,learn,52319.000005722046,Tue Feb 24 2026 14:45:23 GMT-0600 (Central Standard Time),438586.9000000004,A,button,O,n,233,1,1731.9000000003725,436855.0,7746,WL,A,3.0
3,7.965000152587891,learn,52034.99984741211,Tue Feb 24 2026 14:45:23 GMT-0600 (Central Standard Time),438871.4000000004,A,buttonenter,O,enter,271,1,2016.4000000003725,436855.0,7746,WL,A,3.0
3,9.031000137329102,learn,50968.9998626709,Tue Feb 24 2026 14:45:23 GMT-0600 (Central Standard Time),439938.0,A,c,O,c,1061,1,1066.4000000003725,438871.5999999996,7746,WL,A,4.0
3,9.147000074386597,learn,50852.9999256134,Tue Feb 24 2026 14:45:23 GMT-0600 (Central Standard Time),440053.5,A,ch,O,h,94,1,1181.9000000003725,438871.5999999996,7746,WL,A,4.0
3,9.330000162124634,learn,50669.999837875366,Tue Feb 24 2026 14:45:23 GMT-0600 (Central Standard Time),440236.7999999998,A,chi,O,i,173,1,1365.2000000001863,438871.5999999996,7746,WL,A,4.0
3,9.564000129699707,learn,50435.99987030029,Tue Feb 24 2026 14:45:23 GMT-0600 (Central Standard Time),440470.4000000004,A,chim,O,m,215,1,1598.800000000745,438871.5999999996,7746,WL,A,4.0
3,10.29800009727478,learn,49701.99990272522,Tue Feb 24 2026 14:45:23 GMT-0600 (Central Standard Time),441204.5999999996,A,chimn,O,n,718,1,2333.0,438871.5999999996,7746,WL,A,4.0
3,10.531000137329102,learn,49468.9998626709,Tue Feb 24 2026 14:45:23 GMT-0600 (Central Standard Time),441437.0999999996,A,chimne,O,e,215,1,2565.5,438871.5999999996,7746,WL,A,4.0
3,10.646000146865845,learn,49353.999853134155,Tue Feb 24 2026 14:45:23 GMT-0600 (Central Standard Time),441552.4000000004,A,chimney,O,y,104,1,2680.800000000745,438871.5999999996,7746,WL,A,4.0
3,10.996999979019165,learn,49003.000020980835,Tue Feb 24 2026 14:45:23 GMT-0600 (Central Standard Time),441903.5999999996,A,chimneyenter,O,enter,340,1,3032.0,438871.5999999996,7746,WL,A,4.0
3,19.64400005340576,learn,40355.99994659424,Tue Feb 24 2026 14:45:23 GMT-0600 (Central Standard Time),450550.0,A,f,O,f,8628,1,8646.099999999627,441903.9000000004,7746,WL,A,5.0
3,19.792999982833862,learn,40207.00001716614,Tue Feb 24 2026 14:45:23 GMT-0600 (Central Standard Time),450699.5,A,fi,O,i,130,1,8795.599999999627,441903.9000000004,7746,WL,A,5.0
3,20.009999990463257,learn,39990.00000953674,Tue Feb 24 2026 14:45:23 GMT-0600 (Central Standard Time),450916.5999999996,A,fin,O,n,201,1,9012.699999999255,441903.9000000004,7746,WL,A,5.0
3,20.16100001335144,learn,39838.99998664856,Tue Feb 24 2026 14:45:23 GMT-0600 (Central Standard Time),451067.2000000002,A,fing,O,g,135,1,9163.299999999814,441903.9000000004,7746,WL,A,5.0
3,20.344000101089478,learn,39655.99989891052,Tue Feb 24 2026 14:45:23 GMT-0600 (Central Standard Time),451250.9000000004,A,finge,O,e,177,1,9347.0,441903.9000000004,7746,WL,A,5.0
3,20.427000045776367,learn,39572.99995422363,Tue Feb 24 2026 14:45:23 GMT-0600 (Central Standard Time),451333.0,A,finger,O,r,72,1,9429.099999999627,441903.9000000004,7746,WL,A,5.0
3,20.860000133514404,learn,39139.999866485596,Tue Feb 24 2026 14:45:23 GMT-0600 (Central Standard Time),451766.4000000004,A,fingerenter,O,enter,425,1,9862.5,441903.9000000004,7746,WL,A,5.0
3,21.77900004386902,learn,38220.99995613098,Tue Feb 24 2026 14:45:23 GMT-0600 (Central Standard Time),452685.7999999998,A,f,O,f,910,1,919.2000000001863,451766.5999999996,7746,WL,A,6.0
3,21.91000008583069,learn,38089.99991416931,Tue Feb 24 2026 14:45:23 GMT-0600 (Central Standard Time),452816.5999999996,A,fl,O,l,109,1,1050.0,451766.5999999996,7746,WL,A,6.0
3,22.14400005340576,learn,37855.99994659424,Tue Feb 24 2026 14:45:23 GMT-0600 (Central Standard Time),453050.2000000002,A,flo,O,o,221,1,1283.6000000005588,451766.5999999996,7746,WL,A,6.0
3,22.261000156402588,learn,37738.99984359741,Tue Feb 24 2026 14:45:23 GMT-0600 (Central Standard Time),453166.9000000004,A,flow,O,w,98,1,1400.300000000745,451766.5999999996,7746,WL,A,6.0
3,22.426000118255615,learn,37573.999881744385,Tue Feb 24 2026 14:45:23 GMT-0600 (Central Standard Time),453332.4000000004,A,flowe,O,e,155,1,1565.800000000745,451766.5999999996,7746,WL,A,6.0
3,22.542999982833862,learn,37457.00001716614,Tue Feb 24 2026 14:45:23 GMT-0600 (Central Standard Time),453449.2000000002,A,flower,O,r,105,1,1682.6000000005588,451766.5999999996,7746,WL,A,6.0
3,22.8270001411438,learn,37172.9998588562,Tue Feb 24 2026 14:45:23 GMT-0600 (Central Standard Time),453733.7999999998,A,flowerenter,O,enter,277,1,1967.2000000001863,451766.5999999996,7746,WL,A,6.0
3,23.292999982833862,learn,36707.00001716614,Tue Feb 24 2026 14:45:23 GMT-0600 (Central Standard Time),454199.7999999998,A,g,O,g,455,1,465.79999999981374,453734.0,7746,WL,A,7.0
3,23.743000030517578,learn,36256.99996948242,Tue Feb 24 2026 14:45:23 GMT-0600 (Central Standard Time),454649.7000000002,A,go,O,o,437,1,915.7000000001863,453734.0,7746,WL,A,7.0
3,24.026000022888184,learn,35973.99997711182,Tue Feb 24 2026 14:45:23 GMT-0600 (Central Standard Time),454932.2000000002,A,gol,O,l,265,1,1198.2000000001863,453734.0,7746,WL,A,7.0
3,24.259000062942505,learn,35740.999937057495,Tue Feb 24 2026 14:45:23 GMT-0600 (Central Standard Time),455165.2000000002,A,golenter,O,enter,218,1,1431.2000000001863,453734.0,7746,WL,A,7.0
3,24.45799994468689,learn,35542.00005531311,Tue Feb 24 2026 14:45:23 GMT-0600 (Central Standard Time),455364.9000000004,A,d,O,d,184,1,199.5,455165.4000000004,7746,WL,A,8.0
3,35.97200012207031,learn,24027.999877929688,Tue Feb 24 2026 14:45:23 GMT-0600 (Central Standard Time),466878.2000000002,A,,O,backspace,11505,1,11712.799999999814,455165.4000000004,7746,WL,A,8.0
3,38.77300000190735,learn,21226.99999809265,Tue Feb 24 2026 14:45:23 GMT-0600 (Central Standard Time),469678.9000000004,A,g,O,g,2790,1,14513.5,455165.4000000004,7746,WL,A,8.0
3,38.888999938964844,learn,21111.000061035156,Tue Feb 24 2026 14:45:23 GMT-0600 (Central Standard Time),469795.0999999996,A,go,O,o,111,1,14629.699999999255,455165.4000000004,7746,WL,A,8.0
3,39.08899998664856,learn,20911.00001335144,Tue Feb 24 2026 14:45:23 GMT-0600 (Central Standard Time),469995.5999999996,A,gol,O,l,195,1,14830.199999999255,455165.4000000004,7746,WL,A,8.0
3,39.82100009918213,learn,20178.99990081787,Tue Feb 24 2026 14:45:23 GMT-0600 (Central Standard Time),470727.2999999998,A,gold,O,d,721,1,15561.899999999441,455165.4000000004,7746,WL,A,8.0
3,40.1560001373291,learn,19843.9998626709,Tue Feb 24 2026 14:45:23 GMT-0600 (Central Standard Time),471061.9000000004,A,goldenter,O,enter,325,1,15896.5,455165.4000000004,7746,WL,A,8.0
3,42.8199999332428,learn,17180.000066757202,Tue Feb 24 2026 14:45:23 GMT-0600 (Central Standard Time),473726.7000000002,A,k,O,k,2647,1,2664.600000000559,471062.0999999996,7746,WL,A,9.0
3,42.986000061035156,learn,17013.999938964844,Tue Feb 24 2026 14:45:23 GMT-0600 (Central Standard Time),473892.7999999998,A,ke,O,e,150,1,2830.7000000001863,471062.0999999996,7746,WL,A,9.0
3,43.123000144958496,learn,16876.999855041504,Tue Feb 24 2026 14:45:23 GMT-0600 (Central Standard Time),474029.2999999998,A,key,O,y,115,1,2967.2000000001863,471062.0999999996,7746,WL,A,9.0
3,43.82100009918213,learn,16178.999900817871,Tue Feb 24 2026 14:45:23 GMT-0600 (Central Standard Time),474727.0999999996,A,keyenter,O,enter,688,1,3665.0,471062.0999999996,7746,WL,A,9.0
3,44.8199999332428,learn,15180.000066757202,Tue Feb 24 2026 14:45:23 GMT-0600 (Central Standard Time),475726.2000000002,A,l,O,l,981,1,998.7999999998137,474727.4000000004,7746,WL,A,10.0
3,45.07100009918213,learn,14928.999900817871,Tue Feb 24 2026 14:45:23 GMT-0600 (Central Standard Time),475977.4000000004,A,lo,O,o,230,1,1250.0,474727.4000000004,7746,WL,A,10.0
3,45.24000000953674,learn,14759.999990463257,Tue Feb 24 2026 14:45:23 GMT-0600 (Central Standard Time),476146.0,A,log,O,g,162,1,1418.5999999996275,474727.4000000004,7746,WL,A,10.0
3,45.47099995613098,learn,14529.000043869019,Tue Feb 24 2026 14:45:23 GMT-0600 (Central Standard Time),476377.5,A,logenter,O,enter,227,1,1650.0999999996275,474727.4000000004,7746,WL,A,10.0
3,46.75200009346008,learn,13247.999906539917,Tue Feb 24 2026 14:45:23 GMT-0600 (Central Standard Time),477658.0999999996,A,m,O,m,1267,1,1280.199999999255,476377.9000000004,7746,WL,A,11.0
3,46.90400004386902,learn,13095.999956130981,Tue Feb 24 2026 14:45:23 GMT-0600 (Central Standard Time),477810.0999999996,A,me,O,e,145,1,1432.199999999255,476377.9000000004,7746,WL,A,11.0
3,47.18600010871887,learn,12813.999891281128,Tue Feb 24 2026 14:45:23 GMT-0600 (Central Standard Time),478092.0,A,mea,O,a,266,1,1714.0999999996275,476377.9000000004,7746,WL,A,11.0
3,47.76800012588501,learn,12231.99987411499,Tue Feb 24 2026 14:45:23 GMT-0600 (Central Standard Time),478674.5999999996,A,mead,O,d,568,1,2296.699999999255,476377.9000000004,7746,WL,A,11.0
3,47.9210000038147,learn,12078.999996185303,Tue Feb 24 2026 14:45:23 GMT-0600 (Central Standard Time),478827.9000000004,A,meado,O,o,132,1,2450.0,476377.9000000004,7746,WL,A,11.0
3,48.10199999809265,learn,11898.000001907349,Tue Feb 24 2026 14:45:23 GMT-0600 (Central Standard Time),479008.2000000002,A,meadow,O,w,161,1,2630.2999999998137,476377.9000000004,7746,WL,A,11.0
3,48.45099997520447,learn,11549.000024795532,Tue Feb 24 2026 14:45:23 GMT-0600 (Central Standard Time),479357.9000000004,A,meadowenter,O,enter,331,1,2980.0,476377.9000000004,7746,WL,A,11.0
3,51.58500003814697,learn,8414.999961853027,Tue Feb 24 2026 14:45:23 GMT-0600 (Central Standard Time),482491.7999999998,A,r,O,r,3120,1,3133.7999999998137,479358.0,7746,WL,A,12.0
3,51.85000014305115,learn,8149.9998569488525,Tue Feb 24 2026 14:45:23 GMT-0600 (Central Standard Time),482756.7000000002,A,ra,O,a,256,1,3398.7000000001863,479358.0,7746,WL,A,12.0
3,52.117000102996826,learn,7882.999897003174,Tue Feb 24 2026 14:45:23 GMT-0600 (Central Standard Time),483022.9000000004,A,rat,O,t,248,1,3664.9000000003725,479358.0,7746,WL,A,12.0
3,52.31599998474121,learn,7684.000015258789,Tue Feb 24 2026 14:45:23 GMT-0600 (Central Standard Time),483222.2000000002,A,ratt,O,t,189,1,3864.2000000001863,479358.0,7746,WL,A,12.0
3,52.5,learn,7500.0,Tue Feb 24 2026 14:45:23 GMT-0600 (Central Standard Time),483406.9000000004,A,rattl,O,l,166,1,4048.9000000003725,479358.0,7746,WL,A,12.0
3,52.65000009536743,learn,7349.999904632568,Tue Feb 24 2026 14:45:23 GMT-0600 (Central Standard Time),483556.0,A,rattle,O,e,133,1,4198.0,479358.0,7746,WL,A,12.0
3,52.91700005531311,learn,7082.99994468689,Tue Feb 24 2026 14:45:23 GMT-0600 (Central Standard Time),483823.2000000002,A,rattleenter,O,enter,257,1,4465.200000000186,479358.0,7746,WL,A,12.0
3,53.55400013923645,learn,6445.99986076355,Tue Feb 24 2026 14:45:23 GMT-0600 (Central Standard Time),484460.7999999998,A,t,O,t,634,1,637.2999999998137,483823.5,7746,WL,A,13.0
3,53.81700015068054,learn,6182.999849319458,Tue Feb 24 2026 14:45:23 GMT-0600 (Central Standard Time),484723.0999999996,A,tr,O,r,256,1,899.5999999996275,483823.5,7746,WL,A,13.0
3,54.08299994468689,learn,5917.00005531311,Tue Feb 24 2026 14:45:23 GMT-0600 (Central Standard Time),484989.7999999998,A,tra,O,a,249,1,1166.2999999998137,483823.5,7746,WL,A,13.0
3,54.18499994277954,learn,5815.000057220459,Tue Feb 24 2026 14:45:23 GMT-0600 (Central Standard Time),485091.0,A,trai,O,i,82,1,1267.5,483823.5,7746,WL,A,13.0
3,54.432000160217285,learn,5567.999839782715,Tue Feb 24 2026 14:45:23 GMT-0600 (Central Standard Time),485339.4000000004,A,train,O,n,232,1,1515.9000000003725,483823.5,7746,WL,A,13.0
3,54.73099994659424,learn,5269.000053405762,Tue Feb 24 2026 14:45:23 GMT-0600 (Central Standard Time),485638.9000000004,A,trainenter,O,enter,282,1,1815.4000000003725,483823.5,7746,WL,A,13.0
3,55.31400012969971,learn,4685.999870300293,Tue Feb 24 2026 14:45:23 GMT-0600 (Central Standard Time),486221.5,A,h,O,h,574,1,582.4000000003725,485639.0999999996,7746,WL,A,14.0
3,55.75099992752075,learn,4249.000072479248,Tue Feb 24 2026 14:45:23 GMT-0600 (Central Standard Time),486658.5,A,ha,O,a,417,1,1019.4000000003725,485639.0999999996,7746,WL,A,14.0
3,55.930999994277954,learn,4069.000005722046,Tue Feb 24 2026 14:45:23 GMT-0600 (Central Standard Time),486838.2999999998,A,har,O,r,160,1,1199.2000000001863,485639.0999999996,7746,WL,A,14.0
3,57.29800009727478,learn,2701.9999027252197,Tue Feb 24 2026 14:45:23 GMT-0600 (Central Standard Time),488205.0,A,harp,O,p,1349,1,2565.9000000003725,485639.0999999996,7746,WL,A,14.0
3,57.89800000190735,learn,2101.9999980926514,Tue Feb 24 2026 14:45:23 GMT-0600 (Central Standard Time),488805.7999999998,A,harpenter,O,enter,584,1,3166.7000000001863,485639.0999999996,7746,WL,A,14.0
3,60.015000104904175,learn,-15.000104904174805,Tue Feb 24 2026 14:45:23 GMT-0600 (Central Standard Time),490922.0999999996,A,None,O,None,2111,1,2116.0999999996275,488806.0,7746,WL,A,15.0
4,0.8660001754760742,learn,59133.999824523926,Tue Feb 24 2026 14:45:23 GMT-0600 (Central Standard Time),559732.2999999998,A,a,O,a,849,1,865.8999999994412,558866.4000000004,7746,WL,A,1.0
4,1.2660000324249268,learn,58733.99996757507,Tue Feb 24 2026 14:45:23 GMT-0600 (Central Standard Time),560131.9000000004,A,ap,O,p,393,1,1265.5,558866.4000000004,7746,WL,A,1.0
4,1.5,learn,58500.0,Tue Feb 24 2026 14:45:23 GMT-0600 (Central Standard Time),560365.7000000002,A,app,O,p,214,1,1499.2999999998137,558866.4000000004,7746,WL,A,1.0
4,2.384000062942505,learn,57615.999937057495,Tue Feb 24 2026 14:45:23 GMT-0600 (Central Standard Time),561249.7000000002,A,appl,O,l,879,1,2383.2999999998137,558866.4000000004,7746,WL,A,1.0
4,2.5990002155303955,learn,57400.999784469604,Tue Feb 24 2026 14:45:23 GMT-0600 (Central Standard Time),561465.0,A,apple,O,e,210,1,2598.5999999996275,558866.4000000004,7746,WL,A,1.0
4,3.2320001125335693,learn,56767.99988746643,Tue Feb 24 2026 14:45:23 GMT-0600 (Central Standard Time),562098.2999999998,A,appleenter,O,enter,617,1,3231.899999999441,558866.4000000004,7746,WL,A,1.0
4,4.234000205993652,learn,55765.99979400635,Tue Feb 24 2026 14:45:23 GMT-0600 (Central Standard Time),563099.7000000002,A,b,O,b,993,1,1001.0,562098.7000000002,7746,WL,A,2.0
4,4.63100004196167,learn,55368.99995803833,Tue Feb 24 2026 14:45:23 GMT-0600 (Central Standard Time),563497.2999999998,A,bo,O,o,385,1,1398.5999999996275,562098.7000000002,7746,WL,A,2.0
4,4.815000057220459,learn,55184.99994277954,Tue Feb 24 2026 14:45:23 GMT-0600 (Central Standard Time),563681.0,A,boo,O,o,164,1,1582.2999999998137,562098.7000000002,7746,WL,A,2.0
4,5.480000019073486,learn,54519.999980926514,Tue Feb 24 2026 14:45:23 GMT-0600 (Central Standard Time),564345.9000000004,A,book,O,k,658,1,2247.2000000001863,562098.7000000002,7746,WL,A,2.0
4,5.830000162124634,learn,54169.999837875366,Tue Feb 24 2026 14:45:23 GMT-0600 (Central Standard Time),564695.7999999998,A,bookenter,O,enter,331,1,2597.0999999996275,562098.7000000002,7746,WL,A,2.0
4,6.366000175476074,learn,53633.999824523926,Tue Feb 24 2026 14:45:23 GMT-0600 (Central Standard Time),565231.7000000002,A,b,O,b,516,1,535.5,564696.2000000002,7746,WL,A,3.0
4,6.547000169754028,learn,53452.99983024597,Tue Feb 24 2026 14:45:23 GMT-0600 (Central Standard Time),565412.5999999996,A,bu,O,u,171,1,716.3999999994412,564696.2000000002,7746,WL,A,3.0
4,6.78000020980835,learn,53219.99979019165,Tue Feb 24 2026 14:45:23 GMT-0600 (Central Standard Time),565645.9000000004,A,but,O,t,224,1,949.7000000001863,564696.2000000002,7746,WL,A,3.0
4,7.031000137329102,learn,52968.9998626709,Tue Feb 24 2026 14:45:23 GMT-0600 (Central Standard Time),565897.0,A,butt,O,t,231,1,1200.7999999998137,564696.2000000002,7746,WL,A,3.0
4,7.17900013923645,learn,52820.99986076355,Tue Feb 24 2026 14:45:23 GMT-0600 (Central Standard Time),566045.4000000004,A,butto,O,o,138,1,1349.2000000001863,564696.2000000002,7746,WL,A,3.0
4,7.463000059127808,learn,52536.99994087219,Tue Feb 24 2026 14:45:23 GMT-0600 (Central Standard Time),566329.0999999996,A,button,O,n,271,1,1632.8999999994412,564696.2000000002,7746,WL,A,3.0
4,7.831000089645386,learn,52168.999910354614,Tue Feb 24 2026 14:45:23 GMT-0600 (Central Standard Time),566697.2000000002,A,buttonenter,O,enter,348,1,2001.0,564696.2000000002,7746,WL,A,3.0
4,8.563000202178955,learn,51436.999797821045,Tue Feb 24 2026 14:45:23 GMT-0600 (Central Standard Time),567429.2000000002,A,c,O,c,724,1,731.9000000003725,566697.2999999998,7746,WL,A,4.0
4,8.651000022888184,learn,51348.99997711182,Tue Feb 24 2026 14:45:23 GMT-0600 (Central Standard Time),567517.2000000002,A,ch,O,h,72,1,819.9000000003725,566697.2999999998,7746,WL,A,4.0
4,8.847000122070312,learn,51152.99987792969,Tue Feb 24 2026 14:45:23 GMT-0600 (Central Standard Time),567713.0,A,chi,O,i,184,1,1015.7000000001863,566697.2999999998,7746,WL,A,4.0
4,9.081000089645386,learn,50918.999910354614,Tue Feb 24 2026 14:45:23 GMT-0600 (Central Standard Time),567947.4000000004,A,chim,O,m,220,1,1250.1000000005588,566697.2999999998,7746,WL,A,4.0
4,9.59600019454956,learn,50403.99980545044,Tue Feb 24 2026 14:45:23 GMT-0600 (Central Standard Time),568462.5999999996,A,chimn,O,n,499,1,1765.2999999998137,566697.2999999998,7746,WL,A,4.0
4,9.847000122070312,learn,50152.99987792969,Tue Feb 24 2026 14:45:23 GMT-0600 (Central Standard Time),568712.7999999998,A,chimne,O,e,237,1,2015.5,566697.2999999998,7746,WL,A,4.0
4,9.96399998664856,learn,50036.00001335144,Tue Feb 24 2026 14:45:23 GMT-0600 (Central Standard Time),568830.0,A,chimney,O,y,100,1,2132.7000000001863,566697.2999999998,7746,WL,A,4.0
4,10.396000146865845,learn,49603.999853134155,Tue Feb 24 2026 14:45:23 GMT-0600 (Central Standard Time),569261.5999999996,A,chimneyenter,O,enter,412,1,2564.2999999998137,566697.2999999998,7746,WL,A,4.0
4,14.009999990463257,learn,45990.00000953674,Tue Feb 24 2026 14:45:23 GMT-0600 (Central Standard Time),572876.0999999996,A,f,O,f,3598,1,3614.199999999255,569261.9000000004,7746,WL,A,5.0
4,14.261000156402588,learn,45738.99984359741,Tue Feb 24 2026 14:45:23 GMT-0600 (Central Standard Time),573126.9000000004,A,fi,O,i,241,1,3865.0,569261.9000000004,7746,WL,A,5.0
4,14.509999990463257,learn,45490.00000953674,Tue Feb 24 2026 14:45:23 GMT-0600 (Central Standard Time),573376.5999999996,A,fin,O,n,237,1,4114.699999999255,569261.9000000004,7746,WL,A,5.0
4,14.644999980926514,learn,45355.000019073486,Tue Feb 24 2026 14:45:23 GMT-0600 (Central Standard Time),573510.7999999998,A,fing,O,g,124,1,4248.899999999441,569261.9000000004,7746,WL,A,5.0
4,14.861000061035156,learn,45138.999938964844,Tue Feb 24 2026 14:45:23 GMT-0600 (Central Standard Time),573727.2000000002,A,finge,O,e,206,1,4465.299999999814,569261.9000000004,7746,WL,A,5.0
4,14.928000211715698,learn,45071.9997882843,Tue Feb 24 2026 14:45:23 GMT-0600 (Central Standard Time),573794.2999999998,A,finger,O,r,61,1,4532.399999999441,569261.9000000004,7746,WL,A,5.0
4,15.17900013923645,learn,44820.99986076355,Tue Feb 24 2026 14:45:23 GMT-0600 (Central Standard Time),574045.0999999996,A,fingerenter,O,enter,241,1,4783.199999999255,569261.9000000004,7746,WL,A,5.0
4,15.84600019454956,learn,44153.99980545044,Tue Feb 24 2026 14:45:23 GMT-0600 (Central Standard Time),574712.2999999998,A,f,O,f,655,1,667.0,574045.2999999998,7746,WL,A,6.0
4,16.01200008392334,learn,43987.99991607666,Tue Feb 24 2026 14:45:23 GMT-0600 (Central Standard Time),574878.2000000002,A,fl,O,l,154,1,832.9000000003725,574045.2999999998,7746,WL,A,6.0
4,16.295000076293945,learn,43704.999923706055,Tue Feb 24 2026 14:45:23 GMT-0600 (Central Standard Time),575160.5999999996,A,flo,O,o,264,1,1115.2999999998137,574045.2999999998,7746,WL,A,6.0
4,16.461000204086304,learn,43538.999795913696,Tue Feb 24 2026 14:45:23 GMT-0600 (Central Standard Time),575327.2000000002,A,flow,O,w,155,1,1281.9000000003725,574045.2999999998,7746,WL,A,6.0
4,16.67900013923645,learn,43320.99986076355,Tue Feb 24 2026 14:45:23 GMT-0600 (Central Standard Time),575544.9000000004,A,flowe,O,e,213,1,1499.6000000005588,574045.2999999998,7746,WL,A,6.0
4,16.778000116348267,learn,43221.99988365173,Tue Feb 24 2026 14:45:23 GMT-0600 (Central Standard Time),575644.4000000004,A,flower,O,r,92,1,1599.1000000005588,574045.2999999998,7746,WL,A,6.0
4,17.1780002117157,learn,42821.9997882843,Tue Feb 24 2026 14:45:23 GMT-0600 (Central Standard Time),576044.2000000002,A,flowerenter,O,enter,389,1,1998.9000000003725,574045.2999999998,7746,WL,A,6.0
4,18.493000030517578,learn,41506.99996948242,Tue Feb 24 2026 14:45:23 GMT-0600 (Central Standard Time),577359.5,A,g,O,g,1295,1,1315.0999999996275,576044.4000000004,7746,WL,A,7.0
4,18.64400005340576,learn,41355.99994659424,Tue Feb 24 2026 14:45:23 GMT-0600 (Central Standard Time),577510.0999999996,A,go,O,o,140,1,1465.699999999255,576044.4000000004,7746,WL,A,7.0
4,18.877000093460083,learn,41122.99990653992,Tue Feb 24 2026 14:45:23 GMT-0600 (Central Standard Time),577743.2999999998,A,gol,O,l,223,1,1698.8999999994412,576044.4000000004,7746,WL,A,7.0
4,19.093000173568726,learn,40906.999826431274,Tue Feb 24 2026 14:45:23 GMT-0600 (Central Standard Time),577959.5,A,gold,O,d,195,1,1915.0999999996275,576044.4000000004,7746,WL,A,7.0
4,19.39300012588501,learn,40606.99987411499,Tue Feb 24 2026 14:45:23 GMT-0600 (Central Standard Time),578259.5,A,goldenter,O,enter,292,1,2215.0999999996275,576044.4000000004,7746,WL,A,7.0
4,20.210000038146973,learn,39789.99996185303,Tue Feb 24 2026 14:45:23 GMT-0600 (Central Standard Time),579076.2000000002,A,h,O,h,809,1,816.4000000003725,578259.7999999998,7746,WL,A,8.0
4,20.443000078201294,learn,39556.999921798706,Tue Feb 24 2026 14:45:23 GMT-0600 (Central Standard Time),579308.5999999996,A,ha,O,a,215,1,1048.7999999998137,578259.7999999998,7746,WL,A,8.0
4,20.593000173568726,learn,39406.999826431274,Tue Feb 24 2026 14:45:23 GMT-0600 (Central Standard Time),579459.4000000004,A,har,O,r,136,1,1199.6000000005588,578259.7999999998,7746,WL,A,8.0
4,21.0770001411438,learn,38922.9998588562,Tue Feb 24 2026 14:45:23 GMT-0600 (Central Standard Time),579943.2000000002,A,harp,O,p,475,1,1683.4000000003725,578259.7999999998,7746,WL,A,8.0
4,21.493000030517578,learn,38506.99996948242,Tue Feb 24 2026 14:45:23 GMT-0600 (Central Standard Time),580359.4000000004,A,harpenter,O,enter,393,1,2099.600000000559,578259.7999999998,7746,WL,A,8.0
4,26.60800004005432,learn,33391.99995994568,Tue Feb 24 2026 14:45:23 GMT-0600 (Central Standard Time),585473.7000000002,A,k,O,k,5100,1,5114.0,580359.7000000002,7746,WL,A,9.0
4,27.207000017166138,learn,32792.99998283386,Tue Feb 24 2026 14:45:23 GMT-0600 (Central Standard Time),586073.2999999998,A,ke,O,e,592,1,5713.5999999996275,580359.7000000002,7746,WL,A,9.0
4,27.374000072479248,learn,32625.999927520752,Tue Feb 24 2026 14:45:23 GMT-0600 (Central Standard Time),586240.5,A,key,O,y,154,1,5880.799999999814,580359.7000000002,7746,WL,A,9.0
4,28.009000062942505,learn,31990.999937057495,Tue Feb 24 2026 14:45:23 GMT-0600 (Central Standard Time),586874.7000000002,A,keyenter,O,enter,630,1,6515.0,580359.7000000002,7746,WL,A,9.0
4,28.591000080108643,learn,31408.999919891357,Tue Feb 24 2026 14:45:23 GMT-0600 (Central Standard Time),587457.4000000004,A,l,O,l,563,1,582.4000000003725,586875.0,7746,WL,A,10.0
4,28.859000205993652,learn,31140.999794006348,Tue Feb 24 2026 14:45:23 GMT-0600 (Central Standard Time),587724.7000000002,A,lo,O,o,250,1,849.7000000001863,586875.0,7746,WL,A,10.0
4,29.157000064849854,learn,30842.999935150146,Tue Feb 24 2026 14:45:23 GMT-0600 (Central Standard Time),588023.2999999998,A,log,O,g,288,1,1148.2999999998137,586875.0,7746,WL,A,10.0
4,31.623000144958496,learn,28376.999855041504,Tue Feb 24 2026 14:45:23 GMT-0600 (Central Standard Time),590489.2999999998,A,logenter,O,enter,2447,1,3614.2999999998137,586875.0,7746,WL,A,10.0
4,38.13800001144409,learn,21861.99998855591,Tue Feb 24 2026 14:45:23 GMT-0600 (Central Standard Time),597003.7999999998,A,r,O,r,6507,1,6514.299999999814,590489.5,7746,WL,A,11.0
4,38.47000002861023,learn,21529.99997138977,Tue Feb 24 2026 14:45:23 GMT-0600 (Central Standard Time),597336.0,A,ra,O,a,312,1,6846.5,590489.5,7746,WL,A,11.0
4,38.771000146865845,learn,21228.999853134155,Tue Feb 24 2026 14:45:23 GMT-0600 (Central Standard Time),597636.7999999998,A,rat,O,t,292,1,7147.299999999814,590489.5,7746,WL,A,11.0
4,38.97100019454956,learn,21028.99980545044,Tue Feb 24 2026 14:45:23 GMT-0600 (Central Standard Time),597836.9000000004,A,ratt,O,t,193,1,7347.4000000003725,590489.5,7746,WL,A,11.0
4,39.30400013923645,learn,20695.99986076355,Tue Feb 24 2026 14:45:23 GMT-0600 (Central Standard Time),598170.5,A,rattl,O,l,319,1,7681.0,590489.5,7746,WL,A,11.0
4,39.45300006866455,learn,20546.99993133545,Tue Feb 24 2026 14:45:23 GMT-0600 (Central Standard Time),598318.7000000002,A,rattle,O,e,130,1,7829.200000000186,590489.5,7746,WL,A,11.0
4,39.6560001373291,learn,20343.9998626709,Tue Feb 24 2026 14:45:23 GMT-0600 (Central Standard Time),598522.2999999998,A,rattleenter,O,enter,200,1,8032.799999999814,590489.5,7746,WL,A,11.0
4,40.07100009918213,learn,19928.99990081787,Tue Feb 24 2026 14:45:23 GMT-0600 (Central Standard Time),598937.0999999996,A,r,O,r,394,1,414.5,598522.5999999996,7746,WL,A,12.0
4,40.22000002861023,learn,19779.99997138977,Tue Feb 24 2026 14:45:23 GMT-0600 (Central Standard Time),599086.5,A,ru,O,u,139,1,563.9000000003725,598522.5999999996,7746,WL,A,12.0
4,40.47100019454956,learn,19528.99980545044,Tue Feb 24 2026 14:45:23 GMT-0600 (Central Standard Time),599337.2999999998,A,rug,O,g,238,1,814.7000000001863,598522.5999999996,7746,WL,A,12.0
4,40.78600001335144,learn,19213.99998664856,Tue Feb 24 2026 14:45:23 GMT-0600 (Central Standard Time),599652.4000000004,A,rugenter,O,enter,300,1,1129.800000000745,598522.5999999996,7746,WL,A,12.0
4,42.53600001335144,learn,17463.99998664856,Tue Feb 24 2026 14:45:23 GMT-0600 (Central Standard Time),601402.4000000004,A,s,O,s,1730,1,1749.9000000003725,599652.5,7746,WL,A,13.0
4,42.8050000667572,learn,17194.999933242798,Tue Feb 24 2026 14:45:23 GMT-0600 (Central Standard Time),601671.2000000002,A,sa,O,a,250,1,2018.7000000001863,599652.5,7746,WL,A,13.0
4,42.95300006866455,learn,17046.99993133545,Tue Feb 24 2026 14:45:23 GMT-0600 (Central Standard Time),601819.5,A,sal,O,l,144,1,2167.0,599652.5,7746,WL,A,13.0
4,43.28700017929077,learn,16712.99982070923,Tue Feb 24 2026 14:45:23 GMT-0600 (Central Standard Time),602153.0999999996,A,salt,O,t,319,1,2500.5999999996275,599652.5,7746,WL,A,13.0
4,43.569000005722046,learn,16430.999994277954,Tue Feb 24 2026 14:45:23 GMT-0600 (Central Standard Time),602435.0999999996,A,saltenter,O,enter,267,1,2782.5999999996275,599652.5,7746,WL,A,13.0
4,43.95300006866455,learn,16046.99993133545,Tue Feb 24 2026 14:45:23 GMT-0600 (Central Standard Time),602819.2999999998,A,t,O,t,369,1,384.0,602435.2999999998,7746,WL,A,14.0
4,44.28700017929077,learn,15712.999820709229,Tue Feb 24 2026 14:45:23 GMT-0600 (Central Standard Time),603152.5999999996,A,tr,O,r,328,1,717.2999999998137,602435.2999999998,7746,WL,A,14.0
4,44.53500008583069,learn,15464.999914169312,Tue Feb 24 2026 14:45:23 GMT-0600 (Central Standard Time),603401.5999999996,A,tra,O,a,234,1,966.2999999998137,602435.2999999998,7746,WL,A,14.0
4,44.688000202178955,learn,15311.999797821045,Tue Feb 24 2026 14:45:23 GMT-0600 (Central Standard Time),603553.9000000004,A,trai,O,i,133,1,1118.6000000005588,602435.2999999998,7746,WL,A,14.0
4,44.90300011634827,learn,15096.999883651733,Tue Feb 24 2026 14:45:23 GMT-0600 (Central Standard Time),603768.9000000004,A,train,O,n,196,1,1333.6000000005588,602435.2999999998,7746,WL,A,14.0
4,45.10300016403198,learn,14896.999835968018,Tue Feb 24 2026 14:45:23 GMT-0600 (Central Standard Time),603969.0,A,trainenter,O,enter,187,1,1533.7000000001863,602435.2999999998,7746,WL,A,14.0
4,55.51600003242493,learn,4483.999967575073,Tue Feb 24 2026 14:45:23 GMT-0600 (Central Standard Time),614382.7000000002,A,enter,O,enter,10397,1,10413.400000000373,603969.2999999998,7746,WL,A,15.0
5,2.199000120162964,learn,60000.0,Tue Feb 24 2026 14:45:23 GMT-0600 (Central Standard Time),700454.4000000004,A,a,O,a,2190,1,2198.9000000003725,698255.5,7746,WL,A,1.0
5,3.749000072479248,learn,60000.0,Tue Feb 24 2026 14:45:23 GMT-0600 (Central Standard Time),702003.7999999998,A,ap,O,p,1532,1,3748.2999999998137,698255.5,7746,WL,A,1.0
5,3.9840002059936523,learn,60000.0,Tue Feb 24 2026 14:45:23 GMT-0600 (Central Standard Time),702238.9000000004,A,app,O,p,216,1,3983.4000000003725,698255.5,7746,WL,A,1.0
5,4.315999984741211,learn,60000.0,Tue Feb 24 2026 14:45:23 GMT-0600 (Central Standard Time),702571.0999999996,A,appl,O,l,316,1,4315.5999999996275,698255.5,7746,WL,A,1.0
5,4.481000185012817,learn,60000.0,Tue Feb 24 2026 14:45:23 GMT-0600 (Central Standard Time),702736.0999999996,A,apple,O,e,152,1,4480.5999999996275,698255.5,7746,WL,A,1.0
5,4.981000185012817,learn,60000.0,Tue Feb 24 2026 14:45:23 GMT-0600 (Central Standard Time),703235.9000000004,A,appleenter,O,enter,493,1,4980.4000000003725,698255.5,7746,WL,A,1.0
5,6.46399998664856,learn,60000.0,Tue Feb 24 2026 14:45:23 GMT-0600 (Central Standard Time),704718.7000000002,A,b,O,b,1472,1,1482.5,703236.2000000002,7746,WL,A,2.0
5,6.746999979019165,learn,60000.0,Tue Feb 24 2026 14:45:23 GMT-0600 (Central Standard Time),705002.5,A,bo,O,o,263,1,1766.2999999998137,703236.2000000002,7746,WL,A,2.0
5,6.916000127792358,learn,60000.0,Tue Feb 24 2026 14:45:23 GMT-0600 (Central Standard Time),705170.7000000002,A,boo,O,o,158,1,1934.5,703236.2000000002,7746,WL,A,2.0
5,7.21399998664856,learn,60000.0,Tue Feb 24 2026 14:45:23 GMT-0600 (Central Standard Time),705468.7999999998,A,book,O,k,289,1,2232.5999999996275,703236.2000000002,7746,WL,A,2.0
5,7.531000137329102,learn,60000.0,Tue Feb 24 2026 14:45:23 GMT-0600 (Central Standard Time),705786.4000000004,A,bookenter,O,enter,310,1,2550.2000000001863,703236.2000000002,7746,WL,A,2.0
5,8.097000122070312,learn,60000.0,Tue Feb 24 2026 14:45:23 GMT-0600 (Central Standard Time),706351.7999999998,A,b,O,b,546,1,565.0999999996275,705786.7000000002,7746,WL,A,3.0
5,8.282999992370605,learn,60000.0,Tue Feb 24 2026 14:45:23 GMT-0600 (Central Standard Time),706537.5999999996,A,bu,O,u,164,1,750.8999999994412,705786.7000000002,7746,WL,A,3.0
5,8.565000057220459,learn,60000.0,Tue Feb 24 2026 14:45:23 GMT-0600 (Central Standard Time),706820.4000000004,A,but,O,t,267,1,1033.7000000001863,705786.7000000002,7746,WL,A,3.0
5,8.797000169754028,learn,60000.0,Tue Feb 24 2026 14:45:23 GMT-0600 (Central Standard Time),707051.7000000002,A,butt,O,t,214,1,1265.0,705786.7000000002,7746,WL,A,3.0
5,9.015000104904175,learn,60000.0,Tue Feb 24 2026 14:45:23 GMT-0600 (Central Standard Time),707269.5999999996,A,butto,O,o,209,1,1482.8999999994412,705786.7000000002,7746,WL,A,3.0
5,9.299000024795532,learn,60000.0,Tue Feb 24 2026 14:45:23 GMT-0600 (Central Standard Time),707553.7000000002,A,button,O,n,275,1,1767.0,705786.7000000002,7746,WL,A,3.0
5,9.633000135421753,learn,60000.0,Tue Feb 24 2026 14:45:23 GMT-0600 (Central Standard Time),707887.5999999996,A,buttonenter,O,enter,322,1,2100.899999999441,705786.7000000002,7746,WL,A,3.0
5,10.19700002670288,learn,60000.0,Tue Feb 24 2026 14:45:23 GMT-0600 (Central Standard Time),708452.0,A,c,O,c,549,1,564.2000000001863,707887.7999999998,7746,WL,A,4.0
5,10.297000169754028,learn,60000.0,Tue Feb 24 2026 14:45:23 GMT-0600 (Central Standard Time),708551.9000000004,A,ch,O,h,89,1,664.1000000005588,707887.7999999998,7746,WL,A,4.0
5,10.51200008392334,learn,60000.0,Tue Feb 24 2026 14:45:23 GMT-0600 (Central Standard Time),708767.0,A,chi,O,i,196,1,879.2000000001863,707887.7999999998,7746,WL,A,4.0
5,10.764000177383423,learn,60000.0,Tue Feb 24 2026 14:45:23 GMT-0600 (Central Standard Time),709019.0,A,chim,O,m,238,1,1131.2000000001863,707887.7999999998,7746,WL,A,4.0
5,11.313000202178955,learn,60000.0,Tue Feb 24 2026 14:45:23 GMT-0600 (Central Standard Time),709567.9000000004,A,chimn,O,n,539,1,1680.1000000005588,707887.7999999998,7746,WL,A,4.0
5,11.71399998664856,learn,60000.0,Tue Feb 24 2026 14:45:23 GMT-0600 (Central Standard Time),709969.2000000002,A,chimne,O,e,389,1,2081.4000000003725,707887.7999999998,7746,WL,A,4.0
5,11.913000106811523,learn,60000.0,Tue Feb 24 2026 14:45:23 GMT-0600 (Central Standard Time),710167.7999999998,A,chimney,O,y,187,1,2280.0,707887.7999999998,7746,WL,A,4.0
5,12.394999980926514,learn,60000.0,Tue Feb 24 2026 14:45:23 GMT-0600 (Central Standard Time),710650.4000000004,A,chimneyenter,O,enter,477,1,2762.600000000559,707887.7999999998,7746,WL,A,4.0
5,14.812000036239624,learn,60000.0,Tue Feb 24 2026 14:45:23 GMT-0600 (Central Standard Time),713066.7000000002,A,f,O,f,2403,1,2416.100000000559,710650.5999999996,7746,WL,A,5.0
5,14.92900013923645,learn,60000.0,Tue Feb 24 2026 14:45:23 GMT-0600 (Central Standard Time),713184.0,A,fi,O,i,107,1,2533.4000000003725,710650.5999999996,7746,WL,A,5.0
5,15.163000106811523,learn,60000.0,Tue Feb 24 2026 14:45:23 GMT-0600 (Central Standard Time),713417.7999999998,A,fin,O,n,227,1,2767.2000000001863,710650.5999999996,7746,WL,A,5.0
5,15.397000074386597,learn,60000.0,Tue Feb 24 2026 14:45:23 GMT-0600 (Central Standard Time),713651.9000000004,A,fing,O,g,227,1,3001.300000000745,710650.5999999996,7746,WL,A,5.0
5,15.644000053405762,learn,60000.0,Tue Feb 24 2026 14:45:23 GMT-0600 (Central Standard Time),713899.5999999996,A,finge,O,e,241,1,3249.0,710650.5999999996,7746,WL,A,5.0
5,15.748000144958496,learn,60000.0,Tue Feb 24 2026 14:45:23 GMT-0600 (Central Standard Time),714003.0,A,finger,O,r,101,1,3352.4000000003725,710650.5999999996,7746,WL,A,5.0
5,16.16200017929077,learn,60000.0,Tue Feb 24 2026 14:45:23 GMT-0600 (Central Standard Time),714417.0,A,fingerenter,O,enter,402,1,3766.4000000003725,710650.5999999996,7746,WL,A,5.0
5,17.261000156402588,learn,60000.0,Tue Feb 24 2026 14:45:23 GMT-0600 (Central Standard Time),715515.5999999996,A,f,O,f,1091,1,1098.2999999998137,714417.2999999998,7746,WL,A,6.0
5,17.461000204086304,learn,60000.0,Tue Feb 24 2026 14:45:23 GMT-0600 (Central Standard Time),715716.0999999996,A,fl,O,l,185,1,1298.7999999998137,714417.2999999998,7746,WL,A,6.0
5,17.711000204086304,learn,60000.0,Tue Feb 24 2026 14:45:23 GMT-0600 (Central Standard Time),715966.2999999998,A,flo,O,o,241,1,1549.0,714417.2999999998,7746,WL,A,6.0
5,17.861000061035156,learn,60000.0,Tue Feb 24 2026 14:45:23 GMT-0600 (Central Standard Time),716115.5999999996,A,flow,O,w,143,1,1698.2999999998137,714417.2999999998,7746,WL,A,6.0
5,18.111000061035156,learn,60000.0,Tue Feb 24 2026 14:45:23 GMT-0600 (Central Standard Time),716365.5999999996,A,flowe,O,e,241,1,1948.2999999998137,714417.2999999998,7746,WL,A,6.0
5,18.211000204086304,learn,60000.0,Tue Feb 24 2026 14:45:23 GMT-0600 (Central Standard Time),716466.4000000004,A,flower,O,r,96,1,2049.100000000559,714417.2999999998,7746,WL,A,6.0
5,18.694000005722046,learn,60000.0,Tue Feb 24 2026 14:45:23 GMT-0600 (Central Standard Time),716948.7999999998,A,flowerenter,O,enter,465,1,2531.5,714417.2999999998,7746,WL,A,6.0
5,20.31000018119812,learn,60000.0,Tue Feb 24 2026 14:45:23 GMT-0600 (Central Standard Time),718564.9000000004,A,g,O,g,1608,1,1615.9000000003725,716949.0,7746,WL,A,7.0
5,20.462000131607056,learn,60000.0,Tue Feb 24 2026 14:45:23 GMT-0600 (Central Standard Time),718716.7000000002,A,go,O,o,136,1,1767.7000000001863,716949.0,7746,WL,A,7.0
5,20.710000038146973,learn,60000.0,Tue Feb 24 2026 14:45:23 GMT-0600 (Central Standard Time),718965.2000000002,A,gol,O,l,232,1,2016.2000000001863,716949.0,7746,WL,A,7.0
5,21.027000188827515,learn,60000.0,Tue Feb 24 2026 14:45:23 GMT-0600 (Central Standard Time),719281.7999999998,A,gold,O,d,303,1,2332.7999999998137,716949.0,7746,WL,A,7.0
5,21.45900011062622,learn,60000.0,Tue Feb 24 2026 14:45:23 GMT-0600 (Central Standard Time),719714.2000000002,A,goldenter,O,enter,419,1,2765.2000000001863,716949.0,7746,WL,A,7.0
5,23.3270001411438,learn,60000.0,Tue Feb 24 2026 14:45:23 GMT-0600 (Central Standard Time),721582.5,A,k,O,k,1849,1,1868.0,719714.5,7746,WL,A,8.0
5,23.80900001525879,learn,60000.0,Tue Feb 24 2026 14:45:23 GMT-0600 (Central Standard Time),722064.2000000002,A,ke,O,e,475,1,2349.7000000001863,719714.5,7746,WL,A,8.0
5,24.343000173568726,learn,60000.0,Tue Feb 24 2026 14:45:23 GMT-0600 (Central Standard Time),722597.7999999998,A,keenter,O,enter,525,1,2883.2999999998137,719714.5,7746,WL,A,8.0
5,27.258000135421753,learn,60000.0,Tue Feb 24 2026 14:45:23 GMT-0600 (Central Standard Time),725513.2000000002,A,k,O,k,2903,1,2915.100000000559,722598.0999999996,7746,WL,A,9.0
5,28.006999969482422,learn,60000.0,Tue Feb 24 2026 14:45:23 GMT-0600 (Central Standard Time),726262.4000000004,A,ke,O,e,740,1,3664.300000000745,722598.0999999996,7746,WL,A,9.0
5,28.308000087738037,learn,60000.0,Tue Feb 24 2026 14:45:23 GMT-0600 (Central Standard Time),726564.0,A,key,O,y,285,1,3965.9000000003725,722598.0999999996,7746,WL,A,9.0
5,28.707000017166138,learn,60000.0,Tue Feb 24 2026 14:45:23 GMT-0600 (Central Standard Time),726962.2999999998,A,keyenter,O,enter,394,1,4364.200000000186,722598.0999999996,7746,WL,A,9.0
5,33.60800004005432,learn,60000.0,Tue Feb 24 2026 14:45:23 GMT-0600 (Central Standard Time),731863.4000000004,A,l,O,l,4884,1,4901.0,726962.4000000004,7746,WL,A,10.0
5,33.88900017738342,learn,60000.0,Tue Feb 24 2026 14:45:23 GMT-0600 (Central Standard Time),732144.2999999998,A,lo,O,o,261,1,5181.899999999441,726962.4000000004,7746,WL,A,10.0
5,34.1710000038147,learn,60000.0,Tue Feb 24 2026 14:45:23 GMT-0600 (Central Standard Time),732427.0,A,log,O,g,275,1,5464.5999999996275,726962.4000000004,7746,WL,A,10.0
5,35.13900017738342,learn,60000.0,Tue Feb 24 2026 14:45:23 GMT-0600 (Central Standard Time),733394.4000000004,A,logenter,O,enter,964,1,6432.0,726962.4000000004,7746,WL,A,10.0
5,39.48800015449524,learn,60000.0,Tue Feb 24 2026 14:45:23 GMT-0600 (Central Standard Time),737743.5999999996,A,h,O,h,4330,1,4348.899999999441,733394.7000000002,7746,WL,A,11.0
5,39.986000061035156,learn,60000.0,Tue Feb 24 2026 14:45:23 GMT-0600 (Central Standard Time),738241.7000000002,A,ha,O,a,484,1,4847.0,733394.7000000002,7746,WL,A,11.0
5,40.1710000038147,learn,60000.0,Tue Feb 24 2026 14:45:23 GMT-0600 (Central Standard Time),738426.0999999996,A,har,O,r,171,1,5031.399999999441,733394.7000000002,7746,WL,A,11.0
5,40.688000202178955,learn,60000.0,Tue Feb 24 2026 14:45:23 GMT-0600 (Central Standard Time),738943.4000000004,A,harp,O,p,507,1,5548.700000000186,733394.7000000002,7746,WL,A,11.0
5,41.254000186920166,learn,60000.0,Tue Feb 24 2026 14:45:23 GMT-0600 (Central Standard Time),739509.7000000002,A,harpenter,O,enter,556,1,6115.0,733394.7000000002,7746,WL,A,11.0
5,48.051000118255615,learn,60000.0,Tue Feb 24 2026 14:45:23 GMT-0600 (Central Standard Time),746306.2999999998,A,r,O,r,6792,1,6796.399999999441,739509.9000000004,7746,WL,A,12.0
5,48.384000062942505,learn,60000.0,Tue Feb 24 2026 14:45:23 GMT-0600 (Central Standard Time),746639.7999999998,A,ra,O,a,320,1,7129.899999999441,739509.9000000004,7746,WL,A,12.0
5,48.53400015830994,learn,60000.0,Tue Feb 24 2026 14:45:23 GMT-0600 (Central Standard Time),746789.2000000002,A,rat,O,t,134,1,7279.299999999814,739509.9000000004,7746,WL,A,12.0
5,48.75200009346008,learn,60000.0,Tue Feb 24 2026 14:45:23 GMT-0600 (Central Standard Time),747007.0,A,ratt,O,t,207,1,7497.0999999996275,739509.9000000004,7746,WL,A,12.0
5,49.00100016593933,learn,60000.0,Tue Feb 24 2026 14:45:23 GMT-0600 (Central Standard Time),747256.0999999996,A,rattl,O,l,236,1,7746.199999999255,739509.9000000004,7746,WL,A,12.0
5,49.151000022888184,learn,60000.0,Tue Feb 24 2026 14:45:23 GMT-0600 (Central Standard Time),747406.0999999996,A,rattle,O,e,131,1,7896.199999999255,739509.9000000004,7746,WL,A,12.0
5,49.420000076293945,learn,60000.0,Tue Feb 24 2026 14:45:23 GMT-0600 (Central Standard Time),747675.4000000004,A,rattleenter,O,enter,261,1,8165.5,739509.9000000004,7746,WL,A,12.0
5,49.88499999046326,learn,60000.0,Tue Feb 24 2026 14:45:23 GMT-0600 (Central Standard Time),748140.5999999996,A,r,O,r,457,1,465.0,747675.5999999996,7746,WL,A,13.0
5,50.01600003242493,learn,60000.0,Tue Feb 24 2026 14:45:23 GMT-0600 (Central Standard Time),748271.7999999998,A,ru,O,u,117,1,596.2000000001863,747675.5999999996,7746,WL,A,13.0
5,50.26700019836426,learn,60000.0,Tue Feb 24 2026 14:45:23 GMT-0600 (Central Standard Time),748522.5,A,rug,O,g,245,1,846.9000000003725,747675.5999999996,7746,WL,A,13.0
5,50.5,learn,60000.0,Tue Feb 24 2026 14:45:23 GMT-0600 (Central Standard Time),748755.0999999996,A,rugenter,O,enter,211,1,1079.5,747675.5999999996,7746,WL,A,13.0
5,51.450000047683716,learn,60000.0,Tue Feb 24 2026 14:45:23 GMT-0600 (Central Standard Time),749705.0999999996,A,s,O,s,937,1,949.7999999998137,748755.2999999998,7746,WL,A,14.0
5,51.68400001525879,learn,60000.0,Tue Feb 24 2026 14:45:23 GMT-0600 (Central Standard Time),749939.2999999998,A,sa,O,a,230,1,1184.0,748755.2999999998,7746,WL,A,14.0
5,51.81599998474121,learn,60000.0,Tue Feb 24 2026 14:45:23 GMT-0600 (Central Standard Time),750072.0,A,sal,O,l,111,1,1316.7000000001863,748755.2999999998,7746,WL,A,14.0
5,52.11500000953674,learn,60000.0,Tue Feb 24 2026 14:45:23 GMT-0600 (Central Standard Time),750370.5,A,salt,O,t,289,1,1615.2000000001863,748755.2999999998,7746,WL,A,14.0
5,52.41900014877319,learn,60000.0,Tue Feb 24 2026 14:45:23 GMT-0600 (Central Standard Time),750674.2999999998,A,saltenter,O,enter,291,1,1919.0,748755.2999999998,7746,WL,A,14.0
5,54.71500015258789,learn,60000.0,Tue Feb 24 2026 14:45:23 GMT-0600 (Central Standard Time),752970.7000000002,A,t,O,t,2284,1,2296.2000000001863,750674.5,7746,WL,A,15.0
5,55.11500000953674,learn,60000.0,Tue Feb 24 2026 14:45:23 GMT-0600 (Central Standard Time),753370.5,A,tr,O,r,392,1,2696.0,750674.5,7746,WL,A,15.0
5,55.415000200271606,learn,60000.0,Tue Feb 24 2026 14:45:23 GMT-0600 (Central Standard Time),753670.5999999996,A,tra,O,a,291,1,2996.0999999996275,750674.5,7746,WL,A,15.0
5,55.54800009727478,learn,60000.0,Tue Feb 24 2026 14:45:23 GMT-0600 (Central Standard Time),753803.7000000002,A,trai,O,i,118,1,3129.2000000001863,750674.5,7746,WL,A,15.0
5,55.848999977111816,learn,60000.0,Tue Feb 24 2026 14:45:23 GMT-0600 (Central Standard Time),754104.0999999996,A,train,O,n,289,1,3429.5999999996275,750674.5,7746,WL,A,15.0
5,56.748000144958496,learn,60000.0,Tue Feb 24 2026 14:45:23 GMT-0600 (Central Standard Time),755003.5,A,trainenter,O,enter,885,1,4329.0,750674.5,7746,WL,A,15.0
6,1.9660000801086426,distr,58033.99991989136,Tue Feb 24 2026 14:45:23 GMT-0600 (Central Standard Time),837794.0,B,b,O,b,1952,1,1966.0,835828.0,7746,WL,A,1.0
6,2.1490001678466797,distr,57850.99983215332,Tue Feb 24 2026 14:45:23 GMT-0600 (Central Standard Time),837977.0999999996,B,bo,O,o,180,1,2149.0999999996275,835828.0,7746,WL,A,1.0
6,3.117000102996826,distr,56882.999897003174,Tue Feb 24 2026 14:45:23 GMT-0600 (Central Standard Time),838944.7999999998,B,bot,O,t,963,1,3116.7999999998137,835828.0,7746,WL,A,1.0
6,3.7990000247955322,distr,56200.99997520447,Tue Feb 24 2026 14:45:23 GMT-0600 (Central Standard Time),839626.5999999996,B,bott,O,t,667,1,3798.5999999996275,835828.0,7746,WL,A,1.0
6,4.233999967575073,distr,55766.00003242493,Tue Feb 24 2026 14:45:23 GMT-0600 (Central Standard Time),840061.9000000004,B,bottl,O,l,418,1,4233.9000000003725,835828.0,7746,WL,A,1.0
6,4.565999984741211,distr,55434.00001525879,Tue Feb 24 2026 14:45:23 GMT-0600 (Central Standard Time),840394.2999999998,B,bottle,O,e,327,1,4566.299999999814,835828.0,7746,WL,A,1.0
6,4.898000001907349,distr,55101.99999809265,Tue Feb 24 2026 14:45:23 GMT-0600 (Central Standard Time),840725.7000000002,B,bottleenter,O,enter,321,1,4897.700000000186,835828.0,7746,WL,A,1.0
6,5.498000144958496,distr,54501.999855041504,Tue Feb 24 2026 14:45:23 GMT-0600 (Central Standard Time),841326.0,B,s,O,s,592,1,600.0999999996275,840725.9000000004,7746,WL,A,2.0
6,5.648000001907349,distr,54351.99999809265,Tue Feb 24 2026 14:45:23 GMT-0600 (Central Standard Time),841476.2999999998,B,sh,O,h,135,1,750.3999999994412,840725.9000000004,7746,WL,A,2.0
6,6.04800009727478,distr,53951.99990272522,Tue Feb 24 2026 14:45:23 GMT-0600 (Central Standard Time),841875.5,B,she,O,e,394,1,1149.5999999996275,840725.9000000004,7746,WL,A,2.0
6,6.266000032424927,distr,53733.99996757507,Tue Feb 24 2026 14:45:23 GMT-0600 (Central Standard Time),842094.4000000004,B,shee,O,e,203,1,1368.5,840725.9000000004,7746,WL,A,2.0
6,6.514000177383423,distr,53485.99982261658,Tue Feb 24 2026 14:45:23 GMT-0600 (Central Standard Time),842342.4000000004,B,sheep,O,p,238,1,1616.5,840725.9000000004,7746,WL,A,2.0
6,6.913000106811523,distr,53086.99989318848,Tue Feb 24 2026 14:45:23 GMT-0600 (Central Standard Time),842741.2999999998,B,sheepenter,O,enter,381,1,2015.3999999994412,840725.9000000004,7746,WL,A,2.0
6,7.499000072479248,distr,52500.99992752075,Tue Feb 24 2026 14:45:23 GMT-0600 (Central Standard Time),843326.9000000004,B,c,O,c,575,1,585.3000000007451,842741.5999999996,7746,WL,A,3.0
6,7.633000135421753,distr,52366.99986457825,Tue Feb 24 2026 14:45:23 GMT-0600 (Central Standard Time),843461.2999999998,B,ch,O,h,118,1,719.7000000001863,842741.5999999996,7746,WL,A,3.0
6,7.7820000648498535,distr,52217.99993515015,Tue Feb 24 2026 14:45:23 GMT-0600 (Central Standard Time),843610.5,B,cha,O,a,144,1,868.9000000003725,842741.5999999996,7746,WL,A,3.0
6,7.930000066757202,distr,52069.9999332428,Tue Feb 24 2026 14:45:23 GMT-0600 (Central Standard Time),843757.5,B,chai,O,i,129,1,1015.9000000003725,842741.5999999996,7746,WL,A,3.0
6,8.136000156402588,distr,51863.99984359741,Tue Feb 24 2026 14:45:23 GMT-0600 (Central Standard Time),843963.5999999996,B,chair,O,r,191,1,1222.0,842741.5999999996,7746,WL,A,3.0
6,8.365000009536743,distr,51634.99999046326,Tue Feb 24 2026 14:45:23 GMT-0600 (Central Standard Time),844192.7000000002,B,chairenter,O,enter,210,1,1451.1000000005588,842741.5999999996,7746,WL,A,3.0
6,11.86300015449524,distr,48136.99984550476,Tue Feb 24 2026 14:45:23 GMT-0600 (Central Standard Time),847691.0,B,p,O,p,3479,1,3498.0,844193.0,7746,WL,A,4.0
6,12.212000131607056,distr,47787.999868392944,Tue Feb 24 2026 14:45:23 GMT-0600 (Central Standard Time),848040.5,B,po,O,o,338,1,3847.5,844193.0,7746,WL,A,4.0
6,12.430000066757202,distr,47569.9999332428,Tue Feb 24 2026 14:45:23 GMT-0600 (Central Standard Time),848258.5,B,poo,O,o,204,1,4065.5,844193.0,7746,WL,A,4.0
6,12.713000059127808,distr,47286.99994087219,Tue Feb 24 2026 14:45:23 GMT-0600 (Central Standard Time),848541.7999999998,B,pool,O,l,265,1,4348.799999999814,844193.0,7746,WL,A,4.0
6,12.979000091552734,distr,47020.999908447266,Tue Feb 24 2026 14:45:23 GMT-0600 (Central Standard Time),848807.0,B,poolenter,O,enter,252,1,4614.0,844193.0,7746,WL,A,4.0
6,14.944000005722046,distr,45055.999994277954,Tue Feb 24 2026 14:45:23 GMT-0600 (Central Standard Time),850772.0999999996,B,p,O,p,1956,1,1964.7999999998137,848807.2999999998,7746,WL,A,5.0
6,15.097000122070312,distr,44902.99987792969,Tue Feb 24 2026 14:45:23 GMT-0600 (Central Standard Time),850924.7999999998,B,pe,O,e,136,1,2117.5,848807.2999999998,7746,WL,A,5.0
6,15.296000003814697,distr,44703.9999961853,Tue Feb 24 2026 14:45:23 GMT-0600 (Central Standard Time),851123.9000000004,B,pea,O,a,192,1,2316.600000000559,848807.2999999998,7746,WL,A,5.0
6,15.59500002861023,distr,44404.99997138977,Tue Feb 24 2026 14:45:23 GMT-0600 (Central Standard Time),851423.2000000002,B,peac,O,c,279,1,2615.9000000003725,848807.2999999998,7746,WL,A,5.0
6,15.67900013923645,distr,44320.99986076355,Tue Feb 24 2026 14:45:23 GMT-0600 (Central Standard Time),851507.0,B,peach,O,h,79,1,2699.7000000001863,848807.2999999998,7746,WL,A,5.0
6,15.944000005722046,distr,44055.999994277954,Tue Feb 24 2026 14:45:23 GMT-0600 (Central Standard Time),851772.5999999996,B,peachenter,O,enter,249,1,2965.2999999998137,848807.2999999998,7746,WL,A,5.0
6,21.045000076293945,distr,38954.999923706055,Tue Feb 24 2026 14:45:23 GMT-0600 (Central Standard Time),856873.0999999996,B,c,O,c,5088,1,5100.299999999814,851772.7999999998,7746,WL,A,6.0
6,21.212000131607056,distr,38787.999868392944,Tue Feb 24 2026 14:45:23 GMT-0600 (Central Standard Time),857040.0,B,co,O,o,156,1,5267.200000000186,851772.7999999998,7746,WL,A,6.0
6,21.343000173568726,distr,38656.999826431274,Tue Feb 24 2026 14:45:23 GMT-0600 (Central Standard Time),857171.0,B,coa,O,a,117,1,5398.200000000186,851772.7999999998,7746,WL,A,6.0
6,21.60800004005432,distr,38391.99995994568,Tue Feb 24 2026 14:45:23 GMT-0600 (Central Standard Time),857436.4000000004,B,coat,O,t,249,1,5663.600000000559,851772.7999999998,7746,WL,A,6.0
6,21.825000047683716,distr,38174.999952316284,Tue Feb 24 2026 14:45:23 GMT-0600 (Central Standard Time),857653.0999999996,B,coatenter,O,enter,200,1,5880.299999999814,851772.7999999998,7746,WL,A,6.0
6,23.493000030517578,distr,36506.99996948242,Tue Feb 24 2026 14:45:23 GMT-0600 (Central Standard Time),859321.0,B,c,O,c,1657,1,1667.7000000001863,857653.2999999998,7746,WL,A,7.0
6,23.575000047683716,distr,36424.999952316284,Tue Feb 24 2026 14:45:23 GMT-0600 (Central Standard Time),859403.4000000004,B,co,O,o,77,1,1750.1000000005588,857653.2999999998,7746,WL,A,7.0
6,23.692000150680542,distr,36307.99984931946,Tue Feb 24 2026 14:45:23 GMT-0600 (Central Standard Time),859520.0999999996,B,cou,O,u,103,1,1866.7999999998137,857653.2999999998,7746,WL,A,7.0
6,23.992000102996826,distr,36007.999897003174,Tue Feb 24 2026 14:45:23 GMT-0600 (Central Standard Time),859819.9000000004,B,coun,O,n,293,1,2166.600000000559,857653.2999999998,7746,WL,A,7.0
6,24.759000062942505,distr,35240.999937057495,Tue Feb 24 2026 14:45:23 GMT-0600 (Central Standard Time),860587.2000000002,B,count,O,t,748,1,2933.9000000003725,857653.2999999998,7746,WL,A,7.0
6,25.02500009536743,distr,34974.99990463257,Tue Feb 24 2026 14:45:23 GMT-0600 (Central Standard Time),860853.7999999998,B,county,O,y,249,1,3200.5,857653.2999999998,7746,WL,A,7.0
6,25.325000047683716,distr,34674.999952316284,Tue Feb 24 2026 14:45:23 GMT-0600 (Central Standard Time),861153.0999999996,B,countyenter,O,enter,287,1,3499.7999999998137,857653.2999999998,7746,WL,A,7.0
6,32.355000019073486,distr,27644.999980926514,Tue Feb 24 2026 14:45:23 GMT-0600 (Central Standard Time),868182.7999999998,B,j,O,j,7019,1,7029.5,861153.2999999998,7746,WL,A,8.0
6,32.6710000038147,distr,27328.999996185303,Tue Feb 24 2026 14:45:23 GMT-0600 (Central Standard Time),868499.2999999998,B,ju,O,u,310,1,7346.0,861153.2999999998,7746,WL,A,8.0
6,32.9210000038147,distr,27078.999996185303,Tue Feb 24 2026 14:45:23 GMT-0600 (Central Standard Time),868749.2999999998,B,jud,O,d,234,1,7596.0,861153.2999999998,7746,WL,A,8.0
6,33.205000162124634,distr,26794.999837875366,Tue Feb 24 2026 14:45:23 GMT-0600 (Central Standard Time),869032.7999999998,B,judg,O,g,281,1,7879.5,861153.2999999998,7746,WL,A,8.0
6,33.455000162124634,distr,26544.999837875366,Tue Feb 24 2026 14:45:23 GMT-0600 (Central Standard Time),869282.9000000004,B,judge,O,e,244,1,8129.600000000559,861153.2999999998,7746,WL,A,8.0
6,33.705000162124634,distr,26294.999837875366,Tue Feb 24 2026 14:45:23 GMT-0600 (Central Standard Time),869533.2000000002,B,judgeenter,O,enter,242,1,8379.900000000373,861153.2999999998,7746,WL,A,8.0
6,34.32100009918213,distr,25678.99990081787,Tue Feb 24 2026 14:45:23 GMT-0600 (Central Standard Time),870149.2000000002,B,g,O,g,600,1,615.7999999998137,869533.4000000004,7746,WL,A,9.0
6,34.65499997138977,distr,25345.00002861023,Tue Feb 24 2026 14:45:23 GMT-0600 (Central Standard Time),870483.7999999998,B,gr,O,r,321,1,950.3999999994412,869533.4000000004,7746,WL,A,9.0
6,34.92200016975403,distr,25077.99983024597,Tue Feb 24 2026 14:45:23 GMT-0600 (Central Standard Time),870750.4000000004,B,gra,O,a,248,1,1217.0,869533.4000000004,7746,WL,A,9.0
6,35.40700006484985,distr,24592.999935150146,Tue Feb 24 2026 14:45:23 GMT-0600 (Central Standard Time),871235.5,B,gran,O,n,479,1,1702.0999999996275,869533.4000000004,7746,WL,A,9.0
6,35.58800005912781,distr,24411.999940872192,Tue Feb 24 2026 14:45:23 GMT-0600 (Central Standard Time),871416.4000000004,B,grant,O,t,169,1,1883.0,869533.4000000004,7746,WL,A,9.0
6,35.7720000743866,distr,24227.999925613403,Tue Feb 24 2026 14:45:23 GMT-0600 (Central Standard Time),871600.0999999996,B,grantenter,O,enter,180,1,2066.699999999255,869533.4000000004,7746,WL,A,9.0
6,44.33500003814697,distr,15664.999961853027,Tue Feb 24 2026 14:45:23 GMT-0600 (Central Standard Time),880163.4000000004,B,enter,O,enter,8560,1,8563.100000000559,871600.2999999998,7746,WL,A,10.0
6,54.18300008773804,distr,5816.999912261963,Tue Feb 24 2026 14:45:23 GMT-0600 (Central Standard Time),890011.0,B,enter,O,enter,9842,1,9847.200000000186,880163.7999999998,7746,WL,A,11.0
6,54.66600012779236,distr,5333.999872207642,Tue Feb 24 2026 14:45:23 GMT-0600 (Central Standard Time),890493.7999999998,B,enter,O,enter,473,1,482.5,890011.2999999998,7746,WL,A,12.0
6,55.22099995613098,distr,4779.000043869019,Tue Feb 24 2026 14:45:23 GMT-0600 (Central Standard Time),891048.7000000002,B,enter,O,enter,534,1,554.6000000005588,890494.0999999996,7746,WL,A,13.0
6,55.64800000190735,distr,4351.999998092651,Tue Feb 24 2026 14:45:23 GMT-0600 (Central Standard Time),891476.7000000002,B,enter,O,enter,416,1,427.20000000018626,891049.5,7746,WL,A,14.0
6,56.21600008010864,distr,3783.9999198913574,Tue Feb 24 2026 14:45:23 GMT-0600 (Central Standard Time),892044.0,B,enter,O,enter,545,1,567.0,891477.0,7746,WL,A,15.0
7,12.230000019073486,immed,47769.999980926514,Tue Feb 24 2026 14:45:23 GMT-0600 (Central Standard Time),918885.7999999998,A,a,O,a,12210,1,12230.200000000186,906655.5999999996,7746,WL,A,1.0
7,12.412999868392944,immed,47587.000131607056,Tue Feb 24 2026 14:45:23 GMT-0600 (Central Standard Time),919068.0999999996,A,ap,O,p,161,1,12412.5,906655.5999999996,7746,WL,A,1.0
7,12.562999963760376,immed,47437.000036239624,Tue Feb 24 2026 14:45:23 GMT-0600 (Central Standard Time),919218.5999999996,A,app,O,p,143,1,12563.0,906655.5999999996,7746,WL,A,1.0
7,12.77899980545044,immed,47221.00019454956,Tue Feb 24 2026 14:45:23 GMT-0600 (Central Standard Time),919435.0,A,appl,O,l,208,1,12779.400000000373,906655.5999999996,7746,WL,A,1.0
7,12.962999820709229,immed,47037.00017929077,Tue Feb 24 2026 14:45:23 GMT-0600 (Central Standard Time),919618.9000000004,A,apple,O,e,168,1,12963.300000000745,906655.5999999996,7746,WL,A,1.0
7,13.244999885559082,immed,46755.00011444092,Tue Feb 24 2026 14:45:23 GMT-0600 (Central Standard Time),919900.9000000004,A,appleenter,O,enter,273,1,13245.300000000745,906655.5999999996,7746,WL,A,1.0
7,14.211999893188477,immed,45788.00010681152,Tue Feb 24 2026 14:45:23 GMT-0600 (Central Standard Time),920867.4000000004,A,b,O,b,952,1,966.3000000007451,919901.0999999996,7746,WL,A,2.0
7,14.429999828338623,immed,45570.00017166138,Tue Feb 24 2026 14:45:23 GMT-0600 (Central Standard Time),921085.4000000004,A,bo,O,o,201,1,1184.300000000745,919901.0999999996,7746,WL,A,2.0
7,14.562999963760376,immed,45437.000036239624,Tue Feb 24 2026 14:45:23 GMT-0600 (Central Standard Time),921218.9000000004,A,boo,O,o,126,1,1317.800000000745,919901.0999999996,7746,WL,A,2.0
7,14.860999822616577,immed,45139.00017738342,Tue Feb 24 2026 14:45:23 GMT-0600 (Central Standard Time),921516.9000000004,A,book,O,k,279,1,1615.800000000745,919901.0999999996,7746,WL,A,2.0
7,15.13099980354309,immed,44869.00019645691,Tue Feb 24 2026 14:45:23 GMT-0600 (Central Standard Time),921786.2000000002,A,bookenter,O,enter,264,1,1885.1000000005588,919901.0999999996,7746,WL,A,2.0
7,15.91100001335144,immed,44088.99998664856,Tue Feb 24 2026 14:45:23 GMT-0600 (Central Standard Time),922566.0999999996,A,b,O,b,762,1,779.7999999998137,921786.2999999998,7746,WL,A,3.0
7,16.027999877929688,immed,43972.00012207031,Tue Feb 24 2026 14:45:23 GMT-0600 (Central Standard Time),922683.5999999996,A,bu,O,u,100,1,897.2999999998137,921786.2999999998,7746,WL,A,3.0
7,16.277999877929688,immed,43722.00012207031,Tue Feb 24 2026 14:45:23 GMT-0600 (Central Standard Time),922933.7000000002,A,but,O,t,233,1,1147.4000000003725,921786.2999999998,7746,WL,A,3.0
7,16.527999877929688,immed,43472.00012207031,Tue Feb 24 2026 14:45:23 GMT-0600 (Central Standard Time),923183.5999999996,A,butt,O,t,230,1,1397.2999999998137,921786.2999999998,7746,WL,A,3.0
7,16.76099991798401,immed,43239.00008201599,Tue Feb 24 2026 14:45:23 GMT-0600 (Central Standard Time),923417.0,A,butto,O,o,219,1,1630.7000000001863,921786.2999999998,7746,WL,A,3.0
7,17.07799983024597,immed,42922.00016975403,Tue Feb 24 2026 14:45:23 GMT-0600 (Central Standard Time),923733.2999999998,A,button,O,n,299,1,1947.0,921786.2999999998,7746,WL,A,3.0
7,17.32799983024597,immed,42672.00016975403,Tue Feb 24 2026 14:45:23 GMT-0600 (Central Standard Time),923983.0999999996,A,buttonenter,O,enter,236,1,2196.7999999998137,921786.2999999998,7746,WL,A,3.0
7,17.812000036239624,immed,42187.999963760376,Tue Feb 24 2026 14:45:23 GMT-0600 (Central Standard Time),924467.7000000002,A,c,O,c,477,1,484.40000000037253,923983.2999999998,7746,WL,A,4.0
7,17.91100001335144,immed,42088.99998664856,Tue Feb 24 2026 14:45:23 GMT-0600 (Central Standard Time),924566.2000000002,A,ch,O,h,89,1,582.9000000003725,923983.2999999998,7746,WL,A,4.0
7,18.128999948501587,immed,41871.00005149841,Tue Feb 24 2026 14:45:23 GMT-0600 (Central Standard Time),924784.4000000004,A,chi,O,i,204,1,801.1000000005588,923983.2999999998,7746,WL,A,4.0
7,18.42799997329712,immed,41572.00002670288,Tue Feb 24 2026 14:45:23 GMT-0600 (Central Standard Time),925083.7000000002,A,chim,O,m,293,1,1100.4000000003725,923983.2999999998,7746,WL,A,4.0
7,18.960000038146973,immed,41039.99996185303,Tue Feb 24 2026 14:45:23 GMT-0600 (Central Standard Time),925615.7999999998,A,chimn,O,n,521,1,1632.5,923983.2999999998,7746,WL,A,4.0
7,19.24399995803833,immed,40756.00004196167,Tue Feb 24 2026 14:45:23 GMT-0600 (Central Standard Time),925899.5,A,chimne,O,e,267,1,1916.2000000001863,923983.2999999998,7746,WL,A,4.0
7,19.376999855041504,immed,40623.000144958496,Tue Feb 24 2026 14:45:23 GMT-0600 (Central Standard Time),926032.2000000002,A,chimney,O,y,113,1,2048.9000000003725,923983.2999999998,7746,WL,A,4.0
7,19.72699999809265,immed,40273.00000190735,Tue Feb 24 2026 14:45:23 GMT-0600 (Central Standard Time),926382.0999999996,A,chimneyenter,O,enter,337,1,2398.7999999998137,923983.2999999998,7746,WL,A,4.0
7,24.358999967575073,immed,35641.00003242493,Tue Feb 24 2026 14:45:23 GMT-0600 (Central Standard Time),931015.0,A,f,O,f,4614,1,4632.5999999996275,926382.4000000004,7746,WL,A,5.0
7,24.507999897003174,immed,35492.000102996826,Tue Feb 24 2026 14:45:23 GMT-0600 (Central Standard Time),931163.7000000002,A,fi,O,i,135,1,4781.299999999814,926382.4000000004,7746,WL,A,5.0
7,24.743000030517578,immed,35256.99996948242,Tue Feb 24 2026 14:45:23 GMT-0600 (Central Standard Time),931398.9000000004,A,fin,O,n,225,1,5016.5,926382.4000000004,7746,WL,A,5.0
7,24.824999809265137,immed,35175.00019073486,Tue Feb 24 2026 14:45:23 GMT-0600 (Central Standard Time),931480.5,A,fing,O,g,78,1,5098.0999999996275,926382.4000000004,7746,WL,A,5.0
7,25.024999856948853,immed,34975.00014305115,Tue Feb 24 2026 14:45:23 GMT-0600 (Central Standard Time),931680.9000000004,A,finge,O,e,196,1,5298.5,926382.4000000004,7746,WL,A,5.0
7,25.125999927520752,immed,34874.00007247925,Tue Feb 24 2026 14:45:23 GMT-0600 (Central Standard Time),931781.0999999996,A,finger,O,r,83,1,5398.699999999255,926382.4000000004,7746,WL,A,5.0
7,25.292999982833862,immed,34707.00001716614,Tue Feb 24 2026 14:45:23 GMT-0600 (Central Standard Time),931948.0,A,fingerenter,O,enter,144,1,5565.5999999996275,926382.4000000004,7746,WL,A,5.0
7,25.79099988937378,immed,34209.00011062622,Tue Feb 24 2026 14:45:23 GMT-0600 (Central Standard Time),932446.5,A,f,O,f,488,1,498.20000000018626,931948.2999999998,7746,WL,A,6.0
7,25.941999912261963,immed,34058.00008773804,Tue Feb 24 2026 14:45:23 GMT-0600 (Central Standard Time),932597.2000000002,A,fl,O,l,142,1,648.9000000003725,931948.2999999998,7746,WL,A,6.0
7,26.174999952316284,immed,33825.000047683716,Tue Feb 24 2026 14:45:23 GMT-0600 (Central Standard Time),932830.9000000004,A,flo,O,o,223,1,882.6000000005588,931948.2999999998,7746,WL,A,6.0
7,26.29199981689453,immed,33708.00018310547,Tue Feb 24 2026 14:45:23 GMT-0600 (Central Standard Time),932947.2999999998,A,flow,O,w,101,1,999.0,931948.2999999998,7746,WL,A,6.0
7,26.54099988937378,immed,33459.00011062622,Tue Feb 24 2026 14:45:23 GMT-0600 (Central Standard Time),933196.4000000004,A,flowe,O,e,240,1,1248.1000000005588,931948.2999999998,7746,WL,A,6.0
7,26.62399983406067,immed,33376.00016593933,Tue Feb 24 2026 14:45:23 GMT-0600 (Central Standard Time),933279.5999999996,A,flower,O,r,72,1,1331.2999999998137,931948.2999999998,7746,WL,A,6.0
7,27.056999921798706,immed,32943.000078201294,Tue Feb 24 2026 14:45:23 GMT-0600 (Central Standard Time),933712.7000000002,A,flowerenter,O,enter,426,1,1764.4000000003725,931948.2999999998,7746,WL,A,6.0
7,27.95799994468689,immed,32042.00005531311,Tue Feb 24 2026 14:45:23 GMT-0600 (Central Standard Time),934613.7000000002,A,g,O,g,893,1,900.9000000003725,933712.7999999998,7746,WL,A,7.0
7,28.090999841690063,immed,31909.000158309937,Tue Feb 24 2026 14:45:23 GMT-0600 (Central Standard Time),934746.0,A,go,O,o,126,1,1033.2000000001863,933712.7999999998,7746,WL,A,7.0
7,28.323999881744385,immed,31676.000118255615,Tue Feb 24 2026 14:45:23 GMT-0600 (Central Standard Time),934979.2999999998,A,gol,O,l,228,1,1266.5,933712.7999999998,7746,WL,A,7.0
7,28.490999937057495,immed,31509.000062942505,Tue Feb 24 2026 14:45:23 GMT-0600 (Central Standard Time),935147.0,A,gold,O,d,161,1,1434.2000000001863,933712.7999999998,7746,WL,A,7.0
7,28.674999952316284,immed,31325.000047683716,Tue Feb 24 2026 14:45:23 GMT-0600 (Central Standard Time),935330.9000000004,A,goldenter,O,enter,168,1,1618.1000000005588,933712.7999999998,7746,WL,A,7.0
7,29.240999937057495,immed,30759.000062942505,Tue Feb 24 2026 14:45:23 GMT-0600 (Central Standard Time),935896.7999999998,A,h,O,h,553,1,565.7000000001863,935331.0999999996,7746,WL,A,8.0
7,29.85699987411499,immed,30143.00012588501,Tue Feb 24 2026 14:45:23 GMT-0600 (Central Standard Time),936513.0,A,ha,O,a,597,1,1181.9000000003725,935331.0999999996,7746,WL,A,8.0
7,30.008999824523926,immed,29991.000175476074,Tue Feb 24 2026 14:45:23 GMT-0600 (Central Standard Time),936664.5999999996,A,har,O,r,130,1,1333.5,935331.0999999996,7746,WL,A,8.0
7,30.289999961853027,immed,29710.000038146973,Tue Feb 24 2026 14:45:23 GMT-0600 (Central Standard Time),936945.9000000004,A,harp,O,p,264,1,1614.800000000745,935331.0999999996,7746,WL,A,8.0
7,31.121999979019165,immed,28878.000020980835,Tue Feb 24 2026 14:45:23 GMT-0600 (Central Standard Time),937777.5,A,harpenter,O,enter,818,1,2446.4000000003725,935331.0999999996,7746,WL,A,8.0
7,32.35599994659424,immed,27644.00005340576,Tue Feb 24 2026 14:45:23 GMT-0600 (Central Standard Time),939011.0999999996,A,k,O,k,1227,1,1233.2999999998137,937777.7999999998,7746,WL,A,9.0
7,32.54099988937378,immed,27459.00011062622,Tue Feb 24 2026 14:45:23 GMT-0600 (Central Standard Time),939196.5,A,ke,O,e,177,1,1418.7000000001863,937777.7999999998,7746,WL,A,9.0
7,32.65599989891052,immed,27344.000101089478,Tue Feb 24 2026 14:45:23 GMT-0600 (Central Standard Time),939311.7000000002,A,key,O,y,102,1,1533.9000000003725,937777.7999999998,7746,WL,A,9.0
7,34.138999938964844,immed,25861.000061035156,Tue Feb 24 2026 14:45:23 GMT-0600 (Central Standard Time),940794.2000000002,A,keyenter,O,enter,1478,1,3016.4000000003725,937777.7999999998,7746,WL,A,9.0
7,35.47099995613098,immed,24529.00004386902,Tue Feb 24 2026 14:45:23 GMT-0600 (Central Standard Time),942127.0,A,l,O,l,1316,1,1332.7000000001863,940794.2999999998,7746,WL,A,10.0
7,35.70700001716614,immed,24292.999982833862,Tue Feb 24 2026 14:45:23 GMT-0600 (Central Standard Time),942362.0999999996,A,lo,O,o,229,1,1567.7999999998137,940794.2999999998,7746,WL,A,10.0
7,35.97199988365173,immed,24028.000116348267,Tue Feb 24 2026 14:45:23 GMT-0600 (Central Standard Time),942627.7999999998,A,log,O,g,243,1,1833.5,940794.2999999998,7746,WL,A,10.0
7,37.08799982070923,immed,22912.00017929077,Tue Feb 24 2026 14:45:23 GMT-0600 (Central Standard Time),943743.5999999996,A,logenter,O,enter,1104,1,2949.2999999998137,940794.2999999998,7746,WL,A,10.0
7,43.33500003814697,immed,16664.999961853027,Tue Feb 24 2026 14:45:23 GMT-0600 (Central Standard Time),949990.5,A,r,O,r,6228,1,6246.5999999996275,943743.9000000004,7746,WL,A,11.0
7,43.58699989318848,immed,16413.000106811523,Tue Feb 24 2026 14:45:23 GMT-0600 (Central Standard Time),950242.5999999996,A,ra,O,a,247,1,6498.699999999255,943743.9000000004,7746,WL,A,11.0
7,43.769999980926514,immed,16230.000019073486,Tue Feb 24 2026 14:45:23 GMT-0600 (Central Standard Time),950425.0999999996,A,rat,O,t,168,1,6681.199999999255,943743.9000000004,7746,WL,A,11.0
7,44.70199990272522,immed,15298.00009727478,Tue Feb 24 2026 14:45:23 GMT-0600 (Central Standard Time),951357.9000000004,A,ratt,O,t,916,1,7614.0,943743.9000000004,7746,WL,A,11.0
7,44.93499994277954,immed,15065.000057220459,Tue Feb 24 2026 14:45:23 GMT-0600 (Central Standard Time),951590.7000000002,A,rattl,O,l,214,1,7846.799999999814,943743.9000000004,7746,WL,A,11.0
7,45.11899995803833,immed,14881.00004196167,Tue Feb 24 2026 14:45:23 GMT-0600 (Central Standard Time),951774.0999999996,A,rattle,O,e,172,1,8030.199999999255,943743.9000000004,7746,WL,A,11.0
7,46.08799982070923,immed,13912.000179290771,Tue Feb 24 2026 14:45:23 GMT-0600 (Central Standard Time),952743.2000000002,A,rattleenter,O,enter,959,1,8999.299999999814,943743.9000000004,7746,WL,A,11.0
7,46.651000022888184,immed,13348.999977111816,Tue Feb 24 2026 14:45:23 GMT-0600 (Central Standard Time),953306.4000000004,A,r,O,r,558,1,563.0,952743.4000000004,7746,WL,A,12.0
7,46.76799988746643,immed,13232.00011253357,Tue Feb 24 2026 14:45:23 GMT-0600 (Central Standard Time),953423.9000000004,A,ru,O,u,107,1,680.5,952743.4000000004,7746,WL,A,12.0
7,46.98599982261658,immed,13014.000177383423,Tue Feb 24 2026 14:45:23 GMT-0600 (Central Standard Time),953641.2000000002,A,rug,O,g,205,1,897.7999999998137,952743.4000000004,7746,WL,A,12.0
7,47.25099992752075,immed,12749.000072479248,Tue Feb 24 2026 14:45:23 GMT-0600 (Central Standard Time),953906.7999999998,A,rugenter,O,enter,260,1,1163.3999999994412,952743.4000000004,7746,WL,A,12.0
7,48.13599991798401,immed,11864.000082015991,Tue Feb 24 2026 14:45:23 GMT-0600 (Central Standard Time),954791.5999999996,A,s,O,s,866,1,884.5,953907.0999999996,7746,WL,A,13.0
7,48.35199999809265,immed,11648.000001907349,Tue Feb 24 2026 14:45:23 GMT-0600 (Central Standard Time),955007.2000000002,A,sa,O,a,204,1,1100.1000000005588,953907.0999999996,7746,WL,A,13.0
7,48.48399996757507,immed,11516.000032424927,Tue Feb 24 2026 14:45:23 GMT-0600 (Central Standard Time),955139.2000000002,A,sal,O,l,127,1,1232.1000000005588,953907.0999999996,7746,WL,A,13.0
7,48.73399996757507,immed,11266.000032424927,Tue Feb 24 2026 14:45:23 GMT-0600 (Central Standard Time),955389.9000000004,A,salt,O,t,232,1,1482.800000000745,953907.0999999996,7746,WL,A,13.0
7,48.96799993515015,immed,11032.000064849854,Tue Feb 24 2026 14:45:23 GMT-0600 (Central Standard Time),955623.7999999998,A,saltenter,O,enter,222,1,1716.7000000001863,953907.0999999996,7746,WL,A,13.0
7,49.39999985694885,immed,10600.000143051147,Tue Feb 24 2026 14:45:23 GMT-0600 (Central Standard Time),956055.9000000004,A,t,O,t,412,1,431.90000000037253,955624.0,7746,WL,A,14.0
7,49.68400001525879,immed,10315.999984741211,Tue Feb 24 2026 14:45:23 GMT-0600 (Central Standard Time),956339.0,A,tr,O,r,270,1,715.0,955624.0,7746,WL,A,14.0
7,49.93599987030029,immed,10064.000129699707,Tue Feb 24 2026 14:45:23 GMT-0600 (Central Standard Time),956591.0,A,tra,O,a,232,1,967.0,955624.0,7746,WL,A,14.0
7,50.06699991226196,immed,9933.000087738037,Tue Feb 24 2026 14:45:23 GMT-0600 (Central Standard Time),956722.9000000004,A,trai,O,i,117,1,1098.9000000003725,955624.0,7746,WL,A,14.0
7,50.28399991989136,immed,9716.000080108643,Tue Feb 24 2026 14:45:23 GMT-0600 (Central Standard Time),956939.5,A,train,O,n,202,1,1315.5,955624.0,7746,WL,A,14.0
7,50.45099997520447,immed,9549.000024795532,Tue Feb 24 2026 14:45:23 GMT-0600 (Central Standard Time),957106.4000000004,A,trainenter,O,enter,161,1,1482.4000000003725,955624.0,7746,WL,A,14.0
7,56.514999866485596,immed,3485.0001335144043,Tue Feb 24 2026 14:45:23 GMT-0600 (Central Standard Time),963170.7999999998,A,enter,O,enter,6050,1,6064.0999999996275,957106.7000000002,7746,WL,A,15.0
