acc_sum,block,block_c,change,condition,correct,correct_response,datetime,endtime,face,project,response,response_time,row_sel,session_number,start_end,starttime,subject_id,task,task_vers,trial
0,prac,1,,1-Back,,,Thu Dec 04 2025 09:52:09 GMT-0600 (Central Standard Time),,005_o_f_d_a.png,O,space,1994,1,1,,,7706,VNB,B,0
0,prac,1,0.0,1-Back,0.0,m,Thu Dec 04 2025 09:52:09 GMT-0600 (Central Standard Time),140741.0,020_y_f_n_a.png,O,None,2007,2,1,2840.0,137901.0,7706,VNB,B,1
1,prac,1,0.0,1-Back,1.0,m,Thu Dec 04 2025 09:52:09 GMT-0600 (Central Standard Time),142758.0,007_m_m_h_a.png,O,m,1153,3,1,2009.300000011921,140748.69999998808,7706,VNB,B,2
2,prac,1,0.0,1-Back,1.0,m,Thu Dec 04 2025 09:52:09 GMT-0600 (Central Standard Time),144874.59999996424,016_y_m_d_a.png,O,m,1256,4,1,2110.399999976158,142764.19999998808,7706,VNB,B,3
3,prac,1,0.0,1-Back,1.0,m,Thu Dec 04 2025 09:52:09 GMT-0600 (Central Standard Time),146591.30000001192,005_o_f_n_a.png,O,m,863,5,1,1707.4000000357628,144883.89999997616,7706,VNB,B,4
3,prac,1,1.0,1-Back,0.0,z,Thu Dec 04 2025 09:52:09 GMT-0600 (Central Standard Time),148638.80000001192,016_y_m_n_a.png,O,m,1175,6,1,2041.1000000238419,146597.69999998808,7706,VNB,B,5
4,prac,1,0.0,1-Back,1.0,m,Thu Dec 04 2025 09:52:09 GMT-0600 (Central Standard Time),150705.5,004_o_m_h_a.png,O,m,1204,7,1,2053.800000011921,148651.69999998808,7706,VNB,B,6
4,prac,1,0.0,1-Back,0.0,m,Thu Dec 04 2025 09:52:09 GMT-0600 (Central Standard Time),152470.0,011_m_f_d_a.png,O,z,900,8,1,1758.800000011921,150711.19999998808,7706,VNB,B,7
5,prac,1,1.0,1-Back,1.0,z,Thu Dec 04 2025 09:52:09 GMT-0600 (Central Standard Time),154502.89999997616,020_y_f_d_a.png,O,z,1185,9,1,2027.5,152475.39999997616,7706,VNB,B,8
5,prac,1,0.0,1-Back,0.0,m,Thu Dec 04 2025 09:52:09 GMT-0600 (Central Standard Time),156585.19999998808,007_m_m_n_a.png,O,z,1215,10,1,2073.0,154512.19999998808,7706,VNB,B,9
6,prac,1,0.0,1-Back,1.0,m,Thu Dec 04 2025 09:52:09 GMT-0600 (Central Standard Time),158802.19999998808,005_o_f_h_a.png,O,m,1356,11,1,2210.699999988079,156591.5,7706,VNB,B,10
6,prac,1,0.0,1-Back,0.0,m,Thu Dec 04 2025 09:52:09 GMT-0600 (Central Standard Time),160519.09999996424,016_y_m_d_a.png,O,z,850,12,1,1708.8999999761581,158810.19999998808,7706,VNB,B,11
0,test,1,0.0,1-Back,,,Thu Dec 04 2025 09:52:09 GMT-0600 (Central Standard Time),160519.09999996424,020_y_f_d_a.png,O,space,8503,1,1,1708.8999999761581,158810.19999998808,7706,VNB,B,0
0,test,1,0.0,1-Back,0.0,m,Thu Dec 04 2025 09:52:09 GMT-0600 (Central Standard Time),185659.39999997616,011_m_f_n_a.png,O,z,1045,2,1,2058.899999976158,183600.5,7706,VNB,B,1
1,test,1,0.0,1-Back,1.0,m,Thu Dec 04 2025 09:52:09 GMT-0600 (Central Standard Time),187475.89999997616,004_o_m_h_a.png,O,m,787,3,1,1813.699999988079,185662.19999998808,7706,VNB,B,2
1,test,1,1.0,1-Back,0.0,z,Thu Dec 04 2025 09:52:09 GMT-0600 (Central Standard Time),189292.69999998808,007_m_m_h_a.png,O,m,796,4,1,1813.699999988079,187479.0,7706,VNB,B,3
2,test,1,0.0,1-Back,1.0,m,Thu Dec 04 2025 09:52:09 GMT-0600 (Central Standard Time),191725.80000001192,005_o_f_n_a.png,O,m,1412,5,1,2425.300000011921,189300.5,7706,VNB,B,4
3,test,1,0.0,1-Back,1.0,m,Thu Dec 04 2025 09:52:09 GMT-0600 (Central Standard Time),193840.69999998808,016_y_m_d_a.png,O,m,1084,6,1,2107.600000023842,191733.09999996424,7706,VNB,B,5
4,test,1,1.0,1-Back,1.0,z,Thu Dec 04 2025 09:52:09 GMT-0600 (Central Standard Time),195796.39999997616,011_m_f_d_a.png,O,z,923,7,1,1952.3999999761581,193844.0,7706,VNB,B,6
5,test,1,0.0,1-Back,1.0,m,Thu Dec 04 2025 09:52:09 GMT-0600 (Central Standard Time),197439.5,020_y_f_h_a.png,O,m,618,8,1,1639.199999988079,195800.30000001192,7706,VNB,B,7
5,test,1,0.0,1-Back,0.0,m,Thu Dec 04 2025 09:52:09 GMT-0600 (Central Standard Time),199340.39999997616,004_o_m_n_a.png,O,z,872,9,1,1896.300000011921,197444.09999996424,7706,VNB,B,8
6,test,1,0.0,1-Back,1.0,m,Thu Dec 04 2025 09:52:09 GMT-0600 (Central Standard Time),201605.89999997616,016_y_m_h_a.png,O,m,1244,10,1,2256.099999964237,199349.80000001192,7706,VNB,B,9
7,test,1,0.0,1-Back,1.0,m,Thu Dec 04 2025 09:52:09 GMT-0600 (Central Standard Time),203337.0,004_o_m_d_a.png,O,m,714,11,1,1726.9000000357628,201610.09999996424,7706,VNB,B,10
8,test,1,1.0,1-Back,1.0,z,Thu Dec 04 2025 09:52:09 GMT-0600 (Central Standard Time),205370.30000001192,005_o_f_d_a.png,O,z,1014,12,1,2030.7000000476837,203339.59999996424,7706,VNB,B,11
8,test,1,0.0,1-Back,0.0,m,Thu Dec 04 2025 09:52:09 GMT-0600 (Central Standard Time),207103.59999996424,007_m_m_n_a.png,O,z,701,13,1,1729.5999999642372,205374.0,7706,VNB,B,12
9,test,1,1.0,1-Back,1.0,z,Thu Dec 04 2025 09:52:09 GMT-0600 (Central Standard Time),209202.30000001192,020_y_f_n_a.png,O,z,1080,14,1,2095.100000023842,207107.19999998808,7706,VNB,B,13
10,test,1,0.0,1-Back,1.0,m,Thu Dec 04 2025 09:52:09 GMT-0600 (Central Standard Time),211052.30000001192,011_m_f_h_a.png,O,m,829,15,1,1846.2000000476837,209206.09999996424,7706,VNB,B,14
11,test,1,0.0,1-Back,1.0,m,Thu Dec 04 2025 09:52:09 GMT-0600 (Central Standard Time),212918.69999998808,007_m_m_d_a.png,O,m,835,16,1,1860.5,211058.19999998808,7706,VNB,B,15
11,test,1,0.0,1-Back,0.0,m,Thu Dec 04 2025 09:52:09 GMT-0600 (Central Standard Time),214767.30000001192,016_y_m_n_a.png,O,z,827,17,1,1843.2000000476837,212924.09999996424,7706,VNB,B,16
12,test,1,0.0,1-Back,1.0,m,Thu Dec 04 2025 09:52:09 GMT-0600 (Central Standard Time),217000.5,005_o_f_h_a.png,O,m,1209,18,1,2227.699999988079,214772.80000001192,7706,VNB,B,17
0,test,2,0.0,1-Back,,,Thu Dec 04 2025 09:52:09 GMT-0600 (Central Standard Time),217000.5,016_y_m_n_a.png,O,space,5487,1,1,2227.699999988079,214772.80000001192,7706,VNB,B,0
1,test,2,0.0,1-Back,1.0,m,Thu Dec 04 2025 09:52:09 GMT-0600 (Central Standard Time),226364.0,020_y_f_h_a.png,O,m,821,2,1,1845.9000000357628,224518.09999996424,7706,VNB,B,1
2,test,2,1.0,1-Back,1.0,m,Thu Dec 04 2025 09:52:09 GMT-0600 (Central Standard Time),228479.69999998808,004_o_m_n_a.png,O,m,1092,3,1,2112.199999988079,226367.5,7706,VNB,B,2
2,test,2,0.0,1-Back,0.0,m,Thu Dec 04 2025 09:52:09 GMT-0600 (Central Standard Time),230512.89999997616,011_m_f_d_a.png,O,z,1007,4,1,2029.300000011921,228483.59999996424,7706,VNB,B,3
3,test,2,0.0,1-Back,1.0,z,Thu Dec 04 2025 09:52:09 GMT-0600 (Central Standard Time),232146.19999998808,007_m_m_d_a.png,O,z,601,5,1,1628.6000000238419,230517.59999996424,7706,VNB,B,4
4,test,2,0.0,1-Back,1.0,m,Thu Dec 04 2025 09:52:09 GMT-0600 (Central Standard Time),233844.59999996424,016_y_m_h_a.png,O,m,670,6,1,1695.7999999523163,232148.80000001192,7706,VNB,B,5
4,test,2,1.0,1-Back,0.0,z,Thu Dec 04 2025 09:52:09 GMT-0600 (Central Standard Time),235560.80000001192,005_o_f_h_a.png,O,m,684,7,1,1713.7000000476837,233847.09999996424,7706,VNB,B,6
5,test,2,0.0,1-Back,1.0,m,Thu Dec 04 2025 09:52:09 GMT-0600 (Central Standard Time),237543.89999997616,011_m_f_n_a.png,O,m,959,8,1,1979.699999988079,235564.19999998808,7706,VNB,B,7
6,test,2,0.0,1-Back,1.0,m,Thu Dec 04 2025 09:52:09 GMT-0600 (Central Standard Time),240010.5,020_y_f_d_a.png,O,m,1433,9,1,2463.5,237547.0,7706,VNB,B,8
7,test,2,0.0,1-Back,1.0,m,Thu Dec 04 2025 09:52:09 GMT-0600 (Central Standard Time),241908.19999998808,007_m_m_n_a.png,O,m,878,10,1,1894.6000000238419,240013.59999996424,7706,VNB,B,9
7,test,2,1.0,1-Back,0.0,m,Thu Dec 04 2025 09:52:09 GMT-0600 (Central Standard Time),243542.39999997616,011_m_f_h_a.png,O,z,607,11,1,1630.5999999642372,241911.80000001192,7706,VNB,B,10
8,test,2,0.0,1-Back,1.0,z,Thu Dec 04 2025 09:52:09 GMT-0600 (Central Standard Time),245323.80000001192,004_o_m_h_a.png,O,z,762,12,1,1777.4000000357628,243546.39999997616,7706,VNB,B,11
9,test,2,0.0,1-Back,1.0,m,Thu Dec 04 2025 09:52:09 GMT-0600 (Central Standard Time),247106.80000001192,016_y_m_d_a.png,O,m,755,13,1,1779.1000000238419,245327.69999998808,7706,VNB,B,12
10,test,2,0.0,1-Back,1.0,m,Thu Dec 04 2025 09:52:09 GMT-0600 (Central Standard Time),249090.80000001192,005_o_f_n_a.png,O,m,967,14,1,1980.1000000238419,247110.69999998808,7706,VNB,B,13
10,test,2,0.0,1-Back,0.0,z,Thu Dec 04 2025 09:52:09 GMT-0600 (Central Standard Time),250874.59999996424,020_y_f_n_a.png,O,m,751,15,1,1780.3999999761581,249094.19999998808,7706,VNB,B,14
10,test,2,1.0,1-Back,0.0,m,Thu Dec 04 2025 09:52:09 GMT-0600 (Central Standard Time),252506.09999996424,007_m_m_h_a.png,O,z,607,16,1,1628.5999999642372,250877.5,7706,VNB,B,15
11,test,2,0.0,1-Back,1.0,m,Thu Dec 04 2025 09:52:09 GMT-0600 (Central Standard Time),254705.69999998808,005_o_f_d_a.png,O,m,1174,17,1,2195.600000023842,252510.09999996424,7706,VNB,B,16
11,test,2,1.0,1-Back,0.0,z,Thu Dec 04 2025 09:52:09 GMT-0600 (Central Standard Time),256754.0,004_o_m_d_a.png,O,m,1032,18,1,2044.5,254709.5,7706,VNB,B,17
0,test,3,1.0,1-Back,,,Thu Dec 04 2025 09:52:09 GMT-0600 (Central Standard Time),256754.0,005_o_f_h_a.png,O,space,5005,1,1,2044.5,254709.5,7706,VNB,B,0
1,test,3,0.0,1-Back,1.0,m,Thu Dec 04 2025 09:52:09 GMT-0600 (Central Standard Time),266436.3000000119,011_m_f_d_a.png,O,m,1549,2,1,2563.100000023842,263873.1999999881,7706,VNB,B,1
1,test,3,1.0,1-Back,0.0,m,Thu Dec 04 2025 09:52:09 GMT-0600 (Central Standard Time),269049.89999997616,007_m_m_n_a.png,O,z,1589,3,1,2610.300000011921,266439.59999996424,7706,VNB,B,2
2,test,3,0.0,1-Back,1.0,z,Thu Dec 04 2025 09:52:09 GMT-0600 (Central Standard Time),270983.09999996424,005_o_f_n_a.png,O,z,910,4,1,1929.0,269054.09999996424,7706,VNB,B,3
3,test,3,1.0,1-Back,1.0,m,Thu Dec 04 2025 09:52:09 GMT-0600 (Central Standard Time),272965.1999999881,004_o_m_d_a.png,O,m,959,5,1,1979.1000000238419,270986.09999996424,7706,VNB,B,4
4,test,3,0.0,1-Back,1.0,m,Thu Dec 04 2025 09:52:09 GMT-0600 (Central Standard Time),274748.0,020_y_f_h_a.png,O,m,762,6,1,1777.800000011921,272970.1999999881,7706,VNB,B,5
5,test,3,0.0,1-Back,1.0,z,Thu Dec 04 2025 09:52:09 GMT-0600 (Central Standard Time),276615.3000000119,016_y_m_h_a.png,O,z,834,7,1,1863.6000000238419,274751.6999999881,7706,VNB,B,6
6,test,3,0.0,1-Back,1.0,m,Thu Dec 04 2025 09:52:09 GMT-0600 (Central Standard Time),278630.1999999881,011_m_f_n_a.png,O,m,992,8,1,2010.300000011921,276619.89999997616,7706,VNB,B,7
6,test,3,0.0,1-Back,0.0,m,Thu Dec 04 2025 09:52:09 GMT-0600 (Central Standard Time),280880.0,020_y_f_d_a.png,O,z,1217,9,1,2246.100000023842,278633.89999997616,7706,VNB,B,8
6,test,3,1.0,1-Back,0.0,m,Thu Dec 04 2025 09:52:09 GMT-0600 (Central Standard Time),282712.8000000119,004_o_m_n_a.png,O,z,799,10,1,1829.9000000357628,280882.89999997616,7706,VNB,B,9
7,test,3,0.0,1-Back,1.0,m,Thu Dec 04 2025 09:52:09 GMT-0600 (Central Standard Time),284279.8000000119,007_m_m_h_a.png,O,m,543,11,1,1563.7000000476837,282716.09999996424,7706,VNB,B,10
8,test,3,0.0,1-Back,1.0,z,Thu Dec 04 2025 09:52:09 GMT-0600 (Central Standard Time),286095.3000000119,011_m_f_h_a.png,O,z,793,12,1,1812.5,284282.8000000119,7706,VNB,B,11
9,test,3,1.0,1-Back,1.0,m,Thu Dec 04 2025 09:52:09 GMT-0600 (Central Standard Time),287877.0,005_o_f_d_a.png,O,m,752,13,1,1778.199999988079,286098.8000000119,7706,VNB,B,12
10,test,3,0.0,1-Back,1.0,z,Thu Dec 04 2025 09:52:09 GMT-0600 (Central Standard Time),289996.39999997616,007_m_m_d_a.png,O,z,1073,14,1,2116.5,287879.89999997616,7706,VNB,B,13
11,test,3,0.0,1-Back,1.0,m,Thu Dec 04 2025 09:52:09 GMT-0600 (Central Standard Time),291893.09999996424,016_y_m_n_a.png,O,m,877,15,1,1890.7999999523163,290002.3000000119,7706,VNB,B,14
12,test,3,1.0,1-Back,1.0,m,Thu Dec 04 2025 09:52:09 GMT-0600 (Central Standard Time),293925.5,004_o_m_h_a.png,O,m,1011,16,1,2029.1000000238419,291896.39999997616,7706,VNB,B,15
12,test,3,0.0,1-Back,0.0,m,Thu Dec 04 2025 09:52:09 GMT-0600 (Central Standard Time),295658.6999999881,016_y_m_d_a.png,O,z,705,17,1,1729.0,293929.6999999881,7706,VNB,B,16
13,test,3,1.0,1-Back,1.0,m,Thu Dec 04 2025 09:52:09 GMT-0600 (Central Standard Time),298241.1999999881,020_y_f_n_a.png,O,m,1557,18,1,2579.199999988079,295662.0,7706,VNB,B,17
0,test,4,1.0,1-Back,,,Thu Dec 04 2025 09:52:09 GMT-0600 (Central Standard Time),298241.1999999881,007_m_m_d_a.png,O,space,1486,1,1,2579.199999988079,295662.0,7706,VNB,B,0
1,test,4,0.0,1-Back,1.0,z,Thu Dec 04 2025 09:52:09 GMT-0600 (Central Standard Time),304321.39999997616,004_o_m_d_a.png,O,z,1540,2,1,2560.099999964237,301761.3000000119,7706,VNB,B,1
2,test,4,0.0,1-Back,1.0,m,Thu Dec 04 2025 09:52:09 GMT-0600 (Central Standard Time),306039.09999996424,016_y_m_h_a.png,O,m,693,3,1,1713.3999999761581,304325.6999999881,7706,VNB,B,2
3,test,4,0.0,1-Back,1.0,m,Thu Dec 04 2025 09:52:09 GMT-0600 (Central Standard Time),308270.89999997616,011_m_f_n_a.png,O,m,1209,4,1,2229.099999964237,306041.8000000119,7706,VNB,B,3
3,test,4,1.0,1-Back,0.0,m,Thu Dec 04 2025 09:52:09 GMT-0600 (Central Standard Time),310521.0,005_o_f_h_a.png,O,z,1216,5,1,2246.300000011921,308274.6999999881,7706,VNB,B,4
4,test,4,0.0,1-Back,1.0,m,Thu Dec 04 2025 09:52:09 GMT-0600 (Central Standard Time),312719.89999997616,007_m_m_n_a.png,O,m,1176,6,1,2194.699999988079,310525.1999999881,7706,VNB,B,5
4,test,4,0.0,1-Back,0.0,m,Thu Dec 04 2025 09:52:09 GMT-0600 (Central Standard Time),315003.3000000119,016_y_m_d_a.png,O,z,1259,7,1,2280.5,312722.8000000119,7706,VNB,B,6
5,test,4,1.0,1-Back,1.0,z,Thu Dec 04 2025 09:52:09 GMT-0600 (Central Standard Time),316702.5,020_y_f_d_a.png,O,z,678,8,1,1695.699999988079,315006.8000000119,7706,VNB,B,7
6,test,4,0.0,1-Back,1.0,m,Thu Dec 04 2025 09:52:09 GMT-0600 (Central Standard Time),318385.1999999881,011_m_f_h_a.png,O,m,650,9,1,1679.300000011921,316705.89999997616,7706,VNB,B,8
7,test,4,0.0,1-Back,1.0,z,Thu Dec 04 2025 09:52:09 GMT-0600 (Central Standard Time),320250.59999996424,004_o_m_h_a.png,O,z,839,10,1,1862.2999999523163,318388.3000000119,7706,VNB,B,9
8,test,4,1.0,1-Back,1.0,m,Thu Dec 04 2025 09:52:09 GMT-0600 (Central Standard Time),322233.89999997616,005_o_f_n_a.png,O,m,964,11,1,1978.800000011921,320255.09999996424,7706,VNB,B,10
8,test,4,0.0,1-Back,0.0,m,Thu Dec 04 2025 09:52:09 GMT-0600 (Central Standard Time),324498.5,011_m_f_d_a.png,O,z,1246,12,1,2261.0,322237.5,7706,VNB,B,11
8,test,4,0.0,1-Back,0.0,m,Thu Dec 04 2025 09:52:09 GMT-0600 (Central Standard Time),326248.6999999881,020_y_f_n_a.png,O,z,718,13,1,1747.1000000238419,324501.59999996424,7706,VNB,B,12
8,test,4,0.0,1-Back,0.0,m,Thu Dec 04 2025 09:52:09 GMT-0600 (Central Standard Time),328165.1999999881,005_o_f_d_a.png,O,z,894,14,1,1910.5,326254.6999999881,7706,VNB,B,13
9,test,4,0.0,1-Back,1.0,m,Thu Dec 04 2025 09:52:09 GMT-0600 (Central Standard Time),329930.3000000119,020_y_f_h_a.png,O,m,746,15,1,1762.300000011921,328168.0,7706,VNB,B,14
9,test,4,1.0,1-Back,0.0,z,Thu Dec 04 2025 09:52:09 GMT-0600 (Central Standard Time),331548.0,007_m_m_h_a.png,O,m,597,16,1,1613.300000011921,329934.6999999881,7706,VNB,B,15
10,test,4,0.0,1-Back,1.0,m,Thu Dec 04 2025 09:52:09 GMT-0600 (Central Standard Time),333929.59999996424,004_o_m_n_a.png,O,m,1365,17,1,2376.0,331553.59999996424,7706,VNB,B,16
11,test,4,1.0,1-Back,1.0,z,Thu Dec 04 2025 09:52:09 GMT-0600 (Central Standard Time),336145.09999996424,016_y_m_n_a.png,O,z,1199,18,1,2210.7999999523163,333934.3000000119,7706,VNB,B,17
0,test,5,1.0,1-Back,,,Thu Dec 04 2025 09:52:09 GMT-0600 (Central Standard Time),336145.09999996424,004_o_m_n_a.png,O,space,2534,1,1,2210.7999999523163,333934.3000000119,7706,VNB,B,0
1,test,5,1.0,1-Back,1.0,m,Thu Dec 04 2025 09:52:09 GMT-0600 (Central Standard Time),342577.5,005_o_f_h_a.png,O,m,834,2,1,1862.699999988079,340714.8000000119,7706,VNB,B,1
1,test,5,0.0,1-Back,0.0,m,Thu Dec 04 2025 09:52:09 GMT-0600 (Central Standard Time),344259.8000000119,016_y_m_d_a.png,O,z,661,3,1,1679.1000000238419,342580.6999999881,7706,VNB,B,2
2,test,5,0.0,1-Back,1.0,z,Thu Dec 04 2025 09:52:09 GMT-0600 (Central Standard Time),346026.39999997616,004_o_m_d_a.png,O,z,739,4,1,1763.199999988079,344263.1999999881,7706,VNB,B,3
3,test,5,0.0,1-Back,1.0,m,Thu Dec 04 2025 09:52:09 GMT-0600 (Central Standard Time),347892.5,011_m_f_h_a.png,O,m,838,5,1,1863.0,346029.5,7706,VNB,B,4
3,test,5,0.0,1-Back,0.0,m,Thu Dec 04 2025 09:52:09 GMT-0600 (Central Standard Time),349641.59999996424,020_y_f_n_a.png,O,z,718,6,1,1746.5,347895.09999996424,7706,VNB,B,5
3,test,5,1.0,1-Back,0.0,z,Thu Dec 04 2025 09:52:09 GMT-0600 (Central Standard Time),351824.1999999881,005_o_f_n_a.png,O,m,1167,7,1,2180.0,349644.1999999881,7706,VNB,B,6
4,test,5,0.0,1-Back,1.0,m,Thu Dec 04 2025 09:52:09 GMT-0600 (Central Standard Time),354039.8000000119,011_m_f_d_a.png,O,m,1191,8,1,2211.900000035763,351827.89999997616,7706,VNB,B,7
5,test,5,0.0,1-Back,1.0,m,Thu Dec 04 2025 09:52:09 GMT-0600 (Central Standard Time),356489.59999996424,016_y_m_h_a.png,O,m,1422,9,1,2446.899999976158,354042.6999999881,7706,VNB,B,8
6,test,5,0.0,1-Back,1.0,m,Thu Dec 04 2025 09:52:09 GMT-0600 (Central Standard Time),358773.09999996424,020_y_f_d_a.png,O,m,1261,10,1,2280.0,356493.09999996424,7706,VNB,B,9
7,test,5,0.0,1-Back,1.0,m,Thu Dec 04 2025 09:52:09 GMT-0600 (Central Standard Time),361003.89999997616,007_m_m_n_a.png,O,m,1208,11,1,2227.699999988079,358776.1999999881,7706,VNB,B,10
8,test,5,1.0,1-Back,1.0,z,Thu Dec 04 2025 09:52:09 GMT-0600 (Central Standard Time),362870.6999999881,011_m_f_n_a.png,O,z,843,12,1,1861.0,361009.6999999881,7706,VNB,B,11
9,test,5,0.0,1-Back,1.0,m,Thu Dec 04 2025 09:52:09 GMT-0600 (Central Standard Time),364653.1999999881,004_o_m_h_a.png,O,m,753,13,1,1779.8999999761581,362873.3000000119,7706,VNB,B,12
10,test,5,0.0,1-Back,1.0,z,Thu Dec 04 2025 09:52:09 GMT-0600 (Central Standard Time),366619.09999996424,007_m_m_h_a.png,O,z,938,14,1,1962.199999988079,364656.89999997616,7706,VNB,B,13
11,test,5,1.0,1-Back,1.0,m,Thu Dec 04 2025 09:52:09 GMT-0600 (Central Standard Time),368385.5,005_o_f_d_a.png,O,m,733,15,1,1762.5,366623.0,7706,VNB,B,14
11,test,5,0.0,1-Back,0.0,m,Thu Dec 04 2025 09:52:09 GMT-0600 (Central Standard Time),370467.39999997616,016_y_m_n_a.png,O,z,1062,16,1,2079.199999988079,368388.1999999881,7706,VNB,B,15
12,test,5,0.0,1-Back,1.0,m,Thu Dec 04 2025 09:52:09 GMT-0600 (Central Standard Time),372267.6999999881,020_y_f_h_a.png,O,m,772,17,1,1794.8999999761581,370472.8000000119,7706,VNB,B,16
12,test,5,0.0,1-Back,0.0,m,Thu Dec 04 2025 09:52:09 GMT-0600 (Central Standard Time),374083.0,007_m_m_d_a.png,O,z,796,18,1,1811.4000000357628,372271.59999996424,7706,VNB,B,17
0,prac,1,0.0,2-Back,,,Thu Dec 04 2025 09:52:09 GMT-0600 (Central Standard Time),374083.0,011_m_f_n_a.png,O,space,2521,1,1,1811.4000000357628,372271.59999996424,7706,VNB,B,0
0,prac,1,0.0,2-Back,,,Thu Dec 04 2025 09:52:09 GMT-0600 (Central Standard Time),374083.0,005_o_f_h_a.png,O,space,2521,2,1,1811.4000000357628,372271.59999996424,7706,VNB,B,0
0,prac,1,0.0,2-Back,0.0,m,Thu Dec 04 2025 09:52:09 GMT-0600 (Central Standard Time),479150.6999999881,004_o_m_d_a.png,O,z,864,3,1,1711.0,477439.6999999881,7706,VNB,B,1
0,prac,1,1.0,2-Back,0.0,z,Thu Dec 04 2025 09:52:09 GMT-0600 (Central Standard Time),481050.3000000119,007_m_m_h_a.png,O,m,1052,4,1,1892.800000011921,479157.5,7706,VNB,B,2
0,prac,1,0.0,2-Back,0.0,m,Thu Dec 04 2025 09:52:09 GMT-0600 (Central Standard Time),483898.6999999881,020_y_f_n_a.png,O,None,2001,5,1,2841.300000011921,481057.39999997616,7706,VNB,B,3
0,prac,1,1.0,2-Back,0.0,z,Thu Dec 04 2025 09:52:09 GMT-0600 (Central Standard Time),486681.3000000119,004_o_m_h_a.png,O,None,2008,6,1,2774.400000035763,483906.89999997616,7706,VNB,B,4
0,prac,1,1.0,2-Back,0.0,z,Thu Dec 04 2025 09:52:09 GMT-0600 (Central Standard Time),489530.59999996424,016_y_m_n_a.png,O,None,2010,7,1,2843.699999988079,486686.89999997616,7706,VNB,B,5
0,prac,1,0.0,2-Back,0.0,m,Thu Dec 04 2025 09:52:09 GMT-0600 (Central Standard Time),492396.5,011_m_f_d_a.png,O,None,2016,8,1,2859.300000011921,489537.1999999881,7706,VNB,B,6
0,prac,1,0.0,2-Back,0.0,m,Thu Dec 04 2025 09:52:09 GMT-0600 (Central Standard Time),495263.59999996424,005_o_f_d_a.png,O,None,2014,9,1,2860.2999999523163,492403.3000000119,7706,VNB,B,7
0,prac,1,0.0,2-Back,0.0,m,Thu Dec 04 2025 09:52:09 GMT-0600 (Central Standard Time),498044.0,007_m_m_h_a.png,O,None,2008,10,1,2775.100000023842,495268.89999997616,7706,VNB,B,8
0,prac,1,1.0,2-Back,0.0,z,Thu Dec 04 2025 09:52:09 GMT-0600 (Central Standard Time),500909.89999997616,020_y_f_d_a.png,O,None,2014,11,1,2860.599999964237,498049.3000000119,7706,VNB,B,9
0,prac,1,0.0,2-Back,0.0,m,Thu Dec 04 2025 09:52:09 GMT-0600 (Central Standard Time),503758.89999997616,004_o_m_n_a.png,O,None,2011,12,1,2842.300000011921,500916.59999996424,7706,VNB,B,10
0,prac,2,0.0,2-Back,,,Thu Dec 04 2025 09:52:09 GMT-0600 (Central Standard Time),503758.89999997616,011_m_f_n_a.png,O,a,3831,1,1,2842.300000011921,500916.59999996424,7706,VNB,B,0
0,prac,2,0.0,2-Back,,,Thu Dec 04 2025 09:52:09 GMT-0600 (Central Standard Time),503758.89999997616,005_o_f_h_a.png,O,a,3831,2,1,2842.300000011921,500916.59999996424,7706,VNB,B,0
0,prac,2,0.0,2-Back,0.0,m,Thu Dec 04 2025 09:52:09 GMT-0600 (Central Standard Time),514672.8000000119,004_o_m_d_a.png,O,z,1029,3,1,1876.300000011921,512796.5,7706,VNB,B,1
1,prac,2,1.0,2-Back,1.0,z,Thu Dec 04 2025 09:52:09 GMT-0600 (Central Standard Time),516771.09999996424,007_m_m_h_a.png,O,z,1320,4,1,2091.5,514679.59999996424,7706,VNB,B,2
2,prac,2,0.0,2-Back,1.0,m,Thu Dec 04 2025 09:52:09 GMT-0600 (Central Standard Time),518621.0,020_y_f_n_a.png,O,m,1004,5,1,1844.199999988079,516776.8000000119,7706,VNB,B,3
3,prac,2,1.0,2-Back,1.0,z,Thu Dec 04 2025 09:52:09 GMT-0600 (Central Standard Time),520427.59999996424,004_o_m_h_a.png,O,z,964,6,1,1799.199999988079,518628.39999997616,7706,VNB,B,4
3,prac,2,1.0,2-Back,0.0,z,Thu Dec 04 2025 09:52:09 GMT-0600 (Central Standard Time),522103.1999999881,016_y_m_n_a.png,O,m,812,7,1,1669.8999999761581,520433.3000000119,7706,VNB,B,5
4,prac,2,0.0,2-Back,1.0,m,Thu Dec 04 2025 09:52:09 GMT-0600 (Central Standard Time),524003.1999999881,011_m_f_d_a.png,O,m,1046,8,1,1895.1000000238419,522108.09999996424,7706,VNB,B,6
4,prac,2,0.0,2-Back,0.0,m,Thu Dec 04 2025 09:52:09 GMT-0600 (Central Standard Time),526203.0999999642,005_o_f_d_a.png,O,z,1361,9,1,2192.699999988079,524010.39999997616,7706,VNB,B,7
4,prac,2,0.0,2-Back,0.0,m,Thu Dec 04 2025 09:52:09 GMT-0600 (Central Standard Time),528035.1999999881,007_m_m_h_a.png,O,z,1047,10,1,1826.5,526208.6999999881,7706,VNB,B,8
5,prac,2,1.0,2-Back,1.0,z,Thu Dec 04 2025 09:52:09 GMT-0600 (Central Standard Time),529969.0999999642,020_y_f_d_a.png,O,z,1081,11,1,1929.5,528039.5999999642,7706,VNB,B,9
6,prac,2,0.0,2-Back,1.0,m,Thu Dec 04 2025 09:52:09 GMT-0600 (Central Standard Time),532300.8000000119,004_o_m_n_a.png,O,m,1496,12,1,2325.800000011921,529975.0,7706,VNB,B,10
0,prac,3,0.0,2-Back,,,Thu Dec 04 2025 09:52:09 GMT-0600 (Central Standard Time),532300.8000000119,011_m_f_n_a.png,O,a,1881,1,1,2325.800000011921,529975.0,7706,VNB,B,0
0,prac,3,0.0,2-Back,,,Thu Dec 04 2025 09:52:09 GMT-0600 (Central Standard Time),532300.8000000119,005_o_f_h_a.png,O,a,1881,2,1,2325.800000011921,529975.0,7706,VNB,B,0
0,prac,3,0.0,2-Back,0.0,m,Thu Dec 04 2025 09:52:09 GMT-0600 (Central Standard Time),541630.5999999642,004_o_m_d_a.png,O,z,1394,3,1,2241.099999964237,539389.5,7706,VNB,B,1
0,prac,3,1.0,2-Back,0.0,z,Thu Dec 04 2025 09:52:09 GMT-0600 (Central Standard Time),544415.8999999762,007_m_m_h_a.png,O,None,2009,4,1,2779.099999964237,541636.8000000119,7706,VNB,B,2
0,prac,3,0.0,2-Back,0.0,m,Thu Dec 04 2025 09:52:09 GMT-0600 (Central Standard Time),546479.0999999642,020_y_f_n_a.png,O,z,1206,5,1,2056.599999964237,544422.5,7706,VNB,B,3
0,prac,3,1.0,2-Back,0.0,z,Thu Dec 04 2025 09:52:09 GMT-0600 (Central Standard Time),549344.5,004_o_m_h_a.png,O,None,2014,6,1,2858.800000011921,546485.6999999881,7706,VNB,B,4
0,prac,3,1.0,2-Back,0.0,z,Thu Dec 04 2025 09:52:09 GMT-0600 (Central Standard Time),552194.5999999642,016_y_m_n_a.png,O,None,2008,7,1,2844.699999988079,549349.8999999762,7706,VNB,B,5
0,prac,3,0.0,2-Back,0.0,m,Thu Dec 04 2025 09:52:09 GMT-0600 (Central Standard Time),555059.0,011_m_f_d_a.png,O,None,2015,8,1,2859.300000011921,552199.6999999881,7706,VNB,B,6
0,prac,3,0.0,2-Back,0.0,m,Thu Dec 04 2025 09:52:09 GMT-0600 (Central Standard Time),557925.0999999642,005_o_f_d_a.png,O,None,2016,9,1,2860.7999999523163,555064.3000000119,7706,VNB,B,7
0,prac,3,0.0,2-Back,0.0,m,Thu Dec 04 2025 09:52:09 GMT-0600 (Central Standard Time),560707.5999999642,007_m_m_h_a.png,O,None,2011,10,1,2776.599999964237,557931.0,7706,VNB,B,8
0,prac,3,1.0,2-Back,0.0,z,Thu Dec 04 2025 09:52:09 GMT-0600 (Central Standard Time),563556.5999999642,020_y_f_d_a.png,O,None,2007,11,1,2843.5,560713.0999999642,7706,VNB,B,9
0,prac,3,0.0,2-Back,0.0,m,Thu Dec 04 2025 09:52:09 GMT-0600 (Central Standard Time),566405.6999999881,004_o_m_n_a.png,O,None,2004,12,1,2842.699999988079,563563.0,7706,VNB,B,10
0,test,1,0.0,2-Back,,,Thu Dec 04 2025 09:52:09 GMT-0600 (Central Standard Time),566405.6999999881,016_y_m_h_a.png,O,space,7987,1,1,2842.699999988079,563563.0,7706,VNB,B,0
0,test,1,0.0,2-Back,,,Thu Dec 04 2025 09:52:09 GMT-0600 (Central Standard Time),566405.6999999881,005_o_f_n_a.png,O,space,7987,2,1,2842.699999988079,563563.0,7706,VNB,B,0
0,test,1,0.0,2-Back,0.0,z,Thu Dec 04 2025 09:52:09 GMT-0600 (Central Standard Time),589048.8999999762,004_o_m_h_a.png,O,m,1150,3,1,2180.899999976158,586868.0,7706,VNB,B,1
1,test,1,0.0,2-Back,1.0,m,Thu Dec 04 2025 09:52:09 GMT-0600 (Central Standard Time),591264.5,011_m_f_d_a.png,O,m,1183,4,1,2211.5,589053.0,7706,VNB,B,2
1,test,1,1.0,2-Back,0.0,m,Thu Dec 04 2025 09:52:09 GMT-0600 (Central Standard Time),593529.8999999762,016_y_m_n_a.png,O,z,1247,5,1,2261.899999976158,591268.0,7706,VNB,B,3
2,test,1,0.0,2-Back,1.0,z,Thu Dec 04 2025 09:52:09 GMT-0600 (Central Standard Time),596095.6999999881,020_y_f_d_a.png,O,z,1542,6,1,2562.699999988079,593533.0,7706,VNB,B,4
2,test,1,0.0,2-Back,0.0,m,Thu Dec 04 2025 09:52:09 GMT-0600 (Central Standard Time),598145.5,007_m_m_h_a.png,O,z,1033,7,1,2046.6000000238419,596098.8999999762,7706,VNB,B,5
3,test,1,1.0,2-Back,1.0,m,Thu Dec 04 2025 09:52:09 GMT-0600 (Central Standard Time),600462.5,020_y_f_n_a.png,O,m,1285,8,1,2314.400000035763,598148.0999999642,7706,VNB,B,6
4,test,1,0.0,2-Back,1.0,z,Thu Dec 04 2025 09:52:09 GMT-0600 (Central Standard Time),602627.8000000119,005_o_f_h_a.png,O,z,1146,9,1,2160.100000023842,600467.6999999881,7706,VNB,B,7
4,test,1,0.0,2-Back,0.0,m,Thu Dec 04 2025 09:52:09 GMT-0600 (Central Standard Time),605177.3000000119,004_o_m_d_a.png,O,z,1523,10,1,2546.2000000476837,602631.0999999642,7706,VNB,B,8
5,test,1,1.0,2-Back,1.0,m,Thu Dec 04 2025 09:52:09 GMT-0600 (Central Standard Time),607626.0,007_m_m_d_a.png,O,m,1415,11,1,2445.400000035763,605180.5999999642,7706,VNB,B,9
6,test,1,0.0,2-Back,1.0,m,Thu Dec 04 2025 09:52:09 GMT-0600 (Central Standard Time),609893.5,011_m_f_n_a.png,O,m,1246,12,1,2263.800000011921,607629.6999999881,7706,VNB,B,10
7,test,1,0.0,2-Back,1.0,m,Thu Dec 04 2025 09:52:09 GMT-0600 (Central Standard Time),612091.0,020_y_f_h_a.png,O,m,1172,13,1,2194.600000023842,609896.3999999762,7706,VNB,B,11
8,test,1,0.0,2-Back,1.0,z,Thu Dec 04 2025 09:52:09 GMT-0600 (Central Standard Time),613890.0,007_m_m_n_a.png,O,z,780,14,1,1794.699999988079,612095.3000000119,7706,VNB,B,12
8,test,1,0.0,2-Back,0.0,m,Thu Dec 04 2025 09:52:09 GMT-0600 (Central Standard Time),616907.8000000119,016_y_m_d_a.png,O,None,2001,15,1,3012.5,613895.3000000119,7706,VNB,B,13
9,test,1,1.0,2-Back,1.0,m,Thu Dec 04 2025 09:52:09 GMT-0600 (Central Standard Time),619173.3000000119,011_m_f_h_a.png,O,m,1244,16,1,2262.400000035763,616910.8999999762,7706,VNB,B,14
9,test,1,0.0,2-Back,0.0,z,Thu Dec 04 2025 09:52:09 GMT-0600 (Central Standard Time),621305.8000000119,005_o_f_d_a.png,O,m,1107,17,1,2126.100000023842,619179.6999999881,7706,VNB,B,15
9,test,1,0.0,2-Back,0.0,m,Thu Dec 04 2025 09:52:09 GMT-0600 (Central Standard Time),623421.0999999642,004_o_m_n_a.png,O,z,1094,18,1,2111.7999999523163,621309.3000000119,7706,VNB,B,16
0,test,2,0.0,2-Back,,,Thu Dec 04 2025 09:52:09 GMT-0600 (Central Standard Time),623421.0999999642,007_m_m_h_a.png,O,space,2459,1,1,2111.7999999523163,621309.3000000119,7706,VNB,B,0
0,test,2,0.0,2-Back,,,Thu Dec 04 2025 09:52:09 GMT-0600 (Central Standard Time),623421.0999999642,020_y_f_n_a.png,O,space,2459,2,1,2111.7999999523163,621309.3000000119,7706,VNB,B,0
1,test,2,1.0,2-Back,1.0,z,Thu Dec 04 2025 09:52:09 GMT-0600 (Central Standard Time),632751.6999999881,005_o_f_h_a.png,O,z,644,3,1,1663.0,631088.6999999881,7706,VNB,B,1
2,test,2,0.0,2-Back,1.0,m,Thu Dec 04 2025 09:52:09 GMT-0600 (Central Standard Time),634967.8000000119,004_o_m_d_a.png,O,m,1192,4,1,2212.900000035763,632754.8999999762,7706,VNB,B,2
3,test,2,0.0,2-Back,1.0,m,Thu Dec 04 2025 09:52:09 GMT-0600 (Central Standard Time),636883.0,011_m_f_d_a.png,O,m,896,5,1,1911.0,634972.0,7706,VNB,B,3
3,test,2,0.0,2-Back,0.0,m,Thu Dec 04 2025 09:52:09 GMT-0600 (Central Standard Time),638849.3000000119,016_y_m_h_a.png,O,z,939,6,1,1962.9000000357628,636886.3999999762,7706,VNB,B,4
4,test,2,0.0,2-Back,1.0,m,Thu Dec 04 2025 09:52:09 GMT-0600 (Central Standard Time),641732.5999999642,005_o_f_n_a.png,O,m,1862,7,1,2877.5,638855.0999999642,7706,VNB,B,5
5,test,2,1.0,2-Back,1.0,z,Thu Dec 04 2025 09:52:09 GMT-0600 (Central Standard Time),643715.0,004_o_m_h_a.png,O,z,954,8,1,1979.4000000357628,641735.5999999642,7706,VNB,B,6
6,test,2,0.0,2-Back,1.0,m,Thu Dec 04 2025 09:52:09 GMT-0600 (Central Standard Time),645980.0,020_y_f_d_a.png,O,m,1245,9,1,2262.400000035763,643717.5999999642,7706,VNB,B,7
6,test,2,0.0,2-Back,0.0,m,Thu Dec 04 2025 09:52:09 GMT-0600 (Central Standard Time),648246.1999999881,016_y_m_d_a.png,O,z,1244,10,1,2263.300000011921,645982.8999999762,7706,VNB,B,8
6,test,2,0.0,2-Back,0.0,m,Thu Dec 04 2025 09:52:09 GMT-0600 (Central Standard Time),650561.8999999762,007_m_m_n_a.png,O,z,1289,11,1,2312.5,648249.3999999762,7706,VNB,B,9
7,test,2,0.0,2-Back,1.0,m,Thu Dec 04 2025 09:52:09 GMT-0600 (Central Standard Time),652778.0,011_m_f_h_a.png,O,m,1189,12,1,2213.0,650565.0,7706,VNB,B,10
7,test,2,1.0,2-Back,0.0,z,Thu Dec 04 2025 09:52:09 GMT-0600 (Central Standard Time),654793.8999999762,004_o_m_n_a.png,O,m,988,13,1,2012.699999988079,652781.1999999881,7706,VNB,B,11
8,test,2,0.0,2-Back,1.0,m,Thu Dec 04 2025 09:52:09 GMT-0600 (Central Standard Time),656476.3000000119,005_o_f_d_a.png,O,m,662,14,1,1679.2000000476837,654797.0999999642,7706,VNB,B,12
9,test,2,0.0,2-Back,1.0,m,Thu Dec 04 2025 09:52:09 GMT-0600 (Central Standard Time),658393.1999999881,020_y_f_h_a.png,O,m,891,15,1,1912.199999988079,656481.0,7706,VNB,B,13
10,test,2,0.0,2-Back,1.0,z,Thu Dec 04 2025 09:52:09 GMT-0600 (Central Standard Time),660509.5,007_m_m_d_a.png,O,z,1086,16,1,2112.5,658397.0,7706,VNB,B,14
11,test,2,0.0,2-Back,1.0,m,Thu Dec 04 2025 09:52:09 GMT-0600 (Central Standard Time),663374.0,016_y_m_n_a.png,O,m,1833,17,1,2858.800000011921,660515.1999999881,7706,VNB,B,15
11,test,2,1.0,2-Back,0.0,m,Thu Dec 04 2025 09:52:09 GMT-0600 (Central Standard Time),665707.6999999881,011_m_f_n_a.png,O,z,1305,18,1,2329.399999976158,663378.3000000119,7706,VNB,B,16
0,test,3,1.0,2-Back,,,Thu Dec 04 2025 09:52:09 GMT-0600 (Central Standard Time),665707.6999999881,004_o_m_n_a.png,O,space,5500,1,1,2329.399999976158,663378.3000000119,7706,VNB,B,0
0,test,3,1.0,2-Back,,,Thu Dec 04 2025 09:52:09 GMT-0600 (Central Standard Time),665707.6999999881,005_o_f_d_a.png,O,space,5500,2,1,2329.399999976158,663378.3000000119,7706,VNB,B,0
1,test,3,0.0,2-Back,1.0,m,Thu Dec 04 2025 09:52:09 GMT-0600 (Central Standard Time),678320.1999999881,020_y_f_h_a.png,O,m,1034,3,1,2062.199999988079,676258.0,7706,VNB,B,1
2,test,3,0.0,2-Back,1.0,z,Thu Dec 04 2025 09:52:09 GMT-0600 (Central Standard Time),680069.0999999642,011_m_f_d_a.png,O,z,719,4,1,1745.699999988079,678323.3999999762,7706,VNB,B,2
2,test,3,1.0,2-Back,0.0,m,Thu Dec 04 2025 09:52:09 GMT-0600 (Central Standard Time),682186.0,016_y_m_n_a.png,O,z,1090,5,1,2114.100000023842,680071.8999999762,7706,VNB,B,3
3,test,3,0.0,2-Back,1.0,m,Thu Dec 04 2025 09:52:09 GMT-0600 (Central Standard Time),684418.3000000119,004_o_m_h_a.png,O,m,1205,6,1,2229.800000011921,682188.5,7706,VNB,B,4
3,test,3,0.0,2-Back,0.0,z,Thu Dec 04 2025 09:52:09 GMT-0600 (Central Standard Time),686551.3000000119,020_y_f_n_a.png,O,m,1100,7,1,2129.0,684422.3000000119,7706,VNB,B,5
3,test,3,1.0,2-Back,0.0,m,Thu Dec 04 2025 09:52:09 GMT-0600 (Central Standard Time),689083.5,007_m_m_d_a.png,O,z,1504,8,1,2529.199999988079,686554.3000000119,7706,VNB,B,6
3,test,3,0.0,2-Back,0.0,m,Thu Dec 04 2025 09:52:09 GMT-0600 (Central Standard Time),691016.0,016_y_m_d_a.png,O,z,900,9,1,1928.1000000238419,689087.8999999762,7706,VNB,B,7
3,test,3,0.0,2-Back,0.0,m,Thu Dec 04 2025 09:52:09 GMT-0600 (Central Standard Time),693649.0,005_o_f_h_a.png,O,z,1600,10,1,2627.0,691022.0,7706,VNB,B,8
4,test,3,1.0,2-Back,1.0,m,Thu Dec 04 2025 09:52:09 GMT-0600 (Central Standard Time),695397.8000000119,011_m_f_n_a.png,O,m,719,11,1,1745.9000000357628,693651.8999999762,7706,VNB,B,9
5,test,3,1.0,2-Back,1.0,z,Thu Dec 04 2025 09:52:09 GMT-0600 (Central Standard Time),697281.5999999642,007_m_m_h_a.png,O,z,850,12,1,1881.0999999642372,695400.5,7706,VNB,B,10
5,test,3,0.0,2-Back,0.0,m,Thu Dec 04 2025 09:52:09 GMT-0600 (Central Standard Time),699930.5999999642,020_y_f_d_a.png,O,z,1622,13,1,2644.899999976158,697285.6999999881,7706,VNB,B,11
5,test,3,0.0,2-Back,0.0,m,Thu Dec 04 2025 09:52:09 GMT-0600 (Central Standard Time),701845.5999999642,005_o_f_n_a.png,O,z,894,14,1,1912.0999999642372,699933.5,7706,VNB,B,12
6,test,3,0.0,2-Back,1.0,z,Thu Dec 04 2025 09:52:09 GMT-0600 (Central Standard Time),703645.5999999642,004_o_m_d_a.png,O,z,769,15,1,1796.3999999761581,701849.1999999881,7706,VNB,B,13
7,test,3,1.0,2-Back,1.0,m,Thu Dec 04 2025 09:52:09 GMT-0600 (Central Standard Time),705862.0999999642,011_m_f_h_a.png,O,m,1186,16,1,2213.5,703648.5999999642,7706,VNB,B,14
8,test,3,0.0,2-Back,1.0,m,Thu Dec 04 2025 09:52:09 GMT-0600 (Central Standard Time),708010.6999999881,007_m_m_n_a.png,O,m,1121,17,1,2144.899999976158,705865.8000000119,7706,VNB,B,15
9,test,3,0.0,2-Back,1.0,z,Thu Dec 04 2025 09:52:09 GMT-0600 (Central Standard Time),710143.3000000119,016_y_m_h_a.png,O,z,1100,18,1,2129.900000035763,708013.3999999762,7706,VNB,B,16
0,test,4,0.0,2-Back,,,Thu Dec 04 2025 09:52:09 GMT-0600 (Central Standard Time),710143.3000000119,011_m_f_n_a.png,O,space,1928,1,1,2129.900000035763,708013.3999999762,7706,VNB,B,0
0,test,4,0.0,2-Back,,,Thu Dec 04 2025 09:52:09 GMT-0600 (Central Standard Time),710143.3000000119,004_o_m_n_a.png,O,space,1928,2,1,2129.900000035763,708013.3999999762,7706,VNB,B,0
1,test,4,1.0,2-Back,1.0,m,Thu Dec 04 2025 09:52:09 GMT-0600 (Central Standard Time),719357.0999999642,016_y_m_h_a.png,O,m,1078,3,1,2096.199999988079,717260.8999999762,7706,VNB,B,1
1,test,4,1.0,2-Back,0.0,m,Thu Dec 04 2025 09:52:09 GMT-0600 (Central Standard Time),721306.3000000119,005_o_f_d_a.png,O,z,922,4,1,1946.0,719360.3000000119,7706,VNB,B,2
1,test,4,0.0,2-Back,0.0,z,Thu Dec 04 2025 09:52:09 GMT-0600 (Central Standard Time),723556.0999999642,004_o_m_h_a.png,O,m,1229,5,1,2246.399999976158,721309.6999999881,7706,VNB,B,3
1,test,4,0.0,2-Back,0.0,m,Thu Dec 04 2025 09:52:09 GMT-0600 (Central Standard Time),725887.8000000119,007_m_m_n_a.png,O,z,1308,6,1,2327.5,723560.3000000119,7706,VNB,B,4
1,test,4,0.0,2-Back,0.0,m,Thu Dec 04 2025 09:52:09 GMT-0600 (Central Standard Time),728054.1999999881,011_m_f_d_a.png,O,z,1134,7,1,2162.899999976158,725891.3000000119,7706,VNB,B,5
2,test,4,0.0,2-Back,1.0,z,Thu Dec 04 2025 09:52:09 GMT-0600 (Central Standard Time),730303.8000000119,020_y_f_n_a.png,O,z,1216,8,1,2247.100000023842,728056.6999999881,7706,VNB,B,6
2,test,4,1.0,2-Back,0.0,m,Thu Dec 04 2025 09:52:09 GMT-0600 (Central Standard Time),732536.8000000119,005_o_f_h_a.png,O,z,1201,9,1,2229.100000023842,730307.6999999881,7706,VNB,B,7
2,test,4,0.0,2-Back,0.0,m,Thu Dec 04 2025 09:52:09 GMT-0600 (Central Standard Time),735568.3000000119,007_m_m_h_a.png,O,None,2016,10,1,3028.800000011921,732539.5,7706,VNB,B,8
2,test,4,0.0,2-Back,0.0,m,Thu Dec 04 2025 09:52:09 GMT-0600 (Central Standard Time),737634.6999999881,020_y_f_d_a.png,O,z,1039,11,1,2063.600000023842,735571.0999999642,7706,VNB,B,9
2,test,4,0.0,2-Back,0.0,m,Thu Dec 04 2025 09:52:09 GMT-0600 (Central Standard Time),739518.0999999642,016_y_m_n_a.png,O,z,854,12,1,1880.5,737637.5999999642,7706,VNB,B,10
3,test,4,0.0,2-Back,1.0,z,Thu Dec 04 2025 09:52:09 GMT-0600 (Central Standard Time),741850.8999999762,004_o_m_d_a.png,O,z,1300,13,1,2329.0,739521.8999999762,7706,VNB,B,11
3,test,4,1.0,2-Back,0.0,m,Thu Dec 04 2025 09:52:09 GMT-0600 (Central Standard Time),744881.8999999762,011_m_f_h_a.png,O,None,2015,14,1,3027.199999988079,741854.6999999881,7706,VNB,B,12
3,test,4,1.0,2-Back,0.0,m,Thu Dec 04 2025 09:52:09 GMT-0600 (Central Standard Time),747914.3000000119,020_y_f_h_a.png,O,None,2015,15,1,3029.400000035763,744884.8999999762,7706,VNB,B,13
4,test,4,0.0,2-Back,1.0,m,Thu Dec 04 2025 09:52:09 GMT-0600 (Central Standard Time),750163.5,005_o_f_n_a.png,O,m,1221,16,1,2245.699999988079,747917.8000000119,7706,VNB,B,14
4,test,4,0.0,2-Back,0.0,m,Thu Dec 04 2025 09:52:09 GMT-0600 (Central Standard Time),752730.1999999881,016_y_m_d_a.png,O,z,1535,17,1,2554.699999988079,750175.5,7706,VNB,B,15
4,test,4,1.0,2-Back,0.0,m,Thu Dec 04 2025 09:52:09 GMT-0600 (Central Standard Time),754530.0999999642,007_m_m_d_a.png,O,z,767,18,1,1796.2999999523163,752733.8000000119,7706,VNB,B,16
0,test,5,1.0,2-Back,,,Thu Dec 04 2025 09:52:09 GMT-0600 (Central Standard Time),754530.0999999642,020_y_f_d_a.png,O,space,5269,1,1,1796.2999999523163,752733.8000000119,7706,VNB,B,0
0,test,5,1.0,2-Back,,,Thu Dec 04 2025 09:52:09 GMT-0600 (Central Standard Time),754530.0999999642,005_o_f_h_a.png,O,space,5269,2,1,1796.2999999523163,752733.8000000119,7706,VNB,B,0
1,test,5,1.0,2-Back,1.0,z,Thu Dec 04 2025 09:52:09 GMT-0600 (Central Standard Time),767307.5,004_o_m_d_a.png,O,z,1287,3,1,2311.0,764996.5,7706,VNB,B,1
1,test,5,1.0,2-Back,0.0,m,Thu Dec 04 2025 09:52:09 GMT-0600 (Central Standard Time),769424.0,011_m_f_n_a.png,O,z,1092,4,1,2111.199999988079,767312.8000000119,7706,VNB,B,2
2,test,5,0.0,2-Back,1.0,m,Thu Dec 04 2025 09:52:09 GMT-0600 (Central Standard Time),771175.0999999642,007_m_m_h_a.png,O,m,719,5,1,1748.0999999642372,769427.0,7706,VNB,B,3
2,test,5,0.0,2-Back,0.0,z,Thu Dec 04 2025 09:52:09 GMT-0600 (Central Standard Time),773939.3000000119,020_y_f_n_a.png,O,m,1745,6,1,2759.2000000476837,771180.0999999642,7706,VNB,B,4
2,test,5,0.0,2-Back,0.0,m,Thu Dec 04 2025 09:52:09 GMT-0600 (Central Standard Time),776005.5,005_o_f_d_a.png,O,z,1036,7,1,2063.100000023842,773942.3999999762,7706,VNB,B,5
3,test,5,0.0,2-Back,1.0,m,Thu Dec 04 2025 09:52:09 GMT-0600 (Central Standard Time),778804.1999999881,004_o_m_h_a.png,O,m,1770,8,1,2796.0,776008.1999999881,7706,VNB,B,6
4,test,5,1.0,2-Back,1.0,z,Thu Dec 04 2025 09:52:09 GMT-0600 (Central Standard Time),780954.3000000119,011_m_f_d_a.png,O,z,1116,9,1,2145.5,778808.8000000119,7706,VNB,B,7
4,test,5,0.0,2-Back,0.0,m,Thu Dec 04 2025 09:52:09 GMT-0600 (Central Standard Time),783986.5,016_y_m_n_a.png,O,None,2015,10,1,3028.0,780958.5,7706,VNB,B,8
4,test,5,0.0,2-Back,0.0,m,Thu Dec 04 2025 09:52:09 GMT-0600 (Central Standard Time),787019.0,007_m_m_n_a.png,O,None,2016,11,1,3027.600000023842,783991.3999999762,7706,VNB,B,9
5,test,5,0.0,2-Back,1.0,m,Thu Dec 04 2025 09:52:09 GMT-0600 (Central Standard Time),788802.0999999642,020_y_f_h_a.png,O,m,757,12,1,1779.3999999761581,787022.6999999881,7706,VNB,B,10
5,test,5,0.0,2-Back,0.0,m,Thu Dec 04 2025 09:52:09 GMT-0600 (Central Standard Time),790602.0999999642,016_y_m_d_a.png,O,z,766,13,1,1797.2999999523163,788804.8000000119,7706,VNB,B,11
6,test,5,1.0,2-Back,1.0,z,Thu Dec 04 2025 09:52:09 GMT-0600 (Central Standard Time),793183.8999999762,011_m_f_h_a.png,O,z,1560,14,1,2577.300000011921,790606.5999999642,7706,VNB,B,12
6,test,5,0.0,2-Back,0.0,m,Thu Dec 04 2025 09:52:09 GMT-0600 (Central Standard Time),795466.8999999762,004_o_m_n_a.png,O,z,1256,15,1,2280.099999964237,793186.8000000119,7706,VNB,B,13
6,test,5,0.0,2-Back,0.0,m,Thu Dec 04 2025 09:52:09 GMT-0600 (Central Standard Time),797699.0,007_m_m_d_a.png,O,z,1213,16,1,2229.400000035763,795469.5999999642,7706,VNB,B,14
7,test,5,0.0,2-Back,1.0,z,Thu Dec 04 2025 09:52:09 GMT-0600 (Central Standard Time),799814.8999999762,005_o_f_n_a.png,O,z,1093,17,1,2112.599999964237,797702.3000000119,7706,VNB,B,15
7,test,5,1.0,2-Back,0.0,m,Thu Dec 04 2025 09:52:09 GMT-0600 (Central Standard Time),802014.1999999881,016_y_m_h_a.png,O,z,1177,18,1,2196.399999976158,799817.8000000119,7706,VNB,B,16
