acc_sum,block,block_c,condition,correct,correct_response,datetime,endtime,flanker,jitter,project,response,response_test_buffer_response,response_test_target_response,response_time,response_time_test_buffer_response,response_time_test_target_response,row_sel,session_number,start_end,starttime,subject_id,target,task,task_vers,time_test_buffer,time_test_buffer_response,time_test_constants,time_test_flanker,time_test_jitter,time_test_logger,time_test_target,time_test_target_response,time_test_variables,trial
1,prac,1,con,1,z,Wed Mar 11 2026 09:30:29 GMT-0500 (Central Daylight Time),99307.59999999404,brutal,800,O,z,,,761,,,13,1,2858.5999999940395,96449.0,7756,brutal,AF,B,,,,,,,,,,1
2,prac,1,inc,1,m,Wed Mar 11 2026 09:30:29 GMT-0500 (Central Daylight Time),102322.79999999702,brutal,1100,O,m,,,618,,,8,1,3009.7999999970198,99313.0,7756,window,AF,B,,,,,,,,,,2
3,prac,1,inc,1,m,Wed Mar 11 2026 09:30:29 GMT-0500 (Central Daylight Time),105089.09999999404,elated,900,O,m,,,556,,,6,1,2759.0999999940395,102330.0,7756,napkin,AF,B,,,,,,,,,,3
4,prac,1,con,1,z,Wed Mar 11 2026 09:30:29 GMT-0500 (Central Daylight Time),107905.39999999851,love,1000,O,z,,,500,,,11,1,2809.60000000149,105095.79999999702,7756,love,AF,B,,,,,,,,,,4
5,prac,1,con,1,m,Wed Mar 11 2026 09:30:29 GMT-0500 (Central Daylight Time),110690.09999999404,bell,1000,O,m,,,476,,,3,1,2778.5999999940395,107911.5,7756,bell,AF,B,,,,,,,,,,5
6,prac,1,con,1,m,Wed Mar 11 2026 09:30:29 GMT-0500 (Central Daylight Time),113552.09999999404,step,800,O,m,,,768,,,1,1,2858.0,110694.09999999404,7756,step,AF,B,,,,,,,,,,6
7,prac,1,con,1,m,Wed Mar 11 2026 09:30:29 GMT-0500 (Central Daylight Time),116235.5,jacket,800,O,m,,,579,,,5,1,2679.10000000149,113556.39999999851,7756,jacket,AF,B,,,,,,,,,,7
8,prac,1,inc,1,z,Wed Mar 11 2026 09:30:29 GMT-0500 (Central Daylight Time),119547.29999999702,window,1100,O,z,,,904,,,16,1,3307.0,116240.29999999702,7756,temper,AF,B,,,,,,,,,,8
9,prac,1,inc,1,z,Wed Mar 11 2026 09:30:29 GMT-0500 (Central Daylight Time),123066.89999999851,napkin,1100,O,z,,,1120,,,12,1,3515.3000000044703,119551.59999999404,7756,friend,AF,B,,,,,,,,,,9
10,prac,1,inc,1,m,Wed Mar 11 2026 09:30:29 GMT-0500 (Central Daylight Time),126282.39999999851,hate,1100,O,m,,,814,,,4,1,3210.2000000029802,123072.19999999553,7756,film,AF,B,,,,,,,,,,10
11,prac,1,con,1,m,Wed Mar 11 2026 09:30:29 GMT-0500 (Central Daylight Time),129281.79999999702,remote,1000,O,m,,,700,,,7,1,2992.7999999970198,126289.0,7756,remote,AF,B,,,,,,,,,,11
12,prac,1,con,1,z,Wed Mar 11 2026 09:30:29 GMT-0500 (Central Daylight Time),131980.8999999985,elated,800,O,z,,,584,,,9,1,2694.0,129286.89999999851,7756,elated,AF,B,,,,,,,,,,12
13,prac,1,inc,1,z,Wed Mar 11 2026 09:30:29 GMT-0500 (Central Daylight Time),134894.79999999702,rock,900,O,z,,,715,,,10,1,2908.5,131986.29999999702,7756,kind,AF,B,,,,,,,,,,13
14,prac,1,inc,1,m,Wed Mar 11 2026 09:30:29 GMT-0500 (Central Daylight Time),137778.69999999553,kind,900,O,m,,,681,,,2,1,2880.39999999851,134898.29999999702,7756,rock,AF,B,,,,,,,,,,14
15,prac,1,inc,1,z,Wed Mar 11 2026 09:30:29 GMT-0500 (Central Daylight Time),140659.3999999985,film,900,O,z,,,684,,,14,1,2874.7000000029802,137784.69999999553,7756,hate,AF,B,,,,,,,,,,15
16,prac,1,con,1,z,Wed Mar 11 2026 09:30:29 GMT-0500 (Central Daylight Time),143441.59999999404,rage,1000,O,z,,,486,,,15,1,2779.0999999940395,140662.5,7756,rage,AF,B,,,,,,,,,,16
1,test,1,inc,1,m,Wed Mar 11 2026 09:30:29 GMT-0500 (Central Daylight Time),155622.0,brutal,900,O,m,m,None,809,594.0,215.0,126,1,2245.2000000029802,153376.79999999702,7756,window,AF,B,151829,151830,150184,151097,150184,152429,151614,151614,152429,1
2,test,1,con,1,z,Wed Mar 11 2026 09:30:29 GMT-0500 (Central Daylight Time),157405.5,elated,800,O,z,z,None,444,243.0,201.0,1,1,1776.8000000044703,155628.69999999553,7756,elated,AF,B,153964,153964,152436,153245,152436,154213,153762,153762,154213,2
3,test,1,con,1,m,Wed Mar 11 2026 09:30:29 GMT-0500 (Central Daylight Time),159537.69999999553,remote,1100,O,m,m,None,511,299.0,212.0,116,1,2128.1999999955297,157409.5,7756,remote,AF,B,156045,156045,154217,155329,154217,156345,155832,155832,156345,3
4,test,1,con,1,z,Wed Mar 11 2026 09:30:29 GMT-0500 (Central Daylight Time),161453.29999999702,temper,800,O,z,z,None,585,386.0,199.0,57,1,1908.2000000029802,159545.09999999404,7756,temper,AF,B,157861,157861,156352,157161,156352,158260,157662,157662,158260,4
5,test,1,inc,1,m,Wed Mar 11 2026 09:30:29 GMT-0500 (Central Daylight Time),163536.0,kind,900,O,m,m,None,633,434.0,199.0,94,1,2074.2000000029802,161461.79999999702,7756,film,AF,B,159894,159894,158269,159177,158269,160343,159694,159694,160343,5
6,test,1,inc,1,z,Wed Mar 11 2026 09:30:29 GMT-0500 (Central Daylight Time),165735.3999999985,remote,1000,O,z,z,None,658,459.0,199.0,7,1,2191.39999999851,163544.0,7756,elated,AF,B,162077,162077,160351,161361,160351,162542,161877,161877,162542,6
7,test,1,inc,1,z,Wed Mar 11 2026 09:30:29 GMT-0500 (Central Daylight Time),167885.29999999702,napkin,900,O,z,z,None,702,503.0,199.0,62,1,2143.10000000149,165742.19999999553,7756,temper,AF,B,164176,164176,162549,163459,162550,164692,163976,163976,164692,7
8,test,1,con,1,z,Wed Mar 11 2026 09:30:29 GMT-0500 (Central Daylight Time),170017.8999999985,temper,1000,O,z,z,None,582,373.0,209.0,59,1,2126.2000000029802,167891.69999999553,7756,temper,AF,B,166442,166442,164699,165708,164699,166825,166233,166233,166825,8
9,test,1,inc,1,z,Wed Mar 11 2026 09:30:29 GMT-0500 (Central Daylight Time),172349.79999999702,bell,1000,O,z,z,None,785,586.0,199.0,47,1,2327.0,170022.79999999702,7756,hate,AF,B,168558,168558,166830,167842,166830,169157,168358,168358,169157,9
10,test,1,con,1,m,Wed Mar 11 2026 09:30:29 GMT-0500 (Central Daylight Time),174583.59999999404,remote,1000,O,m,m,None,685,486.0,199.0,115,1,2224.89999999851,172358.69999999553,7756,remote,AF,B,170890,170890,169166,170175,169166,171391,170691,170691,171391,10
11,test,1,inc,1,m,Wed Mar 11 2026 09:30:29 GMT-0500 (Central Daylight Time),176915.0,friend,1100,O,m,m,None,688,489.0,199.0,104,1,2323.2000000029802,174591.79999999702,7756,jacket,AF,B,173223,173223,171399,172508,171400,173722,173023,173023,173722,11
12,test,1,con,1,m,Wed Mar 11 2026 09:30:29 GMT-0500 (Central Daylight Time),179298.19999999553,step,1100,O,m,m,None,742,541.0,201.0,68,1,2378.89999999851,176919.29999999702,7756,step,AF,B,175555,175555,173726,174840,173727,176105,175354,175354,176105,12
13,test,1,inc,1,m,Wed Mar 11 2026 09:30:29 GMT-0500 (Central Daylight Time),181497.19999999553,love,1000,O,m,m,None,672,473.0,199.0,95,1,2192.0,179305.19999999553,7756,film,AF,B,177822,177822,176112,177121,176113,178304,177622,177622,178304,13
14,test,1,inc,1,z,Wed Mar 11 2026 09:30:29 GMT-0500 (Central Daylight Time),183796.3999999985,window,1100,O,z,z,None,654,455.0,199.0,40,1,2294.3000000044703,181502.09999999404,7756,brutal,AF,B,180137,180137,178309,179427,178310,180603,179938,179938,180603,14
15,test,1,inc,1,z,Wed Mar 11 2026 09:30:29 GMT-0500 (Central Daylight Time),186015.19999999553,bell,1000,O,z,z,None,695,496.0,199.0,15,1,2214.2999999970198,183800.8999999985,7756,kind,AF,B,182321,182321,180608,181621,180608,182822,182122,182122,182822,15
16,test,1,inc,1,m,Wed Mar 11 2026 09:30:29 GMT-0500 (Central Daylight Time),188195.79999999702,hate,1100,O,m,m,None,552,338.0,214.0,72,1,2176.7000000029802,186019.09999999404,7756,step,AF,B,184654,184654,182826,183936,182826,185003,184439,184439,185003,16
17,test,1,inc,1,m,Wed Mar 11 2026 09:30:29 GMT-0500 (Central Daylight Time),190145.5,rage,800,O,m,m,None,608,407.0,201.0,77,1,1944.8000000044703,188200.69999999553,7756,rock,AF,B,186537,186537,185008,185819,185008,186953,186335,186335,186953,17
18,test,1,con,1,z,Wed Mar 11 2026 09:30:29 GMT-0500 (Central Daylight Time),192427.19999999553,brutal,1000,O,z,z,None,740,539.0,201.0,35,1,2278.10000000149,190149.09999999404,7756,brutal,AF,B,188685,188685,186956,187969,186956,189234,188484,188484,189234,18
19,test,1,con,1,z,Wed Mar 11 2026 09:30:29 GMT-0500 (Central Daylight Time),194592.59999999404,hate,1000,O,z,z,None,630,431.0,199.0,43,1,2161.39999999851,192431.19999999553,7756,hate,AF,B,190968,190968,189238,190251,189238,191400,190767,190768,191400,19
20,test,1,inc,1,m,Wed Mar 11 2026 09:30:29 GMT-0500 (Central Daylight Time),196740.8999999985,brutal,900,O,m,m,None,699,500.0,199.0,118,1,2143.3000000044703,194597.59999999404,7756,remote,AF,B,193035,193035,191405,192317,191405,193548,192835,192835,193548,20
21,test,1,con,1,z,Wed Mar 11 2026 09:30:29 GMT-0500 (Central Daylight Time),198906.79999999702,elated,1100,O,z,z,None,522,322.0,200.0,4,1,2160.7999999970198,196746.0,7756,elated,AF,B,195381,195381,193553,194667,193553,195714,195181,195181,195714,21
21,test,1,con,0,z,Wed Mar 11 2026 09:30:29 GMT-0500 (Central Daylight Time),201191.19999999553,friend,1100,O,m,m,None,644,445.0,199.0,28,1,2281.10000000149,198910.09999999404,7756,friend,AF,B,197547,197547,195717,196833,195717,197998,197348,197348,197998,22
22,test,1,con,1,z,Wed Mar 11 2026 09:30:29 GMT-0500 (Central Daylight Time),203223.8999999985,rage,900,O,z,z,None,585,384.0,201.0,50,1,2027.2000000029802,201196.69999999553,7756,rage,AF,B,199632,199632,198004,198915,198004,200031,199431,199431,200031,23
23,test,1,con,1,m,Wed Mar 11 2026 09:30:29 GMT-0500 (Central Daylight Time),205723.5,rock,1000,O,m,m,None,955,756.0,199.0,75,1,2493.7000000029802,203229.79999999702,7756,rock,AF,B,201764,201764,200037,201048,200037,202531,201564,201564,202531,24
24,test,1,con,1,z,Wed Mar 11 2026 09:30:29 GMT-0500 (Central Daylight Time),207672.69999999553,brutal,800,O,z,z,None,600,400.0,200.0,33,1,1945.0,205727.69999999553,7756,brutal,AF,B,204064,204064,202535,203347,202535,204480,203863,203863,204480,25
25,test,1,inc,1,z,Wed Mar 11 2026 09:30:29 GMT-0500 (Central Daylight Time),209805.09999999404,rock,900,O,z,z,None,686,486.0,200.0,54,1,2127.0,207678.09999999404,7756,rage,AF,B,206113,206113,204485,205397,204485,206612,205912,205912,206612,26
26,test,1,con,1,z,Wed Mar 11 2026 09:30:29 GMT-0500 (Central Daylight Time),211922.69999999553,love,900,O,z,z,None,684,483.0,201.0,18,1,2114.89999999851,209807.79999999702,7756,love,AF,B,208246,208246,206615,207530,206615,208730,208045,208045,208730,27
27,test,1,con,1,m,Wed Mar 11 2026 09:30:29 GMT-0500 (Central Daylight Time),214089.09999999404,window,800,O,m,m,None,817,618.0,199.0,121,1,2162.5999999940395,211926.5,7756,window,AF,B,210262,210262,208734,209546,208734,210896,210062,210062,210896,28
28,test,1,con,1,m,Wed Mar 11 2026 09:30:29 GMT-0500 (Central Daylight Time),215985.19999999553,napkin,900,O,m,m,None,455,255.0,200.0,106,1,1890.6999999955297,214094.5,7756,napkin,AF,B,212528,212528,210902,211811,210902,212792,212328,212328,212792,29
29,test,1,con,1,z,Wed Mar 11 2026 09:30:29 GMT-0500 (Central Daylight Time),217969.59999999404,love,1000,O,z,z,None,456,257.0,199.0,19,1,1981.7999999970198,215987.79999999702,7756,love,AF,B,214511,214511,212795,213808,212795,214777,214311,214311,214777,30
30,test,1,inc,1,m,Wed Mar 11 2026 09:30:29 GMT-0500 (Central Daylight Time),220119.19999999553,kind,900,O,m,m,None,716,517.0,199.0,86,1,2145.0,217974.19999999553,7756,bell,AF,B,216394,216394,214781,215692,214782,216926,216194,216194,216926,31
31,test,1,inc,1,z,Wed Mar 11 2026 09:30:29 GMT-0500 (Central Daylight Time),222268.79999999702,step,800,O,z,z,None,822,621.0,201.0,13,1,2145.10000000149,220123.69999999553,7756,kind,AF,B,218443,218443,216931,217741,216931,219076,218242,218242,219076,32
32,test,1,inc,1,z,Wed Mar 11 2026 09:30:29 GMT-0500 (Central Daylight Time),224650.8999999985,window,1100,O,z,z,None,749,549.0,200.0,8,1,2377.7000000029802,222273.19999999553,7756,elated,AF,B,220909,220909,219080,220193,219080,221458,220709,220709,221458,33
33,test,1,con,1,m,Wed Mar 11 2026 09:30:29 GMT-0500 (Central Daylight Time),226816.09999999404,step,800,O,m,m,None,824,624.0,200.0,65,1,2161.89999999851,224654.19999999553,7756,step,AF,B,222991,222992,221461,222276,221462,223623,222791,222791,223623,34
34,test,1,con,1,z,Wed Mar 11 2026 09:30:29 GMT-0500 (Central Daylight Time),228715.5,hate,900,O,z,z,None,448,249.0,199.0,42,1,1896.1000000014901,226819.3999999985,7756,hate,AF,B,225257,225257,223626,224540,223627,225523,225058,225058,225523,35
35,test,1,con,1,m,Wed Mar 11 2026 09:30:29 GMT-0500 (Central Daylight Time),230815.8999999985,film,1100,O,m,m,None,450,251.0,199.0,92,1,2095.0,228720.8999999985,7756,film,AF,B,227356,227356,225528,226641,225528,227623,227157,227157,227623,36
36,test,1,inc,1,m,Wed Mar 11 2026 09:30:29 GMT-0500 (Central Daylight Time),233099.0,temper,1000,O,m,m,None,732,532.0,200.0,103,1,2278.7000000029802,230820.29999999702,7756,jacket,AF,B,229356,229357,227627,228639,227628,229906,229156,229156,229906,37
37,test,1,inc,1,m,Wed Mar 11 2026 09:30:29 GMT-0500 (Central Daylight Time),235197.3999999985,brutal,900,O,m,m,None,652,453.0,199.0,110,1,2093.0,233104.3999999985,7756,napkin,AF,B,231538,231538,229911,230821,229912,232004,231339,231339,232004,38
38,test,1,con,1,m,Wed Mar 11 2026 09:30:29 GMT-0500 (Central Daylight Time),237212.69999999553,jacket,900,O,m,m,None,568,353.0,215.0,98,1,2011.0,235201.69999999553,7756,jacket,AF,B,233655,233655,232009,232921,232009,234020,233438,233439,234020,39
39,test,1,inc,1,m,Wed Mar 11 2026 09:30:29 GMT-0500 (Central Daylight Time),239312.3999999985,temper,1000,O,m,m,None,551,351.0,200.0,111,1,2093.0,237219.3999999985,7756,napkin,AF,B,235753,235753,234026,235037,234027,236119,235553,235553,236119,40
40,test,1,con,1,z,Wed Mar 11 2026 09:30:29 GMT-0500 (Central Daylight Time),241478.19999999553,elated,1000,O,z,z,None,617,418.0,199.0,3,1,2160.60000000149,239317.59999999404,7756,elated,AF,B,237853,237853,236125,237137,236125,238285,237653,237653,238285,41
41,test,1,inc,1,m,Wed Mar 11 2026 09:30:29 GMT-0500 (Central Daylight Time),243279.69999999553,elated,800,O,m,m,None,460,261.0,199.0,125,1,1796.7999999970198,241482.8999999985,7756,window,AF,B,239819,239819,238290,239103,238290,240087,239619,239619,240087,42
42,test,1,con,1,m,Wed Mar 11 2026 09:30:29 GMT-0500 (Central Daylight Time),245394.5,window,1100,O,m,m,None,472,273.0,199.0,124,1,2111.4000000059605,243283.09999999404,7756,window,AF,B,241918,241918,240090,241202,240090,242202,241719,241719,242202,43
43,test,1,inc,1,m,Wed Mar 11 2026 09:30:29 GMT-0500 (Central Daylight Time),247443.79999999702,kind,900,O,m,m,None,614,414.0,200.0,70,1,2045.1000000014901,245398.69999999553,7756,step,AF,B,243835,243835,242206,243119,242206,244251,243635,243635,244251,44
44,test,1,con,1,m,Wed Mar 11 2026 09:30:29 GMT-0500 (Central Daylight Time),249792.19999999553,film,1000,O,m,m,None,800,600.0,200.0,91,1,2343.1999999955297,247449.0,7756,film,AF,B,245984,245984,244256,245267,244256,246599,245783,245783,246599,45
45,test,1,inc,1,z,Wed Mar 11 2026 09:30:29 GMT-0500 (Central Daylight Time),251659.0,step,800,O,z,z,None,530,315.0,215.0,53,1,1860.8000000044703,249798.19999999553,7756,rage,AF,B,248149,248149,246605,247417,246605,248466,247934,247934,248466,46
46,test,1,inc,1,z,Wed Mar 11 2026 09:30:29 GMT-0500 (Central Daylight Time),253608.3999999985,step,800,O,z,z,None,599,399.0,200.0,45,1,1943.0,251665.3999999985,7756,hate,AF,B,250000,250000,248472,249282,248473,250416,249799,249799,250415,47
47,test,1,inc,1,m,Wed Mar 11 2026 09:30:29 GMT-0500 (Central Daylight Time),255808.3999999985,hate,1100,O,m,m,None,580,366.0,214.0,88,1,2194.10000000149,253614.29999999702,7756,bell,AF,B,252249,252249,250421,251532,250422,252615,252034,252034,252615,48
48,test,1,con,1,m,Wed Mar 11 2026 09:30:29 GMT-0500 (Central Daylight Time),257823.3999999985,napkin,800,O,m,m,None,666,467.0,199.0,105,1,2012.3000000044703,255811.09999999404,7756,napkin,AF,B,254148,254148,252618,253432,252618,254630,253949,253949,254630,49
49,test,1,con,1,z,Wed Mar 11 2026 09:30:29 GMT-0500 (Central Daylight Time),260106.69999999553,temper,900,O,z,z,None,841,641.0,200.0,58,1,2278.1999999955297,257828.5,7756,temper,AF,B,256263,256263,254636,255547,254636,256914,256063,256063,256914,50
50,test,1,con,1,m,Wed Mar 11 2026 09:30:29 GMT-0500 (Central Daylight Time),262105.59999999404,film,800,O,m,m,None,657,456.0,201.0,89,1,1994.1999999955297,260111.3999999985,7756,film,AF,B,258447,258447,256918,257729,256919,258913,258245,258245,258913,51
51,test,1,inc,1,z,Wed Mar 11 2026 09:30:29 GMT-0500 (Central Daylight Time),264322.299999997,remote,1000,O,z,z,None,684,483.0,201.0,39,1,2212.5,262109.79999999702,7756,brutal,AF,B,260646,260646,258917,259930,258917,261129,260445,260445,261129,52
52,test,1,con,1,m,Wed Mar 11 2026 09:30:29 GMT-0500 (Central Daylight Time),266554.69999999553,bell,1000,O,m,m,None,701,500.0,201.0,83,1,2226.5,264328.19999999553,7756,bell,AF,B,262862,262862,261135,262146,261136,263362,262660,262660,263362,53
53,test,1,inc,1,z,Wed Mar 11 2026 09:30:29 GMT-0500 (Central Daylight Time),268603.19999999553,napkin,900,O,z,z,None,613,413.0,200.0,30,1,2042.6000000014901,266560.59999999404,7756,friend,AF,B,264995,264995,263368,264279,263368,265410,264794,264794,265410,54
53,test,1,inc,0,z,Wed Mar 11 2026 09:30:29 GMT-0500 (Central Daylight Time),270686.09999999404,remote,1000,O,m,m,None,546,346.0,200.0,63,1,2079.2999999970198,268606.799999997,7756,temper,AF,B,267143,267143,265414,266426,265414,267493,266943,266943,267493,55
54,test,1,inc,1,z,Wed Mar 11 2026 09:30:29 GMT-0500 (Central Daylight Time),272867.799999997,window,1100,O,z,z,None,536,336.0,200.0,64,1,2178.60000000149,270689.19999999553,7756,temper,AF,B,269327,269327,267496,268610,267496,269675,269126,269126,269675,56
55,test,1,inc,1,m,Wed Mar 11 2026 09:30:29 GMT-0500 (Central Daylight Time),274883.799999997,elated,800,O,m,m,None,671,471.0,200.0,109,1,2009.5,272874.299999997,7756,napkin,AF,B,271208,271208,269681,270493,269682,271691,271008,271008,271691,57
56,test,1,inc,1,m,Wed Mar 11 2026 09:30:29 GMT-0500 (Central Daylight Time),276898.69999999553,rage,800,O,m,m,None,693,494.0,199.0,85,1,2006.1999999955297,274892.5,7756,bell,AF,B,273209,273209,271700,272508,271700,273706,273009,273009,273706,58
57,test,1,con,1,m,Wed Mar 11 2026 09:30:29 GMT-0500 (Central Daylight Time),278784.299999997,bell,900,O,m,m,None,443,243.0,200.0,82,1,1883.0,276901.299999997,7756,bell,AF,B,275341,275341,273708,274624,273709,275591,275141,275141,275591,59
58,test,1,con,1,m,Wed Mar 11 2026 09:30:29 GMT-0500 (Central Daylight Time),280765.299999997,film,900,O,m,m,None,544,344.0,200.0,90,1,1975.8999999985099,278789.3999999985,7756,film,AF,B,277224,277224,275596,276509,275597,277572,277023,277023,277572,60
59,test,1,inc,1,z,Wed Mar 11 2026 09:30:29 GMT-0500 (Central Daylight Time),283032.09999999404,film,1100,O,z,z,None,625,426.0,199.0,16,1,2260.39999999851,280771.69999999553,7756,kind,AF,B,279406,279406,277579,278690,277579,279839,279206,279206,279839,61
60,test,1,inc,1,z,Wed Mar 11 2026 09:30:29 GMT-0500 (Central Daylight Time),284947.09999999404,rock,900,O,z,z,None,470,271.0,199.0,46,1,1910.8999999985099,283036.19999999553,7756,hate,AF,B,281472,281472,279843,280755,279843,281754,281272,281272,281754,62
61,test,1,con,1,m,Wed Mar 11 2026 09:30:29 GMT-0500 (Central Daylight Time),286963.0,window,900,O,m,m,None,571,371.0,200.0,122,1,2010.8000000044703,284952.19999999553,7756,window,AF,B,283388,283388,281759,282671,281760,283770,283187,283187,283770,63
62,test,1,inc,1,m,Wed Mar 11 2026 09:30:29 GMT-0500 (Central Daylight Time),289080.69999999553,temper,1000,O,m,m,None,582,382.0,200.0,119,1,2111.39999999851,286969.299999997,7756,remote,AF,B,285505,285505,283776,284787,283777,285888,285304,285304,285888,64
63,test,1,con,1,m,Wed Mar 11 2026 09:30:29 GMT-0500 (Central Daylight Time),290962.299999997,jacket,800,O,m,m,None,548,346.0,202.0,97,1,1876.7000000029802,289085.59999999404,7756,jacket,AF,B,287421,287421,285893,286704,285893,287769,287219,287219,287769,65
64,test,1,inc,1,m,Wed Mar 11 2026 09:30:29 GMT-0500 (Central Daylight Time),293178.8999999985,hate,1100,O,m,m,None,589,388.0,201.0,96,1,2211.3000000044703,290967.59999999404,7756,film,AF,B,289588,289588,287775,288886,287775,289986,289387,289387,289986,66
65,test,1,inc,1,m,Wed Mar 11 2026 09:30:29 GMT-0500 (Central Daylight Time),295411.299999997,hate,1100,O,m,m,None,588,389.0,199.0,80,1,2228.0,293183.299999997,7756,rock,AF,B,291818,291818,289990,291102,289991,292218,291619,291619,292218,67
66,test,1,con,1,m,Wed Mar 11 2026 09:30:29 GMT-0500 (Central Daylight Time),297560.0,napkin,1000,O,m,m,None,608,409.0,199.0,107,1,2145.3000000044703,295414.69999999553,7756,napkin,AF,B,293951,293951,292222,293235,292222,294367,293752,293752,294367,68
67,test,1,inc,1,m,Wed Mar 11 2026 09:30:29 GMT-0500 (Central Daylight Time),299509.19999999553,rage,800,O,m,m,None,610,410.0,200.0,69,1,1943.5,297565.69999999553,7756,step,AF,B,295901,295901,294373,295183,294373,296316,295701,295701,296316,69
68,test,1,inc,1,m,Wed Mar 11 2026 09:30:29 GMT-0500 (Central Daylight Time),301676.799999997,temper,1000,O,m,m,None,633,434.0,199.0,127,1,2162.7000000029802,299514.09999999404,7756,window,AF,B,298050,298050,296321,297334,296321,298484,297850,297850,298484,70
69,test,1,inc,1,z,Wed Mar 11 2026 09:30:29 GMT-0500 (Central Daylight Time),303874.8999999985,bell,1000,O,z,z,None,665,466.0,199.0,23,1,2194.10000000149,301680.799999997,7756,love,AF,B,300216,300216,298488,299502,298488,300682,300016,300016,300682,71
70,test,1,con,1,m,Wed Mar 11 2026 09:30:29 GMT-0500 (Central Daylight Time),306042.69999999553,jacket,1100,O,m,m,None,533,334.0,199.0,100,1,2165.2999999970198,303877.3999999985,7756,jacket,AF,B,302515,302515,300684,301799,300685,302850,302315,302315,302850,72
71,test,1,con,1,z,Wed Mar 11 2026 09:30:29 GMT-0500 (Central Daylight Time),308058.59999999404,kind,1000,O,z,z,None,484,282.0,202.0,11,1,2010.7999999970198,306047.799999997,7756,kind,AF,B,304582,304582,302855,303865,302855,304866,304380,304380,304866,73
72,test,1,con,1,z,Wed Mar 11 2026 09:30:29 GMT-0500 (Central Daylight Time),310124.09999999404,love,1100,O,z,z,None,432,231.0,201.0,20,1,2061.0,308063.09999999404,7756,love,AF,B,306698,306698,304870,305982,304870,306931,306497,306497,306931,74
73,test,1,con,1,m,Wed Mar 11 2026 09:30:29 GMT-0500 (Central Daylight Time),312223.19999999553,napkin,1100,O,m,m,None,478,278.0,200.0,108,1,2093.60000000149,310129.59999999404,7756,napkin,AF,B,308747,308747,306937,308046,306937,309030,308547,308547,309030,75
74,test,1,con,1,z,Wed Mar 11 2026 09:30:29 GMT-0500 (Central Daylight Time),314272.59999999404,kind,900,O,z,z,None,599,384.0,215.0,10,1,2045.8999999985099,312226.69999999553,7756,kind,AF,B,310680,310680,309034,309948,309034,311080,310464,310464,311080,76
75,test,1,inc,1,z,Wed Mar 11 2026 09:30:29 GMT-0500 (Central Daylight Time),316289.59999999404,rock,900,O,z,z,None,566,351.0,215.0,22,1,2012.2999999970198,314277.299999997,7756,love,AF,B,312729,312729,311084,311996,311085,313097,312514,312514,313097,77
76,test,1,con,1,m,Wed Mar 11 2026 09:30:29 GMT-0500 (Central Daylight Time),318453.299999997,bell,1100,O,m,m,None,527,328.0,199.0,84,1,2159.2000000029802,316294.09999999404,7756,bell,AF,B,314928,314928,313101,314213,313101,315260,314728,314728,315260,78
77,test,1,inc,1,m,Wed Mar 11 2026 09:30:29 GMT-0500 (Central Daylight Time),320403.299999997,kind,900,O,m,m,None,506,306.0,200.0,78,1,1946.7999999970198,318456.5,7756,rock,AF,B,316893,316893,315264,316178,315264,317210,316693,316693,317210,79
78,test,1,con,1,m,Wed Mar 11 2026 09:30:29 GMT-0500 (Central Daylight Time),322503.0,step,1000,O,m,m,None,551,351.0,200.0,67,1,2096.0,320407.0,7756,step,AF,B,318944,318944,317214,318227,317214,319310,318743,318743,319310,80
79,test,1,inc,1,z,Wed Mar 11 2026 09:30:29 GMT-0500 (Central Daylight Time),324684.3999999985,napkin,900,O,z,z,None,726,517.0,209.0,6,1,2176.7000000029802,322507.69999999553,7756,elated,AF,B,320962,320962,319315,320226,319315,321491,320752,320752,321491,81
79,test,1,inc,0,m,Wed Mar 11 2026 09:30:29 GMT-0500 (Central Daylight Time),326300.8999999985,elated,800,O,z,z,None,270,71.0,199.0,101,1,1613.5,324687.3999999985,7756,jacket,AF,B,323025,323025,321494,322311,321495,323108,322826,322826,323108,82
80,test,1,inc,1,m,Wed Mar 11 2026 09:30:29 GMT-0500 (Central Daylight Time),328117.799999997,rage,800,O,m,m,None,478,279.0,199.0,93,1,1810.5,326307.299999997,7756,film,AF,B,324642,324642,323114,323926,323115,324925,324442,324442,324925,83
81,test,1,con,1,z,Wed Mar 11 2026 09:30:29 GMT-0500 (Central Daylight Time),330434.0,brutal,1100,O,z,z,None,674,472.0,202.0,36,1,2312.60000000149,328121.3999999985,7756,brutal,AF,B,326760,326760,324928,326043,324929,327241,326558,326558,327241,84
82,test,1,inc,1,z,Wed Mar 11 2026 09:30:29 GMT-0500 (Central Daylight Time),332666.8999999985,film,1100,O,z,z,None,596,397.0,199.0,48,1,2228.39999999851,330438.5,7756,hate,AF,B,329075,329075,327246,328359,327246,329474,328875,328875,329474,85
83,test,1,inc,1,m,Wed Mar 11 2026 09:30:29 GMT-0500 (Central Daylight Time),334850.299999997,friend,1100,O,m,m,None,550,350.0,200.0,112,1,2178.10000000149,332672.19999999553,7756,napkin,AF,B,331290,331290,329479,330589,329479,331657,331090,331090,331657,86
84,test,1,con,1,m,Wed Mar 11 2026 09:30:29 GMT-0500 (Central Daylight Time),336947.799999997,bell,800,O,m,m,None,761,562.0,199.0,81,1,2093.10000000149,334854.69999999553,7756,bell,AF,B,333190,333190,331662,332473,331662,333755,332990,332990,333755,87
85,test,1,con,1,z,Wed Mar 11 2026 09:30:29 GMT-0500 (Central Daylight Time),339097.8999999985,elated,900,O,z,z,None,725,525.0,200.0,2,1,2146.10000000149,336951.799999997,7756,elated,AF,B,335371,335371,333759,334670,333759,335905,335171,335171,335905,88
86,test,1,con,1,z,Wed Mar 11 2026 09:30:29 GMT-0500 (Central Daylight Time),341163.799999997,kind,1100,O,z,z,None,432,233.0,199.0,12,1,2060.89999999851,339102.8999999985,7756,kind,AF,B,337721,337721,335910,337020,335910,337971,337521,337521,337971,89
87,test,1,con,1,m,Wed Mar 11 2026 09:30:29 GMT-0500 (Central Daylight Time),342995.19999999553,rock,800,O,m,m,None,487,287.0,200.0,73,1,1826.6999999955297,341168.5,7756,rock,AF,B,339504,339504,337976,338787,337976,339802,339303,339303,339802,90
88,test,1,inc,1,z,Wed Mar 11 2026 09:30:29 GMT-0500 (Central Daylight Time),345263.19999999553,remote,1000,O,z,z,None,727,527.0,200.0,31,1,2264.7999999970198,342998.3999999985,7756,friend,AF,B,341537,341537,339805,340819,339806,342070,341337,341337,342070,91
88,test,1,con,0,z,Wed Mar 11 2026 09:30:29 GMT-0500 (Central Daylight Time),347683.799999997,brutal,900,O,m,m,None,971,771.0,200.0,34,1,2416.7999999970198,345267.0,7756,brutal,AF,B,343702,343702,342074,342986,342074,344491,343502,343502,344491,92
89,test,1,con,1,m,Wed Mar 11 2026 09:30:29 GMT-0500 (Central Daylight Time),349912.0,jacket,1000,O,m,m,None,685,485.0,200.0,99,1,2225.60000000149,347686.3999999985,7756,jacket,AF,B,346218,346218,344493,345502,344494,346719,346018,346018,346719,93
90,test,1,inc,1,m,Wed Mar 11 2026 09:30:29 GMT-0500 (Central Daylight Time),352043.299999997,love,1000,O,m,m,None,596,397.0,199.0,87,1,2126.60000000149,349916.69999999553,7756,bell,AF,B,348451,348451,346724,347735,346724,348850,348251,348251,348850,94
91,test,1,con,1,z,Wed Mar 11 2026 09:30:29 GMT-0500 (Central Daylight Time),354408.3999999985,hate,1100,O,z,z,None,724,509.0,215.0,44,1,2361.7000000029802,352046.69999999553,7756,hate,AF,B,350699,350699,348854,349968,348854,351215,350484,350484,351215,95
92,test,1,inc,1,m,Wed Mar 11 2026 09:30:29 GMT-0500 (Central Daylight Time),356359.09999999404,elated,800,O,m,m,None,611,410.0,201.0,117,1,1946.7999999970198,354412.299999997,7756,remote,AF,B,352750,352750,351219,352034,351220,353166,352549,352549,353166,96
93,test,1,con,1,z,Wed Mar 11 2026 09:30:29 GMT-0500 (Central Daylight Time),358574.799999997,temper,1100,O,z,z,None,577,376.0,201.0,60,1,2211.2000000029802,356363.59999999404,7756,temper,AF,B,355000,355000,353171,354283,353171,355382,354799,354799,355382,97
94,test,1,inc,1,z,Wed Mar 11 2026 09:30:29 GMT-0500 (Central Daylight Time),360573.19999999553,jacket,800,O,z,z,None,660,460.0,200.0,5,1,1994.3999999985099,358578.799999997,7756,elated,AF,B,356915,356915,355386,356199,355386,357380,356715,356715,357380,98
95,test,1,con,1,m,Wed Mar 11 2026 09:30:29 GMT-0500 (Central Daylight Time),362756.8999999985,window,1000,O,m,m,None,653,453.0,200.0,123,1,2180.3000000044703,360576.59999999404,7756,window,AF,B,359098,359098,357384,358397,357384,359564,358898,358898,359564,99
96,test,1,inc,1,z,Wed Mar 11 2026 09:30:29 GMT-0500 (Central Daylight Time),364805.799999997,rock,900,O,z,z,None,613,412.0,201.0,14,1,2043.3999999985099,362762.3999999985,7756,kind,AF,B,361197,361197,359569,360481,359570,361613,360996,360996,361613,100
97,test,1,inc,1,z,Wed Mar 11 2026 09:30:29 GMT-0500 (Central Daylight Time),367039.3999999985,film,1100,O,z,z,None,593,393.0,200.0,24,1,2229.60000000149,364809.799999997,7756,love,AF,B,363446,363446,361617,362730,361617,363846,363246,363246,363846,101
98,test,1,inc,1,m,Wed Mar 11 2026 09:30:29 GMT-0500 (Central Daylight Time),369087.19999999553,love,1000,O,m,m,None,516,317.0,199.0,71,1,2044.6000000014901,367042.59999999404,7756,step,AF,B,365562,365562,363850,364861,363850,365894,365362,365362,365894,102
99,test,1,inc,1,m,Wed Mar 11 2026 09:30:29 GMT-0500 (Central Daylight Time),371090.69999999553,brutal,900,O,m,m,None,550,335.0,215.0,102,1,1996.1000000014901,369094.59999999404,7756,jacket,AF,B,367544,367544,365902,366812,365902,367898,367329,367329,367898,103
100,test,1,con,1,z,Wed Mar 11 2026 09:30:29 GMT-0500 (Central Daylight Time),373019.19999999553,hate,800,O,z,z,None,587,388.0,199.0,41,1,1925.5,371093.69999999553,7756,hate,AF,B,369427,369427,367901,368712,367901,369826,369228,369228,369826,104
101,test,1,con,1,z,Wed Mar 11 2026 09:30:29 GMT-0500 (Central Daylight Time),375319.299999997,rage,1100,O,z,z,None,649,450.0,199.0,52,1,2293.5,373025.799999997,7756,rage,AF,B,371661,371661,369833,370944,369833,372126,371461,371461,372126,105
102,test,1,con,1,z,Wed Mar 11 2026 09:30:29 GMT-0500 (Central Daylight Time),377468.59999999404,friend,900,O,z,z,None,714,515.0,199.0,26,1,2143.1999999955297,375325.3999999985,7756,friend,AF,B,373760,373760,372132,373044,372133,374276,373560,373560,374276,106
103,test,1,inc,1,z,Wed Mar 11 2026 09:30:29 GMT-0500 (Central Daylight Time),379534.19999999553,napkin,900,O,z,z,None,618,418.0,200.0,38,1,2058.7999999970198,377475.3999999985,7756,brutal,AF,B,375909,375909,374282,375193,374283,376341,375708,375708,376341,107
104,test,1,inc,1,z,Wed Mar 11 2026 09:30:29 GMT-0500 (Central Daylight Time),381666.799999997,bell,1000,O,z,z,None,597,396.0,201.0,55,1,2126.7999999970198,379540.0,7756,rage,AF,B,378075,378076,376347,377358,376347,378474,377874,377874,378474,108
105,test,1,con,1,m,Wed Mar 11 2026 09:30:29 GMT-0500 (Central Daylight Time),383834.299999997,remote,800,O,m,m,None,823,623.0,200.0,113,1,2162.60000000149,381671.69999999553,7756,remote,AF,B,380008,380008,378479,379292,378479,380641,379808,379808,380641,109
106,test,1,con,1,z,Wed Mar 11 2026 09:30:29 GMT-0500 (Central Daylight Time),385965.69999999553,friend,1000,O,z,z,None,586,385.0,201.0,27,1,2126.39999999851,383839.299999997,7756,friend,AF,B,382375,382375,380646,381658,380647,382773,382173,382173,382773,110
107,test,1,con,1,z,Wed Mar 11 2026 09:30:29 GMT-0500 (Central Daylight Time),388031.299999997,rage,1000,O,z,z,None,525,325.0,200.0,51,1,2060.89999999851,385970.3999999985,7756,rage,AF,B,384507,384507,382777,383791,382778,384838,384307,384307,384838,111
108,test,1,con,1,m,Wed Mar 11 2026 09:30:29 GMT-0500 (Central Daylight Time),390081.69999999553,rock,1100,O,m,m,None,416,216.0,200.0,76,1,2044.6999999955297,388037.0,7756,rock,AF,B,386656,386656,384844,385954,384844,386889,386456,386456,386889,112
109,test,1,con,1,z,Wed Mar 11 2026 09:30:29 GMT-0500 (Central Daylight Time),391881.8999999985,kind,800,O,z,z,None,450,250.0,200.0,9,1,1794.1000000014901,390087.799999997,7756,kind,AF,B,388422,388422,386895,387707,386895,388689,388222,388222,388689,113
109,test,1,inc,0,m,Wed Mar 11 2026 09:30:29 GMT-0500 (Central Daylight Time),394129.09999999404,friend,1100,O,z,z,None,614,414.0,200.0,120,1,2240.0,391889.09999999404,7756,remote,AF,B,390522,390522,388696,389804,388696,390936,390320,390321,390936,114
110,test,1,con,1,m,Wed Mar 11 2026 09:30:29 GMT-0500 (Central Daylight Time),396210.299999997,remote,900,O,m,m,None,637,436.0,201.0,114,1,2075.7999999970198,394134.5,7756,remote,AF,B,392571,392571,390942,391853,390942,393017,392370,392370,393017,115
111,test,1,con,1,m,Wed Mar 11 2026 09:30:29 GMT-0500 (Central Daylight Time),398043.59999999404,step,900,O,m,m,None,403,203.0,200.0,66,1,1830.5999999940395,396213.0,7756,step,AF,B,394636,394636,393020,393935,393020,394851,394436,394436,394851,116
112,test,1,inc,1,z,Wed Mar 11 2026 09:30:29 GMT-0500 (Central Daylight Time),400346.09999999404,film,1100,O,z,z,None,651,452.0,199.0,56,1,2299.89999999851,398046.19999999553,7756,rage,AF,B,396685,396685,394853,395969,394853,397153,396486,396486,397153,117
113,test,1,con,1,z,Wed Mar 11 2026 09:30:29 GMT-0500 (Central Daylight Time),402093.8999999985,rage,800,O,z,z,None,411,209.0,202.0,49,1,1742.3000000044703,400351.59999999404,7756,rage,AF,B,398687,398687,397159,397971,397159,398901,398484,398484,398901,118
114,test,1,con,1,z,Wed Mar 11 2026 09:30:29 GMT-0500 (Central Daylight Time),403926.69999999553,friend,800,O,z,z,None,486,285.0,201.0,25,1,1828.6999999955297,402098.0,7756,friend,AF,B,400435,400435,398905,399718,398905,400734,400234,400234,400734,119
115,test,1,inc,1,z,Wed Mar 11 2026 09:30:29 GMT-0500 (Central Daylight Time),406109.3999999985,jacket,800,O,z,z,None,850,637.0,213.0,61,1,2178.2000000029802,403931.19999999553,7756,temper,AF,B,402266,402267,400738,401551,400739,402916,402053,402053,402916,120
116,test,1,inc,1,z,Wed Mar 11 2026 09:30:29 GMT-0500 (Central Daylight Time),408108.59999999404,jacket,800,O,z,z,None,660,446.0,214.0,29,1,1993.1999999955297,406115.3999999985,7756,friend,AF,B,404466,404466,402922,403735,402923,404916,404251,404251,404916,121
117,test,1,inc,1,m,Wed Mar 11 2026 09:30:29 GMT-0500 (Central Daylight Time),410241.8999999985,love,1000,O,m,m,None,590,391.0,199.0,79,1,2127.89999999851,408114.0,7756,rock,AF,B,406649,406649,404921,405933,404921,407049,406449,406449,407049,122
118,test,1,inc,1,m,Wed Mar 11 2026 09:30:29 GMT-0500 (Central Daylight Time),412440.19999999553,friend,1100,O,m,m,None,551,350.0,201.0,128,1,2192.5,410247.69999999553,7756,window,AF,B,408882,408882,407055,408166,407055,409247,408681,408681,409247,123
119,test,1,inc,1,z,Wed Mar 11 2026 09:30:29 GMT-0500 (Central Daylight Time),414689.5,window,1100,O,z,z,None,607,406.0,201.0,32,1,2242.8000000044703,412446.69999999553,7756,friend,AF,B,411082,411082,409254,410364,409254,411497,410881,410881,411497,124
120,test,1,inc,1,z,Wed Mar 11 2026 09:30:29 GMT-0500 (Central Daylight Time),416640.69999999553,step,800,O,z,z,None,617,418.0,199.0,21,1,1945.2999999970198,414695.3999999985,7756,love,AF,B,413030,413030,411502,412314,411503,413448,412830,412830,413448,125
121,test,1,con,1,z,Wed Mar 11 2026 09:30:29 GMT-0500 (Central Daylight Time),418521.19999999553,love,800,O,z,z,None,541,326.0,215.0,17,1,1876.6999999955297,416644.5,7756,love,AF,B,414996,414996,413452,414265,413452,415328,414780,414780,415328,126
122,test,1,inc,1,z,Wed Mar 11 2026 09:30:29 GMT-0500 (Central Daylight Time),420538.5,jacket,800,O,z,z,None,681,478.0,203.0,37,1,2014.7000000029802,418523.799999997,7756,brutal,AF,B,416865,416865,415331,416146,415331,417346,416662,416662,417346,127
123,test,1,con,1,m,Wed Mar 11 2026 09:30:29 GMT-0500 (Central Daylight Time),422653.69999999553,rock,900,O,m,m,None,694,495.0,199.0,74,1,2112.39999999851,420541.299999997,7756,rock,AF,B,418961,418961,417348,418261,417349,419461,418762,418762,419461,128
