block_c,block_dur,condition,countdown,datetime,endtime,list,multichar_response,project,response,response_time,session_number,start_end,starttime,subject_id,task,task_vers,trial
,,,,Wed May 13 2026 11:16:38 GMT-0500 (Central Daylight Time),,,,O,space,723,1,,,7800,WL,B,
prac,,0,,Wed May 13 2026 11:16:38 GMT-0500 (Central Daylight Time),,NA,b,O,b,4591,1,,,7800,WL,B,1.0
prac,,0,,Wed May 13 2026 11:16:38 GMT-0500 (Central Daylight Time),,NA,bo,O,o,188,1,,,7800,WL,B,1.0
prac,,0,,Wed May 13 2026 11:16:38 GMT-0500 (Central Daylight Time),,NA,boo,O,o,113,1,,,7800,WL,B,1.0
prac,,0,,Wed May 13 2026 11:16:38 GMT-0500 (Central Daylight Time),,NA,boos,O,s,194,1,,,7800,WL,B,1.0
prac,,0,,Wed May 13 2026 11:16:38 GMT-0500 (Central Daylight Time),,NA,boost,O,t,267,1,,,7800,WL,B,1.0
prac,,0,,Wed May 13 2026 11:16:38 GMT-0500 (Central Daylight Time),,NA,boostenter,O,enter,4441,1,,,7800,WL,B,1.0
1,7.33299994468689,learn,52667.00005531311,Wed May 13 2026 11:16:38 GMT-0500 (Central Daylight Time),196661.90000000596,A,w,O,w,7304,1,7331.70000000298,189330.20000000298,7800,WL,B,1.0
1,7.497999906539917,learn,52502.00009346008,Wed May 13 2026 11:16:38 GMT-0500 (Central Daylight Time),196826.30000001192,A,wi,O,i,146,1,7496.100000008941,189330.20000000298,7800,WL,B,1.0
1,8.38099980354309,learn,51619.00019645691,Wed May 13 2026 11:16:38 GMT-0500 (Central Daylight Time),197709.20000000298,A,wif,O,f,866,1,8379.0,189330.20000000298,7800,WL,B,1.0
1,8.979999780654907,learn,51020.00021934509,Wed May 13 2026 11:16:38 GMT-0500 (Central Daylight Time),198309.10000000894,A,wife,O,e,579,1,8978.90000000596,189330.20000000298,7800,WL,B,1.0
1,17.244999885559082,learn,42755.00011444092,Wed May 13 2026 11:16:38 GMT-0500 (Central Daylight Time),206573.80000001192,A,wifeenter,O,enter,8256,1,17243.60000000894,189330.20000000298,7800,WL,B,1.0
1,18.26199984550476,learn,41738.00015449524,Wed May 13 2026 11:16:38 GMT-0500 (Central Daylight Time),207590.60000000894,A,w,O,w,1006,1,1016.2999999970198,206574.30000001192,7800,WL,B,2.0
1,18.377999782562256,learn,41622.000217437744,Wed May 13 2026 11:16:38 GMT-0500 (Central Daylight Time),207706.40000000596,A,wi,O,i,101,1,1132.0999999940395,206574.30000001192,7800,WL,B,2.0
1,18.562999963760376,learn,41437.000036239624,Wed May 13 2026 11:16:38 GMT-0500 (Central Daylight Time),207891.60000000894,A,win,O,n,174,1,1317.2999999970198,206574.30000001192,7800,WL,B,2.0
1,18.643999814987183,learn,41356.00018501282,Wed May 13 2026 11:16:38 GMT-0500 (Central Daylight Time),207972.70000000298,A,wind,O,d,73,1,1398.3999999910593,206574.30000001192,7800,WL,B,2.0
1,18.759999990463257,learn,41240.00000953674,Wed May 13 2026 11:16:38 GMT-0500 (Central Daylight Time),208088.60000000894,A,windo,O,o,103,1,1514.2999999970198,206574.30000001192,7800,WL,B,2.0
1,18.92899990081787,learn,41071.00009918213,Wed May 13 2026 11:16:38 GMT-0500 (Central Daylight Time),208257.60000000894,A,window,O,w,149,1,1683.2999999970198,206574.30000001192,7800,WL,B,2.0
1,19.625999927520752,learn,40374.00007247925,Wed May 13 2026 11:16:38 GMT-0500 (Central Daylight Time),208954.70000000298,A,windowenter,O,enter,676,1,2380.3999999910593,206574.30000001192,7800,WL,B,2.0
1,21.359999895095825,learn,38640.000104904175,Wed May 13 2026 11:16:38 GMT-0500 (Central Daylight Time),210688.70000000298,A,s,O,s,1720,1,1733.7000000029802,208955.0,7800,WL,B,3.0
1,21.57799983024597,learn,38422.00016975403,Wed May 13 2026 11:16:38 GMT-0500 (Central Daylight Time),210906.80000001192,A,st,O,t,204,1,1951.800000011921,208955.0,7800,WL,B,3.0
1,22.210999965667725,learn,37789.000034332275,Wed May 13 2026 11:16:38 GMT-0500 (Central Daylight Time),211539.60000000894,A,ste,O,e,618,1,2584.6000000089407,208955.0,7800,WL,B,3.0
1,22.376999855041504,learn,37623.000144958496,Wed May 13 2026 11:16:38 GMT-0500 (Central Daylight Time),211705.80000001192,A,stee,O,e,150,1,2750.800000011921,208955.0,7800,WL,B,3.0
1,22.608999967575073,learn,37391.00003242493,Wed May 13 2026 11:16:38 GMT-0500 (Central Daylight Time),211938.10000000894,A,steet,O,t,223,1,2983.1000000089407,208955.0,7800,WL,B,3.0
1,23.025999784469604,learn,36974.000215530396,Wed May 13 2026 11:16:38 GMT-0500 (Central Daylight Time),212355.0,A,steetenter,O,enter,403,1,3400.0,208955.0,7800,WL,B,3.0
1,23.59599995613098,learn,36404.00004386902,Wed May 13 2026 11:16:38 GMT-0500 (Central Daylight Time),212924.20000000298,A,g,O,g,561,1,568.8999999910593,212355.30000001192,7800,WL,B,4.0
1,23.875,learn,36125.0,Wed May 13 2026 11:16:38 GMT-0500 (Central Daylight Time),213203.80000001192,A,gr,O,r,260,1,848.5,212355.30000001192,7800,WL,B,4.0
1,24.009999990463257,learn,35990.00000953674,Wed May 13 2026 11:16:38 GMT-0500 (Central Daylight Time),213338.60000000894,A,gra,O,a,122,1,983.2999999970198,212355.30000001192,7800,WL,B,4.0
1,24.425999879837036,learn,35574.000120162964,Wed May 13 2026 11:16:38 GMT-0500 (Central Daylight Time),213754.90000000596,A,gras,O,s,408,1,1399.5999999940395,212355.30000001192,7800,WL,B,4.0
1,24.57799983024597,learn,35422.00016975403,Wed May 13 2026 11:16:38 GMT-0500 (Central Daylight Time),213906.70000000298,A,grass,O,s,126,1,1551.3999999910593,212355.30000001192,7800,WL,B,4.0
1,25.492999792099,learn,34507.000207901,Wed May 13 2026 11:16:38 GMT-0500 (Central Daylight Time),214821.20000000298,A,grassenter,O,enter,896,1,2465.8999999910593,212355.30000001192,7800,WL,B,4.0
1,29.242999792099,learn,30757.000207901,Wed May 13 2026 11:16:38 GMT-0500 (Central Daylight Time),218571.30000001192,A,l,O,l,3735,1,3749.800000011921,214821.5,7800,WL,B,5.0
1,29.47499990463257,learn,30525.00009536743,Wed May 13 2026 11:16:38 GMT-0500 (Central Daylight Time),218803.30000001192,A,la,O,a,215,1,3981.800000011921,214821.5,7800,WL,B,5.0
1,29.691999912261963,learn,30308.000087738037,Wed May 13 2026 11:16:38 GMT-0500 (Central Daylight Time),219020.20000000298,A,lak,O,k,210,1,4198.70000000298,214821.5,7800,WL,B,5.0
1,29.991999864578247,learn,30008.000135421753,Wed May 13 2026 11:16:38 GMT-0500 (Central Daylight Time),219320.40000000596,A,lake,O,e,288,1,4498.9000000059605,214821.5,7800,WL,B,5.0
1,31.507999897003174,learn,28492.000102996826,Wed May 13 2026 11:16:38 GMT-0500 (Central Daylight Time),220836.30000001192,A,lakeenter,O,enter,1498,1,6014.800000011921,214821.5,7800,WL,B,5.0
1,32.156999826431274,learn,27843.000173568726,Wed May 13 2026 11:16:38 GMT-0500 (Central Daylight Time),221485.30000001192,A,s,O,s,631,1,648.7000000029802,220836.60000000894,7800,WL,B,6.0
1,32.35699987411499,learn,27643.00012588501,Wed May 13 2026 11:16:38 GMT-0500 (Central Daylight Time),221685.90000000596,A,st,O,t,193,1,849.2999999970198,220836.60000000894,7800,WL,B,6.0
1,32.556999921798706,learn,27443.000078201294,Wed May 13 2026 11:16:38 GMT-0500 (Central Daylight Time),221885.40000000596,A,sta,O,a,181,1,1048.7999999970198,220836.60000000894,7800,WL,B,6.0
1,32.806999921798706,learn,27193.000078201294,Wed May 13 2026 11:16:38 GMT-0500 (Central Daylight Time),222135.70000000298,A,star,O,r,238,1,1299.0999999940395,220836.60000000894,7800,WL,B,6.0
1,33.12299990653992,learn,26877.000093460083,Wed May 13 2026 11:16:38 GMT-0500 (Central Daylight Time),222451.60000000894,A,starenter,O,enter,307,1,1615.0,220836.60000000894,7800,WL,B,6.0
1,34.43999981880188,learn,25560.00018119812,Wed May 13 2026 11:16:38 GMT-0500 (Central Daylight Time),223768.20000000298,A,a,O,a,1303,1,1316.2999999970198,222451.90000000596,7800,WL,B,7.0
1,34.621999979019165,learn,25378.000020980835,Wed May 13 2026 11:16:38 GMT-0500 (Central Daylight Time),223951.10000000894,A,ar,O,r,165,1,1499.2000000029802,222451.90000000596,7800,WL,B,7.0
1,34.95599985122681,learn,25044.000148773193,Wed May 13 2026 11:16:38 GMT-0500 (Central Daylight Time),224284.10000000894,A,arm,O,m,323,1,1832.2000000029802,222451.90000000596,7800,WL,B,7.0
1,35.68899989128113,learn,24311.000108718872,Wed May 13 2026 11:16:38 GMT-0500 (Central Daylight Time),225017.60000000894,A,armenter,O,enter,720,1,2565.7000000029802,222451.90000000596,7800,WL,B,7.0
1,36.50599980354309,learn,23494.00019645691,Wed May 13 2026 11:16:38 GMT-0500 (Central Daylight Time),225834.5,A,f,O,f,802,1,816.5999999940395,225017.90000000596,7800,WL,B,8.0
1,36.6729998588562,learn,23327.0001411438,Wed May 13 2026 11:16:38 GMT-0500 (Central Daylight Time),226001.5,A,fi,O,i,147,1,983.5999999940395,225017.90000000596,7800,WL,B,8.0
1,36.906999826431274,learn,23093.000173568726,Wed May 13 2026 11:16:38 GMT-0500 (Central Daylight Time),226235.40000000596,A,fir,O,r,227,1,1217.5,225017.90000000596,7800,WL,B,8.0
1,37.24000000953674,learn,22759.999990463257,Wed May 13 2026 11:16:38 GMT-0500 (Central Daylight Time),226569.0,A,fire,O,e,312,1,1551.0999999940395,225017.90000000596,7800,WL,B,8.0
1,38.38800001144409,learn,21611.99998855591,Wed May 13 2026 11:16:38 GMT-0500 (Central Daylight Time),227716.5,A,fireenter,O,enter,1138,1,2698.5999999940395,225017.90000000596,7800,WL,B,8.0
1,43.2039999961853,learn,16796.000003814697,Wed May 13 2026 11:16:38 GMT-0500 (Central Daylight Time),232532.40000000596,A,s,O,s,4794,1,4815.5999999940395,227716.80000001192,7800,WL,B,9.0
1,43.38800001144409,learn,16611.99998855591,Wed May 13 2026 11:16:38 GMT-0500 (Central Daylight Time),232716.30000001192,A,sk,O,k,168,1,4999.5,227716.80000001192,7800,WL,B,9.0
1,43.55499982833862,learn,16445.000171661377,Wed May 13 2026 11:16:38 GMT-0500 (Central Daylight Time),232883.80000001192,A,ski,O,i,161,1,5167.0,227716.80000001192,7800,WL,B,9.0
1,43.770999908447266,learn,16229.000091552734,Wed May 13 2026 11:16:38 GMT-0500 (Central Daylight Time),233099.80000001192,A,skin,O,n,201,1,5383.0,227716.80000001192,7800,WL,B,9.0
1,44.1710000038147,learn,15828.999996185303,Wed May 13 2026 11:16:38 GMT-0500 (Central Daylight Time),233499.30000001192,A,skinenter,O,enter,383,1,5782.5,227716.80000001192,7800,WL,B,9.0
1,51.08399987220764,learn,8916.000127792358,Wed May 13 2026 11:16:38 GMT-0500 (Central Daylight Time),240412.70000000298,A,s,O,s,6897,1,6913.0999999940395,233499.60000000894,7800,WL,B,10.0
1,51.401999950408936,learn,8598.000049591064,Wed May 13 2026 11:16:38 GMT-0500 (Central Daylight Time),240731.40000000596,A,st,O,t,313,1,7231.79999999702,233499.60000000894,7800,WL,B,10.0
1,51.717000007629395,learn,8282.999992370605,Wed May 13 2026 11:16:38 GMT-0500 (Central Daylight Time),241046.0,A,ste,O,e,293,1,7546.399999991059,233499.60000000894,7800,WL,B,10.0
1,52.16699981689453,learn,7833.000183105469,Wed May 13 2026 11:16:38 GMT-0500 (Central Daylight Time),241496.20000000298,A,step,O,p,439,1,7996.5999999940395,233499.60000000894,7800,WL,B,10.0
1,53.400999784469604,learn,6599.0002155303955,Wed May 13 2026 11:16:38 GMT-0500 (Central Daylight Time),242729.80000001192,A,stepenter,O,enter,1212,1,9230.20000000298,233499.60000000894,7800,WL,B,10.0
1,60.014999866485596,learn,-14.999866485595703,Wed May 13 2026 11:16:38 GMT-0500 (Central Daylight Time),249344.10000000894,A,None,O,None,6609,1,6614.0,242730.10000000894,7800,WL,B,11.0
2,1.6500000953674316,learn,58349.99990463257,Wed May 13 2026 11:16:38 GMT-0500 (Central Daylight Time),322903.10000000894,A,w,O,w,1639,1,1649.6000000089407,321253.5,7800,WL,B,1.0
2,1.8680000305175781,learn,58131.99996948242,Wed May 13 2026 11:16:38 GMT-0500 (Central Daylight Time),323121.40000000596,A,wi,O,i,213,1,1867.9000000059605,321253.5,7800,WL,B,1.0
2,2.134000062942505,learn,57865.999937057495,Wed May 13 2026 11:16:38 GMT-0500 (Central Daylight Time),323387.700000003,A,wif,O,f,251,1,2134.2000000029802,321253.5,7800,WL,B,1.0
2,2.384000062942505,learn,57615.999937057495,Wed May 13 2026 11:16:38 GMT-0500 (Central Daylight Time),323637.10000000894,A,wife,O,e,233,1,2383.6000000089407,321253.5,7800,WL,B,1.0
2,3.06600022315979,learn,56933.99977684021,Wed May 13 2026 11:16:38 GMT-0500 (Central Daylight Time),324319.200000003,A,wifeenter,O,enter,670,1,3065.7000000029802,321253.5,7800,WL,B,1.0
2,3.6480000019073486,learn,56351.99999809265,Wed May 13 2026 11:16:38 GMT-0500 (Central Daylight Time),324901.0,A,c,O,c,564,1,581.5999999940395,324319.40000000596,7800,WL,B,2.0
2,3.817000150680542,learn,56182.99984931946,Wed May 13 2026 11:16:38 GMT-0500 (Central Daylight Time),325070.5,A,ci,O,i,152,1,751.0999999940395,324319.40000000596,7800,WL,B,2.0
2,4.118000030517578,learn,55881.99996948242,Wed May 13 2026 11:16:38 GMT-0500 (Central Daylight Time),325371.0,A,cit,O,t,286,1,1051.5999999940395,324319.40000000596,7800,WL,B,2.0
2,4.366000175476074,learn,55633.999824523926,Wed May 13 2026 11:16:38 GMT-0500 (Central Daylight Time),325619.0,A,city,O,y,234,1,1299.5999999940395,324319.40000000596,7800,WL,B,2.0
2,4.866000175476074,learn,55133.999824523926,Wed May 13 2026 11:16:38 GMT-0500 (Central Daylight Time),326119.200000003,A,cityenter,O,enter,479,1,1799.7999999970198,324319.40000000596,7800,WL,B,2.0
2,7.54800009727478,learn,52451.99990272522,Wed May 13 2026 11:16:38 GMT-0500 (Central Daylight Time),328801.700000003,A,w,O,w,2677,1,2682.2000000029802,326119.5,7800,WL,B,3.0
2,7.6650002002716064,learn,52334.99979972839,Wed May 13 2026 11:16:38 GMT-0500 (Central Daylight Time),328918.40000000596,A,wi,O,i,107,1,2798.9000000059605,326119.5,7800,WL,B,3.0
2,7.831000089645386,learn,52168.999910354614,Wed May 13 2026 11:16:38 GMT-0500 (Central Daylight Time),329085.0,A,win,O,n,161,1,2965.5,326119.5,7800,WL,B,3.0
2,7.966000080108643,learn,52033.99991989136,Wed May 13 2026 11:16:38 GMT-0500 (Central Daylight Time),329219.40000000596,A,wind,O,d,128,1,3099.9000000059605,326119.5,7800,WL,B,3.0
2,8.081000089645386,learn,51918.999910354614,Wed May 13 2026 11:16:38 GMT-0500 (Central Daylight Time),329334.5,A,windo,O,o,103,1,3215.0,326119.5,7800,WL,B,3.0
2,8.348000049591064,learn,51651.999950408936,Wed May 13 2026 11:16:38 GMT-0500 (Central Daylight Time),329601.5,A,window,O,w,254,1,3482.0,326119.5,7800,WL,B,3.0
2,8.699000120162964,learn,51300.999879837036,Wed May 13 2026 11:16:38 GMT-0500 (Central Daylight Time),329951.90000000596,A,windowenter,O,enter,331,1,3832.4000000059605,326119.5,7800,WL,B,3.0
2,9.21500015258789,learn,50784.99984741211,Wed May 13 2026 11:16:38 GMT-0500 (Central Daylight Time),330468.40000000596,A,d,O,d,502,1,516.0999999940395,329952.3000000119,7800,WL,B,4.0
2,9.398000001907349,learn,50601.99999809265,Wed May 13 2026 11:16:38 GMT-0500 (Central Daylight Time),330651.0,A,do,O,o,168,1,698.6999999880791,329952.3000000119,7800,WL,B,4.0
2,9.532000064849854,learn,50467.99993515015,Wed May 13 2026 11:16:38 GMT-0500 (Central Daylight Time),330785.40000000596,A,doo,O,o,112,1,833.0999999940395,329952.3000000119,7800,WL,B,4.0
2,9.79800009727478,learn,50201.99990272522,Wed May 13 2026 11:16:38 GMT-0500 (Central Daylight Time),331051.5,A,door,O,r,262,1,1099.199999988079,329952.3000000119,7800,WL,B,4.0
2,10.115000009536743,learn,49884.99999046326,Wed May 13 2026 11:16:38 GMT-0500 (Central Daylight Time),331368.10000000894,A,doorenter,O,enter,296,1,1415.7999999970198,329952.3000000119,7800,WL,B,4.0
2,12.981000185012817,learn,47018.99981498718,Wed May 13 2026 11:16:38 GMT-0500 (Central Daylight Time),334234.0,A,s,O,s,2853,1,2865.699999988079,331368.3000000119,7800,WL,B,5.0
2,13.28000020980835,learn,46719.99979019165,Wed May 13 2026 11:16:38 GMT-0500 (Central Daylight Time),334533.60000000894,A,st,O,t,291,1,3165.2999999970198,331368.3000000119,7800,WL,B,5.0
2,13.828999996185303,learn,46171.0000038147,Wed May 13 2026 11:16:38 GMT-0500 (Central Daylight Time),335082.0,A,ste,O,e,543,1,3713.699999988079,331368.3000000119,7800,WL,B,5.0
2,13.997000217437744,learn,46002.999782562256,Wed May 13 2026 11:16:38 GMT-0500 (Central Daylight Time),335250.40000000596,A,stee,O,e,163,1,3882.0999999940395,331368.3000000119,7800,WL,B,5.0
2,14.229000091552734,learn,45770.999908447266,Wed May 13 2026 11:16:38 GMT-0500 (Central Daylight Time),335482.5,A,steet,O,t,224,1,4114.199999988079,331368.3000000119,7800,WL,B,5.0
2,14.629000186920166,learn,45370.999813079834,Wed May 13 2026 11:16:38 GMT-0500 (Central Daylight Time),335882.60000000894,A,steetenter,O,enter,392,1,4514.29999999702,331368.3000000119,7800,WL,B,5.0
2,15.213000059127808,learn,44786.99994087219,Wed May 13 2026 11:16:38 GMT-0500 (Central Daylight Time),336466.60000000894,A,g,O,g,563,1,583.7000000029802,335882.90000000596,7800,WL,B,6.0
2,15.446000099182129,learn,44553.99990081787,Wed May 13 2026 11:16:38 GMT-0500 (Central Daylight Time),336699.0,A,gr,O,r,223,1,816.0999999940395,335882.90000000596,7800,WL,B,6.0
2,15.695000171661377,learn,44304.99982833862,Wed May 13 2026 11:16:38 GMT-0500 (Central Daylight Time),336948.700000003,A,gra,O,a,231,1,1065.7999999970198,335882.90000000596,7800,WL,B,6.0
2,16.01200008392334,learn,43987.99991607666,Wed May 13 2026 11:16:38 GMT-0500 (Central Daylight Time),337265.60000000894,A,gras,O,s,311,1,1382.7000000029802,335882.90000000596,7800,WL,B,6.0
2,16.145000219345093,learn,43854.99978065491,Wed May 13 2026 11:16:38 GMT-0500 (Central Daylight Time),337398.90000000596,A,grass,O,s,113,1,1516.0,335882.90000000596,7800,WL,B,6.0
2,16.42900013923645,learn,43570.99986076355,Wed May 13 2026 11:16:38 GMT-0500 (Central Daylight Time),337682.60000000894,A,grassenter,O,enter,278,1,1799.7000000029802,335882.90000000596,7800,WL,B,6.0
2,17.26200008392334,learn,42737.99991607666,Wed May 13 2026 11:16:38 GMT-0500 (Central Daylight Time),338515.8000000119,A,l,O,l,818,1,832.9000000059605,337682.90000000596,7800,WL,B,7.0
2,17.42900013923645,learn,42570.99986076355,Wed May 13 2026 11:16:38 GMT-0500 (Central Daylight Time),338682.3000000119,A,la,O,a,145,1,999.4000000059605,337682.90000000596,7800,WL,B,7.0
2,17.597000122070312,learn,42402.99987792969,Wed May 13 2026 11:16:38 GMT-0500 (Central Daylight Time),338849.90000000596,A,lak,O,k,162,1,1167.0,337682.90000000596,7800,WL,B,7.0
2,17.81500005722046,learn,42184.99994277954,Wed May 13 2026 11:16:38 GMT-0500 (Central Daylight Time),339068.10000000894,A,lake,O,e,201,1,1385.2000000029802,337682.90000000596,7800,WL,B,7.0
2,18.1780002117157,learn,41821.9997882843,Wed May 13 2026 11:16:38 GMT-0500 (Central Daylight Time),339431.60000000894,A,lakeenter,O,enter,353,1,1748.7000000029802,337682.90000000596,7800,WL,B,7.0
2,19.41200017929077,learn,40587.99982070923,Wed May 13 2026 11:16:38 GMT-0500 (Central Daylight Time),340665.40000000596,A,f,O,f,1212,1,1233.5,339431.90000000596,7800,WL,B,8.0
2,20.527000188827515,learn,39472.999811172485,Wed May 13 2026 11:16:38 GMT-0500 (Central Daylight Time),341780.90000000596,A,fi,O,i,1097,1,2349.0,339431.90000000596,7800,WL,B,8.0
2,20.828999996185303,learn,39171.0000038147,Wed May 13 2026 11:16:38 GMT-0500 (Central Daylight Time),342081.90000000596,A,fir,O,r,280,1,2650.0,339431.90000000596,7800,WL,B,8.0
2,20.979000091552734,learn,39020.999908447266,Wed May 13 2026 11:16:38 GMT-0500 (Central Daylight Time),342232.8000000119,A,fire,O,e,130,1,2800.9000000059605,339431.90000000596,7800,WL,B,8.0
2,22.4280002117157,learn,37571.9997882843,Wed May 13 2026 11:16:38 GMT-0500 (Central Daylight Time),343681.0,A,fireenter,O,enter,1435,1,4249.0999999940395,339431.90000000596,7800,WL,B,8.0
2,23.177000045776367,learn,36822.99995422363,Wed May 13 2026 11:16:38 GMT-0500 (Central Daylight Time),344430.0,A,c,O,c,740,1,748.6999999880791,343681.3000000119,7800,WL,B,9.0
2,23.342000007629395,learn,36657.999992370605,Wed May 13 2026 11:16:38 GMT-0500 (Central Daylight Time),344595.60000000894,A,cl,O,l,158,1,914.2999999970198,343681.3000000119,7800,WL,B,9.0
2,23.526000022888184,learn,36473.99997711182,Wed May 13 2026 11:16:38 GMT-0500 (Central Daylight Time),344779.200000003,A,clo,O,o,168,1,1097.8999999910593,343681.3000000119,7800,WL,B,9.0
2,23.89300012588501,learn,36106.99987411499,Wed May 13 2026 11:16:38 GMT-0500 (Central Daylight Time),345146.3000000119,A,cloc,O,c,363,1,1465.0,343681.3000000119,7800,WL,B,9.0
2,24.16000008583069,learn,35839.99991416931,Wed May 13 2026 11:16:38 GMT-0500 (Central Daylight Time),345413.200000003,A,clock,O,k,246,1,1731.8999999910593,343681.3000000119,7800,WL,B,9.0
2,24.62600016593933,learn,35373.99983406067,Wed May 13 2026 11:16:38 GMT-0500 (Central Daylight Time),345879.60000000894,A,clockenter,O,enter,445,1,2198.2999999970198,343681.3000000119,7800,WL,B,9.0
2,26.55900001525879,learn,33440.99998474121,Wed May 13 2026 11:16:38 GMT-0500 (Central Daylight Time),347812.8000000119,A,a,O,a,1925,1,1933.0,345879.8000000119,7800,WL,B,10.0
2,26.87600016593933,learn,33123.99983406067,Wed May 13 2026 11:16:38 GMT-0500 (Central Daylight Time),348129.200000003,A,ar,O,r,295,1,2249.3999999910593,345879.8000000119,7800,WL,B,10.0
2,27.12600016593933,learn,32873.99983406067,Wed May 13 2026 11:16:38 GMT-0500 (Central Daylight Time),348379.60000000894,A,arm,O,m,242,1,2499.7999999970198,345879.8000000119,7800,WL,B,10.0
2,27.509000062942505,learn,32490.999937057495,Wed May 13 2026 11:16:38 GMT-0500 (Central Daylight Time),348761.90000000596,A,armenter,O,enter,360,1,2882.0999999940395,345879.8000000119,7800,WL,B,10.0
2,27.975000143051147,learn,32024.999856948853,Wed May 13 2026 11:16:38 GMT-0500 (Central Daylight Time),349228.200000003,A,s,O,s,450,1,466.0,348762.200000003,7800,WL,B,11.0
2,28.225000143051147,learn,31774.999856948853,Wed May 13 2026 11:16:38 GMT-0500 (Central Daylight Time),349478.60000000894,A,st,O,t,239,1,716.4000000059605,348762.200000003,7800,WL,B,11.0
2,28.407000064849854,learn,31592.999935150146,Wed May 13 2026 11:16:38 GMT-0500 (Central Daylight Time),349660.8000000119,A,sta,O,a,173,1,898.6000000089407,348762.200000003,7800,WL,B,11.0
2,28.7260000705719,learn,31273.9999294281,Wed May 13 2026 11:16:38 GMT-0500 (Central Daylight Time),349979.200000003,A,star,O,r,312,1,1217.0,348762.200000003,7800,WL,B,11.0
2,29.592000007629395,learn,30407.999992370605,Wed May 13 2026 11:16:38 GMT-0500 (Central Daylight Time),350845.5,A,starenter,O,enter,849,1,2083.2999999970198,348762.200000003,7800,WL,B,11.0
2,30.141000032424927,learn,29858.999967575073,Wed May 13 2026 11:16:38 GMT-0500 (Central Daylight Time),351394.0,A,c,O,c,535,1,548.2999999970198,350845.700000003,7800,WL,B,12.0
2,30.374000072479248,learn,29625.999927520752,Wed May 13 2026 11:16:38 GMT-0500 (Central Daylight Time),351627.8000000119,A,ca,O,a,218,1,782.1000000089407,350845.700000003,7800,WL,B,12.0
2,30.85700011253357,learn,29142.99988746643,Wed May 13 2026 11:16:38 GMT-0500 (Central Daylight Time),352110.90000000596,A,cab,O,b,472,1,1265.2000000029802,350845.700000003,7800,WL,B,12.0
2,31.04100012779236,learn,28958.99987220764,Wed May 13 2026 11:16:38 GMT-0500 (Central Daylight Time),352294.40000000596,A,cabi,O,i,175,1,1448.7000000029802,350845.700000003,7800,WL,B,12.0
2,31.29100012779236,learn,28708.99987220764,Wed May 13 2026 11:16:38 GMT-0500 (Central Daylight Time),352544.10000000894,A,cabin,O,n,236,1,1698.4000000059605,350845.700000003,7800,WL,B,12.0
2,31.94000005722046,learn,28059.99994277954,Wed May 13 2026 11:16:38 GMT-0500 (Central Daylight Time),353193.60000000894,A,cabinenter,O,enter,637,1,2347.9000000059605,350845.700000003,7800,WL,B,12.0
2,43.98700022697449,learn,16012.999773025513,Wed May 13 2026 11:16:38 GMT-0500 (Central Daylight Time),365240.5,A,f,O,f,12035,1,12046.699999988079,353193.8000000119,7800,WL,B,13.0
2,44.11900019645691,learn,15880.99980354309,Wed May 13 2026 11:16:38 GMT-0500 (Central Daylight Time),365373.200000003,A,fi,O,i,115,1,12179.39999999106,353193.8000000119,7800,WL,B,13.0
2,44.35199999809265,learn,15648.000001907349,Wed May 13 2026 11:16:38 GMT-0500 (Central Daylight Time),365606.3000000119,A,fir,O,r,222,1,12412.5,353193.8000000119,7800,WL,B,13.0
2,44.62000012397766,learn,15379.999876022339,Wed May 13 2026 11:16:38 GMT-0500 (Central Daylight Time),365873.3000000119,A,fire,O,e,245,1,12679.5,353193.8000000119,7800,WL,B,13.0
2,44.75200009346008,learn,15247.999906539917,Wed May 13 2026 11:16:38 GMT-0500 (Central Daylight Time),366005.40000000596,A,fireenter,O,enter,115,1,12811.59999999404,353193.8000000119,7800,WL,B,13.0
2,49.56700015068054,learn,10432.999849319458,Wed May 13 2026 11:16:38 GMT-0500 (Central Daylight Time),370821.200000003,A,p,O,p,4799,1,4815.5999999940395,366005.60000000894,7800,WL,B,14.0
2,49.837000131607056,learn,10162.999868392944,Wed May 13 2026 11:16:38 GMT-0500 (Central Daylight Time),371090.700000003,A,pi,O,i,256,1,5085.0999999940395,366005.60000000894,7800,WL,B,14.0
2,50.134000062942505,learn,9865.999937057495,Wed May 13 2026 11:16:38 GMT-0500 (Central Daylight Time),371387.8000000119,A,pip,O,p,281,1,5382.20000000298,366005.60000000894,7800,WL,B,14.0
2,50.43500018119812,learn,9564.99981880188,Wed May 13 2026 11:16:38 GMT-0500 (Central Daylight Time),371689.3000000119,A,pipe,O,e,281,1,5683.70000000298,366005.60000000894,7800,WL,B,14.0
2,52.0,learn,8000.0,Wed May 13 2026 11:16:38 GMT-0500 (Central Daylight Time),373253.8000000119,A,pipeenter,O,enter,1553,1,7248.20000000298,366005.60000000894,7800,WL,B,14.0
2,60.015000104904175,learn,-15.000104904174805,Wed May 13 2026 11:16:38 GMT-0500 (Central Daylight Time),381268.60000000894,A,None,O,None,8009,1,8014.600000008941,373254.0,7800,WL,B,15.0
3,3.9000000953674316,learn,56099.99990463257,Wed May 13 2026 11:16:38 GMT-0500 (Central Daylight Time),452462.200000003,A,c,O,c,3883,1,3899.5,448562.700000003,7800,WL,B,1.0
3,4.0329999923706055,learn,55967.000007629395,Wed May 13 2026 11:16:38 GMT-0500 (Central Daylight Time),452594.8000000119,A,ci,O,i,116,1,4032.1000000089407,448562.700000003,7800,WL,B,1.0
3,4.266999959945679,learn,55733.00004005432,Wed May 13 2026 11:16:38 GMT-0500 (Central Daylight Time),452828.60000000894,A,cit,O,t,227,1,4265.9000000059605,448562.700000003,7800,WL,B,1.0
3,4.499000072479248,learn,55500.99992752075,Wed May 13 2026 11:16:38 GMT-0500 (Central Daylight Time),453061.60000000894,A,city,O,y,215,1,4498.9000000059605,448562.700000003,7800,WL,B,1.0
3,5.131999969482422,learn,54868.00003051758,Wed May 13 2026 11:16:38 GMT-0500 (Central Daylight Time),453694.3000000119,A,cityenter,O,enter,612,1,5131.600000008941,448562.700000003,7800,WL,B,1.0
3,5.666000127792358,learn,54333.99987220764,Wed May 13 2026 11:16:38 GMT-0500 (Central Daylight Time),454228.3000000119,A,w,O,w,519,1,533.8000000119209,453694.5,7800,WL,B,2.0
3,5.8480000495910645,learn,54151.999950408936,Wed May 13 2026 11:16:38 GMT-0500 (Central Daylight Time),454410.0,A,wi,O,i,167,1,715.5,453694.5,7800,WL,B,2.0
3,6.08299994468689,learn,53917.00005531311,Wed May 13 2026 11:16:38 GMT-0500 (Central Daylight Time),454644.8000000119,A,wif,O,f,227,1,950.3000000119209,453694.5,7800,WL,B,2.0
3,6.2829999923706055,learn,53717.000007629395,Wed May 13 2026 11:16:38 GMT-0500 (Central Daylight Time),454845.0,A,wife,O,e,177,1,1150.5,453694.5,7800,WL,B,2.0
3,6.516000032424927,learn,53483.99996757507,Wed May 13 2026 11:16:38 GMT-0500 (Central Daylight Time),455078.200000003,A,wifeenter,O,enter,213,1,1383.7000000029802,453694.5,7800,WL,B,2.0
3,6.986000061035156,learn,53013.999938964844,Wed May 13 2026 11:16:38 GMT-0500 (Central Daylight Time),455548.40000000596,A,c,O,c,455,1,470.0,455078.40000000596,7800,WL,B,3.0
3,7.199000120162964,learn,52800.999879837036,Wed May 13 2026 11:16:38 GMT-0500 (Central Daylight Time),455761.40000000596,A,ca,O,a,197,1,683.0,455078.40000000596,7800,WL,B,3.0
3,7.4649999141693115,learn,52535.00008583069,Wed May 13 2026 11:16:38 GMT-0500 (Central Daylight Time),456027.3000000119,A,cab,O,b,259,1,948.9000000059605,455078.40000000596,7800,WL,B,3.0
3,7.633000135421753,learn,52366.99986457825,Wed May 13 2026 11:16:38 GMT-0500 (Central Daylight Time),456194.90000000596,A,cabi,O,i,150,1,1116.5,455078.40000000596,7800,WL,B,3.0
3,7.815000057220459,learn,52184.99994277954,Wed May 13 2026 11:16:38 GMT-0500 (Central Daylight Time),456377.5,A,cabin,O,n,177,1,1299.0999999940395,455078.40000000596,7800,WL,B,3.0
3,8.148000001907349,learn,51851.99999809265,Wed May 13 2026 11:16:38 GMT-0500 (Central Daylight Time),456710.0,A,cabinenter,O,enter,321,1,1631.5999999940395,455078.40000000596,7800,WL,B,3.0
3,8.88100004196167,learn,51118.99995803833,Wed May 13 2026 11:16:38 GMT-0500 (Central Daylight Time),457443.10000000894,A,p,O,p,713,1,732.7999999970198,456710.3000000119,7800,WL,B,4.0
3,9.197999954223633,learn,50802.00004577637,Wed May 13 2026 11:16:38 GMT-0500 (Central Daylight Time),457760.60000000894,A,pi,O,i,304,1,1050.2999999970198,456710.3000000119,7800,WL,B,4.0
3,9.496999979019165,learn,50503.000020980835,Wed May 13 2026 11:16:38 GMT-0500 (Central Daylight Time),458059.5,A,pip,O,p,291,1,1349.199999988079,456710.3000000119,7800,WL,B,4.0
3,9.782000064849854,learn,50217.99993515015,Wed May 13 2026 11:16:38 GMT-0500 (Central Daylight Time),458343.700000003,A,pipe,O,e,265,1,1633.3999999910593,456710.3000000119,7800,WL,B,4.0
3,10.680999994277954,learn,49319.000005722046,Wed May 13 2026 11:16:38 GMT-0500 (Central Daylight Time),459243.5,A,pipeenter,O,enter,883,1,2533.199999988079,456710.3000000119,7800,WL,B,4.0
3,11.983000040054321,learn,48016.99995994568,Wed May 13 2026 11:16:38 GMT-0500 (Central Daylight Time),460544.700000003,A,w,O,w,1281,1,1301.0,459243.700000003,7800,WL,B,5.0
3,12.04699993133545,learn,47953.00006866455,Wed May 13 2026 11:16:38 GMT-0500 (Central Daylight Time),460609.10000000894,A,wi,O,i,60,1,1365.4000000059605,459243.700000003,7800,WL,B,5.0
3,12.180000066757202,learn,47819.9999332428,Wed May 13 2026 11:16:38 GMT-0500 (Central Daylight Time),460742.3000000119,A,win,O,n,115,1,1498.6000000089407,459243.700000003,7800,WL,B,5.0
3,12.347000122070312,learn,47652.99987792969,Wed May 13 2026 11:16:38 GMT-0500 (Central Daylight Time),460909.40000000596,A,wind,O,d,155,1,1665.7000000029802,459243.700000003,7800,WL,B,5.0
3,12.431999921798706,learn,47568.000078201294,Wed May 13 2026 11:16:38 GMT-0500 (Central Daylight Time),460994.5,A,windo,O,o,80,1,1750.7999999970198,459243.700000003,7800,WL,B,5.0
3,12.63100004196167,learn,47368.99995803833,Wed May 13 2026 11:16:38 GMT-0500 (Central Daylight Time),461192.90000000596,A,window,O,w,186,1,1949.2000000029802,459243.700000003,7800,WL,B,5.0
3,13.114000082015991,learn,46885.99991798401,Wed May 13 2026 11:16:38 GMT-0500 (Central Daylight Time),461676.200000003,A,windowenter,O,enter,462,1,2432.5,459243.700000003,7800,WL,B,5.0
3,13.897000074386597,learn,46102.9999256134,Wed May 13 2026 11:16:38 GMT-0500 (Central Daylight Time),462458.90000000596,A,s,O,s,777,1,782.4000000059605,461676.5,7800,WL,B,6.0
3,14.147000074386597,learn,45852.9999256134,Wed May 13 2026 11:16:38 GMT-0500 (Central Daylight Time),462709.5,A,st,O,t,234,1,1033.0,461676.5,7800,WL,B,6.0
3,14.497999906539917,learn,45502.00009346008,Wed May 13 2026 11:16:38 GMT-0500 (Central Daylight Time),463060.10000000894,A,str,O,r,335,1,1383.6000000089407,461676.5,7800,WL,B,6.0
3,15.17900013923645,learn,44820.99986076355,Wed May 13 2026 11:16:38 GMT-0500 (Central Daylight Time),463741.10000000894,A,stre,O,e,662,1,2064.6000000089407,461676.5,7800,WL,B,6.0
3,15.378999948501587,learn,44621.00005149841,Wed May 13 2026 11:16:38 GMT-0500 (Central Daylight Time),463941.3000000119,A,stree,O,e,183,1,2264.800000011921,461676.5,7800,WL,B,6.0
3,15.664000034332275,learn,44335.999965667725,Wed May 13 2026 11:16:38 GMT-0500 (Central Daylight Time),464226.200000003,A,street,O,t,269,1,2549.7000000029802,461676.5,7800,WL,B,6.0
3,15.979000091552734,learn,44020.999908447266,Wed May 13 2026 11:16:38 GMT-0500 (Central Daylight Time),464540.700000003,A,streetenter,O,enter,306,1,2864.2000000029802,461676.5,7800,WL,B,6.0
3,16.546000003814697,learn,43453.9999961853,Wed May 13 2026 11:16:38 GMT-0500 (Central Daylight Time),465107.8000000119,A,g,O,g,560,1,566.8000000119209,464541.0,7800,WL,B,7.0
3,16.795000076293945,learn,43204.999923706055,Wed May 13 2026 11:16:38 GMT-0500 (Central Daylight Time),465357.40000000596,A,ga,O,a,240,1,816.4000000059605,464541.0,7800,WL,B,7.0
3,17.361999988555908,learn,42638.00001144409,Wed May 13 2026 11:16:38 GMT-0500 (Central Daylight Time),465923.90000000596,A,g,O,backspace,559,1,1382.9000000059605,464541.0,7800,WL,B,7.0
3,17.812000036239624,learn,42187.999963760376,Wed May 13 2026 11:16:38 GMT-0500 (Central Daylight Time),466373.90000000596,A,gr,O,r,441,1,1832.9000000059605,464541.0,7800,WL,B,7.0
3,18.046000003814697,learn,41953.9999961853,Wed May 13 2026 11:16:38 GMT-0500 (Central Daylight Time),466608.3000000119,A,gra,O,a,228,1,2067.300000011921,464541.0,7800,WL,B,7.0
3,18.496000051498413,learn,41503.99994850159,Wed May 13 2026 11:16:38 GMT-0500 (Central Daylight Time),467057.8000000119,A,gras,O,s,446,1,2516.800000011921,464541.0,7800,WL,B,7.0
3,18.628000020980835,learn,41371.999979019165,Wed May 13 2026 11:16:38 GMT-0500 (Central Daylight Time),467190.10000000894,A,grass,O,s,123,1,2649.1000000089407,464541.0,7800,WL,B,7.0
3,19.496000051498413,learn,40503.99994850159,Wed May 13 2026 11:16:38 GMT-0500 (Central Daylight Time),468058.40000000596,A,grassenter,O,enter,862,1,3517.4000000059605,464541.0,7800,WL,B,7.0
3,20.09599995613098,learn,39904.00004386902,Wed May 13 2026 11:16:38 GMT-0500 (Central Daylight Time),468657.90000000596,A,a,O,a,594,1,599.2999999970198,468058.60000000894,7800,WL,B,8.0
3,20.329999923706055,learn,39670.000076293945,Wed May 13 2026 11:16:38 GMT-0500 (Central Daylight Time),468891.90000000596,A,ar,O,r,229,1,833.2999999970198,468058.60000000894,7800,WL,B,8.0
3,20.611999988555908,learn,39388.00001144409,Wed May 13 2026 11:16:38 GMT-0500 (Central Daylight Time),469173.8000000119,A,arm,O,m,272,1,1115.2000000029802,468058.60000000894,7800,WL,B,8.0
3,21.061000108718872,learn,38938.99989128113,Wed May 13 2026 11:16:38 GMT-0500 (Central Daylight Time),469623.0,A,armenter,O,enter,431,1,1564.3999999910593,468058.60000000894,7800,WL,B,8.0
3,22.427000045776367,learn,37572.99995422363,Wed May 13 2026 11:16:38 GMT-0500 (Central Daylight Time),470989.3000000119,A,s,O,s,1349,1,1366.0,469623.3000000119,7800,WL,B,9.0
3,22.610000133514404,learn,37389.999866485596,Wed May 13 2026 11:16:38 GMT-0500 (Central Daylight Time),471172.3000000119,A,st,O,t,167,1,1549.0,469623.3000000119,7800,WL,B,9.0
3,22.811000108718872,learn,37188.99989128113,Wed May 13 2026 11:16:38 GMT-0500 (Central Daylight Time),471372.8000000119,A,sta,O,a,184,1,1749.5,469623.3000000119,7800,WL,B,9.0
3,23.110000133514404,learn,36889.999866485596,Wed May 13 2026 11:16:38 GMT-0500 (Central Daylight Time),471672.5,A,star,O,r,278,1,2049.199999988079,469623.3000000119,7800,WL,B,9.0
3,23.55999994277954,learn,36440.00005722046,Wed May 13 2026 11:16:38 GMT-0500 (Central Daylight Time),472122.200000003,A,starenter,O,enter,436,1,2498.8999999910593,469623.3000000119,7800,WL,B,9.0
3,23.960999965667725,learn,36039.000034332275,Wed May 13 2026 11:16:38 GMT-0500 (Central Daylight Time),472523.0,A,f,O,f,387,1,400.59999999403954,472122.40000000596,7800,WL,B,10.0
3,24.16100001335144,learn,35838.99998664856,Wed May 13 2026 11:16:38 GMT-0500 (Central Daylight Time),472723.40000000596,A,fi,O,i,185,1,601.0,472122.40000000596,7800,WL,B,10.0
3,24.426000118255615,learn,35573.999881744385,Wed May 13 2026 11:16:38 GMT-0500 (Central Daylight Time),472988.5,A,fir,O,r,260,1,866.0999999940395,472122.40000000596,7800,WL,B,10.0
3,24.627000093460083,learn,35372.99990653992,Wed May 13 2026 11:16:38 GMT-0500 (Central Daylight Time),473188.700000003,A,fire,O,e,179,1,1066.2999999970198,472122.40000000596,7800,WL,B,10.0
3,24.860000133514404,learn,35139.999866485596,Wed May 13 2026 11:16:38 GMT-0500 (Central Daylight Time),473422.10000000894,A,fireenter,O,enter,214,1,1299.7000000029802,472122.40000000596,7800,WL,B,10.0
3,25.5770001411438,learn,34422.9998588562,Wed May 13 2026 11:16:38 GMT-0500 (Central Daylight Time),474138.90000000596,A,c,O,c,711,1,716.5999999940395,473422.3000000119,7800,WL,B,11.0
3,25.710999965667725,learn,34289.000034332275,Wed May 13 2026 11:16:38 GMT-0500 (Central Daylight Time),474272.8000000119,A,cl,O,l,121,1,850.5,473422.3000000119,7800,WL,B,11.0
3,25.89300012588501,learn,34106.99987411499,Wed May 13 2026 11:16:38 GMT-0500 (Central Daylight Time),474455.10000000894,A,clo,O,o,173,1,1032.7999999970198,473422.3000000119,7800,WL,B,11.0
3,26.14400005340576,learn,33855.99994659424,Wed May 13 2026 11:16:38 GMT-0500 (Central Daylight Time),474706.5,A,cloc,O,c,230,1,1284.199999988079,473422.3000000119,7800,WL,B,11.0
3,26.360000133514404,learn,33639.999866485596,Wed May 13 2026 11:16:38 GMT-0500 (Central Daylight Time),474922.700000003,A,clock,O,k,199,1,1500.3999999910593,473422.3000000119,7800,WL,B,11.0
3,26.875999927520752,learn,33124.00007247925,Wed May 13 2026 11:16:38 GMT-0500 (Central Daylight Time),475438.700000003,A,clockenter,O,enter,498,1,2016.3999999910593,473422.3000000119,7800,WL,B,11.0
3,27.625,learn,32375.0,Wed May 13 2026 11:16:38 GMT-0500 (Central Daylight Time),476187.60000000894,A,p,O,p,743,1,748.6000000089407,475439.0,7800,WL,B,12.0
3,27.825000047683716,learn,32174.999952316284,Wed May 13 2026 11:16:38 GMT-0500 (Central Daylight Time),476387.700000003,A,pu,O,u,183,1,948.7000000029802,475439.0,7800,WL,B,12.0
3,28.075000047683716,learn,31924.999952316284,Wed May 13 2026 11:16:38 GMT-0500 (Central Daylight Time),476637.90000000596,A,pup,O,p,238,1,1198.9000000059605,475439.0,7800,WL,B,12.0
3,28.375999927520752,learn,31624.000072479248,Wed May 13 2026 11:16:38 GMT-0500 (Central Daylight Time),476938.10000000894,A,pupi,O,i,296,1,1499.1000000089407,475439.0,7800,WL,B,12.0
3,29.157000064849854,learn,30842.999935150146,Wed May 13 2026 11:16:38 GMT-0500 (Central Daylight Time),477720.0,A,pupil,O,l,769,1,2281.0,475439.0,7800,WL,B,12.0
3,29.558000087738037,learn,30441.999912261963,Wed May 13 2026 11:16:38 GMT-0500 (Central Daylight Time),478120.200000003,A,pupilenter,O,enter,389,1,2681.2000000029802,475439.0,7800,WL,B,12.0
3,36.04200005531311,learn,23957.99994468689,Wed May 13 2026 11:16:38 GMT-0500 (Central Daylight Time),484604.700000003,A,d,O,d,6479,1,6484.20000000298,478120.5,7800,WL,B,13.0
3,36.22200012207031,learn,23777.999877929688,Wed May 13 2026 11:16:38 GMT-0500 (Central Daylight Time),484784.60000000894,A,do,O,o,168,1,6664.100000008941,478120.5,7800,WL,B,13.0
3,36.4060001373291,learn,23593.9998626709,Wed May 13 2026 11:16:38 GMT-0500 (Central Daylight Time),484968.200000003,A,doo,O,o,173,1,6847.70000000298,478120.5,7800,WL,B,13.0
3,36.706000089645386,learn,23293.999910354614,Wed May 13 2026 11:16:38 GMT-0500 (Central Daylight Time),485268.10000000894,A,door,O,r,281,1,7147.600000008941,478120.5,7800,WL,B,13.0
3,36.93900012969971,learn,23060.999870300293,Wed May 13 2026 11:16:38 GMT-0500 (Central Daylight Time),485501.200000003,A,doorenter,O,enter,215,1,7380.70000000298,478120.5,7800,WL,B,13.0
3,45.88800001144409,learn,14111.999988555908,Wed May 13 2026 11:16:38 GMT-0500 (Central Daylight Time),494450.10000000894,A,p,O,p,8936,1,8948.60000000894,485501.5,7800,WL,B,14.0
3,46.22000002861023,learn,13779.99997138977,Wed May 13 2026 11:16:38 GMT-0500 (Central Daylight Time),494782.40000000596,A,pu,O,u,321,1,9280.90000000596,485501.5,7800,WL,B,14.0
3,46.5699999332428,learn,13430.000066757202,Wed May 13 2026 11:16:38 GMT-0500 (Central Daylight Time),495132.8000000119,A,pup,O,p,346,1,9631.300000011921,485501.5,7800,WL,B,14.0
3,46.90300011634827,learn,13096.999883651733,Wed May 13 2026 11:16:38 GMT-0500 (Central Daylight Time),495465.3000000119,A,pupi,O,i,319,1,9963.800000011921,485501.5,7800,WL,B,14.0
3,47.269999980926514,learn,12730.000019073486,Wed May 13 2026 11:16:38 GMT-0500 (Central Daylight Time),495832.8000000119,A,pupil,O,l,355,1,10331.300000011921,485501.5,7800,WL,B,14.0
3,47.769999980926514,learn,12230.000019073486,Wed May 13 2026 11:16:38 GMT-0500 (Central Daylight Time),496332.200000003,A,pupilenter,O,enter,495,1,10830.70000000298,485501.5,7800,WL,B,14.0
3,60.01600003242493,learn,-16.000032424926758,Wed May 13 2026 11:16:38 GMT-0500 (Central Daylight Time),508578.10000000894,A,None,O,None,12241,1,12245.70000000298,496332.40000000596,7800,WL,B,15.0
4,0.8489999771118164,learn,59151.00002288818,Wed May 13 2026 11:16:38 GMT-0500 (Central Daylight Time),578156.0,A,c,O,c,840,1,848.2999999970198,577307.700000003,7800,WL,B,1.0
4,1.0490000247955322,learn,58950.99997520447,Wed May 13 2026 11:16:38 GMT-0500 (Central Daylight Time),578355.5,A,ci,O,i,192,1,1047.7999999970198,577307.700000003,7800,WL,B,1.0
4,1.3819999694824219,learn,58618.00003051758,Wed May 13 2026 11:16:38 GMT-0500 (Central Daylight Time),578688.700000003,A,cit,O,t,313,1,1381.0,577307.700000003,7800,WL,B,1.0
4,1.5980000495910645,learn,58401.999950408936,Wed May 13 2026 11:16:38 GMT-0500 (Central Daylight Time),578905.200000003,A,city,O,y,210,1,1597.5,577307.700000003,7800,WL,B,1.0
4,3.0490000247955322,learn,56950.99997520447,Wed May 13 2026 11:16:38 GMT-0500 (Central Daylight Time),580355.400000006,A,cityenter,O,enter,1435,1,3047.7000000029802,577307.700000003,7800,WL,B,1.0
4,3.7980000972747803,learn,56201.99990272522,Wed May 13 2026 11:16:38 GMT-0500 (Central Daylight Time),581104.5,A,w,O,w,730,1,748.8999999910593,580355.6000000089,7800,WL,B,2.0
4,3.930999994277954,learn,56069.000005722046,Wed May 13 2026 11:16:38 GMT-0500 (Central Daylight Time),581237.6000000089,A,wi,O,i,115,1,882.0,580355.6000000089,7800,WL,B,2.0
4,4.199000120162964,learn,55800.999879837036,Wed May 13 2026 11:16:38 GMT-0500 (Central Daylight Time),581506.0,A,wif,O,f,255,1,1150.3999999910593,580355.6000000089,7800,WL,B,2.0
4,4.46399998664856,learn,55536.00001335144,Wed May 13 2026 11:16:38 GMT-0500 (Central Daylight Time),581770.8000000119,A,wife,O,e,256,1,1415.2000000029802,580355.6000000089,7800,WL,B,2.0
4,4.712000131607056,learn,55287.999868392944,Wed May 13 2026 11:16:38 GMT-0500 (Central Daylight Time),582019.3000000119,A,wifeenter,O,enter,231,1,1663.7000000029802,580355.6000000089,7800,WL,B,2.0
4,5.180999994277954,learn,54819.000005722046,Wed May 13 2026 11:16:38 GMT-0500 (Central Daylight Time),582487.900000006,A,s,O,s,457,1,468.5,582019.400000006,7800,WL,B,3.0
4,5.246000051498413,learn,54753.99994850159,Wed May 13 2026 11:16:38 GMT-0500 (Central Daylight Time),582553.400000006,A,sk,O,k,41,1,534.0,582019.400000006,7800,WL,B,3.0
4,5.480000019073486,learn,54519.999980926514,Wed May 13 2026 11:16:38 GMT-0500 (Central Daylight Time),582786.8000000119,A,ski,O,i,228,1,767.4000000059605,582019.400000006,7800,WL,B,3.0
4,5.697000026702881,learn,54302.99997329712,Wed May 13 2026 11:16:38 GMT-0500 (Central Daylight Time),583003.900000006,A,skin,O,n,211,1,984.5,582019.400000006,7800,WL,B,3.0
4,6.281000137329102,learn,53718.9998626709,Wed May 13 2026 11:16:38 GMT-0500 (Central Daylight Time),583588.200000003,A,skinenter,O,enter,580,1,1568.7999999970198,582019.400000006,7800,WL,B,3.0
4,10.713000059127808,learn,49286.99994087219,Wed May 13 2026 11:16:38 GMT-0500 (Central Daylight Time),588020.3000000119,A,f,O,f,4427,1,4431.800000011921,583588.5,7800,WL,B,4.0
4,10.896000146865845,learn,49103.999853134155,Wed May 13 2026 11:16:38 GMT-0500 (Central Daylight Time),588203.0,A,fi,O,i,175,1,4614.5,583588.5,7800,WL,B,4.0
4,11.127000093460083,learn,48872.99990653992,Wed May 13 2026 11:16:38 GMT-0500 (Central Daylight Time),588434.1000000089,A,fir,O,r,224,1,4845.600000008941,583588.5,7800,WL,B,4.0
4,11.261000156402588,learn,48738.99984359741,Wed May 13 2026 11:16:38 GMT-0500 (Central Daylight Time),588567.700000003,A,fire,O,e,124,1,4979.20000000298,583588.5,7800,WL,B,4.0
4,11.546000003814697,learn,48453.9999961853,Wed May 13 2026 11:16:38 GMT-0500 (Central Daylight Time),588852.6000000089,A,fireenter,O,enter,267,1,5264.100000008941,583588.5,7800,WL,B,4.0
4,12.045000076293945,learn,47954.999923706055,Wed May 13 2026 11:16:38 GMT-0500 (Central Daylight Time),589352.1000000089,A,c,O,c,479,1,499.29999999701977,588852.8000000119,7800,WL,B,5.0
4,12.212000131607056,learn,47787.999868392944,Wed May 13 2026 11:16:38 GMT-0500 (Central Daylight Time),589519.1000000089,A,cl,O,l,156,1,666.2999999970198,588852.8000000119,7800,WL,B,5.0
4,12.412000179290771,learn,47587.99982070923,Wed May 13 2026 11:16:38 GMT-0500 (Central Daylight Time),589718.700000003,A,clo,O,o,189,1,865.8999999910593,588852.8000000119,7800,WL,B,5.0
4,12.594000101089478,learn,47405.99989891052,Wed May 13 2026 11:16:38 GMT-0500 (Central Daylight Time),589901.3000000119,A,cloc,O,c,163,1,1048.5,588852.8000000119,7800,WL,B,5.0
4,12.812999963760376,learn,47187.000036239624,Wed May 13 2026 11:16:38 GMT-0500 (Central Daylight Time),590119.400000006,A,clock,O,k,198,1,1266.5999999940395,588852.8000000119,7800,WL,B,5.0
4,13.144999980926514,learn,46855.000019073486,Wed May 13 2026 11:16:38 GMT-0500 (Central Daylight Time),590451.700000003,A,clockenter,O,enter,317,1,1598.8999999910593,588852.8000000119,7800,WL,B,5.0
4,13.946000099182129,learn,46053.99990081787,Wed May 13 2026 11:16:38 GMT-0500 (Central Daylight Time),591252.6000000089,A,p,O,p,796,1,800.7000000029802,590451.900000006,7800,WL,B,6.0
4,14.511000156402588,learn,45488.99984359741,Wed May 13 2026 11:16:38 GMT-0500 (Central Daylight Time),591817.6000000089,A,pu,O,u,559,1,1365.7000000029802,590451.900000006,7800,WL,B,6.0
4,15.49399995803833,learn,44506.00004196167,Wed May 13 2026 11:16:38 GMT-0500 (Central Daylight Time),592800.5,A,pup,O,p,970,1,2348.5999999940395,590451.900000006,7800,WL,B,6.0
4,16.877000093460083,learn,43122.99990653992,Wed May 13 2026 11:16:38 GMT-0500 (Central Daylight Time),594183.700000003,A,pupi,O,i,1372,1,3731.7999999970198,590451.900000006,7800,WL,B,6.0
4,18.475000143051147,learn,41524.99985694885,Wed May 13 2026 11:16:38 GMT-0500 (Central Daylight Time),595782.1000000089,A,pupil,O,l,1589,1,5330.20000000298,590451.900000006,7800,WL,B,6.0
4,19.544000148773193,learn,40455.99985122681,Wed May 13 2026 11:16:38 GMT-0500 (Central Daylight Time),596851.3000000119,A,pupilenter,O,enter,1056,1,6399.4000000059605,590451.900000006,7800,WL,B,6.0
4,23.52500009536743,learn,36474.99990463257,Wed May 13 2026 11:16:38 GMT-0500 (Central Daylight Time),600831.8000000119,A,w,O,w,3961,1,3980.2000000029802,596851.6000000089,7800,WL,B,7.0
4,23.625,learn,36375.0,Wed May 13 2026 11:16:38 GMT-0500 (Central Daylight Time),600932.5,A,wi,O,i,91,1,4080.8999999910593,596851.6000000089,7800,WL,B,7.0
4,23.973999977111816,learn,36026.00002288818,Wed May 13 2026 11:16:38 GMT-0500 (Central Daylight Time),601281.3000000119,A,wif,O,f,325,1,4429.70000000298,596851.6000000089,7800,WL,B,7.0
4,24.20800018310547,learn,35791.99981689453,Wed May 13 2026 11:16:38 GMT-0500 (Central Daylight Time),601515.6000000089,A,wife,O,e,228,1,4664.0,596851.6000000089,7800,WL,B,7.0
4,24.45800018310547,learn,35541.99981689453,Wed May 13 2026 11:16:38 GMT-0500 (Central Daylight Time),601765.6000000089,A,wifeenter,O,enter,231,1,4914.0,596851.6000000089,7800,WL,B,7.0
4,26.575000047683716,learn,33424.999952316284,Wed May 13 2026 11:16:38 GMT-0500 (Central Daylight Time),603882.200000003,A,w,O,w,2104,1,2116.3999999910593,601765.8000000119,7800,WL,B,8.0
4,26.70800018310547,learn,33291.99981689453,Wed May 13 2026 11:16:38 GMT-0500 (Central Daylight Time),604014.900000006,A,wi,O,i,115,1,2249.0999999940395,601765.8000000119,7800,WL,B,8.0
4,26.85700011253357,learn,33142.99988746643,Wed May 13 2026 11:16:38 GMT-0500 (Central Daylight Time),604164.0,A,win,O,n,131,1,2398.199999988079,601765.8000000119,7800,WL,B,8.0
4,26.973000049591064,learn,33026.999950408936,Wed May 13 2026 11:16:38 GMT-0500 (Central Daylight Time),604280.0,A,wind,O,d,96,1,2514.199999988079,601765.8000000119,7800,WL,B,8.0
4,27.07200002670288,learn,32927.99997329712,Wed May 13 2026 11:16:38 GMT-0500 (Central Daylight Time),604379.3000000119,A,windo,O,o,90,1,2613.5,601765.8000000119,7800,WL,B,8.0
4,27.241000175476074,learn,32758.999824523926,Wed May 13 2026 11:16:38 GMT-0500 (Central Daylight Time),604548.1000000089,A,window,O,w,165,1,2782.2999999970198,601765.8000000119,7800,WL,B,8.0
4,27.572999954223633,learn,32427.000045776367,Wed May 13 2026 11:16:38 GMT-0500 (Central Daylight Time),604879.900000006,A,windowenter,O,enter,320,1,3114.0999999940395,601765.8000000119,7800,WL,B,8.0
4,28.473000049591064,learn,31526.999950408936,Wed May 13 2026 11:16:38 GMT-0500 (Central Daylight Time),605780.0,A,d,O,d,893,1,899.8999999910593,604880.1000000089,7800,WL,B,9.0
4,28.67200016975403,learn,31327.99983024597,Wed May 13 2026 11:16:38 GMT-0500 (Central Daylight Time),605978.8000000119,A,do,O,o,190,1,1098.7000000029802,604880.1000000089,7800,WL,B,9.0
4,28.84000015258789,learn,31159.99984741211,Wed May 13 2026 11:16:38 GMT-0500 (Central Daylight Time),606147.0,A,doo,O,o,154,1,1266.8999999910593,604880.1000000089,7800,WL,B,9.0
4,29.006999969482422,learn,30993.000030517578,Wed May 13 2026 11:16:38 GMT-0500 (Central Daylight Time),606313.900000006,A,door,O,r,162,1,1433.7999999970198,604880.1000000089,7800,WL,B,9.0
4,29.222000122070312,learn,30777.999877929688,Wed May 13 2026 11:16:38 GMT-0500 (Central Daylight Time),606528.900000006,A,doorenter,O,enter,202,1,1648.7999999970198,604880.1000000089,7800,WL,B,9.0
4,29.6560001373291,learn,30343.9998626709,Wed May 13 2026 11:16:38 GMT-0500 (Central Daylight Time),606963.400000006,A,s,O,s,420,1,434.29999999701977,606529.1000000089,7800,WL,B,10.0
4,29.90499997138977,learn,30095.00002861023,Wed May 13 2026 11:16:38 GMT-0500 (Central Daylight Time),607212.700000003,A,st,O,t,234,1,683.5999999940395,606529.1000000089,7800,WL,B,10.0
4,30.240000009536743,learn,29759.999990463257,Wed May 13 2026 11:16:38 GMT-0500 (Central Daylight Time),607547.200000003,A,str,O,r,319,1,1018.0999999940395,606529.1000000089,7800,WL,B,10.0
4,30.572999954223633,learn,29427.000045776367,Wed May 13 2026 11:16:38 GMT-0500 (Central Daylight Time),607879.8000000119,A,stre,O,e,320,1,1350.7000000029802,606529.1000000089,7800,WL,B,10.0
4,30.755000114440918,learn,29244.999885559082,Wed May 13 2026 11:16:38 GMT-0500 (Central Daylight Time),608062.3000000119,A,stree,O,e,172,1,1533.2000000029802,606529.1000000089,7800,WL,B,10.0
4,31.005000114440918,learn,28994.999885559082,Wed May 13 2026 11:16:38 GMT-0500 (Central Daylight Time),608312.6000000089,A,street,O,t,239,1,1783.5,606529.1000000089,7800,WL,B,10.0
4,31.121999979019165,learn,28878.000020980835,Wed May 13 2026 11:16:38 GMT-0500 (Central Daylight Time),608429.1000000089,A,streetenter,O,enter,99,1,1900.0,606529.1000000089,7800,WL,B,10.0
4,31.82100009918213,learn,28178.99990081787,Wed May 13 2026 11:16:38 GMT-0500 (Central Daylight Time),609128.5,A,t,O,t,687,1,699.0999999940395,608429.400000006,7800,WL,B,11.0
4,32.355000019073486,learn,27644.999980926514,Wed May 13 2026 11:16:38 GMT-0500 (Central Daylight Time),609662.400000006,A,,O,backspace,523,1,1233.0,608429.400000006,7800,WL,B,11.0
4,32.63800001144409,learn,27361.99998855591,Wed May 13 2026 11:16:38 GMT-0500 (Central Daylight Time),609945.200000003,A,g,O,g,270,1,1515.7999999970198,608429.400000006,7800,WL,B,11.0
4,32.92200016975403,learn,27077.99983024597,Wed May 13 2026 11:16:38 GMT-0500 (Central Daylight Time),610229.1000000089,A,gr,O,r,262,1,1799.7000000029802,608429.400000006,7800,WL,B,11.0
4,33.09000015258789,learn,26909.99984741211,Wed May 13 2026 11:16:38 GMT-0500 (Central Daylight Time),610396.700000003,A,gra,O,a,144,1,1967.2999999970198,608429.400000006,7800,WL,B,11.0
4,33.40499997138977,learn,26595.00002861023,Wed May 13 2026 11:16:38 GMT-0500 (Central Daylight Time),610712.5,A,gras,O,s,303,1,2283.0999999940395,608429.400000006,7800,WL,B,11.0
4,33.5550000667572,learn,26444.999933242798,Wed May 13 2026 11:16:38 GMT-0500 (Central Daylight Time),610862.8000000119,A,grass,O,s,131,1,2433.4000000059605,608429.400000006,7800,WL,B,11.0
4,34.0550000667572,learn,25944.999933242798,Wed May 13 2026 11:16:38 GMT-0500 (Central Daylight Time),611362.1000000089,A,grassenter,O,enter,493,1,2932.7000000029802,608429.400000006,7800,WL,B,11.0
4,37.53800010681152,learn,22461.999893188477,Wed May 13 2026 11:16:38 GMT-0500 (Central Daylight Time),614844.700000003,A,a,O,a,3466,1,3482.2999999970198,611362.400000006,7800,WL,B,12.0
4,37.7020001411438,learn,22297.9998588562,Wed May 13 2026 11:16:38 GMT-0500 (Central Daylight Time),615009.5,A,ar,O,r,150,1,3647.0999999940395,611362.400000006,7800,WL,B,12.0
4,38.019999980926514,learn,21980.000019073486,Wed May 13 2026 11:16:38 GMT-0500 (Central Daylight Time),615327.0,A,arm,O,m,299,1,3964.5999999940395,611362.400000006,7800,WL,B,12.0
4,38.45300006866455,learn,21546.99993133545,Wed May 13 2026 11:16:38 GMT-0500 (Central Daylight Time),615760.200000003,A,armenter,O,enter,421,1,4397.79999999702,611362.400000006,7800,WL,B,12.0
4,40.07000017166138,learn,19929.999828338623,Wed May 13 2026 11:16:38 GMT-0500 (Central Daylight Time),617376.8000000119,A,s,O,s,1604,1,1616.4000000059605,615760.400000006,7800,WL,B,13.0
4,40.269999980926514,learn,19730.000019073486,Wed May 13 2026 11:16:38 GMT-0500 (Central Daylight Time),617577.400000006,A,st,O,t,187,1,1817.0,615760.400000006,7800,WL,B,13.0
4,40.48699998855591,learn,19513.00001144409,Wed May 13 2026 11:16:38 GMT-0500 (Central Daylight Time),617793.700000003,A,sta,O,a,211,1,2033.2999999970198,615760.400000006,7800,WL,B,13.0
4,40.68500018119812,learn,19314.99981880188,Wed May 13 2026 11:16:38 GMT-0500 (Central Daylight Time),617992.5,A,star,O,r,194,1,2232.0999999940395,615760.400000006,7800,WL,B,13.0
4,41.63499999046326,learn,18365.000009536743,Wed May 13 2026 11:16:38 GMT-0500 (Central Daylight Time),618942.0,A,starenter,O,enter,943,1,3181.5999999940395,615760.400000006,7800,WL,B,13.0
4,42.10300016403198,learn,17896.999835968018,Wed May 13 2026 11:16:38 GMT-0500 (Central Daylight Time),619410.400000006,A,s,O,s,462,1,468.09999999403954,618942.3000000119,7800,WL,B,14.0
4,42.25200009346008,learn,17747.999906539917,Wed May 13 2026 11:16:38 GMT-0500 (Central Daylight Time),619558.8000000119,A,sk,O,k,138,1,616.5,618942.3000000119,7800,WL,B,14.0
4,42.468000173568726,learn,17531.999826431274,Wed May 13 2026 11:16:38 GMT-0500 (Central Daylight Time),619775.6000000089,A,ski,O,i,206,1,833.2999999970198,618942.3000000119,7800,WL,B,14.0
4,42.63700008392334,learn,17362.99991607666,Wed May 13 2026 11:16:38 GMT-0500 (Central Daylight Time),619943.900000006,A,skin,O,n,159,1,1001.5999999940395,618942.3000000119,7800,WL,B,14.0
4,43.23399996757507,learn,16766.000032424927,Wed May 13 2026 11:16:38 GMT-0500 (Central Daylight Time),620541.5,A,skinenter,O,enter,580,1,1599.199999988079,618942.3000000119,7800,WL,B,14.0
4,49.049999952316284,learn,10950.000047683716,Wed May 13 2026 11:16:38 GMT-0500 (Central Daylight Time),626356.900000006,A,l,O,l,5808,1,5815.20000000298,620541.700000003,7800,WL,B,15.0
4,49.24900007247925,learn,10750.999927520752,Wed May 13 2026 11:16:38 GMT-0500 (Central Daylight Time),626556.6000000089,A,la,O,a,182,1,6014.9000000059605,620541.700000003,7800,WL,B,15.0
4,49.38100004196167,learn,10618.99995803833,Wed May 13 2026 11:16:38 GMT-0500 (Central Daylight Time),626688.5,A,lak,O,k,126,1,6146.79999999702,620541.700000003,7800,WL,B,15.0
4,49.56500005722046,learn,10434.999942779541,Wed May 13 2026 11:16:38 GMT-0500 (Central Daylight Time),626872.0,A,lake,O,e,180,1,6330.29999999702,620541.700000003,7800,WL,B,15.0
4,49.89900016784668,learn,10100.99983215332,Wed May 13 2026 11:16:38 GMT-0500 (Central Daylight Time),627206.0,A,lakeenter,O,enter,327,1,6664.29999999702,620541.700000003,7800,WL,B,15.0
5,2.0829999446868896,learn,60000.0,Wed May 13 2026 11:16:38 GMT-0500 (Central Daylight Time),695751.200000003,A,c,O,c,2064,1,2081.7999999970198,693669.400000006,7800,WL,B,1.0
5,2.3329999446868896,learn,60000.0,Wed May 13 2026 11:16:38 GMT-0500 (Central Daylight Time),696002.0,A,ci,O,i,233,1,2332.5999999940395,693669.400000006,7800,WL,B,1.0
5,2.6489999294281006,learn,60000.0,Wed May 13 2026 11:16:38 GMT-0500 (Central Daylight Time),696317.900000006,A,cit,O,t,295,1,2648.5,693669.400000006,7800,WL,B,1.0
5,2.881999969482422,learn,60000.0,Wed May 13 2026 11:16:38 GMT-0500 (Central Daylight Time),696550.900000006,A,city,O,y,212,1,2881.5,693669.400000006,7800,WL,B,1.0
5,3.5160000324249268,learn,60000.0,Wed May 13 2026 11:16:38 GMT-0500 (Central Daylight Time),697184.1000000089,A,cityenter,O,enter,613,1,3514.7000000029802,693669.400000006,7800,WL,B,1.0
5,6.799000024795532,learn,60000.0,Wed May 13 2026 11:16:38 GMT-0500 (Central Daylight Time),700467.8000000119,A,w,O,w,3278,1,3283.5,697184.3000000119,7800,WL,B,2.0
5,7.013999938964844,learn,60000.0,Wed May 13 2026 11:16:38 GMT-0500 (Central Daylight Time),700682.900000006,A,wi,O,i,209,1,3498.5999999940395,697184.3000000119,7800,WL,B,2.0
5,7.3480000495910645,learn,60000.0,Wed May 13 2026 11:16:38 GMT-0500 (Central Daylight Time),701016.3000000119,A,wif,O,f,310,1,3832.0,697184.3000000119,7800,WL,B,2.0
5,7.5980000495910645,learn,60000.0,Wed May 13 2026 11:16:38 GMT-0500 (Central Daylight Time),701266.400000006,A,wife,O,e,232,1,4082.0999999940395,697184.3000000119,7800,WL,B,2.0
5,8.013999938964844,learn,60000.0,Wed May 13 2026 11:16:38 GMT-0500 (Central Daylight Time),701682.400000006,A,wifeenter,O,enter,401,1,4498.0999999940395,697184.3000000119,7800,WL,B,2.0
5,8.996999979019165,learn,60000.0,Wed May 13 2026 11:16:38 GMT-0500 (Central Daylight Time),702666.0,A,s,O,s,971,1,983.3999999910593,701682.6000000089,7800,WL,B,3.0
5,9.148000001907349,learn,60000.0,Wed May 13 2026 11:16:38 GMT-0500 (Central Daylight Time),702816.1000000089,A,sk,O,k,138,1,1133.5,701682.6000000089,7800,WL,B,3.0
5,9.398000001907349,learn,60000.0,Wed May 13 2026 11:16:38 GMT-0500 (Central Daylight Time),703066.5,A,ski,O,i,239,1,1383.8999999910593,701682.6000000089,7800,WL,B,3.0
5,9.69700002670288,learn,60000.0,Wed May 13 2026 11:16:38 GMT-0500 (Central Daylight Time),703365.5,A,skin,O,n,281,1,1682.8999999910593,701682.6000000089,7800,WL,B,3.0
5,10.145999908447266,learn,60000.0,Wed May 13 2026 11:16:38 GMT-0500 (Central Daylight Time),703814.200000003,A,skinenter,O,enter,438,1,2131.5999999940395,701682.6000000089,7800,WL,B,3.0
5,12.078999996185303,learn,60000.0,Wed May 13 2026 11:16:38 GMT-0500 (Central Daylight Time),705747.700000003,A,c,O,c,1926,1,1933.2000000029802,703814.5,7800,WL,B,4.0
5,12.312999963760376,learn,60000.0,Wed May 13 2026 11:16:38 GMT-0500 (Central Daylight Time),705981.200000003,A,ca,O,a,225,1,2166.7000000029802,703814.5,7800,WL,B,4.0
5,12.562000036239624,learn,60000.0,Wed May 13 2026 11:16:38 GMT-0500 (Central Daylight Time),706230.6000000089,A,cab,O,b,238,1,2416.1000000089407,703814.5,7800,WL,B,4.0
5,12.746000051498413,learn,60000.0,Wed May 13 2026 11:16:38 GMT-0500 (Central Daylight Time),706414.8000000119,A,cabo,O,o,167,1,2600.300000011921,703814.5,7800,WL,B,4.0
5,12.963000059127808,learn,60000.0,Wed May 13 2026 11:16:38 GMT-0500 (Central Daylight Time),706631.1000000089,A,cabon,O,n,195,1,2816.6000000089407,703814.5,7800,WL,B,4.0
5,13.795000076293945,learn,60000.0,Wed May 13 2026 11:16:38 GMT-0500 (Central Daylight Time),707463.5,A,cabo,O,backspace,811,1,3649.0,703814.5,7800,WL,B,4.0
5,14.02999997138977,learn,60000.0,Wed May 13 2026 11:16:38 GMT-0500 (Central Daylight Time),707698.6000000089,A,cab,O,backspace,228,1,3884.1000000089407,703814.5,7800,WL,B,4.0
5,14.713000059127808,learn,60000.0,Wed May 13 2026 11:16:38 GMT-0500 (Central Daylight Time),708381.3000000119,A,cabi,O,i,664,1,4566.800000011921,703814.5,7800,WL,B,4.0
5,15.01200008392334,learn,60000.0,Wed May 13 2026 11:16:38 GMT-0500 (Central Daylight Time),708680.900000006,A,cabin,O,n,278,1,4866.4000000059605,703814.5,7800,WL,B,4.0
5,15.328999996185303,learn,60000.0,Wed May 13 2026 11:16:38 GMT-0500 (Central Daylight Time),708997.400000006,A,cabinenter,O,enter,306,1,5182.9000000059605,703814.5,7800,WL,B,4.0
5,16.045000076293945,learn,60000.0,Wed May 13 2026 11:16:38 GMT-0500 (Central Daylight Time),709713.900000006,A,p,O,p,703,1,716.2999999970198,708997.6000000089,7800,WL,B,5.0
5,16.32800006866455,learn,60000.0,Wed May 13 2026 11:16:38 GMT-0500 (Central Daylight Time),709996.8000000119,A,pi,O,i,274,1,999.2000000029802,708997.6000000089,7800,WL,B,5.0
5,16.694000005722046,learn,60000.0,Wed May 13 2026 11:16:38 GMT-0500 (Central Daylight Time),710362.3000000119,A,pip,O,p,350,1,1364.7000000029802,708997.6000000089,7800,WL,B,5.0
5,17.094000101089478,learn,60000.0,Wed May 13 2026 11:16:38 GMT-0500 (Central Daylight Time),710763.0,A,pipe,O,e,396,1,1765.3999999910593,708997.6000000089,7800,WL,B,5.0
5,17.361000061035156,learn,60000.0,Wed May 13 2026 11:16:38 GMT-0500 (Central Daylight Time),711029.900000006,A,pipeenter,O,enter,250,1,2032.2999999970198,708997.6000000089,7800,WL,B,5.0
5,18.526999950408936,learn,60000.0,Wed May 13 2026 11:16:38 GMT-0500 (Central Daylight Time),712195.900000006,A,w,O,w,1150,1,1165.7999999970198,711030.1000000089,7800,WL,B,6.0
5,18.694999933242798,learn,60000.0,Wed May 13 2026 11:16:38 GMT-0500 (Central Daylight Time),712363.3000000119,A,wi,O,i,158,1,1333.2000000029802,711030.1000000089,7800,WL,B,6.0
5,18.844000101089478,learn,60000.0,Wed May 13 2026 11:16:38 GMT-0500 (Central Daylight Time),712512.5,A,win,O,n,137,1,1482.3999999910593,711030.1000000089,7800,WL,B,6.0
5,19.013000011444092,learn,60000.0,Wed May 13 2026 11:16:38 GMT-0500 (Central Daylight Time),712681.1000000089,A,wind,O,d,146,1,1651.0,711030.1000000089,7800,WL,B,6.0
5,19.128000020980835,learn,60000.0,Wed May 13 2026 11:16:38 GMT-0500 (Central Daylight Time),712796.200000003,A,windo,O,o,94,1,1766.0999999940395,711030.1000000089,7800,WL,B,6.0
5,19.344000101089478,learn,60000.0,Wed May 13 2026 11:16:38 GMT-0500 (Central Daylight Time),713012.6000000089,A,window,O,w,200,1,1982.5,711030.1000000089,7800,WL,B,6.0
5,19.562000036239624,learn,60000.0,Wed May 13 2026 11:16:38 GMT-0500 (Central Daylight Time),713230.200000003,A,windowenter,O,enter,208,1,2200.0999999940395,711030.1000000089,7800,WL,B,6.0
5,20.210000038146973,learn,60000.0,Wed May 13 2026 11:16:38 GMT-0500 (Central Daylight Time),713878.5,A,d,O,d,630,1,648.0,713230.5,7800,WL,B,7.0
5,20.359999895095825,learn,60000.0,Wed May 13 2026 11:16:38 GMT-0500 (Central Daylight Time),714028.700000003,A,do,O,o,133,1,798.2000000029802,713230.5,7800,WL,B,7.0
5,20.526999950408936,learn,60000.0,Wed May 13 2026 11:16:38 GMT-0500 (Central Daylight Time),714195.8000000119,A,doo,O,o,162,1,965.3000000119209,713230.5,7800,WL,B,7.0
5,20.776999950408936,learn,60000.0,Wed May 13 2026 11:16:38 GMT-0500 (Central Daylight Time),714445.700000003,A,door,O,r,233,1,1215.2000000029802,713230.5,7800,WL,B,7.0
5,21.177000045776367,learn,60000.0,Wed May 13 2026 11:16:38 GMT-0500 (Central Daylight Time),714845.700000003,A,doorenter,O,enter,389,1,1615.2000000029802,713230.5,7800,WL,B,7.0
5,22.39299988746643,learn,60000.0,Wed May 13 2026 11:16:38 GMT-0500 (Central Daylight Time),716061.900000006,A,s,O,s,1207,1,1215.7999999970198,714846.1000000089,7800,WL,B,8.0
5,22.625999927520752,learn,60000.0,Wed May 13 2026 11:16:38 GMT-0500 (Central Daylight Time),716294.700000003,A,st,O,t,222,1,1448.5999999940395,714846.1000000089,7800,WL,B,8.0
5,23.042999982833862,learn,60000.0,Wed May 13 2026 11:16:38 GMT-0500 (Central Daylight Time),716711.8000000119,A,str,O,r,407,1,1865.7000000029802,714846.1000000089,7800,WL,B,8.0
5,23.443000078201294,learn,60000.0,Wed May 13 2026 11:16:38 GMT-0500 (Central Daylight Time),717111.700000003,A,stre,O,e,387,1,2265.5999999940395,714846.1000000089,7800,WL,B,8.0
5,23.575999975204468,learn,60000.0,Wed May 13 2026 11:16:38 GMT-0500 (Central Daylight Time),717244.8000000119,A,stree,O,e,124,1,2398.7000000029802,714846.1000000089,7800,WL,B,8.0
5,24.009999990463257,learn,60000.0,Wed May 13 2026 11:16:38 GMT-0500 (Central Daylight Time),717678.5,A,street,O,t,422,1,2832.3999999910593,714846.1000000089,7800,WL,B,8.0
5,24.443000078201294,learn,60000.0,Wed May 13 2026 11:16:38 GMT-0500 (Central Daylight Time),718111.8000000119,A,streetenter,O,enter,414,1,3265.7000000029802,714846.1000000089,7800,WL,B,8.0
5,25.009000062942505,learn,60000.0,Wed May 13 2026 11:16:38 GMT-0500 (Central Daylight Time),718678.1000000089,A,g,O,g,557,1,566.1000000089407,718112.0,7800,WL,B,9.0
5,25.35800004005432,learn,60000.0,Wed May 13 2026 11:16:38 GMT-0500 (Central Daylight Time),719027.200000003,A,gr,O,r,343,1,915.2000000029802,718112.0,7800,WL,B,9.0
5,25.625999927520752,learn,60000.0,Wed May 13 2026 11:16:38 GMT-0500 (Central Daylight Time),719294.700000003,A,gra,O,a,248,1,1182.7000000029802,718112.0,7800,WL,B,9.0
5,25.943000078201294,learn,60000.0,Wed May 13 2026 11:16:38 GMT-0500 (Central Daylight Time),719611.5,A,gras,O,s,311,1,1499.5,718112.0,7800,WL,B,9.0
5,26.092000007629395,learn,60000.0,Wed May 13 2026 11:16:38 GMT-0500 (Central Daylight Time),719761.1000000089,A,grass,O,s,128,1,1649.1000000089407,718112.0,7800,WL,B,9.0
5,26.908999919891357,learn,60000.0,Wed May 13 2026 11:16:38 GMT-0500 (Central Daylight Time),720578.1000000089,A,grassenter,O,enter,810,1,2466.1000000089407,718112.0,7800,WL,B,9.0
5,27.558000087738037,learn,60000.0,Wed May 13 2026 11:16:38 GMT-0500 (Central Daylight Time),721226.700000003,A,p,O,p,634,1,648.2000000029802,720578.5,7800,WL,B,10.0
5,27.79099988937378,learn,60000.0,Wed May 13 2026 11:16:38 GMT-0500 (Central Daylight Time),721459.8000000119,A,pu,O,u,219,1,881.3000000119209,720578.5,7800,WL,B,10.0
5,28.091000080108643,learn,60000.0,Wed May 13 2026 11:16:38 GMT-0500 (Central Daylight Time),721760.1000000089,A,pup,O,p,287,1,1181.6000000089407,720578.5,7800,WL,B,10.0
5,28.407999992370605,learn,60000.0,Wed May 13 2026 11:16:38 GMT-0500 (Central Daylight Time),722076.700000003,A,pupi,O,i,312,1,1498.2000000029802,720578.5,7800,WL,B,10.0
5,28.806999921798706,learn,60000.0,Wed May 13 2026 11:16:38 GMT-0500 (Central Daylight Time),722476.1000000089,A,pupil,O,l,394,1,1897.6000000089407,720578.5,7800,WL,B,10.0
5,29.42300009727478,learn,60000.0,Wed May 13 2026 11:16:38 GMT-0500 (Central Daylight Time),723091.900000006,A,pupilenter,O,enter,609,1,2513.4000000059605,720578.5,7800,WL,B,10.0
5,30.54099988937378,learn,60000.0,Wed May 13 2026 11:16:38 GMT-0500 (Central Daylight Time),724210.3000000119,A,l,O,l,1098,1,1118.2000000029802,723092.1000000089,7800,WL,B,11.0
5,30.723999977111816,learn,60000.0,Wed May 13 2026 11:16:38 GMT-0500 (Central Daylight Time),724392.3000000119,A,la,O,a,170,1,1300.2000000029802,723092.1000000089,7800,WL,B,11.0
5,30.85599994659424,learn,60000.0,Wed May 13 2026 11:16:38 GMT-0500 (Central Daylight Time),724524.700000003,A,lak,O,k,122,1,1432.5999999940395,723092.1000000089,7800,WL,B,11.0
5,31.074000120162964,learn,60000.0,Wed May 13 2026 11:16:38 GMT-0500 (Central Daylight Time),724742.700000003,A,lake,O,e,198,1,1650.5999999940395,723092.1000000089,7800,WL,B,11.0
5,31.374000072479248,learn,60000.0,Wed May 13 2026 11:16:38 GMT-0500 (Central Daylight Time),725042.700000003,A,lakeenter,O,enter,292,1,1950.5999999940395,723092.1000000089,7800,WL,B,11.0
5,36.65300011634827,learn,60000.0,Wed May 13 2026 11:16:38 GMT-0500 (Central Daylight Time),730321.8000000119,A,s,O,s,5264,1,5278.9000000059605,725042.900000006,7800,WL,B,12.0
5,36.937000036239624,learn,60000.0,Wed May 13 2026 11:16:38 GMT-0500 (Central Daylight Time),730605.900000006,A,sa,O,a,274,1,5563.0,725042.900000006,7800,WL,B,12.0
5,37.319000005722046,learn,60000.0,Wed May 13 2026 11:16:38 GMT-0500 (Central Daylight Time),730988.0,A,s,O,backspace,375,1,5945.0999999940395,725042.900000006,7800,WL,B,12.0
5,37.503000020980835,learn,60000.0,Wed May 13 2026 11:16:38 GMT-0500 (Central Daylight Time),731171.5,A,,O,backspace,169,1,6128.5999999940395,725042.900000006,7800,WL,B,12.0
5,37.8529999256134,learn,60000.0,Wed May 13 2026 11:16:38 GMT-0500 (Central Daylight Time),731522.1000000089,A,a,O,a,337,1,6479.20000000298,725042.900000006,7800,WL,B,12.0
5,38.05399990081787,learn,60000.0,Wed May 13 2026 11:16:38 GMT-0500 (Central Daylight Time),731723.0,A,ar,O,r,194,1,6680.0999999940395,725042.900000006,7800,WL,B,12.0
5,38.25399994850159,learn,60000.0,Wed May 13 2026 11:16:38 GMT-0500 (Central Daylight Time),731923.0,A,arm,O,m,186,1,6880.0999999940395,725042.900000006,7800,WL,B,12.0
5,38.48699998855591,learn,60000.0,Wed May 13 2026 11:16:38 GMT-0500 (Central Daylight Time),732155.5,A,armenter,O,enter,226,1,7112.5999999940395,725042.900000006,7800,WL,B,12.0
5,38.9210000038147,learn,60000.0,Wed May 13 2026 11:16:38 GMT-0500 (Central Daylight Time),732590.1000000089,A,s,O,s,417,1,434.5,732155.6000000089,7800,WL,B,13.0
5,39.170000076293945,learn,60000.0,Wed May 13 2026 11:16:38 GMT-0500 (Central Daylight Time),732839.1000000089,A,st,O,t,238,1,683.5,732155.6000000089,7800,WL,B,13.0
5,39.40300011634827,learn,60000.0,Wed May 13 2026 11:16:38 GMT-0500 (Central Daylight Time),733071.5,A,sta,O,a,220,1,915.8999999910593,732155.6000000089,7800,WL,B,13.0
5,39.569000005722046,learn,60000.0,Wed May 13 2026 11:16:38 GMT-0500 (Central Daylight Time),733238.1000000089,A,star,O,r,157,1,1082.5,732155.6000000089,7800,WL,B,13.0
5,39.90300011634827,learn,60000.0,Wed May 13 2026 11:16:38 GMT-0500 (Central Daylight Time),733572.0,A,starenter,O,enter,318,1,1416.3999999910593,732155.6000000089,7800,WL,B,13.0
5,49.8510000705719,learn,60000.0,Wed May 13 2026 11:16:38 GMT-0500 (Central Daylight Time),743519.8000000119,A,w,O,w,9929,1,9947.5,733572.3000000119,7800,WL,B,14.0
5,49.96600008010864,learn,60000.0,Wed May 13 2026 11:16:38 GMT-0500 (Central Daylight Time),743635.3000000119,A,wi,O,i,107,1,10063.0,733572.3000000119,7800,WL,B,14.0
5,51.13700008392334,learn,60000.0,Wed May 13 2026 11:16:38 GMT-0500 (Central Daylight Time),744805.700000003,A,w,O,backspace,1158,1,11233.39999999106,733572.3000000119,7800,WL,B,14.0
5,51.382999897003174,learn,60000.0,Wed May 13 2026 11:16:38 GMT-0500 (Central Daylight Time),745051.8000000119,A,,O,backspace,231,1,11479.5,733572.3000000119,7800,WL,B,14.0
5,53.69799995422363,learn,60000.0,Wed May 13 2026 11:16:38 GMT-0500 (Central Daylight Time),747367.3000000119,A,w,O,w,2304,1,13795.0,733572.3000000119,7800,WL,B,14.0
5,53.83200001716614,learn,60000.0,Wed May 13 2026 11:16:38 GMT-0500 (Central Daylight Time),747501.1000000089,A,wi,O,i,116,1,13928.79999999702,733572.3000000119,7800,WL,B,14.0
5,54.013999938964844,learn,60000.0,Wed May 13 2026 11:16:38 GMT-0500 (Central Daylight Time),747683.1000000089,A,wif,O,f,163,1,14110.79999999702,733572.3000000119,7800,WL,B,14.0
5,54.1470000743866,learn,60000.0,Wed May 13 2026 11:16:38 GMT-0500 (Central Daylight Time),747816.200000003,A,wife,O,e,122,1,14243.89999999106,733572.3000000119,7800,WL,B,14.0
5,55.365999937057495,learn,60000.0,Wed May 13 2026 11:16:38 GMT-0500 (Central Daylight Time),749034.900000006,A,wifeenter,O,enter,1214,1,15462.59999999404,733572.3000000119,7800,WL,B,14.0
5,86.13899993896484,learn,60000.0,Wed May 13 2026 11:16:38 GMT-0500 (Central Daylight Time),779807.900000006,A,f,O,f,30762,1,30772.79999999702,749035.1000000089,7800,WL,B,15.0
6,2.0169999599456787,distr,57983.00004005432,Wed May 13 2026 11:16:38 GMT-0500 (Central Daylight Time),859417.200000003,B,f,O,f,1995,1,2016.2000000029802,857401.0,7800,WL,B,1.0
6,2.315999984741211,distr,57684.00001525879,Wed May 13 2026 11:16:38 GMT-0500 (Central Daylight Time),859716.700000003,B,fr,O,r,283,1,2315.7000000029802,857401.0,7800,WL,B,1.0
6,2.5320000648498535,distr,57467.99993515015,Wed May 13 2026 11:16:38 GMT-0500 (Central Daylight Time),859932.5,B,fri,O,i,199,1,2531.5,857401.0,7800,WL,B,1.0
6,2.7150001525878906,distr,57284.99984741211,Wed May 13 2026 11:16:38 GMT-0500 (Central Daylight Time),860115.6000000089,B,frie,O,e,168,1,2714.6000000089407,857401.0,7800,WL,B,1.0
6,2.8489999771118164,distr,57151.00002288818,Wed May 13 2026 11:16:38 GMT-0500 (Central Daylight Time),860249.1000000089,B,frien,O,n,114,1,2848.1000000089407,857401.0,7800,WL,B,1.0
6,3.0970001220703125,distr,56902.99987792969,Wed May 13 2026 11:16:38 GMT-0500 (Central Daylight Time),860497.900000006,B,friend,O,d,233,1,3096.9000000059605,857401.0,7800,WL,B,1.0
6,3.3480000495910645,distr,56651.999950408936,Wed May 13 2026 11:16:38 GMT-0500 (Central Daylight Time),860748.3000000119,B,friendenter,O,enter,237,1,3347.300000011921,857401.0,7800,WL,B,1.0
6,3.865000009536743,distr,56134.99999046326,Wed May 13 2026 11:16:38 GMT-0500 (Central Daylight Time),861265.900000006,B,b,O,b,505,1,517.4000000059605,860748.5,7800,WL,B,2.0
6,4.14900016784668,distr,55850.99983215332,Wed May 13 2026 11:16:38 GMT-0500 (Central Daylight Time),861549.3000000119,B,ba,O,a,265,1,800.8000000119209,860748.5,7800,WL,B,2.0
6,4.38100004196167,distr,55618.99995803833,Wed May 13 2026 11:16:38 GMT-0500 (Central Daylight Time),861781.900000006,B,bab,O,b,220,1,1033.4000000059605,860748.5,7800,WL,B,2.0
6,4.64900016784668,distr,55350.99983215332,Wed May 13 2026 11:16:38 GMT-0500 (Central Daylight Time),862049.900000006,B,baby,O,y,263,1,1301.4000000059605,860748.5,7800,WL,B,2.0
6,5.031000137329102,distr,54968.9998626709,Wed May 13 2026 11:16:38 GMT-0500 (Central Daylight Time),862431.5,B,babyenter,O,enter,360,1,1683.0,860748.5,7800,WL,B,2.0
6,5.581000089645386,distr,54418.999910354614,Wed May 13 2026 11:16:38 GMT-0500 (Central Daylight Time),862981.1000000089,B,c,O,c,545,1,549.2999999970198,862431.8000000119,7800,WL,B,3.0
6,5.914000034332275,distr,54085.999965667725,Wed May 13 2026 11:16:38 GMT-0500 (Central Daylight Time),863314.700000003,B,ca,O,a,317,1,882.8999999910593,862431.8000000119,7800,WL,B,3.0
6,6.246999979019165,distr,53753.000020980835,Wed May 13 2026 11:16:38 GMT-0500 (Central Daylight Time),863647.0,B,cas,O,s,310,1,1215.199999988079,862431.8000000119,7800,WL,B,3.0
6,6.614000082015991,distr,53385.99991798401,Wed May 13 2026 11:16:38 GMT-0500 (Central Daylight Time),864014.5,B,cast,O,t,356,1,1582.699999988079,862431.8000000119,7800,WL,B,3.0
6,6.866000175476074,distr,53133.999824523926,Wed May 13 2026 11:16:38 GMT-0500 (Central Daylight Time),864266.400000006,B,castl,O,l,245,1,1834.5999999940395,862431.8000000119,7800,WL,B,3.0
6,7.116000175476074,distr,52883.999824523926,Wed May 13 2026 11:16:38 GMT-0500 (Central Daylight Time),864516.1000000089,B,castle,O,e,233,1,2084.2999999970198,862431.8000000119,7800,WL,B,3.0
6,7.396000146865845,distr,52603.999853134155,Wed May 13 2026 11:16:38 GMT-0500 (Central Daylight Time),864796.6000000089,B,castleenter,O,enter,273,1,2364.7999999970198,862431.8000000119,7800,WL,B,3.0
6,7.763000011444092,distr,52236.99998855591,Wed May 13 2026 11:16:38 GMT-0500 (Central Daylight Time),865163.700000003,B,l,O,l,360,1,366.8999999910593,864796.8000000119,7800,WL,B,4.0
6,8.049000024795532,distr,51950.99997520447,Wed May 13 2026 11:16:38 GMT-0500 (Central Daylight Time),865449.3000000119,B,li,O,i,274,1,652.5,864796.8000000119,7800,WL,B,4.0
6,8.430000066757202,distr,51569.9999332428,Wed May 13 2026 11:16:38 GMT-0500 (Central Daylight Time),865830.700000003,B,lip,O,p,371,1,1033.8999999910593,864796.8000000119,7800,WL,B,4.0
6,9.095999956130981,distr,50904.00004386902,Wed May 13 2026 11:16:38 GMT-0500 (Central Daylight Time),866496.0,B,lipenter,O,enter,651,1,1699.199999988079,864796.8000000119,7800,WL,B,4.0
6,11.311000108718872,distr,48688.99989128113,Wed May 13 2026 11:16:38 GMT-0500 (Central Daylight Time),868711.8000000119,B,d,O,d,2195,1,2215.5,866496.3000000119,7800,WL,B,5.0
6,11.546000003814697,distr,48453.9999961853,Wed May 13 2026 11:16:38 GMT-0500 (Central Daylight Time),868946.1000000089,B,dr,O,r,223,1,2449.7999999970198,866496.3000000119,7800,WL,B,5.0
6,11.648000001907349,distr,48351.99999809265,Wed May 13 2026 11:16:38 GMT-0500 (Central Daylight Time),869048.0,B,dre,O,e,82,1,2551.699999988079,866496.3000000119,7800,WL,B,5.0
6,11.96399998664856,distr,48036.00001335144,Wed May 13 2026 11:16:38 GMT-0500 (Central Daylight Time),869364.1000000089,B,dres,O,s,309,1,2867.7999999970198,866496.3000000119,7800,WL,B,5.0
6,12.078999996185303,distr,47921.0000038147,Wed May 13 2026 11:16:38 GMT-0500 (Central Daylight Time),869479.6000000089,B,dress,O,s,94,1,2983.2999999970198,866496.3000000119,7800,WL,B,5.0
6,12.52999997138977,distr,47470.00002861023,Wed May 13 2026 11:16:38 GMT-0500 (Central Daylight Time),869930.0,B,dressenter,O,enter,435,1,3433.699999988079,866496.3000000119,7800,WL,B,5.0
6,13.029000043869019,distr,46970.99995613098,Wed May 13 2026 11:16:38 GMT-0500 (Central Daylight Time),870429.700000003,B,s,O,s,483,1,499.3999999910593,869930.3000000119,7800,WL,B,6.0
6,13.279000043869019,distr,46720.99995613098,Wed May 13 2026 11:16:38 GMT-0500 (Central Daylight Time),870679.400000006,B,st,O,t,230,1,749.0999999940395,869930.3000000119,7800,WL,B,6.0
6,13.394999980926514,distr,46605.000019073486,Wed May 13 2026 11:16:38 GMT-0500 (Central Daylight Time),870795.700000003,B,sto,O,o,101,1,865.3999999910593,869930.3000000119,7800,WL,B,6.0
6,13.59500002861023,distr,46404.99997138977,Wed May 13 2026 11:16:38 GMT-0500 (Central Daylight Time),870995.900000006,B,stor,O,r,183,1,1065.5999999940395,869930.3000000119,7800,WL,B,6.0
6,13.745000123977661,distr,46254.99987602234,Wed May 13 2026 11:16:38 GMT-0500 (Central Daylight Time),871146.0,B,storm,O,m,145,1,1215.699999988079,869930.3000000119,7800,WL,B,6.0
6,14.078999996185303,distr,45921.0000038147,Wed May 13 2026 11:16:38 GMT-0500 (Central Daylight Time),871479.400000006,B,stormenter,O,enter,322,1,1549.0999999940395,869930.3000000119,7800,WL,B,6.0
6,14.628000020980835,distr,45371.999979019165,Wed May 13 2026 11:16:38 GMT-0500 (Central Daylight Time),872028.700000003,B,o,O,o,542,1,549.0,871479.700000003,7800,WL,B,7.0
6,14.861000061035156,distr,45138.999938964844,Wed May 13 2026 11:16:38 GMT-0500 (Central Daylight Time),872261.900000006,B,oc,O,c,216,1,782.2000000029802,871479.700000003,7800,WL,B,7.0
6,15.130000114440918,distr,44869.99988555908,Wed May 13 2026 11:16:38 GMT-0500 (Central Daylight Time),872530.3000000119,B,oce,O,e,263,1,1050.6000000089407,871479.700000003,7800,WL,B,7.0
6,15.294000148773193,distr,44705.99985122681,Wed May 13 2026 11:16:38 GMT-0500 (Central Daylight Time),872694.1000000089,B,ocea,O,a,152,1,1214.4000000059605,871479.700000003,7800,WL,B,7.0
6,15.51200008392334,distr,44487.99991607666,Wed May 13 2026 11:16:38 GMT-0500 (Central Daylight Time),872912.400000006,B,ocean,O,n,198,1,1432.7000000029802,871479.700000003,7800,WL,B,7.0
6,15.927000045776367,distr,44072.99995422363,Wed May 13 2026 11:16:38 GMT-0500 (Central Daylight Time),873327.0,B,oceanenter,O,enter,403,1,1847.2999999970198,871479.700000003,7800,WL,B,7.0
6,17.111999988555908,distr,42888.00001144409,Wed May 13 2026 11:16:38 GMT-0500 (Central Daylight Time),874512.0,B,c,O,c,1173,1,1184.699999988079,873327.3000000119,7800,WL,B,8.0
6,17.378000020980835,distr,42621.999979019165,Wed May 13 2026 11:16:38 GMT-0500 (Central Daylight Time),874778.3000000119,B,ce,O,e,253,1,1451.0,873327.3000000119,7800,WL,B,8.0
6,17.561000108718872,distr,42438.99989128113,Wed May 13 2026 11:16:38 GMT-0500 (Central Daylight Time),874961.700000003,B,cel,O,l,160,1,1634.3999999910593,873327.3000000119,7800,WL,B,8.0
6,17.74399995803833,distr,42256.00004196167,Wed May 13 2026 11:16:38 GMT-0500 (Central Daylight Time),875144.900000006,B,cell,O,l,162,1,1817.5999999940395,873327.3000000119,7800,WL,B,8.0
6,18.026999950408936,distr,41973.000049591064,Wed May 13 2026 11:16:38 GMT-0500 (Central Daylight Time),875427.8000000119,B,cellenter,O,enter,278,1,2100.5,873327.3000000119,7800,WL,B,8.0
6,23.125,distr,36875.0,Wed May 13 2026 11:16:38 GMT-0500 (Central Daylight Time),880525.6000000089,B,r,O,r,5081,1,5097.600000008941,875428.0,7800,WL,B,9.0
6,23.225000143051147,distr,36774.99985694885,Wed May 13 2026 11:16:38 GMT-0500 (Central Daylight Time),880625.400000006,B,ro,O,o,96,1,5197.4000000059605,875428.0,7800,WL,B,9.0
6,23.492000102996826,distr,36507.999897003174,Wed May 13 2026 11:16:38 GMT-0500 (Central Daylight Time),880892.6000000089,B,roc,O,c,261,1,5464.600000008941,875428.0,7800,WL,B,9.0
6,23.64199995994568,distr,36358.00004005432,Wed May 13 2026 11:16:38 GMT-0500 (Central Daylight Time),881042.700000003,B,rock,O,k,135,1,5614.70000000298,875428.0,7800,WL,B,9.0
6,24.009999990463257,distr,35990.00000953674,Wed May 13 2026 11:16:38 GMT-0500 (Central Daylight Time),881410.0,B,rockenter,O,enter,362,1,5982.0,875428.0,7800,WL,B,9.0
6,60.01400017738342,distr,-14.000177383422852,Wed May 13 2026 11:16:38 GMT-0500 (Central Daylight Time),917414.3000000119,B,None,O,None,35999,1,36004.0,881410.3000000119,7800,WL,B,10.0
7,12.477999925613403,immed,47522.0000743866,Wed May 13 2026 11:16:38 GMT-0500 (Central Daylight Time),933042.3000000119,A,c,O,c,12465,1,12478.60000000894,920563.700000003,7800,WL,B,1.0
7,12.611000061035156,immed,47388.999938964844,Wed May 13 2026 11:16:38 GMT-0500 (Central Daylight Time),933174.700000003,A,ci,O,i,118,1,12611.0,920563.700000003,7800,WL,B,1.0
7,12.928999900817871,immed,47071.00009918213,Wed May 13 2026 11:16:38 GMT-0500 (Central Daylight Time),933492.5,A,cit,O,t,295,1,12928.79999999702,920563.700000003,7800,WL,B,1.0
7,13.095999956130981,immed,46904.00004386902,Wed May 13 2026 11:16:38 GMT-0500 (Central Daylight Time),933659.900000006,A,city,O,y,149,1,13096.20000000298,920563.700000003,7800,WL,B,1.0
7,13.378000020980835,immed,46621.999979019165,Wed May 13 2026 11:16:38 GMT-0500 (Central Daylight Time),933942.200000003,A,cityenter,O,enter,273,1,13378.5,920563.700000003,7800,WL,B,1.0
7,14.027999877929688,immed,45972.00012207031,Wed May 13 2026 11:16:38 GMT-0500 (Central Daylight Time),934592.200000003,A,w,O,w,639,1,649.7999999970198,933942.400000006,7800,WL,B,2.0
7,14.210999965667725,immed,45789.000034332275,Wed May 13 2026 11:16:38 GMT-0500 (Central Daylight Time),934774.8000000119,A,wi,O,i,164,1,832.4000000059605,933942.400000006,7800,WL,B,2.0
7,14.42799997329712,immed,45572.00002670288,Wed May 13 2026 11:16:38 GMT-0500 (Central Daylight Time),934991.8000000119,A,wif,O,f,206,1,1049.4000000059605,933942.400000006,7800,WL,B,2.0
7,14.59500002861023,immed,45404.99997138977,Wed May 13 2026 11:16:38 GMT-0500 (Central Daylight Time),935158.5,A,wife,O,e,156,1,1216.0999999940395,933942.400000006,7800,WL,B,2.0
7,15.07800006866455,immed,44921.99993133545,Wed May 13 2026 11:16:38 GMT-0500 (Central Daylight Time),935642.0,A,wifeenter,O,enter,478,1,1699.5999999940395,933942.400000006,7800,WL,B,2.0
7,16.325999975204468,immed,43674.00002479553,Wed May 13 2026 11:16:38 GMT-0500 (Central Daylight Time),936889.6000000089,A,s,O,s,1233,1,1247.2000000029802,935642.400000006,7800,WL,B,3.0
7,16.444999933242798,immed,43555.0000667572,Wed May 13 2026 11:16:38 GMT-0500 (Central Daylight Time),937008.400000006,A,sk,O,k,108,1,1366.0,935642.400000006,7800,WL,B,3.0
7,16.66100001335144,immed,43338.99998664856,Wed May 13 2026 11:16:38 GMT-0500 (Central Daylight Time),937225.0,A,ski,O,i,196,1,1582.5999999940395,935642.400000006,7800,WL,B,3.0
7,16.82800006866455,immed,43171.99993133545,Wed May 13 2026 11:16:38 GMT-0500 (Central Daylight Time),937391.900000006,A,skin,O,n,144,1,1749.5,935642.400000006,7800,WL,B,3.0
7,17.128000020980835,immed,42871.999979019165,Wed May 13 2026 11:16:38 GMT-0500 (Central Daylight Time),937691.8000000119,A,skinenter,O,enter,284,1,2049.4000000059605,935642.400000006,7800,WL,B,3.0
7,18.876999855041504,immed,41123.000144958496,Wed May 13 2026 11:16:38 GMT-0500 (Central Daylight Time),939440.400000006,A,w,O,w,1736,1,1748.4000000059605,937692.0,7800,WL,B,4.0
7,19.026999950408936,immed,40973.000049591064,Wed May 13 2026 11:16:38 GMT-0500 (Central Daylight Time),939590.6000000089,A,wi,O,i,140,1,1898.6000000089407,937692.0,7800,WL,B,4.0
7,19.15999984741211,immed,40840.00015258789,Wed May 13 2026 11:16:38 GMT-0500 (Central Daylight Time),939723.8000000119,A,win,O,n,117,1,2031.800000011921,937692.0,7800,WL,B,4.0
7,19.30999994277954,immed,40690.00005722046,Wed May 13 2026 11:16:38 GMT-0500 (Central Daylight Time),939874.1000000089,A,wind,O,d,128,1,2182.1000000089407,937692.0,7800,WL,B,4.0
7,19.65999984741211,immed,40340.00015258789,Wed May 13 2026 11:16:38 GMT-0500 (Central Daylight Time),940224.0,A,windo,O,o,337,1,2532.0,937692.0,7800,WL,B,4.0
7,19.875999927520752,immed,40124.00007247925,Wed May 13 2026 11:16:38 GMT-0500 (Central Daylight Time),940439.700000003,A,window,O,w,203,1,2747.7000000029802,937692.0,7800,WL,B,4.0
7,20.108999967575073,immed,39891.00003242493,Wed May 13 2026 11:16:38 GMT-0500 (Central Daylight Time),940673.200000003,A,windowenter,O,enter,219,1,2981.2000000029802,937692.0,7800,WL,B,4.0
7,22.026000022888184,immed,37973.99997711182,Wed May 13 2026 11:16:38 GMT-0500 (Central Daylight Time),942589.3000000119,A,d,O,d,1899,1,1915.9000000059605,940673.400000006,7800,WL,B,5.0
7,22.158999919891357,immed,37841.00008010864,Wed May 13 2026 11:16:38 GMT-0500 (Central Daylight Time),942722.900000006,A,do,O,o,128,1,2049.5,940673.400000006,7800,WL,B,5.0
7,22.32699990272522,immed,37673.00009727478,Wed May 13 2026 11:16:38 GMT-0500 (Central Daylight Time),942890.900000006,A,doo,O,o,161,1,2217.5,940673.400000006,7800,WL,B,5.0
7,22.526999950408936,immed,37473.000049591064,Wed May 13 2026 11:16:38 GMT-0500 (Central Daylight Time),943090.6000000089,A,door,O,r,185,1,2417.2000000029802,940673.400000006,7800,WL,B,5.0
7,22.908999919891357,immed,37091.00008010864,Wed May 13 2026 11:16:38 GMT-0500 (Central Daylight Time),943472.3000000119,A,doorenter,O,enter,362,1,2798.9000000059605,940673.400000006,7800,WL,B,5.0
7,25.191999912261963,immed,34808.00008773804,Wed May 13 2026 11:16:38 GMT-0500 (Central Daylight Time),945755.400000006,A,s,O,s,2269,1,2282.9000000059605,943472.5,7800,WL,B,6.0
7,25.47499990463257,immed,34525.00009536743,Wed May 13 2026 11:16:38 GMT-0500 (Central Daylight Time),946038.6000000089,A,st,O,t,264,1,2566.1000000089407,943472.5,7800,WL,B,6.0
7,25.991999864578247,immed,34008.00013542175,Wed May 13 2026 11:16:38 GMT-0500 (Central Daylight Time),946556.0,A,ste,O,e,512,1,3083.5,943472.5,7800,WL,B,6.0
7,26.158999919891357,immed,33841.00008010864,Wed May 13 2026 11:16:38 GMT-0500 (Central Daylight Time),946722.3000000119,A,stee,O,e,160,1,3249.800000011921,943472.5,7800,WL,B,6.0
7,26.391000032424927,immed,33608.99996757507,Wed May 13 2026 11:16:38 GMT-0500 (Central Daylight Time),946954.8000000119,A,steet,O,t,227,1,3482.300000011921,943472.5,7800,WL,B,6.0
7,26.85699987411499,immed,33143.00012588501,Wed May 13 2026 11:16:38 GMT-0500 (Central Daylight Time),947421.1000000089,A,steetenter,O,enter,451,1,3948.6000000089407,943472.5,7800,WL,B,6.0
7,29.556999921798706,immed,30443.000078201294,Wed May 13 2026 11:16:38 GMT-0500 (Central Daylight Time),950120.5,A,g,O,g,2679,1,2699.199999988079,947421.3000000119,7800,WL,B,7.0
7,29.805999994277954,immed,30194.000005722046,Wed May 13 2026 11:16:38 GMT-0500 (Central Daylight Time),950370.200000003,A,gr,O,r,245,1,2948.8999999910593,947421.3000000119,7800,WL,B,7.0
7,29.973999977111816,immed,30026.000022888184,Wed May 13 2026 11:16:38 GMT-0500 (Central Daylight Time),950537.700000003,A,gra,O,a,155,1,3116.3999999910593,947421.3000000119,7800,WL,B,7.0
7,30.305999994277954,immed,29694.000005722046,Wed May 13 2026 11:16:38 GMT-0500 (Central Daylight Time),950869.200000003,A,gras,O,s,313,1,3447.8999999910593,947421.3000000119,7800,WL,B,7.0
7,30.424000024795532,immed,29575.999975204468,Wed May 13 2026 11:16:38 GMT-0500 (Central Daylight Time),950987.6000000089,A,grass,O,s,111,1,3566.2999999970198,947421.3000000119,7800,WL,B,7.0
7,30.756999969482422,immed,29243.000030517578,Wed May 13 2026 11:16:38 GMT-0500 (Central Daylight Time),951320.400000006,A,grassenter,O,enter,314,1,3899.0999999940395,947421.3000000119,7800,WL,B,7.0
7,31.305000066757202,immed,28694.999933242798,Wed May 13 2026 11:16:38 GMT-0500 (Central Daylight Time),951868.8000000119,A,c,O,c,540,1,548.2000000029802,951320.6000000089,7800,WL,B,8.0
7,31.47099995613098,immed,28529.00004386902,Wed May 13 2026 11:16:38 GMT-0500 (Central Daylight Time),952035.200000003,A,ci,O,i,151,1,714.5999999940395,951320.6000000089,7800,WL,B,8.0
7,31.65499997138977,immed,28345.00002861023,Wed May 13 2026 11:16:38 GMT-0500 (Central Daylight Time),952219.1000000089,A,cit,O,t,170,1,898.5,951320.6000000089,7800,WL,B,8.0
7,31.82200002670288,immed,28177.99997329712,Wed May 13 2026 11:16:38 GMT-0500 (Central Daylight Time),952386.0,A,city,O,y,154,1,1065.3999999910593,951320.6000000089,7800,WL,B,8.0
7,32.17400002479553,immed,27825.999975204468,Wed May 13 2026 11:16:38 GMT-0500 (Central Daylight Time),952738.200000003,A,cityenter,O,enter,328,1,1417.5999999940395,951320.6000000089,7800,WL,B,8.0
7,34.687000036239624,immed,25312.999963760376,Wed May 13 2026 11:16:38 GMT-0500 (Central Daylight Time),955250.8000000119,A,l,O,l,2498,1,2512.300000011921,952738.5,7800,WL,B,9.0
7,34.85599994659424,immed,25144.00005340576,Wed May 13 2026 11:16:38 GMT-0500 (Central Daylight Time),955419.8000000119,A,la,O,a,163,1,2681.300000011921,952738.5,7800,WL,B,9.0
7,35.039000034332275,immed,24960.999965667725,Wed May 13 2026 11:16:38 GMT-0500 (Central Daylight Time),955603.200000003,A,lak,O,k,177,1,2864.7000000029802,952738.5,7800,WL,B,9.0
7,35.20599985122681,immed,24794.000148773193,Wed May 13 2026 11:16:38 GMT-0500 (Central Daylight Time),955769.8000000119,A,lake,O,e,159,1,3031.300000011921,952738.5,7800,WL,B,9.0
7,35.47099995613098,immed,24529.00004386902,Wed May 13 2026 11:16:38 GMT-0500 (Central Daylight Time),956034.8000000119,A,lakeenter,O,enter,247,1,3296.300000011921,952738.5,7800,WL,B,9.0
7,36.58899998664856,immed,23411.00001335144,Wed May 13 2026 11:16:38 GMT-0500 (Central Daylight Time),957153.200000003,A,p,O,p,1114,1,1118.2999999970198,956034.900000006,7800,WL,B,10.0
7,36.919999837875366,immed,23080.000162124634,Wed May 13 2026 11:16:38 GMT-0500 (Central Daylight Time),957484.400000006,A,pi,O,i,325,1,1449.5,956034.900000006,7800,WL,B,10.0
7,37.2039999961853,immed,22796.000003814697,Wed May 13 2026 11:16:38 GMT-0500 (Central Daylight Time),957768.200000003,A,pip,O,p,263,1,1733.2999999970198,956034.900000006,7800,WL,B,10.0
7,37.55299997329712,immed,22447.00002670288,Wed May 13 2026 11:16:38 GMT-0500 (Central Daylight Time),958117.400000006,A,pipe,O,e,333,1,2082.5,956034.900000006,7800,WL,B,10.0
7,37.853999853134155,immed,22146.000146865845,Wed May 13 2026 11:16:38 GMT-0500 (Central Daylight Time),958418.3000000119,A,pipeenter,O,enter,294,1,2383.4000000059605,956034.900000006,7800,WL,B,10.0
7,39.03699994087219,immed,20963.000059127808,Wed May 13 2026 11:16:38 GMT-0500 (Central Daylight Time),959600.900000006,A,p,O,p,1170,1,1182.4000000059605,958418.5,7800,WL,B,11.0
7,39.2039999961853,immed,20796.000003814697,Wed May 13 2026 11:16:38 GMT-0500 (Central Daylight Time),959767.900000006,A,pu,O,u,147,1,1349.4000000059605,958418.5,7800,WL,B,11.0
7,39.47099995613098,immed,20529.00004386902,Wed May 13 2026 11:16:38 GMT-0500 (Central Daylight Time),960035.3000000119,A,pup,O,p,262,1,1616.800000011921,958418.5,7800,WL,B,11.0
7,39.80299997329712,immed,20197.00002670288,Wed May 13 2026 11:16:38 GMT-0500 (Central Daylight Time),960367.1000000089,A,pupi,O,i,321,1,1948.6000000089407,958418.5,7800,WL,B,11.0
7,40.22000002861023,immed,19779.99997138977,Wed May 13 2026 11:16:38 GMT-0500 (Central Daylight Time),960783.900000006,A,pupil,O,l,398,1,2365.4000000059605,958418.5,7800,WL,B,11.0
7,40.7189998626709,immed,19281.0001373291,Wed May 13 2026 11:16:38 GMT-0500 (Central Daylight Time),961282.6000000089,A,pupilenter,O,enter,477,1,2864.1000000089407,958418.5,7800,WL,B,11.0
7,48.61699986457825,immed,11383.000135421753,Wed May 13 2026 11:16:38 GMT-0500 (Central Daylight Time),969181.6000000089,A,a,O,a,7881,1,7898.600000008941,961283.0,7800,WL,B,12.0
7,48.84999990463257,immed,11150.000095367432,Wed May 13 2026 11:16:38 GMT-0500 (Central Daylight Time),969413.6000000089,A,ar,O,r,222,1,8130.600000008941,961283.0,7800,WL,B,12.0
7,49.08399987220764,immed,10916.000127792358,Wed May 13 2026 11:16:38 GMT-0500 (Central Daylight Time),969648.1000000089,A,arm,O,m,215,1,8365.10000000894,961283.0,7800,WL,B,12.0
7,49.950000047683716,immed,10049.999952316284,Wed May 13 2026 11:16:38 GMT-0500 (Central Daylight Time),970514.200000003,A,armenter,O,enter,850,1,9231.20000000298,961283.0,7800,WL,B,12.0
7,50.54900002479553,immed,9450.999975204468,Wed May 13 2026 11:16:38 GMT-0500 (Central Daylight Time),971113.200000003,A,s,O,s,585,1,598.7000000029802,970514.5,7800,WL,B,13.0
7,50.819000005722046,immed,9180.999994277954,Wed May 13 2026 11:16:38 GMT-0500 (Central Daylight Time),971382.8000000119,A,st,O,t,249,1,868.3000000119209,970514.5,7800,WL,B,13.0
7,51.01699995994568,immed,8983.000040054321,Wed May 13 2026 11:16:38 GMT-0500 (Central Daylight Time),971580.700000003,A,sta,O,a,181,1,1066.2000000029802,970514.5,7800,WL,B,13.0
7,51.200000047683716,immed,8799.999952316284,Wed May 13 2026 11:16:38 GMT-0500 (Central Daylight Time),971764.3000000119,A,star,O,r,176,1,1249.800000011921,970514.5,7800,WL,B,13.0
7,51.53399991989136,immed,8466.000080108643,Wed May 13 2026 11:16:38 GMT-0500 (Central Daylight Time),972098.3000000119,A,starenter,O,enter,328,1,1583.800000011921,970514.5,7800,WL,B,13.0
7,57.33099985122681,immed,2669.0001487731934,Wed May 13 2026 11:16:38 GMT-0500 (Central Daylight Time),977894.900000006,A,f,O,f,5786,1,5796.29999999702,972098.6000000089,7800,WL,B,14.0
7,57.44700002670288,immed,2552.999973297119,Wed May 13 2026 11:16:38 GMT-0500 (Central Daylight Time),978011.200000003,A,fi,O,i,102,1,5912.5999999940395,972098.6000000089,7800,WL,B,14.0
7,57.61500000953674,immed,2384.999990463257,Wed May 13 2026 11:16:38 GMT-0500 (Central Daylight Time),978179.0,A,fir,O,r,159,1,6080.399999991059,972098.6000000089,7800,WL,B,14.0
7,57.763999938964844,immed,2236.0000610351562,Wed May 13 2026 11:16:38 GMT-0500 (Central Daylight Time),978327.6000000089,A,fire,O,e,127,1,6229.0,972098.6000000089,7800,WL,B,14.0
7,57.996999979019165,immed,2003.000020980835,Wed May 13 2026 11:16:38 GMT-0500 (Central Daylight Time),978561.0,A,fireenter,O,enter,222,1,6462.399999991059,972098.6000000089,7800,WL,B,14.0
7,58.430999994277954,immed,1569.000005722046,Wed May 13 2026 11:16:38 GMT-0500 (Central Daylight Time),978995.200000003,A,c,O,c,427,1,434.0,978561.200000003,7800,WL,B,15.0
7,58.56399989128113,immed,1436.000108718872,Wed May 13 2026 11:16:38 GMT-0500 (Central Daylight Time),979127.700000003,A,cl,O,l,123,1,566.5,978561.200000003,7800,WL,B,15.0
7,58.763999938964844,immed,1236.0000610351562,Wed May 13 2026 11:16:38 GMT-0500 (Central Daylight Time),979327.8000000119,A,clo,O,o,189,1,766.6000000089407,978561.200000003,7800,WL,B,15.0
7,58.87999987602234,immed,1120.0001239776611,Wed May 13 2026 11:16:38 GMT-0500 (Central Daylight Time),979444.5,A,cloc,O,c,110,1,883.2999999970198,978561.200000003,7800,WL,B,15.0
7,59.02999997138977,immed,970.0000286102295,Wed May 13 2026 11:16:38 GMT-0500 (Central Daylight Time),979593.700000003,A,clock,O,k,142,1,1032.5,978561.200000003,7800,WL,B,15.0
7,59.36699986457825,immed,633.0001354217529,Wed May 13 2026 11:16:38 GMT-0500 (Central Daylight Time),979930.8000000119,A,clockenter,O,enter,317,1,1369.6000000089407,978561.200000003,7800,WL,B,15.0
