acc_sum,block,block_c,condition,correct,correct_response,datetime,endtime,flanker,jitter,project,response,response_test_buffer_response,response_test_target_response,response_time,response_time_test_buffer_response,response_time_test_target_response,row_sel,session_number,start_end,starttime,subject_id,target,task,task_vers,time_test_buffer,time_test_buffer_response,time_test_constants,time_test_flanker,time_test_jitter,time_test_logger,time_test_target,time_test_target_response,time_test_variables,trial
1,prac,1,con,1,z,Fri May 23 2025 10:30:52 GMT-0500 (Central Daylight Time),136318.5,elated,800,O,z,,,1075,,,9,1,3178.800000011921,133139.69999998808,7150,elated,AF,B,,,,,,,,,,1
1,prac,1,inc,0,z,Fri May 23 2025 10:30:52 GMT-0500 (Central Daylight Time),138800.5,rock,900,O,m,,,281,,,10,1,2474.9000000059605,136325.59999999404,7150,kind,AF,B,,,,,,,,,,2
2,prac,1,con,1,m,Fri May 23 2025 10:30:52 GMT-0500 (Central Daylight Time),141482.59999999404,bell,1000,O,m,,,368,,,3,1,2673.5,138809.09999999404,7150,bell,AF,B,,,,,,,,,,3
3,prac,1,inc,1,m,Fri May 23 2025 10:30:52 GMT-0500 (Central Daylight Time),144216.0,brutal,1100,O,m,,,333,,,8,1,2723.800000011921,141492.19999998808,7150,window,AF,B,,,,,,,,,,4
4,prac,1,con,1,m,Fri May 23 2025 10:30:52 GMT-0500 (Central Daylight Time),147513.69999998808,remote,1000,O,m,,,996,,,7,1,3290.699999988079,144223.0,7150,remote,AF,B,,,,,,,,,,5
5,prac,1,con,1,z,Fri May 23 2025 10:30:52 GMT-0500 (Central Daylight Time),150380.30000001192,brutal,800,O,z,,,754,,,13,1,2860.2000000178814,147520.09999999404,7150,brutal,AF,B,,,,,,,,,,6
6,prac,1,con,1,m,Fri May 23 2025 10:30:52 GMT-0500 (Central Daylight Time),152663.19999998808,step,800,O,m,,,166,,,1,1,2276.399999976158,150386.80000001192,7150,step,AF,B,,,,,,,,,,7
6,prac,1,inc,0,z,Fri May 23 2025 10:30:52 GMT-0500 (Central Daylight Time),157844.69999998808,window,1100,O,None,,,1799,,,16,1,5174.399999976158,152670.30000001192,7150,temper,AF,B,,,,,,,,,,8
6,prac,1,inc,0,z,Fri May 23 2025 10:30:52 GMT-0500 (Central Daylight Time),160610.09999999404,napkin,1100,O,m,,,349,,,12,1,2759.0999999940395,157851.0,7150,friend,AF,B,,,,,,,,,,9
7,prac,1,con,1,m,Fri May 23 2025 10:30:52 GMT-0500 (Central Daylight Time),163442.19999998808,jacket,800,O,m,,,719,,,5,1,2825.5,160616.69999998808,7150,jacket,AF,B,,,,,,,,,,10
8,prac,1,con,1,z,Fri May 23 2025 10:30:52 GMT-0500 (Central Daylight Time),166808.0,rage,1000,O,z,,,1055,,,15,1,3359.699999988079,163448.30000001192,7150,rage,AF,B,,,,,,,,,,11
9,prac,1,con,1,z,Fri May 23 2025 10:30:52 GMT-0500 (Central Daylight Time),169641.69999998808,love,1000,O,z,,,548,,,11,1,2826.7999999821186,166814.90000000596,7150,love,AF,B,,,,,,,,,,12
10,prac,1,inc,1,m,Fri May 23 2025 10:30:52 GMT-0500 (Central Daylight Time),172489.59999999404,kind,900,O,m,,,644,,,2,1,2841.2999999821186,169648.30000001192,7150,rock,AF,B,,,,,,,,,,13
11,prac,1,inc,1,z,Fri May 23 2025 10:30:52 GMT-0500 (Central Daylight Time),175439.19999998808,film,900,O,z,,,742,,,14,1,2943.399999976158,172495.80000001192,7150,hate,AF,B,,,,,,,,,,14
12,prac,1,inc,1,m,Fri May 23 2025 10:30:52 GMT-0500 (Central Daylight Time),178455.80000001192,hate,1100,O,m,,,616,,,4,1,3009.5,175446.30000001192,7150,film,AF,B,,,,,,,,,,15
13,prac,1,inc,1,m,Fri May 23 2025 10:30:52 GMT-0500 (Central Daylight Time),181337.69999998808,elated,900,O,m,,,687,,,6,1,2875.5999999940395,178462.09999999404,7150,napkin,AF,B,,,,,,,,,,16
1,test,1,inc,1,z,Fri May 23 2025 10:30:52 GMT-0500 (Central Daylight Time),195166.40000000596,film,1100,O,z,z,None,616,402.0,214.0,56,1,2262.0,192904.40000000596,7150,rage,AF,B,190660,190660,188815,189927,188816,191078,190446,190446,191077,1
2,test,1,inc,1,m,Fri May 23 2025 10:30:52 GMT-0500 (Central Daylight Time),197315.69999998808,love,1000,O,m,m,None,599,399.0,200.0,95,1,2143.199999988079,195172.5,7150,film,AF,B,192810,192811,191083,192094,191084,193227,192610,192610,193227,2
3,test,1,inc,1,z,Fri May 23 2025 10:30:52 GMT-0500 (Central Daylight Time),199398.5,remote,1000,O,z,z,None,559,344.0,215.0,63,1,2076.0999999940395,197322.40000000596,7150,temper,AF,B,194959,194959,193233,194242,193234,195310,194744,194744,195310,3
4,test,1,inc,1,z,Fri May 23 2025 10:30:52 GMT-0500 (Central Daylight Time),201362.5,step,800,O,z,z,None,629,430.0,199.0,45,1,1959.5999999940395,199402.90000000596,7150,hate,AF,B,196841,196841,195314,196125,195314,197274,196642,196642,197274,4
5,test,1,con,1,m,Fri May 23 2025 10:30:52 GMT-0500 (Central Daylight Time),203595.69999998808,film,1100,O,m,m,None,594,394.0,200.0,92,1,2227.199999988079,201368.5,7150,film,AF,B,199109,199109,197280,198392,197280,199507,198908,198908,199507,5
5,test,1,inc,0,z,Fri May 23 2025 10:30:52 GMT-0500 (Central Daylight Time),205828.90000000596,remote,1000,O,m,m,None,693,494.0,199.0,31,1,2227.5,203601.40000000596,7150,friend,AF,B,201241,201241,199512,200524,199513,201740,201042,201042,201740,6
6,test,1,inc,1,z,Fri May 23 2025 10:30:52 GMT-0500 (Central Daylight Time),208296.09999999404,film,1100,O,z,z,None,834,633.0,201.0,16,1,2461.7999999821186,205834.30000001192,7150,kind,AF,B,203574,203574,201745,202857,201746,204207,203373,203373,204207,7
7,test,1,inc,1,z,Fri May 23 2025 10:30:52 GMT-0500 (Central Daylight Time),210278.09999999404,step,800,O,z,z,None,644,444.0,200.0,21,1,1977.0,208301.09999999404,7150,love,AF,B,205739,205739,204212,205024,204213,206189,205539,205539,206189,8
8,test,1,inc,1,m,Fri May 23 2025 10:30:52 GMT-0500 (Central Daylight Time),212294.40000000596,elated,800,O,m,m,None,667,451.0,216.0,109,1,2010.800000011921,210283.59999999404,7150,napkin,AF,B,207740,207740,206195,207006,206195,208205,207523,207523,208205,9
9,test,1,con,1,z,Fri May 23 2025 10:30:52 GMT-0500 (Central Daylight Time),214342.59999999404,brutal,800,O,z,z,None,709,509.0,200.0,33,1,2043.4000000059605,212299.19999998808,7150,brutal,AF,B,209738,209738,208210,209022,208211,210254,209538,209538,210254,10
10,test,1,inc,1,m,Fri May 23 2025 10:30:52 GMT-0500 (Central Daylight Time),216543.5,temper,1000,O,m,m,None,660,460.0,200.0,119,1,2194.800000011921,214348.69999998808,7150,remote,AF,B,211987,211987,210260,211272,210260,212455,211787,211787,212454,11
11,test,1,inc,1,m,Fri May 23 2025 10:30:52 GMT-0500 (Central Daylight Time),218791.09999999404,friend,1100,O,m,m,None,608,409.0,199.0,112,1,2243.199999988079,216547.90000000596,7150,napkin,AF,B,214286,214286,212459,213571,212459,214702,214086,214086,214702,12
12,test,1,con,1,z,Fri May 23 2025 10:30:52 GMT-0500 (Central Daylight Time),220972.80000001192,elated,900,O,z,z,None,732,533.0,199.0,2,1,2176.800000011921,218796.0,7150,elated,AF,B,216337,216337,214707,215620,214707,216884,216136,216137,216884,13
13,test,1,inc,1,z,Fri May 23 2025 10:30:52 GMT-0500 (Central Daylight Time),223139.80000001192,remote,1000,O,z,z,None,628,413.0,215.0,7,1,2159.600000023842,220980.19999998808,7150,elated,AF,B,218634,218634,216891,217903,216892,219051,218419,218419,219051,14
14,test,1,con,1,m,Fri May 23 2025 10:30:52 GMT-0500 (Central Daylight Time),225323.09999999404,jacket,1100,O,m,m,None,547,347.0,200.0,100,1,2177.9000000059605,223145.19999998808,7150,jacket,AF,B,220885,220885,219056,220169,219057,221234,220684,220684,221234,15
15,test,1,con,1,z,Fri May 23 2025 10:30:52 GMT-0500 (Central Daylight Time),227255.5,elated,800,O,z,z,None,591,391.0,200.0,1,1,1924.300000011921,225331.19999998808,7150,elated,AF,B,222768,222768,221242,222051,221243,223167,222568,222568,223167,16
16,test,1,con,1,m,Fri May 23 2025 10:30:52 GMT-0500 (Central Daylight Time),229388.30000001192,window,1000,O,m,m,None,597,398.0,199.0,123,1,2128.2000000178814,227260.09999999404,7150,window,AF,B,224901,224901,223171,224184,223171,225299,224701,224701,225299,17
17,test,1,inc,1,m,Fri May 23 2025 10:30:52 GMT-0500 (Central Daylight Time),231753.40000000596,love,1000,O,m,m,None,836,637.0,199.0,87,1,2361.0,229392.40000000596,7150,bell,AF,B,227017,227017,225303,226314,225304,227664,226818,226818,227664,18
17,test,1,inc,0,z,Fri May 23 2025 10:30:52 GMT-0500 (Central Daylight Time),233836.09999999404,rock,900,O,m,m,None,644,430.0,214.0,22,1,2078.5999999940395,231757.5,7150,love,AF,B,229313,229313,227669,228582,227669,229747,229099,229099,229747,19
18,test,1,inc,1,m,Fri May 23 2025 10:30:52 GMT-0500 (Central Daylight Time),236385.09999999404,hate,1100,O,m,m,None,913,714.0,199.0,88,1,2543.7999999821186,233841.30000001192,7150,bell,AF,B,231582,231582,229752,230865,229753,232296,231382,231382,232296,20
19,test,1,con,1,m,Fri May 23 2025 10:30:52 GMT-0500 (Central Daylight Time),238570.09999999404,bell,1100,O,m,m,None,541,340.0,201.0,84,1,2180.5,236389.59999999404,7150,bell,AF,B,234131,234131,232301,233414,232301,234481,233930,233930,234481,21
20,test,1,con,1,m,Fri May 23 2025 10:30:52 GMT-0500 (Central Daylight Time),240752.69999998808,remote,900,O,m,m,None,758,558.0,200.0,114,1,2173.2999999821186,238579.40000000596,7150,remote,AF,B,236097,236097,234490,235396,234491,236664,235897,235897,236664,22
21,test,1,inc,1,m,Fri May 23 2025 10:30:52 GMT-0500 (Central Daylight Time),243184.19999998808,friend,1100,O,m,m,None,790,590.0,200.0,128,1,2424.0999999940395,240760.09999999404,7150,window,AF,B,238496,238497,236671,237778,236672,239095,238296,238296,239095,23
22,test,1,con,1,z,Fri May 23 2025 10:30:52 GMT-0500 (Central Daylight Time),245367.69999998808,friend,900,O,z,z,None,764,550.0,214.0,26,1,2178.5,243189.19999998808,7150,friend,AF,B,240728,240728,239100,240012,239101,241279,240514,240514,241279,24
23,test,1,con,1,z,Fri May 23 2025 10:30:52 GMT-0500 (Central Daylight Time),247284.19999998808,love,800,O,z,z,None,571,354.0,217.0,17,1,1910.8999999761581,245373.30000001192,7150,love,AF,B,242829,242829,241284,242096,241285,243195,242612,242612,243195,25
24,test,1,inc,1,m,Fri May 23 2025 10:30:52 GMT-0500 (Central Daylight Time),249346.5,brutal,900,O,m,m,None,628,427.0,201.0,110,1,2056.699999988079,247289.80000001192,7150,napkin,AF,B,244827,244827,243201,244110,243201,245258,244626,244626,245257,26
25,test,1,inc,1,z,Fri May 23 2025 10:30:52 GMT-0500 (Central Daylight Time),251597.59999999404,rock,900,O,z,z,None,810,610.0,200.0,14,1,2248.199999988079,249349.40000000596,7150,kind,AF,B,246893,246893,245260,246178,245261,247509,246692,246692,247509,27
26,test,1,con,1,m,Fri May 23 2025 10:30:52 GMT-0500 (Central Daylight Time),253849.59999999404,step,1000,O,m,m,None,716,500.0,216.0,67,1,2246.7999999821186,251602.80000001192,7150,step,AF,B,249242,249242,247514,248525,247514,249761,249026,249026,249761,28
27,test,1,inc,1,z,Fri May 23 2025 10:30:52 GMT-0500 (Central Daylight Time),255963.0,jacket,800,O,z,z,None,771,571.0,200.0,37,1,2108.9000000059605,253854.09999999404,7150,brutal,AF,B,251292,251292,249765,250575,249766,251874,251091,251091,251874,29
28,test,1,inc,1,z,Fri May 23 2025 10:30:52 GMT-0500 (Central Daylight Time),258230.90000000596,remote,1000,O,z,z,None,717,503.0,214.0,39,1,2261.5,255969.40000000596,7150,brutal,AF,B,253624,253624,251880,252891,251881,254142,253409,253409,254142,30
29,test,1,inc,1,m,Fri May 23 2025 10:30:52 GMT-0500 (Central Daylight Time),260262.69999998808,elated,800,O,m,m,None,684,465.0,219.0,117,1,2023.199999988079,258239.5,7150,remote,AF,B,255693,255693,254151,254957,254151,256174,255474,255474,256174,31
30,test,1,inc,1,m,Fri May 23 2025 10:30:52 GMT-0500 (Central Daylight Time),262160.6999999881,rage,800,O,m,m,None,564,364.0,200.0,69,1,1893.699999988079,260267.0,7150,step,AF,B,257707,257707,256178,256990,256178,258072,257506,257506,258072,32
31,test,1,inc,1,z,Fri May 23 2025 10:30:52 GMT-0500 (Central Daylight Time),264426.3000000119,bell,1000,O,z,z,None,718,504.0,214.0,47,1,2260.7000000178814,262165.59999999404,7150,hate,AF,B,259821,259822,258077,259089,258077,260337,259606,259606,260337,33
32,test,1,inc,1,m,Fri May 23 2025 10:30:52 GMT-0500 (Central Daylight Time),266576.40000000596,temper,1000,O,m,m,None,606,407.0,199.0,127,1,2145.5999999940395,264430.8000000119,7150,window,AF,B,262072,262072,260342,261355,260342,262487,261872,261872,262487,34
33,test,1,con,1,z,Fri May 23 2025 10:30:52 GMT-0500 (Central Daylight Time),268742.1999999881,elated,1000,O,z,z,None,641,441.0,200.0,3,1,2158.5,266583.6999999881,7150,elated,AF,B,264206,264206,262495,263504,262495,264653,264006,264006,264653,35
34,test,1,con,1,z,Fri May 23 2025 10:30:52 GMT-0500 (Central Daylight Time),270774.90000000596,temper,800,O,z,z,None,692,493.0,199.0,57,1,2028.5,268746.40000000596,7150,temper,AF,B,266186,266186,264657,265472,264658,266686,265987,265987,266686,36
35,test,1,inc,1,m,Fri May 23 2025 10:30:52 GMT-0500 (Central Daylight Time),272808.40000000596,brutal,900,O,m,m,None,581,365.0,216.0,102,1,2028.800000011921,270779.59999999404,7150,jacket,AF,B,268336,268337,266691,267602,266691,268720,268120,268120,268719,37
36,test,1,con,1,z,Fri May 23 2025 10:30:52 GMT-0500 (Central Daylight Time),275056.3000000119,love,1000,O,z,z,None,714,515.0,199.0,19,1,2243.600000023842,272812.6999999881,7150,love,AF,B,270452,270452,268724,269735,268724,270967,270252,270252,270967,38
37,test,1,con,1,m,Fri May 23 2025 10:30:52 GMT-0500 (Central Daylight Time),276989.40000000596,jacket,800,O,m,m,None,584,385.0,199.0,97,1,1928.7000000178814,275060.6999999881,7150,jacket,AF,B,272502,272502,270972,271786,270972,272901,272302,272302,272900,39
38,test,1,con,1,z,Fri May 23 2025 10:30:52 GMT-0500 (Central Daylight Time),279238.90000000596,hate,1100,O,z,z,None,599,400.0,199.0,44,1,2243.0999999940395,276995.8000000119,7150,hate,AF,B,274735,274735,272907,274017,272907,275150,274535,274535,275150,40
39,test,1,inc,1,z,Fri May 23 2025 10:30:52 GMT-0500 (Central Daylight Time),281321.6999999881,bell,1000,O,z,z,None,538,339.0,199.0,23,1,2078.0,279243.6999999881,7150,love,AF,B,276883,276884,275155,276168,275155,277233,276684,276684,277233,41
40,test,1,inc,1,z,Fri May 23 2025 10:30:52 GMT-0500 (Central Daylight Time),283453.40000000596,bell,1000,O,z,z,None,592,392.0,200.0,15,1,2125.7000000178814,281327.6999999881,7150,kind,AF,B,278967,278967,277239,278249,277239,279364,278766,278766,279364,42
41,test,1,con,1,m,Fri May 23 2025 10:30:52 GMT-0500 (Central Daylight Time),285538.6999999881,remote,800,O,m,m,None,751,552.0,199.0,113,1,2079.899999976158,283458.8000000119,7150,remote,AF,B,280898,280898,279370,280182,279370,281450,280699,280699,281450,43
42,test,1,con,1,m,Fri May 23 2025 10:30:52 GMT-0500 (Central Daylight Time),287451.8000000119,step,800,O,m,m,None,594,394.0,200.0,65,1,1909.1000000238419,285542.6999999881,7150,step,AF,B,282965,282965,281454,282264,281454,283363,282765,282765,283363,44
42,test,1,con,0,z,Fri May 23 2025 10:30:52 GMT-0500 (Central Daylight Time),289467.90000000596,hate,900,O,m,m,None,567,368.0,199.0,42,1,2012.5999999940395,287455.3000000119,7150,hate,AF,B,284998,284998,283366,284281,283367,285379,284798,284798,285379,45
42,test,1,inc,0,z,Fri May 23 2025 10:30:52 GMT-0500 (Central Daylight Time),291600.90000000596,film,1100,O,m,m,None,499,299.0,200.0,48,1,2128.300000011921,289472.59999999404,7150,hate,AF,B,287213,287213,285384,286498,285384,287512,287012,287012,287512,46
43,test,1,con,1,m,Fri May 23 2025 10:30:52 GMT-0500 (Central Daylight Time),293667.0,jacket,900,O,m,m,None,619,420.0,199.0,98,1,2061.4000000059605,291605.59999999404,7150,jacket,AF,B,289145,289146,287517,288429,287517,289578,288946,288946,289578,47
44,test,1,con,1,m,Fri May 23 2025 10:30:52 GMT-0500 (Central Daylight Time),295666.5,window,800,O,m,m,None,653,454.0,199.0,121,1,1995.0,293671.5,7150,window,AF,B,291112,291112,289583,290396,289583,291578,290912,290912,291578,48
45,test,1,con,1,z,Fri May 23 2025 10:30:52 GMT-0500 (Central Daylight Time),297848.8000000119,rage,1100,O,z,z,None,538,323.0,215.0,52,1,2175.800000011921,295673.0,7150,rage,AF,B,293427,293428,291584,292694,291585,293760,293212,293212,293760,49
46,test,1,inc,1,m,Fri May 23 2025 10:30:52 GMT-0500 (Central Daylight Time),300115.1999999881,hate,1100,O,m,m,None,622,421.0,201.0,80,1,2262.199999988079,297853.0,7150,rock,AF,B,295594,295594,293764,294876,293764,296026,295393,295393,296026,50
47,test,1,con,1,z,Fri May 23 2025 10:30:52 GMT-0500 (Central Daylight Time),302249.59999999404,love,1100,O,z,z,None,498,284.0,214.0,20,1,2129.699999988079,300119.90000000596,7150,love,AF,B,297875,297876,296031,297143,296031,298161,297661,297661,298161,51
48,test,1,con,1,z,Fri May 23 2025 10:30:52 GMT-0500 (Central Daylight Time),304347.8000000119,temper,900,O,z,z,None,665,450.0,215.0,58,1,2093.600000023842,302254.1999999881,7150,temper,AF,B,299808,299808,298165,299076,298166,300259,299593,299593,300259,52
49,test,1,con,1,m,Fri May 23 2025 10:30:52 GMT-0500 (Central Daylight Time),306546.6999999881,window,1100,O,m,m,None,556,355.0,201.0,124,1,2193.699999988079,304353.0,7150,window,AF,B,302092,302092,300264,301376,300264,302458,301891,301891,302458,53
50,test,1,inc,1,m,Fri May 23 2025 10:30:52 GMT-0500 (Central Daylight Time),308446.09999999404,elated,800,O,m,m,None,550,351.0,199.0,125,1,1894.2999999821186,306551.8000000119,7150,window,AF,B,303991,303991,302463,303275,302463,304357,303791,303791,304357,54
51,test,1,con,1,m,Fri May 23 2025 10:30:52 GMT-0500 (Central Daylight Time),310777.3000000119,step,1100,O,m,m,None,704,505.0,199.0,68,1,2326.0,308451.3000000119,7150,step,AF,B,306174,306174,304362,305472,304363,306688,305975,305975,306688,55
52,test,1,con,1,z,Fri May 23 2025 10:30:52 GMT-0500 (Central Daylight Time),313028.1999999881,brutal,1000,O,z,z,None,716,516.0,200.0,35,1,2247.399999976158,310780.8000000119,7150,brutal,AF,B,308423,308423,306692,307706,306692,308939,308223,308223,308939,56
53,test,1,con,1,z,Fri May 23 2025 10:30:52 GMT-0500 (Central Daylight Time),314860.5,hate,800,O,z,z,None,502,286.0,216.0,41,1,1827.4000000059605,313033.09999999404,7150,hate,AF,B,310473,310473,308944,309755,308944,310772,310257,310257,310772,57
54,test,1,inc,1,z,Fri May 23 2025 10:30:52 GMT-0500 (Central Daylight Time),316927.09999999404,rock,900,O,z,z,None,631,417.0,214.0,46,1,2063.4000000059605,314863.6999999881,7150,hate,AF,B,312406,312406,310775,311689,310775,312838,312191,312191,312838,58
55,test,1,inc,1,m,Fri May 23 2025 10:30:52 GMT-0500 (Central Daylight Time),318976.3000000119,rage,800,O,m,m,None,707,490.0,217.0,77,1,2044.2000000178814,316932.09999999404,7150,rock,AF,B,314389,314389,312843,313655,312843,314887,314172,314172,314887,59
56,test,1,con,1,z,Fri May 23 2025 10:30:52 GMT-0500 (Central Daylight Time),321226.5,kind,1100,O,z,z,None,616,417.0,199.0,12,1,2244.199999988079,318982.3000000119,7150,kind,AF,B,316720,316720,314893,316004,314894,317138,316520,316520,317138,60
57,test,1,inc,1,z,Fri May 23 2025 10:30:52 GMT-0500 (Central Daylight Time),323540.90000000596,napkin,900,O,z,z,None,892,693.0,199.0,30,1,2308.800000011921,321232.09999999404,7150,friend,AF,B,318753,318753,317143,318053,317143,319452,318554,318554,319452,61
58,test,1,con,1,m,Fri May 23 2025 10:30:52 GMT-0500 (Central Daylight Time),325674.09999999404,jacket,1000,O,m,m,None,589,390.0,199.0,99,1,2128.0999999940395,323546.0,7150,jacket,AF,B,321185,321185,319457,320469,319457,321585,320985,320985,321585,62
59,test,1,inc,1,m,Fri May 23 2025 10:30:52 GMT-0500 (Central Daylight Time),327940.8000000119,friend,1100,O,m,m,None,620,421.0,199.0,104,1,2261.600000023842,325679.1999999881,7150,jacket,AF,B,323418,323418,321590,322701,321591,323852,323219,323219,323852,63
60,test,1,inc,1,m,Fri May 23 2025 10:30:52 GMT-0500 (Central Daylight Time),330073.0,kind,900,O,m,m,None,699,498.0,201.0,78,1,2128.0,327945.0,7150,rock,AF,B,325485,325485,323856,324768,323856,325984,325284,325284,325984,64
60,test,1,con,0,z,Fri May 23 2025 10:30:52 GMT-0500 (Central Daylight Time),332154.09999999404,temper,1000,O,m,m,None,560,347.0,213.0,59,1,2074.5999999940395,330079.5,7150,temper,AF,B,327716,327716,325991,327001,325991,328065,327503,327503,328065,65
61,test,1,inc,1,m,Fri May 23 2025 10:30:52 GMT-0500 (Central Daylight Time),334454.59999999404,hate,1100,O,m,m,None,649,434.0,215.0,72,1,2294.4000000059605,332160.1999999881,7150,step,AF,B,329916,329916,328071,329183,328072,330366,329700,329700,330366,66
62,test,1,con,1,m,Fri May 23 2025 10:30:52 GMT-0500 (Central Daylight Time),336436.09999999404,napkin,900,O,m,m,None,536,336.0,200.0,106,1,1976.9000000059605,334459.1999999881,7150,napkin,AF,B,331999,331999,330370,331283,330371,332347,331799,331799,332347,67
63,test,1,inc,1,z,Fri May 23 2025 10:30:52 GMT-0500 (Central Daylight Time),338403.3000000119,jacket,800,O,z,z,None,617,417.0,200.0,5,1,1962.5,336440.8000000119,7150,elated,AF,B,333882,333882,332352,333165,332352,334314,333681,333681,334314,68
64,test,1,con,1,m,Fri May 23 2025 10:30:52 GMT-0500 (Central Daylight Time),340285.40000000596,rock,800,O,m,m,None,558,343.0,215.0,73,1,1876.0,338409.40000000596,7150,rock,AF,B,335849,335849,334320,335130,334321,336197,335632,335633,336196,69
65,test,1,inc,1,z,Fri May 23 2025 10:30:52 GMT-0500 (Central Daylight Time),342484.90000000596,window,1100,O,z,z,None,567,368.0,199.0,32,1,2194.5,340290.40000000596,7150,friend,AF,B,338014,338014,336201,337313,336202,338396,337815,337815,338396,70
66,test,1,inc,1,z,Fri May 23 2025 10:30:52 GMT-0500 (Central Daylight Time),344734.1999999881,window,1100,O,z,z,None,608,393.0,215.0,40,1,2243.7999999821186,342490.40000000596,7150,brutal,AF,B,340246,340246,338401,339513,338402,340645,340031,340031,340645,71
67,test,1,inc,1,m,Fri May 23 2025 10:30:52 GMT-0500 (Central Daylight Time),346918.3000000119,brutal,900,O,m,m,None,743,543.0,200.0,118,1,2179.800000011921,344738.5,7150,remote,AF,B,342280,342280,340650,341563,340650,342829,342079,342079,342829,72
68,test,1,con,1,m,Fri May 23 2025 10:30:52 GMT-0500 (Central Daylight Time),348933.3000000119,bell,800,O,m,m,None,676,475.0,201.0,81,1,2010.9000000059605,346922.40000000596,7150,bell,AF,B,344363,344363,342833,343646,342834,344844,344162,344162,344844,73
69,test,1,con,1,m,Fri May 23 2025 10:30:52 GMT-0500 (Central Daylight Time),350932.59999999404,step,900,O,m,m,None,552,352.0,200.0,66,1,1993.0999999940395,348939.5,7150,step,AF,B,346478,346478,344851,345764,344851,346844,346278,346278,346843,74
70,test,1,con,1,m,Fri May 23 2025 10:30:52 GMT-0500 (Central Daylight Time),352932.09999999404,film,900,O,m,m,None,560,346.0,214.0,90,1,1994.4000000059605,350937.6999999881,7150,film,AF,B,348492,348493,346849,347760,346849,348843,348278,348278,348843,75
71,test,1,con,1,z,Fri May 23 2025 10:30:52 GMT-0500 (Central Daylight Time),355364.59999999404,friend,1100,O,z,z,None,786,587.0,199.0,28,1,2426.4000000059605,352938.1999999881,7150,friend,AF,B,350675,350675,348849,349959,348850,351276,350476,350476,351276,76
72,test,1,inc,1,z,Fri May 23 2025 10:30:52 GMT-0500 (Central Daylight Time),357614.0,window,1100,O,z,z,None,600,399.0,201.0,8,1,2242.9000000059605,355371.09999999404,7150,elated,AF,B,353111,353111,351282,352393,351283,353525,352910,352910,353525,77
73,test,1,con,1,m,Fri May 23 2025 10:30:52 GMT-0500 (Central Daylight Time),359863.09999999404,film,1000,O,m,m,None,706,491.0,215.0,91,1,2242.2999999821186,357620.8000000119,7150,film,AF,B,355275,355275,353532,354542,353532,355774,355060,355060,355774,78
74,test,1,con,1,z,Fri May 23 2025 10:30:52 GMT-0500 (Central Daylight Time),361779.5,rage,800,O,z,z,None,586,387.0,199.0,49,1,1910.4000000059605,359869.09999999404,7150,rage,AF,B,357291,357291,355780,356591,355781,357691,357092,357092,357691,79
75,test,1,inc,1,z,Fri May 23 2025 10:30:52 GMT-0500 (Central Daylight Time),364029.5,bell,1000,O,z,z,None,726,527.0,199.0,55,1,2242.9000000059605,361786.59999999404,7150,rage,AF,B,359408,359408,357698,358706,357698,359941,359208,359208,359940,80
76,test,1,con,1,m,Fri May 23 2025 10:30:52 GMT-0500 (Central Daylight Time),366262.90000000596,rock,1100,O,m,m,None,610,409.0,201.0,76,1,2225.5,364037.40000000596,7150,rock,AF,B,361757,361757,359948,361054,359949,362174,361556,361556,362174,81
77,test,1,con,1,z,Fri May 23 2025 10:30:52 GMT-0500 (Central Daylight Time),368444.5,temper,1100,O,z,z,None,552,337.0,215.0,60,1,2177.5,366267.0,7150,temper,AF,B,364006,364006,362178,363289,362178,364356,363790,363791,364356,82
78,test,1,inc,1,z,Fri May 23 2025 10:30:52 GMT-0500 (Central Daylight Time),370426.3000000119,jacket,800,O,z,z,None,663,463.0,200.0,29,1,1976.6000000238419,368449.6999999881,7150,friend,AF,B,365872,365872,364361,365170,364361,366337,365672,365672,366337,83
79,test,1,inc,1,m,Fri May 23 2025 10:30:52 GMT-0500 (Central Daylight Time),372541.1999999881,kind,900,O,m,m,None,675,459.0,216.0,94,1,2108.899999976158,370432.3000000119,7150,film,AF,B,367988,367988,366343,367254,366344,368452,367772,367772,368452,84
80,test,1,inc,1,m,Fri May 23 2025 10:30:52 GMT-0500 (Central Daylight Time),374858.3000000119,friend,1100,O,m,m,None,671,472.0,199.0,120,1,2311.0,372547.3000000119,7150,remote,AF,B,370287,370287,368458,369570,368459,370769,370087,370087,370769,85
81,test,1,inc,1,m,Fri May 23 2025 10:30:52 GMT-0500 (Central Daylight Time),376874.8000000119,rage,800,O,m,m,None,682,481.0,201.0,93,1,2011.300000011921,374863.5,7150,film,AF,B,372304,372304,370775,371588,370775,372786,372103,372103,372786,86
82,test,1,inc,1,z,Fri May 23 2025 10:30:52 GMT-0500 (Central Daylight Time),379057.3000000119,napkin,900,O,z,z,None,741,542.0,199.0,38,1,2177.5,376879.8000000119,7150,brutal,AF,B,374417,374417,372791,373701,372791,374968,374218,374218,374968,87
83,test,1,con,1,z,Fri May 23 2025 10:30:52 GMT-0500 (Central Daylight Time),381189.09999999404,kind,1000,O,z,z,None,591,378.0,213.0,11,1,2127.699999988079,379061.40000000596,7150,kind,AF,B,376717,376717,374972,375985,374973,377100,376504,376504,377100,88
84,test,1,inc,1,z,Fri May 23 2025 10:30:52 GMT-0500 (Central Daylight Time),383290.59999999404,step,800,O,z,z,None,767,567.0,200.0,53,1,2096.0,381194.59999999404,7150,rage,AF,B,378634,378634,377106,377918,377106,379202,378433,378433,379202,89
85,test,1,inc,1,m,Fri May 23 2025 10:30:52 GMT-0500 (Central Daylight Time),385237.90000000596,rage,800,O,m,m,None,611,396.0,215.0,85,1,1940.9000000059605,383297.0,7150,bell,AF,B,380748,380748,379208,380016,379208,381149,380533,380533,381149,90
86,test,1,inc,1,m,Fri May 23 2025 10:30:52 GMT-0500 (Central Daylight Time),387553.6999999881,hate,1100,O,m,m,None,670,471.0,199.0,96,1,2311.5999999940395,385242.09999999404,7150,film,AF,B,382983,382983,381153,382267,381153,383465,382783,382783,383465,91
87,test,1,inc,1,m,Fri May 23 2025 10:30:52 GMT-0500 (Central Daylight Time),389803.09999999404,love,1000,O,m,m,None,710,510.0,200.0,79,1,2244.9000000059605,387558.1999999881,7150,rock,AF,B,385200,385200,383469,384484,383470,385714,384999,384999,385714,92
88,test,1,con,1,z,Fri May 23 2025 10:30:52 GMT-0500 (Central Daylight Time),391887.0,kind,800,O,z,z,None,750,551.0,199.0,9,1,2080.199999988079,389806.8000000119,7150,kind,AF,B,387232,387232,385718,386531,385718,387798,387033,387033,387798,93
89,test,1,inc,1,z,Fri May 23 2025 10:30:52 GMT-0500 (Central Daylight Time),394035.0,film,1100,O,z,z,None,519,305.0,214.0,24,1,2141.5,391893.5,7150,love,AF,B,389629,389629,387805,388913,387805,389946,389415,389415,389946,94
90,test,1,inc,1,z,Fri May 23 2025 10:30:52 GMT-0500 (Central Daylight Time),396153.0,napkin,900,O,z,z,None,682,483.0,199.0,6,1,2115.4000000059605,394037.59999999404,7150,elated,AF,B,391580,391580,389949,390862,389949,392064,391380,391380,392064,95
91,test,1,con,1,z,Fri May 23 2025 10:30:52 GMT-0500 (Central Daylight Time),398215.8000000119,friend,1000,O,z,z,None,529,317.0,212.0,27,1,2057.600000023842,396158.1999999881,7150,friend,AF,B,393810,393810,392069,393079,392070,394127,393597,393597,394127,96
92,test,1,con,1,m,Fri May 23 2025 10:30:52 GMT-0500 (Central Daylight Time),400400.40000000596,napkin,1100,O,m,m,None,539,340.0,199.0,108,1,2181.5999999940395,398218.8000000119,7150,napkin,AF,B,395962,395962,394130,395247,394130,396312,395762,395762,396311,97
93,test,1,inc,1,m,Fri May 23 2025 10:30:52 GMT-0500 (Central Daylight Time),402565.3000000119,temper,1000,O,m,m,None,615,416.0,199.0,103,1,2159.2000000178814,400406.09999999404,7150,jacket,AF,B,398046,398046,396317,397327,396318,398476,397847,397847,398476,98
94,test,1,con,1,m,Fri May 23 2025 10:30:52 GMT-0500 (Central Daylight Time),404815.3000000119,napkin,1000,O,m,m,None,715,516.0,199.0,107,1,2245.100000023842,402570.1999999881,7150,napkin,AF,B,400210,400210,398481,399495,398482,400726,400010,400010,400726,99
95,test,1,con,1,m,Fri May 23 2025 10:30:52 GMT-0500 (Central Daylight Time),407130.90000000596,rock,1000,O,m,m,None,772,572.0,200.0,75,1,2311.7000000178814,404819.1999999881,7150,rock,AF,B,402459,402459,400730,401743,400730,403042,402259,402259,403042,100
96,test,1,con,1,z,Fri May 23 2025 10:30:52 GMT-0500 (Central Daylight Time),409398.8000000119,rage,1000,O,z,z,None,728,528.0,200.0,51,1,2263.2000000178814,407135.59999999404,7150,rage,AF,B,404775,404775,403047,404060,403047,405310,404575,404575,405310,101
97,test,1,con,1,m,Fri May 23 2025 10:30:52 GMT-0500 (Central Daylight Time),411431.6999999881,window,900,O,m,m,None,592,377.0,215.0,122,1,2028.7999999821186,409402.90000000596,7150,window,AF,B,406958,406958,405314,406225,405314,407343,406743,406743,407343,102
98,test,1,inc,1,z,Fri May 23 2025 10:30:52 GMT-0500 (Central Daylight Time),413513.1999999881,napkin,900,O,z,z,None,650,451.0,199.0,62,1,2076.899999976158,411436.3000000119,7150,temper,AF,B,408973,408973,407347,408257,407348,409424,408774,408774,409424,103
99,test,1,inc,1,z,Fri May 23 2025 10:30:52 GMT-0500 (Central Daylight Time),415744.59999999404,window,1100,O,z,z,None,587,373.0,214.0,64,1,2227.4000000059605,413517.1999999881,7150,temper,AF,B,411273,411273,409428,410541,409429,411656,411058,411059,411656,104
100,test,1,con,1,m,Fri May 23 2025 10:30:52 GMT-0500 (Central Daylight Time),418278.59999999404,rock,900,O,m,m,None,1084,885.0,199.0,74,1,2530.199999988079,415748.40000000596,7150,rock,AF,B,413289,413289,411659,412575,411660,414190,413090,413090,414190,105
101,test,1,con,1,m,Fri May 23 2025 10:30:52 GMT-0500 (Central Daylight Time),420325.90000000596,remote,1000,O,m,m,None,507,308.0,199.0,115,1,2043.9000000059605,418282.0,7150,remote,AF,B,415922,415922,414193,415208,414193,416237,415722,415722,416237,106
102,test,1,con,1,z,Fri May 23 2025 10:30:52 GMT-0500 (Central Daylight Time),422458.59999999404,brutal,1100,O,z,z,None,494,278.0,216.0,36,1,2125.9000000059605,420332.6999999881,7150,brutal,AF,B,418088,418088,416244,417355,416244,418370,417872,417872,418370,107
103,test,1,con,1,z,Fri May 23 2025 10:30:52 GMT-0500 (Central Daylight Time),424360.59999999404,love,900,O,z,z,None,450,235.0,215.0,18,1,1897.7999999821186,422462.8000000119,7150,love,AF,B,420021,420021,418374,419289,418374,420272,419805,419806,420272,108
104,test,1,con,1,z,Fri May 23 2025 10:30:52 GMT-0500 (Central Daylight Time),426158.09999999404,friend,800,O,z,z,None,451,252.0,199.0,25,1,1793.9000000059605,424364.1999999881,7150,friend,AF,B,421802,421802,420275,421086,420276,422069,421603,421603,422069,109
105,test,1,inc,1,m,Fri May 23 2025 10:30:52 GMT-0500 (Central Daylight Time),428241.40000000596,brutal,900,O,m,m,None,639,439.0,200.0,126,1,2079.300000011921,426162.09999999404,7150,window,AF,B,423703,423703,422073,422987,422073,424152,423502,423502,424152,110
105,test,1,con,0,z,Fri May 23 2025 10:30:52 GMT-0500 (Central Daylight Time),430190.40000000596,rage,900,O,m,m,None,510,308.0,202.0,50,1,1944.5999999940395,428245.8000000119,7150,rage,AF,B,425786,425786,424157,425069,424157,426101,425584,425584,426101,111
106,test,1,con,1,z,Fri May 23 2025 10:30:52 GMT-0500 (Central Daylight Time),432355.8000000119,elated,1100,O,z,z,None,524,325.0,199.0,4,1,2161.300000011921,430194.5,7150,elated,AF,B,427937,427937,426106,427219,426106,428267,427737,427737,428267,112
107,test,1,con,1,z,Fri May 23 2025 10:30:52 GMT-0500 (Central Daylight Time),434422.40000000596,brutal,900,O,z,z,None,627,427.0,200.0,34,1,2063.0,432359.40000000596,7150,brutal,AF,B,429900,429900,428270,429188,428271,430333,429700,429700,430333,113
108,test,1,inc,1,z,Fri May 23 2025 10:30:52 GMT-0500 (Central Daylight Time),436387.40000000596,step,800,O,z,z,None,618,418.0,200.0,13,1,1959.5,434427.90000000596,7150,kind,AF,B,431868,431868,430339,431151,430339,432299,431667,431667,432298,114
109,test,1,inc,1,z,Fri May 23 2025 10:30:52 GMT-0500 (Central Daylight Time),438388.0,jacket,800,O,z,z,None,661,462.0,199.0,61,1,1995.199999988079,436392.8000000119,7150,temper,AF,B,433833,433833,432304,433116,432304,434299,433633,433633,434299,115
110,test,1,inc,1,m,Fri May 23 2025 10:30:52 GMT-0500 (Central Daylight Time),440687.5,temper,1000,O,m,m,None,751,551.0,200.0,111,1,2296.0999999940395,438391.40000000596,7150,napkin,AF,B,436032,436032,434302,435316,434303,436599,435832,435832,436599,116
111,test,1,con,1,m,Fri May 23 2025 10:30:52 GMT-0500 (Central Daylight Time),443087.6999999881,remote,1100,O,m,m,None,766,566.0,200.0,116,1,2392.7999999821186,440694.90000000596,7150,remote,AF,B,438432,438432,436606,437715,436606,438999,438231,438231,438999,117
112,test,1,inc,1,m,Fri May 23 2025 10:30:52 GMT-0500 (Central Daylight Time),445435.40000000596,love,1000,O,m,m,None,817,603.0,214.0,71,1,2342.5999999940395,443092.8000000119,7150,step,AF,B,440731,440731,439004,440014,439004,441346,440516,440516,441346,118
113,test,1,inc,1,m,Fri May 23 2025 10:30:52 GMT-0500 (Central Daylight Time),447467.90000000596,kind,900,O,m,m,None,594,394.0,200.0,86,1,2027.2000000178814,445440.6999999881,7150,bell,AF,B,442981,442981,441352,442264,441352,443379,442780,442780,443379,119
114,test,1,con,1,m,Fri May 23 2025 10:30:52 GMT-0500 (Central Daylight Time),449284.3000000119,film,800,O,m,m,None,478,277.0,201.0,89,1,1811.6000000238419,447472.6999999881,7150,film,AF,B,444913,444913,443384,444198,443384,445195,444712,444712,445195,120
115,test,1,con,1,m,Fri May 23 2025 10:30:52 GMT-0500 (Central Daylight Time),451334.09999999404,bell,1000,O,m,m,None,501,300.0,201.0,83,1,2045.5,449288.59999999404,7150,bell,AF,B,446930,446930,445200,446212,445200,447245,446729,446729,447245,121
116,test,1,con,1,m,Fri May 23 2025 10:30:52 GMT-0500 (Central Daylight Time),453233.1999999881,bell,900,O,m,m,None,454,255.0,199.0,82,1,1894.0,451339.1999999881,7150,bell,AF,B,448879,448879,447250,448163,447251,449144,448679,448679,449144,122
117,test,1,con,1,z,Fri May 23 2025 10:30:52 GMT-0500 (Central Daylight Time),455314.40000000596,hate,1000,O,z,z,None,551,336.0,215.0,43,1,2077.300000011921,453237.09999999404,7150,hate,AF,B,450878,450878,449148,450160,449148,451225,450662,450662,451225,123
118,test,1,inc,1,z,Fri May 23 2025 10:30:52 GMT-0500 (Central Daylight Time),457432.90000000596,rock,900,O,z,z,None,690,491.0,199.0,54,1,2112.800000011921,455320.09999999404,7150,rage,AF,B,452844,452844,451231,452141,451232,453344,452645,452645,453344,124
119,test,1,inc,1,m,Fri May 23 2025 10:30:52 GMT-0500 (Central Daylight Time),459463.59999999404,elated,800,O,m,m,None,690,490.0,200.0,101,1,2027.0,457436.59999999404,7150,jacket,AF,B,454877,454877,453348,454159,453348,455375,454677,454677,455375,125
120,test,1,inc,1,m,Fri May 23 2025 10:30:52 GMT-0500 (Central Daylight Time),461563.6999999881,kind,900,O,m,m,None,654,453.0,201.0,70,1,2095.5,459468.1999999881,7150,step,AF,B,457010,457010,455379,456293,455379,457475,456809,456809,457475,126
121,test,1,con,1,m,Fri May 23 2025 10:30:52 GMT-0500 (Central Daylight Time),463414.0,napkin,800,O,m,m,None,500,301.0,199.0,105,1,1845.699999988079,461568.3000000119,7150,napkin,AF,B,459009,459009,457479,458292,457480,459325,458810,458810,459325,127
122,test,1,con,1,z,Fri May 23 2025 10:30:52 GMT-0500 (Central Daylight Time),465363.3000000119,kind,900,O,z,z,None,503,288.0,215.0,10,1,1943.7000000178814,463419.59999999404,7150,kind,AF,B,460975,460975,459331,460242,459331,461274,460759,460759,461274,128
