Number,acc_sum,block,block_c,block_cond,con_img,correct,correct_response,datetime,endtime,jitter,project,response,response_time,row_sel,session_number,start_end,starttime,subject_id,task,task_vers,trial
2,1,prac,1,A,circle.png,1,z,Tue May 12 2026 09:38:17 GMT-0500 (Central Daylight Time),100181.10000002384,2000,O,z,885,2,1,3673.5,96507.60000002384,7806,NTS,A,1
4,2,prac,1,A,circle.png,1,z,Tue May 12 2026 09:38:17 GMT-0500 (Central Daylight Time),103345.90000009537,1400,O,z,972,4,1,3155.9000000953674,100190.0,7806,NTS,A,2
1,3,prac,1,A,circle.png,1,z,Tue May 12 2026 09:38:17 GMT-0500 (Central Daylight Time),105678.70000004768,1000,O,z,531,1,1,2326.5,103352.20000004768,7806,NTS,A,3
8,4,prac,1,A,circle.png,1,m,Tue May 12 2026 09:38:17 GMT-0500 (Central Daylight Time),108595.10000002384,1600,O,m,536,7,1,2909.6999999284744,105685.40000009537,7806,NTS,A,4
3,5,prac,1,A,circle.png,1,z,Tue May 12 2026 09:38:17 GMT-0500 (Central Daylight Time),111143.40000009537,1200,O,z,556,3,1,2541.600000023842,108601.80000007153,7806,NTS,A,5
8,6,prac,1,A,circle.png,1,m,Tue May 12 2026 09:38:17 GMT-0500 (Central Daylight Time),114175.80000007153,1600,O,m,639,7,1,3026.0,111149.80000007153,7806,NTS,A,6
6,7,prac,1,A,circle.png,1,m,Tue May 12 2026 09:38:17 GMT-0500 (Central Daylight Time),117705.80000007153,1900,O,m,836,5,1,3522.600000023842,114183.20000004768,7806,NTS,A,7
7,8,prac,1,A,circle.png,1,m,Tue May 12 2026 09:38:17 GMT-0500 (Central Daylight Time),120807.70000004768,1700,O,m,599,6,1,3091.2999999523163,117716.40000009537,7806,NTS,A,8
2,9,prac,1,A,circle.png,1,z,Tue May 12 2026 09:38:17 GMT-0500 (Central Daylight Time),124222.0,2000,O,z,634,2,1,3407.0999999046326,120814.90000009537,7806,NTS,A,9
3,10,prac,1,A,circle.png,1,z,Tue May 12 2026 09:38:17 GMT-0500 (Central Daylight Time),126840.0,1200,O,z,619,3,1,2612.7999999523163,124227.20000004768,7806,NTS,A,10
7,11,prac,1,A,circle.png,1,m,Tue May 12 2026 09:38:17 GMT-0500 (Central Daylight Time),129904.90000009537,1700,O,m,588,6,1,3059.8000000715256,126845.10000002384,7806,NTS,A,11
9,12,prac,1,A,circle.png,1,m,Tue May 12 2026 09:38:17 GMT-0500 (Central Daylight Time),132920.70000004768,1500,O,m,718,8,1,3010.0,129910.70000004768,7806,NTS,A,12
2,0,prac,1,B,triangle.png,0,m,Tue May 12 2026 09:38:17 GMT-0500 (Central Daylight Time),191802.0,1700,O,z,1234,2,1,3728.1999999284744,188073.80000007153,7806,NTS,A,1
6,0,prac,1,B,triangle.png,0,m,Tue May 12 2026 09:38:17 GMT-0500 (Central Daylight Time),195100.10000002384,1000,O,None,1515,5,1,3290.399999976158,191809.70000004768,7806,NTS,A,2
9,1,prac,1,B,triangle.png,1,z,Tue May 12 2026 09:38:17 GMT-0500 (Central Daylight Time),198234.40000009537,1400,O,z,933,8,1,3127.4000000953674,195107.0,7806,NTS,A,3
4,2,prac,1,B,triangle.png,1,m,Tue May 12 2026 09:38:17 GMT-0500 (Central Daylight Time),201898.30000007153,1500,O,m,1367,4,1,3658.8000000715256,198239.5,7806,NTS,A,4
4,3,prac,1,B,triangle.png,1,m,Tue May 12 2026 09:38:17 GMT-0500 (Central Daylight Time),204763.40000009537,1500,O,m,572,4,1,2858.8000000715256,201904.60000002384,7806,NTS,A,5
8,4,prac,1,B,triangle.png,1,m,Tue May 12 2026 09:38:17 GMT-0500 (Central Daylight Time),207445.60000002384,1200,O,m,683,7,1,2676.600000023842,204769.0,7806,NTS,A,6
7,5,prac,1,B,triangle.png,1,z,Tue May 12 2026 09:38:17 GMT-0500 (Central Daylight Time),210979.10000002384,2000,O,z,754,6,1,3528.1999999284744,207450.90000009537,7806,NTS,A,7
8,6,prac,1,B,triangle.png,1,m,Tue May 12 2026 09:38:17 GMT-0500 (Central Daylight Time),213660.5,1200,O,m,686,7,1,2675.0,210985.5,7806,NTS,A,8
1,7,prac,1,B,triangle.png,1,z,Tue May 12 2026 09:38:17 GMT-0500 (Central Daylight Time),217010.20000004768,1900,O,z,649,1,1,3344.0,213666.20000004768,7806,NTS,A,9
2,8,prac,1,B,triangle.png,1,m,Tue May 12 2026 09:38:17 GMT-0500 (Central Daylight Time),220509.20000004768,1700,O,m,1001,2,1,3492.5,217016.70000004768,7806,NTS,A,10
9,9,prac,1,B,triangle.png,1,z,Tue May 12 2026 09:38:17 GMT-0500 (Central Daylight Time),223425.40000009537,1400,O,z,724,8,1,2909.8000000715256,220515.60000002384,7806,NTS,A,11
3,10,prac,1,B,triangle.png,1,z,Tue May 12 2026 09:38:17 GMT-0500 (Central Daylight Time),226756.80000007153,1600,O,z,943,3,1,3327.600000023842,223429.20000004768,7806,NTS,A,12
1,1,test,1,A,circle.png,1,z,Tue May 12 2026 09:38:17 GMT-0500 (Central Daylight Time),251865.5,1000,O,z,859,1,1,1878.2999999523163,249987.20000004768,7806,NTS,A,1
4,2,test,1,A,circle.png,1,z,Tue May 12 2026 09:38:17 GMT-0500 (Central Daylight Time),254397.70000004768,1400,O,z,1113,4,1,2527.399999976158,251870.30000007153,7806,NTS,A,2
9,3,test,1,A,circle.png,1,m,Tue May 12 2026 09:38:17 GMT-0500 (Central Daylight Time),256479.90000009537,1500,O,m,548,8,1,2078.7000000476837,254401.20000004768,7806,NTS,A,3
1,4,test,1,A,circle.png,1,z,Tue May 12 2026 09:38:17 GMT-0500 (Central Daylight Time),258196.40000009537,1000,O,z,689,1,1,1710.7000000476837,256485.70000004768,7806,NTS,A,4
3,5,test,1,A,circle.png,1,z,Tue May 12 2026 09:38:17 GMT-0500 (Central Daylight Time),259995.90000009537,1200,O,z,580,3,1,1795.1000000238419,258200.80000007153,7806,NTS,A,5
6,6,test,1,A,circle.png,1,m,Tue May 12 2026 09:38:17 GMT-0500 (Central Daylight Time),262594.3000000715,1900,O,m,665,5,1,2594.3000000715256,260000.0,7806,NTS,A,6
2,7,test,1,A,circle.png,1,z,Tue May 12 2026 09:38:17 GMT-0500 (Central Daylight Time),265243.7000000477,2000,O,z,629,2,1,2643.5,262600.2000000477,7806,NTS,A,7
7,8,test,1,A,circle.png,1,m,Tue May 12 2026 09:38:17 GMT-0500 (Central Daylight Time),267742.8000000715,1700,O,m,765,6,1,2494.399999976158,265248.40000009537,7806,NTS,A,8
8,8,test,1,A,circle.png,0,m,Tue May 12 2026 09:38:17 GMT-0500 (Central Daylight Time),270725.5,1600,O,z,1352,7,1,2976.0,267749.5,7806,NTS,A,9
4,9,test,1,A,circle.png,1,z,Tue May 12 2026 09:38:17 GMT-0500 (Central Daylight Time),273108.10000002384,1400,O,z,962,4,1,2377.399999976158,270730.7000000477,7806,NTS,A,10
7,10,test,1,A,circle.png,1,m,Tue May 12 2026 09:38:17 GMT-0500 (Central Daylight Time),275491.5,1700,O,m,663,6,1,2378.5999999046326,273112.90000009537,7806,NTS,A,11
2,11,test,1,A,circle.png,1,z,Tue May 12 2026 09:38:17 GMT-0500 (Central Daylight Time),278190.2000000477,2000,O,z,677,2,1,2691.5,275498.7000000477,7806,NTS,A,12
6,12,test,1,A,circle.png,1,m,Tue May 12 2026 09:38:17 GMT-0500 (Central Daylight Time),281072.0,1900,O,m,951,5,1,2875.5999999046326,278196.40000009537,7806,NTS,A,13
6,13,test,1,A,circle.png,1,m,Tue May 12 2026 09:38:17 GMT-0500 (Central Daylight Time),283571.8000000715,1900,O,m,572,5,1,2494.8000000715256,281077.0,7806,NTS,A,14
2,14,test,1,A,circle.png,1,z,Tue May 12 2026 09:38:17 GMT-0500 (Central Daylight Time),286337.5,2000,O,z,740,2,1,2759.0,283578.5,7806,NTS,A,15
1,15,test,1,A,circle.png,1,z,Tue May 12 2026 09:38:17 GMT-0500 (Central Daylight Time),288086.0,1000,O,z,725,1,1,1744.5999999046326,286341.40000009537,7806,NTS,A,16
8,16,test,1,A,circle.png,1,m,Tue May 12 2026 09:38:17 GMT-0500 (Central Daylight Time),290486.5,1600,O,m,778,7,1,2397.1999999284744,288089.3000000715,7806,NTS,A,17
6,17,test,1,A,circle.png,1,m,Tue May 12 2026 09:38:17 GMT-0500 (Central Daylight Time),293285.3000000715,1900,O,m,880,5,1,2794.399999976158,290490.90000009537,7806,NTS,A,18
3,18,test,1,A,circle.png,1,z,Tue May 12 2026 09:38:17 GMT-0500 (Central Daylight Time),295283.90000009537,1200,O,z,780,3,1,1994.0,293289.90000009537,7806,NTS,A,19
9,19,test,1,A,circle.png,1,m,Tue May 12 2026 09:38:17 GMT-0500 (Central Daylight Time),297517.5,1500,O,m,710,8,1,2229.2999999523163,295288.2000000477,7806,NTS,A,20
8,20,test,1,A,circle.png,1,m,Tue May 12 2026 09:38:17 GMT-0500 (Central Daylight Time),299848.5,1600,O,m,706,7,1,2327.0999999046326,297521.40000009537,7806,NTS,A,21
3,21,test,1,A,circle.png,1,z,Tue May 12 2026 09:38:17 GMT-0500 (Central Daylight Time),301783.2000000477,1200,O,z,701,3,1,1930.2999999523163,299852.90000009537,7806,NTS,A,22
7,22,test,1,A,circle.png,1,m,Tue May 12 2026 09:38:17 GMT-0500 (Central Daylight Time),304197.5,1700,O,m,685,6,1,2408.6999999284744,301788.8000000715,7806,NTS,A,23
2,23,test,1,A,circle.png,1,z,Tue May 12 2026 09:38:17 GMT-0500 (Central Daylight Time),306764.40000009537,2000,O,z,546,2,1,2563.600000023842,304200.8000000715,7806,NTS,A,24
1,1,test,1,B,triangle.png,1,z,Tue May 12 2026 09:38:17 GMT-0500 (Central Daylight Time),333405.2000000477,1900,O,z,996,1,1,2908.399999976158,330496.8000000715,7806,NTS,A,1
4,2,test,1,B,triangle.png,1,m,Tue May 12 2026 09:38:17 GMT-0500 (Central Daylight Time),335938.40000009537,1500,O,m,1002,4,1,2529.3000000715256,333409.10000002384,7806,NTS,A,2
8,3,test,1,B,triangle.png,1,m,Tue May 12 2026 09:38:17 GMT-0500 (Central Daylight Time),337887.8000000715,1200,O,m,727,7,1,1944.6000000238419,335943.2000000477,7806,NTS,A,3
1,4,test,1,B,triangle.png,1,z,Tue May 12 2026 09:38:17 GMT-0500 (Central Daylight Time),340536.90000009537,1900,O,z,722,1,1,2644.100000023842,337892.8000000715,7806,NTS,A,4
2,5,test,1,B,triangle.png,1,m,Tue May 12 2026 09:38:17 GMT-0500 (Central Daylight Time),342570.7000000477,1200,O,m,807,10,1,2030.7999999523163,340539.90000009537,7806,NTS,A,5
9,6,test,1,B,triangle.png,1,z,Tue May 12 2026 09:38:17 GMT-0500 (Central Daylight Time),345785.40000009537,1900,O,z,1283,16,1,3211.4000000953674,342574.0,7806,NTS,A,6
1,7,test,1,B,triangle.png,1,z,Tue May 12 2026 09:38:17 GMT-0500 (Central Daylight Time),347934.10000002384,1400,O,z,728,9,1,2142.899999976158,345791.2000000477,7806,NTS,A,7
4,8,test,1,B,triangle.png,1,m,Tue May 12 2026 09:38:17 GMT-0500 (Central Daylight Time),350051.10000002384,1500,O,m,599,4,1,2113.5,347937.60000002384,7806,NTS,A,8
7,9,test,1,B,triangle.png,1,z,Tue May 12 2026 09:38:17 GMT-0500 (Central Daylight Time),352916.60000002384,2000,O,z,849,6,1,2860.2999999523163,350056.3000000715,7806,NTS,A,9
8,10,test,1,B,triangle.png,1,m,Tue May 12 2026 09:38:17 GMT-0500 (Central Daylight Time),355315.0,1700,O,m,664,15,1,2394.0999999046326,352920.90000009537,7806,NTS,A,10
6,11,test,1,B,triangle.png,1,m,Tue May 12 2026 09:38:17 GMT-0500 (Central Daylight Time),357813.7000000477,1500,O,m,968,13,1,2493.899999976158,355319.8000000715,7806,NTS,A,11
9,12,test,1,B,triangle.png,1,z,Tue May 12 2026 09:38:17 GMT-0500 (Central Daylight Time),360081.3000000715,1400,O,z,834,8,1,2264.7000000476837,357816.60000002384,7806,NTS,A,12
7,13,test,1,B,triangle.png,1,z,Tue May 12 2026 09:38:17 GMT-0500 (Central Daylight Time),362496.8000000715,1600,O,z,783,14,1,2410.8000000715256,360086.0,7806,NTS,A,13
3,14,test,1,B,triangle.png,1,z,Tue May 12 2026 09:38:17 GMT-0500 (Central Daylight Time),364764.10000002384,1600,O,z,638,3,1,2263.399999976158,362500.7000000477,7806,NTS,A,14
7,15,test,1,B,triangle.png,1,z,Tue May 12 2026 09:38:17 GMT-0500 (Central Daylight Time),367112.40000009537,1600,O,z,716,14,1,2344.8000000715256,364767.60000002384,7806,NTS,A,15
4,16,test,1,B,triangle.png,1,m,Tue May 12 2026 09:38:17 GMT-0500 (Central Daylight Time),368895.60000002384,1000,O,m,751,12,1,1778.1999999284744,367117.40000009537,7806,NTS,A,16
2,17,test,1,B,triangle.png,1,m,Tue May 12 2026 09:38:17 GMT-0500 (Central Daylight Time),371293.2000000477,1700,O,m,668,2,1,2393.100000023842,368900.10000002384,7806,NTS,A,17
2,18,test,1,B,triangle.png,1,m,Tue May 12 2026 09:38:17 GMT-0500 (Central Daylight Time),373342.60000002384,1200,O,m,825,10,1,2046.1999999284744,371296.40000009537,7806,NTS,A,18
8,19,test,1,B,triangle.png,1,m,Tue May 12 2026 09:38:17 GMT-0500 (Central Daylight Time),375609.7000000477,1700,O,m,540,15,1,2262.7999999523163,373346.90000009537,7806,NTS,A,19
6,20,test,1,B,triangle.png,1,m,Tue May 12 2026 09:38:17 GMT-0500 (Central Daylight Time),377209.0,1000,O,m,567,5,1,1594.5,375614.5,7806,NTS,A,20
4,21,test,1,B,triangle.png,1,m,Tue May 12 2026 09:38:17 GMT-0500 (Central Daylight Time),378723.8000000715,1000,O,m,494,12,1,1510.5,377213.3000000715,7806,NTS,A,21
7,22,test,1,B,triangle.png,1,z,Tue May 12 2026 09:38:17 GMT-0500 (Central Daylight Time),381308.2000000477,2000,O,z,547,6,1,2581.100000023842,378727.10000002384,7806,NTS,A,22
3,23,test,1,B,triangle.png,1,z,Tue May 12 2026 09:38:17 GMT-0500 (Central Daylight Time),383872.8000000715,2000,O,z,535,11,1,2557.7000000476837,381315.10000002384,7806,NTS,A,23
6,24,test,1,B,triangle.png,1,m,Tue May 12 2026 09:38:17 GMT-0500 (Central Daylight Time),385571.40000009537,1000,O,m,669,5,1,1692.6000000238419,383878.8000000715,7806,NTS,A,24
9,0,prac,1,C,circle.png,0,m,Tue May 12 2026 09:38:17 GMT-0500 (Central Daylight Time),434557.3000000715,1900,O,None,1513,8,1,4193.100000023842,430364.2000000477,7806,NTS,A,1
1,0,prac,1,C,circle.png,0,z,Tue May 12 2026 09:38:17 GMT-0500 (Central Daylight Time),438488.7000000477,1700,O,m,1439,1,1,3922.5,434566.2000000477,7806,NTS,A,2
2,1,prac,1,C,triangle.png,1,m,Tue May 12 2026 09:38:17 GMT-0500 (Central Daylight Time),442272.90000009537,1600,O,m,1390,2,1,3779.9000000953674,438493.0,7806,NTS,A,3
6,1,prac,1,C,circle.png,0,m,Tue May 12 2026 09:38:17 GMT-0500 (Central Daylight Time),446570.5,2000,O,None,1516,5,1,4291.599999904633,442278.90000009537,7806,NTS,A,4
3,1,prac,1,C,triangle.png,0,z,Tue May 12 2026 09:38:17 GMT-0500 (Central Daylight Time),450368.5,1500,O,None,1517,3,1,3790.6999999284744,446577.8000000715,7806,NTS,A,5
8,1,prac,1,C,triangle.png,0,m,Tue May 12 2026 09:38:17 GMT-0500 (Central Daylight Time),454049.60000002384,1400,O,None,1501,7,1,3675.7999999523163,450373.8000000715,7806,NTS,A,6
4,2,prac,1,C,circle.png,1,z,Tue May 12 2026 09:38:17 GMT-0500 (Central Daylight Time),456932.8000000715,1000,O,z,1093,4,1,2876.8000000715256,454056.0,7806,NTS,A,7
4,3,prac,1,C,circle.png,1,z,Tue May 12 2026 09:38:17 GMT-0500 (Central Daylight Time),459382.90000009537,1000,O,z,650,4,1,2445.600000023842,456937.3000000715,7806,NTS,A,8
3,4,prac,1,C,triangle.png,1,z,Tue May 12 2026 09:38:17 GMT-0500 (Central Daylight Time),462632.10000002384,1500,O,z,950,3,1,3243.600000023842,459388.5,7806,NTS,A,9
1,4,prac,1,C,circle.png,0,z,Tue May 12 2026 09:38:17 GMT-0500 (Central Daylight Time),466629.0,1700,O,None,1515,1,1,3990.1999999284744,462638.8000000715,7806,NTS,A,10
7,4,prac,1,C,triangle.png,0,z,Tue May 12 2026 09:38:17 GMT-0500 (Central Daylight Time),469880.0,1200,O,m,1259,6,1,3244.0999999046326,466635.90000009537,7806,NTS,A,11
2,4,prac,1,C,triangle.png,0,m,Tue May 12 2026 09:38:17 GMT-0500 (Central Daylight Time),473762.2000000477,1600,O,None,1501,2,1,3875.600000023842,469886.60000002384,7806,NTS,A,12
8,0,prac,2,C,triangle.png,0,m,Tue May 12 2026 09:38:17 GMT-0500 (Central Daylight Time),494888.5,1400,O,None,1516,7,1,3694.7999999523163,491193.7000000477,7806,NTS,A,1
1,1,prac,2,C,circle.png,1,z,Tue May 12 2026 09:38:17 GMT-0500 (Central Daylight Time),498352.7000000477,1700,O,z,981,1,1,3456.7999999523163,494895.90000009537,7806,NTS,A,2
3,2,prac,2,C,triangle.png,1,z,Tue May 12 2026 09:38:17 GMT-0500 (Central Daylight Time),501635.7000000477,1500,O,z,995,3,1,3273.399999976158,498362.3000000715,7806,NTS,A,3
3,3,prac,2,C,triangle.png,1,z,Tue May 12 2026 09:38:17 GMT-0500 (Central Daylight Time),504767.60000002384,1500,O,z,836,3,1,3123.6999999284744,501643.90000009537,7806,NTS,A,4
4,4,prac,2,C,circle.png,1,z,Tue May 12 2026 09:38:17 GMT-0500 (Central Daylight Time),507617.2000000477,1000,O,z,1065,4,1,2842.7000000476837,504774.5,7806,NTS,A,5
9,5,prac,2,C,circle.png,1,m,Tue May 12 2026 09:38:17 GMT-0500 (Central Daylight Time),511032.2000000477,1900,O,m,718,8,1,3410.399999976158,507621.8000000715,7806,NTS,A,6
1,6,prac,2,C,circle.png,1,z,Tue May 12 2026 09:38:17 GMT-0500 (Central Daylight Time),514329.60000002384,1700,O,z,811,1,1,3289.7999999523163,511039.8000000715,7806,NTS,A,7
9,7,prac,2,C,circle.png,1,m,Tue May 12 2026 09:38:17 GMT-0500 (Central Daylight Time),518097.3000000715,1900,O,m,1073,8,1,3763.899999976158,514333.40000009537,7806,NTS,A,8
7,8,prac,2,C,triangle.png,1,z,Tue May 12 2026 09:38:17 GMT-0500 (Central Daylight Time),521279.60000002384,1200,O,z,1184,6,1,3174.0,518105.60000002384,7806,NTS,A,9
2,8,prac,2,C,triangle.png,0,m,Tue May 12 2026 09:38:17 GMT-0500 (Central Daylight Time),524761.2000000477,1600,O,z,1090,2,1,3475.7999999523163,521285.40000009537,7806,NTS,A,10
6,9,prac,2,C,circle.png,1,m,Tue May 12 2026 09:38:17 GMT-0500 (Central Daylight Time),528726.7000000477,2000,O,m,1174,5,1,3958.2999999523163,524768.4000000954,7806,NTS,A,11
2,9,prac,2,C,triangle.png,0,m,Tue May 12 2026 09:38:17 GMT-0500 (Central Daylight Time),532626.2000000477,1600,O,None,1517,2,1,3895.399999976158,528730.8000000715,7806,NTS,A,12
7,0,test,1,C,triangle.png,0,z,Tue May 12 2026 09:38:17 GMT-0500 (Central Daylight Time),596172.0,1700,O,m,970,22,1,2691.5999999046326,593480.4000000954,7806,NTS,A,1
3,1,test,1,C,circle.png,1,z,Tue May 12 2026 09:38:17 GMT-0500 (Central Daylight Time),599121.2000000477,1600,O,z,1324,11,1,2942.899999976158,596178.3000000715,7806,NTS,A,2
9,1,test,1,C,circle.png,0,m,Tue May 12 2026 09:38:17 GMT-0500 (Central Daylight Time),602154.8000000715,1500,O,None,1517,24,1,3029.600000023842,599125.2000000477,7806,NTS,A,3
4,2,test,1,C,triangle.png,1,m,Tue May 12 2026 09:38:17 GMT-0500 (Central Daylight Time),604887.6000000238,1500,O,m,1202,12,1,2728.399999976158,602159.2000000477,7806,NTS,A,4
8,3,test,1,C,triangle.png,1,m,Tue May 12 2026 09:38:17 GMT-0500 (Central Daylight Time),607185.0,1600,O,m,675,7,1,2293.5999999046326,604891.4000000954,7806,NTS,A,5
6,3,test,1,C,circle.png,0,m,Tue May 12 2026 09:38:17 GMT-0500 (Central Daylight Time),610433.1000000238,1900,O,z,1323,21,1,3244.1999999284744,607188.9000000954,7806,NTS,A,6
4,4,test,1,C,triangle.png,1,m,Tue May 12 2026 09:38:17 GMT-0500 (Central Daylight Time),613431.7000000477,1500,O,m,1475,20,1,2995.600000023842,610436.1000000238,7806,NTS,A,7
1,4,test,1,C,triangle.png,0,z,Tue May 12 2026 09:38:17 GMT-0500 (Central Daylight Time),616864.9000000954,1900,O,None,1515,9,1,3430.600000023842,613434.3000000715,7806,NTS,A,8
2,5,test,1,C,triangle.png,1,m,Tue May 12 2026 09:38:17 GMT-0500 (Central Daylight Time),620130.1000000238,2000,O,m,1239,2,1,3258.100000023842,616872.0,7806,NTS,A,9
8,6,test,1,C,circle.png,1,m,Tue May 12 2026 09:38:17 GMT-0500 (Central Daylight Time),622363.8000000715,1200,O,m,1004,15,1,2227.399999976158,620136.4000000954,7806,NTS,A,10
9,7,test,1,C,triangle.png,1,z,Tue May 12 2026 09:38:17 GMT-0500 (Central Daylight Time),624745.8000000715,1400,O,z,956,16,1,2374.5,622371.3000000715,7806,NTS,A,11
6,8,test,1,C,circle.png,1,m,Tue May 12 2026 09:38:17 GMT-0500 (Central Daylight Time),627578.1000000238,1900,O,m,907,5,1,2819.600000023842,624758.5,7806,NTS,A,12
2,9,test,1,C,circle.png,1,z,Tue May 12 2026 09:38:17 GMT-0500 (Central Daylight Time),630312.1000000238,1700,O,z,1001,18,1,2727.5,627584.6000000238,7806,NTS,A,13
8,10,test,1,C,triangle.png,1,m,Tue May 12 2026 09:38:17 GMT-0500 (Central Daylight Time),633076.2000000477,1600,O,m,1137,23,1,2758.399999976158,630317.8000000715,7806,NTS,A,14
6,11,test,1,C,triangle.png,1,m,Tue May 12 2026 09:38:17 GMT-0500 (Central Daylight Time),634759.4000000954,1000,O,m,658,13,1,1677.2000000476837,633082.2000000477,7806,NTS,A,15
2,12,test,1,C,circle.png,1,z,Tue May 12 2026 09:38:17 GMT-0500 (Central Daylight Time),637192.8000000715,1700,O,z,701,10,1,2427.0,634765.8000000715,7806,NTS,A,16
1,13,test,1,C,circle.png,1,z,Tue May 12 2026 09:38:17 GMT-0500 (Central Daylight Time),639241.7000000477,1000,O,z,1019,1,1,2039.8999999761581,637201.8000000715,7806,NTS,A,17
1,13,test,1,C,triangle.png,0,z,Tue May 12 2026 09:38:17 GMT-0500 (Central Daylight Time),642208.0,1900,O,m,1044,17,1,2958.6999999284744,639249.3000000715,7806,NTS,A,18
3,13,test,1,C,circle.png,0,z,Tue May 12 2026 09:38:17 GMT-0500 (Central Daylight Time),645339.4000000954,1600,O,None,1516,19,1,3125.2000000476837,642214.2000000477,7806,NTS,A,19
9,14,test,1,C,circle.png,1,m,Tue May 12 2026 09:38:17 GMT-0500 (Central Daylight Time),648273.1000000238,1500,O,m,1410,8,1,2928.100000023842,645345.0,7806,NTS,A,20
3,15,test,1,C,triangle.png,1,z,Tue May 12 2026 09:38:17 GMT-0500 (Central Daylight Time),650303.9000000954,1200,O,z,814,3,1,2026.1000000238419,648277.8000000715,7806,NTS,A,21
7,16,test,1,C,circle.png,1,m,Tue May 12 2026 09:38:17 GMT-0500 (Central Daylight Time),653419.7000000477,2000,O,m,1087,14,1,3112.600000023842,650307.1000000238,7806,NTS,A,22
7,17,test,1,C,triangle.png,1,z,Tue May 12 2026 09:38:17 GMT-0500 (Central Daylight Time),656201.2000000477,1700,O,z,1064,6,1,2776.2000000476837,653425.0,7806,NTS,A,23
4,18,test,1,C,circle.png,1,z,Tue May 12 2026 09:38:17 GMT-0500 (Central Daylight Time),658718.1000000238,1400,O,z,1085,4,1,2514.399999976158,656203.7000000477,7806,NTS,A,24
3,1,test,2,C,circle.png,1,z,Tue May 12 2026 09:38:17 GMT-0500 (Central Daylight Time),678748.2000000477,1600,O,z,642,11,1,2261.7999999523163,676486.4000000954,7806,NTS,A,1
2,2,test,2,C,circle.png,1,z,Tue May 12 2026 09:38:17 GMT-0500 (Central Daylight Time),681428.6000000238,1700,O,z,955,10,1,2675.6999999284744,678752.9000000954,7806,NTS,A,2
7,2,test,2,C,triangle.png,0,z,Tue May 12 2026 09:38:17 GMT-0500 (Central Daylight Time),683910.0,1700,O,m,751,6,1,2477.1999999284744,681432.8000000715,7806,NTS,A,3
7,3,test,2,C,circle.png,1,m,Tue May 12 2026 09:38:17 GMT-0500 (Central Daylight Time),687009.7000000477,2000,O,m,1074,22,1,3096.399999976158,683913.3000000715,7806,NTS,A,4
4,3,test,2,C,triangle.png,0,m,Tue May 12 2026 09:38:17 GMT-0500 (Central Daylight Time),690042.4000000954,1500,O,None,1516,12,1,3028.5,687013.9000000954,7806,NTS,A,5
2,4,test,2,C,circle.png,1,z,Tue May 12 2026 09:38:17 GMT-0500 (Central Daylight Time),692443.5,1700,O,z,684,18,1,2394.0999999046326,690049.4000000954,7806,NTS,A,6
4,5,test,2,C,circle.png,1,z,Tue May 12 2026 09:38:17 GMT-0500 (Central Daylight Time),694690.6000000238,1400,O,z,817,4,1,2241.7999999523163,692448.8000000715,7806,NTS,A,7
9,5,test,2,C,triangle.png,0,z,Tue May 12 2026 09:38:17 GMT-0500 (Central Daylight Time),697339.9000000954,1400,O,m,1228,24,1,2645.2000000476837,694694.7000000477,7806,NTS,A,8
8,6,test,2,C,circle.png,1,m,Tue May 12 2026 09:38:17 GMT-0500 (Central Daylight Time),699956.5,1200,O,m,1389,15,1,2612.0,697344.5,7806,NTS,A,9
7,7,test,2,C,circle.png,1,m,Tue May 12 2026 09:38:17 GMT-0500 (Central Daylight Time),703171.0,2000,O,m,1189,14,1,3209.5,699961.5,7806,NTS,A,10
1,8,test,2,C,circle.png,1,z,Tue May 12 2026 09:38:17 GMT-0500 (Central Daylight Time),705271.4000000954,1000,O,z,1068,1,1,2095.5,703175.9000000954,7806,NTS,A,11
9,9,test,2,C,triangle.png,1,z,Tue May 12 2026 09:38:17 GMT-0500 (Central Daylight Time),707419.3000000715,1400,O,z,716,16,1,2142.399999976158,705276.9000000954,7806,NTS,A,12
8,10,test,2,C,triangle.png,1,m,Tue May 12 2026 09:38:17 GMT-0500 (Central Daylight Time),710184.2000000477,1600,O,m,1132,7,1,2761.7999999523163,707422.4000000954,7806,NTS,A,13
6,11,test,2,C,circle.png,1,m,Tue May 12 2026 09:38:17 GMT-0500 (Central Daylight Time),713101.1000000238,1900,O,m,987,5,1,2912.6999999284744,710188.4000000954,7806,NTS,A,14
6,11,test,2,C,triangle.png,0,m,Tue May 12 2026 09:38:17 GMT-0500 (Central Daylight Time),715283.9000000954,1000,O,z,1163,21,1,2178.8000000715256,713105.1000000238,7806,NTS,A,15
6,12,test,2,C,triangle.png,1,m,Tue May 12 2026 09:38:17 GMT-0500 (Central Daylight Time),717667.0,1000,O,m,1352,13,1,2378.899999976158,715288.1000000238,7806,NTS,A,16
1,13,test,2,C,triangle.png,1,z,Tue May 12 2026 09:38:17 GMT-0500 (Central Daylight Time),720833.4000000954,1900,O,z,1241,17,1,3161.5,717671.9000000954,7806,NTS,A,17
8,14,test,2,C,circle.png,1,m,Tue May 12 2026 09:38:17 GMT-0500 (Central Daylight Time),722912.8000000715,1200,O,m,861,23,1,2076.5,720836.3000000715,7806,NTS,A,18
1,15,test,2,C,triangle.png,1,z,Tue May 12 2026 09:38:17 GMT-0500 (Central Daylight Time),725796.9000000954,1900,O,z,953,9,1,2881.4000000953674,722915.5,7806,NTS,A,19
4,16,test,2,C,triangle.png,1,m,Tue May 12 2026 09:38:17 GMT-0500 (Central Daylight Time),728347.3000000715,1500,O,m,1032,20,1,2546.2000000476837,725801.1000000238,7806,NTS,A,20
3,17,test,2,C,triangle.png,1,z,Tue May 12 2026 09:38:17 GMT-0500 (Central Daylight Time),730497.7000000477,1200,O,z,934,3,1,2147.100000023842,728350.6000000238,7806,NTS,A,21
9,18,test,2,C,circle.png,1,m,Tue May 12 2026 09:38:17 GMT-0500 (Central Daylight Time),733061.3000000715,1500,O,m,1036,8,1,2558.899999976158,730502.4000000954,7806,NTS,A,22
2,18,test,2,C,triangle.png,0,m,Tue May 12 2026 09:38:17 GMT-0500 (Central Daylight Time),736494.1000000238,2000,O,z,1402,2,1,3428.5,733065.6000000238,7806,NTS,A,23
3,19,test,2,C,circle.png,1,z,Tue May 12 2026 09:38:17 GMT-0500 (Central Daylight Time),739076.4000000954,1600,O,z,966,19,1,2577.600000023842,736498.8000000715,7806,NTS,A,24
2,1,test,3,C,circle.png,1,z,Tue May 12 2026 09:38:17 GMT-0500 (Central Daylight Time),758902.8000000715,1700,O,z,974,10,1,2697.100000023842,756205.7000000477,7806,NTS,A,1
6,2,test,3,C,circle.png,1,m,Tue May 12 2026 09:38:17 GMT-0500 (Central Daylight Time),761786.6000000238,1900,O,m,952,21,1,2880.399999976158,758906.2000000477,7806,NTS,A,2
3,3,test,3,C,triangle.png,1,z,Tue May 12 2026 09:38:17 GMT-0500 (Central Daylight Time),763967.8000000715,1200,O,z,950,19,1,2177.100000023842,761790.7000000477,7806,NTS,A,3
9,4,test,3,C,triangle.png,1,z,Tue May 12 2026 09:38:17 GMT-0500 (Central Daylight Time),766384.9000000954,1400,O,z,984,16,1,2411.0,763973.9000000954,7806,NTS,A,4
6,5,test,3,C,circle.png,1,m,Tue May 12 2026 09:38:17 GMT-0500 (Central Daylight Time),769251.7000000477,1900,O,m,936,5,1,2861.0,766390.7000000477,7806,NTS,A,5
1,6,test,3,C,triangle.png,1,z,Tue May 12 2026 09:38:17 GMT-0500 (Central Daylight Time),771965.3000000715,1900,O,z,794,9,1,2708.399999976158,769256.9000000954,7806,NTS,A,6
8,7,test,3,C,triangle.png,1,m,Tue May 12 2026 09:38:17 GMT-0500 (Central Daylight Time),774331.9000000954,1600,O,m,736,23,1,2361.3000000715256,771970.6000000238,7806,NTS,A,7
1,8,test,3,C,circle.png,1,z,Tue May 12 2026 09:38:17 GMT-0500 (Central Daylight Time),776514.1000000238,1000,O,z,1151,17,1,2176.399999976158,774337.7000000477,7806,NTS,A,8
8,9,test,3,C,triangle.png,1,m,Tue May 12 2026 09:38:17 GMT-0500 (Central Daylight Time),779380.4000000954,1600,O,m,1248,7,1,2860.9000000953674,776519.5,7806,NTS,A,9
4,10,test,3,C,triangle.png,1,m,Tue May 12 2026 09:38:17 GMT-0500 (Central Daylight Time),781695.7000000477,1500,O,m,783,12,1,2310.2999999523163,779385.4000000954,7806,NTS,A,10
4,11,test,3,C,circle.png,1,z,Tue May 12 2026 09:38:17 GMT-0500 (Central Daylight Time),784095.3000000715,1400,O,z,975,4,1,2393.100000023842,781702.2000000477,7806,NTS,A,11
7,12,test,3,C,triangle.png,1,z,Tue May 12 2026 09:38:17 GMT-0500 (Central Daylight Time),787193.8000000715,1700,O,z,1367,22,1,3092.899999976158,784100.9000000954,7806,NTS,A,12
6,13,test,3,C,triangle.png,1,m,Tue May 12 2026 09:38:17 GMT-0500 (Central Daylight Time),788911.5,1000,O,m,684,13,1,1708.0,787203.5,7806,NTS,A,13
2,13,test,3,C,triangle.png,0,m,Tue May 12 2026 09:38:17 GMT-0500 (Central Daylight Time),792060.1000000238,2000,O,z,1121,2,1,3144.7999999523163,788915.3000000715,7806,NTS,A,14
9,14,test,3,C,circle.png,1,m,Tue May 12 2026 09:38:17 GMT-0500 (Central Daylight Time),794609.1000000238,1500,O,m,1017,24,1,2544.6999999284744,792064.4000000954,7806,NTS,A,15
1,15,test,3,C,circle.png,1,z,Tue May 12 2026 09:38:17 GMT-0500 (Central Daylight Time),796592.2000000477,1000,O,z,950,1,1,1977.0,794615.2000000477,7806,NTS,A,16
7,16,test,3,C,circle.png,1,m,Tue May 12 2026 09:38:17 GMT-0500 (Central Daylight Time),799823.9000000954,2000,O,m,1200,14,1,3227.2000000476837,796596.7000000477,7806,NTS,A,17
3,17,test,3,C,circle.png,1,z,Tue May 12 2026 09:38:17 GMT-0500 (Central Daylight Time),802371.9000000954,1600,O,z,919,11,1,2544.4000000953674,799827.5,7806,NTS,A,18
2,18,test,3,C,triangle.png,1,m,Tue May 12 2026 09:38:17 GMT-0500 (Central Daylight Time),805388.2000000477,2000,O,m,996,18,1,3013.2999999523163,802374.9000000954,7806,NTS,A,19
4,19,test,3,C,circle.png,1,z,Tue May 12 2026 09:38:17 GMT-0500 (Central Daylight Time),807705.7000000477,1400,O,z,891,20,1,2314.100000023842,805391.6000000238,7806,NTS,A,20
9,20,test,3,C,circle.png,1,m,Tue May 12 2026 09:38:17 GMT-0500 (Central Daylight Time),810719.2000000477,1500,O,m,1483,8,1,3010.0,807709.2000000477,7806,NTS,A,21
8,21,test,3,C,circle.png,1,m,Tue May 12 2026 09:38:17 GMT-0500 (Central Daylight Time),812719.2000000477,1200,O,m,775,15,1,1996.1000000238419,810723.1000000238,7806,NTS,A,22
3,22,test,3,C,triangle.png,1,z,Tue May 12 2026 09:38:17 GMT-0500 (Central Daylight Time),814851.8000000715,1200,O,z,905,3,1,2128.8000000715256,812723.0,7806,NTS,A,23
7,22,test,3,C,triangle.png,0,z,Tue May 12 2026 09:38:17 GMT-0500 (Central Daylight Time),817301.8000000715,1700,O,m,729,6,1,2446.0,814855.8000000715,7806,NTS,A,24
8,0,test,4,C,circle.png,0,m,Tue May 12 2026 09:38:17 GMT-0500 (Central Daylight Time),838496.0,1200,O,None,1517,15,1,2728.899999976158,835767.1000000238,7806,NTS,A,1
8,0,test,4,C,triangle.png,0,m,Tue May 12 2026 09:38:17 GMT-0500 (Central Daylight Time),841626.9000000954,1600,O,None,1513,23,1,3127.5,838499.4000000954,7806,NTS,A,2
3,0,test,4,C,circle.png,0,z,Tue May 12 2026 09:38:17 GMT-0500 (Central Daylight Time),844760.5,1600,O,None,1516,11,1,3128.899999976158,841631.6000000238,7806,NTS,A,3
2,0,test,4,C,triangle.png,0,m,Tue May 12 2026 09:38:17 GMT-0500 (Central Daylight Time),848295.7000000477,2000,O,None,1519,2,1,3530.600000023842,844765.1000000238,7806,NTS,A,4
9,1,test,4,C,circle.png,1,m,Tue May 12 2026 09:38:17 GMT-0500 (Central Daylight Time),850907.5,1500,O,m,1098,24,1,2608.5,848299.0,7806,NTS,A,5
7,2,test,4,C,circle.png,1,m,Tue May 12 2026 09:38:17 GMT-0500 (Central Daylight Time),854174.1000000238,2000,O,m,1247,14,1,3259.399999976158,850914.7000000477,7806,NTS,A,6
7,2,test,4,C,triangle.png,0,z,Tue May 12 2026 09:38:17 GMT-0500 (Central Daylight Time),857403.9000000954,1700,O,None,1514,6,1,3226.3000000715256,854177.6000000238,7806,NTS,A,7
4,3,test,4,C,circle.png,1,z,Tue May 12 2026 09:38:17 GMT-0500 (Central Daylight Time),859720.6000000238,1400,O,z,891,20,1,2311.100000023842,857409.5,7806,NTS,A,8
1,4,test,4,C,circle.png,1,z,Tue May 12 2026 09:38:17 GMT-0500 (Central Daylight Time),861787.0,1000,O,z,1047,17,1,2060.399999976158,859726.6000000238,7806,NTS,A,9
6,5,test,4,C,circle.png,1,m,Tue May 12 2026 09:38:17 GMT-0500 (Central Daylight Time),864820.2000000477,1900,O,m,1105,5,1,3025.7000000476837,861794.5,7806,NTS,A,10
7,6,test,4,C,triangle.png,1,z,Tue May 12 2026 09:38:17 GMT-0500 (Central Daylight Time),867602.6000000238,1700,O,z,1055,22,1,2777.600000023842,864825.0,7806,NTS,A,11
2,7,test,4,C,circle.png,1,z,Tue May 12 2026 09:38:17 GMT-0500 (Central Daylight Time),870084.4000000954,1700,O,z,754,10,1,2476.100000023842,867608.3000000715,7806,NTS,A,12
8,8,test,4,C,triangle.png,1,m,Tue May 12 2026 09:38:17 GMT-0500 (Central Daylight Time),872700.8000000715,1600,O,m,987,7,1,2608.600000023842,870092.2000000477,7806,NTS,A,13
2,9,test,4,C,triangle.png,1,m,Tue May 12 2026 09:38:17 GMT-0500 (Central Daylight Time),875665.7000000477,2000,O,m,934,18,1,2957.5,872708.2000000477,7806,NTS,A,14
3,10,test,4,C,triangle.png,1,z,Tue May 12 2026 09:38:17 GMT-0500 (Central Daylight Time),877597.4000000954,1200,O,z,711,19,1,1929.1000000238419,875668.3000000715,7806,NTS,A,15
6,11,test,4,C,triangle.png,1,m,Tue May 12 2026 09:38:17 GMT-0500 (Central Daylight Time),879781.3000000715,1000,O,m,1161,13,1,2179.2000000476837,877602.1000000238,7806,NTS,A,16
6,12,test,4,C,circle.png,1,m,Tue May 12 2026 09:38:17 GMT-0500 (Central Daylight Time),882963.3000000715,1900,O,m,1255,21,1,3177.5,879785.8000000715,7806,NTS,A,17
9,12,test,4,C,triangle.png,0,z,Tue May 12 2026 09:38:17 GMT-0500 (Central Daylight Time),885395.9000000954,1400,O,m,1013,16,1,2424.2000000476837,882971.7000000477,7806,NTS,A,18
1,13,test,4,C,circle.png,1,z,Tue May 12 2026 09:38:17 GMT-0500 (Central Daylight Time),887463.4000000954,1000,O,z,1045,1,1,2062.2000000476837,885401.2000000477,7806,NTS,A,19
9,14,test,4,C,circle.png,1,m,Tue May 12 2026 09:38:17 GMT-0500 (Central Daylight Time),890144.3000000715,1500,O,m,1149,8,1,2677.2000000476837,887467.1000000238,7806,NTS,A,20
4,15,test,4,C,circle.png,1,z,Tue May 12 2026 09:38:17 GMT-0500 (Central Daylight Time),892495.2000000477,1400,O,z,918,4,1,2345.2000000476837,890150.0,7806,NTS,A,21
4,16,test,4,C,triangle.png,1,m,Tue May 12 2026 09:38:17 GMT-0500 (Central Daylight Time),894927.5,1500,O,m,900,12,1,2423.899999976158,892503.6000000238,7806,NTS,A,22
1,17,test,4,C,triangle.png,1,z,Tue May 12 2026 09:38:17 GMT-0500 (Central Daylight Time),897542.4000000954,1900,O,z,693,9,1,2607.0,894935.4000000954,7806,NTS,A,23
3,18,test,4,C,triangle.png,1,z,Tue May 12 2026 09:38:17 GMT-0500 (Central Daylight Time),899292.0,1200,O,z,522,3,1,1744.5,897547.5,7806,NTS,A,24
