acc_sum,block,block_c,change,condition,correct,correct_response,datetime,endtime,face,project,response,response_time,row_sel,session_number,start_end,starttime,subject_id,task,task_vers,trial
0,prac,1,,1-Back,,,Wed Aug 07 2024 14:55:59 GMT-0500 (Central Daylight Time),,124_o_f_d_a.png,O,space,10806,1,1,,,7002,VNB,A,0
1,prac,1,0.0,1-Back,1,m,Wed Aug 07 2024 14:55:59 GMT-0500 (Central Daylight Time),137259.80000000028,071_y_f_n_a.png,O,m,1293,2,1,2089.9000000003725,135169.8999999999,7002,VNB,A,1
1,prac,1,0.0,1-Back,0,m,Wed Aug 07 2024 14:55:59 GMT-0500 (Central Daylight Time),139209.0,165_m_m_h_a.png,O,z,1140,3,1,1941.2999999998137,137267.7000000002,7002,VNB,A,2
2,prac,1,0.0,1-Back,1,m,Wed Aug 07 2024 14:55:59 GMT-0500 (Central Daylight Time),141492.0,109_y_m_d_a.png,O,m,1466,4,1,2274.7999999998137,139217.2000000002,7002,VNB,A,3
2,prac,1,0.0,1-Back,0,m,Wed Aug 07 2024 14:55:59 GMT-0500 (Central Daylight Time),144007.8999999999,124_o_f_n_a.png,O,z,1671,5,1,2508.0999999996275,141499.80000000028,7002,VNB,A,4
3,prac,1,1.0,1-Back,1,z,Wed Aug 07 2024 14:55:59 GMT-0500 (Central Daylight Time),146590.2000000002,109_y_m_n_a.png,O,z,1763,6,1,2575.0,144015.2000000002,7002,VNB,A,5
4,prac,1,0.0,1-Back,1,m,Wed Aug 07 2024 14:55:59 GMT-0500 (Central Daylight Time),148472.8999999999,039_o_m_h_a.png,O,m,1083,7,1,1874.1999999997206,146598.7000000002,7002,VNB,A,6
5,prac,1,0.0,1-Back,1,m,Wed Aug 07 2024 14:55:59 GMT-0500 (Central Daylight Time),150438.8999999999,139_m_f_d_a.png,O,m,1152,8,1,1958.3999999999069,148480.5,7002,VNB,A,7
6,prac,1,1.0,1-Back,1,z,Wed Aug 07 2024 14:55:59 GMT-0500 (Central Daylight Time),152305.0,071_y_f_d_a.png,O,z,1052,9,1,1858.1000000000931,150446.8999999999,7002,VNB,A,8
7,prac,1,0.0,1-Back,1,m,Wed Aug 07 2024 14:55:59 GMT-0500 (Central Daylight Time),154187.80000000028,165_m_m_n_a.png,O,m,1079,10,1,1874.4000000003725,152313.3999999999,7002,VNB,A,9
8,prac,1,0.0,1-Back,1,m,Wed Aug 07 2024 14:55:59 GMT-0500 (Central Daylight Time),156320.3999999999,124_o_f_h_a.png,O,m,1300,11,1,2125.0999999996275,154195.30000000028,7002,VNB,A,10
9,prac,1,0.0,1-Back,1,m,Wed Aug 07 2024 14:55:59 GMT-0500 (Central Daylight Time),158386.3999999999,109_y_m_d_a.png,O,m,1282,12,1,2058.5,156327.8999999999,7002,VNB,A,11
0,test,1,0.0,1-Back,,,Wed Aug 07 2024 14:55:59 GMT-0500 (Central Daylight Time),158386.3999999999,071_y_f_d_a.png,O,space,16038,1,1,2058.5,156327.8999999999,7002,VNB,A,0
1,test,1,0.0,1-Back,1,m,Wed Aug 07 2024 14:55:59 GMT-0500 (Central Daylight Time),185127.8999999999,139_m_f_n_a.png,O,m,943,2,1,1958.5999999996275,183169.30000000028,7002,VNB,A,1
2,test,1,0.0,1-Back,1,m,Wed Aug 07 2024 14:55:59 GMT-0500 (Central Daylight Time),186960.8999999999,039_o_m_h_a.png,O,m,809,3,1,1826.5,185134.3999999999,7002,VNB,A,2
3,test,1,1.0,1-Back,1,z,Wed Aug 07 2024 14:55:59 GMT-0500 (Central Daylight Time),188860.1000000001,165_m_m_h_a.png,O,z,880,4,1,1892.0,186968.1000000001,7002,VNB,A,3
4,test,1,0.0,1-Back,1,m,Wed Aug 07 2024 14:55:59 GMT-0500 (Central Daylight Time),190909.5,124_o_f_n_a.png,O,m,1021,5,1,2042.6999999997206,188866.80000000028,7002,VNB,A,4
5,test,1,0.0,1-Back,1,m,Wed Aug 07 2024 14:55:59 GMT-0500 (Central Daylight Time),192942.30000000028,109_y_m_d_a.png,O,m,1012,6,1,2025.9000000003725,190916.3999999999,7002,VNB,A,5
6,test,1,1.0,1-Back,1,z,Wed Aug 07 2024 14:55:59 GMT-0500 (Central Daylight Time),194958.1000000001,139_m_f_d_a.png,O,z,995,7,1,2009.0,192949.1000000001,7002,VNB,A,6
7,test,1,0.0,1-Back,1,m,Wed Aug 07 2024 14:55:59 GMT-0500 (Central Daylight Time),196791.0,071_y_f_h_a.png,O,m,803,8,1,1825.1000000000931,194965.8999999999,7002,VNB,A,7
8,test,1,0.0,1-Back,1,m,Wed Aug 07 2024 14:55:59 GMT-0500 (Central Daylight Time),198773.80000000028,039_o_m_n_a.png,O,m,962,9,1,1976.0,196797.80000000028,7002,VNB,A,8
9,test,1,0.0,1-Back,1,m,Wed Aug 07 2024 14:55:59 GMT-0500 (Central Daylight Time),200989.7000000002,109_y_m_h_a.png,O,m,1195,10,1,2209.899999999907,198779.80000000028,7002,VNB,A,9
10,test,1,0.0,1-Back,1,m,Wed Aug 07 2024 14:55:59 GMT-0500 (Central Daylight Time),203055.6000000001,039_o_m_d_a.png,O,m,1035,11,1,2059.2999999998137,200996.30000000028,7002,VNB,A,10
11,test,1,1.0,1-Back,1,z,Wed Aug 07 2024 14:55:59 GMT-0500 (Central Daylight Time),205005.1000000001,124_o_f_d_a.png,O,z,930,12,1,1942.2000000001863,203062.8999999999,7002,VNB,A,11
12,test,1,0.0,1-Back,1,m,Wed Aug 07 2024 14:55:59 GMT-0500 (Central Daylight Time),206970.80000000028,165_m_m_n_a.png,O,m,948,13,1,1959.1000000000931,205011.7000000002,7002,VNB,A,12
13,test,1,1.0,1-Back,1,z,Wed Aug 07 2024 14:55:59 GMT-0500 (Central Daylight Time),209170.3999999999,071_y_f_n_a.png,O,z,1174,14,1,2193.0999999996275,206977.30000000028,7002,VNB,A,13
14,test,1,0.0,1-Back,1,m,Wed Aug 07 2024 14:55:59 GMT-0500 (Central Daylight Time),210953.3999999999,139_m_f_h_a.png,O,m,751,15,1,1776.5999999996275,209176.80000000028,7002,VNB,A,14
15,test,1,0.0,1-Back,1,m,Wed Aug 07 2024 14:55:59 GMT-0500 (Central Daylight Time),213019.1000000001,165_m_m_d_a.png,O,m,1048,16,1,2058.899999999907,210960.2000000002,7002,VNB,A,15
16,test,1,0.0,1-Back,1,m,Wed Aug 07 2024 14:55:59 GMT-0500 (Central Daylight Time),215185.1000000001,109_y_m_n_a.png,O,m,1134,17,1,2159.600000000093,213025.5,7002,VNB,A,16
16,test,1,0.0,1-Back,0,m,Wed Aug 07 2024 14:55:59 GMT-0500 (Central Daylight Time),218217.8999999999,124_o_f_h_a.png,O,None,2015,18,1,3025.899999999907,215192.0,7002,VNB,A,17
0,test,2,0.0,1-Back,,,Wed Aug 07 2024 14:55:59 GMT-0500 (Central Daylight Time),218217.8999999999,109_y_m_n_a.png,O,space,2352,1,1,3025.899999999907,215192.0,7002,VNB,A,0
1,test,2,0.0,1-Back,1,m,Wed Aug 07 2024 14:55:59 GMT-0500 (Central Daylight Time),224417.0,071_y_f_h_a.png,O,m,794,2,1,1810.6000000000931,222606.3999999999,7002,VNB,A,1
2,test,2,1.0,1-Back,1,m,Wed Aug 07 2024 14:55:59 GMT-0500 (Central Daylight Time),226981.3999999999,039_o_m_n_a.png,O,m,1538,3,1,2557.1999999997206,224424.2000000002,7002,VNB,A,2
2,test,2,0.0,1-Back,0,m,Wed Aug 07 2024 14:55:59 GMT-0500 (Central Daylight Time),229614.0,139_m_f_d_a.png,O,z,1604,4,1,2625.1999999997206,226988.80000000028,7002,VNB,A,3
3,test,2,0.0,1-Back,1,z,Wed Aug 07 2024 14:55:59 GMT-0500 (Central Daylight Time),231763.2000000002,165_m_m_d_a.png,O,z,1123,5,1,2142.399999999907,229620.80000000028,7002,VNB,A,4
4,test,2,0.0,1-Back,1,m,Wed Aug 07 2024 14:55:59 GMT-0500 (Central Daylight Time),233612.7000000002,109_y_m_h_a.png,O,m,830,6,1,1842.0,231770.7000000002,7002,VNB,A,5
5,test,2,1.0,1-Back,1,z,Wed Aug 07 2024 14:55:59 GMT-0500 (Central Daylight Time),235862.1000000001,124_o_f_h_a.png,O,z,1221,7,1,2242.100000000093,233620.0,7002,VNB,A,6
6,test,2,0.0,1-Back,1,m,Wed Aug 07 2024 14:55:59 GMT-0500 (Central Daylight Time),237861.3999999999,139_m_f_n_a.png,O,m,971,8,1,1992.0999999996275,235869.30000000028,7002,VNB,A,7
7,test,2,0.0,1-Back,1,m,Wed Aug 07 2024 14:55:59 GMT-0500 (Central Daylight Time),240127.2000000002,071_y_f_d_a.png,O,m,1244,9,1,2259.0,237868.2000000002,7002,VNB,A,8
8,test,2,0.0,1-Back,1,m,Wed Aug 07 2024 14:55:59 GMT-0500 (Central Daylight Time),242193.2000000002,165_m_m_n_a.png,O,m,1034,10,1,2059.100000000093,240134.1000000001,7002,VNB,A,9
9,test,2,1.0,1-Back,1,m,Wed Aug 07 2024 14:55:59 GMT-0500 (Central Daylight Time),244309.30000000028,139_m_f_h_a.png,O,m,1096,11,1,2109.4000000003725,242199.8999999999,7002,VNB,A,10
10,test,2,0.0,1-Back,1,z,Wed Aug 07 2024 14:55:59 GMT-0500 (Central Daylight Time),246842.0,039_o_m_h_a.png,O,z,1500,12,1,2525.899999999907,244316.1000000001,7002,VNB,A,11
11,test,2,0.0,1-Back,1,m,Wed Aug 07 2024 14:55:59 GMT-0500 (Central Daylight Time),248892.2000000002,109_y_m_d_a.png,O,m,1032,13,1,2042.8000000002794,246849.3999999999,7002,VNB,A,12
12,test,2,0.0,1-Back,1,m,Wed Aug 07 2024 14:55:59 GMT-0500 (Central Daylight Time),250990.6000000001,124_o_f_n_a.png,O,m,1078,14,1,2090.899999999907,248899.7000000002,7002,VNB,A,13
13,test,2,0.0,1-Back,1,z,Wed Aug 07 2024 14:55:59 GMT-0500 (Central Daylight Time),253139.80000000028,071_y_f_n_a.png,O,z,1123,15,1,2142.8000000002794,250997.0,7002,VNB,A,14
14,test,2,1.0,1-Back,1,m,Wed Aug 07 2024 14:55:59 GMT-0500 (Central Daylight Time),255089.1000000001,165_m_m_h_a.png,O,m,917,16,1,1942.2999999998137,253146.80000000028,7002,VNB,A,15
15,test,2,0.0,1-Back,1,m,Wed Aug 07 2024 14:55:59 GMT-0500 (Central Daylight Time),257388.6000000001,124_o_f_d_a.png,O,m,1280,17,1,2292.7999999998137,255095.80000000028,7002,VNB,A,16
16,test,2,1.0,1-Back,1,z,Wed Aug 07 2024 14:55:59 GMT-0500 (Central Daylight Time),259504.7000000002,039_o_m_d_a.png,O,z,1093,18,1,2109.399999999907,257395.30000000028,7002,VNB,A,17
0,test,3,1.0,1-Back,,,Wed Aug 07 2024 14:55:59 GMT-0500 (Central Daylight Time),259504.7000000002,124_o_f_h_a.png,O,space,2824,1,1,2109.399999999907,257395.30000000028,7002,VNB,A,0
1,test,3,0.0,1-Back,1,m,Wed Aug 07 2024 14:55:59 GMT-0500 (Central Daylight Time),266452.3000000003,139_m_f_d_a.png,O,m,1039,2,1,2058.7000000001863,264393.6000000001,7002,VNB,A,1
2,test,3,1.0,1-Back,1,m,Wed Aug 07 2024 14:55:59 GMT-0500 (Central Daylight Time),268485.1000000001,165_m_m_n_a.png,O,m,1005,3,1,2026.3999999999069,266458.7000000002,7002,VNB,A,2
3,test,3,0.0,1-Back,1,z,Wed Aug 07 2024 14:55:59 GMT-0500 (Central Daylight Time),270601.1000000001,124_o_f_n_a.png,O,z,1092,4,1,2109.2000000001863,268491.8999999999,7002,VNB,A,3
4,test,3,1.0,1-Back,1,m,Wed Aug 07 2024 14:55:59 GMT-0500 (Central Daylight Time),272700.7000000002,039_o_m_d_a.png,O,m,1071,5,1,2092.3000000002794,270608.3999999999,7002,VNB,A,4
5,test,3,0.0,1-Back,1,m,Wed Aug 07 2024 14:55:59 GMT-0500 (Central Daylight Time),274550.0,071_y_f_h_a.png,O,m,821,6,1,1842.6000000000931,272707.3999999999,7002,VNB,A,5
6,test,3,0.0,1-Back,1,z,Wed Aug 07 2024 14:55:59 GMT-0500 (Central Daylight Time),276549.2000000002,109_y_m_h_a.png,O,z,979,7,1,1991.3999999999069,274557.8000000003,7002,VNB,A,6
7,test,3,0.0,1-Back,1,m,Wed Aug 07 2024 14:55:59 GMT-0500 (Central Daylight Time),278715.3000000003,139_m_f_n_a.png,O,m,1140,8,1,2158.9000000003725,276556.3999999999,7002,VNB,A,7
8,test,3,0.0,1-Back,1,m,Wed Aug 07 2024 14:55:59 GMT-0500 (Central Daylight Time),280864.6000000001,071_y_f_d_a.png,O,m,1126,9,1,2142.899999999907,278721.7000000002,7002,VNB,A,8
8,test,3,1.0,1-Back,0,m,Wed Aug 07 2024 14:55:59 GMT-0500 (Central Daylight Time),283880.1000000001,039_o_m_n_a.png,O,z,1993,10,1,3008.2999999998137,280871.8000000003,7002,VNB,A,9
9,test,3,0.0,1-Back,1,m,Wed Aug 07 2024 14:55:59 GMT-0500 (Central Daylight Time),285696.3000000003,165_m_m_h_a.png,O,m,785,11,1,1809.1000000000931,283887.2000000002,7002,VNB,A,10
10,test,3,0.0,1-Back,1,z,Wed Aug 07 2024 14:55:59 GMT-0500 (Central Daylight Time),287512.3999999999,139_m_f_h_a.png,O,z,785,12,1,1809.6999999997206,285702.7000000002,7002,VNB,A,11
10,test,3,1.0,1-Back,0,m,Wed Aug 07 2024 14:55:59 GMT-0500 (Central Daylight Time),290545.1000000001,124_o_f_d_a.png,O,None,2016,13,1,3026.2999999998137,287518.8000000003,7002,VNB,A,12
11,test,3,0.0,1-Back,1,z,Wed Aug 07 2024 14:55:59 GMT-0500 (Central Daylight Time),292560.8000000003,165_m_m_d_a.png,O,z,985,14,1,2009.5,290551.3000000003,7002,VNB,A,13
12,test,3,0.0,1-Back,1,m,Wed Aug 07 2024 14:55:59 GMT-0500 (Central Daylight Time),294476.8999999999,109_y_m_n_a.png,O,m,888,15,1,1909.2999999998137,292567.6000000001,7002,VNB,A,14
13,test,3,1.0,1-Back,1,m,Wed Aug 07 2024 14:55:59 GMT-0500 (Central Daylight Time),296626.2000000002,039_o_m_h_a.png,O,m,990,16,1,2142.600000000093,294483.6000000001,7002,VNB,A,15
13,test,3,0.0,1-Back,0,m,Wed Aug 07 2024 14:55:59 GMT-0500 (Central Daylight Time),299658.8999999999,109_y_m_d_a.png,O,None,2016,17,1,3026.0999999996275,296632.8000000003,7002,VNB,A,16
14,test,3,1.0,1-Back,1,m,Wed Aug 07 2024 14:55:59 GMT-0500 (Central Daylight Time),301574.8000000003,071_y_f_n_a.png,O,m,887,18,1,1909.2000000001863,299665.6000000001,7002,VNB,A,17
0,test,4,1.0,1-Back,,,Wed Aug 07 2024 14:55:59 GMT-0500 (Central Daylight Time),301574.8000000003,165_m_m_d_a.png,O,space,2138,1,1,1909.2000000001863,299665.6000000001,7002,VNB,A,0
1,test,4,0.0,1-Back,1,z,Wed Aug 07 2024 14:55:59 GMT-0500 (Central Daylight Time),307939.2000000002,039_o_m_d_a.png,O,z,1173,2,1,2192.7000000001863,305746.5,7002,VNB,A,1
2,test,4,0.0,1-Back,1,m,Wed Aug 07 2024 14:55:59 GMT-0500 (Central Daylight Time),309838.8000000003,109_y_m_h_a.png,O,m,878,3,1,1893.0,307945.8000000003,7002,VNB,A,2
3,test,4,0.0,1-Back,1,m,Wed Aug 07 2024 14:55:59 GMT-0500 (Central Daylight Time),311788.3000000003,139_m_f_n_a.png,O,m,931,4,1,1942.8000000002794,309845.5,7002,VNB,A,3
4,test,4,1.0,1-Back,1,m,Wed Aug 07 2024 14:55:59 GMT-0500 (Central Daylight Time),314537.1000000001,124_o_f_h_a.png,O,m,1725,5,1,2742.0,311795.1000000001,7002,VNB,A,4
5,test,4,0.0,1-Back,1,m,Wed Aug 07 2024 14:55:59 GMT-0500 (Central Daylight Time),316503.5,165_m_m_n_a.png,O,m,944,6,1,1959.1999999997206,314544.3000000003,7002,VNB,A,5
6,test,4,0.0,1-Back,1,m,Wed Aug 07 2024 14:55:59 GMT-0500 (Central Daylight Time),318735.8999999999,109_y_m_d_a.png,O,m,1202,7,1,2225.0999999996275,316510.8000000003,7002,VNB,A,6
7,test,4,1.0,1-Back,1,z,Wed Aug 07 2024 14:55:59 GMT-0500 (Central Daylight Time),320702.1000000001,071_y_f_d_a.png,O,z,945,8,1,1959.5,318742.6000000001,7002,VNB,A,7
8,test,4,0.0,1-Back,1,m,Wed Aug 07 2024 14:55:59 GMT-0500 (Central Daylight Time),322518.2000000002,139_m_f_h_a.png,O,m,795,9,1,1809.1000000000931,320709.1000000001,7002,VNB,A,8
9,test,4,0.0,1-Back,1,z,Wed Aug 07 2024 14:55:59 GMT-0500 (Central Daylight Time),324600.7000000002,039_o_m_h_a.png,O,z,1059,10,1,2075.5,322525.2000000002,7002,VNB,A,9
10,test,4,1.0,1-Back,1,m,Wed Aug 07 2024 14:55:59 GMT-0500 (Central Daylight Time),326666.8999999999,124_o_f_n_a.png,O,m,1032,11,1,2058.2999999998137,324608.6000000001,7002,VNB,A,10
11,test,4,0.0,1-Back,1,m,Wed Aug 07 2024 14:55:59 GMT-0500 (Central Daylight Time),328932.8000000003,139_m_f_d_a.png,O,m,1238,12,1,2259.2000000001863,326673.6000000001,7002,VNB,A,11
12,test,4,0.0,1-Back,1,m,Wed Aug 07 2024 14:55:59 GMT-0500 (Central Daylight Time),331332.0,071_y_f_n_a.png,O,m,1372,13,1,2391.6999999997206,328940.3000000003,7002,VNB,A,12
13,test,4,0.0,1-Back,1,m,Wed Aug 07 2024 14:55:59 GMT-0500 (Central Daylight Time),333581.3000000003,124_o_f_d_a.png,O,m,1228,14,1,2242.9000000003725,331338.3999999999,7002,VNB,A,13
14,test,4,0.0,1-Back,1,m,Wed Aug 07 2024 14:55:59 GMT-0500 (Central Daylight Time),335897.3000000003,071_y_f_h_a.png,O,m,1284,15,1,2309.8000000002794,333587.5,7002,VNB,A,14
15,test,4,1.0,1-Back,1,z,Wed Aug 07 2024 14:55:59 GMT-0500 (Central Daylight Time),337863.3000000003,165_m_m_h_a.png,O,z,944,16,1,1959.1000000000931,335904.2000000002,7002,VNB,A,15
15,test,4,0.0,1-Back,0,m,Wed Aug 07 2024 14:55:59 GMT-0500 (Central Daylight Time),340896.3999999999,039_o_m_n_a.png,O,None,2016,17,1,3026.0,337870.3999999999,7002,VNB,A,16
15,test,4,1.0,1-Back,0,z,Wed Aug 07 2024 14:55:59 GMT-0500 (Central Daylight Time),342996.3000000003,109_y_m_n_a.png,O,m,1074,18,1,2092.7000000001863,340903.6000000001,7002,VNB,A,17
0,test,5,1.0,1-Back,,,Wed Aug 07 2024 14:55:59 GMT-0500 (Central Daylight Time),342996.3000000003,039_o_m_n_a.png,O,space,4909,1,1,2092.7000000001863,340903.6000000001,7002,VNB,A,0
1,test,5,1.0,1-Back,1,m,Wed Aug 07 2024 14:55:59 GMT-0500 (Central Daylight Time),352009.0,124_o_f_h_a.png,O,m,1043,2,1,2059.6999999997206,349949.3000000003,7002,VNB,A,1
2,test,5,0.0,1-Back,1,m,Wed Aug 07 2024 14:55:59 GMT-0500 (Central Daylight Time),354759.1000000001,109_y_m_d_a.png,O,m,1720,3,1,2743.399999999907,352015.7000000002,7002,VNB,A,2
2,test,5,0.0,1-Back,0,z,Wed Aug 07 2024 14:55:59 GMT-0500 (Central Daylight Time),357307.2000000002,039_o_m_d_a.png,O,m,1523,4,1,2541.100000000093,354766.1000000001,7002,VNB,A,3
3,test,5,0.0,1-Back,1,m,Wed Aug 07 2024 14:55:59 GMT-0500 (Central Daylight Time),359256.6000000001,139_m_f_h_a.png,O,m,918,5,1,1941.5,357315.1000000001,7002,VNB,A,4
4,test,5,0.0,1-Back,1,m,Wed Aug 07 2024 14:55:59 GMT-0500 (Central Daylight Time),361339.0,071_y_f_n_a.png,O,m,1065,6,1,2075.2999999998137,359263.7000000002,7002,VNB,A,5
5,test,5,1.0,1-Back,1,z,Wed Aug 07 2024 14:55:59 GMT-0500 (Central Daylight Time),363738.5,124_o_f_n_a.png,O,z,1366,7,1,2392.7999999998137,361345.7000000002,7002,VNB,A,6
6,test,5,0.0,1-Back,1,m,Wed Aug 07 2024 14:55:59 GMT-0500 (Central Daylight Time),365787.8000000003,139_m_f_d_a.png,O,m,1022,8,1,2041.9000000003725,363745.8999999999,7002,VNB,A,7
7,test,5,0.0,1-Back,1,m,Wed Aug 07 2024 14:55:59 GMT-0500 (Central Daylight Time),367670.5,109_y_m_h_a.png,O,m,854,9,1,1875.8999999999069,365794.6000000001,7002,VNB,A,8
8,test,5,0.0,1-Back,1,m,Wed Aug 07 2024 14:55:59 GMT-0500 (Central Daylight Time),369719.8000000003,071_y_f_d_a.png,O,m,1027,10,1,2041.3000000002794,367678.5,7002,VNB,A,9
9,test,5,0.0,1-Back,1,m,Wed Aug 07 2024 14:55:59 GMT-0500 (Central Daylight Time),371836.0,165_m_m_n_a.png,O,m,1089,11,1,2109.600000000093,369726.3999999999,7002,VNB,A,10
10,test,5,1.0,1-Back,1,z,Wed Aug 07 2024 14:55:59 GMT-0500 (Central Daylight Time),374018.7000000002,139_m_f_n_a.png,O,z,1157,12,1,2175.5,371843.2000000002,7002,VNB,A,11
11,test,5,0.0,1-Back,1,m,Wed Aug 07 2024 14:55:59 GMT-0500 (Central Daylight Time),376034.3999999999,039_o_m_h_a.png,O,m,998,13,1,2008.8999999999069,374025.5,7002,VNB,A,12
12,test,5,0.0,1-Back,1,z,Wed Aug 07 2024 14:55:59 GMT-0500 (Central Daylight Time),378034.0,165_m_m_h_a.png,O,z,975,14,1,1992.8999999999069,376041.1000000001,7002,VNB,A,13
13,test,5,1.0,1-Back,1,m,Wed Aug 07 2024 14:55:59 GMT-0500 (Central Daylight Time),380166.6000000001,124_o_f_d_a.png,O,m,1104,15,1,2125.2000000001863,378041.3999999999,7002,VNB,A,14
14,test,5,0.0,1-Back,1,m,Wed Aug 07 2024 14:55:59 GMT-0500 (Central Daylight Time),381966.1000000001,109_y_m_n_a.png,O,m,778,16,1,1792.7000000001863,380173.3999999999,7002,VNB,A,15
15,test,5,0.0,1-Back,1,m,Wed Aug 07 2024 14:55:59 GMT-0500 (Central Daylight Time),383898.8999999999,071_y_f_h_a.png,O,m,906,17,1,1926.0999999996275,381972.8000000003,7002,VNB,A,16
16,test,5,0.0,1-Back,1,m,Wed Aug 07 2024 14:55:59 GMT-0500 (Central Daylight Time),386031.5,165_m_m_d_a.png,O,m,1103,18,1,2125.399999999907,383906.1000000001,7002,VNB,A,17
0,prac,1,0.0,2-Back,,,Wed Aug 07 2024 14:55:59 GMT-0500 (Central Daylight Time),386031.5,139_m_f_n_a.png,O,space,10356,1,1,2125.399999999907,383906.1000000001,7002,VNB,A,0
0,prac,1,0.0,2-Back,,,Wed Aug 07 2024 14:55:59 GMT-0500 (Central Daylight Time),386031.5,124_o_f_h_a.png,O,space,10356,2,1,2125.399999999907,383906.1000000001,7002,VNB,A,0
1,prac,1,0.0,2-Back,1,m,Wed Aug 07 2024 14:55:59 GMT-0500 (Central Daylight Time),564692.1999999997,039_o_m_d_a.png,O,m,1423,3,1,2225.699999999255,562466.5000000005,7002,VNB,A,1
2,prac,1,1.0,2-Back,1,z,Wed Aug 07 2024 14:55:59 GMT-0500 (Central Daylight Time),566824.8999999999,165_m_m_h_a.png,O,z,1315,4,1,2124.5999999996275,564700.3000000003,7002,VNB,A,2
2,prac,1,0.0,2-Back,0,m,Wed Aug 07 2024 14:55:59 GMT-0500 (Central Daylight Time),569640.3999999999,071_y_f_n_a.png,O,None,2015,5,1,2807.7000000001863,566832.6999999997,7002,VNB,A,3
2,prac,1,1.0,2-Back,0,z,Wed Aug 07 2024 14:55:59 GMT-0500 (Central Daylight Time),571340.1000000001,039_o_m_h_a.png,O,m,898,6,1,1692.0999999996275,569648.0000000005,7002,VNB,A,4
2,prac,1,1.0,2-Back,0,z,Wed Aug 07 2024 14:55:59 GMT-0500 (Central Daylight Time),573489.3000000003,109_y_m_n_a.png,O,m,1343,7,1,2141.4000000003725,571347.8999999999,7002,VNB,A,5
3,prac,1,0.0,2-Back,1,m,Wed Aug 07 2024 14:55:59 GMT-0500 (Central Daylight Time),576055.1000000001,139_m_f_d_a.png,O,m,1760,8,1,2558.2000000001863,573496.8999999999,7002,VNB,A,6
3,prac,1,0.0,2-Back,0,m,Wed Aug 07 2024 14:55:59 GMT-0500 (Central Daylight Time),578987.6999999997,124_o_f_d_a.png,O,None,2114,9,1,2924.5999999996275,576063.1000000001,7002,VNB,A,7
3,prac,1,0.0,2-Back,0,m,Wed Aug 07 2024 14:55:59 GMT-0500 (Central Daylight Time),581036.8999999999,165_m_m_h_a.png,O,z,1261,10,1,2040.7000000001863,578996.1999999997,7002,VNB,A,8
3,prac,1,1.0,2-Back,0,z,Wed Aug 07 2024 14:55:59 GMT-0500 (Central Daylight Time),583852.6999999997,071_y_f_d_a.png,O,None,2016,11,1,2807.699999999255,581045.0000000005,7002,VNB,A,9
4,prac,1,0.0,2-Back,1,m,Wed Aug 07 2024 14:55:59 GMT-0500 (Central Daylight Time),585952.5000000005,039_o_m_n_a.png,O,m,1285,12,1,2091.600000000559,583860.8999999999,7002,VNB,A,10
0,prac,2,0.0,2-Back,,,Wed Aug 07 2024 14:55:59 GMT-0500 (Central Daylight Time),585952.5000000005,139_m_f_n_a.png,O,a,4374,1,1,2091.600000000559,583860.8999999999,7002,VNB,A,0
0,prac,2,0.0,2-Back,,,Wed Aug 07 2024 14:55:59 GMT-0500 (Central Daylight Time),585952.5000000005,124_o_f_h_a.png,O,a,4374,2,1,2091.600000000559,583860.8999999999,7002,VNB,A,0
1,prac,2,0.0,2-Back,1,m,Wed Aug 07 2024 14:55:59 GMT-0500 (Central Daylight Time),597998.3000000003,039_o_m_d_a.png,O,m,1752,3,1,2557.2000000001863,595441.1000000001,7002,VNB,A,1
2,prac,2,1.0,2-Back,1,z,Wed Aug 07 2024 14:55:59 GMT-0500 (Central Daylight Time),600280.8999999999,165_m_m_h_a.png,O,z,1500,4,1,2274.7999999998137,598006.1000000001,7002,VNB,A,2
3,prac,2,0.0,2-Back,1,m,Wed Aug 07 2024 14:55:59 GMT-0500 (Central Daylight Time),602847.0000000005,071_y_f_n_a.png,O,m,1759,5,1,2557.5,600289.5000000005,7002,VNB,A,3
4,prac,2,1.0,2-Back,1,z,Wed Aug 07 2024 14:55:59 GMT-0500 (Central Daylight Time),604946.3000000003,039_o_m_h_a.png,O,z,1291,6,1,2091.2000000001863,602855.1000000001,7002,VNB,A,4
4,prac,2,1.0,2-Back,0,z,Wed Aug 07 2024 14:55:59 GMT-0500 (Central Daylight Time),606978.8999999999,109_y_m_n_a.png,O,m,1223,7,1,2023.8999999994412,604955.0000000005,7002,VNB,A,5
5,prac,2,0.0,2-Back,1,m,Wed Aug 07 2024 14:55:59 GMT-0500 (Central Daylight Time),609161.5000000005,139_m_f_d_a.png,O,m,1379,8,1,2172.9000000003725,606988.6000000001,7002,VNB,A,6
6,prac,2,0.0,2-Back,1,m,Wed Aug 07 2024 14:55:59 GMT-0500 (Central Daylight Time),611777.3000000003,124_o_f_d_a.png,O,m,1785,9,1,2608.0,609169.3000000003,7002,VNB,A,7
7,prac,2,0.0,2-Back,1,m,Wed Aug 07 2024 14:55:59 GMT-0500 (Central Daylight Time),614026.6000000001,165_m_m_h_a.png,O,m,1472,10,1,2241.2999999998137,611785.3000000003,7002,VNB,A,8
8,prac,2,1.0,2-Back,1,z,Wed Aug 07 2024 14:55:59 GMT-0500 (Central Daylight Time),616009.1999999997,071_y_f_d_a.png,O,z,1175,11,1,1975.0,614034.1999999997,7002,VNB,A,9
8,prac,2,0.0,2-Back,0,m,Wed Aug 07 2024 14:55:59 GMT-0500 (Central Daylight Time),618808.6000000001,039_o_m_n_a.png,O,None,2002,12,1,2792.0999999996275,616016.5000000005,7002,VNB,A,10
0,test,1,0.0,2-Back,,,Wed Aug 07 2024 14:55:59 GMT-0500 (Central Daylight Time),618808.6000000001,109_y_m_h_a.png,O,space,16134,1,1,2792.0999999996275,616016.5000000005,7002,VNB,A,0
0,test,1,0.0,2-Back,,,Wed Aug 07 2024 14:55:59 GMT-0500 (Central Daylight Time),618808.6000000001,124_o_f_n_a.png,O,space,16134,2,1,2792.0999999996275,616016.5000000005,7002,VNB,A,0
1,test,1,0.0,2-Back,1,z,Wed Aug 07 2024 14:55:59 GMT-0500 (Central Daylight Time),652914.3000000003,039_o_m_h_a.png,O,z,984,3,1,2009.2000000001863,650905.1000000001,7002,VNB,A,1
2,test,1,0.0,2-Back,1,m,Wed Aug 07 2024 14:55:59 GMT-0500 (Central Daylight Time),655013.6999999997,139_m_f_d_a.png,O,m,1079,4,1,2092.0,652921.6999999997,7002,VNB,A,2
2,test,1,1.0,2-Back,0,m,Wed Aug 07 2024 14:55:59 GMT-0500 (Central Daylight Time),658046.5000000005,109_y_m_n_a.png,O,None,2016,5,1,3025.0,655021.5000000005,7002,VNB,A,3
2,test,1,0.0,2-Back,0,z,Wed Aug 07 2024 14:55:59 GMT-0500 (Central Daylight Time),660545.1999999997,071_y_f_d_a.png,O,m,1467,6,1,2491.7999999998137,658053.3999999999,7002,VNB,A,4
3,test,1,0.0,2-Back,1,m,Wed Aug 07 2024 14:55:59 GMT-0500 (Central Daylight Time),662761.1999999997,165_m_m_h_a.png,O,m,1192,7,1,2208.0999999996275,660553.1000000001,7002,VNB,A,5
3,test,1,1.0,2-Back,0,m,Wed Aug 07 2024 14:55:59 GMT-0500 (Central Daylight Time),664777.1999999997,071_y_f_n_a.png,O,z,984,8,1,2008.5999999996275,662768.6000000001,7002,VNB,A,6
4,test,1,0.0,2-Back,1,z,Wed Aug 07 2024 14:55:59 GMT-0500 (Central Daylight Time),667443.1000000001,124_o_f_h_a.png,O,z,1640,9,1,2659.2999999998137,664783.8000000003,7002,VNB,A,7
5,test,1,0.0,2-Back,1,m,Wed Aug 07 2024 14:55:59 GMT-0500 (Central Daylight Time),669892.1000000001,039_o_m_d_a.png,O,m,1422,10,1,2442.2000000001863,667449.8999999999,7002,VNB,A,8
5,test,1,1.0,2-Back,0,m,Wed Aug 07 2024 14:55:59 GMT-0500 (Central Daylight Time),672925.1999999997,165_m_m_d_a.png,O,None,2016,11,1,3026.2999999998137,669898.8999999999,7002,VNB,A,9
5,test,1,0.0,2-Back,0,m,Wed Aug 07 2024 14:55:59 GMT-0500 (Central Daylight Time),675957.0000000005,139_m_f_n_a.png,O,None,2016,12,1,3024.100000000559,672932.8999999999,7002,VNB,A,10
6,test,1,0.0,2-Back,1,m,Wed Aug 07 2024 14:55:59 GMT-0500 (Central Daylight Time),677823.0000000005,071_y_f_h_a.png,O,m,836,13,1,1858.800000000745,675964.1999999997,7002,VNB,A,11
7,test,1,0.0,2-Back,1,z,Wed Aug 07 2024 14:55:59 GMT-0500 (Central Daylight Time),680089.1999999997,165_m_m_n_a.png,O,z,1234,14,1,2259.0,677830.1999999997,7002,VNB,A,12
7,test,1,0.0,2-Back,0,m,Wed Aug 07 2024 14:55:59 GMT-0500 (Central Daylight Time),683121.5000000005,109_y_m_d_a.png,O,None,2015,15,1,3025.9000000003725,680095.6000000001,7002,VNB,A,13
7,test,1,1.0,2-Back,0,m,Wed Aug 07 2024 14:55:59 GMT-0500 (Central Daylight Time),685737.1999999997,139_m_f_h_a.png,O,z,1584,16,1,2609.0,683128.1999999997,7002,VNB,A,14
7,test,1,0.0,2-Back,0,z,Wed Aug 07 2024 14:55:59 GMT-0500 (Central Daylight Time),688769.8999999999,124_o_f_d_a.png,O,None,2016,17,1,3025.399999999441,685744.5000000005,7002,VNB,A,15
8,test,1,0.0,2-Back,1,m,Wed Aug 07 2024 14:55:59 GMT-0500 (Central Daylight Time),691035.3999999999,039_o_m_n_a.png,O,m,1248,18,1,2258.0999999996275,688777.3000000003,7002,VNB,A,16
0,test,2,0.0,2-Back,,,Wed Aug 07 2024 14:55:59 GMT-0500 (Central Daylight Time),691035.3999999999,165_m_m_h_a.png,O,space,2494,1,1,2258.0999999996275,688777.3000000003,7002,VNB,A,0
0,test,2,0.0,2-Back,,,Wed Aug 07 2024 14:55:59 GMT-0500 (Central Daylight Time),691035.3999999999,071_y_f_n_a.png,O,space,2494,2,1,2258.0999999996275,688777.3000000003,7002,VNB,A,0
1,test,2,1.0,2-Back,1,z,Wed Aug 07 2024 14:55:59 GMT-0500 (Central Daylight Time),701165.8999999999,124_o_f_h_a.png,O,z,1412,3,1,2426.0,698739.8999999999,7002,VNB,A,1
2,test,2,0.0,2-Back,1,m,Wed Aug 07 2024 14:55:59 GMT-0500 (Central Daylight Time),703448.1999999997,039_o_m_d_a.png,O,m,1252,4,1,2275.5,701172.6999999997,7002,VNB,A,2
2,test,2,0.0,2-Back,0,m,Wed Aug 07 2024 14:55:59 GMT-0500 (Central Daylight Time),706481.3000000003,139_m_f_d_a.png,O,None,2016,5,1,3025.4000000003725,703455.8999999999,7002,VNB,A,3
2,test,2,0.0,2-Back,0,m,Wed Aug 07 2024 14:55:59 GMT-0500 (Central Daylight Time),709513.3999999999,109_y_m_h_a.png,O,None,2015,6,1,3025.5999999996275,706487.8000000003,7002,VNB,A,4
2,test,2,0.0,2-Back,0,m,Wed Aug 07 2024 14:55:59 GMT-0500 (Central Daylight Time),711762.3000000003,124_o_f_n_a.png,O,z,1217,7,1,2242.2000000001863,709520.1000000001,7002,VNB,A,5
2,test,2,1.0,2-Back,0,z,Wed Aug 07 2024 14:55:59 GMT-0500 (Central Daylight Time),713845.6000000001,039_o_m_h_a.png,O,m,1055,8,1,2076.5999999996275,711769.0000000005,7002,VNB,A,6
3,test,2,0.0,2-Back,1,m,Wed Aug 07 2024 14:55:59 GMT-0500 (Central Daylight Time),716211.1000000001,071_y_f_d_a.png,O,m,1339,9,1,2359.5,713851.6000000001,7002,VNB,A,7
4,test,2,0.0,2-Back,1,m,Wed Aug 07 2024 14:55:59 GMT-0500 (Central Daylight Time),718910.3999999999,109_y_m_d_a.png,O,m,1678,10,1,2691.899999999441,716218.5000000005,7002,VNB,A,8
5,test,2,0.0,2-Back,1,m,Wed Aug 07 2024 14:55:59 GMT-0500 (Central Daylight Time),721792.6000000001,165_m_m_n_a.png,O,m,1851,11,1,2875.2999999998137,718917.3000000003,7002,VNB,A,9
6,test,2,0.0,2-Back,1,m,Wed Aug 07 2024 14:55:59 GMT-0500 (Central Daylight Time),723941.6000000001,139_m_f_h_a.png,O,m,1121,12,1,2142.0,721799.6000000001,7002,VNB,A,10
7,test,2,1.0,2-Back,1,z,Wed Aug 07 2024 14:55:59 GMT-0500 (Central Daylight Time),725874.8000000003,039_o_m_n_a.png,O,z,908,13,1,1923.7000000001863,723951.1000000001,7002,VNB,A,11
8,test,2,0.0,2-Back,1,m,Wed Aug 07 2024 14:55:59 GMT-0500 (Central Daylight Time),728640.5000000005,124_o_f_d_a.png,O,m,1735,14,1,2759.4000000003725,725881.1000000001,7002,VNB,A,12
9,test,2,0.0,2-Back,1,m,Wed Aug 07 2024 14:55:59 GMT-0500 (Central Daylight Time),730773.3999999999,071_y_f_h_a.png,O,m,1105,15,1,2125.899999999441,728647.5000000005,7002,VNB,A,13
9,test,2,0.0,2-Back,0,z,Wed Aug 07 2024 14:55:59 GMT-0500 (Central Daylight Time),733806.1000000001,165_m_m_d_a.png,O,None,2016,16,1,3025.7000000001863,730780.3999999999,7002,VNB,A,14
9,test,2,0.0,2-Back,0,m,Wed Aug 07 2024 14:55:59 GMT-0500 (Central Daylight Time),736354.8999999999,109_y_m_n_a.png,O,z,1516,17,1,2542.0,733812.8999999999,7002,VNB,A,15
9,test,2,1.0,2-Back,0,m,Wed Aug 07 2024 14:55:59 GMT-0500 (Central Daylight Time),739387.1000000001,139_m_f_n_a.png,O,None,2015,18,1,3024.9000000003725,736362.1999999997,7002,VNB,A,16
0,test,3,1.0,2-Back,,,Wed Aug 07 2024 14:55:59 GMT-0500 (Central Daylight Time),739387.1000000001,039_o_m_n_a.png,O,space,3702,1,1,3024.9000000003725,736362.1999999997,7002,VNB,A,0
0,test,3,1.0,2-Back,,,Wed Aug 07 2024 14:55:59 GMT-0500 (Central Daylight Time),739387.1000000001,124_o_f_d_a.png,O,space,3702,2,1,3024.9000000003725,736362.1999999997,7002,VNB,A,0
0,test,3,0.0,2-Back,0,m,Wed Aug 07 2024 14:55:59 GMT-0500 (Central Daylight Time),751250.3000000003,071_y_f_h_a.png,O,None,2016,3,1,3024.7999999998137,748225.5000000005,7002,VNB,A,1
1,test,3,0.0,2-Back,1,z,Wed Aug 07 2024 14:55:59 GMT-0500 (Central Daylight Time),753600.3999999999,139_m_f_d_a.png,O,z,1327,4,1,2343.399999999441,751257.0000000005,7002,VNB,A,2
2,test,3,1.0,2-Back,1,m,Wed Aug 07 2024 14:55:59 GMT-0500 (Central Daylight Time),755898.5000000005,109_y_m_n_a.png,O,m,1282,5,1,2291.0,753607.5000000005,7002,VNB,A,3
3,test,3,0.0,2-Back,1,m,Wed Aug 07 2024 14:55:59 GMT-0500 (Central Daylight Time),758214.6000000001,039_o_m_h_a.png,O,m,1287,6,1,2309.2000000001863,755905.3999999999,7002,VNB,A,4
4,test,3,0.0,2-Back,1,z,Wed Aug 07 2024 14:55:59 GMT-0500 (Central Daylight Time),760313.8999999999,071_y_f_n_a.png,O,z,1075,7,1,2091.5999999996275,758222.3000000003,7002,VNB,A,5
5,test,3,1.0,2-Back,1,m,Wed Aug 07 2024 14:55:59 GMT-0500 (Central Daylight Time),762763.0000000005,165_m_m_d_a.png,O,m,1424,8,1,2441.9000000003725,760321.1000000001,7002,VNB,A,6
6,test,3,0.0,2-Back,1,m,Wed Aug 07 2024 14:55:59 GMT-0500 (Central Daylight Time),765329.0000000005,109_y_m_d_a.png,O,m,1542,9,1,2558.600000000559,762770.3999999999,7002,VNB,A,7
6,test,3,0.0,2-Back,0,m,Wed Aug 07 2024 14:55:59 GMT-0500 (Central Daylight Time),767811.5000000005,124_o_f_h_a.png,O,z,1370,10,1,2475.2000000001863,765336.3000000003,7002,VNB,A,8
6,test,3,1.0,2-Back,0,m,Wed Aug 07 2024 14:55:59 GMT-0500 (Central Daylight Time),770477.1999999997,139_m_f_n_a.png,O,z,1646,11,1,2658.699999999255,767818.5000000005,7002,VNB,A,9
6,test,3,1.0,2-Back,0,z,Wed Aug 07 2024 14:55:59 GMT-0500 (Central Daylight Time),772576.6999999997,165_m_m_h_a.png,O,m,1068,12,1,2092.7999999998137,770483.8999999999,7002,VNB,A,10
7,test,3,0.0,2-Back,1,m,Wed Aug 07 2024 14:55:59 GMT-0500 (Central Daylight Time),775359.0000000005,071_y_f_d_a.png,O,m,1753,13,1,2775.9000000003725,772583.1000000001,7002,VNB,A,11
8,test,3,0.0,2-Back,1,m,Wed Aug 07 2024 14:55:59 GMT-0500 (Central Daylight Time),777508.3999999999,124_o_f_n_a.png,O,m,1122,14,1,2142.2999999998137,775366.1000000001,7002,VNB,A,12
9,test,3,0.0,2-Back,1,z,Wed Aug 07 2024 14:55:59 GMT-0500 (Central Daylight Time),779441.1000000001,039_o_m_d_a.png,O,z,901,15,1,1925.5,777515.6000000001,7002,VNB,A,13
10,test,3,1.0,2-Back,1,m,Wed Aug 07 2024 14:55:59 GMT-0500 (Central Daylight Time),781940.3000000003,139_m_f_h_a.png,O,m,1472,16,1,2491.9000000003725,779448.3999999999,7002,VNB,A,14
10,test,3,0.0,2-Back,0,m,Wed Aug 07 2024 14:55:59 GMT-0500 (Central Daylight Time),784973.1999999997,165_m_m_n_a.png,O,None,2016,17,1,3025.5999999996275,781947.6000000001,7002,VNB,A,15
10,test,3,0.0,2-Back,0,z,Wed Aug 07 2024 14:55:59 GMT-0500 (Central Daylight Time),787822.1999999997,109_y_m_h_a.png,O,m,1820,18,1,2842.199999999255,784980.0000000005,7002,VNB,A,16
0,test,4,0.0,2-Back,,,Wed Aug 07 2024 14:55:59 GMT-0500 (Central Daylight Time),787822.1999999997,139_m_f_n_a.png,O,space,3435,1,1,2842.199999999255,784980.0000000005,7002,VNB,A,0
0,test,4,0.0,2-Back,,,Wed Aug 07 2024 14:55:59 GMT-0500 (Central Daylight Time),787822.1999999997,039_o_m_n_a.png,O,space,3435,2,1,2842.199999999255,784980.0000000005,7002,VNB,A,0
1,test,4,1.0,2-Back,1,m,Wed Aug 07 2024 14:55:59 GMT-0500 (Central Daylight Time),799018.3000000003,109_y_m_h_a.png,O,m,1641,3,1,2658.9000000003725,796359.3999999999,7002,VNB,A,1
2,test,4,1.0,2-Back,1,m,Wed Aug 07 2024 14:55:59 GMT-0500 (Central Daylight Time),801284.1999999997,124_o_f_d_a.png,O,m,1247,4,1,2258.699999999255,799025.5000000005,7002,VNB,A,2
3,test,4,0.0,2-Back,1,z,Wed Aug 07 2024 14:55:59 GMT-0500 (Central Daylight Time),803383.6000000001,039_o_m_h_a.png,O,z,1077,5,1,2092.5,801291.1000000001,7002,VNB,A,3
4,test,4,0.0,2-Back,1,m,Wed Aug 07 2024 14:55:59 GMT-0500 (Central Daylight Time),805416.1999999997,165_m_m_n_a.png,O,m,1010,6,1,2025.7999999998137,803390.3999999999,7002,VNB,A,4
4,test,4,0.0,2-Back,0,m,Wed Aug 07 2024 14:55:59 GMT-0500 (Central Daylight Time),808449.1000000001,139_m_f_d_a.png,O,None,2016,7,1,3026.0999999996275,805423.0000000005,7002,VNB,A,5
5,test,4,0.0,2-Back,1,z,Wed Aug 07 2024 14:55:59 GMT-0500 (Central Daylight Time),810714.8000000003,071_y_f_n_a.png,O,z,1241,8,1,2258.7000000001863,808456.1000000001,7002,VNB,A,6
6,test,4,1.0,2-Back,1,m,Wed Aug 07 2024 14:55:59 GMT-0500 (Central Daylight Time),812930.6000000001,124_o_f_h_a.png,O,m,1199,9,1,2208.7999999998137,810721.8000000003,7002,VNB,A,7
6,test,4,0.0,2-Back,0,m,Wed Aug 07 2024 14:55:59 GMT-0500 (Central Daylight Time),815963.0000000005,165_m_m_h_a.png,O,None,2016,10,1,3025.300000000745,812937.6999999997,7002,VNB,A,8
7,test,4,0.0,2-Back,1,m,Wed Aug 07 2024 14:55:59 GMT-0500 (Central Daylight Time),818913.3999999999,071_y_f_d_a.png,O,m,1918,11,1,2942.5999999996275,815970.8000000003,7002,VNB,A,9
8,test,4,0.0,2-Back,1,m,Wed Aug 07 2024 14:55:59 GMT-0500 (Central Daylight Time),821678.0000000005,109_y_m_n_a.png,O,m,1737,12,1,2757.600000000559,818920.3999999999,7002,VNB,A,10
8,test,4,0.0,2-Back,0,z,Wed Aug 07 2024 14:55:59 GMT-0500 (Central Daylight Time),824493.8000000003,039_o_m_d_a.png,O,m,1787,13,1,2808.100000000559,821685.6999999997,7002,VNB,A,11
8,test,4,1.0,2-Back,0,m,Wed Aug 07 2024 14:55:59 GMT-0500 (Central Daylight Time),827525.8999999999,139_m_f_h_a.png,O,None,2016,14,1,3025.2999999998137,824500.6000000001,7002,VNB,A,12
9,test,4,1.0,2-Back,1,m,Wed Aug 07 2024 14:55:59 GMT-0500 (Central Daylight Time),829743.1999999997,071_y_f_h_a.png,O,m,1195,15,1,2210.2999999998137,827532.8999999999,7002,VNB,A,13
9,test,4,0.0,2-Back,0,m,Wed Aug 07 2024 14:55:59 GMT-0500 (Central Daylight Time),832674.5000000005,124_o_f_n_a.png,O,z,1907,16,1,2924.800000000745,829749.6999999997,7002,VNB,A,14
10,test,4,0.0,2-Back,1,m,Wed Aug 07 2024 14:55:59 GMT-0500 (Central Daylight Time),835340.1999999997,109_y_m_d_a.png,O,m,1639,17,1,2658.399999999441,832681.8000000003,7002,VNB,A,15
11,test,4,1.0,2-Back,1,m,Wed Aug 07 2024 14:55:59 GMT-0500 (Central Daylight Time),838289.3000000003,165_m_m_d_a.png,O,m,1925,18,1,2941.5,835347.8000000003,7002,VNB,A,16
0,test,5,1.0,2-Back,,,Wed Aug 07 2024 14:55:59 GMT-0500 (Central Daylight Time),838289.3000000003,071_y_f_d_a.png,O,space,2880,1,1,2941.5,835347.8000000003,7002,VNB,A,0
0,test,5,1.0,2-Back,,,Wed Aug 07 2024 14:55:59 GMT-0500 (Central Daylight Time),838289.3000000003,124_o_f_h_a.png,O,space,2880,2,1,2941.5,835347.8000000003,7002,VNB,A,0
1,test,5,1.0,2-Back,1,z,Wed Aug 07 2024 14:55:59 GMT-0500 (Central Daylight Time),848352.6999999997,039_o_m_d_a.png,O,z,1051,3,1,2076.0,846276.6999999997,7002,VNB,A,1
2,test,5,1.0,2-Back,1,m,Wed Aug 07 2024 14:55:59 GMT-0500 (Central Daylight Time),850418.8999999999,139_m_f_n_a.png,O,m,1040,4,1,2058.899999999441,848360.0000000005,7002,VNB,A,2
3,test,5,0.0,2-Back,1,m,Wed Aug 07 2024 14:55:59 GMT-0500 (Central Daylight Time),852718.1999999997,165_m_m_h_a.png,O,m,1270,5,1,2292.2999999998137,850425.8999999999,7002,VNB,A,3
4,test,5,0.0,2-Back,1,z,Wed Aug 07 2024 14:55:59 GMT-0500 (Central Daylight Time),855517.6000000001,071_y_f_n_a.png,O,z,1771,6,1,2792.2000000001863,852725.3999999999,7002,VNB,A,4
5,test,5,0.0,2-Back,1,m,Wed Aug 07 2024 14:55:59 GMT-0500 (Central Daylight Time),857966.5000000005,124_o_f_d_a.png,O,m,1420,7,1,2441.7000000001863,855524.8000000003,7002,VNB,A,5
5,test,5,0.0,2-Back,0,m,Wed Aug 07 2024 14:55:59 GMT-0500 (Central Daylight Time),860832.3000000003,039_o_m_h_a.png,O,z,1843,8,1,2859.2999999998137,857973.0000000005,7002,VNB,A,6
6,test,5,1.0,2-Back,1,z,Wed Aug 07 2024 14:55:59 GMT-0500 (Central Daylight Time),863198.1000000001,139_m_f_d_a.png,O,z,1345,9,1,2358.7000000001863,860839.3999999999,7002,VNB,A,7
7,test,5,0.0,2-Back,1,m,Wed Aug 07 2024 14:55:59 GMT-0500 (Central Daylight Time),865247.6999999997,109_y_m_n_a.png,O,m,1019,10,1,2043.0,863204.6999999997,7002,VNB,A,8
7,test,5,0.0,2-Back,0,m,Wed Aug 07 2024 14:55:59 GMT-0500 (Central Daylight Time),868280.6000000001,165_m_m_n_a.png,O,None,2016,11,1,3025.5999999996275,865255.0000000005,7002,VNB,A,9
7,test,5,0.0,2-Back,0,m,Wed Aug 07 2024 14:55:59 GMT-0500 (Central Daylight Time),870562.3999999999,071_y_f_h_a.png,O,z,1257,12,1,2274.7000000001863,868287.6999999997,7002,VNB,A,10
8,test,5,0.0,2-Back,1,m,Wed Aug 07 2024 14:55:59 GMT-0500 (Central Daylight Time),873178.3000000003,109_y_m_d_a.png,O,m,1591,13,1,2608.0,870570.3000000003,7002,VNB,A,11
9,test,5,1.0,2-Back,1,z,Wed Aug 07 2024 14:55:59 GMT-0500 (Central Daylight Time),875361.0000000005,139_m_f_h_a.png,O,z,1151,14,1,2176.100000000559,873184.8999999999,7002,VNB,A,12
10,test,5,0.0,2-Back,1,m,Wed Aug 07 2024 14:55:59 GMT-0500 (Central Daylight Time),877826.8000000003,039_o_m_n_a.png,O,m,1448,15,1,2458.5,875368.3000000003,7002,VNB,A,13
11,test,5,0.0,2-Back,1,m,Wed Aug 07 2024 14:55:59 GMT-0500 (Central Daylight Time),880076.1000000001,165_m_m_d_a.png,O,m,1230,16,1,2241.2999999998137,877834.8000000003,7002,VNB,A,14
12,test,5,0.0,2-Back,1,z,Wed Aug 07 2024 14:55:59 GMT-0500 (Central Daylight Time),882059.0000000005,124_o_f_n_a.png,O,z,957,17,1,1975.5,880083.5000000005,7002,VNB,A,15
13,test,5,1.0,2-Back,1,m,Wed Aug 07 2024 14:55:59 GMT-0500 (Central Daylight Time),884958.0000000005,109_y_m_h_a.png,O,m,1878,18,1,2892.2000000001863,882065.8000000003,7002,VNB,A,16
