Number,acc_sum,block,block_c,block_cond,con_img,correct,correct_response,datetime,endtime,jitter,project,response,response_time,row_sel,session_number,start_end,starttime,subject_id,task,task_vers,trial
1,1,prac,1,A,circle.png,1,z,Tue Aug 13 2024 13:13:37 GMT-0500 (Central Daylight Time),89815.79999999702,1000,O,z,1125,1,1,2908.0,86907.79999999702,7015,NTS,B,1
9,2,prac,1,A,circle.png,1,m,Tue Aug 13 2024 13:13:37 GMT-0500 (Central Daylight Time),92714.79999999702,1500,O,m,613,8,1,2893.0999999940395,89821.70000000298,7015,NTS,B,2
4,3,prac,1,A,circle.png,1,z,Tue Aug 13 2024 13:13:37 GMT-0500 (Central Daylight Time),95630.60000000149,1400,O,z,718,4,1,2910.7000000029802,92719.89999999851,7015,NTS,B,3
6,4,prac,1,A,circle.png,1,m,Tue Aug 13 2024 13:13:37 GMT-0500 (Central Daylight Time),98912.70000000298,1900,O,m,591,5,1,3276.5,95636.20000000298,7015,NTS,B,4
3,5,prac,1,A,circle.png,1,z,Tue Aug 13 2024 13:13:37 GMT-0500 (Central Daylight Time),101495.29999999702,1200,O,z,592,3,1,2577.0,98918.29999999702,7015,NTS,B,5
9,6,prac,1,A,circle.png,1,m,Tue Aug 13 2024 13:13:37 GMT-0500 (Central Daylight Time),104161.20000000298,1500,O,m,374,8,1,2660.2000000029802,101501.0,7015,NTS,B,6
6,7,prac,1,A,circle.png,1,m,Tue Aug 13 2024 13:13:37 GMT-0500 (Central Daylight Time),107726.70000000298,1900,O,m,868,5,1,3560.4000000059605,104166.29999999702,7015,NTS,B,7
8,8,prac,1,A,circle.png,1,m,Tue Aug 13 2024 13:13:37 GMT-0500 (Central Daylight Time),110709.0,1600,O,m,609,7,1,2977.2999999970198,107731.70000000298,7015,NTS,B,8
7,9,prac,1,A,circle.png,1,m,Tue Aug 13 2024 13:13:37 GMT-0500 (Central Daylight Time),113707.89999999851,1700,O,m,504,6,1,2993.6999999955297,110714.20000000298,7015,NTS,B,9
2,10,prac,1,A,circle.png,1,z,Tue Aug 13 2024 13:13:37 GMT-0500 (Central Daylight Time),116990.29999999702,2000,O,z,486,2,1,3277.1999999955297,113713.10000000149,7015,NTS,B,10
1,11,prac,1,A,circle.png,1,z,Tue Aug 13 2024 13:13:37 GMT-0500 (Central Daylight Time),119523.0,1000,O,z,739,1,1,2527.39999999851,116995.60000000149,7015,NTS,B,11
7,12,prac,1,A,circle.png,1,m,Tue Aug 13 2024 13:13:37 GMT-0500 (Central Daylight Time),122605.20000000298,1700,O,m,586,6,1,3077.3000000044703,119527.89999999851,7015,NTS,B,12
8,1,prac,1,B,triangle.png,1,m,Tue Aug 13 2024 13:13:37 GMT-0500 (Central Daylight Time),155011.79999999702,1200,O,m,479,7,1,2461.6999999955297,152550.1000000015,7015,NTS,B,1
7,2,prac,1,B,triangle.png,1,z,Tue Aug 13 2024 13:13:37 GMT-0500 (Central Daylight Time),158427.20000000298,2000,O,z,633,6,1,3410.5,155016.70000000298,7015,NTS,B,2
9,2,prac,1,B,triangle.png,0,z,Tue Aug 13 2024 13:13:37 GMT-0500 (Central Daylight Time),161176.5,1400,O,m,550,8,1,2744.5,158432.0,7015,NTS,B,3
4,3,prac,1,B,triangle.png,1,m,Tue Aug 13 2024 13:13:37 GMT-0500 (Central Daylight Time),164425.5,1500,O,m,957,4,1,3244.2999999970198,161181.20000000298,7015,NTS,B,4
4,4,prac,1,B,triangle.png,1,m,Tue Aug 13 2024 13:13:37 GMT-0500 (Central Daylight Time),167308.0,1500,O,m,596,4,1,2877.39999999851,164430.6000000015,7015,NTS,B,5
7,5,prac,1,B,triangle.png,1,z,Tue Aug 13 2024 13:13:37 GMT-0500 (Central Daylight Time),171056.79999999702,2000,O,z,950,6,1,3743.7999999970198,167313.0,7015,NTS,B,6
6,6,prac,1,B,triangle.png,1,m,Tue Aug 13 2024 13:13:37 GMT-0500 (Central Daylight Time),173472.5,1000,O,m,625,5,1,2410.7000000029802,171061.79999999702,7015,NTS,B,7
3,7,prac,1,B,triangle.png,1,z,Tue Aug 13 2024 13:13:37 GMT-0500 (Central Daylight Time),176371.6000000015,1600,O,z,513,3,1,2894.0,173477.6000000015,7015,NTS,B,8
1,8,prac,1,B,triangle.png,1,z,Tue Aug 13 2024 13:13:37 GMT-0500 (Central Daylight Time),179753.70000000298,1900,O,z,698,1,1,3377.3000000044703,176376.3999999985,7015,NTS,B,9
2,9,prac,1,B,triangle.png,1,m,Tue Aug 13 2024 13:13:37 GMT-0500 (Central Daylight Time),182836.5,1700,O,m,588,2,1,3077.89999999851,179758.6000000015,7015,NTS,B,10
3,10,prac,1,B,triangle.png,1,z,Tue Aug 13 2024 13:13:37 GMT-0500 (Central Daylight Time),186068.3999999985,1600,O,z,837,3,1,3225.89999999851,182842.5,7015,NTS,B,11
6,11,prac,1,B,triangle.png,1,m,Tue Aug 13 2024 13:13:37 GMT-0500 (Central Daylight Time),188467.79999999702,1000,O,m,605,5,1,2394.6999999955297,186073.1000000015,7015,NTS,B,12
6,1,test,1,A,circle.png,1,m,Tue Aug 13 2024 13:13:37 GMT-0500 (Central Daylight Time),212893.6000000015,1900,O,m,737,5,1,2661.0,210232.6000000015,7015,NTS,B,1
8,2,test,1,A,circle.png,1,m,Tue Aug 13 2024 13:13:37 GMT-0500 (Central Daylight Time),214959.8999999985,1600,O,m,436,7,1,2062.2999999970198,212897.6000000015,7015,NTS,B,2
7,3,test,1,A,circle.png,1,m,Tue Aug 13 2024 13:13:37 GMT-0500 (Central Daylight Time),217458.3999999985,1700,O,m,782,6,1,2494.5,214963.8999999985,7015,NTS,B,3
2,4,test,1,A,circle.png,1,z,Tue Aug 13 2024 13:13:37 GMT-0500 (Central Daylight Time),219907.70000000298,2000,O,z,431,2,1,2445.9000000059605,217461.79999999702,7015,NTS,B,4
8,5,test,1,A,circle.png,1,m,Tue Aug 13 2024 13:13:37 GMT-0500 (Central Daylight Time),222556.79999999702,1600,O,m,1021,7,1,2645.5999999940395,219911.20000000298,7015,NTS,B,5
3,6,test,1,A,circle.png,1,z,Tue Aug 13 2024 13:13:37 GMT-0500 (Central Daylight Time),224489.3999999985,1200,O,z,709,3,1,1929.1000000014901,222560.29999999702,7015,NTS,B,6
3,7,test,1,A,circle.png,1,z,Tue Aug 13 2024 13:13:37 GMT-0500 (Central Daylight Time),226339.0,1200,O,z,623,3,1,1846.1000000014901,224492.8999999985,7015,NTS,B,7
2,8,test,1,A,circle.png,1,z,Tue Aug 13 2024 13:13:37 GMT-0500 (Central Daylight Time),229254.70000000298,2000,O,z,895,2,1,2912.3000000044703,226342.3999999985,7015,NTS,B,8
4,9,test,1,A,circle.png,1,z,Tue Aug 13 2024 13:13:37 GMT-0500 (Central Daylight Time),231320.70000000298,1400,O,z,642,4,1,2062.4000000059605,229258.29999999702,7015,NTS,B,9
1,10,test,1,A,circle.png,1,z,Tue Aug 13 2024 13:13:37 GMT-0500 (Central Daylight Time),232953.6000000015,1000,O,z,609,1,1,1629.3000000044703,231324.29999999702,7015,NTS,B,10
1,11,test,1,A,circle.png,1,z,Tue Aug 13 2024 13:13:37 GMT-0500 (Central Daylight Time),234453.1000000015,1000,O,z,480,1,1,1496.1000000014901,232957.0,7015,NTS,B,11
9,12,test,1,A,circle.png,1,m,Tue Aug 13 2024 13:13:37 GMT-0500 (Central Daylight Time),236435.8999999985,1500,O,m,464,8,1,1979.0,234456.8999999985,7015,NTS,B,12
3,13,test,1,A,circle.png,1,z,Tue Aug 13 2024 13:13:37 GMT-0500 (Central Daylight Time),238185.20000000298,1200,O,z,517,3,1,1745.1000000014901,236440.1000000015,7015,NTS,B,13
7,14,test,1,A,circle.png,1,m,Tue Aug 13 2024 13:13:37 GMT-0500 (Central Daylight Time),240484.70000000298,1700,O,m,572,6,1,2295.7000000029802,238189.0,7015,NTS,B,14
8,15,test,1,A,circle.png,1,m,Tue Aug 13 2024 13:13:37 GMT-0500 (Central Daylight Time),242633.79999999702,1600,O,m,525,7,1,2145.0,240488.79999999702,7015,NTS,B,15
4,16,test,1,A,circle.png,1,z,Tue Aug 13 2024 13:13:37 GMT-0500 (Central Daylight Time),244583.20000000298,1400,O,z,527,4,1,1945.5,242637.70000000298,7015,NTS,B,16
3,17,test,1,A,circle.png,1,z,Tue Aug 13 2024 13:13:37 GMT-0500 (Central Daylight Time),246316.0,1200,O,z,514,3,1,1729.2000000029802,244586.79999999702,7015,NTS,B,17
2,18,test,1,A,circle.png,1,z,Tue Aug 13 2024 13:13:37 GMT-0500 (Central Daylight Time),248848.5,2000,O,z,510,2,1,2528.7999999970198,246319.70000000298,7015,NTS,B,18
7,19,test,1,A,circle.png,1,m,Tue Aug 13 2024 13:13:37 GMT-0500 (Central Daylight Time),251097.8999999985,1700,O,m,533,6,1,2246.0,248851.8999999985,7015,NTS,B,19
8,20,test,1,A,circle.png,1,m,Tue Aug 13 2024 13:13:37 GMT-0500 (Central Daylight Time),253147.1000000015,1600,O,m,432,7,1,2045.6000000014901,251101.5,7015,NTS,B,20
6,21,test,1,A,circle.png,1,m,Tue Aug 13 2024 13:13:37 GMT-0500 (Central Daylight Time),255646.3999999985,1900,O,m,570,5,1,2495.7999999970198,253150.6000000015,7015,NTS,B,21
9,22,test,1,A,circle.png,1,m,Tue Aug 13 2024 13:13:37 GMT-0500 (Central Daylight Time),257595.79999999702,1500,O,m,431,8,1,1945.8999999985099,255649.8999999985,7015,NTS,B,22
9,23,test,1,A,circle.png,1,m,Tue Aug 13 2024 13:13:37 GMT-0500 (Central Daylight Time),259562.0,1500,O,m,450,8,1,1962.8999999985099,257599.1000000015,7015,NTS,B,23
1,24,test,1,A,circle.png,1,z,Tue Aug 13 2024 13:13:37 GMT-0500 (Central Daylight Time),261111.5,1000,O,z,519,1,1,1546.1000000014901,259565.3999999985,7015,NTS,B,24
6,1,test,1,B,triangle.png,1,m,Tue Aug 13 2024 13:13:37 GMT-0500 (Central Daylight Time),279689.5,1000,O,m,784,5,1,1813.5,277876.0,7015,NTS,B,1
8,2,test,1,B,triangle.png,1,m,Tue Aug 13 2024 13:13:37 GMT-0500 (Central Daylight Time),281371.8999999985,1200,O,m,464,7,1,1678.1000000014901,279693.799999997,7015,NTS,B,2
8,3,test,1,B,triangle.png,1,m,Tue Aug 13 2024 13:13:37 GMT-0500 (Central Daylight Time),283504.799999997,1700,O,m,409,15,1,2129.39999999851,281375.3999999985,7015,NTS,B,3
3,4,test,1,B,triangle.png,1,z,Tue Aug 13 2024 13:13:37 GMT-0500 (Central Daylight Time),286037.5,2000,O,z,505,11,1,2528.7999999970198,283508.700000003,7015,NTS,B,4
4,5,test,1,B,triangle.png,1,m,Tue Aug 13 2024 13:13:37 GMT-0500 (Central Daylight Time),288736.299999997,1500,O,m,1168,4,1,2694.2999999970198,286042.0,7015,NTS,B,5
9,6,test,1,B,triangle.png,1,z,Tue Aug 13 2024 13:13:37 GMT-0500 (Central Daylight Time),291002.299999997,1400,O,z,841,8,1,2262.5999999940395,288739.700000003,7015,NTS,B,6
8,7,test,1,B,triangle.png,1,m,Tue Aug 13 2024 13:13:37 GMT-0500 (Central Daylight Time),293268.6000000015,1700,O,m,539,15,1,2262.5,291006.1000000015,7015,NTS,B,7
4,8,test,1,B,triangle.png,1,m,Tue Aug 13 2024 13:13:37 GMT-0500 (Central Daylight Time),294967.700000003,1000,O,m,677,12,1,1695.7000000029802,293272.0,7015,NTS,B,8
7,9,test,1,B,triangle.png,1,z,Tue Aug 13 2024 13:13:37 GMT-0500 (Central Daylight Time),297667.1000000015,2000,O,z,674,6,1,2695.89999999851,294971.200000003,7015,NTS,B,9
7,10,test,1,B,triangle.png,1,z,Tue Aug 13 2024 13:13:37 GMT-0500 (Central Daylight Time),299849.6000000015,1600,O,z,559,14,1,2178.7000000029802,297670.8999999985,7015,NTS,B,10
9,11,test,1,B,triangle.png,1,z,Tue Aug 13 2024 13:13:37 GMT-0500 (Central Daylight Time),302498.5,1900,O,z,732,16,1,2645.0,299853.5,7015,NTS,B,11
2,12,test,1,B,triangle.png,1,m,Tue Aug 13 2024 13:13:37 GMT-0500 (Central Daylight Time),305114.3999999985,1700,O,m,883,2,1,2612.2999999970198,302502.1000000015,7015,NTS,B,12
7,13,test,1,B,triangle.png,1,z,Tue Aug 13 2024 13:13:37 GMT-0500 (Central Daylight Time),307697.1000000015,2000,O,z,559,6,1,2579.0,305118.1000000015,7015,NTS,B,13
1,14,test,1,B,triangle.png,1,z,Tue Aug 13 2024 13:13:37 GMT-0500 (Central Daylight Time),309796.5,1400,O,z,680,9,1,2095.2000000029802,307701.299999997,7015,NTS,B,14
1,15,test,1,B,triangle.png,1,z,Tue Aug 13 2024 13:13:37 GMT-0500 (Central Daylight Time),312262.200000003,1900,O,z,545,1,1,2461.7000000029802,309800.5,7015,NTS,B,15
8,16,test,1,B,triangle.png,1,m,Tue Aug 13 2024 13:13:37 GMT-0500 (Central Daylight Time),313878.5,1200,O,m,395,7,1,1612.6000000014901,312265.8999999985,7015,NTS,B,16
3,17,test,1,B,triangle.png,1,z,Tue Aug 13 2024 13:13:37 GMT-0500 (Central Daylight Time),316544.200000003,2000,O,z,635,11,1,2661.7000000029802,313882.5,7015,NTS,B,17
6,18,test,1,B,triangle.png,1,m,Tue Aug 13 2024 13:13:37 GMT-0500 (Central Daylight Time),318193.799999997,1000,O,m,625,5,1,1646.0999999940395,316547.700000003,7015,NTS,B,18
2,18,test,1,B,triangle.png,0,m,Tue Aug 13 2024 13:13:37 GMT-0500 (Central Daylight Time),319976.5,1200,O,z,560,10,1,1779.3999999985099,318197.1000000015,7015,NTS,B,19
3,18,test,1,B,triangle.png,0,z,Tue Aug 13 2024 13:13:37 GMT-0500 (Central Daylight Time),323109.3999999985,1600,O,None,1516,3,1,3129.60000000149,319979.799999997,7015,NTS,B,20
1,19,test,1,B,triangle.png,1,z,Tue Aug 13 2024 13:13:37 GMT-0500 (Central Daylight Time),325108.299999997,1400,O,z,572,9,1,1995.3999999985099,323112.8999999985,7015,NTS,B,21
2,20,test,1,B,triangle.png,1,m,Tue Aug 13 2024 13:13:37 GMT-0500 (Central Daylight Time),327024.200000003,1200,O,m,685,10,1,1912.4000000059605,325111.799999997,7015,NTS,B,22
6,21,test,1,B,triangle.png,1,m,Tue Aug 13 2024 13:13:37 GMT-0500 (Central Daylight Time),329173.700000003,1500,O,m,629,13,1,2145.9000000059605,327027.799999997,7015,NTS,B,23
4,22,test,1,B,triangle.png,1,m,Tue Aug 13 2024 13:13:37 GMT-0500 (Central Daylight Time),331290.700000003,1000,O,m,1084,12,1,2113.60000000149,329177.1000000015,7015,NTS,B,24
7,0,prac,1,C,triangle.png,0,z,Tue Aug 13 2024 13:13:37 GMT-0500 (Central Daylight Time),402934.200000003,1200,O,None,1515,6,1,3492.5,399441.700000003,7015,NTS,B,1
9,0,prac,1,C,circle.png,0,m,Tue Aug 13 2024 13:13:37 GMT-0500 (Central Daylight Time),407132.700000003,1900,O,None,1516,8,1,4193.30000000447,402939.3999999985,7015,NTS,B,2
6,1,prac,1,C,circle.png,1,m,Tue Aug 13 2024 13:13:37 GMT-0500 (Central Daylight Time),410981.3999999985,2000,O,m,1061,5,1,3844.10000000149,407137.299999997,7015,NTS,B,3
3,2,prac,1,C,triangle.png,1,z,Tue Aug 13 2024 13:13:37 GMT-0500 (Central Daylight Time),414197.200000003,1500,O,z,920,3,1,3210.60000000149,410986.6000000015,7015,NTS,B,4
8,3,prac,1,C,triangle.png,1,m,Tue Aug 13 2024 13:13:37 GMT-0500 (Central Daylight Time),417246.0,1400,O,m,862,7,1,3044.10000000149,414201.8999999985,7015,NTS,B,5
9,3,prac,1,C,circle.png,0,m,Tue Aug 13 2024 13:13:37 GMT-0500 (Central Daylight Time),420794.799999997,1900,O,z,863,8,1,3544.2999999970198,417250.5,7015,NTS,B,6
8,4,prac,1,C,triangle.png,1,m,Tue Aug 13 2024 13:13:37 GMT-0500 (Central Daylight Time),423677.6000000015,1400,O,m,695,7,1,2877.8000000044703,420799.799999997,7015,NTS,B,7
2,4,prac,1,C,triangle.png,0,m,Tue Aug 13 2024 13:13:37 GMT-0500 (Central Daylight Time),427576.1000000015,1600,O,None,1516,2,1,3893.89999999851,423682.200000003,7015,NTS,B,8
4,4,prac,1,C,circle.png,0,z,Tue Aug 13 2024 13:13:37 GMT-0500 (Central Daylight Time),430058.8999999985,1000,O,m,689,4,1,2477.89999999851,427581.0,7015,NTS,B,9
3,4,prac,1,C,triangle.png,0,z,Tue Aug 13 2024 13:13:37 GMT-0500 (Central Daylight Time),433857.3999999985,1500,O,None,1516,3,1,3793.6999999955297,430063.700000003,7015,NTS,B,10
1,5,prac,1,C,circle.png,1,z,Tue Aug 13 2024 13:13:37 GMT-0500 (Central Daylight Time),437206.700000003,1700,O,z,852,1,1,3344.60000000149,433862.1000000015,7015,NTS,B,11
1,6,prac,1,C,circle.png,1,z,Tue Aug 13 2024 13:13:37 GMT-0500 (Central Daylight Time),440788.6000000015,1700,O,z,1095,1,1,3577.3000000044703,437211.299999997,7015,NTS,B,12
2,0,prac,2,C,triangle.png,0,m,Tue Aug 13 2024 13:13:37 GMT-0500 (Central Daylight Time),451485.1000000015,1600,O,None,1516,2,1,3894.3000000044703,447590.799999997,7015,NTS,B,1
3,0,prac,2,C,triangle.png,0,z,Tue Aug 13 2024 13:13:37 GMT-0500 (Central Daylight Time),454883.8999999985,1500,O,m,1104,3,1,3392.89999999851,451491.0,7015,NTS,B,2
9,0,prac,2,C,circle.png,0,m,Tue Aug 13 2024 13:13:37 GMT-0500 (Central Daylight Time),458849.5,1900,O,z,1274,8,1,3960.89999999851,454888.6000000015,7015,NTS,B,3
6,1,prac,2,C,circle.png,1,m,Tue Aug 13 2024 13:13:37 GMT-0500 (Central Daylight Time),462281.700000003,2000,O,m,648,5,1,3426.2000000029802,458855.5,7015,NTS,B,4
9,2,prac,2,C,circle.png,1,m,Tue Aug 13 2024 13:13:37 GMT-0500 (Central Daylight Time),466330.299999997,1900,O,m,1364,8,1,4043.6999999955297,462286.6000000015,7015,NTS,B,5
4,3,prac,2,C,circle.png,1,z,Tue Aug 13 2024 13:13:37 GMT-0500 (Central Daylight Time),469396.3999999985,1000,O,z,1271,4,1,3061.5,466334.8999999985,7015,NTS,B,6
7,4,prac,2,C,triangle.png,1,z,Tue Aug 13 2024 13:13:37 GMT-0500 (Central Daylight Time),472828.6000000015,1200,O,z,1445,6,1,3426.7000000029802,469401.8999999985,7015,NTS,B,7
3,4,prac,2,C,triangle.png,0,z,Tue Aug 13 2024 13:13:37 GMT-0500 (Central Daylight Time),476627.5,1500,O,None,1516,3,1,3794.2000000029802,472833.299999997,7015,NTS,B,8
4,4,prac,2,C,circle.png,0,z,Tue Aug 13 2024 13:13:37 GMT-0500 (Central Daylight Time),479060.200000003,1000,O,m,638,4,1,2428.0,476632.200000003,7015,NTS,B,9
8,4,prac,2,C,triangle.png,0,m,Tue Aug 13 2024 13:13:37 GMT-0500 (Central Daylight Time),482342.3999999985,1400,O,z,1094,7,1,3277.6999999955297,479064.700000003,7015,NTS,B,10
2,4,prac,2,C,triangle.png,0,m,Tue Aug 13 2024 13:13:37 GMT-0500 (Central Daylight Time),485524.799999997,1600,O,z,795,2,1,3177.7999999970198,482347.0,7015,NTS,B,11
1,4,prac,2,C,circle.png,0,z,Tue Aug 13 2024 13:13:37 GMT-0500 (Central Daylight Time),489523.3999999985,1700,O,None,1516,1,1,3994.0,485529.3999999985,7015,NTS,B,12
9,1,test,1,C,circle.png,1,m,Tue Aug 13 2024 13:13:37 GMT-0500 (Central Daylight Time),577495.700000003,1500,O,m,1086,8,1,2612.8000000044703,574882.8999999985,7015,NTS,B,1
6,2,test,1,C,circle.png,1,m,Tue Aug 13 2024 13:13:37 GMT-0500 (Central Daylight Time),580344.799999997,1900,O,m,926,21,1,2845.0,577499.799999997,7015,NTS,B,2
8,2,test,1,C,triangle.png,0,m,Tue Aug 13 2024 13:13:37 GMT-0500 (Central Daylight Time),583477.200000003,1600,O,None,1516,7,1,3128.7000000029802,580348.5,7015,NTS,B,3
3,3,test,1,C,circle.png,1,z,Tue Aug 13 2024 13:13:37 GMT-0500 (Central Daylight Time),586426.5,1600,O,z,1316,19,1,2945.7999999970198,583480.700000003,7015,NTS,B,4
2,3,test,1,C,triangle.png,0,m,Tue Aug 13 2024 13:13:37 GMT-0500 (Central Daylight Time),589858.3999999985,2000,O,z,1415,2,1,3427.7999999970198,586430.6000000015,7015,NTS,B,5
6,4,test,1,C,triangle.png,1,m,Tue Aug 13 2024 13:13:37 GMT-0500 (Central Daylight Time),592274.3999999985,1000,O,m,1391,13,1,2412.2999999970198,589862.1000000015,7015,NTS,B,6
6,4,test,1,C,circle.png,0,m,Tue Aug 13 2024 13:13:37 GMT-0500 (Central Daylight Time),595524.5,1900,O,z,1331,5,1,3246.39999999851,592278.1000000015,7015,NTS,B,7
1,5,test,1,C,circle.png,1,z,Tue Aug 13 2024 13:13:37 GMT-0500 (Central Daylight Time),597655.700000003,1000,O,z,1102,1,1,2127.3000000044703,595528.3999999985,7015,NTS,B,8
9,6,test,1,C,circle.png,1,m,Tue Aug 13 2024 13:13:37 GMT-0500 (Central Daylight Time),600555.0,1500,O,m,1373,24,1,2895.89999999851,597659.1000000015,7015,NTS,B,9
9,7,test,1,C,triangle.png,1,z,Tue Aug 13 2024 13:13:37 GMT-0500 (Central Daylight Time),602904.299999997,1400,O,z,918,16,1,2345.5999999940395,600558.700000003,7015,NTS,B,10
8,8,test,1,C,triangle.png,1,m,Tue Aug 13 2024 13:13:37 GMT-0500 (Central Daylight Time),606086.700000003,1600,O,m,1480,23,1,3178.8000000044703,602907.8999999985,7015,NTS,B,11
3,8,test,1,C,triangle.png,0,z,Tue Aug 13 2024 13:13:37 GMT-0500 (Central Daylight Time),608819.299999997,1200,O,None,1516,3,1,2728.7999999970198,606090.5,7015,NTS,B,12
2,9,test,1,C,circle.png,1,z,Tue Aug 13 2024 13:13:37 GMT-0500 (Central Daylight Time),611485.200000003,1700,O,z,938,18,1,2662.4000000059605,608822.799999997,7015,NTS,B,13
7,9,test,1,C,triangle.png,0,z,Tue Aug 13 2024 13:13:37 GMT-0500 (Central Daylight Time),614250.799999997,1700,O,m,1040,22,1,2761.89999999851,611488.8999999985,7015,NTS,B,14
8,9,test,1,C,circle.png,0,m,Tue Aug 13 2024 13:13:37 GMT-0500 (Central Daylight Time),616983.5,1200,O,None,1515,15,1,2728.7999999970198,614254.700000003,7015,NTS,B,15
7,9,test,1,C,triangle.png,0,z,Tue Aug 13 2024 13:13:37 GMT-0500 (Central Daylight Time),619515.6000000015,1700,O,m,815,6,1,2528.39999999851,616987.200000003,7015,NTS,B,16
4,10,test,1,C,circle.png,1,z,Tue Aug 13 2024 13:13:37 GMT-0500 (Central Daylight Time),621831.8999999985,1400,O,z,886,4,1,2312.6999999955297,619519.200000003,7015,NTS,B,17
1,11,test,1,C,triangle.png,1,z,Tue Aug 13 2024 13:13:37 GMT-0500 (Central Daylight Time),624614.299999997,1900,O,z,862,9,1,2778.1999999955297,621836.1000000015,7015,NTS,B,18
3,12,test,1,C,circle.png,1,z,Tue Aug 13 2024 13:13:37 GMT-0500 (Central Daylight Time),627530.0,1600,O,z,1283,11,1,2911.7000000029802,624618.299999997,7015,NTS,B,19
1,13,test,1,C,triangle.png,1,z,Tue Aug 13 2024 13:13:37 GMT-0500 (Central Daylight Time),629996.0,1900,O,z,548,17,1,2462.2000000029802,627533.799999997,7015,NTS,B,20
4,13,test,1,C,triangle.png,0,m,Tue Aug 13 2024 13:13:37 GMT-0500 (Central Daylight Time),632261.799999997,1500,O,z,745,20,1,2262.2999999970198,629999.5,7015,NTS,B,21
2,14,test,1,C,circle.png,1,z,Tue Aug 13 2024 13:13:37 GMT-0500 (Central Daylight Time),634710.8999999985,1700,O,z,728,10,1,2445.39999999851,632265.5,7015,NTS,B,22
7,14,test,1,C,circle.png,0,m,Tue Aug 13 2024 13:13:37 GMT-0500 (Central Daylight Time),638243.299999997,2000,O,None,1516,14,1,3528.6999999955297,634714.6000000015,7015,NTS,B,23
4,14,test,1,C,triangle.png,0,m,Tue Aug 13 2024 13:13:37 GMT-0500 (Central Daylight Time),641275.6000000015,1500,O,None,1516,12,1,3028.3000000044703,638247.299999997,7015,NTS,B,24
8,1,test,2,C,circle.png,1,m,Tue Aug 13 2024 13:13:37 GMT-0500 (Central Daylight Time),657837.299999997,1200,O,m,838,15,1,2062.7999999970198,655774.5,7015,NTS,B,1
6,2,test,2,C,triangle.png,1,m,Tue Aug 13 2024 13:13:37 GMT-0500 (Central Daylight Time),659719.8999999985,1000,O,m,852,13,1,1879.1000000014901,657840.799999997,7015,NTS,B,2
7,2,test,2,C,circle.png,0,m,Tue Aug 13 2024 13:13:37 GMT-0500 (Central Daylight Time),663252.3999999985,2000,O,None,1516,14,1,3528.7999999970198,659723.6000000015,7015,NTS,B,3
1,3,test,2,C,triangle.png,1,z,Tue Aug 13 2024 13:13:37 GMT-0500 (Central Daylight Time),665868.299999997,1900,O,z,690,17,1,2612.2999999970198,663256.0,7015,NTS,B,4
4,4,test,2,C,circle.png,1,z,Tue Aug 13 2024 13:13:37 GMT-0500 (Central Daylight Time),668200.5,1400,O,z,901,4,1,2328.7000000029802,665871.799999997,7015,NTS,B,5
6,4,test,2,C,circle.png,0,m,Tue Aug 13 2024 13:13:37 GMT-0500 (Central Daylight Time),671216.200000003,1900,O,z,1085,5,1,3011.9000000059605,668204.299999997,7015,NTS,B,6
7,4,test,2,C,triangle.png,0,z,Tue Aug 13 2024 13:13:37 GMT-0500 (Central Daylight Time),673548.8999999985,1700,O,m,613,6,1,2329.2999999970198,671219.6000000015,7015,NTS,B,7
3,4,test,2,C,triangle.png,0,z,Tue Aug 13 2024 13:13:37 GMT-0500 (Central Daylight Time),675831.3999999985,1200,O,m,1060,3,1,2279.0,673552.3999999985,7015,NTS,B,8
8,4,test,2,C,circle.png,0,m,Tue Aug 13 2024 13:13:37 GMT-0500 (Central Daylight Time),677547.6000000015,1200,O,z,490,23,1,1712.6000000014901,675835.0,7015,NTS,B,9
9,5,test,2,C,circle.png,1,m,Tue Aug 13 2024 13:13:37 GMT-0500 (Central Daylight Time),679797.0,1500,O,m,722,8,1,2245.7999999970198,677551.200000003,7015,NTS,B,10
7,5,test,2,C,circle.png,0,m,Tue Aug 13 2024 13:13:37 GMT-0500 (Central Daylight Time),683012.700000003,2000,O,z,1197,22,1,3210.7000000029802,679802.0,7015,NTS,B,11
6,5,test,2,C,triangle.png,0,m,Tue Aug 13 2024 13:13:37 GMT-0500 (Central Daylight Time),685545.200000003,1000,O,None,1516,21,1,2528.8000000044703,683016.3999999985,7015,NTS,B,12
4,5,test,2,C,triangle.png,0,m,Tue Aug 13 2024 13:13:37 GMT-0500 (Central Daylight Time),687894.200000003,1500,O,z,829,12,1,2345.4000000059605,685548.799999997,7015,NTS,B,13
2,6,test,2,C,circle.png,1,z,Tue Aug 13 2024 13:13:37 GMT-0500 (Central Daylight Time),690260.299999997,1700,O,z,647,10,1,2362.1999999955297,687898.1000000015,7015,NTS,B,14
2,6,test,2,C,circle.png,0,z,Tue Aug 13 2024 13:13:37 GMT-0500 (Central Daylight Time),693492.5,1700,O,None,1515,18,1,3228.5,690264.0,7015,NTS,B,15
2,7,test,2,C,triangle.png,1,m,Tue Aug 13 2024 13:13:37 GMT-0500 (Central Daylight Time),696775.1000000015,2000,O,m,1261,2,1,3278.7000000029802,693496.3999999985,7015,NTS,B,16
8,8,test,2,C,triangle.png,1,m,Tue Aug 13 2024 13:13:37 GMT-0500 (Central Daylight Time),699207.3999999985,1600,O,m,803,7,1,2428.7999999970198,696778.6000000015,7015,NTS,B,17
1,9,test,2,C,circle.png,1,z,Tue Aug 13 2024 13:13:37 GMT-0500 (Central Daylight Time),700923.6000000015,1000,O,z,698,1,1,1712.5,699211.1000000015,7015,NTS,B,18
4,10,test,2,C,triangle.png,1,m,Tue Aug 13 2024 13:13:37 GMT-0500 (Central Daylight Time),703072.8999999985,1500,O,m,626,20,1,2145.6999999955297,700927.200000003,7015,NTS,B,19
1,11,test,2,C,triangle.png,1,z,Tue Aug 13 2024 13:13:37 GMT-0500 (Central Daylight Time),705772.200000003,1900,O,z,781,9,1,2695.7000000029802,703076.5,7015,NTS,B,20
3,11,test,2,C,circle.png,0,z,Tue Aug 13 2024 13:13:37 GMT-0500 (Central Daylight Time),708904.3999999985,1600,O,None,1515,11,1,3128.7999999970198,705775.6000000015,7015,NTS,B,21
9,11,test,2,C,triangle.png,0,z,Tue Aug 13 2024 13:13:37 GMT-0500 (Central Daylight Time),711170.3999999985,1400,O,m,834,24,1,2262.5,708907.8999999985,7015,NTS,B,22
3,11,test,2,C,circle.png,0,z,Tue Aug 13 2024 13:13:37 GMT-0500 (Central Daylight Time),714302.8999999985,1600,O,None,1516,19,1,3129.0,711173.8999999985,7015,NTS,B,23
9,11,test,2,C,triangle.png,0,z,Tue Aug 13 2024 13:13:37 GMT-0500 (Central Daylight Time),716402.1000000015,1400,O,m,667,16,1,2095.5,714306.6000000015,7015,NTS,B,24
1,0,test,3,C,circle.png,0,z,Tue Aug 13 2024 13:13:37 GMT-0500 (Central Daylight Time),761604.6000000015,1000,O,m,639,17,1,1662.8999999985099,759941.700000003,7015,NTS,B,1
3,0,test,3,C,circle.png,0,z,Tue Aug 13 2024 13:13:37 GMT-0500 (Central Daylight Time),763620.700000003,1600,O,m,397,11,1,2012.0,761608.700000003,7015,NTS,B,2
8,1,test,3,C,circle.png,1,m,Tue Aug 13 2024 13:13:37 GMT-0500 (Central Daylight Time),765220.200000003,1200,O,m,373,15,1,1596.1000000014901,763624.1000000015,7015,NTS,B,3
6,1,test,3,C,triangle.png,0,m,Tue Aug 13 2024 13:13:37 GMT-0500 (Central Daylight Time),766919.5,1000,O,z,669,13,1,1695.7000000029802,765223.799999997,7015,NTS,B,4
6,2,test,3,C,circle.png,1,m,Tue Aug 13 2024 13:13:37 GMT-0500 (Central Daylight Time),769336.5,1900,O,m,494,5,1,2413.2999999970198,766923.200000003,7015,NTS,B,5
9,3,test,3,C,circle.png,1,m,Tue Aug 13 2024 13:13:37 GMT-0500 (Central Daylight Time),771351.6000000015,1500,O,m,486,8,1,2011.7000000029802,769339.8999999985,7015,NTS,B,6
4,3,test,3,C,circle.png,0,z,Tue Aug 13 2024 13:13:37 GMT-0500 (Central Daylight Time),773184.200000003,1400,O,m,402,20,1,1829.3000000044703,771354.8999999985,7015,NTS,B,7
1,4,test,3,C,circle.png,1,z,Tue Aug 13 2024 13:13:37 GMT-0500 (Central Daylight Time),774617.1000000015,1000,O,z,401,1,1,1429.3000000044703,773187.799999997,7015,NTS,B,8
8,4,test,3,C,triangle.png,0,m,Tue Aug 13 2024 13:13:37 GMT-0500 (Central Daylight Time),776816.6000000015,1600,O,z,576,7,1,2195.89999999851,774620.700000003,7015,NTS,B,9
2,4,test,3,C,circle.png,0,z,Tue Aug 13 2024 13:13:37 GMT-0500 (Central Daylight Time),779382.200000003,1700,O,m,845,10,1,2562.2000000029802,776820.0,7015,NTS,B,10
4,4,test,3,C,circle.png,0,z,Tue Aug 13 2024 13:13:37 GMT-0500 (Central Daylight Time),781298.5,1400,O,m,500,4,1,1912.2999999970198,779386.200000003,7015,NTS,B,11
7,5,test,3,C,triangle.png,1,z,Tue Aug 13 2024 13:13:37 GMT-0500 (Central Daylight Time),783930.8999999985,1700,O,z,900,22,1,2629.0,781301.8999999985,7015,NTS,B,12
4,5,test,3,C,triangle.png,0,m,Tue Aug 13 2024 13:13:37 GMT-0500 (Central Daylight Time),785930.299999997,1500,O,z,475,12,1,1995.7999999970198,783934.5,7015,NTS,B,13
8,5,test,3,C,triangle.png,0,m,Tue Aug 13 2024 13:13:37 GMT-0500 (Central Daylight Time),787929.700000003,1600,O,z,367,23,1,1995.8000000044703,785933.8999999985,7015,NTS,B,14
3,6,test,3,C,triangle.png,1,z,Tue Aug 13 2024 13:13:37 GMT-0500 (Central Daylight Time),789529.1000000015,1200,O,z,376,3,1,1595.8999999985099,787933.200000003,7015,NTS,B,15
1,7,test,3,C,triangle.png,1,z,Tue Aug 13 2024 13:13:37 GMT-0500 (Central Daylight Time),791811.6000000015,1900,O,z,357,9,1,2278.60000000149,789533.0,7015,NTS,B,16
2,7,test,3,C,triangle.png,0,m,Tue Aug 13 2024 13:13:37 GMT-0500 (Central Daylight Time),794327.6000000015,2000,O,z,487,2,1,2512.5,791815.1000000015,7015,NTS,B,17
3,7,test,3,C,triangle.png,0,z,Tue Aug 13 2024 13:13:37 GMT-0500 (Central Daylight Time),796210.5,1200,O,m,666,19,1,1879.3999999985099,794331.1000000015,7015,NTS,B,18
2,7,test,3,C,triangle.png,0,m,Tue Aug 13 2024 13:13:37 GMT-0500 (Central Daylight Time),798777.299999997,2000,O,z,535,18,1,2563.5,796213.799999997,7015,NTS,B,19
7,8,test,3,C,circle.png,1,m,Tue Aug 13 2024 13:13:37 GMT-0500 (Central Daylight Time),801275.3999999985,2000,O,m,474,14,1,2494.5,798780.8999999985,7015,NTS,B,20
9,9,test,3,C,circle.png,1,m,Tue Aug 13 2024 13:13:37 GMT-0500 (Central Daylight Time),803224.8999999985,1500,O,m,418,24,1,1945.8999999985099,801279.0,7015,NTS,B,21
7,10,test,3,C,triangle.png,1,z,Tue Aug 13 2024 13:13:37 GMT-0500 (Central Daylight Time),805440.799999997,1700,O,z,493,6,1,2212.39999999851,803228.3999999985,7015,NTS,B,22
9,11,test,3,C,triangle.png,1,z,Tue Aug 13 2024 13:13:37 GMT-0500 (Central Daylight Time),807340.200000003,1400,O,z,482,16,1,1895.9000000059605,805444.299999997,7015,NTS,B,23
6,12,test,3,C,circle.png,1,m,Tue Aug 13 2024 13:13:37 GMT-0500 (Central Daylight Time),809706.3999999985,1900,O,m,433,21,1,2362.5,807343.8999999985,7015,NTS,B,24
3,0,test,4,C,circle.png,0,z,Tue Aug 13 2024 13:13:37 GMT-0500 (Central Daylight Time),824001.799999997,1600,O,m,675,11,1,2296.1999999955297,821705.6000000015,7015,NTS,B,1
4,0,test,4,C,triangle.png,0,m,Tue Aug 13 2024 13:13:37 GMT-0500 (Central Daylight Time),826050.8999999985,1500,O,z,532,12,1,2044.0,824006.8999999985,7015,NTS,B,2
6,0,test,4,C,triangle.png,0,m,Tue Aug 13 2024 13:13:37 GMT-0500 (Central Daylight Time),827600.299999997,1000,O,z,518,13,1,1546.0999999940395,826054.200000003,7015,NTS,B,3
6,1,test,4,C,circle.png,1,m,Tue Aug 13 2024 13:13:37 GMT-0500 (Central Daylight Time),830099.700000003,1900,O,m,573,21,1,2491.3000000044703,827608.3999999985,7015,NTS,B,4
7,2,test,4,C,triangle.png,1,z,Tue Aug 13 2024 13:13:37 GMT-0500 (Central Daylight Time),832382.3999999985,1700,O,z,554,6,1,2278.89999999851,830103.5,7015,NTS,B,5
3,3,test,4,C,triangle.png,1,z,Tue Aug 13 2024 13:13:37 GMT-0500 (Central Daylight Time),834098.700000003,1200,O,z,484,19,1,1712.6000000014901,832386.1000000015,7015,NTS,B,6
3,4,test,4,C,triangle.png,1,z,Tue Aug 13 2024 13:13:37 GMT-0500 (Central Daylight Time),835897.799999997,1200,O,z,567,3,1,1795.2999999970198,834102.5,7015,NTS,B,7
1,4,test,4,C,circle.png,0,z,Tue Aug 13 2024 13:13:37 GMT-0500 (Central Daylight Time),837364.200000003,1000,O,m,439,17,1,1462.7000000029802,835901.5,7015,NTS,B,8
1,4,test,4,C,circle.png,0,z,Tue Aug 13 2024 13:13:37 GMT-0500 (Central Daylight Time),838780.1000000015,1000,O,m,390,1,1,1412.2000000029802,837367.8999999985,7015,NTS,B,9
7,5,test,4,C,circle.png,1,m,Tue Aug 13 2024 13:13:37 GMT-0500 (Central Daylight Time),841363.0,2000,O,m,559,14,1,2579.2000000029802,838783.799999997,7015,NTS,B,10
2,5,test,4,C,triangle.png,0,m,Tue Aug 13 2024 13:13:37 GMT-0500 (Central Daylight Time),843928.6000000015,2000,O,z,543,2,1,2562.0,841366.6000000015,7015,NTS,B,11
8,6,test,4,C,circle.png,1,m,Tue Aug 13 2024 13:13:37 GMT-0500 (Central Daylight Time),845661.299999997,1200,O,m,513,15,1,1728.7999999970198,843932.5,7015,NTS,B,12
8,6,test,4,C,triangle.png,0,m,Tue Aug 13 2024 13:13:37 GMT-0500 (Central Daylight Time),847777.3999999985,1600,O,z,484,23,1,2112.2999999970198,845665.1000000015,7015,NTS,B,13
4,6,test,4,C,circle.png,0,z,Tue Aug 13 2024 13:13:37 GMT-0500 (Central Daylight Time),849626.6000000015,1400,O,m,424,4,1,1845.3000000044703,847781.299999997,7015,NTS,B,14
9,7,test,4,C,circle.png,1,m,Tue Aug 13 2024 13:13:37 GMT-0500 (Central Daylight Time),851626.3999999985,1500,O,m,483,8,1,1995.6999999955297,849630.700000003,7015,NTS,B,15
6,8,test,4,C,circle.png,1,m,Tue Aug 13 2024 13:13:37 GMT-0500 (Central Daylight Time),854058.700000003,1900,O,m,508,5,1,2428.7000000029802,851630.0,7015,NTS,B,16
1,9,test,4,C,triangle.png,1,z,Tue Aug 13 2024 13:13:37 GMT-0500 (Central Daylight Time),856474.6000000015,1900,O,z,483,9,1,2412.3000000044703,854062.299999997,7015,NTS,B,17
9,10,test,4,C,circle.png,1,m,Tue Aug 13 2024 13:13:37 GMT-0500 (Central Daylight Time),858440.6000000015,1500,O,m,443,24,1,1962.2000000029802,856478.3999999985,7015,NTS,B,18
7,11,test,4,C,triangle.png,1,z,Tue Aug 13 2024 13:13:37 GMT-0500 (Central Daylight Time),860773.1000000015,1700,O,z,605,22,1,2328.7000000029802,858444.3999999985,7015,NTS,B,19
4,11,test,4,C,circle.png,0,z,Tue Aug 13 2024 13:13:37 GMT-0500 (Central Daylight Time),862656.0,1400,O,m,452,20,1,1879.0,860777.0,7015,NTS,B,20
9,12,test,4,C,triangle.png,1,z,Tue Aug 13 2024 13:13:37 GMT-0500 (Central Daylight Time),865471.700000003,1400,O,z,1393,16,1,2811.8000000044703,862659.8999999985,7015,NTS,B,21
2,12,test,4,C,circle.png,0,z,Tue Aug 13 2024 13:13:37 GMT-0500 (Central Daylight Time),867804.299999997,1700,O,m,606,10,1,2328.5,865475.799999997,7015,NTS,B,22
2,12,test,4,C,triangle.png,0,m,Tue Aug 13 2024 13:13:37 GMT-0500 (Central Daylight Time),870353.6000000015,2000,O,z,518,18,1,2544.89999999851,867808.700000003,7015,NTS,B,23
8,12,test,4,C,triangle.png,0,m,Tue Aug 13 2024 13:13:37 GMT-0500 (Central Daylight Time),872386.200000003,1600,O,z,416,7,1,2028.8000000044703,870357.3999999985,7015,NTS,B,24
