acc_sum,block_c,block_dur,condition,correct,correct_response,countdown,datetime,endtime,project,response,response_time,response_time_test1_response,response_time_test2_response,row_sel,same,session_number,start_end,starttime,stim1,stim2,subject_id,task,task_vers,time_test1,time_test2,trial
1,1,0.0,prac,1,m,30000.0,Tue Dec 09 2025 18:30:12 GMT-0600 (Central Standard Time),30619.099999964237,I,m,4046,,,5,no,1,5574.800000011921,25044.299999952316,LNDPRSKQB,LNDPRSJQB,8083,LC,A,,,1
2,1,0.0,prac,1,m,30000.0,Tue Dec 09 2025 18:30:12 GMT-0600 (Central Standard Time),35917.39999997616,I,m,3767,,,3,no,1,5289.300000011921,30628.099999964237,QHZXPC,QHZWPC,8083,LC,A,,,2
3,1,0.0,prac,1,m,30000.0,Tue Dec 09 2025 18:30:12 GMT-0600 (Central Standard Time),38583.09999996424,I,m,1127,,,1,no,1,2659.599999964237,35923.5,RNV,FNV,8083,LC,A,,,3
4,1,0.0,prac,1,z,30000.0,Tue Dec 09 2025 18:30:12 GMT-0600 (Central Standard Time),41365.69999998808,I,z,1256,,,4,yes,1,2779.100000023842,38586.59999996424,RSM,RSM,8083,LC,A,,,4
5,1,0.0,prac,1,z,30000.0,Tue Dec 09 2025 18:30:12 GMT-0600 (Central Standard Time),45431.59999996424,I,z,2534,,,2,yes,1,4058.800000011921,41372.799999952316,NBGFSM,NBGFSM,8083,LC,A,,,5
6,1,0.0,prac,1,z,30000.0,Tue Dec 09 2025 18:30:12 GMT-0600 (Central Standard Time),50246.59999996424,I,z,3287,,,6,yes,1,4811.099999964237,45435.5,CSDBFPHXZ,CSDBFPHXZ,8083,LC,A,,,6
1,1,1.4179999828338623,test,1,m,28582.000017166138,Tue Dec 09 2025 18:30:12 GMT-0600 (Central Standard Time),56511.69999998808,I,m,1408,1408,,1,no,1,1413.0,55098.69999998808,HCF,RCF,8083,LC,A,52718,,1
2,1,3.365000009536743,test,1,m,26634.999990463257,Tue Dec 09 2025 18:30:12 GMT-0600 (Central Standard Time),58458.89999997616,I,m,1933,1933,,2,no,1,1942.6000000238419,56516.299999952316,QTPRJX,QTPNJX,8083,LC,A,54136,,2
3,1,6.449000120162964,test,1,m,23550.999879837036,Tue Dec 09 2025 18:30:12 GMT-0600 (Central Standard Time),61542.89999997616,I,m,3078,3078,,3,no,1,3081.100000023842,58461.799999952316,MZDYGVGKQ,MZDYGLBKQ,8083,LC,A,56081,,3
4,1,8.032999992370605,test,1,m,21967.000007629395,Tue Dec 09 2025 18:30:12 GMT-0600 (Central Standard Time),63127.09999996424,I,m,1580,1580,,4,no,1,1580.0999999642372,61547.0,FQTNMK,JQTNMK,8083,LC,A,59166,,4
5,1,9.197999954223633,test,1,z,20802.000045776367,Tue Dec 09 2025 18:30:12 GMT-0600 (Central Standard Time),64292.299999952316,I,z,1144,1144,,5,yes,1,1161.5999999642372,63130.69999998808,CLJ,CLJ,8083,LC,A,60750,,5
6,1,11.131999969482422,test,1,m,18868.000030517578,Tue Dec 09 2025 18:30:12 GMT-0600 (Central Standard Time),66225.39999997616,I,m,1922,1922,,6,no,1,1929.1000000238419,64296.299999952316,JGDMNSVPW,JGZMNSVPW,8083,LC,A,61916,,6
7,1,15.963000059127808,test,1,z,14036.999940872192,Tue Dec 09 2025 18:30:12 GMT-0600 (Central Standard Time),71056.59999996424,I,z,4813,4813,,7,yes,1,4827.199999988079,66229.39999997616,FPTVHKCBJ,FPTVHKCBJ,8083,LC,A,63849,,7
8,1,18.292999982833862,test,1,m,11707.000017166138,Tue Dec 09 2025 18:30:12 GMT-0600 (Central Standard Time),73387.39999997616,I,m,2319,2319,,8,no,1,2327.699999988079,71059.69999998808,XRPZBS,ZRPBDH,8083,LC,A,68679,,8
8,1,19.795000076293945,test,0,m,10204.999923706055,Tue Dec 09 2025 18:30:12 GMT-0600 (Central Standard Time),74888.5,I,z,1485,1485,,9,no,1,1498.5,73390.0,ZSQ,ZSP,8083,LC,A,71009,,9
9,1,23.176000118255615,test,1,z,6823.999881744385,Tue Dec 09 2025 18:30:12 GMT-0600 (Central Standard Time),78269.5,I,z,3374,3374,,10,yes,1,3377.600000023842,74891.89999997616,MPZRXL,MPZRXL,8083,LC,A,72511,,10
10,1,24.344000101089478,test,1,m,5655.9998989105225,Tue Dec 09 2025 18:30:12 GMT-0600 (Central Standard Time),79437.59999996424,I,m,1155,1155,,11,no,1,1165.800000011921,78271.79999995232,KJH,KRH,8083,LC,A,75891,,11
10,1,30.008000135421753,test,0,z,-8.00013542175293,Tue Dec 09 2025 18:30:12 GMT-0600 (Central Standard Time),85102.29999995232,I,None,5661,5661,,12,yes,1,5661.699999988079,79440.59999996424,SMNHVTFCB,SMNHVTFCB,8083,LC,A,77060,,12
1,2,3.617000102996826,test,1,z,26382.999897003174,Tue Dec 09 2025 18:30:12 GMT-0600 (Central Standard Time),91034.0,I,z,3599,,3599.0,1,yes,1,11593.400000035763,79440.59999996424,PRDBZTYFN,PRDBZTYFN,8083,LC,A,,85039.0,1
2,2,5.582000017166138,test,1,m,24417.999982833862,Tue Dec 09 2025 18:30:12 GMT-0600 (Central Standard Time),92999.0,I,m,1949,,1949.0,2,no,1,13558.400000035763,79440.59999996424,NCWJDZ,NCMJDZ,8083,LC,A,,88656.0,2
3,2,7.1650002002716064,test,1,m,22834.999799728394,Tue Dec 09 2025 18:30:12 GMT-0600 (Central Standard Time),94581.79999995232,I,m,1569,,1569.0,3,no,1,15141.199999988079,79440.59999996424,KHW,KBW,8083,LC,A,,90621.0,3
4,2,9.832000017166138,test,1,m,20167.999982833862,Tue Dec 09 2025 18:30:12 GMT-0600 (Central Standard Time),97248.69999998808,I,m,2649,,2649.0,4,no,1,17808.100000023842,79440.59999996424,ZRBGMF,ZRBCMF,8083,LC,A,,92205.0,4
5,2,11.147000074386597,test,1,m,18852.999925613403,Tue Dec 09 2025 18:30:12 GMT-0600 (Central Standard Time),98563.89999997616,I,m,1303,,1303.0,5,no,1,19123.30000001192,79440.59999996424,BTH,BYH,8083,LC,A,,94871.0,5
6,2,15.263000011444092,test,1,z,14736.999988555908,Tue Dec 09 2025 18:30:12 GMT-0600 (Central Standard Time),102679.5,I,z,4100,,4100.0,6,yes,1,23238.900000035763,79440.59999996424,XWKQRYCNZ,XWKQRYCNZ,8083,LC,A,,96186.0,6
7,2,17.746000051498413,test,1,z,12253.999948501587,Tue Dec 09 2025 18:30:12 GMT-0600 (Central Standard Time),105162.89999997616,I,z,2472,,2472.0,7,yes,1,25722.30000001192,79440.59999996424,HNPDLK,HNPDLK,8083,LC,A,,100302.0,7
8,2,20.41100001335144,test,1,m,9588.99998664856,Tue Dec 09 2025 18:30:12 GMT-0600 (Central Standard Time),107827.69999998808,I,m,2651,,2651.0,8,no,1,28387.100000023842,79440.59999996424,WMQTRSGLZ,WMQTRZGLZ,8083,LC,A,,102786.0,8
9,2,21.49400019645691,test,1,z,8505.99980354309,Tue Dec 09 2025 18:30:12 GMT-0600 (Central Standard Time),108911.19999998808,I,z,1076,,1076.0,9,yes,1,29470.600000023842,79440.59999996424,JPN,JPN,8083,LC,A,,105450.0,9
10,2,23.044000148773193,test,1,m,6955.999851226807,Tue Dec 09 2025 18:30:12 GMT-0600 (Central Standard Time),110460.59999996424,I,m,1544,,1544.0,10,no,1,31020.0,79440.59999996424,QLXSVT,QLNSVT,8083,LC,A,,106534.0,10
10,2,28.076000213623047,test,0,z,1923.9997863769531,Tue Dec 09 2025 18:30:12 GMT-0600 (Central Standard Time),115492.69999998808,I,m,5019,,5019.0,11,yes,1,36052.10000002384,79440.59999996424,YXHKZVFPB,YXHKZVFPD,8083,LC,A,,108083.0,11
11,2,29.475000143051147,test,1,z,524.9998569488525,Tue Dec 09 2025 18:30:12 GMT-0600 (Central Standard Time),116892.0,I,z,1386,,1386.0,12,yes,1,37451.40000003576,79440.59999996424,RJZ,RJZ,8083,LC,A,,113116.0,12
11,2,30.008000135421753,test,0,z,-8.00013542175293,Tue Dec 09 2025 18:30:12 GMT-0600 (Central Standard Time),117424.79999995232,I,None,530,,530.0,13,yes,1,37984.19999998808,79440.59999996424,CLNPZD,CLNPZD,8083,LC,A,,114514.0,13
