Number,acc_sum,block,block_c,block_cond,con_img,correct,correct_response,datetime,endtime,jitter,project,response,response_time,row_sel,session_number,start_end,starttime,subject_id,task,task_vers,trial
4,1,prac,1,A,circle.png,1,z,Fri May 16 2025 14:26:41 GMT-0500 (Central Daylight Time),64133.5,1400,O,z,930,4,1,3094.2999999998137,61039.200000000186,7138,NTS,A,1
8,2,prac,1,A,circle.png,1,m,Fri May 16 2025 14:26:41 GMT-0500 (Central Daylight Time),67197.79999999981,1600,O,m,670,7,1,3060.0,64137.799999999814,7138,NTS,A,2
3,3,prac,1,A,circle.png,1,z,Fri May 16 2025 14:26:41 GMT-0500 (Central Daylight Time),69746.29999999981,1200,O,z,557,3,1,2540.899999999907,67205.3999999999,7138,NTS,A,3
6,4,prac,1,A,circle.png,1,m,Fri May 16 2025 14:26:41 GMT-0500 (Central Daylight Time),73361.79999999981,1900,O,m,916,5,1,3609.2999999998137,69752.5,7138,NTS,A,4
9,5,prac,1,A,circle.png,1,m,Fri May 16 2025 14:26:41 GMT-0500 (Central Daylight Time),76295.29999999981,1500,O,m,653,8,1,2926.0,73369.29999999981,7138,NTS,A,5
7,6,prac,1,A,circle.png,1,m,Fri May 16 2025 14:26:41 GMT-0500 (Central Daylight Time),79410.1000000001,1700,O,m,616,6,1,3108.7000000001863,76301.3999999999,7138,NTS,A,6
9,7,prac,1,A,circle.png,1,m,Fri May 16 2025 14:26:41 GMT-0500 (Central Daylight Time),82326.79999999981,1500,O,m,634,8,1,2911.0,79415.79999999981,7138,NTS,A,7
8,8,prac,1,A,circle.png,1,m,Fri May 16 2025 14:26:41 GMT-0500 (Central Daylight Time),85309.70000000019,1600,O,m,615,7,1,2974.5,82335.20000000019,7138,NTS,A,8
3,9,prac,1,A,circle.png,1,z,Fri May 16 2025 14:26:41 GMT-0500 (Central Daylight Time),88041.70000000019,1200,O,z,761,3,1,2724.3000000002794,85317.3999999999,7138,NTS,A,9
2,10,prac,1,A,circle.png,1,z,Fri May 16 2025 14:26:41 GMT-0500 (Central Daylight Time),91521.3999999999,2000,O,z,699,2,1,3471.600000000093,88049.79999999981,7138,NTS,A,10
7,11,prac,1,A,circle.png,1,m,Fri May 16 2025 14:26:41 GMT-0500 (Central Daylight Time),94553.70000000019,1700,O,m,549,6,1,3023.5,91530.20000000019,7138,NTS,A,11
1,12,prac,1,A,circle.png,1,z,Fri May 16 2025 14:26:41 GMT-0500 (Central Daylight Time),97153.70000000019,1000,O,z,815,1,1,2593.9000000003725,94559.79999999981,7138,NTS,A,12
1,1,prac,1,B,triangle.png,1,z,Fri May 16 2025 14:26:41 GMT-0500 (Central Daylight Time),136775.8999999999,1900,O,z,653,1,1,3345.2999999998137,133430.6000000001,7138,NTS,A,1
4,2,prac,1,B,triangle.png,1,m,Fri May 16 2025 14:26:41 GMT-0500 (Central Daylight Time),140073.5,1500,O,m,1001,4,1,3290.7000000001863,136782.7999999998,7138,NTS,A,2
7,3,prac,1,B,triangle.png,1,z,Fri May 16 2025 14:26:41 GMT-0500 (Central Daylight Time),143605.7000000002,2000,O,z,746,6,1,3525.7000000001863,140080.0,7138,NTS,A,3
6,4,prac,1,B,triangle.png,1,m,Fri May 16 2025 14:26:41 GMT-0500 (Central Daylight Time),146756.0,1000,O,m,1365,5,1,3141.100000000093,143614.8999999999,7138,NTS,A,4
2,5,prac,1,B,triangle.png,1,m,Fri May 16 2025 14:26:41 GMT-0500 (Central Daylight Time),150171.2999999998,1700,O,m,924,2,1,3407.1999999997206,146764.1000000001,7138,NTS,A,5
9,6,prac,1,B,triangle.png,1,z,Fri May 16 2025 14:26:41 GMT-0500 (Central Daylight Time),153185.7000000002,1400,O,z,824,8,1,3006.3000000002794,150179.3999999999,7138,NTS,A,6
1,7,prac,1,B,triangle.png,1,z,Fri May 16 2025 14:26:41 GMT-0500 (Central Daylight Time),156518.5,1900,O,z,636,1,1,3324.2000000001863,153194.2999999998,7138,NTS,A,7
8,8,prac,1,B,triangle.png,1,m,Fri May 16 2025 14:26:41 GMT-0500 (Central Daylight Time),159600.8999999999,1200,O,m,1093,7,1,3074.5,156526.3999999999,7138,NTS,A,8
3,9,prac,1,B,triangle.png,1,z,Fri May 16 2025 14:26:41 GMT-0500 (Central Daylight Time),162567.7000000002,1600,O,z,579,3,1,2959.600000000093,159608.1000000001,7138,NTS,A,9
3,10,prac,1,B,triangle.png,1,z,Fri May 16 2025 14:26:41 GMT-0500 (Central Daylight Time),165716.0,1600,O,z,765,3,1,3141.100000000093,162574.8999999999,7138,NTS,A,10
4,11,prac,1,B,triangle.png,1,m,Fri May 16 2025 14:26:41 GMT-0500 (Central Daylight Time),168665.7999999998,1500,O,m,666,4,1,2941.399999999907,165724.3999999999,7138,NTS,A,11
6,12,prac,1,B,triangle.png,1,m,Fri May 16 2025 14:26:41 GMT-0500 (Central Daylight Time),171096.6000000001,1000,O,m,649,5,1,2423.7000000001863,168672.8999999999,7138,NTS,A,12
1,1,test,1,A,circle.png,1,z,Fri May 16 2025 14:26:41 GMT-0500 (Central Daylight Time),220516.3999999999,1000,O,z,1067,1,1,2081.6999999997206,218434.7000000002,7138,NTS,A,1
6,2,test,1,A,circle.png,1,m,Fri May 16 2025 14:26:41 GMT-0500 (Central Daylight Time),223463.1000000001,1900,O,m,1019,5,1,2940.8000000002794,220522.2999999998,7138,NTS,A,2
3,3,test,1,A,circle.png,1,z,Fri May 16 2025 14:26:41 GMT-0500 (Central Daylight Time),225297.0,1200,O,z,612,3,1,1829.6000000000931,223467.3999999999,7138,NTS,A,3
2,4,test,1,A,circle.png,1,z,Fri May 16 2025 14:26:41 GMT-0500 (Central Daylight Time),228529.1000000001,2000,O,z,1202,2,1,3226.399999999907,225302.7000000002,7138,NTS,A,4
6,5,test,1,A,circle.png,1,m,Fri May 16 2025 14:26:41 GMT-0500 (Central Daylight Time),231230.3999999999,1900,O,m,782,5,1,2695.100000000093,228535.2999999998,7138,NTS,A,5
8,6,test,1,A,circle.png,1,m,Fri May 16 2025 14:26:41 GMT-0500 (Central Daylight Time),233511.2000000002,1600,O,m,653,7,1,2274.7000000001863,231236.5,7138,NTS,A,6
9,7,test,1,A,circle.png,1,m,Fri May 16 2025 14:26:41 GMT-0500 (Central Daylight Time),235694.1000000001,1500,O,m,656,8,1,2179.3000000002794,233514.7999999998,7138,NTS,A,7
3,8,test,1,A,circle.png,1,z,Fri May 16 2025 14:26:41 GMT-0500 (Central Daylight Time),237444.7999999998,1200,O,z,525,3,1,1745.5999999996275,235699.2000000002,7138,NTS,A,8
4,9,test,1,A,circle.png,1,z,Fri May 16 2025 14:26:41 GMT-0500 (Central Daylight Time),240276.0,1400,O,z,1398,4,1,2823.2000000001863,237452.7999999998,7138,NTS,A,9
3,10,test,1,A,circle.png,1,z,Fri May 16 2025 14:26:41 GMT-0500 (Central Daylight Time),242059.0,1200,O,z,550,3,1,1776.7999999998137,240282.2000000002,7138,NTS,A,10
8,11,test,1,A,circle.png,1,m,Fri May 16 2025 14:26:41 GMT-0500 (Central Daylight Time),244126.5,1600,O,m,449,7,1,2059.899999999907,242066.6000000001,7138,NTS,A,11
7,12,test,1,A,circle.png,1,m,Fri May 16 2025 14:26:41 GMT-0500 (Central Daylight Time),246555.7999999998,1700,O,m,705,6,1,2423.1999999997206,244132.6000000001,7138,NTS,A,12
6,13,test,1,A,circle.png,1,m,Fri May 16 2025 14:26:41 GMT-0500 (Central Daylight Time),249172.7999999998,1900,O,m,690,5,1,2610.6999999997206,246562.1000000001,7138,NTS,A,13
7,14,test,1,A,circle.png,1,m,Fri May 16 2025 14:26:41 GMT-0500 (Central Daylight Time),251505.5,1700,O,m,609,6,1,2328.2000000001863,249177.2999999998,7138,NTS,A,14
4,15,test,1,A,circle.png,1,z,Fri May 16 2025 14:26:41 GMT-0500 (Central Daylight Time),253706.3999999999,1400,O,z,769,4,1,2191.600000000093,251514.7999999998,7138,NTS,A,15
1,16,test,1,A,circle.png,1,z,Fri May 16 2025 14:26:41 GMT-0500 (Central Daylight Time),255320.7999999998,1000,O,z,592,1,1,1607.7999999998137,253713.0,7138,NTS,A,16
7,17,test,1,A,circle.png,1,m,Fri May 16 2025 14:26:41 GMT-0500 (Central Daylight Time),257686.7000000002,1700,O,m,638,6,1,2358.2000000001863,255328.5,7138,NTS,A,17
9,18,test,1,A,circle.png,1,m,Fri May 16 2025 14:26:41 GMT-0500 (Central Daylight Time),259853.2000000002,1500,O,m,640,8,1,2159.5,257693.7000000002,7138,NTS,A,18
8,19,test,1,A,circle.png,1,m,Fri May 16 2025 14:26:41 GMT-0500 (Central Daylight Time),262001.2999999998,1600,O,m,517,7,1,2143.899999999907,259857.3999999999,7138,NTS,A,19
9,20,test,1,A,circle.png,1,m,Fri May 16 2025 14:26:41 GMT-0500 (Central Daylight Time),263968.3999999999,1500,O,m,445,8,1,1961.1999999997206,262007.2000000002,7138,NTS,A,20
4,21,test,1,A,circle.png,1,z,Fri May 16 2025 14:26:41 GMT-0500 (Central Daylight Time),266001.2000000002,1400,O,z,603,4,1,2028.4000000003725,263972.7999999998,7138,NTS,A,21
2,22,test,1,A,circle.png,1,z,Fri May 16 2025 14:26:41 GMT-0500 (Central Daylight Time),268632.1000000001,2000,O,z,601,2,1,2626.7000000001863,266005.3999999999,7138,NTS,A,22
8,23,test,1,A,circle.png,1,m,Fri May 16 2025 14:26:41 GMT-0500 (Central Daylight Time),270765.8999999999,1600,O,m,503,7,1,2130.899999999907,268635.0,7138,NTS,A,23
4,24,test,1,A,circle.png,1,z,Fri May 16 2025 14:26:41 GMT-0500 (Central Daylight Time),273080.8999999999,1400,O,z,893,4,1,2309.7999999998137,270771.1000000001,7138,NTS,A,24
6,1,test,1,B,triangle.png,1,m,Fri May 16 2025 14:26:41 GMT-0500 (Central Daylight Time),288343.7000000002,1000,O,m,1322,5,1,2348.600000000093,285995.1000000001,7138,NTS,A,1
1,2,test,1,B,triangle.png,1,z,Fri May 16 2025 14:26:41 GMT-0500 (Central Daylight Time),290393.8999999999,1400,O,z,620,9,1,2044.1999999997206,288349.7000000002,7138,NTS,A,2
3,3,test,1,B,triangle.png,1,z,Fri May 16 2025 14:26:41 GMT-0500 (Central Daylight Time),292741.5,1600,O,z,732,3,1,2343.7999999998137,290397.7000000002,7138,NTS,A,3
9,4,test,1,B,triangle.png,1,z,Fri May 16 2025 14:26:41 GMT-0500 (Central Daylight Time),295424.1000000001,1900,O,z,753,16,1,2679.5,292744.6000000001,7138,NTS,A,4
7,5,test,1,B,triangle.png,1,z,Fri May 16 2025 14:26:41 GMT-0500 (Central Daylight Time),298159.1000000001,2000,O,z,716,6,1,2730.100000000093,295429.0,7138,NTS,A,5
8,6,test,1,B,triangle.png,1,m,Fri May 16 2025 14:26:41 GMT-0500 (Central Daylight Time),300056.5,1200,O,m,672,7,1,1892.5,298164.0,7138,NTS,A,6
7,7,test,1,B,triangle.png,1,z,Fri May 16 2025 14:26:41 GMT-0500 (Central Daylight Time),302755.7999999998,2000,O,z,676,6,1,2694.7999999998137,300061.0,7138,NTS,A,7
3,8,test,1,B,triangle.png,1,z,Fri May 16 2025 14:26:41 GMT-0500 (Central Daylight Time),305406.5,2000,O,z,632,11,1,2646.100000000093,302760.3999999999,7138,NTS,A,8
1,9,test,1,B,triangle.png,1,z,Fri May 16 2025 14:26:41 GMT-0500 (Central Daylight Time),307387.0,1400,O,z,558,9,1,1975.6000000000931,305411.3999999999,7138,NTS,A,9
8,10,test,1,B,triangle.png,1,m,Fri May 16 2025 14:26:41 GMT-0500 (Central Daylight Time),309837.7000000002,1700,O,m,732,15,1,2445.100000000093,307392.6000000001,7138,NTS,A,10
3,11,test,1,B,triangle.png,1,z,Fri May 16 2025 14:26:41 GMT-0500 (Central Daylight Time),312519.2000000002,2000,O,z,654,11,1,2678.8000000002794,309840.3999999999,7138,NTS,A,11
2,12,test,1,B,triangle.png,1,m,Fri May 16 2025 14:26:41 GMT-0500 (Central Daylight Time),315635.2000000002,1700,O,m,1383,2,1,3110.600000000093,312524.6000000001,7138,NTS,A,12
9,13,test,1,B,triangle.png,1,z,Fri May 16 2025 14:26:41 GMT-0500 (Central Daylight Time),317618.2000000002,1400,O,z,559,8,1,1976.3000000002794,315641.8999999999,7138,NTS,A,13
8,14,test,1,B,triangle.png,1,m,Fri May 16 2025 14:26:41 GMT-0500 (Central Daylight Time),319968.0,1700,O,m,634,15,1,2346.100000000093,317621.8999999999,7138,NTS,A,14
7,15,test,1,B,triangle.png,1,z,Fri May 16 2025 14:26:41 GMT-0500 (Central Daylight Time),322932.7999999998,1600,O,z,1348,14,1,2960.5,319972.2999999998,7138,NTS,A,15
6,16,test,1,B,triangle.png,1,m,Fri May 16 2025 14:26:41 GMT-0500 (Central Daylight Time),325214.3999999999,1500,O,m,763,13,1,2276.2999999998137,322938.1000000001,7138,NTS,A,16
4,16,test,1,B,triangle.png,0,m,Fri May 16 2025 14:26:41 GMT-0500 (Central Daylight Time),326998.7999999998,1000,O,z,767,12,1,1778.0999999996275,325220.7000000002,7138,NTS,A,17
2,17,test,1,B,triangle.png,1,m,Fri May 16 2025 14:26:41 GMT-0500 (Central Daylight Time),329096.1000000001,1200,O,m,877,10,1,2090.399999999907,327005.7000000002,7138,NTS,A,18
4,18,test,1,B,triangle.png,1,m,Fri May 16 2025 14:26:41 GMT-0500 (Central Daylight Time),331146.2000000002,1500,O,m,525,4,1,2045.2000000001863,329101.0,7138,NTS,A,19
7,19,test,1,B,triangle.png,1,z,Fri May 16 2025 14:26:41 GMT-0500 (Central Daylight Time),333413.7999999998,1600,O,z,650,14,1,2262.899999999907,331150.8999999999,7138,NTS,A,20
2,20,test,1,B,triangle.png,1,m,Fri May 16 2025 14:26:41 GMT-0500 (Central Daylight Time),335879.1000000001,1200,O,m,1248,10,1,2460.899999999907,333418.2000000002,7138,NTS,A,21
1,21,test,1,B,triangle.png,1,z,Fri May 16 2025 14:26:41 GMT-0500 (Central Daylight Time),338411.5,1900,O,z,608,1,1,2527.2999999998137,335884.2000000002,7138,NTS,A,22
4,22,test,1,B,triangle.png,1,m,Fri May 16 2025 14:26:41 GMT-0500 (Central Daylight Time),340577.2999999998,1500,O,m,646,4,1,2161.6999999997206,338415.6000000001,7138,NTS,A,23
3,23,test,1,B,triangle.png,1,z,Fri May 16 2025 14:26:41 GMT-0500 (Central Daylight Time),343442.3999999999,1600,O,z,1242,3,1,2860.600000000093,340581.7999999998,7138,NTS,A,24
3,1,prac,1,C,triangle.png,1,z,Fri May 16 2025 14:26:41 GMT-0500 (Central Daylight Time),390377.6000000001,1500,O,z,1332,3,1,3627.899999999907,386749.7000000002,7138,NTS,A,1
2,1,prac,1,C,triangle.png,0,m,Fri May 16 2025 14:26:41 GMT-0500 (Central Daylight Time),394277.2000000002,1600,O,None,1516,2,1,3892.7000000001863,390384.5,7138,NTS,A,2
9,1,prac,1,C,circle.png,0,m,Fri May 16 2025 14:26:41 GMT-0500 (Central Daylight Time),398475.6000000001,1900,O,None,1514,8,1,4191.300000000279,394284.2999999998,7138,NTS,A,3
7,2,prac,1,C,triangle.png,1,z,Fri May 16 2025 14:26:41 GMT-0500 (Central Daylight Time),401741.0,1200,O,z,1280,6,1,3259.5,398481.5,7138,NTS,A,4
4,2,prac,1,C,circle.png,0,z,Fri May 16 2025 14:26:41 GMT-0500 (Central Daylight Time),404574.1000000001,1000,O,m,1054,4,1,2826.3000000002794,401747.7999999998,7138,NTS,A,5
2,2,prac,1,C,triangle.png,0,m,Fri May 16 2025 14:26:41 GMT-0500 (Central Daylight Time),408256.0,1600,O,z,1301,2,1,3675.7000000001863,404580.2999999998,7138,NTS,A,6
8,2,prac,1,C,triangle.png,0,m,Fri May 16 2025 14:26:41 GMT-0500 (Central Daylight Time),411954.8999999999,1400,O,None,1518,7,1,3691.899999999907,408263.0,7138,NTS,A,7
1,3,prac,1,C,circle.png,1,z,Fri May 16 2025 14:26:41 GMT-0500 (Central Daylight Time),415920.2999999998,1700,O,z,1479,1,1,3958.5999999996275,411961.7000000002,7138,NTS,A,8
8,4,prac,1,C,triangle.png,1,m,Fri May 16 2025 14:26:41 GMT-0500 (Central Daylight Time),419452.8999999999,1400,O,m,1354,7,1,3525.5,415927.3999999999,7138,NTS,A,9
6,4,prac,1,C,circle.png,0,m,Fri May 16 2025 14:26:41 GMT-0500 (Central Daylight Time),423735.0,2000,O,z,1488,5,1,4275.600000000093,419459.3999999999,7138,NTS,A,10
7,4,prac,1,C,triangle.png,0,z,Fri May 16 2025 14:26:41 GMT-0500 (Central Daylight Time),427233.0,1200,O,None,1516,6,1,3490.899999999907,423742.1000000001,7138,NTS,A,11
3,5,prac,1,C,triangle.png,1,z,Fri May 16 2025 14:26:41 GMT-0500 (Central Daylight Time),430632.2999999998,1500,O,z,1103,3,1,3393.5999999996275,427238.7000000002,7138,NTS,A,12
2,0,prac,2,C,triangle.png,0,m,Fri May 16 2025 14:26:41 GMT-0500 (Central Daylight Time),450192.6000000001,1600,O,None,1516,2,1,3897.3000000002794,446295.2999999998,7138,NTS,A,1
2,1,prac,2,C,triangle.png,1,m,Fri May 16 2025 14:26:41 GMT-0500 (Central Daylight Time),453790.2999999998,1600,O,m,1199,2,1,3590.5,450199.7999999998,7138,NTS,A,2
6,2,prac,2,C,circle.png,1,m,Fri May 16 2025 14:26:41 GMT-0500 (Central Daylight Time),457691.2000000002,2000,O,m,1117,5,1,3892.9000000003725,453798.2999999998,7138,NTS,A,3
7,2,prac,2,C,triangle.png,0,z,Fri May 16 2025 14:26:41 GMT-0500 (Central Daylight Time),460889.5,1200,O,m,1209,6,1,3192.0,457697.5,7138,NTS,A,4
4,3,prac,2,C,circle.png,1,z,Fri May 16 2025 14:26:41 GMT-0500 (Central Daylight Time),463972.0,1000,O,z,1290,4,1,3075.100000000093,460896.8999999999,7138,NTS,A,5
8,4,prac,2,C,triangle.png,1,m,Fri May 16 2025 14:26:41 GMT-0500 (Central Daylight Time),467052.7000000002,1400,O,m,888,7,1,3074.4000000003725,463978.2999999998,7138,NTS,A,6
1,5,prac,2,C,circle.png,1,z,Fri May 16 2025 14:26:41 GMT-0500 (Central Daylight Time),470935.2999999998,1700,O,z,1394,1,1,3875.7999999998137,467059.5,7138,NTS,A,7
4,6,prac,2,C,circle.png,1,z,Fri May 16 2025 14:26:41 GMT-0500 (Central Daylight Time),473700.8999999999,1000,O,z,971,4,1,2759.5,470941.3999999999,7138,NTS,A,8
1,7,prac,2,C,circle.png,1,z,Fri May 16 2025 14:26:41 GMT-0500 (Central Daylight Time),477068.7000000002,1700,O,z,891,1,1,3362.5,473706.2000000002,7138,NTS,A,9
3,8,prac,2,C,triangle.png,1,z,Fri May 16 2025 14:26:41 GMT-0500 (Central Daylight Time),480817.8999999999,1500,O,z,1459,3,1,3743.600000000093,477074.2999999998,7138,NTS,A,10
6,9,prac,2,C,circle.png,1,m,Fri May 16 2025 14:26:41 GMT-0500 (Central Daylight Time),484582.0,2000,O,m,981,5,1,3758.0,480824.0,7138,NTS,A,11
9,10,prac,2,C,circle.png,1,m,Fri May 16 2025 14:26:41 GMT-0500 (Central Daylight Time),488346.5,1900,O,m,1069,8,1,3756.2000000001863,484590.2999999998,7138,NTS,A,12
3,1,test,1,C,circle.png,1,z,Fri May 16 2025 14:26:41 GMT-0500 (Central Daylight Time),527866.6000000001,1600,O,z,1308,11,1,2925.5,524941.1000000001,7138,NTS,A,1
2,1,test,1,C,triangle.png,0,m,Fri May 16 2025 14:26:41 GMT-0500 (Central Daylight Time),531399.2999999998,2000,O,None,1514,2,1,3527.6999999997206,527871.6000000001,7138,NTS,A,2
9,1,test,1,C,triangle.png,0,z,Fri May 16 2025 14:26:41 GMT-0500 (Central Daylight Time),534333.1000000001,1400,O,None,1516,16,1,2929.5,531403.6000000001,7138,NTS,A,3
2,2,test,1,C,circle.png,1,z,Fri May 16 2025 14:26:41 GMT-0500 (Central Daylight Time),537182.0,1700,O,z,1117,18,1,2844.7000000001863,534337.2999999998,7138,NTS,A,4
7,2,test,1,C,triangle.png,0,z,Fri May 16 2025 14:26:41 GMT-0500 (Central Daylight Time),540412.8999999999,1700,O,None,1515,22,1,3227.1999999997206,537185.7000000002,7138,NTS,A,5
7,2,test,1,C,circle.png,0,m,Fri May 16 2025 14:26:41 GMT-0500 (Central Daylight Time),543946.7999999998,2000,O,None,1516,14,1,3530.5999999996275,540416.2000000002,7138,NTS,A,6
6,2,test,1,C,circle.png,0,m,Fri May 16 2025 14:26:41 GMT-0500 (Central Daylight Time),547378.3999999999,1900,O,None,1515,21,1,3426.399999999907,543952.0,7138,NTS,A,7
6,3,test,1,C,circle.png,1,m,Fri May 16 2025 14:26:41 GMT-0500 (Central Daylight Time),550228.5,1900,O,m,932,5,1,2846.2000000001863,547382.2999999998,7138,NTS,A,8
4,3,test,1,C,triangle.png,0,m,Fri May 16 2025 14:26:41 GMT-0500 (Central Daylight Time),553159.5,1500,O,z,1405,20,1,2927.7000000001863,550231.7999999998,7138,NTS,A,9
6,4,test,1,C,triangle.png,1,m,Fri May 16 2025 14:26:41 GMT-0500 (Central Daylight Time),555591.3999999999,1000,O,m,1411,13,1,2426.399999999907,553165.0,7138,NTS,A,10
2,4,test,1,C,circle.png,0,z,Fri May 16 2025 14:26:41 GMT-0500 (Central Daylight Time),557657.2000000002,1700,O,m,344,10,1,2062.4000000003725,555594.7999999998,7138,NTS,A,11
9,4,test,1,C,circle.png,0,m,Fri May 16 2025 14:26:41 GMT-0500 (Central Daylight Time),559523.1000000001,1500,O,z,341,8,1,1862.6000000000931,557660.5,7138,NTS,A,12
1,4,test,1,C,triangle.png,0,z,Fri May 16 2025 14:26:41 GMT-0500 (Central Daylight Time),561757.1000000001,1900,O,m,299,17,1,2230.600000000093,559526.5,7138,NTS,A,13
7,4,test,1,C,triangle.png,0,z,Fri May 16 2025 14:26:41 GMT-0500 (Central Daylight Time),564989.7999999998,1700,O,None,1517,6,1,3228.2999999998137,561761.5,7138,NTS,A,14
4,4,test,1,C,circle.png,0,z,Fri May 16 2025 14:26:41 GMT-0500 (Central Daylight Time),566987.6000000001,1400,O,m,572,4,1,1991.0,564996.6000000001,7138,NTS,A,15
8,4,test,1,C,triangle.png,0,m,Fri May 16 2025 14:26:41 GMT-0500 (Central Daylight Time),568971.2000000002,1600,O,z,349,23,1,1979.3000000002794,566991.8999999999,7138,NTS,A,16
1,4,test,1,C,circle.png,0,z,Fri May 16 2025 14:26:41 GMT-0500 (Central Daylight Time),570439.0,1000,O,m,449,1,1,1463.2000000001863,568975.7999999998,7138,NTS,A,17
3,4,test,1,C,circle.png,0,z,Fri May 16 2025 14:26:41 GMT-0500 (Central Daylight Time),572553.2000000002,1600,O,m,486,19,1,2108.7000000001863,570444.5,7138,NTS,A,18
8,4,test,1,C,circle.png,0,m,Fri May 16 2025 14:26:41 GMT-0500 (Central Daylight Time),575285.3999999999,1200,O,None,1515,15,1,2728.100000000093,572557.2999999998,7138,NTS,A,19
4,4,test,1,C,triangle.png,0,m,Fri May 16 2025 14:26:41 GMT-0500 (Central Daylight Time),578318.1000000001,1500,O,None,1515,12,1,3025.8000000002794,575292.2999999998,7138,NTS,A,20
3,4,test,1,C,triangle.png,0,z,Fri May 16 2025 14:26:41 GMT-0500 (Central Daylight Time),581050.2999999998,1200,O,None,1513,3,1,2727.0,578323.2999999998,7138,NTS,A,21
9,5,test,1,C,circle.png,1,m,Fri May 16 2025 14:26:41 GMT-0500 (Central Daylight Time),583334.0,1500,O,m,767,24,1,2277.7999999998137,581056.2000000002,7138,NTS,A,22
1,6,test,1,C,triangle.png,1,z,Fri May 16 2025 14:26:41 GMT-0500 (Central Daylight Time),586648.8999999999,1900,O,z,1393,9,1,3310.399999999907,583338.5,7138,NTS,A,23
8,7,test,1,C,triangle.png,1,m,Fri May 16 2025 14:26:41 GMT-0500 (Central Daylight Time),589364.2000000002,1600,O,m,1091,7,1,2710.5,586653.7000000002,7138,NTS,A,24
8,0,test,2,C,circle.png,0,m,Fri May 16 2025 14:26:41 GMT-0500 (Central Daylight Time),605427.2000000002,1200,O,None,1516,23,1,2724.600000000093,602702.6000000001,7138,NTS,A,1
4,0,test,2,C,triangle.png,0,m,Fri May 16 2025 14:26:41 GMT-0500 (Central Daylight Time),608458.3999999999,1500,O,None,1515,12,1,3024.7999999998137,605433.6000000001,7138,NTS,A,2
3,0,test,2,C,circle.png,0,z,Fri May 16 2025 14:26:41 GMT-0500 (Central Daylight Time),611576.8999999999,1600,O,None,1501,11,1,3111.899999999907,608465.0,7138,NTS,A,3
6,1,test,2,C,triangle.png,1,m,Fri May 16 2025 14:26:41 GMT-0500 (Central Daylight Time),613606.1000000001,1000,O,m,1013,21,1,2021.3000000002794,611584.7999999998,7138,NTS,A,4
1,2,test,2,C,triangle.png,1,z,Fri May 16 2025 14:26:41 GMT-0500 (Central Daylight Time),616473.1000000001,1900,O,z,936,9,1,2861.899999999907,613611.2000000002,7138,NTS,A,5
6,3,test,2,C,triangle.png,1,m,Fri May 16 2025 14:26:41 GMT-0500 (Central Daylight Time),618272.8999999999,1000,O,m,770,13,1,1792.2999999998137,616480.6000000001,7138,NTS,A,6
1,4,test,2,C,circle.png,1,z,Fri May 16 2025 14:26:41 GMT-0500 (Central Daylight Time),620454.8999999999,1000,O,z,1162,1,1,2177.0,618277.8999999999,7138,NTS,A,7
9,5,test,2,C,circle.png,1,m,Fri May 16 2025 14:26:41 GMT-0500 (Central Daylight Time),622870.6000000001,1500,O,m,888,8,1,2406.899999999907,620463.7000000002,7138,NTS,A,8
2,6,test,2,C,circle.png,1,z,Fri May 16 2025 14:26:41 GMT-0500 (Central Daylight Time),625620.0,1700,O,z,1017,18,1,2743.7999999998137,622876.2000000002,7138,NTS,A,9
8,7,test,2,C,triangle.png,1,m,Fri May 16 2025 14:26:41 GMT-0500 (Central Daylight Time),628418.7999999998,1600,O,m,1175,7,1,2792.5999999996275,625626.2000000002,7138,NTS,A,10
7,7,test,2,C,circle.png,0,m,Fri May 16 2025 14:26:41 GMT-0500 (Central Daylight Time),631833.7000000002,2000,O,z,1393,14,1,3411.3000000002794,628422.3999999999,7138,NTS,A,11
7,7,test,2,C,circle.png,0,m,Fri May 16 2025 14:26:41 GMT-0500 (Central Daylight Time),635366.1000000001,2000,O,None,1515,22,1,3527.5,631838.6000000001,7138,NTS,A,12
9,7,test,2,C,triangle.png,0,z,Fri May 16 2025 14:26:41 GMT-0500 (Central Daylight Time),638299.2000000002,1400,O,None,1515,24,1,2927.2000000001863,635372.0,7138,NTS,A,13
4,7,test,2,C,triangle.png,0,m,Fri May 16 2025 14:26:41 GMT-0500 (Central Daylight Time),641331.6000000001,1500,O,None,1517,20,1,3025.899999999907,638305.7000000002,7138,NTS,A,14
2,8,test,2,C,circle.png,1,z,Fri May 16 2025 14:26:41 GMT-0500 (Central Daylight Time),644529.5,1700,O,z,1468,10,1,3191.7000000001863,641337.7999999998,7138,NTS,A,15
2,9,test,2,C,triangle.png,1,m,Fri May 16 2025 14:26:41 GMT-0500 (Central Daylight Time),647814.3999999999,2000,O,m,1269,2,1,3280.7999999998137,644533.6000000001,7138,NTS,A,16
1,10,test,2,C,triangle.png,1,z,Fri May 16 2025 14:26:41 GMT-0500 (Central Daylight Time),650614.1000000001,1900,O,z,884,17,1,2794.899999999907,647819.2000000002,7138,NTS,A,17
8,11,test,2,C,circle.png,1,m,Fri May 16 2025 14:26:41 GMT-0500 (Central Daylight Time),653061.7000000002,1200,O,m,1232,15,1,2442.9000000003725,650618.7999999998,7138,NTS,A,18
7,12,test,2,C,triangle.png,1,z,Fri May 16 2025 14:26:41 GMT-0500 (Central Daylight Time),655994.1000000001,1700,O,z,1212,6,1,2927.8000000002794,653066.2999999998,7138,NTS,A,19
3,13,test,2,C,circle.png,1,z,Fri May 16 2025 14:26:41 GMT-0500 (Central Daylight Time),659074.7999999998,1600,O,z,1450,19,1,3075.899999999907,655998.8999999999,7138,NTS,A,20
6,13,test,2,C,circle.png,0,m,Fri May 16 2025 14:26:41 GMT-0500 (Central Daylight Time),662507.7999999998,1900,O,None,1515,5,1,3426.2999999998137,659081.5,7138,NTS,A,21
9,14,test,2,C,triangle.png,1,z,Fri May 16 2025 14:26:41 GMT-0500 (Central Daylight Time),665307.1000000001,1400,O,z,1368,16,1,2792.600000000093,662514.5,7138,NTS,A,22
3,15,test,2,C,triangle.png,1,z,Fri May 16 2025 14:26:41 GMT-0500 (Central Daylight Time),667488.7999999998,1200,O,z,960,3,1,2177.1999999997206,665311.6000000001,7138,NTS,A,23
4,16,test,2,C,circle.png,1,z,Fri May 16 2025 14:26:41 GMT-0500 (Central Daylight Time),670155.0,1400,O,z,1243,4,1,2661.899999999907,667493.1000000001,7138,NTS,A,24
2,0,test,3,C,triangle.png,0,m,Fri May 16 2025 14:26:41 GMT-0500 (Central Daylight Time),681168.8999999999,2000,O,z,1319,18,1,3345.399999999907,677823.5,7138,NTS,A,1
9,0,test,3,C,circle.png,0,m,Fri May 16 2025 14:26:41 GMT-0500 (Central Daylight Time),684202.3999999999,1500,O,None,1515,8,1,3028.100000000093,681174.2999999998,7138,NTS,A,2
6,1,test,3,C,circle.png,1,m,Fri May 16 2025 14:26:41 GMT-0500 (Central Daylight Time),687249.2999999998,1900,O,m,1127,5,1,3042.1999999997206,684207.1000000001,7138,NTS,A,3
6,1,test,3,C,triangle.png,0,m,Fri May 16 2025 14:26:41 GMT-0500 (Central Daylight Time),689782.2999999998,1000,O,None,1516,13,1,2529.0,687253.2999999998,7138,NTS,A,4
8,2,test,3,C,triangle.png,1,m,Fri May 16 2025 14:26:41 GMT-0500 (Central Daylight Time),692480.7000000002,1600,O,m,1068,7,1,2692.100000000093,689788.6000000001,7138,NTS,A,5
4,3,test,3,C,circle.png,1,z,Fri May 16 2025 14:26:41 GMT-0500 (Central Daylight Time),695031.7000000002,1400,O,z,1132,4,1,2544.3000000002794,692487.3999999999,7138,NTS,A,6
3,4,test,3,C,triangle.png,1,z,Fri May 16 2025 14:26:41 GMT-0500 (Central Daylight Time),697529.3999999999,1200,O,z,1277,19,1,2491.399999999907,695038.0,7138,NTS,A,7
4,4,test,3,C,circle.png,0,z,Fri May 16 2025 14:26:41 GMT-0500 (Central Daylight Time),700461.2999999998,1400,O,None,1516,20,1,2927.2999999998137,697534.0,7138,NTS,A,8
9,4,test,3,C,triangle.png,0,z,Fri May 16 2025 14:26:41 GMT-0500 (Central Daylight Time),703380.8999999999,1400,O,None,1501,16,1,2913.5,700467.3999999999,7138,NTS,A,9
6,4,test,3,C,circle.png,0,m,Fri May 16 2025 14:26:41 GMT-0500 (Central Daylight Time),706325.3999999999,1900,O,z,1020,21,1,2940.1999999997206,703385.2000000002,7138,NTS,A,10
4,4,test,3,C,triangle.png,0,m,Fri May 16 2025 14:26:41 GMT-0500 (Central Daylight Time),709077.2000000002,1500,O,z,1232,12,1,2749.100000000093,706328.1000000001,7138,NTS,A,11
7,4,test,3,C,triangle.png,0,z,Fri May 16 2025 14:26:41 GMT-0500 (Central Daylight Time),712308.5,1700,O,None,1515,6,1,3226.0,709082.5,7138,NTS,A,12
3,5,test,3,C,triangle.png,1,z,Fri May 16 2025 14:26:41 GMT-0500 (Central Daylight Time),714356.7999999998,1200,O,z,831,3,1,2043.0999999996275,712313.7000000002,7138,NTS,A,13
8,6,test,3,C,triangle.png,1,m,Fri May 16 2025 14:26:41 GMT-0500 (Central Daylight Time),716707.2000000002,1600,O,m,726,23,1,2347.7000000001863,714359.5,7138,NTS,A,14
1,7,test,3,C,triangle.png,1,z,Fri May 16 2025 14:26:41 GMT-0500 (Central Daylight Time),719424.0,1900,O,z,796,9,1,2712.2000000001863,716711.7999999998,7138,NTS,A,15
9,8,test,3,C,circle.png,1,m,Fri May 16 2025 14:26:41 GMT-0500 (Central Daylight Time),722024.0,1500,O,m,1084,24,1,2594.600000000093,719429.3999999999,7138,NTS,A,16
7,9,test,3,C,circle.png,1,m,Fri May 16 2025 14:26:41 GMT-0500 (Central Daylight Time),725054.8999999999,2000,O,m,1004,14,1,3026.5,722028.3999999999,7138,NTS,A,17
2,10,test,3,C,circle.png,1,z,Fri May 16 2025 14:26:41 GMT-0500 (Central Daylight Time),727587.8999999999,1700,O,z,809,10,1,2527.1999999997206,725060.7000000002,7138,NTS,A,18
3,11,test,3,C,circle.png,1,z,Fri May 16 2025 14:26:41 GMT-0500 (Central Daylight Time),729954.2999999998,1600,O,z,737,11,1,2359.6999999997206,727594.6000000001,7138,NTS,A,19
1,12,test,3,C,circle.png,1,z,Fri May 16 2025 14:26:41 GMT-0500 (Central Daylight Time),731619.6000000001,1000,O,z,640,1,1,1657.8000000002794,729961.7999999998,7138,NTS,A,20
7,13,test,3,C,triangle.png,1,z,Fri May 16 2025 14:26:41 GMT-0500 (Central Daylight Time),734767.5,1700,O,z,1420,22,1,3143.7000000001863,731623.7999999998,7138,NTS,A,21
2,14,test,3,C,triangle.png,1,m,Fri May 16 2025 14:26:41 GMT-0500 (Central Daylight Time),737617.5,2000,O,m,820,2,1,2844.7000000001863,734772.7999999998,7138,NTS,A,22
1,15,test,3,C,circle.png,1,z,Fri May 16 2025 14:26:41 GMT-0500 (Central Daylight Time),739766.1000000001,1000,O,z,1123,17,1,2143.8000000002794,737622.2999999998,7138,NTS,A,23
8,16,test,3,C,circle.png,1,m,Fri May 16 2025 14:26:41 GMT-0500 (Central Daylight Time),742349.5,1200,O,m,1349,15,1,2579.7999999998137,739769.7000000002,7138,NTS,A,24
7,0,test,4,C,circle.png,0,m,Fri May 16 2025 14:26:41 GMT-0500 (Central Daylight Time),751296.1000000001,2000,O,None,1515,14,1,3527.2000000001863,747768.8999999999,7138,NTS,A,1
4,1,test,4,C,circle.png,1,z,Fri May 16 2025 14:26:41 GMT-0500 (Central Daylight Time),753845.6000000001,1400,O,z,1124,20,1,2543.100000000093,751302.5,7138,NTS,A,2
3,2,test,4,C,triangle.png,1,z,Fri May 16 2025 14:26:41 GMT-0500 (Central Daylight Time),756328.1000000001,1200,O,z,1254,3,1,2477.8000000002794,753850.2999999998,7138,NTS,A,3
8,3,test,4,C,circle.png,1,m,Fri May 16 2025 14:26:41 GMT-0500 (Central Daylight Time),758111.1000000001,1200,O,m,549,15,1,1779.3999999999069,756331.7000000002,7138,NTS,A,4
9,3,test,4,C,triangle.png,0,z,Fri May 16 2025 14:26:41 GMT-0500 (Central Daylight Time),760575.1000000001,1400,O,m,1044,16,1,2458.7000000001863,758116.3999999999,7138,NTS,A,5
1,4,test,4,C,circle.png,1,z,Fri May 16 2025 14:26:41 GMT-0500 (Central Daylight Time),762559.2000000002,1000,O,z,954,1,1,1979.4000000003725,760579.7999999998,7138,NTS,A,6
1,5,test,4,C,triangle.png,1,z,Fri May 16 2025 14:26:41 GMT-0500 (Central Daylight Time),765775.8999999999,1900,O,z,1300,9,1,3209.899999999907,762566.0,7138,NTS,A,7
1,6,test,4,C,circle.png,1,z,Fri May 16 2025 14:26:41 GMT-0500 (Central Daylight Time),767890.7000000002,1000,O,z,1092,17,1,2110.600000000093,765780.1000000001,7138,NTS,A,8
3,6,test,4,C,triangle.png,0,z,Fri May 16 2025 14:26:41 GMT-0500 (Central Daylight Time),770623.2000000002,1200,O,None,1514,19,1,2728.9000000003725,767894.2999999998,7138,NTS,A,9
2,6,test,4,C,triangle.png,0,m,Fri May 16 2025 14:26:41 GMT-0500 (Central Daylight Time),774139.7999999998,2000,O,None,1501,18,1,3511.5999999996275,770628.2000000002,7138,NTS,A,10
2,7,test,4,C,triangle.png,1,m,Fri May 16 2025 14:26:41 GMT-0500 (Central Daylight Time),776988.3999999999,2000,O,m,824,2,1,2844.1999999997206,774144.2000000002,7138,NTS,A,11
6,8,test,4,C,triangle.png,1,m,Fri May 16 2025 14:26:41 GMT-0500 (Central Daylight Time),778904.2000000002,1000,O,m,894,13,1,1911.9000000003725,776992.2999999998,7138,NTS,A,12
6,9,test,4,C,circle.png,1,m,Fri May 16 2025 14:26:41 GMT-0500 (Central Daylight Time),782169.7999999998,1900,O,m,1346,21,1,3260.6999999997206,778909.1000000001,7138,NTS,A,13
4,9,test,4,C,triangle.png,0,m,Fri May 16 2025 14:26:41 GMT-0500 (Central Daylight Time),784552.0,1500,O,z,852,12,1,2378.0,782174.0,7138,NTS,A,14
6,9,test,4,C,circle.png,0,m,Fri May 16 2025 14:26:41 GMT-0500 (Central Daylight Time),787768.0,1900,O,z,1295,5,1,3211.899999999907,784556.1000000001,7138,NTS,A,15
9,10,test,4,C,circle.png,1,m,Fri May 16 2025 14:26:41 GMT-0500 (Central Daylight Time),790567.2999999998,1500,O,m,1272,8,1,2795.1999999997206,787772.1000000001,7138,NTS,A,16
2,11,test,4,C,circle.png,1,z,Fri May 16 2025 14:26:41 GMT-0500 (Central Daylight Time),793215.2000000002,1700,O,z,928,10,1,2643.600000000093,790571.6000000001,7138,NTS,A,17
3,12,test,4,C,circle.png,1,z,Fri May 16 2025 14:26:41 GMT-0500 (Central Daylight Time),796099.2000000002,1600,O,z,1251,11,1,2879.0,793220.2000000002,7138,NTS,A,18
8,13,test,4,C,triangle.png,1,m,Fri May 16 2025 14:26:41 GMT-0500 (Central Daylight Time),798897.0,1600,O,m,1176,23,1,2793.2999999998137,796103.7000000002,7138,NTS,A,19
7,14,test,4,C,triangle.png,1,z,Fri May 16 2025 14:26:41 GMT-0500 (Central Daylight Time),801930.7000000002,1700,O,z,1301,6,1,3027.8000000002794,798902.8999999999,7138,NTS,A,20
9,14,test,4,C,circle.png,0,m,Fri May 16 2025 14:26:41 GMT-0500 (Central Daylight Time),804961.6000000001,1500,O,None,1515,24,1,3025.899999999907,801935.7000000002,7138,NTS,A,21
8,15,test,4,C,triangle.png,1,m,Fri May 16 2025 14:26:41 GMT-0500 (Central Daylight Time),808010.7999999998,1600,O,m,1425,7,1,3043.1999999997206,804967.6000000001,7138,NTS,A,22
4,16,test,4,C,circle.png,1,z,Fri May 16 2025 14:26:41 GMT-0500 (Central Daylight Time),810678.1000000001,1400,O,z,1239,4,1,2663.0,808015.1000000001,7138,NTS,A,23
7,16,test,4,C,triangle.png,0,z,Fri May 16 2025 14:26:41 GMT-0500 (Central Daylight Time),813392.2999999998,1700,O,m,995,22,1,2710.0,810682.2999999998,7138,NTS,A,24
