block_c,block_dur,condition,countdown,datetime,endtime,list,multichar_response,project,response,response_time,session_number,start_end,starttime,subject_id,task,task_vers,trial
,,,,Mon Jun 09 2025 19:11:01 GMT-0500 (Central Daylight Time),,,,O,space,605,1,,,7170,WL,A,
prac,,0,,Mon Jun 09 2025 19:11:01 GMT-0500 (Central Daylight Time),,NA,b,O,b,5823,1,,,7170,WL,A,1.0
prac,,0,,Mon Jun 09 2025 19:11:01 GMT-0500 (Central Daylight Time),,NA,bo,O,o,261,1,,,7170,WL,A,1.0
prac,,0,,Mon Jun 09 2025 19:11:01 GMT-0500 (Central Daylight Time),,NA,boo,O,o,128,1,,,7170,WL,A,1.0
prac,,0,,Mon Jun 09 2025 19:11:01 GMT-0500 (Central Daylight Time),,NA,boos,O,s,201,1,,,7170,WL,A,1.0
prac,,0,,Mon Jun 09 2025 19:11:01 GMT-0500 (Central Daylight Time),,NA,boost,O,t,399,1,,,7170,WL,A,1.0
prac,,0,,Mon Jun 09 2025 19:11:01 GMT-0500 (Central Daylight Time),,NA,boostenter,O,enter,278,1,,,7170,WL,A,1.0
1,12.879999876022339,learn,47120.00012397766,Mon Jun 09 2025 19:11:01 GMT-0500 (Central Daylight Time),132204.10000014305,A,b,O,b,12840,1,12878.600000143051,119325.5,7170,WL,A,1.0
1,14.060999870300293,learn,45939.00012969971,Mon Jun 09 2025 19:11:01 GMT-0500 (Central Daylight Time),133385.20000004768,A,bo,O,o,1139,1,14059.700000047684,119325.5,7170,WL,A,1.0
1,14.812000036239624,learn,45187.999963760376,Mon Jun 09 2025 19:11:01 GMT-0500 (Central Daylight Time),134135.79999995232,A,boo,O,o,730,1,14810.299999952316,119325.5,7170,WL,A,1.0
1,15.194000005722046,learn,44805.999994277954,Mon Jun 09 2025 19:11:01 GMT-0500 (Central Daylight Time),134517.90000009537,A,book,O,k,345,1,15192.400000095367,119325.5,7170,WL,A,1.0
1,16.74399995803833,learn,43256.00004196167,Mon Jun 09 2025 19:11:01 GMT-0500 (Central Daylight Time),136067.40000009537,A,bookenter,O,enter,1531,1,16741.900000095367,119325.5,7170,WL,A,1.0
1,17.99399995803833,learn,42006.00004196167,Mon Jun 09 2025 19:11:01 GMT-0500 (Central Daylight Time),137317.79999995232,A,f,O,f,1240,1,1249.8999998569489,136067.90000009537,7170,WL,A,2.0
1,18.126999855041504,learn,41873.000144958496,Mon Jun 09 2025 19:11:01 GMT-0500 (Central Daylight Time),137450.40000009537,A,fl,O,l,83,1,1382.5,136067.90000009537,7170,WL,A,2.0
1,18.325999975204468,learn,41674.00002479553,Mon Jun 09 2025 19:11:01 GMT-0500 (Central Daylight Time),137650.10000014305,A,flo,O,o,184,1,1582.2000000476837,136067.90000009537,7170,WL,A,2.0
1,18.509999990463257,learn,41490.00000953674,Mon Jun 09 2025 19:11:01 GMT-0500 (Central Daylight Time),137833.40000009537,A,flow,O,w,159,1,1765.5,136067.90000009537,7170,WL,A,2.0
1,18.80999994277954,learn,41190.00005722046,Mon Jun 09 2025 19:11:01 GMT-0500 (Central Daylight Time),138133.90000009537,A,flowe,O,e,290,1,2066.0,136067.90000009537,7170,WL,A,2.0
1,19.026999950408936,learn,40973.000049591064,Mon Jun 09 2025 19:11:01 GMT-0500 (Central Daylight Time),138351.10000014305,A,flower,O,r,199,1,2283.2000000476837,136067.90000009537,7170,WL,A,2.0
1,19.575999975204468,learn,40424.00002479553,Mon Jun 09 2025 19:11:01 GMT-0500 (Central Daylight Time),138899.90000009537,A,flowerenter,O,enter,512,1,2832.0,136067.90000009537,7170,WL,A,2.0
1,20.22599983215332,learn,39774.00016784668,Mon Jun 09 2025 19:11:01 GMT-0500 (Central Daylight Time),139550.10000014305,A,t,O,t,627,1,649.9000000953674,138900.20000004768,7170,WL,A,3.0
1,20.292999982833862,learn,39707.00001716614,Mon Jun 09 2025 19:11:01 GMT-0500 (Central Daylight Time),139616.60000014305,A,tr,O,r,42,1,716.4000000953674,138900.20000004768,7170,WL,A,3.0
1,20.542999982833862,learn,39457.00001716614,Mon Jun 09 2025 19:11:01 GMT-0500 (Central Daylight Time),139867.20000004768,A,tra,O,a,226,1,967.0,138900.20000004768,7170,WL,A,3.0
1,20.677000045776367,learn,39322.99995422363,Mon Jun 09 2025 19:11:01 GMT-0500 (Central Daylight Time),140000.60000014305,A,trai,O,i,100,1,1100.4000000953674,138900.20000004768,7170,WL,A,3.0
1,20.90999984741211,learn,39090.00015258789,Mon Jun 09 2025 19:11:01 GMT-0500 (Central Daylight Time),140233.90000009537,A,train,O,n,187,1,1333.7000000476837,138900.20000004768,7170,WL,A,3.0
1,21.924999952316284,learn,38075.000047683716,Mon Jun 09 2025 19:11:01 GMT-0500 (Central Daylight Time),141249.20000004768,A,trainenter,O,enter,981,1,2349.0,138900.20000004768,7170,WL,A,3.0
1,22.491999864578247,learn,37508.00013542175,Mon Jun 09 2025 19:11:01 GMT-0500 (Central Daylight Time),141815.5,A,r,O,r,546,1,566.0,141249.5,7170,WL,A,4.0
1,22.657999992370605,learn,37342.000007629395,Mon Jun 09 2025 19:11:01 GMT-0500 (Central Daylight Time),141982.20000004768,A,ru,O,u,148,1,732.7000000476837,141249.5,7170,WL,A,4.0
1,22.907999992370605,learn,37092.000007629395,Mon Jun 09 2025 19:11:01 GMT-0500 (Central Daylight Time),142232.20000004768,A,rug,O,g,238,1,982.7000000476837,141249.5,7170,WL,A,4.0
1,23.557999849319458,learn,36442.00015068054,Mon Jun 09 2025 19:11:01 GMT-0500 (Central Daylight Time),142882.0,A,rugenter,O,enter,636,1,1632.5,141249.5,7170,WL,A,4.0
1,23.97499990463257,learn,36025.00009536743,Mon Jun 09 2025 19:11:01 GMT-0500 (Central Daylight Time),143298.40000009537,A,s,O,s,393,1,416.10000014305115,142882.29999995232,7170,WL,A,5.0
1,24.10800004005432,learn,35891.99995994568,Mon Jun 09 2025 19:11:01 GMT-0500 (Central Daylight Time),143431.70000004768,A,sa,O,a,112,1,549.4000000953674,142882.29999995232,7170,WL,A,5.0
1,24.89199995994568,learn,35108.00004005432,Mon Jun 09 2025 19:11:01 GMT-0500 (Central Daylight Time),144215.79999995232,A,sal,O,l,773,1,1333.5,142882.29999995232,7170,WL,A,5.0
1,25.073999881744385,learn,34926.000118255615,Mon Jun 09 2025 19:11:01 GMT-0500 (Central Daylight Time),144397.90000009537,A,salt,O,t,156,1,1515.6000001430511,142882.29999995232,7170,WL,A,5.0
1,25.840999841690063,learn,34159.00015830994,Mon Jun 09 2025 19:11:01 GMT-0500 (Central Daylight Time),145164.5,A,saltenter,O,enter,758,1,2282.2000000476837,142882.29999995232,7170,WL,A,5.0
1,26.87399983406067,learn,33126.00016593933,Mon Jun 09 2025 19:11:01 GMT-0500 (Central Daylight Time),146197.5,A,f,O,f,1015,1,1032.7999999523163,145164.70000004768,7170,WL,A,6.0
1,26.973999977111816,learn,33026.00002288818,Mon Jun 09 2025 19:11:01 GMT-0500 (Central Daylight Time),146297.60000014305,A,fl,O,l,84,1,1132.9000000953674,145164.70000004768,7170,WL,A,6.0
1,27.19000005722046,learn,32809.99994277954,Mon Jun 09 2025 19:11:01 GMT-0500 (Central Daylight Time),146514.0,A,flo,O,o,201,1,1349.2999999523163,145164.70000004768,7170,WL,A,6.0
1,27.340999841690063,learn,32659.000158309937,Mon Jun 09 2025 19:11:01 GMT-0500 (Central Daylight Time),146664.40000009537,A,flow,O,w,139,1,1499.7000000476837,145164.70000004768,7170,WL,A,6.0
1,27.740999937057495,learn,32259.000062942505,Mon Jun 09 2025 19:11:01 GMT-0500 (Central Daylight Time),147065.0,A,flowe,O,e,373,1,1900.2999999523163,145164.70000004768,7170,WL,A,6.0
1,27.924000024795532,learn,32075.999975204468,Mon Jun 09 2025 19:11:01 GMT-0500 (Central Daylight Time),147248.20000004768,A,flowee,O,e,153,1,2083.5,145164.70000004768,7170,WL,A,6.0
1,28.322999954223633,learn,31677.000045776367,Mon Jun 09 2025 19:11:01 GMT-0500 (Central Daylight Time),147647.20000004768,A,flowe,O,backspace,374,1,2482.5,145164.70000004768,7170,WL,A,6.0
1,28.723000049591064,learn,31276.999950408936,Mon Jun 09 2025 19:11:01 GMT-0500 (Central Daylight Time),148046.90000009537,A,flower,O,r,376,1,2882.2000000476837,145164.70000004768,7170,WL,A,6.0
1,29.822999954223633,learn,30177.000045776367,Mon Jun 09 2025 19:11:01 GMT-0500 (Central Daylight Time),149146.70000004768,A,flowerenter,O,enter,1084,1,3982.0,145164.70000004768,7170,WL,A,6.0
1,30.705999851226807,learn,29294.000148773193,Mon Jun 09 2025 19:11:01 GMT-0500 (Central Daylight Time),150030.10000014305,A,c,O,c,874,1,883.1000001430511,149147.0,7170,WL,A,7.0
1,30.85699987411499,learn,29143.00012588501,Mon Jun 09 2025 19:11:01 GMT-0500 (Central Daylight Time),150180.90000009537,A,ch,O,h,125,1,1033.9000000953674,149147.0,7170,WL,A,7.0
1,31.122999906539917,learn,28877.000093460083,Mon Jun 09 2025 19:11:01 GMT-0500 (Central Daylight Time),150447.20000004768,A,chi,O,i,231,1,1300.2000000476837,149147.0,7170,WL,A,7.0
1,31.554999828338623,learn,28445.000171661377,Mon Jun 09 2025 19:11:01 GMT-0500 (Central Daylight Time),150879.20000004768,A,chim,O,m,393,1,1732.2000000476837,149147.0,7170,WL,A,7.0
1,31.723000049591064,learn,28276.999950408936,Mon Jun 09 2025 19:11:01 GMT-0500 (Central Daylight Time),151047.0,A,chimm,O,m,157,1,1900.0,149147.0,7170,WL,A,7.0
1,32.28999996185303,learn,27710.000038146973,Mon Jun 09 2025 19:11:01 GMT-0500 (Central Daylight Time),151613.40000009537,A,chimmn,O,n,540,1,2466.4000000953674,149147.0,7170,WL,A,7.0
1,32.45599985122681,learn,27544.000148773193,Mon Jun 09 2025 19:11:01 GMT-0500 (Central Daylight Time),151780.29999995232,A,chimmne,O,e,125,1,2633.2999999523163,149147.0,7170,WL,A,7.0
1,32.55499982833862,learn,27445.000171661377,Mon Jun 09 2025 19:11:01 GMT-0500 (Central Daylight Time),151879.10000014305,A,chimmney,O,y,68,1,2732.100000143051,149147.0,7170,WL,A,7.0
1,33.473000049591064,learn,26526.999950408936,Mon Jun 09 2025 19:11:01 GMT-0500 (Central Daylight Time),152796.5,A,chimmne,O,backspace,886,1,3649.5,149147.0,7170,WL,A,7.0
1,33.68899989128113,learn,26311.000108718872,Mon Jun 09 2025 19:11:01 GMT-0500 (Central Daylight Time),153012.79999995232,A,chimmn,O,backspace,181,1,3865.7999999523163,149147.0,7170,WL,A,7.0
1,33.871999979019165,learn,26128.000020980835,Mon Jun 09 2025 19:11:01 GMT-0500 (Central Daylight Time),153195.90000009537,A,chimm,O,backspace,149,1,4048.9000000953674,149147.0,7170,WL,A,7.0
1,34.07200002670288,learn,25927.99997329712,Mon Jun 09 2025 19:11:01 GMT-0500 (Central Daylight Time),153396.10000014305,A,chim,O,backspace,157,1,4249.100000143051,149147.0,7170,WL,A,7.0
1,35.039000034332275,learn,24960.999965667725,Mon Jun 09 2025 19:11:01 GMT-0500 (Central Daylight Time),154362.5,A,chimn,O,n,938,1,5215.5,149147.0,7170,WL,A,7.0
1,35.15499997138977,learn,24845.00002861023,Mon Jun 09 2025 19:11:01 GMT-0500 (Central Daylight Time),154478.90000009537,A,chimne,O,e,95,1,5331.900000095367,149147.0,7170,WL,A,7.0
1,35.355000019073486,learn,24644.999980926514,Mon Jun 09 2025 19:11:01 GMT-0500 (Central Daylight Time),154678.90000009537,A,chimney,O,y,180,1,5531.900000095367,149147.0,7170,WL,A,7.0
1,36.53699994087219,learn,23463.000059127808,Mon Jun 09 2025 19:11:01 GMT-0500 (Central Daylight Time),155861.0,A,chimneyenter,O,enter,1155,1,6714.0,149147.0,7170,WL,A,7.0
1,38.65299987792969,learn,21347.000122070312,Mon Jun 09 2025 19:11:01 GMT-0500 (Central Daylight Time),157976.90000009537,A,r,O,r,2095,1,2115.600000143051,155861.29999995232,7170,WL,A,8.0
1,38.78600001335144,learn,21213.99998664856,Mon Jun 09 2025 19:11:01 GMT-0500 (Central Daylight Time),158110.10000014305,A,ru,O,u,121,1,2248.800000190735,155861.29999995232,7170,WL,A,8.0
1,38.919999837875366,learn,21080.000162124634,Mon Jun 09 2025 19:11:01 GMT-0500 (Central Daylight Time),158243.29999995232,A,rug,O,g,125,1,2382.0,155861.29999995232,7170,WL,A,8.0
1,39.28600001335144,learn,20713.99998664856,Mon Jun 09 2025 19:11:01 GMT-0500 (Central Daylight Time),158609.90000009537,A,rugenter,O,enter,344,1,2748.600000143051,155861.29999995232,7170,WL,A,8.0
1,43.18499994277954,learn,16815.00005722046,Mon Jun 09 2025 19:11:01 GMT-0500 (Central Daylight Time),162508.70000004768,A,a,O,a,3890,1,3898.5,158610.20000004768,7170,WL,A,9.0
1,43.46799993515015,learn,16532.000064849854,Mon Jun 09 2025 19:11:01 GMT-0500 (Central Daylight Time),162791.79999995232,A,ap,O,p,261,1,4181.599999904633,158610.20000004768,7170,WL,A,9.0
1,43.61800003051758,learn,16381.999969482422,Mon Jun 09 2025 19:11:01 GMT-0500 (Central Daylight Time),162941.79999995232,A,app,O,p,140,1,4331.599999904633,158610.20000004768,7170,WL,A,9.0
1,43.80200004577637,learn,16197.999954223633,Mon Jun 09 2025 19:11:01 GMT-0500 (Central Daylight Time),163125.20000004768,A,appl,O,l,174,1,4515.0,158610.20000004768,7170,WL,A,9.0
1,43.95199990272522,learn,16048.00009727478,Mon Jun 09 2025 19:11:01 GMT-0500 (Central Daylight Time),163275.5,A,apple,O,e,125,1,4665.299999952316,158610.20000004768,7170,WL,A,9.0
1,44.20099997520447,learn,15799.000024795532,Mon Jun 09 2025 19:11:01 GMT-0500 (Central Daylight Time),163524.90000009537,A,appleenter,O,enter,224,1,4914.700000047684,158610.20000004768,7170,WL,A,9.0
1,56.54900002479553,learn,3450.999975204468,Mon Jun 09 2025 19:11:01 GMT-0500 (Central Daylight Time),175871.20000004768,A,enter,O,enter,12327,1,12346.0,163525.20000004768,7170,WL,A,10.0
1,57.71499991416931,learn,2285.0000858306885,Mon Jun 09 2025 19:11:01 GMT-0500 (Central Daylight Time),177037.29999995232,A,enter,O,enter,1156,1,1165.7999999523163,175871.5,7170,WL,A,11.0
1,58.39800000190735,learn,1601.9999980926514,Mon Jun 09 2025 19:11:01 GMT-0500 (Central Daylight Time),177720.5,A,enter,O,enter,670,1,682.7999999523163,177037.70000004768,7170,WL,A,12.0
1,59.06399989128113,learn,936.0001087188721,Mon Jun 09 2025 19:11:01 GMT-0500 (Central Daylight Time),178386.90000009537,A,enter,O,enter,645,1,666.1000001430511,177720.79999995232,7170,WL,A,13.0
1,59.83099985122681,learn,169.00014877319336,Mon Jun 09 2025 19:11:01 GMT-0500 (Central Daylight Time),179153.29999995232,A,enter,O,enter,753,1,766.0999999046326,178387.20000004768,7170,WL,A,14.0
1,60.014999866485596,learn,-14.999866485595703,Mon Jun 09 2025 19:11:01 GMT-0500 (Central Daylight Time),179337.5,A,None,O,None,177,1,183.79999995231628,179153.70000004768,7170,WL,A,15.0
2,4.515000104904175,learn,55484.999895095825,Mon Jun 09 2025 19:11:01 GMT-0500 (Central Daylight Time),250164.5,A,g,O,g,4480,1,4514.700000047684,245649.79999995232,7170,WL,A,1.0
2,4.5970001220703125,learn,55402.99987792969,Mon Jun 09 2025 19:11:01 GMT-0500 (Central Daylight Time),250246.79999995232,A,go,O,o,44,1,4597.0,245649.79999995232,7170,WL,A,1.0
2,4.79800009727478,learn,55201.99990272522,Mon Jun 09 2025 19:11:01 GMT-0500 (Central Daylight Time),250447.70000004768,A,gol,O,l,179,1,4797.900000095367,245649.79999995232,7170,WL,A,1.0
2,4.948000192642212,learn,55051.99980735779,Mon Jun 09 2025 19:11:01 GMT-0500 (Central Daylight Time),250597.5,A,gold,O,d,118,1,4947.700000047684,245649.79999995232,7170,WL,A,1.0
2,5.514000177383423,learn,54485.99982261658,Mon Jun 09 2025 19:11:01 GMT-0500 (Central Daylight Time),251163.0,A,goldenter,O,enter,521,1,5513.200000047684,245649.79999995232,7170,WL,A,1.0
2,7.081000089645386,learn,52918.999910354614,Mon Jun 09 2025 19:11:01 GMT-0500 (Central Daylight Time),252730.40000009537,A,b,O,b,1547,1,1567.2000000476837,251163.20000004768,7170,WL,A,2.0
2,7.29800009727478,learn,52701.99990272522,Mon Jun 09 2025 19:11:01 GMT-0500 (Central Daylight Time),252946.90000009537,A,bo,O,o,175,1,1783.7000000476837,251163.20000004768,7170,WL,A,2.0
2,7.447000026702881,learn,52552.99997329712,Mon Jun 09 2025 19:11:01 GMT-0500 (Central Daylight Time),253096.70000004768,A,boo,O,o,120,1,1933.5,251163.20000004768,7170,WL,A,2.0
2,7.647000074386597,learn,52352.9999256134,Mon Jun 09 2025 19:11:01 GMT-0500 (Central Daylight Time),253296.70000004768,A,book,O,k,161,1,2133.5,251163.20000004768,7170,WL,A,2.0
2,7.913000106811523,learn,52086.99989318848,Mon Jun 09 2025 19:11:01 GMT-0500 (Central Daylight Time),253562.29999995232,A,bookenter,O,enter,225,1,2399.0999999046326,251163.20000004768,7170,WL,A,2.0
2,9.013000011444092,learn,50986.99998855591,Mon Jun 09 2025 19:11:01 GMT-0500 (Central Daylight Time),254662.79999995232,A,f,O,f,1083,1,1100.2999999523163,253562.5,7170,WL,A,3.0
2,9.147000074386597,learn,50852.9999256134,Mon Jun 09 2025 19:11:01 GMT-0500 (Central Daylight Time),254796.5,A,fl,O,l,92,1,1234.0,253562.5,7170,WL,A,3.0
2,9.36300015449524,learn,50636.99984550476,Mon Jun 09 2025 19:11:01 GMT-0500 (Central Daylight Time),255011.90000009537,A,flo,O,o,182,1,1449.4000000953674,253562.5,7170,WL,A,3.0
2,9.529000043869019,learn,50470.99995613098,Mon Jun 09 2025 19:11:01 GMT-0500 (Central Daylight Time),255178.29999995232,A,flow,O,w,148,1,1615.7999999523163,253562.5,7170,WL,A,3.0
2,9.76200008392334,learn,50237.99991607666,Mon Jun 09 2025 19:11:01 GMT-0500 (Central Daylight Time),255411.60000014305,A,flowe,O,e,225,1,1849.1000001430511,253562.5,7170,WL,A,3.0
2,9.996000051498413,learn,50003.99994850159,Mon Jun 09 2025 19:11:01 GMT-0500 (Central Daylight Time),255645.40000009537,A,flower,O,r,224,1,2082.9000000953674,253562.5,7170,WL,A,3.0
2,10.080000162124634,learn,49919.999837875366,Mon Jun 09 2025 19:11:01 GMT-0500 (Central Daylight Time),255729.10000014305,A,flowerenter,O,enter,51,1,2166.600000143051,253562.5,7170,WL,A,3.0
2,10.713000059127808,learn,49286.99994087219,Mon Jun 09 2025 19:11:01 GMT-0500 (Central Daylight Time),256362.40000009537,A,r,O,r,608,1,632.9000000953674,255729.5,7170,WL,A,4.0
2,10.945000171661377,learn,49054.99982833862,Mon Jun 09 2025 19:11:01 GMT-0500 (Central Daylight Time),256594.60000014305,A,ra,O,a,189,1,865.1000001430511,255729.5,7170,WL,A,4.0
2,11.245000123977661,learn,48754.99987602234,Mon Jun 09 2025 19:11:01 GMT-0500 (Central Daylight Time),256894.5,A,rat,O,t,289,1,1165.0,255729.5,7170,WL,A,4.0
2,11.396000146865845,learn,48603.999853134155,Mon Jun 09 2025 19:11:01 GMT-0500 (Central Daylight Time),257045.5,A,ratt,O,t,135,1,1316.0,255729.5,7170,WL,A,4.0
2,11.61300015449524,learn,48386.99984550476,Mon Jun 09 2025 19:11:01 GMT-0500 (Central Daylight Time),257262.20000004768,A,rattl,O,l,193,1,1532.7000000476837,255729.5,7170,WL,A,4.0
2,11.78000020980835,learn,48219.99979019165,Mon Jun 09 2025 19:11:01 GMT-0500 (Central Daylight Time),257428.90000009537,A,rattle,O,e,146,1,1699.4000000953674,255729.5,7170,WL,A,4.0
2,12.978000164031982,learn,47021.99983596802,Mon Jun 09 2025 19:11:01 GMT-0500 (Central Daylight Time),258627.29999995232,A,rattleenter,O,enter,1165,1,2897.7999999523163,255729.5,7170,WL,A,4.0
2,13.761000156402588,learn,46238.99984359741,Mon Jun 09 2025 19:11:01 GMT-0500 (Central Daylight Time),259410.20000004768,A,t,O,t,762,1,782.7000000476837,258627.5,7170,WL,A,5.0
2,13.82800006866455,learn,46171.99993133545,Mon Jun 09 2025 19:11:01 GMT-0500 (Central Daylight Time),259476.90000009537,A,tr,O,r,47,1,849.4000000953674,258627.5,7170,WL,A,5.0
2,14.061000108718872,learn,45938.99989128113,Mon Jun 09 2025 19:11:01 GMT-0500 (Central Daylight Time),259710.10000014305,A,tra,O,a,214,1,1082.6000001430511,258627.5,7170,WL,A,5.0
2,14.26200008392334,learn,45737.99991607666,Mon Jun 09 2025 19:11:01 GMT-0500 (Central Daylight Time),259910.90000009537,A,trai,O,i,182,1,1283.4000000953674,258627.5,7170,WL,A,5.0
2,14.478000164031982,learn,45521.99983596802,Mon Jun 09 2025 19:11:01 GMT-0500 (Central Daylight Time),260127.70000004768,A,train,O,n,191,1,1500.2000000476837,258627.5,7170,WL,A,5.0
2,14.795000076293945,learn,45204.999923706055,Mon Jun 09 2025 19:11:01 GMT-0500 (Central Daylight Time),260444.40000009537,A,trainenter,O,enter,289,1,1816.9000000953674,258627.5,7170,WL,A,5.0
2,15.594000101089478,learn,44405.99989891052,Mon Jun 09 2025 19:11:01 GMT-0500 (Central Daylight Time),261243.10000014305,A,l,O,l,775,1,798.5,260444.60000014305,7170,WL,A,6.0
2,15.794000148773193,learn,44205.99985122681,Mon Jun 09 2025 19:11:01 GMT-0500 (Central Daylight Time),261443.70000004768,A,lo,O,o,176,1,999.0999999046326,260444.60000014305,7170,WL,A,6.0
2,15.961000204086304,learn,44038.999795913696,Mon Jun 09 2025 19:11:01 GMT-0500 (Central Daylight Time),261610.40000009537,A,log,O,g,135,1,1165.7999999523163,260444.60000014305,7170,WL,A,6.0
2,16.5770001411438,learn,43422.9998588562,Mon Jun 09 2025 19:11:01 GMT-0500 (Central Daylight Time),262226.10000014305,A,logenter,O,enter,576,1,1781.5,260444.60000014305,7170,WL,A,6.0
2,17.444000005722046,learn,42555.999994277954,Mon Jun 09 2025 19:11:01 GMT-0500 (Central Daylight Time),263093.60000014305,A,r,O,r,852,1,867.2000000476837,262226.40000009537,7170,WL,A,7.0
2,17.611000061035156,learn,42388.999938964844,Mon Jun 09 2025 19:11:01 GMT-0500 (Central Daylight Time),263259.7999999523,A,ru,O,u,132,1,1033.3999998569489,262226.40000009537,7170,WL,A,7.0
2,17.777000188827515,learn,42222.999811172485,Mon Jun 09 2025 19:11:01 GMT-0500 (Central Daylight Time),263426.60000014305,A,rug,O,g,142,1,1200.2000000476837,262226.40000009537,7170,WL,A,7.0
2,18.41000008583069,learn,41589.99991416931,Mon Jun 09 2025 19:11:01 GMT-0500 (Central Daylight Time),264058.7999999523,A,rugenter,O,enter,590,1,1832.3999998569489,262226.40000009537,7170,WL,A,7.0
2,19.344000101089478,learn,40655.99989891052,Mon Jun 09 2025 19:11:01 GMT-0500 (Central Daylight Time),264992.90000009537,A,b,O,b,915,1,933.7999999523163,264059.10000014305,7170,WL,A,8.0
2,19.592000007629395,learn,40407.999992370605,Mon Jun 09 2025 19:11:01 GMT-0500 (Central Daylight Time),265241.7000000477,A,bu,O,u,218,1,1182.5999999046326,264059.10000014305,7170,WL,A,8.0
2,19.859000205993652,learn,40140.99979400635,Mon Jun 09 2025 19:11:01 GMT-0500 (Central Daylight Time),265508.2000000477,A,but,O,t,259,1,1449.0999999046326,264059.10000014305,7170,WL,A,8.0
2,20.026000022888184,learn,39973.99997711182,Mon Jun 09 2025 19:11:01 GMT-0500 (Central Daylight Time),265674.90000009537,A,butt,O,t,144,1,1615.7999999523163,264059.10000014305,7170,WL,A,8.0
2,20.12600016593933,learn,39873.99983406067,Mon Jun 09 2025 19:11:01 GMT-0500 (Central Daylight Time),265774.90000009537,A,butto,O,o,89,1,1715.7999999523163,264059.10000014305,7170,WL,A,8.0
2,20.360000133514404,learn,39639.999866485596,Mon Jun 09 2025 19:11:01 GMT-0500 (Central Daylight Time),266009.2000000477,A,button,O,n,222,1,1950.0999999046326,264059.10000014305,7170,WL,A,8.0
2,21.409000158309937,learn,38590.99984169006,Mon Jun 09 2025 19:11:01 GMT-0500 (Central Daylight Time),267057.7000000477,A,buttonenter,O,enter,1007,1,2998.5999999046326,264059.10000014305,7170,WL,A,8.0
2,24.19100022315979,learn,35808.99977684021,Mon Jun 09 2025 19:11:01 GMT-0500 (Central Daylight Time),269840.10000014305,A,c,O,c,2761,1,2782.0,267058.10000014305,7170,WL,A,9.0
2,24.307000160217285,learn,35692.999839782715,Mon Jun 09 2025 19:11:01 GMT-0500 (Central Daylight Time),269956.7999999523,A,ch,O,h,106,1,2898.699999809265,267058.10000014305,7170,WL,A,9.0
2,24.52500009536743,learn,35474.99990463257,Mon Jun 09 2025 19:11:01 GMT-0500 (Central Daylight Time),270174.60000014305,A,chi,O,i,199,1,3116.5,267058.10000014305,7170,WL,A,9.0
2,24.759000062942505,learn,35240.999937057495,Mon Jun 09 2025 19:11:01 GMT-0500 (Central Daylight Time),270408.0,A,chim,O,m,203,1,3349.899999856949,267058.10000014305,7170,WL,A,9.0
2,25.092000007629395,learn,34907.999992370605,Mon Jun 09 2025 19:11:01 GMT-0500 (Central Daylight Time),270740.7999999523,A,chimn,O,n,298,1,3682.699999809265,267058.10000014305,7170,WL,A,9.0
2,25.52400016784668,learn,34475.99983215332,Mon Jun 09 2025 19:11:01 GMT-0500 (Central Daylight Time),271173.10000014305,A,chimne,O,e,405,1,4115.0,267058.10000014305,7170,WL,A,9.0
2,25.85800004005432,learn,34141.99995994568,Mon Jun 09 2025 19:11:01 GMT-0500 (Central Daylight Time),271507.40000009537,A,chimney,O,y,320,1,4449.299999952316,267058.10000014305,7170,WL,A,9.0
2,26.374000072479248,learn,33625.99992752075,Mon Jun 09 2025 19:11:01 GMT-0500 (Central Daylight Time),272022.7999999523,A,chimneyenter,O,enter,490,1,4964.699999809265,267058.10000014305,7170,WL,A,9.0
2,28.85700011253357,learn,31142.99988746643,Mon Jun 09 2025 19:11:01 GMT-0500 (Central Daylight Time),274506.5,A,t,O,t,2471,1,2483.399999856949,272023.10000014305,7170,WL,A,10.0
2,28.94000005722046,learn,31059.99994277954,Mon Jun 09 2025 19:11:01 GMT-0500 (Central Daylight Time),274589.2999999523,A,tr,O,r,58,1,2566.199999809265,272023.10000014305,7170,WL,A,10.0
2,29.124000072479248,learn,30875.999927520752,Mon Jun 09 2025 19:11:01 GMT-0500 (Central Daylight Time),274772.90000009537,A,tra,O,a,158,1,2749.7999999523163,272023.10000014305,7170,WL,A,10.0
2,29.257000207901,learn,30742.999792099,Mon Jun 09 2025 19:11:01 GMT-0500 (Central Daylight Time),274906.0,A,trai,O,i,104,1,2882.899999856949,272023.10000014305,7170,WL,A,10.0
2,29.474000215530396,learn,30525.999784469604,Mon Jun 09 2025 19:11:01 GMT-0500 (Central Daylight Time),275122.90000009537,A,train,O,n,175,1,3099.7999999523163,272023.10000014305,7170,WL,A,10.0
2,30.139000177383423,learn,29860.999822616577,Mon Jun 09 2025 19:11:01 GMT-0500 (Central Daylight Time),275788.2999999523,A,trainenter,O,enter,630,1,3765.199999809265,272023.10000014305,7170,WL,A,10.0
2,33.73900008201599,learn,26260.99991798401,Mon Jun 09 2025 19:11:01 GMT-0500 (Central Daylight Time),279388.2000000477,A,b,O,b,3578,1,3599.7000000476837,275788.5,7170,WL,A,11.0
2,33.955000162124634,learn,26044.999837875366,Mon Jun 09 2025 19:11:01 GMT-0500 (Central Daylight Time),279604.40000009537,A,bo,O,o,175,1,3815.9000000953674,275788.5,7170,WL,A,11.0
2,34.104000091552734,learn,25895.999908447266,Mon Jun 09 2025 19:11:01 GMT-0500 (Central Daylight Time),279753.60000014305,A,boo,O,o,121,1,3965.100000143051,275788.5,7170,WL,A,11.0
2,34.28800010681152,learn,25711.999893188477,Mon Jun 09 2025 19:11:01 GMT-0500 (Central Daylight Time),279937.0,A,book,O,k,162,1,4148.5,275788.5,7170,WL,A,11.0
2,34.58800005912781,learn,25411.999940872192,Mon Jun 09 2025 19:11:01 GMT-0500 (Central Daylight Time),280236.7999999523,A,bookenter,O,enter,291,1,4448.299999952316,275788.5,7170,WL,A,11.0
2,40.10199999809265,learn,19898.00000190735,Mon Jun 09 2025 19:11:01 GMT-0500 (Central Daylight Time),285751.5,A,g,O,g,5503,1,5514.399999856949,280237.10000014305,7170,WL,A,12.0
2,40.2020001411438,learn,19797.9998588562,Mon Jun 09 2025 19:11:01 GMT-0500 (Central Daylight Time),285851.5,A,go,O,o,92,1,5614.399999856949,280237.10000014305,7170,WL,A,12.0
2,40.40400004386902,learn,19595.99995613098,Mon Jun 09 2025 19:11:01 GMT-0500 (Central Daylight Time),286052.90000009537,A,gol,O,l,194,1,5815.799999952316,280237.10000014305,7170,WL,A,12.0
2,40.53700017929077,learn,19462.99982070923,Mon Jun 09 2025 19:11:01 GMT-0500 (Central Daylight Time),286186.2000000477,A,gold,O,d,97,1,5949.099999904633,280237.10000014305,7170,WL,A,12.0
2,40.736000061035156,learn,19263.999938964844,Mon Jun 09 2025 19:11:01 GMT-0500 (Central Daylight Time),286384.7999999523,A,goldenter,O,enter,168,1,6147.699999809265,280237.10000014305,7170,WL,A,12.0
2,49.200000047683716,learn,10799.999952316284,Mon Jun 09 2025 19:11:01 GMT-0500 (Central Daylight Time),294848.7999999523,A,enter,O,enter,8444,1,8463.699999809265,286385.10000014305,7170,WL,A,13.0
2,49.68300008773804,learn,10316.999912261963,Mon Jun 09 2025 19:11:01 GMT-0500 (Central Daylight Time),295331.90000009537,A,enter,O,enter,468,1,482.7000000476837,294849.2000000477,7170,WL,A,14.0
2,50.200000047683716,learn,9799.999952316284,Mon Jun 09 2025 19:11:01 GMT-0500 (Central Daylight Time),295848.2999999523,A,enter,O,enter,497,1,516.0999999046326,295332.2000000477,7170,WL,A,15.0
3,1.3989999294281006,learn,58601.0000705719,Mon Jun 09 2025 19:11:01 GMT-0500 (Central Daylight Time),362643.10000014305,A,m,O,m,1393,1,1399.6000001430511,361243.5,7170,WL,A,1.0
3,1.5329999923706055,learn,58467.000007629395,Mon Jun 09 2025 19:11:01 GMT-0500 (Central Daylight Time),362776.40000009537,A,me,O,e,110,1,1532.9000000953674,361243.5,7170,WL,A,1.0
3,1.7339999675750732,learn,58266.00003242493,Mon Jun 09 2025 19:11:01 GMT-0500 (Central Daylight Time),362977.5,A,mea,O,a,189,1,1734.0,361243.5,7170,WL,A,1.0
3,1.9830000400543213,learn,58016.99995994568,Mon Jun 09 2025 19:11:01 GMT-0500 (Central Daylight Time),363226.60000014305,A,mead,O,d,221,1,1983.1000001430511,361243.5,7170,WL,A,1.0
3,2.200000047683716,learn,57799.999952316284,Mon Jun 09 2025 19:11:01 GMT-0500 (Central Daylight Time),363443.60000014305,A,meado,O,o,196,1,2200.100000143051,361243.5,7170,WL,A,1.0
3,2.365999937057495,learn,57634.000062942505,Mon Jun 09 2025 19:11:01 GMT-0500 (Central Daylight Time),363609.90000009537,A,meadow,O,w,133,1,2366.4000000953674,361243.5,7170,WL,A,1.0
3,2.8989999294281006,learn,57101.0000705719,Mon Jun 09 2025 19:11:01 GMT-0500 (Central Daylight Time),364142.60000014305,A,meadowenter,O,enter,507,1,2899.100000143051,361243.5,7170,WL,A,1.0
3,3.3989999294281006,learn,56601.0000705719,Mon Jun 09 2025 19:11:01 GMT-0500 (Central Daylight Time),364643.2999999523,A,h,O,h,479,1,500.39999985694885,364142.90000009537,7170,WL,A,2.0
3,3.5329999923706055,learn,56467.000007629395,Mon Jun 09 2025 19:11:01 GMT-0500 (Central Daylight Time),364776.40000009537,A,ha,O,a,102,1,633.5,364142.90000009537,7170,WL,A,2.0
3,3.865999937057495,learn,56134.000062942505,Mon Jun 09 2025 19:11:01 GMT-0500 (Central Daylight Time),365109.60000014305,A,har,O,r,318,1,966.7000000476837,364142.90000009537,7170,WL,A,2.0
3,4.082000017166138,learn,55917.99998283386,Mon Jun 09 2025 19:11:01 GMT-0500 (Central Daylight Time),365326.2999999523,A,harp,O,p,190,1,1183.3999998569489,364142.90000009537,7170,WL,A,2.0
3,4.749000072479248,learn,55250.99992752075,Mon Jun 09 2025 19:11:01 GMT-0500 (Central Daylight Time),365992.90000009537,A,harpf,O,f,625,1,1850.0,364142.90000009537,7170,WL,A,2.0
3,4.900000095367432,learn,55099.99990463257,Mon Jun 09 2025 19:11:01 GMT-0500 (Central Daylight Time),366143.2999999523,A,harpfi,O,i,113,1,2000.3999998569489,364142.90000009537,7170,WL,A,2.0
3,5.098999977111816,learn,54901.00002288818,Mon Jun 09 2025 19:11:01 GMT-0500 (Central Daylight Time),366342.60000014305,A,harpfin,O,n,162,1,2199.7000000476837,364142.90000009537,7170,WL,A,2.0
3,5.249000072479248,learn,54750.99992752075,Mon Jun 09 2025 19:11:01 GMT-0500 (Central Daylight Time),366492.7999999523,A,harpfing,O,g,129,1,2349.899999856949,364142.90000009537,7170,WL,A,2.0
3,5.499000072479248,learn,54500.99992752075,Mon Jun 09 2025 19:11:01 GMT-0500 (Central Daylight Time),366742.5,A,harpfinge,O,e,226,1,2599.5999999046326,364142.90000009537,7170,WL,A,2.0
3,5.730999946594238,learn,54269.00005340576,Mon Jun 09 2025 19:11:01 GMT-0500 (Central Daylight Time),366975.0,A,harpfinger,O,r,201,1,2832.0999999046326,364142.90000009537,7170,WL,A,2.0
3,6.7820000648498535,learn,53217.99993515015,Mon Jun 09 2025 19:11:01 GMT-0500 (Central Daylight Time),368026.0,A,harpfinge,O,backspace,1030,1,3883.0999999046326,364142.90000009537,7170,WL,A,2.0
3,7.063999891281128,learn,52936.00010871887,Mon Jun 09 2025 19:11:01 GMT-0500 (Central Daylight Time),368307.60000014305,A,harpfing,O,backspace,257,1,4164.700000047684,364142.90000009537,7170,WL,A,2.0
3,7.246999979019165,learn,52753.000020980835,Mon Jun 09 2025 19:11:01 GMT-0500 (Central Daylight Time),368490.90000009537,A,harpfin,O,backspace,161,1,4348.0,364142.90000009537,7170,WL,A,2.0
3,7.447000026702881,learn,52552.99997329712,Mon Jun 09 2025 19:11:01 GMT-0500 (Central Daylight Time),368691.2000000477,A,harpfi,O,backspace,186,1,4548.299999952316,364142.90000009537,7170,WL,A,2.0
3,7.63100004196167,learn,52368.99995803833,Mon Jun 09 2025 19:11:01 GMT-0500 (Central Daylight Time),368875.0,A,harpf,O,backspace,169,1,4732.099999904633,364142.90000009537,7170,WL,A,2.0
3,7.8480000495910645,learn,52151.999950408936,Mon Jun 09 2025 19:11:01 GMT-0500 (Central Daylight Time),369091.60000014305,A,harp,O,backspace,183,1,4948.700000047684,364142.90000009537,7170,WL,A,2.0
3,8.065000057220459,learn,51934.99994277954,Mon Jun 09 2025 19:11:01 GMT-0500 (Central Daylight Time),369308.60000014305,A,har,O,backspace,178,1,5165.700000047684,364142.90000009537,7170,WL,A,2.0
3,9.46399998664856,learn,50536.00001335144,Mon Jun 09 2025 19:11:01 GMT-0500 (Central Daylight Time),370707.7000000477,A,harp,O,p,1371,1,6564.799999952316,364142.90000009537,7170,WL,A,2.0
3,9.730000019073486,learn,50269.999980926514,Mon Jun 09 2025 19:11:01 GMT-0500 (Central Daylight Time),370973.7000000477,A,harpenter,O,enter,230,1,6830.799999952316,364142.90000009537,7170,WL,A,2.0
3,10.345999956130981,learn,49654.00004386902,Mon Jun 09 2025 19:11:01 GMT-0500 (Central Daylight Time),371590.0,A,f,O,f,599,1,616.0,370974.0,7170,WL,A,3.0
3,10.480000019073486,learn,49519.999980926514,Mon Jun 09 2025 19:11:01 GMT-0500 (Central Daylight Time),371723.60000014305,A,fi,O,i,126,1,749.6000001430511,370974.0,7170,WL,A,3.0
3,10.663000106811523,learn,49336.99989318848,Mon Jun 09 2025 19:11:01 GMT-0500 (Central Daylight Time),371907.2000000477,A,fin,O,n,162,1,933.2000000476837,370974.0,7170,WL,A,3.0
3,10.763000011444092,learn,49236.99998855591,Mon Jun 09 2025 19:11:01 GMT-0500 (Central Daylight Time),372006.90000009537,A,fing,O,g,71,1,1032.9000000953674,370974.0,7170,WL,A,3.0
3,10.94700002670288,learn,49052.99997329712,Mon Jun 09 2025 19:11:01 GMT-0500 (Central Daylight Time),372191.2000000477,A,finge,O,e,161,1,1217.2000000476837,370974.0,7170,WL,A,3.0
3,11.096999883651733,learn,48903.00011634827,Mon Jun 09 2025 19:11:01 GMT-0500 (Central Daylight Time),372340.7000000477,A,finger,O,r,119,1,1366.7000000476837,370974.0,7170,WL,A,3.0
3,11.61299991607666,learn,48387.00008392334,Mon Jun 09 2025 19:11:01 GMT-0500 (Central Daylight Time),372856.40000009537,A,fingerenter,O,enter,489,1,1882.4000000953674,370974.0,7170,WL,A,3.0
3,11.913000106811523,learn,48086.99989318848,Mon Jun 09 2025 19:11:01 GMT-0500 (Central Daylight Time),373157.2000000477,A,s,O,s,292,1,300.5,372856.7000000477,7170,WL,A,4.0
3,12.04699993133545,learn,47953.00006866455,Mon Jun 09 2025 19:11:01 GMT-0500 (Central Daylight Time),373290.7000000477,A,sa,O,a,93,1,434.0,372856.7000000477,7170,WL,A,4.0
3,12.180000066757202,learn,47819.9999332428,Mon Jun 09 2025 19:11:01 GMT-0500 (Central Daylight Time),373423.90000009537,A,sal,O,l,96,1,567.2000000476837,372856.7000000477,7170,WL,A,4.0
3,12.430000066757202,learn,47569.9999332428,Mon Jun 09 2025 19:11:01 GMT-0500 (Central Daylight Time),373673.90000009537,A,salt,O,t,210,1,817.2000000476837,372856.7000000477,7170,WL,A,4.0
3,12.729000091552734,learn,47270.999908447266,Mon Jun 09 2025 19:11:01 GMT-0500 (Central Daylight Time),373972.7999999523,A,saltenter,O,enter,272,1,1116.0999999046326,372856.7000000477,7170,WL,A,4.0
3,13.078999996185303,learn,46921.0000038147,Mon Jun 09 2025 19:11:01 GMT-0500 (Central Daylight Time),374322.5,A,a,O,a,335,1,349.5,373973.0,7170,WL,A,5.0
3,13.312000036239624,learn,46687.999963760376,Mon Jun 09 2025 19:11:01 GMT-0500 (Central Daylight Time),374555.90000009537,A,ap,O,p,226,1,582.9000000953674,373973.0,7170,WL,A,5.0
3,13.496000051498413,learn,46503.99994850159,Mon Jun 09 2025 19:11:01 GMT-0500 (Central Daylight Time),374739.60000014305,A,app,O,p,169,1,766.6000001430511,373973.0,7170,WL,A,5.0
3,13.696000099182129,learn,46303.99990081787,Mon Jun 09 2025 19:11:01 GMT-0500 (Central Daylight Time),374940.2000000477,A,appl,O,l,170,1,967.2000000476837,373973.0,7170,WL,A,5.0
3,13.845999956130981,learn,46154.00004386902,Mon Jun 09 2025 19:11:01 GMT-0500 (Central Daylight Time),375090.10000014305,A,apple,O,e,112,1,1117.1000001430511,373973.0,7170,WL,A,5.0
3,14.09500002861023,learn,45904.99997138977,Mon Jun 09 2025 19:11:01 GMT-0500 (Central Daylight Time),375338.7999999523,A,appleenter,O,enter,217,1,1365.7999999523163,373973.0,7170,WL,A,5.0
3,17.76099991798401,learn,42239.00008201599,Mon Jun 09 2025 19:11:01 GMT-0500 (Central Daylight Time),379005.2000000477,A,l,O,l,3659,1,3666.0999999046326,375339.10000014305,7170,WL,A,6.0
3,18.027999877929688,learn,41972.00012207031,Mon Jun 09 2025 19:11:01 GMT-0500 (Central Daylight Time),379272.10000014305,A,lo,O,o,229,1,3933.0,375339.10000014305,7170,WL,A,6.0
3,18.194999933242798,learn,41805.0000667572,Mon Jun 09 2025 19:11:01 GMT-0500 (Central Daylight Time),379438.40000009537,A,log,O,g,139,1,4099.299999952316,375339.10000014305,7170,WL,A,6.0
3,18.39400005340576,learn,41605.99994659424,Mon Jun 09 2025 19:11:01 GMT-0500 (Central Daylight Time),379637.5,A,logenter,O,enter,163,1,4298.399999856949,375339.10000014305,7170,WL,A,6.0
3,18.80999994277954,learn,41190.00005722046,Mon Jun 09 2025 19:11:01 GMT-0500 (Central Daylight Time),380053.90000009537,A,r,O,r,407,1,416.2000000476837,379637.7000000477,7170,WL,A,7.0
3,18.97699999809265,learn,41023.00000190735,Mon Jun 09 2025 19:11:01 GMT-0500 (Central Daylight Time),380220.60000014305,A,ru,O,u,158,1,582.9000000953674,379637.7000000477,7170,WL,A,7.0
3,19.210999965667725,learn,40789.000034332275,Mon Jun 09 2025 19:11:01 GMT-0500 (Central Daylight Time),380455.0,A,rug,O,g,224,1,817.2999999523163,379637.7000000477,7170,WL,A,7.0
3,19.72699999809265,learn,40273.00000190735,Mon Jun 09 2025 19:11:01 GMT-0500 (Central Daylight Time),380970.40000009537,A,rugenter,O,enter,483,1,1332.7000000476837,379637.7000000477,7170,WL,A,7.0
3,21.194000005722046,learn,38805.999994277954,Mon Jun 09 2025 19:11:01 GMT-0500 (Central Daylight Time),382437.7999999523,A,b,O,b,1461,1,1467.0999999046326,380970.7000000477,7170,WL,A,8.0
3,21.444000005722046,learn,38555.999994277954,Mon Jun 09 2025 19:11:01 GMT-0500 (Central Daylight Time),382687.60000014305,A,bo,O,o,212,1,1716.9000000953674,380970.7000000477,7170,WL,A,8.0
3,21.608999967575073,learn,38391.00003242493,Mon Jun 09 2025 19:11:01 GMT-0500 (Central Daylight Time),382853.10000014305,A,boo,O,o,139,1,1882.4000000953674,380970.7000000477,7170,WL,A,8.0
3,21.80900001525879,learn,38190.99998474121,Mon Jun 09 2025 19:11:01 GMT-0500 (Central Daylight Time),383053.0,A,book,O,k,183,1,2082.2999999523163,380970.7000000477,7170,WL,A,8.0
3,22.108999967575073,learn,37891.00003242493,Mon Jun 09 2025 19:11:01 GMT-0500 (Central Daylight Time),383352.90000009537,A,bookenter,O,enter,287,1,2382.2000000476837,380970.7000000477,7170,WL,A,8.0
3,23.075999975204468,learn,36924.00002479553,Mon Jun 09 2025 19:11:01 GMT-0500 (Central Daylight Time),384319.40000009537,A,a,O,a,956,1,966.2000000476837,383353.2000000477,7170,WL,A,9.0
3,23.408999919891357,learn,36591.00008010864,Mon Jun 09 2025 19:11:01 GMT-0500 (Central Daylight Time),384652.60000014305,A,ap,O,p,316,1,1299.4000000953674,383353.2000000477,7170,WL,A,9.0
3,23.594000101089478,learn,36405.99989891052,Mon Jun 09 2025 19:11:01 GMT-0500 (Central Daylight Time),384837.60000014305,A,app,O,p,171,1,1484.4000000953674,383353.2000000477,7170,WL,A,9.0
3,23.825999975204468,learn,36174.00002479553,Mon Jun 09 2025 19:11:01 GMT-0500 (Central Daylight Time),385070.2000000477,A,appl,O,l,198,1,1717.0,383353.2000000477,7170,WL,A,9.0
3,24.009999990463257,learn,35990.00000953674,Mon Jun 09 2025 19:11:01 GMT-0500 (Central Daylight Time),385253.40000009537,A,apple,O,e,149,1,1900.2000000476837,383353.2000000477,7170,WL,A,9.0
3,24.507999897003174,learn,35492.000102996826,Mon Jun 09 2025 19:11:01 GMT-0500 (Central Daylight Time),385752.0,A,appleenter,O,enter,467,1,2398.7999999523163,383353.2000000477,7170,WL,A,9.0
3,27.842000007629395,learn,32157.999992370605,Mon Jun 09 2025 19:11:01 GMT-0500 (Central Daylight Time),389085.5,A,s,O,s,3316,1,3333.2000000476837,385752.2999999523,7170,WL,A,10.0
3,27.97499990463257,learn,32025.00009536743,Mon Jun 09 2025 19:11:01 GMT-0500 (Central Daylight Time),389218.7999999523,A,sa,O,a,93,1,3466.5,385752.2999999523,7170,WL,A,10.0
3,28.14199995994568,learn,31858.00004005432,Mon Jun 09 2025 19:11:01 GMT-0500 (Central Daylight Time),389385.60000014305,A,sal,O,l,139,1,3633.300000190735,385752.2999999523,7170,WL,A,10.0
3,28.54099988937378,learn,31459.00011062622,Mon Jun 09 2025 19:11:01 GMT-0500 (Central Daylight Time),389784.7000000477,A,salt,O,t,370,1,4032.4000000953674,385752.2999999523,7170,WL,A,10.0
3,29.240000009536743,learn,30759.999990463257,Mon Jun 09 2025 19:11:01 GMT-0500 (Central Daylight Time),390484.0,A,saltenter,O,enter,666,1,4731.700000047684,385752.2999999523,7170,WL,A,10.0
3,33.706000089645386,learn,26293.999910354614,Mon Jun 09 2025 19:11:01 GMT-0500 (Central Daylight Time),394950.10000014305,A,l,O,l,4450,1,4465.900000095367,390484.2000000477,7170,WL,A,11.0
3,33.888999938964844,learn,26111.000061035156,Mon Jun 09 2025 19:11:01 GMT-0500 (Central Daylight Time),395132.60000014305,A,lo,O,o,157,1,4648.400000095367,390484.2000000477,7170,WL,A,11.0
3,34.07299995422363,learn,25927.000045776367,Mon Jun 09 2025 19:11:01 GMT-0500 (Central Daylight Time),395317.10000014305,A,log,O,g,170,1,4832.900000095367,390484.2000000477,7170,WL,A,11.0
3,34.48900008201599,learn,25510.99991798401,Mon Jun 09 2025 19:11:01 GMT-0500 (Central Daylight Time),395733.2000000477,A,logenter,O,enter,394,1,5249.0,390484.2000000477,7170,WL,A,11.0
3,38.37100005149841,learn,21628.999948501587,Mon Jun 09 2025 19:11:01 GMT-0500 (Central Daylight Time),399615.2000000477,A,g,O,g,3863,1,3881.7999999523163,395733.40000009537,7170,WL,A,12.0
3,38.50499987602234,learn,21495.00012397766,Mon Jun 09 2025 19:11:01 GMT-0500 (Central Daylight Time),399748.5,A,go,O,o,104,1,4015.0999999046326,395733.40000009537,7170,WL,A,12.0
3,38.704999923706055,learn,21295.000076293945,Mon Jun 09 2025 19:11:01 GMT-0500 (Central Daylight Time),399948.60000014305,A,gol,O,l,166,1,4215.200000047684,395733.40000009537,7170,WL,A,12.0
3,38.82100009918213,learn,21178.99990081787,Mon Jun 09 2025 19:11:01 GMT-0500 (Central Daylight Time),400064.2999999523,A,gold,O,d,86,1,4330.899999856949,395733.40000009537,7170,WL,A,12.0
3,39.08699989318848,learn,20913.000106811523,Mon Jun 09 2025 19:11:01 GMT-0500 (Central Daylight Time),400330.7000000477,A,goldenter,O,enter,240,1,4597.299999952316,395733.40000009537,7170,WL,A,12.0
3,42.40299987792969,learn,17597.000122070312,Mon Jun 09 2025 19:11:01 GMT-0500 (Central Daylight Time),403647.0,A,t,O,t,3298,1,3316.0,400331.0,7170,WL,A,13.0
3,42.503000020980835,learn,17496.999979019165,Mon Jun 09 2025 19:11:01 GMT-0500 (Central Daylight Time),403746.7999999523,A,tr,O,r,58,1,3415.7999999523163,400331.0,7170,WL,A,13.0
3,42.687000036239624,learn,17312.999963760376,Mon Jun 09 2025 19:11:01 GMT-0500 (Central Daylight Time),403930.5,A,tra,O,a,162,1,3599.5,400331.0,7170,WL,A,13.0
3,42.8199999332428,learn,17180.000066757202,Mon Jun 09 2025 19:11:01 GMT-0500 (Central Daylight Time),404063.60000014305,A,trai,O,i,104,1,3732.600000143051,400331.0,7170,WL,A,13.0
3,43.019999980926514,learn,16980.000019073486,Mon Jun 09 2025 19:11:01 GMT-0500 (Central Daylight Time),404263.5,A,train,O,n,163,1,3932.5,400331.0,7170,WL,A,13.0
3,43.30200004577637,learn,16697.999954223633,Mon Jun 09 2025 19:11:01 GMT-0500 (Central Daylight Time),404546.2000000477,A,trainenter,O,enter,251,1,4215.200000047684,400331.0,7170,WL,A,13.0
3,47.800999879837036,learn,12199.000120162964,Mon Jun 09 2025 19:11:01 GMT-0500 (Central Daylight Time),409044.40000009537,A,enter,O,enter,4490,1,4497.900000095367,404546.5,7170,WL,A,14.0
3,48.68400001525879,learn,11315.999984741211,Mon Jun 09 2025 19:11:01 GMT-0500 (Central Daylight Time),409927.60000014305,A,enter,O,enter,872,1,882.8000001907349,409044.7999999523,7170,WL,A,15.0
4,1.1680002212524414,learn,58831.99977874756,Mon Jun 09 2025 19:11:01 GMT-0500 (Central Daylight Time),476506.7999999523,A,k,O,k,1147,1,1166.8999998569489,475339.90000009537,7170,WL,A,1.0
4,1.3670001029968262,learn,58632.999897003174,Mon Jun 09 2025 19:11:01 GMT-0500 (Central Daylight Time),476705.7000000477,A,ke,O,e,166,1,1365.7999999523163,475339.90000009537,7170,WL,A,1.0
4,1.5340001583099365,learn,58465.99984169006,Mon Jun 09 2025 19:11:01 GMT-0500 (Central Daylight Time),476872.7000000477,A,key,O,y,151,1,1532.7999999523163,475339.90000009537,7170,WL,A,1.0
4,2.184000015258789,learn,57815.99998474121,Mon Jun 09 2025 19:11:01 GMT-0500 (Central Daylight Time),477522.10000014305,A,keyenter,O,enter,621,1,2182.2000000476837,475339.90000009537,7170,WL,A,1.0
4,2.5,learn,57500.0,Mon Jun 09 2025 19:11:01 GMT-0500 (Central Daylight Time),477838.7999999523,A,r,O,r,307,1,316.5,477522.2999999523,7170,WL,A,2.0
4,2.684000015258789,learn,57315.99998474121,Mon Jun 09 2025 19:11:01 GMT-0500 (Central Daylight Time),478021.7000000477,A,ra,O,a,159,1,499.40000009536743,477522.2999999523,7170,WL,A,2.0
4,3.0500001907348633,learn,56949.99980926514,Mon Jun 09 2025 19:11:01 GMT-0500 (Central Daylight Time),478388.40000009537,A,rat,O,t,358,1,866.1000001430511,477522.2999999523,7170,WL,A,2.0
4,3.5500001907348633,learn,56449.99980926514,Mon Jun 09 2025 19:11:01 GMT-0500 (Central Daylight Time),478888.10000014305,A,ratt,O,t,480,1,1365.8000001907349,477522.2999999523,7170,WL,A,2.0
4,3.8330001831054688,learn,56166.99981689453,Mon Jun 09 2025 19:11:01 GMT-0500 (Central Daylight Time),479171.5,A,rattl,O,l,268,1,1649.2000000476837,477522.2999999523,7170,WL,A,2.0
4,4.067000150680542,learn,55932.99984931946,Mon Jun 09 2025 19:11:01 GMT-0500 (Central Daylight Time),479404.90000009537,A,rattle,O,e,216,1,1882.6000001430511,477522.2999999523,7170,WL,A,2.0
4,4.633000135421753,learn,55366.99986457825,Mon Jun 09 2025 19:11:01 GMT-0500 (Central Daylight Time),479971.10000014305,A,rattleenter,O,enter,560,1,2448.800000190735,477522.2999999523,7170,WL,A,2.0
4,5.16700005531311,learn,54832.99994468689,Mon Jun 09 2025 19:11:01 GMT-0500 (Central Daylight Time),480504.90000009537,A,h,O,h,514,1,533.5,479971.40000009537,7170,WL,A,3.0
4,5.299000024795532,learn,54700.99997520447,Mon Jun 09 2025 19:11:01 GMT-0500 (Central Daylight Time),480637.7000000477,A,ha,O,a,116,1,666.2999999523163,479971.40000009537,7170,WL,A,3.0
4,5.616000175476074,learn,54383.999824523926,Mon Jun 09 2025 19:11:01 GMT-0500 (Central Daylight Time),480954.2999999523,A,har,O,r,295,1,982.8999998569489,479971.40000009537,7170,WL,A,3.0
4,5.81600022315979,learn,54183.99977684021,Mon Jun 09 2025 19:11:01 GMT-0500 (Central Daylight Time),481154.2000000477,A,harp,O,p,186,1,1182.7999999523163,479971.40000009537,7170,WL,A,3.0
4,6.133000135421753,learn,53866.99986457825,Mon Jun 09 2025 19:11:01 GMT-0500 (Central Daylight Time),481470.7000000477,A,harpenter,O,enter,298,1,1499.2999999523163,479971.40000009537,7170,WL,A,3.0
4,6.865000009536743,learn,53134.99999046326,Mon Jun 09 2025 19:11:01 GMT-0500 (Central Daylight Time),482203.60000014305,A,b,O,b,725,1,732.4000000953674,481471.2000000477,7170,WL,A,4.0
4,7.116000175476074,learn,52883.999824523926,Mon Jun 09 2025 19:11:01 GMT-0500 (Central Daylight Time),482454.7000000477,A,bo,O,o,242,1,983.5,481471.2000000477,7170,WL,A,4.0
4,7.2829999923706055,learn,52717.000007629395,Mon Jun 09 2025 19:11:01 GMT-0500 (Central Daylight Time),482621.0,A,boo,O,o,133,1,1149.7999999523163,481471.2000000477,7170,WL,A,4.0
4,7.466000080108643,learn,52533.99991989136,Mon Jun 09 2025 19:11:01 GMT-0500 (Central Daylight Time),482804.40000009537,A,book,O,k,156,1,1333.2000000476837,481471.2000000477,7170,WL,A,4.0
4,7.765000104904175,learn,52234.999895095825,Mon Jun 09 2025 19:11:01 GMT-0500 (Central Daylight Time),483103.5,A,bookenter,O,enter,276,1,1632.2999999523163,481471.2000000477,7170,WL,A,4.0
4,8.333000183105469,learn,51666.99981689453,Mon Jun 09 2025 19:11:01 GMT-0500 (Central Daylight Time),483671.10000014305,A,r,O,r,557,1,567.3000001907349,483103.7999999523,7170,WL,A,5.0
4,8.549000024795532,learn,51450.99997520447,Mon Jun 09 2025 19:11:01 GMT-0500 (Central Daylight Time),483887.7000000477,A,ra,O,a,178,1,783.9000000953674,483103.7999999523,7170,WL,A,5.0
4,8.89900016784668,learn,51100.99983215332,Mon Jun 09 2025 19:11:01 GMT-0500 (Central Daylight Time),484237.60000014305,A,rat,O,t,315,1,1133.8000001907349,483103.7999999523,7170,WL,A,5.0
4,9.04800009727478,learn,50951.99990272522,Mon Jun 09 2025 19:11:01 GMT-0500 (Central Daylight Time),484386.40000009537,A,ratt,O,t,112,1,1282.6000001430511,483103.7999999523,7170,WL,A,5.0
4,9.21500015258789,learn,50784.99984741211,Mon Jun 09 2025 19:11:01 GMT-0500 (Central Daylight Time),484552.90000009537,A,rattl,O,l,146,1,1449.1000001430511,483103.7999999523,7170,WL,A,5.0
4,9.365000009536743,learn,50634.99999046326,Mon Jun 09 2025 19:11:01 GMT-0500 (Central Daylight Time),484702.7999999523,A,rattle,O,e,132,1,1599.0,483103.7999999523,7170,WL,A,5.0
4,9.898000001907349,learn,50101.99999809265,Mon Jun 09 2025 19:11:01 GMT-0500 (Central Daylight Time),485236.2000000477,A,rattleenter,O,enter,526,1,2132.4000000953674,483103.7999999523,7170,WL,A,5.0
4,10.430999994277954,learn,49569.000005722046,Mon Jun 09 2025 19:11:01 GMT-0500 (Central Daylight Time),485769.2999999523,A,h,O,h,521,1,532.8999998569489,485236.40000009537,7170,WL,A,6.0
4,10.54800009727478,learn,49451.99990272522,Mon Jun 09 2025 19:11:01 GMT-0500 (Central Daylight Time),485886.40000009537,A,ha,O,a,107,1,650.0,485236.40000009537,7170,WL,A,6.0
4,10.79800009727478,learn,49201.99990272522,Mon Jun 09 2025 19:11:01 GMT-0500 (Central Daylight Time),486136.2999999523,A,har,O,r,238,1,899.8999998569489,485236.40000009537,7170,WL,A,6.0
4,11.115000009536743,learn,48884.99999046326,Mon Jun 09 2025 19:11:01 GMT-0500 (Central Daylight Time),486453.7999999523,A,harp,O,p,308,1,1217.3999998569489,485236.40000009537,7170,WL,A,6.0
4,11.515000104904175,learn,48484.999895095825,Mon Jun 09 2025 19:11:01 GMT-0500 (Central Daylight Time),486853.5,A,harpenter,O,enter,375,1,1617.0999999046326,485236.40000009537,7170,WL,A,6.0
4,12.797000169754028,learn,47202.99983024597,Mon Jun 09 2025 19:11:01 GMT-0500 (Central Daylight Time),488135.40000009537,A,r,O,r,1263,1,1281.6000001430511,486853.7999999523,7170,WL,A,7.0
4,12.930999994277954,learn,47069.000005722046,Mon Jun 09 2025 19:11:01 GMT-0500 (Central Daylight Time),488269.60000014305,A,ru,O,u,124,1,1415.8000001907349,486853.7999999523,7170,WL,A,7.0
4,13.21500015258789,learn,46784.99984741211,Mon Jun 09 2025 19:11:01 GMT-0500 (Central Daylight Time),488552.7999999523,A,rug,O,g,245,1,1699.0,486853.7999999523,7170,WL,A,7.0
4,13.763000011444092,learn,46236.99998855591,Mon Jun 09 2025 19:11:01 GMT-0500 (Central Daylight Time),489101.60000014305,A,rugenter,O,enter,515,1,2247.800000190735,486853.7999999523,7170,WL,A,7.0
4,14.514000177383423,learn,45485.99982261658,Mon Jun 09 2025 19:11:01 GMT-0500 (Central Daylight Time),489852.40000009537,A,b,O,b,736,1,750.6000001430511,489101.7999999523,7170,WL,A,8.0
4,14.746000051498413,learn,45253.99994850159,Mon Jun 09 2025 19:11:01 GMT-0500 (Central Daylight Time),490084.5,A,bo,O,o,197,1,982.7000000476837,489101.7999999523,7170,WL,A,8.0
4,14.913000106811523,learn,45086.99989318848,Mon Jun 09 2025 19:11:01 GMT-0500 (Central Daylight Time),490251.0,A,boo,O,o,143,1,1149.2000000476837,489101.7999999523,7170,WL,A,8.0
4,15.11300015449524,learn,44886.99984550476,Mon Jun 09 2025 19:11:01 GMT-0500 (Central Daylight Time),490451.2000000477,A,book,O,k,177,1,1349.4000000953674,489101.7999999523,7170,WL,A,8.0
4,15.746000051498413,learn,44253.99994850159,Mon Jun 09 2025 19:11:01 GMT-0500 (Central Daylight Time),491084.2000000477,A,bookenter,O,enter,624,1,1982.4000000953674,489101.7999999523,7170,WL,A,8.0
4,16.997000217437744,learn,43002.999782562256,Mon Jun 09 2025 19:11:01 GMT-0500 (Central Daylight Time),492334.90000009537,A,s,O,s,1242,1,1250.4000000953674,491084.5,7170,WL,A,9.0
4,17.130000114440918,learn,42869.99988555908,Mon Jun 09 2025 19:11:01 GMT-0500 (Central Daylight Time),492468.2999999523,A,sa,O,a,103,1,1383.7999999523163,491084.5,7170,WL,A,9.0
4,17.28000020980835,learn,42719.99979019165,Mon Jun 09 2025 19:11:01 GMT-0500 (Central Daylight Time),492618.10000014305,A,sal,O,l,109,1,1533.6000001430511,491084.5,7170,WL,A,9.0
4,17.563000202178955,learn,42436.999797821045,Mon Jun 09 2025 19:11:01 GMT-0500 (Central Daylight Time),492901.5,A,salt,O,t,255,1,1817.0,491084.5,7170,WL,A,9.0
4,18.229000091552734,learn,41770.999908447266,Mon Jun 09 2025 19:11:01 GMT-0500 (Central Daylight Time),493566.7999999523,A,saltenter,O,enter,638,1,2482.2999999523163,491084.5,7170,WL,A,9.0
4,20.229000091552734,learn,39770.999908447266,Mon Jun 09 2025 19:11:01 GMT-0500 (Central Daylight Time),495567.2000000477,A,t,O,t,1983,1,2000.0999999046326,493567.10000014305,7170,WL,A,10.0
4,20.34500002861023,learn,39654.99997138977,Mon Jun 09 2025 19:11:01 GMT-0500 (Central Daylight Time),495683.40000009537,A,tr,O,r,75,1,2116.2999999523163,493567.10000014305,7170,WL,A,10.0
4,20.528000116348267,learn,39471.99988365173,Mon Jun 09 2025 19:11:01 GMT-0500 (Central Daylight Time),495866.40000009537,A,tra,O,a,145,1,2299.2999999523163,493567.10000014305,7170,WL,A,10.0
4,20.66100001335144,learn,39338.99998664856,Mon Jun 09 2025 19:11:01 GMT-0500 (Central Daylight Time),495999.40000009537,A,trai,O,i,111,1,2432.2999999523163,493567.10000014305,7170,WL,A,10.0
4,20.844000101089478,learn,39155.99989891052,Mon Jun 09 2025 19:11:01 GMT-0500 (Central Daylight Time),496182.60000014305,A,train,O,n,172,1,2615.5,493567.10000014305,7170,WL,A,10.0
4,21.49400019645691,learn,38505.99980354309,Mon Jun 09 2025 19:11:01 GMT-0500 (Central Daylight Time),496832.2999999523,A,trainenter,O,enter,630,1,3265.199999809265,493567.10000014305,7170,WL,A,10.0
4,22.51200008392334,learn,37487.99991607666,Mon Jun 09 2025 19:11:01 GMT-0500 (Central Daylight Time),497850.0,A,c,O,c,998,1,1017.2999999523163,496832.7000000477,7170,WL,A,11.0
4,22.628000020980835,learn,37371.999979019165,Mon Jun 09 2025 19:11:01 GMT-0500 (Central Daylight Time),497966.5,A,ch,O,h,89,1,1133.7999999523163,496832.7000000477,7170,WL,A,11.0
4,22.861999988555908,learn,37138.00001144409,Mon Jun 09 2025 19:11:01 GMT-0500 (Central Daylight Time),498199.7999999523,A,chi,O,i,197,1,1367.0999999046326,496832.7000000477,7170,WL,A,11.0
4,23.111000061035156,learn,36888.999938964844,Mon Jun 09 2025 19:11:01 GMT-0500 (Central Daylight Time),498449.60000014305,A,chim,O,m,211,1,1616.9000000953674,496832.7000000477,7170,WL,A,11.0
4,23.344000101089478,learn,36655.99989891052,Mon Jun 09 2025 19:11:01 GMT-0500 (Central Daylight Time),498682.7000000477,A,chimn,O,n,201,1,1850.0,496832.7000000477,7170,WL,A,11.0
4,23.493000030517578,learn,36506.99996948242,Mon Jun 09 2025 19:11:01 GMT-0500 (Central Daylight Time),498831.7000000477,A,chimne,O,e,120,1,1999.0,496832.7000000477,7170,WL,A,11.0
4,23.677000045776367,learn,36322.99995422363,Mon Jun 09 2025 19:11:01 GMT-0500 (Central Daylight Time),499015.0,A,chimney,O,y,169,1,2182.2999999523163,496832.7000000477,7170,WL,A,11.0
4,24.259999990463257,learn,35740.00000953674,Mon Jun 09 2025 19:11:01 GMT-0500 (Central Daylight Time),499598.10000014305,A,chimneyenter,O,enter,572,1,2765.4000000953674,496832.7000000477,7170,WL,A,11.0
4,24.777000188827515,learn,35222.999811172485,Mon Jun 09 2025 19:11:01 GMT-0500 (Central Daylight Time),500115.60000014305,A,g,O,g,503,1,517.2000000476837,499598.40000009537,7170,WL,A,12.0
4,24.91000008583069,learn,35089.99991416931,Mon Jun 09 2025 19:11:01 GMT-0500 (Central Daylight Time),500248.60000014305,A,go,O,o,104,1,650.2000000476837,499598.40000009537,7170,WL,A,12.0
4,25.110000133514404,learn,34889.999866485596,Mon Jun 09 2025 19:11:01 GMT-0500 (Central Daylight Time),500447.90000009537,A,gol,O,l,161,1,849.5,499598.40000009537,7170,WL,A,12.0
4,25.259999990463257,learn,34740.00000953674,Mon Jun 09 2025 19:11:01 GMT-0500 (Central Daylight Time),500597.7999999523,A,gold,O,d,140,1,999.3999998569489,499598.40000009537,7170,WL,A,12.0
4,25.909000158309937,learn,34090.99984169006,Mon Jun 09 2025 19:11:01 GMT-0500 (Central Daylight Time),501247.7000000477,A,goldenter,O,enter,639,1,1649.2999999523163,499598.40000009537,7170,WL,A,12.0
4,27.95900011062622,learn,32040.99988937378,Mon Jun 09 2025 19:11:01 GMT-0500 (Central Daylight Time),503296.7999999523,A,l,O,l,2037,1,2048.899999856949,501247.90000009537,7170,WL,A,13.0
4,28.175000190734863,learn,31824.999809265137,Mon Jun 09 2025 19:11:01 GMT-0500 (Central Daylight Time),503513.5,A,lo,O,o,195,1,2265.5999999046326,501247.90000009537,7170,WL,A,13.0
4,28.37600016593933,learn,31623.99983406067,Mon Jun 09 2025 19:11:01 GMT-0500 (Central Daylight Time),503714.60000014305,A,log,O,g,188,1,2466.7000000476837,501247.90000009537,7170,WL,A,13.0
4,28.742000102996826,learn,31257.999897003174,Mon Jun 09 2025 19:11:01 GMT-0500 (Central Daylight Time),504080.0,A,logenter,O,enter,328,1,2832.0999999046326,501247.90000009537,7170,WL,A,13.0
4,32.45700001716614,learn,27542.999982833862,Mon Jun 09 2025 19:11:01 GMT-0500 (Central Daylight Time),507795.2999999523,A,m,O,m,3701,1,3715.0,504080.2999999523,7170,WL,A,14.0
4,32.574000120162964,learn,27425.999879837036,Mon Jun 09 2025 19:11:01 GMT-0500 (Central Daylight Time),507911.90000009537,A,me,O,e,106,1,3831.600000143051,504080.2999999523,7170,WL,A,14.0
4,32.741000175476074,learn,27258.999824523926,Mon Jun 09 2025 19:11:01 GMT-0500 (Central Daylight Time),508078.7000000477,A,mea,O,a,148,1,3998.4000000953674,504080.2999999523,7170,WL,A,14.0
4,32.991000175476074,learn,27008.999824523926,Mon Jun 09 2025 19:11:01 GMT-0500 (Central Daylight Time),508329.60000014305,A,mead,O,d,239,1,4249.300000190735,504080.2999999523,7170,WL,A,14.0
4,33.25800013542175,learn,26741.999864578247,Mon Jun 09 2025 19:11:01 GMT-0500 (Central Daylight Time),508596.0,A,meado,O,o,226,1,4515.700000047684,504080.2999999523,7170,WL,A,14.0
4,33.407999992370605,learn,26592.000007629395,Mon Jun 09 2025 19:11:01 GMT-0500 (Central Daylight Time),508746.2999999523,A,meadow,O,w,115,1,4666.0,504080.2999999523,7170,WL,A,14.0
4,33.94000005722046,learn,26059.99994277954,Mon Jun 09 2025 19:11:01 GMT-0500 (Central Daylight Time),509278.10000014305,A,meadowenter,O,enter,508,1,5197.800000190735,504080.2999999523,7170,WL,A,14.0
4,38.040000200271606,learn,21959.999799728394,Mon Jun 09 2025 19:11:01 GMT-0500 (Central Daylight Time),513377.90000009537,A,s,O,s,4086,1,4099.5,509278.40000009537,7170,WL,A,15.0
4,38.18900012969971,learn,21810.999870300293,Mon Jun 09 2025 19:11:01 GMT-0500 (Central Daylight Time),513526.7999999523,A,sa,O,a,118,1,4248.399999856949,509278.40000009537,7170,WL,A,15.0
4,38.355000019073486,learn,21644.999980926514,Mon Jun 09 2025 19:11:01 GMT-0500 (Central Daylight Time),513693.40000009537,A,sal,O,l,157,1,4415.0,509278.40000009537,7170,WL,A,15.0
4,38.57200002670288,learn,21427.99997329712,Mon Jun 09 2025 19:11:01 GMT-0500 (Central Daylight Time),513910.10000014305,A,salt,O,t,207,1,4631.700000047684,509278.40000009537,7170,WL,A,15.0
4,38.75500011444092,learn,21244.999885559082,Mon Jun 09 2025 19:11:01 GMT-0500 (Central Daylight Time),514093.40000009537,A,saltenter,O,enter,167,1,4815.0,509278.40000009537,7170,WL,A,15.0
5,1.2660000324249268,learn,60000.0,Mon Jun 09 2025 19:11:01 GMT-0500 (Central Daylight Time),580371.7000000477,A,k,O,k,1232,1,1264.7999999523163,579106.9000000954,7170,WL,A,1.0
5,1.4490001201629639,learn,60000.0,Mon Jun 09 2025 19:11:01 GMT-0500 (Central Daylight Time),580554.9000000954,A,ke,O,e,160,1,1448.0,579106.9000000954,7170,WL,A,1.0
5,1.6319999694824219,learn,60000.0,Mon Jun 09 2025 19:11:01 GMT-0500 (Central Daylight Time),580738.100000143,A,key,O,y,161,1,1631.2000000476837,579106.9000000954,7170,WL,A,1.0
5,2.365000009536743,learn,60000.0,Mon Jun 09 2025 19:11:01 GMT-0500 (Central Daylight Time),581471.4000000954,A,keyenter,O,enter,714,1,2364.5,579106.9000000954,7170,WL,A,1.0
5,2.633000135421753,learn,60000.0,Mon Jun 09 2025 19:11:01 GMT-0500 (Central Daylight Time),581738.7999999523,A,r,O,r,247,1,267.19999980926514,581471.600000143,7170,WL,A,2.0
5,2.7829999923706055,learn,60000.0,Mon Jun 09 2025 19:11:01 GMT-0500 (Central Daylight Time),581888.7999999523,A,ra,O,a,112,1,417.19999980926514,581471.600000143,7170,WL,A,2.0
5,3.1649999618530273,learn,60000.0,Mon Jun 09 2025 19:11:01 GMT-0500 (Central Daylight Time),582271.0,A,rat,O,t,352,1,799.3999998569489,581471.600000143,7170,WL,A,2.0
5,3.2980000972747803,learn,60000.0,Mon Jun 09 2025 19:11:01 GMT-0500 (Central Daylight Time),582404.2000000477,A,ratt,O,t,117,1,932.5999999046326,581471.600000143,7170,WL,A,2.0
5,3.4650001525878906,learn,60000.0,Mon Jun 09 2025 19:11:01 GMT-0500 (Central Daylight Time),582571.5,A,rattl,O,l,144,1,1099.8999998569489,581471.600000143,7170,WL,A,2.0
5,3.615000009536743,learn,60000.0,Mon Jun 09 2025 19:11:01 GMT-0500 (Central Daylight Time),582721.2999999523,A,rattle,O,e,122,1,1249.6999998092651,581471.600000143,7170,WL,A,2.0
5,5.081000089645386,learn,60000.0,Mon Jun 09 2025 19:11:01 GMT-0500 (Central Daylight Time),584187.100000143,A,rattleenter,O,enter,1445,1,2715.5,581471.600000143,7170,WL,A,2.0
5,6.614000082015991,learn,60000.0,Mon Jun 09 2025 19:11:01 GMT-0500 (Central Daylight Time),585720.5,A,b,O,b,1514,1,1533.0999999046326,584187.4000000954,7170,WL,A,3.0
5,6.930999994277954,learn,60000.0,Mon Jun 09 2025 19:11:01 GMT-0500 (Central Daylight Time),586037.4000000954,A,bo,O,o,293,1,1850.0,584187.4000000954,7170,WL,A,3.0
5,7.0970001220703125,learn,60000.0,Mon Jun 09 2025 19:11:01 GMT-0500 (Central Daylight Time),586203.100000143,A,boo,O,o,121,1,2015.7000000476837,584187.4000000954,7170,WL,A,3.0
5,7.2799999713897705,learn,60000.0,Mon Jun 09 2025 19:11:01 GMT-0500 (Central Daylight Time),586386.4000000954,A,book,O,k,170,1,2199.0,584187.4000000954,7170,WL,A,3.0
5,7.580000162124634,learn,60000.0,Mon Jun 09 2025 19:11:01 GMT-0500 (Central Daylight Time),586686.2999999523,A,bookenter,O,enter,282,1,2498.899999856949,584187.4000000954,7170,WL,A,3.0
5,8.213000059127808,learn,60000.0,Mon Jun 09 2025 19:11:01 GMT-0500 (Central Daylight Time),587319.4000000954,A,f,O,f,614,1,632.9000000953674,586686.5,7170,WL,A,4.0
5,8.312999963760376,learn,60000.0,Mon Jun 09 2025 19:11:01 GMT-0500 (Central Daylight Time),587419.2999999523,A,fl,O,l,85,1,732.7999999523163,586686.5,7170,WL,A,4.0
5,8.52999997138977,learn,60000.0,Mon Jun 09 2025 19:11:01 GMT-0500 (Central Daylight Time),587636.0,A,flo,O,o,201,1,949.5,586686.5,7170,WL,A,4.0
5,8.680000066757202,learn,60000.0,Mon Jun 09 2025 19:11:01 GMT-0500 (Central Daylight Time),587786.0,A,flow,O,w,136,1,1099.5,586686.5,7170,WL,A,4.0
5,8.946000099182129,learn,60000.0,Mon Jun 09 2025 19:11:01 GMT-0500 (Central Daylight Time),588052.4000000954,A,flowe,O,e,258,1,1365.9000000953674,586686.5,7170,WL,A,4.0
5,9.163000106811523,learn,60000.0,Mon Jun 09 2025 19:11:01 GMT-0500 (Central Daylight Time),588269.600000143,A,flower,O,r,207,1,1583.1000001430511,586686.5,7170,WL,A,4.0
5,9.696000099182129,learn,60000.0,Mon Jun 09 2025 19:11:01 GMT-0500 (Central Daylight Time),588802.4000000954,A,flowerenter,O,enter,501,1,2115.9000000953674,586686.5,7170,WL,A,4.0
5,10.128999948501587,learn,60000.0,Mon Jun 09 2025 19:11:01 GMT-0500 (Central Daylight Time),589235.4000000954,A,t,O,t,418,1,432.7000000476837,588802.7000000477,7170,WL,A,5.0
5,10.213000059127808,learn,60000.0,Mon Jun 09 2025 19:11:01 GMT-0500 (Central Daylight Time),589318.600000143,A,tr,O,r,72,1,515.9000000953674,588802.7000000477,7170,WL,A,5.0
5,10.396000146865845,learn,60000.0,Mon Jun 09 2025 19:11:01 GMT-0500 (Central Daylight Time),589501.7999999523,A,tra,O,a,174,1,699.0999999046326,588802.7000000477,7170,WL,A,5.0
5,10.578999996185303,learn,60000.0,Mon Jun 09 2025 19:11:01 GMT-0500 (Central Daylight Time),589685.2999999523,A,trai,O,i,167,1,882.5999999046326,588802.7000000477,7170,WL,A,5.0
5,10.796000003814697,learn,60000.0,Mon Jun 09 2025 19:11:01 GMT-0500 (Central Daylight Time),589901.600000143,A,train,O,n,206,1,1098.9000000953674,588802.7000000477,7170,WL,A,5.0
5,11.361999988555908,learn,60000.0,Mon Jun 09 2025 19:11:01 GMT-0500 (Central Daylight Time),590468.2999999523,A,trainenter,O,enter,559,1,1665.5999999046326,588802.7000000477,7170,WL,A,5.0
5,11.962000131607056,learn,60000.0,Mon Jun 09 2025 19:11:01 GMT-0500 (Central Daylight Time),591068.100000143,A,h,O,h,584,1,599.5,590468.600000143,7170,WL,A,6.0
5,12.095999956130981,learn,60000.0,Mon Jun 09 2025 19:11:01 GMT-0500 (Central Daylight Time),591202.2000000477,A,ha,O,a,111,1,733.5999999046326,590468.600000143,7170,WL,A,6.0
5,12.36300015449524,learn,60000.0,Mon Jun 09 2025 19:11:01 GMT-0500 (Central Daylight Time),591468.7000000477,A,har,O,r,238,1,1000.0999999046326,590468.600000143,7170,WL,A,6.0
5,12.729000091552734,learn,60000.0,Mon Jun 09 2025 19:11:01 GMT-0500 (Central Daylight Time),591834.7999999523,A,harp,O,p,337,1,1366.1999998092651,590468.600000143,7170,WL,A,6.0
5,13.51200008392334,learn,60000.0,Mon Jun 09 2025 19:11:01 GMT-0500 (Central Daylight Time),592617.7000000477,A,harpenter,O,enter,758,1,2149.0999999046326,590468.600000143,7170,WL,A,6.0
5,14.378999948501587,learn,60000.0,Mon Jun 09 2025 19:11:01 GMT-0500 (Central Daylight Time),593484.9000000954,A,s,O,s,852,1,866.9000000953674,592618.0,7170,WL,A,7.0
5,14.57800006866455,learn,60000.0,Mon Jun 09 2025 19:11:01 GMT-0500 (Central Daylight Time),593683.7000000477,A,sa,O,a,172,1,1065.7000000476837,592618.0,7170,WL,A,7.0
5,14.894000053405762,learn,60000.0,Mon Jun 09 2025 19:11:01 GMT-0500 (Central Daylight Time),594000.4000000954,A,sal,O,l,305,1,1382.4000000953674,592618.0,7170,WL,A,7.0
5,15.279000043869019,learn,60000.0,Mon Jun 09 2025 19:11:01 GMT-0500 (Central Daylight Time),594384.7999999523,A,salt,O,t,365,1,1766.7999999523163,592618.0,7170,WL,A,7.0
5,16.361000061035156,learn,60000.0,Mon Jun 09 2025 19:11:01 GMT-0500 (Central Daylight Time),595466.5,A,saltenter,O,enter,1041,1,2848.5,592618.0,7170,WL,A,7.0
5,18.111999988555908,learn,60000.0,Mon Jun 09 2025 19:11:01 GMT-0500 (Central Daylight Time),597217.0,A,m,O,m,1739,1,1750.2000000476837,595466.7999999523,7170,WL,A,8.0
5,18.26200008392334,learn,60000.0,Mon Jun 09 2025 19:11:01 GMT-0500 (Central Daylight Time),597367.100000143,A,me,O,e,119,1,1900.3000001907349,595466.7999999523,7170,WL,A,8.0
5,18.41100001335144,learn,60000.0,Mon Jun 09 2025 19:11:01 GMT-0500 (Central Daylight Time),597516.2999999523,A,mea,O,a,127,1,2049.5,595466.7999999523,7170,WL,A,8.0
5,18.67799997329712,learn,60000.0,Mon Jun 09 2025 19:11:01 GMT-0500 (Central Daylight Time),597782.4000000954,A,mead,O,d,241,1,2315.600000143051,595466.7999999523,7170,WL,A,8.0
5,18.878000020980835,learn,60000.0,Mon Jun 09 2025 19:11:01 GMT-0500 (Central Daylight Time),597982.4000000954,A,meado,O,o,182,1,2515.600000143051,595466.7999999523,7170,WL,A,8.0
5,19.061000108718872,learn,60000.0,Mon Jun 09 2025 19:11:01 GMT-0500 (Central Daylight Time),598165.600000143,A,meadow,O,w,174,1,2698.800000190735,595466.7999999523,7170,WL,A,8.0
5,19.844000101089478,learn,60000.0,Mon Jun 09 2025 19:11:01 GMT-0500 (Central Daylight Time),598948.7000000477,A,meadowenter,O,enter,766,1,3481.9000000953674,595466.7999999523,7170,WL,A,8.0
5,20.811000108718872,learn,60000.0,Mon Jun 09 2025 19:11:01 GMT-0500 (Central Daylight Time),599916.2000000477,A,h,O,h,945,1,967.0,598949.2000000477,7170,WL,A,9.0
5,20.960999965667725,learn,60000.0,Mon Jun 09 2025 19:11:01 GMT-0500 (Central Daylight Time),600066.2000000477,A,ha,O,a,114,1,1117.0,598949.2000000477,7170,WL,A,9.0
5,21.24500012397766,learn,60000.0,Mon Jun 09 2025 19:11:01 GMT-0500 (Central Daylight Time),600349.4000000954,A,har,O,r,255,1,1400.2000000476837,598949.2000000477,7170,WL,A,9.0
5,21.561000108718872,learn,60000.0,Mon Jun 09 2025 19:11:01 GMT-0500 (Central Daylight Time),600665.9000000954,A,harp,O,p,286,1,1716.7000000476837,598949.2000000477,7170,WL,A,9.0
5,22.292999982833862,learn,60000.0,Mon Jun 09 2025 19:11:01 GMT-0500 (Central Daylight Time),601398.100000143,A,harpenter,O,enter,707,1,2448.9000000953674,598949.2000000477,7170,WL,A,9.0
5,22.776999950408936,learn,60000.0,Mon Jun 09 2025 19:11:01 GMT-0500 (Central Daylight Time),601882.2000000477,A,r,O,r,464,1,483.90000009536743,601398.2999999523,7170,WL,A,10.0
5,22.960000038146973,learn,60000.0,Mon Jun 09 2025 19:11:01 GMT-0500 (Central Daylight Time),602064.5,A,ra,O,a,151,1,666.2000000476837,601398.2999999523,7170,WL,A,10.0
5,23.409000158309937,learn,60000.0,Mon Jun 09 2025 19:11:01 GMT-0500 (Central Daylight Time),602514.2999999523,A,rat,O,t,436,1,1116.0,601398.2999999523,7170,WL,A,10.0
5,23.544000148773193,learn,60000.0,Mon Jun 09 2025 19:11:01 GMT-0500 (Central Daylight Time),602648.7000000477,A,ratt,O,t,123,1,1250.4000000953674,601398.2999999523,7170,WL,A,10.0
5,23.677000045776367,learn,60000.0,Mon Jun 09 2025 19:11:01 GMT-0500 (Central Daylight Time),602781.7000000477,A,rattl,O,l,103,1,1383.4000000953674,601398.2999999523,7170,WL,A,10.0
5,23.776000022888184,learn,60000.0,Mon Jun 09 2025 19:11:01 GMT-0500 (Central Daylight Time),602881.2000000477,A,rattle,O,e,72,1,1482.9000000953674,601398.2999999523,7170,WL,A,10.0
5,24.276000022888184,learn,60000.0,Mon Jun 09 2025 19:11:01 GMT-0500 (Central Daylight Time),603380.7999999523,A,rattleenter,O,enter,478,1,1982.5,601398.2999999523,7170,WL,A,10.0
5,27.592000007629395,learn,60000.0,Mon Jun 09 2025 19:11:01 GMT-0500 (Central Daylight Time),606696.7000000477,A,g,O,g,3304,1,3315.7000000476837,603381.0,7170,WL,A,11.0
5,27.725000143051147,learn,60000.0,Mon Jun 09 2025 19:11:01 GMT-0500 (Central Daylight Time),606829.600000143,A,go,O,o,116,1,3448.600000143051,603381.0,7170,WL,A,11.0
5,27.909000158309937,learn,60000.0,Mon Jun 09 2025 19:11:01 GMT-0500 (Central Daylight Time),607014.100000143,A,gol,O,l,167,1,3633.100000143051,603381.0,7170,WL,A,11.0
5,28.075000047683716,learn,60000.0,Mon Jun 09 2025 19:11:01 GMT-0500 (Central Daylight Time),607180.100000143,A,gold,O,d,145,1,3799.100000143051,603381.0,7170,WL,A,11.0
5,28.54100012779236,learn,60000.0,Mon Jun 09 2025 19:11:01 GMT-0500 (Central Daylight Time),607646.0,A,goldenter,O,enter,445,1,4265.0,603381.0,7170,WL,A,11.0
5,28.907999992370605,learn,60000.0,Mon Jun 09 2025 19:11:01 GMT-0500 (Central Daylight Time),608012.5,A,l,O,l,359,1,366.2000000476837,607646.2999999523,7170,WL,A,12.0
5,29.124000072479248,learn,60000.0,Mon Jun 09 2025 19:11:01 GMT-0500 (Central Daylight Time),608229.100000143,A,lo,O,o,208,1,582.8000001907349,607646.2999999523,7170,WL,A,12.0
5,29.29100012779236,learn,60000.0,Mon Jun 09 2025 19:11:01 GMT-0500 (Central Daylight Time),608395.7000000477,A,log,O,g,160,1,749.4000000953674,607646.2999999523,7170,WL,A,12.0
5,29.54100012779236,learn,60000.0,Mon Jun 09 2025 19:11:01 GMT-0500 (Central Daylight Time),608645.7000000477,A,logenter,O,enter,241,1,999.4000000953674,607646.2999999523,7170,WL,A,12.0
5,30.14199995994568,learn,60000.0,Mon Jun 09 2025 19:11:01 GMT-0500 (Central Daylight Time),609246.5,A,r,O,r,585,1,600.5999999046326,608645.9000000954,7170,WL,A,13.0
5,30.308000087738037,learn,60000.0,Mon Jun 09 2025 19:11:01 GMT-0500 (Central Daylight Time),609412.7999999523,A,ru,O,u,136,1,766.8999998569489,608645.9000000954,7170,WL,A,13.0
5,30.473999977111816,learn,60000.0,Mon Jun 09 2025 19:11:01 GMT-0500 (Central Daylight Time),609578.5,A,rug,O,g,133,1,932.5999999046326,608645.9000000954,7170,WL,A,13.0
5,31.057000160217285,learn,60000.0,Mon Jun 09 2025 19:11:01 GMT-0500 (Central Daylight Time),610161.9000000954,A,rugenter,O,enter,562,1,1516.0,608645.9000000954,7170,WL,A,13.0
5,44.085999965667725,learn,60000.0,Mon Jun 09 2025 19:11:01 GMT-0500 (Central Daylight Time),623190.9000000954,A,enter,O,enter,13011,1,13028.700000047684,610162.2000000477,7170,WL,A,14.0
5,45.00200009346008,learn,60000.0,Mon Jun 09 2025 19:11:01 GMT-0500 (Central Daylight Time),624107.2000000477,A,enter,O,enter,894,1,916.0,623191.2000000477,7170,WL,A,15.0
6,1.0829999446868896,distr,58917.00005531311,Mon Jun 09 2025 19:11:01 GMT-0500 (Central Daylight Time),699100.2000000477,B,c,O,c,1045,1,1082.4000000953674,698017.7999999523,7170,WL,A,1.0
6,1.2149999141693115,distr,58785.00008583069,Mon Jun 09 2025 19:11:01 GMT-0500 (Central Daylight Time),699233.0,B,ch,O,h,100,1,1215.2000000476837,698017.7999999523,7170,WL,A,1.0
6,1.383000135421753,distr,58616.99986457825,Mon Jun 09 2025 19:11:01 GMT-0500 (Central Daylight Time),699400.2999999523,B,cha,O,a,149,1,1382.5,698017.7999999523,7170,WL,A,1.0
6,1.7309999465942383,distr,58269.00005340576,Mon Jun 09 2025 19:11:01 GMT-0500 (Central Daylight Time),699749.100000143,B,chai,O,i,315,1,1731.3000001907349,698017.7999999523,7170,WL,A,1.0
6,2.0820000171661377,distr,57917.99998283386,Mon Jun 09 2025 19:11:01 GMT-0500 (Central Daylight Time),700100.0,B,chair,O,r,336,1,2082.2000000476837,698017.7999999523,7170,WL,A,1.0
6,2.697999954223633,distr,57302.00004577637,Mon Jun 09 2025 19:11:01 GMT-0500 (Central Daylight Time),700715.2000000477,B,chairenter,O,enter,574,1,2697.4000000953674,698017.7999999523,7170,WL,A,1.0
6,3.1640000343322754,distr,56835.999965667725,Mon Jun 09 2025 19:11:01 GMT-0500 (Central Daylight Time),701181.7000000477,B,p,O,p,456,1,466.09999990463257,700715.600000143,7170,WL,A,2.0
6,3.314000129699707,distr,56685.99987030029,Mon Jun 09 2025 19:11:01 GMT-0500 (Central Daylight Time),701331.7000000477,B,pe,O,e,142,1,616.0999999046326,700715.600000143,7170,WL,A,2.0
6,3.8480000495910645,distr,56151.999950408936,Mon Jun 09 2025 19:11:01 GMT-0500 (Central Daylight Time),701865.7999999523,B,pea,O,a,521,1,1150.1999998092651,700715.600000143,7170,WL,A,2.0
6,4.232000112533569,distr,55767.99988746643,Mon Jun 09 2025 19:11:01 GMT-0500 (Central Daylight Time),702249.2999999523,B,peac,O,c,354,1,1533.6999998092651,700715.600000143,7170,WL,A,2.0
6,4.365000009536743,distr,55634.99999046326,Mon Jun 09 2025 19:11:01 GMT-0500 (Central Daylight Time),702382.4000000954,B,peach,O,h,103,1,1666.7999999523163,700715.600000143,7170,WL,A,2.0
6,5.615000009536743,distr,54384.99999046326,Mon Jun 09 2025 19:11:01 GMT-0500 (Central Daylight Time),703632.2999999523,B,peachenter,O,enter,1227,1,2916.699999809265,700715.600000143,7170,WL,A,2.0
6,6.814000129699707,distr,53185.99987030029,Mon Jun 09 2025 19:11:01 GMT-0500 (Central Daylight Time),704831.7999999523,B,c,O,c,1182,1,1199.1999998092651,703632.600000143,7170,WL,A,3.0
6,6.930000066757202,distr,53069.9999332428,Mon Jun 09 2025 19:11:01 GMT-0500 (Central Daylight Time),704947.9000000954,B,co,O,o,90,1,1315.2999999523163,703632.600000143,7170,WL,A,3.0
6,7.21399998664856,distr,52786.00001335144,Mon Jun 09 2025 19:11:01 GMT-0500 (Central Daylight Time),705231.7999999523,B,cou,O,u,257,1,1599.1999998092651,703632.600000143,7170,WL,A,3.0
6,7.463000059127808,distr,52536.99994087219,Mon Jun 09 2025 19:11:01 GMT-0500 (Central Daylight Time),705480.5,B,coun,O,n,211,1,1847.8999998569489,703632.600000143,7170,WL,A,3.0
6,7.730999946594238,distr,52269.00005340576,Mon Jun 09 2025 19:11:01 GMT-0500 (Central Daylight Time),705748.9000000954,B,count,O,t,260,1,2116.2999999523163,703632.600000143,7170,WL,A,3.0
6,7.86299991607666,distr,52137.00008392334,Mon Jun 09 2025 19:11:01 GMT-0500 (Central Daylight Time),705880.7999999523,B,county,O,y,102,1,2248.199999809265,703632.600000143,7170,WL,A,3.0
6,8.76200008392334,distr,51237.99991607666,Mon Jun 09 2025 19:11:01 GMT-0500 (Central Daylight Time),706780.100000143,B,countyenter,O,enter,877,1,3147.5,703632.600000143,7170,WL,A,3.0
6,10.378999948501587,distr,49621.00005149841,Mon Jun 09 2025 19:11:01 GMT-0500 (Central Daylight Time),708396.2000000477,B,s,O,s,1608,1,1615.9000000953674,706780.2999999523,7170,WL,A,4.0
6,10.529000043869019,distr,49470.99995613098,Mon Jun 09 2025 19:11:01 GMT-0500 (Central Daylight Time),708546.2000000477,B,sa,O,a,128,1,1765.9000000953674,706780.2999999523,7170,WL,A,4.0
6,10.729000091552734,distr,49270.999908447266,Mon Jun 09 2025 19:11:01 GMT-0500 (Central Daylight Time),708747.0,B,saw,O,w,180,1,1966.7000000476837,706780.2999999523,7170,WL,A,4.0
6,12.194999933242798,distr,47805.0000667572,Mon Jun 09 2025 19:11:01 GMT-0500 (Central Daylight Time),710212.100000143,B,sawenter,O,enter,1438,1,3431.800000190735,706780.2999999523,7170,WL,A,4.0
6,18.694000005722046,distr,41305.999994277954,Mon Jun 09 2025 19:11:01 GMT-0500 (Central Daylight Time),716710.7999999523,B,h,O,h,6490,1,6498.399999856949,710212.4000000954,7170,WL,A,5.0
6,18.99399995803833,distr,41006.00004196167,Mon Jun 09 2025 19:11:01 GMT-0500 (Central Daylight Time),717010.0,B,ho,O,o,268,1,6797.599999904633,710212.4000000954,7170,WL,A,5.0
6,19.460999965667725,distr,40539.000034332275,Mon Jun 09 2025 19:11:01 GMT-0500 (Central Daylight Time),717477.600000143,B,hou,O,u,461,1,7265.200000047684,710212.4000000954,7170,WL,A,5.0
6,19.644999980926514,distr,40355.000019073486,Mon Jun 09 2025 19:11:01 GMT-0500 (Central Daylight Time),717661.7000000477,B,hous,O,s,158,1,7449.299999952316,710212.4000000954,7170,WL,A,5.0
6,19.960999965667725,distr,40039.000034332275,Mon Jun 09 2025 19:11:01 GMT-0500 (Central Daylight Time),717977.5,B,house,O,e,279,1,7765.099999904633,710212.4000000954,7170,WL,A,5.0
6,20.509999990463257,distr,39490.00000953674,Mon Jun 09 2025 19:11:01 GMT-0500 (Central Daylight Time),718526.2000000477,B,houseenter,O,enter,520,1,8313.799999952316,710212.4000000954,7170,WL,A,5.0
6,25.509000062942505,distr,34490.999937057495,Mon Jun 09 2025 19:11:01 GMT-0500 (Central Daylight Time),723525.600000143,B,p,O,p,4983,1,4999.200000047684,718526.4000000954,7170,WL,A,6.0
6,25.693000078201294,distr,34306.999921798706,Mon Jun 09 2025 19:11:01 GMT-0500 (Central Daylight Time),723709.2999999523,B,pl,O,l,156,1,5182.899999856949,718526.4000000954,7170,WL,A,6.0
6,25.842999935150146,distr,34157.00006484985,Mon Jun 09 2025 19:11:01 GMT-0500 (Central Daylight Time),723859.0,B,pla,O,a,119,1,5332.599999904633,718526.4000000954,7170,WL,A,6.0
6,26.026000022888184,distr,33973.99997711182,Mon Jun 09 2025 19:11:01 GMT-0500 (Central Daylight Time),724042.100000143,B,plai,O,i,153,1,5515.700000047684,718526.4000000954,7170,WL,A,6.0
6,26.259000062942505,distr,33740.999937057495,Mon Jun 09 2025 19:11:01 GMT-0500 (Central Daylight Time),724275.4000000954,B,plain,O,n,194,1,5749.0,718526.4000000954,7170,WL,A,6.0
6,28.97499990463257,distr,31025.00009536743,Mon Jun 09 2025 19:11:01 GMT-0500 (Central Daylight Time),726991.0,B,plai,O,backspace,2689,1,8464.599999904633,718526.4000000954,7170,WL,A,6.0
6,29.19099998474121,distr,30809.00001525879,Mon Jun 09 2025 19:11:01 GMT-0500 (Central Daylight Time),727207.100000143,B,pla,O,backspace,180,1,8680.700000047684,718526.4000000954,7170,WL,A,6.0
6,29.957000017166138,distr,30042.999982833862,Mon Jun 09 2025 19:11:01 GMT-0500 (Central Daylight Time),727973.100000143,B,plan,O,n,739,1,9446.700000047684,718526.4000000954,7170,WL,A,6.0
6,30.141000032424927,distr,29858.999967575073,Mon Jun 09 2025 19:11:01 GMT-0500 (Central Daylight Time),728157.5,B,plane,O,e,168,1,9631.099999904633,718526.4000000954,7170,WL,A,6.0
6,30.306999921798706,distr,29693.000078201294,Mon Jun 09 2025 19:11:01 GMT-0500 (Central Daylight Time),728322.9000000954,B,planeenter,O,enter,124,1,9796.5,718526.4000000954,7170,WL,A,6.0
6,36.53800010681152,distr,23461.999893188477,Mon Jun 09 2025 19:11:01 GMT-0500 (Central Daylight Time),734554.4000000954,B,enter,O,enter,6210,1,6231.299999952316,728323.100000143,7170,WL,A,7.0
6,37.08800005912781,distr,22911.999940872192,Mon Jun 09 2025 19:11:01 GMT-0500 (Central Daylight Time),735104.2000000477,B,enter,O,enter,538,1,549.4000000953674,734554.7999999523,7170,WL,A,8.0
6,37.520999908447266,distr,22479.000091552734,Mon Jun 09 2025 19:11:01 GMT-0500 (Central Daylight Time),735537.4000000954,B,enter,O,enter,413,1,433.0,735104.4000000954,7170,WL,A,9.0
6,37.83800005912781,distr,22161.999940872192,Mon Jun 09 2025 19:11:01 GMT-0500 (Central Daylight Time),735854.0,B,enter,O,enter,300,1,316.2999999523163,735537.7000000477,7170,WL,A,10.0
6,38.30399990081787,distr,21696.00009918213,Mon Jun 09 2025 19:11:01 GMT-0500 (Central Daylight Time),736320.2999999523,B,enter,O,enter,455,1,466.0,735854.2999999523,7170,WL,A,11.0
6,38.98699998855591,distr,21013.00001144409,Mon Jun 09 2025 19:11:01 GMT-0500 (Central Daylight Time),737003.4000000954,B,enter,O,enter,661,1,682.7000000476837,736320.7000000477,7170,WL,A,12.0
6,39.38700008392334,distr,20612.99991607666,Mon Jun 09 2025 19:11:01 GMT-0500 (Central Daylight Time),737403.2999999523,B,enter,O,enter,394,1,399.5,737003.7999999523,7170,WL,A,13.0
6,39.7039999961853,distr,20296.000003814697,Mon Jun 09 2025 19:11:01 GMT-0500 (Central Daylight Time),737719.9000000954,B,enter,O,enter,305,1,316.2999999523163,737403.600000143,7170,WL,A,14.0
6,40.187000036239624,distr,19812.999963760376,Mon Jun 09 2025 19:11:01 GMT-0500 (Central Daylight Time),738203.2000000477,B,enter,O,enter,469,1,483.0,737720.2000000477,7170,WL,A,15.0
7,1.7320001125335693,immed,58267.99988746643,Mon Jun 09 2025 19:11:01 GMT-0500 (Central Daylight Time),748932.9000000954,A,b,O,b,1708,1,1731.4000000953674,747201.5,7170,WL,A,1.0
7,1.9650001525878906,immed,58034.99984741211,Mon Jun 09 2025 19:11:01 GMT-0500 (Central Daylight Time),749166.2000000477,A,bo,O,o,223,1,1964.7000000476837,747201.5,7170,WL,A,1.0
7,2.131999969482422,immed,57868.00003051758,Mon Jun 09 2025 19:11:01 GMT-0500 (Central Daylight Time),749332.9000000954,A,boo,O,o,158,1,2131.4000000953674,747201.5,7170,WL,A,1.0
7,2.3320000171661377,immed,57667.99998283386,Mon Jun 09 2025 19:11:01 GMT-0500 (Central Daylight Time),749533.7999999523,A,book,O,k,174,1,2332.2999999523163,747201.5,7170,WL,A,1.0
7,2.8980000019073486,immed,57101.99999809265,Mon Jun 09 2025 19:11:01 GMT-0500 (Central Daylight Time),750099.2000000477,A,bookenter,O,enter,533,1,2897.7000000476837,747201.5,7170,WL,A,1.0
7,4.115000009536743,immed,55884.99999046326,Mon Jun 09 2025 19:11:01 GMT-0500 (Central Daylight Time),751316.600000143,A,f,O,f,1203,1,1217.2000000476837,750099.4000000954,7170,WL,A,2.0
7,4.2820000648498535,immed,55717.99993515015,Mon Jun 09 2025 19:11:01 GMT-0500 (Central Daylight Time),751483.100000143,A,fl,O,l,135,1,1383.7000000476837,750099.4000000954,7170,WL,A,2.0
7,4.481000185012817,immed,55518.99981498718,Mon Jun 09 2025 19:11:01 GMT-0500 (Central Daylight Time),751682.7000000477,A,flo,O,o,169,1,1583.2999999523163,750099.4000000954,7170,WL,A,2.0
7,4.63100004196167,immed,55368.99995803833,Mon Jun 09 2025 19:11:01 GMT-0500 (Central Daylight Time),751831.9000000954,A,flow,O,w,114,1,1732.5,750099.4000000954,7170,WL,A,2.0
7,4.8470001220703125,immed,55152.99987792969,Mon Jun 09 2025 19:11:01 GMT-0500 (Central Daylight Time),752048.5,A,flowe,O,e,205,1,1949.0999999046326,750099.4000000954,7170,WL,A,2.0
7,5.065000057220459,immed,54934.99994277954,Mon Jun 09 2025 19:11:01 GMT-0500 (Central Daylight Time),752266.2000000477,A,flower,O,r,197,1,2166.7999999523163,750099.4000000954,7170,WL,A,2.0
7,5.314000129699707,immed,54685.99987030029,Mon Jun 09 2025 19:11:01 GMT-0500 (Central Daylight Time),752515.100000143,A,flowerenter,O,enter,207,1,2415.7000000476837,750099.4000000954,7170,WL,A,2.0
7,5.698000192642212,immed,54301.99980735779,Mon Jun 09 2025 19:11:01 GMT-0500 (Central Daylight Time),752899.7000000477,A,m,O,m,370,1,384.2999999523163,752515.4000000954,7170,WL,A,3.0
7,5.831000089645386,immed,54168.999910354614,Mon Jun 09 2025 19:11:01 GMT-0500 (Central Daylight Time),753032.600000143,A,me,O,e,103,1,517.2000000476837,752515.4000000954,7170,WL,A,3.0
7,6.0299999713897705,immed,53970.00002861023,Mon Jun 09 2025 19:11:01 GMT-0500 (Central Daylight Time),753231.600000143,A,mea,O,a,171,1,716.2000000476837,752515.4000000954,7170,WL,A,3.0
7,6.246999979019165,immed,53753.000020980835,Mon Jun 09 2025 19:11:01 GMT-0500 (Central Daylight Time),753448.2000000477,A,mead,O,d,205,1,932.7999999523163,752515.4000000954,7170,WL,A,3.0
7,6.447000026702881,immed,53552.99997329712,Mon Jun 09 2025 19:11:01 GMT-0500 (Central Daylight Time),753648.100000143,A,meado,O,o,180,1,1132.7000000476837,752515.4000000954,7170,WL,A,3.0
7,6.630000114440918,immed,53369.99988555908,Mon Jun 09 2025 19:11:01 GMT-0500 (Central Daylight Time),753831.7999999523,A,meadow,O,w,174,1,1316.3999998569489,752515.4000000954,7170,WL,A,3.0
7,6.930000066757202,immed,53069.9999332428,Mon Jun 09 2025 19:11:01 GMT-0500 (Central Daylight Time),754131.4000000954,A,meadowenter,O,enter,274,1,1616.0,752515.4000000954,7170,WL,A,3.0
7,7.480000019073486,immed,52519.999980926514,Mon Jun 09 2025 19:11:01 GMT-0500 (Central Daylight Time),754681.2999999523,A,r,O,r,531,1,549.6999998092651,754131.600000143,7170,WL,A,4.0
7,7.713000059127808,immed,52286.99994087219,Mon Jun 09 2025 19:11:01 GMT-0500 (Central Daylight Time),754914.2000000477,A,ru,O,u,204,1,782.5999999046326,754131.600000143,7170,WL,A,4.0
7,7.930000066757202,immed,52069.9999332428,Mon Jun 09 2025 19:11:01 GMT-0500 (Central Daylight Time),755130.7999999523,A,rug,O,g,195,1,999.1999998092651,754131.600000143,7170,WL,A,4.0
7,8.396000146865845,immed,51603.999853134155,Mon Jun 09 2025 19:11:01 GMT-0500 (Central Daylight Time),755597.5,A,rugenter,O,enter,458,1,1465.8999998569489,754131.600000143,7170,WL,A,4.0
7,8.847000122070312,immed,51152.99987792969,Mon Jun 09 2025 19:11:01 GMT-0500 (Central Daylight Time),756048.2999999523,A,l,O,l,433,1,450.59999990463257,755597.7000000477,7170,WL,A,5.0
7,9.046000003814697,immed,50953.9999961853,Mon Jun 09 2025 19:11:01 GMT-0500 (Central Daylight Time),756247.2000000477,A,lo,O,o,170,1,649.5,755597.7000000477,7170,WL,A,5.0
7,9.312999963760376,immed,50687.000036239624,Mon Jun 09 2025 19:11:01 GMT-0500 (Central Daylight Time),756513.7999999523,A,log,O,g,245,1,916.0999999046326,755597.7000000477,7170,WL,A,5.0
7,9.796000003814697,immed,50203.9999961853,Mon Jun 09 2025 19:11:01 GMT-0500 (Central Daylight Time),756997.0,A,logenter,O,enter,466,1,1399.2999999523163,755597.7000000477,7170,WL,A,5.0
7,10.84500002861023,immed,49154.99997138977,Mon Jun 09 2025 19:11:01 GMT-0500 (Central Daylight Time),758046.7000000477,A,a,O,a,1032,1,1049.5,756997.2000000477,7170,WL,A,6.0
7,11.062999963760376,immed,48937.000036239624,Mon Jun 09 2025 19:11:01 GMT-0500 (Central Daylight Time),758264.0,A,ap,O,p,199,1,1266.7999999523163,756997.2000000477,7170,WL,A,6.0
7,11.229000091552734,immed,48770.999908447266,Mon Jun 09 2025 19:11:01 GMT-0500 (Central Daylight Time),758430.7999999523,A,app,O,p,131,1,1433.5999999046326,756997.2000000477,7170,WL,A,6.0
7,11.412000179290771,immed,48587.99982070923,Mon Jun 09 2025 19:11:01 GMT-0500 (Central Daylight Time),758613.7999999523,A,appl,O,l,158,1,1616.5999999046326,756997.2000000477,7170,WL,A,6.0
7,11.61300015449524,immed,48386.99984550476,Mon Jun 09 2025 19:11:01 GMT-0500 (Central Daylight Time),758814.0,A,apple,O,e,176,1,1816.7999999523163,756997.2000000477,7170,WL,A,6.0
7,11.945000171661377,immed,48054.99982833862,Mon Jun 09 2025 19:11:01 GMT-0500 (Central Daylight Time),759146.2000000477,A,appleenter,O,enter,300,1,2149.0,756997.2000000477,7170,WL,A,6.0
7,14.144000053405762,immed,45855.99994659424,Mon Jun 09 2025 19:11:01 GMT-0500 (Central Daylight Time),761345.4000000954,A,t,O,t,2186,1,2198.7999999523163,759146.600000143,7170,WL,A,7.0
7,14.261000156402588,immed,45738.99984359741,Mon Jun 09 2025 19:11:01 GMT-0500 (Central Daylight Time),761462.0,A,tr,O,r,106,1,2315.399999856949,759146.600000143,7170,WL,A,7.0
7,14.495000123977661,immed,45504.99987602234,Mon Jun 09 2025 19:11:01 GMT-0500 (Central Daylight Time),761696.2999999523,A,tra,O,a,215,1,2549.699999809265,759146.600000143,7170,WL,A,7.0
7,14.662000179290771,immed,45337.99982070923,Mon Jun 09 2025 19:11:01 GMT-0500 (Central Daylight Time),761863.100000143,A,trai,O,i,131,1,2716.5,759146.600000143,7170,WL,A,7.0
7,14.844000101089478,immed,45155.99989891052,Mon Jun 09 2025 19:11:01 GMT-0500 (Central Daylight Time),762045.2000000477,A,train,O,n,148,1,2898.5999999046326,759146.600000143,7170,WL,A,7.0
7,15.594000101089478,immed,44405.99989891052,Mon Jun 09 2025 19:11:01 GMT-0500 (Central Daylight Time),762795.2000000477,A,trainenter,O,enter,735,1,3648.5999999046326,759146.600000143,7170,WL,A,7.0
7,18.009000062942505,immed,41990.999937057495,Mon Jun 09 2025 19:11:01 GMT-0500 (Central Daylight Time),765210.7999999523,A,l,O,l,2401,1,2415.399999856949,762795.4000000954,7170,WL,A,8.0
7,18.277000188827515,immed,41722.999811172485,Mon Jun 09 2025 19:11:01 GMT-0500 (Central Daylight Time),765478.100000143,A,lo,O,o,258,1,2682.7000000476837,762795.4000000954,7170,WL,A,8.0
7,18.544000148773193,immed,41455.99985122681,Mon Jun 09 2025 19:11:01 GMT-0500 (Central Daylight Time),765745.100000143,A,log,O,g,236,1,2949.7000000476837,762795.4000000954,7170,WL,A,8.0
7,18.792999982833862,immed,41207.00001716614,Mon Jun 09 2025 19:11:01 GMT-0500 (Central Daylight Time),765994.0,A,logenter,O,enter,218,1,3198.5999999046326,762795.4000000954,7170,WL,A,8.0
7,19.542999982833862,immed,40457.00001716614,Mon Jun 09 2025 19:11:01 GMT-0500 (Central Daylight Time),766744.0,A,r,O,r,731,1,749.7000000476837,765994.2999999523,7170,WL,A,9.0
7,19.759999990463257,immed,40240.00000953674,Mon Jun 09 2025 19:11:01 GMT-0500 (Central Daylight Time),766961.5,A,ru,O,u,198,1,967.2000000476837,765994.2999999523,7170,WL,A,9.0
7,19.960000038146973,immed,40039.99996185303,Mon Jun 09 2025 19:11:01 GMT-0500 (Central Daylight Time),767161.4000000954,A,rug,O,g,162,1,1167.1000001430511,765994.2999999523,7170,WL,A,9.0
7,20.509000062942505,immed,39490.999937057495,Mon Jun 09 2025 19:11:01 GMT-0500 (Central Daylight Time),767710.0,A,rugenter,O,enter,522,1,1715.7000000476837,765994.2999999523,7170,WL,A,9.0
7,22.659000158309937,immed,37340.99984169006,Mon Jun 09 2025 19:11:01 GMT-0500 (Central Daylight Time),769860.2999999523,A,g,O,g,2137,1,2150.0,767710.2999999523,7170,WL,A,10.0
7,22.77500009536743,immed,37224.99990463257,Mon Jun 09 2025 19:11:01 GMT-0500 (Central Daylight Time),769976.100000143,A,go,O,o,77,1,2265.800000190735,767710.2999999523,7170,WL,A,10.0
7,22.9760000705719,immed,37023.9999294281,Mon Jun 09 2025 19:11:01 GMT-0500 (Central Daylight Time),770177.100000143,A,gol,O,l,178,1,2466.800000190735,767710.2999999523,7170,WL,A,10.0
7,23.2260000705719,immed,36773.9999294281,Mon Jun 09 2025 19:11:01 GMT-0500 (Central Daylight Time),770426.9000000954,A,gold,O,d,210,1,2716.600000143051,767710.2999999523,7170,WL,A,10.0
7,23.85800004005432,immed,36141.99995994568,Mon Jun 09 2025 19:11:01 GMT-0500 (Central Daylight Time),771059.100000143,A,goldenter,O,enter,600,1,3348.800000190735,767710.2999999523,7170,WL,A,10.0
7,24.442000150680542,immed,35557.99984931946,Mon Jun 09 2025 19:11:01 GMT-0500 (Central Daylight Time),771643.0,A,m,O,m,572,1,583.7000000476837,771059.2999999523,7170,WL,A,11.0
7,24.54100012779236,immed,35458.99987220764,Mon Jun 09 2025 19:11:01 GMT-0500 (Central Daylight Time),771742.2999999523,A,me,O,e,62,1,683.0,771059.2999999523,7170,WL,A,11.0
7,24.675000190734863,immed,35324.99980926514,Mon Jun 09 2025 19:11:01 GMT-0500 (Central Daylight Time),771876.4000000954,A,mea,O,a,102,1,817.1000001430511,771059.2999999523,7170,WL,A,11.0
7,24.907000064849854,immed,35092.99993515015,Mon Jun 09 2025 19:11:01 GMT-0500 (Central Daylight Time),772108.600000143,A,mead,O,d,200,1,1049.3000001907349,771059.2999999523,7170,WL,A,11.0
7,25.074000120162964,immed,34925.999879837036,Mon Jun 09 2025 19:11:01 GMT-0500 (Central Daylight Time),772275.2000000477,A,meado,O,o,151,1,1215.9000000953674,771059.2999999523,7170,WL,A,11.0
7,25.223999977111816,immed,34776.00002288818,Mon Jun 09 2025 19:11:01 GMT-0500 (Central Daylight Time),772425.2000000477,A,meadow,O,w,129,1,1365.9000000953674,771059.2999999523,7170,WL,A,11.0
7,25.890000104904175,immed,34109.999895095825,Mon Jun 09 2025 19:11:01 GMT-0500 (Central Daylight Time),773091.7000000477,A,meadowenter,O,enter,643,1,2032.4000000953674,771059.2999999523,7170,WL,A,11.0
7,28.27400016784668,immed,31725.99983215332,Mon Jun 09 2025 19:11:01 GMT-0500 (Central Daylight Time),775475.2999999523,A,f,O,f,2371,1,2383.2999999523163,773092.0,7170,WL,A,12.0
7,28.390000104904175,immed,31609.999895095825,Mon Jun 09 2025 19:11:01 GMT-0500 (Central Daylight Time),775591.4000000954,A,fl,O,l,82,1,2499.4000000953674,773092.0,7170,WL,A,12.0
7,28.575000047683716,immed,31424.999952316284,Mon Jun 09 2025 19:11:01 GMT-0500 (Central Daylight Time),775775.2999999523,A,flo,O,o,159,1,2683.2999999523163,773092.0,7170,WL,A,12.0
7,28.70900011062622,immed,31290.99988937378,Mon Jun 09 2025 19:11:01 GMT-0500 (Central Daylight Time),775909.2000000477,A,flow,O,w,111,1,2817.2000000476837,773092.0,7170,WL,A,12.0
7,28.925000190734863,immed,31074.999809265137,Mon Jun 09 2025 19:11:01 GMT-0500 (Central Daylight Time),776125.600000143,A,flowe,O,e,192,1,3033.600000143051,773092.0,7170,WL,A,12.0
7,29.157999992370605,immed,30842.000007629395,Mon Jun 09 2025 19:11:01 GMT-0500 (Central Daylight Time),776358.4000000954,A,flower,O,r,198,1,3266.4000000953674,773092.0,7170,WL,A,12.0
7,29.624000072479248,immed,30375.999927520752,Mon Jun 09 2025 19:11:01 GMT-0500 (Central Daylight Time),776823.9000000954,A,flowerenter,O,enter,424,1,3731.9000000953674,773092.0,7170,WL,A,12.0
7,34.77300000190735,immed,25226.99999809265,Mon Jun 09 2025 19:11:01 GMT-0500 (Central Daylight Time),781973.2000000477,A,k,O,k,5126,1,5149.099999904633,776824.100000143,7170,WL,A,13.0
7,34.955000162124634,immed,25044.999837875366,Mon Jun 09 2025 19:11:01 GMT-0500 (Central Daylight Time),782155.4000000954,A,ke,O,e,147,1,5331.299999952316,776824.100000143,7170,WL,A,13.0
7,35.15499997138977,immed,24845.00002861023,Mon Jun 09 2025 19:11:01 GMT-0500 (Central Daylight Time),782355.2999999523,A,key,O,y,193,1,5531.199999809265,776824.100000143,7170,WL,A,13.0
7,35.72200012207031,immed,24277.999877929688,Mon Jun 09 2025 19:11:01 GMT-0500 (Central Daylight Time),782921.7999999523,A,keyenter,O,enter,553,1,6097.699999809265,776824.100000143,7170,WL,A,13.0
7,37.73900008201599,immed,22260.99991798401,Mon Jun 09 2025 19:11:01 GMT-0500 (Central Daylight Time),784938.7999999523,A,s,O,s,2004,1,2016.7999999523163,782922.0,7170,WL,A,14.0
7,37.9539999961853,immed,22046.000003814697,Mon Jun 09 2025 19:11:01 GMT-0500 (Central Daylight Time),785154.4000000954,A,sa,O,a,175,1,2232.4000000953674,782922.0,7170,WL,A,14.0
7,38.13700008392334,immed,21862.99991607666,Mon Jun 09 2025 19:11:01 GMT-0500 (Central Daylight Time),785337.600000143,A,sal,O,l,162,1,2415.600000143051,782922.0,7170,WL,A,14.0
7,38.43900012969971,immed,21560.999870300293,Mon Jun 09 2025 19:11:01 GMT-0500 (Central Daylight Time),785638.7000000477,A,salt,O,t,284,1,2716.7000000476837,782922.0,7170,WL,A,14.0
7,38.9210000038147,immed,21078.999996185303,Mon Jun 09 2025 19:11:01 GMT-0500 (Central Daylight Time),786120.7999999523,A,saltenter,O,enter,443,1,3198.7999999523163,782922.0,7170,WL,A,14.0
7,41.12000012397766,immed,18879.99987602234,Mon Jun 09 2025 19:11:01 GMT-0500 (Central Daylight Time),788320.0,A,enter,O,enter,2180,1,2198.899999856949,786121.100000143,7170,WL,A,15.0
