acc_sum,block,block_c,condition,correct,correct_response,datetime,endtime,flanker,jitter,project,response,response_test_buffer_response,response_test_target_response,response_time,response_time_test_buffer_response,response_time_test_target_response,row_sel,session_number,start_end,starttime,subject_id,target,task,task_vers,time_test_buffer,time_test_buffer_response,time_test_constants,time_test_flanker,time_test_jitter,time_test_logger,time_test_target,time_test_target_response,time_test_variables,trial
1,prac,1,con,1,m,Fri Dec 12 2025 13:31:12 GMT-0600 (Central Standard Time),115592.10000002384,gold,800,I,m,,,665,,,13,1,2762.5,112829.60000002384,7707,gold,NF,C,,,,,,,,,,1
2,prac,1,inc,1,m,Fri Dec 12 2025 13:31:12 GMT-0600 (Central Standard Time),118672.5,raisin,1100,I,m,,,676,,,12,1,3075.2999999523163,115597.20000004768,7707,cobalt,NF,C,,,,,,,,,,2
3,prac,1,inc,1,z,Fri Dec 12 2025 13:31:12 GMT-0600 (Central Standard Time),121375.0,copper,900,I,z,,,504,,,2,1,2699.399999976158,118675.60000002384,7707,cherry,NF,C,,,,,,,,,,3
3,prac,1,con,0,m,Fri Dec 12 2025 13:31:12 GMT-0600 (Central Standard Time),124272.80000007153,zinc,1000,I,z,,,590,,,15,1,2890.100000023842,121382.70000004768,7707,zinc,NF,C,,,,,,,,,,4
4,prac,1,inc,1,z,Fri Dec 12 2025 13:31:12 GMT-0600 (Central Standard Time),127221.80000007153,iron,900,I,z,,,736,,,6,1,2944.600000023842,124277.20000004768,7707,pear,NF,C,,,,,,,,,,5
5,prac,1,con,1,m,Fri Dec 12 2025 13:31:12 GMT-0600 (Central Standard Time),130137.80000007153,bronze,800,I,m,,,807,,,9,1,2912.899999976158,127224.90000009537,7707,bronze,NF,C,,,,,,,,,,6
6,prac,1,inc,1,m,Fri Dec 12 2025 13:31:12 GMT-0600 (Central Standard Time),133037.0,pear,900,I,m,,,687,,,14,1,2896.0999999046326,130140.90000009537,7707,iron,NF,C,,,,,,,,,,7
7,prac,1,inc,1,m,Fri Dec 12 2025 13:31:12 GMT-0600 (Central Standard Time),135919.40000009537,cherry,900,I,m,,,684,,,10,1,2877.2000000476837,133042.20000004768,7707,copper,NF,C,,,,,,,,,,8
8,prac,1,con,1,z,Fri Dec 12 2025 13:31:12 GMT-0600 (Central Standard Time),138601.60000002384,lime,800,I,z,,,574,,,5,1,2678.0,135923.60000002384,7707,lime,NF,C,,,,,,,,,,9
9,prac,1,con,1,m,Fri Dec 12 2025 13:31:12 GMT-0600 (Central Standard Time),141284.30000007153,silver,1000,I,m,,,381,,,11,1,2679.2000000476837,138605.10000002384,7707,silver,NF,C,,,,,,,,,,10
10,prac,1,con,1,z,Fri Dec 12 2025 13:31:12 GMT-0600 (Central Standard Time),143850.0,orange,1000,I,z,,,265,,,3,1,2562.2999999523163,141287.70000004768,7707,orange,NF,C,,,,,,,,,,11
11,prac,1,con,1,z,Fri Dec 12 2025 13:31:12 GMT-0600 (Central Standard Time),146466.20000004768,banana,800,I,z,,,520,,,1,1,2613.100000023842,143853.10000002384,7707,banana,NF,C,,,,,,,,,,12
11,prac,1,inc,0,z,Fri Dec 12 2025 13:31:12 GMT-0600 (Central Standard Time),149164.70000004768,lead,1100,I,m,,,285,,,8,1,2695.600000023842,146469.10000002384,7707,plum,NF,C,,,,,,,,,,13
12,prac,1,con,1,z,Fri Dec 12 2025 13:31:12 GMT-0600 (Central Standard Time),153413.70000004768,kiwi,1000,I,z,,,1937,,,7,1,4246.0,149167.70000004768,7707,kiwi,NF,C,,,,,,,,,,14
12,prac,1,inc,0,z,Fri Dec 12 2025 13:31:12 GMT-0600 (Central Standard Time),156362.70000004768,cobalt,1100,I,m,,,547,,,4,1,2946.100000023842,153416.60000002384,7707,raisin,NF,C,,,,,,,,,,15
12,prac,1,inc,0,m,Fri Dec 12 2025 13:31:12 GMT-0600 (Central Standard Time),159195.60000002384,plum,1100,I,z,,,422,,,16,1,2829.899999976158,156365.70000004768,7707,lead,NF,C,,,,,,,,,,16
0,test,1,inc,0,m,Fri Dec 12 2025 13:31:12 GMT-0600 (Central Standard Time),177373.0,banana,800,I,None,None,None,1815,1815.0,200.0,85,1,3346.2999999523163,174026.70000004768,7707,silver,NF,C,171635,171635,170104,170917,170104,173450,171434,171434,173450,1
1,test,1,inc,1,m,Fri Dec 12 2025 13:31:12 GMT-0600 (Central Standard Time),179638.70000004768,kiwi,1000,I,m,m,None,729,529.0,200.0,103,1,2262.7000000476837,177376.0,7707,gold,NF,C,175183,175183,173453,174467,173453,175716,174983,174983,175716,2
2,test,1,inc,1,m,Fri Dec 12 2025 13:31:12 GMT-0600 (Central Standard Time),181538.60000002384,lime,800,I,m,m,None,560,359.0,201.0,117,1,1896.5,179642.10000002384,7707,zinc,NF,C,177249,177249,175719,176532,175719,177616,177048,177048,177616,3
3,test,1,inc,1,z,Fri Dec 12 2025 13:31:12 GMT-0600 (Central Standard Time),183337.5,gold,800,I,z,z,None,475,260.0,215.0,37,1,1795.8999999761581,181541.60000002384,7707,lime,NF,C,179147,179147,177619,178431,177619,179415,178932,178932,179414,4
4,test,1,con,1,z,Fri Dec 12 2025 13:31:12 GMT-0600 (Central Standard Time),185236.20000004768,raisin,800,I,z,z,None,564,364.0,200.0,25,1,1895.2999999523163,183340.90000009537,7707,raisin,NF,C,180947,180947,179418,180231,179418,181313,180747,180747,181313,5
5,test,1,con,1,m,Fri Dec 12 2025 13:31:12 GMT-0600 (Central Standard Time),187319.30000007153,silver,1100,I,m,m,None,443,227.0,216.0,84,1,2080.3000000715256,185239.0,7707,silver,NF,C,183164,183164,181316,182432,181316,183396,182947,182947,183396,6
6,test,1,inc,1,m,Fri Dec 12 2025 13:31:12 GMT-0600 (Central Standard Time),189418.80000007153,orange,1000,I,m,m,None,572,358.0,214.0,79,1,2096.600000023842,187322.20000004768,7707,copper,NF,C,185129,185129,183399,184412,183400,185496,184915,184915,185496,7
7,test,1,con,1,z,Fri Dec 12 2025 13:31:12 GMT-0600 (Central Standard Time),191584.80000007153,raisin,1100,I,z,z,None,517,302.0,215.0,28,1,2163.2000000476837,189421.60000002384,7707,raisin,NF,C,187345,187345,185499,186612,185499,187662,187130,187130,187662,8
7,test,1,con,0,z,Fri Dec 12 2025 13:31:12 GMT-0600 (Central Standard Time),193584.40000009537,pear,1000,I,m,m,None,451,252.0,199.0,43,1,1996.4000000953674,191588.0,7707,pear,NF,C,189395,189395,187665,188678,187665,189661,189195,189195,189661,9
8,test,1,inc,1,m,Fri Dec 12 2025 13:31:12 GMT-0600 (Central Standard Time),195617.0,lime,800,I,m,m,None,693,494.0,199.0,125,1,2029.5999999046326,193587.40000009537,7707,lead,NF,C,191193,191193,189664,190478,189665,191694,190994,190994,191694,10
9,test,1,con,1,z,Fri Dec 12 2025 13:31:12 GMT-0600 (Central Standard Time),197767.20000004768,plum,1100,I,z,z,None,504,304.0,200.0,60,1,2147.2000000476837,195620.0,7707,plum,NF,C,193527,193527,191697,192810,191697,193844,193327,193327,193844,11
10,test,1,con,1,z,Fri Dec 12 2025 13:31:12 GMT-0600 (Central Standard Time),199681.10000002384,kiwi,900,I,z,z,None,490,291.0,199.0,50,1,1909.1999999284744,197771.90000009537,7707,kiwi,NF,C,195460,195460,193849,194759,193849,195758,195260,195260,195758,12
11,test,1,con,1,z,Fri Dec 12 2025 13:31:12 GMT-0600 (Central Standard Time),201714.80000007153,plum,1000,I,z,z,None,492,292.0,200.0,59,1,2030.1000000238419,199684.70000004768,7707,plum,NF,C,197492,197492,195762,196775,195762,197792,197292,197292,197792,13
12,test,1,inc,1,m,Fri Dec 12 2025 13:31:12 GMT-0600 (Central Standard Time),203614.20000004768,pear,900,I,m,m,None,470,270.0,200.0,126,1,1895.6000000238419,201718.60000002384,7707,lead,NF,C,199409,199409,197796,198708,197796,199691,199209,199209,199691,14
13,test,1,con,1,m,Fri Dec 12 2025 13:31:12 GMT-0600 (Central Standard Time),205531.0,zinc,1000,I,m,m,None,367,167.0,200.0,115,1,1913.2999999523163,203617.70000004768,7707,zinc,NF,C,201424,201424,199695,200708,199695,201608,201224,201224,201608,15
14,test,1,con,1,m,Fri Dec 12 2025 13:31:12 GMT-0600 (Central Standard Time),207512.30000007153,lead,1000,I,m,m,None,434,234.0,200.0,123,1,1978.3000000715256,205534.0,7707,lead,NF,C,203341,203341,201611,202624,201611,203589,203140,203140,203589,16
15,test,1,inc,1,z,Fri Dec 12 2025 13:31:12 GMT-0600 (Central Standard Time),209578.80000007153,iron,900,I,z,z,None,625,425.0,200.0,54,1,2062.7000000476837,207516.10000002384,7707,kiwi,NF,C,205223,205223,203593,204506,203593,205656,205023,205023,205656,17
15,test,1,inc,0,m,Fri Dec 12 2025 13:31:12 GMT-0600 (Central Standard Time),211578.90000009537,plum,1100,I,z,z,None,357,158.0,199.0,120,1,1996.4000000953674,209582.5,7707,zinc,NF,C,207489,207489,205660,206772,205660,207656,207289,207289,207656,18
16,test,1,inc,1,m,Fri Dec 12 2025 13:31:12 GMT-0600 (Central Standard Time),213643.70000004768,cherry,900,I,m,m,None,630,430.0,200.0,78,1,2062.0,211581.70000004768,7707,copper,NF,C,209289,209289,207659,208572,207659,209721,209089,209089,209721,19
16,test,1,inc,0,m,Fri Dec 12 2025 13:31:12 GMT-0600 (Central Standard Time),215732.0,raisin,1100,I,z,z,None,445,245.0,200.0,96,1,2084.5999999046326,213647.40000009537,7707,cobalt,NF,C,211554,211554,209724,210837,209725,211809,211354,211354,211809,20
17,test,1,inc,1,m,Fri Dec 12 2025 13:31:12 GMT-0600 (Central Standard Time),218059.10000002384,plum,1100,I,m,m,None,713,498.0,215.0,112,1,2322.100000023842,215737.0,7707,iron,NF,C,213637,213637,211814,212920,211814,214136,213422,213422,214136,21
18,test,1,inc,1,m,Fri Dec 12 2025 13:31:12 GMT-0600 (Central Standard Time),220209.20000004768,cherry,900,I,m,m,None,700,501.0,199.0,70,1,2146.399999976158,218062.80000007153,7707,bronze,NF,C,215770,215770,214140,215053,214140,216286,215570,215570,216286,22
19,test,1,inc,1,z,Fri Dec 12 2025 13:31:12 GMT-0600 (Central Standard Time),222407.90000009537,silver,1000,I,z,z,None,660,460.0,200.0,15,1,2195.3000000715256,220212.60000002384,7707,cherry,NF,C,218019,218019,216290,217302,216290,218485,217819,217819,218485,23
20,test,1,con,1,z,Fri Dec 12 2025 13:31:12 GMT-0600 (Central Standard Time),224674.10000002384,pear,1100,I,z,z,None,617,416.0,201.0,44,1,2262.6999999284744,222411.40000009537,7707,pear,NF,C,220319,220319,218488,219603,218489,220751,220118,220118,220751,24
21,test,1,inc,1,m,Fri Dec 12 2025 13:31:12 GMT-0600 (Central Standard Time),226823.20000004768,orange,1000,I,m,m,None,611,410.0,201.0,95,1,2146.2999999523163,224676.90000009537,7707,cobalt,NF,C,222485,222485,220754,221768,220754,222900,222284,222284,222900,25
21,test,1,con,0,z,Fri Dec 12 2025 13:31:12 GMT-0600 (Central Standard Time),228905.60000002384,banana,1000,I,m,m,None,532,333.0,199.0,3,1,2079.2999999523163,226826.30000007153,7707,banana,NF,C,224634,224634,222903,223917,222904,224983,224434,224434,224983,26
22,test,1,con,1,m,Fri Dec 12 2025 13:31:12 GMT-0600 (Central Standard Time),230872.10000002384,lead,900,I,m,m,None,543,344.0,199.0,122,1,1963.6000000238419,228908.5,7707,lead,NF,C,226599,226599,224986,225899,224986,226949,226400,226400,226949,27
23,test,1,inc,1,m,Fri Dec 12 2025 13:31:12 GMT-0600 (Central Standard Time),233038.20000004768,kiwi,1000,I,m,m,None,621,422.0,199.0,119,1,2162.7999999523163,230875.40000009537,7707,zinc,NF,C,228682,228682,226952,227966,226953,229115,228482,228482,229115,28
24,test,1,inc,1,z,Fri Dec 12 2025 13:31:12 GMT-0600 (Central Standard Time),234988.0,bronze,800,I,z,z,None,606,407.0,199.0,21,1,1945.0999999046326,233042.90000009537,7707,orange,NF,C,230648,230648,229120,229932,229120,231065,230448,230448,231065,29
25,test,1,inc,1,m,Fri Dec 12 2025 13:31:12 GMT-0600 (Central Standard Time),237170.5,kiwi,1000,I,m,m,None,642,442.0,200.0,127,1,2179.899999976158,234990.60000002384,7707,lead,NF,C,232797,232797,231068,232081,231068,233248,232597,232597,233248,30
26,test,1,con,1,m,Fri Dec 12 2025 13:31:12 GMT-0600 (Central Standard Time),239292.80000007153,cobalt,1000,I,m,m,None,588,388.0,200.0,91,1,2119.600000023842,237173.20000004768,7707,cobalt,NF,C,234980,234980,233250,234264,233250,235370,234780,234780,235370,31
27,test,1,inc,1,m,Fri Dec 12 2025 13:31:12 GMT-0600 (Central Standard Time),241535.30000007153,kiwi,1000,I,m,m,None,711,512.0,199.0,111,1,2239.600000023842,239295.70000004768,7707,iron,NF,C,237096,237096,235373,236379,235373,237612,236897,236897,237612,32
28,test,1,con,1,m,Fri Dec 12 2025 13:31:12 GMT-0600 (Central Standard Time),243568.10000002384,copper,1000,I,m,m,None,493,293.0,200.0,75,1,2029.8999999761581,241538.20000004768,7707,copper,NF,C,239346,239346,237615,238629,237615,239645,239145,239145,239645,33
29,test,1,inc,1,z,Fri Dec 12 2025 13:31:12 GMT-0600 (Central Standard Time),245834.40000009537,lead,1100,I,z,z,None,632,433.0,199.0,64,1,2262.4000000953674,243572.0,7707,plum,NF,C,241478,241478,239649,240762,239649,241911,241279,241279,241911,34
30,test,1,inc,1,z,Fri Dec 12 2025 13:31:12 GMT-0600 (Central Standard Time),247866.70000004768,gold,800,I,z,z,None,708,509.0,199.0,53,1,2029.7000000476837,245837.0,7707,kiwi,NF,C,243427,243427,241914,242727,241914,243944,243228,243228,243944,35
31,test,1,inc,1,m,Fri Dec 12 2025 13:31:12 GMT-0600 (Central Standard Time),249982.5,banana,800,I,m,m,None,770,571.0,199.0,93,1,2112.7999999523163,247869.70000004768,7707,cobalt,NF,C,245477,245477,243947,244761,243947,246060,245277,245277,246060,36
32,test,1,con,1,m,Fri Dec 12 2025 13:31:12 GMT-0600 (Central Standard Time),251998.5,gold,900,I,m,m,None,570,370.0,200.0,98,1,2013.2999999523163,249985.20000004768,7707,gold,NF,C,247693,247693,246062,246976,246063,248076,247492,247492,248076,37
33,test,1,con,1,m,Fri Dec 12 2025 13:31:12 GMT-0600 (Central Standard Time),253815.10000002384,zinc,900,I,m,m,None,370,171.0,199.0,114,1,1813.6000000238419,252001.5,7707,zinc,NF,C,249708,249708,248079,248992,248079,249892,249509,249509,249892,38
34,test,1,con,1,z,Fri Dec 12 2025 13:31:12 GMT-0600 (Central Standard Time),255981.20000004768,kiwi,800,I,z,z,None,822,622.0,200.0,49,1,2163.2000000476837,253818.0,7707,kiwi,NF,C,251425,251425,249895,250709,249895,252058,251225,251225,252058,39
35,test,1,inc,1,z,Fri Dec 12 2025 13:31:12 GMT-0600 (Central Standard Time),258413.30000007153,cobalt,1100,I,z,z,None,787,588.0,199.0,24,1,2428.899999976158,255984.40000009537,7707,orange,NF,C,253891,253891,252061,253174,252062,254490,253691,253691,254490,40
36,test,1,con,1,z,Fri Dec 12 2025 13:31:12 GMT-0600 (Central Standard Time),260312.40000009537,pear,800,I,z,z,None,551,352.0,199.0,41,1,1896.1000000238419,258416.30000007153,7707,pear,NF,C,256023,256023,254493,255307,254494,256389,255824,255824,256389,41
37,test,1,con,1,m,Fri Dec 12 2025 13:31:12 GMT-0600 (Central Standard Time),262345.8000000715,copper,1100,I,m,m,None,399,200.0,199.0,76,1,2030.8000000715256,260315.0,7707,copper,NF,C,258223,258223,256392,257507,256392,258423,258023,258023,258423,42
38,test,1,inc,1,z,Fri Dec 12 2025 13:31:12 GMT-0600 (Central Standard Time),264244.60000002384,gold,800,I,z,z,None,556,356.0,200.0,45,1,1896.0,262348.60000002384,7707,pear,NF,C,259955,259955,258426,259239,258426,260322,259755,259755,260322,43
39,test,1,con,1,z,Fri Dec 12 2025 13:31:12 GMT-0600 (Central Standard Time),266594.10000002384,orange,1000,I,z,z,None,799,584.0,215.0,19,1,2346.100000023842,264248.0,7707,orange,NF,C,262071,262071,260325,261338,260325,262671,261856,261856,262671,44
40,test,1,con,1,m,Fri Dec 12 2025 13:31:12 GMT-0600 (Central Standard Time),268443.60000002384,iron,900,I,m,m,None,405,206.0,199.0,106,1,1846.7999999523163,266596.8000000715,7707,iron,NF,C,264305,264305,262674,263588,262674,264521,264105,264105,264521,45
40,test,1,con,0,m,Fri Dec 12 2025 13:31:12 GMT-0600 (Central Standard Time),270509.7000000477,lead,800,I,z,z,None,729,530.0,199.0,121,1,2063.5,268446.2000000477,7707,lead,NF,C,266053,266053,264523,265337,264523,266587,265854,265854,266587,46
40,test,1,inc,0,z,Fri Dec 12 2025 13:31:12 GMT-0600 (Central Standard Time),272608.90000009537,lead,1100,I,m,m,None,451,252.0,199.0,56,1,2096.100000023842,270512.8000000715,7707,kiwi,NF,C,268419,268419,266590,267703,266590,268686,268219,268220,268686,47
41,test,1,inc,1,m,Fri Dec 12 2025 13:31:12 GMT-0600 (Central Standard Time),274775.40000009537,orange,1000,I,m,m,None,630,429.0,201.0,87,1,2163.3000000715256,272612.10000002384,7707,silver,NF,C,270419,270419,268689,269703,268689,270852,270218,270218,270852,48
42,test,1,inc,1,z,Fri Dec 12 2025 13:31:12 GMT-0600 (Central Standard Time),276973.90000009537,iron,900,I,z,z,None,754,554.0,200.0,62,1,2195.100000023842,274778.8000000715,7707,plum,NF,C,272485,272485,270856,271769,270856,273051,272285,272285,273051,49
43,test,1,inc,1,z,Fri Dec 12 2025 13:31:12 GMT-0600 (Central Standard Time),279189.3000000715,zinc,1000,I,z,z,None,671,471.0,200.0,55,1,2212.899999976158,276976.40000009537,7707,kiwi,NF,C,274784,274784,273053,274067,273054,275266,274584,274584,275266,50
44,test,1,con,1,z,Fri Dec 12 2025 13:31:12 GMT-0600 (Central Standard Time),281256.60000002384,lime,900,I,z,z,None,619,418.0,201.0,34,1,2064.6999999284744,279191.90000009537,7707,lime,NF,C,276901,276901,275269,276185,275269,277334,276700,276700,277334,51
45,test,1,con,1,z,Fri Dec 12 2025 13:31:12 GMT-0600 (Central Standard Time),283188.8000000715,plum,900,I,z,z,None,489,289.0,200.0,58,1,1928.8999999761581,281259.90000009537,7707,plum,NF,C,278966,278966,277337,278251,277337,279266,278766,278766,279266,52
46,test,1,con,1,m,Fri Dec 12 2025 13:31:12 GMT-0600 (Central Standard Time),285205.0,cobalt,1100,I,m,m,None,382,182.0,200.0,92,1,2013.2999999523163,283191.7000000477,7707,cobalt,NF,C,281100,281100,279269,280383,279269,281282,280899,280899,281282,53
47,test,1,inc,1,z,Fri Dec 12 2025 13:31:12 GMT-0600 (Central Standard Time),287321.3000000715,zinc,1000,I,z,z,None,576,377.0,199.0,63,1,2113.7000000476837,285207.60000002384,7707,plum,NF,C,283014,283014,281285,282300,281285,283398,282815,282815,283398,54
48,test,1,con,1,m,Fri Dec 12 2025 13:31:12 GMT-0600 (Central Standard Time),289669.40000009537,zinc,1100,I,m,m,None,728,526.0,202.0,116,1,2345.600000023842,287323.8000000715,7707,zinc,NF,C,285218,285218,283401,284514,283401,285746,285015,285015,285746,55
49,test,1,inc,1,z,Fri Dec 12 2025 13:31:12 GMT-0600 (Central Standard Time),291702.10000002384,bronze,800,I,z,z,None,694,495.0,199.0,5,1,2029.7999999523163,289672.3000000715,7707,banana,NF,C,287280,287280,285749,286563,285750,287779,287081,287081,287779,56
50,test,1,con,1,z,Fri Dec 12 2025 13:31:12 GMT-0600 (Central Standard Time),293752.90000009537,kiwi,1000,I,z,z,None,511,311.0,200.0,51,1,2047.8000000715256,291705.10000002384,7707,kiwi,NF,C,289513,289513,287782,288796,287782,289830,289313,289313,289830,57
51,test,1,con,1,z,Fri Dec 12 2025 13:31:12 GMT-0600 (Central Standard Time),295501.7000000477,lime,800,I,z,z,None,414,214.0,200.0,33,1,1745.0,293756.7000000477,7707,lime,NF,C,291362,291362,289834,290646,289834,291579,291162,291162,291579,58
51,test,1,con,0,m,Fri Dec 12 2025 13:31:12 GMT-0600 (Central Standard Time),297451.60000002384,silver,800,I,z,z,None,615,415.0,200.0,81,1,1946.5,295505.10000002384,7707,silver,NF,C,293112,293112,291582,292395,291582,293529,292912,292912,293529,59
51,test,1,inc,0,z,Fri Dec 12 2025 13:31:12 GMT-0600 (Central Standard Time),299399.90000009537,silver,1000,I,m,m,None,410,210.0,200.0,23,1,1945.6000000238419,297454.3000000715,7707,orange,NF,C,295261,295261,293531,294545,293531,295477,295060,295060,295477,60
52,test,1,inc,1,z,Fri Dec 12 2025 13:31:12 GMT-0600 (Central Standard Time),301300.0,bronze,800,I,z,z,None,557,356.0,201.0,13,1,1896.8999999761581,299403.10000002384,7707,cherry,NF,C,297011,297011,295480,296294,295480,297377,296810,296810,297377,61
53,test,1,inc,1,m,Fri Dec 12 2025 13:31:12 GMT-0600 (Central Standard Time),303315.60000002384,banana,800,I,m,m,None,673,474.0,199.0,77,1,2012.7999999523163,301302.8000000715,7707,copper,NF,C,298910,298910,297380,298193,297380,299393,298710,298710,299393,62
54,test,1,con,1,z,Fri Dec 12 2025 13:31:12 GMT-0600 (Central Standard Time),305298.0,orange,800,I,z,z,None,634,433.0,201.0,17,1,1979.0999999046326,303318.90000009537,7707,orange,NF,C,300926,300926,299396,300210,299396,301375,300725,300725,301375,63
54,test,1,inc,0,z,Fri Dec 12 2025 13:31:12 GMT-0600 (Central Standard Time),307330.90000009537,zinc,1000,I,m,m,None,490,290.0,200.0,39,1,2029.4000000953674,305301.5,7707,lime,NF,C,303109,303109,301379,302392,301379,303408,302909,302909,303408,64
55,test,1,con,1,z,Fri Dec 12 2025 13:31:12 GMT-0600 (Central Standard Time),309513.7000000477,cherry,900,I,z,z,None,734,533.0,201.0,10,1,2179.399999976158,307334.3000000715,7707,cherry,NF,C,305042,305042,303411,304324,303412,305591,304841,304841,305591,65
56,test,1,con,1,z,Fri Dec 12 2025 13:31:12 GMT-0600 (Central Standard Time),311513.0,raisin,1000,I,z,z,None,458,259.0,199.0,27,1,1996.2999999523163,309516.7000000477,7707,raisin,NF,C,307324,307324,305594,306607,305594,307590,307124,307124,307590,66
57,test,1,inc,1,m,Fri Dec 12 2025 13:31:12 GMT-0600 (Central Standard Time),313646.40000009537,cherry,900,I,m,m,None,688,473.0,215.0,86,1,2127.8000000715256,311518.60000002384,7707,silver,NF,C,309239,309240,307596,308506,307596,309723,309024,309024,309723,67
57,test,1,con,0,z,Fri Dec 12 2025 13:31:12 GMT-0600 (Central Standard Time),315627.90000009537,cherry,800,I,m,m,None,638,439.0,199.0,9,1,1978.7000000476837,313649.2000000477,7707,cherry,NF,C,311256,311256,309726,310539,309726,311705,311057,311057,311705,68
58,test,1,con,1,m,Fri Dec 12 2025 13:31:12 GMT-0600 (Central Standard Time),317511.0,copper,900,I,m,m,None,438,239.0,199.0,74,1,1880.0999999046326,315630.90000009537,7707,copper,NF,C,313338,313338,311708,312623,311708,313588,313139,313139,313588,69
59,test,1,inc,1,m,Fri Dec 12 2025 13:31:12 GMT-0600 (Central Standard Time),319644.8000000715,orange,1000,I,m,m,None,591,391.0,200.0,71,1,2130.8000000715256,317514.0,7707,bronze,NF,C,315321,315321,313591,314605,313591,315722,315121,315121,315722,70
60,test,1,inc,1,z,Fri Dec 12 2025 13:31:12 GMT-0600 (Central Standard Time),321975.2000000477,cobalt,1100,I,z,z,None,683,468.0,215.0,8,1,2327.399999976158,319647.8000000715,7707,banana,NF,C,317571,317571,315725,316837,315725,318052,317355,317355,318052,71
60,test,1,inc,0,z,Fri Dec 12 2025 13:31:12 GMT-0600 (Central Standard Time),324008.90000009537,zinc,1000,I,m,m,None,497,285.0,212.0,47,1,2031.2000000476837,321977.7000000477,7707,pear,NF,C,319786,319786,318055,319070,318055,320086,319574,319574,320086,72
61,test,1,con,1,z,Fri Dec 12 2025 13:31:12 GMT-0600 (Central Standard Time),325992.40000009537,raisin,900,I,z,z,None,543,343.0,200.0,26,1,1980.9000000953674,324011.5,7707,raisin,NF,C,321720,321720,320089,321005,320089,322069,321520,321520,322069,73
62,test,1,inc,1,z,Fri Dec 12 2025 13:31:12 GMT-0600 (Central Standard Time),328274.5,lead,1100,I,z,z,None,649,448.0,201.0,48,1,2279.1999999284744,325995.3000000715,7707,pear,NF,C,323903,323903,322072,323185,322073,324352,323702,323702,324352,74
63,test,1,inc,1,z,Fri Dec 12 2025 13:31:12 GMT-0600 (Central Standard Time),330257.3000000715,bronze,800,I,z,z,None,642,442.0,200.0,29,1,1979.5,328277.8000000715,7707,raisin,NF,C,325885,325885,324355,325168,324355,326334,325685,325685,326334,75
64,test,1,inc,1,m,Fri Dec 12 2025 13:31:12 GMT-0600 (Central Standard Time),332206.5,banana,800,I,m,m,None,610,396.0,214.0,69,1,1946.5,330260.0,7707,bronze,NF,C,327884,327884,326337,327151,326337,328284,327669,327669,328284,76
65,test,1,con,1,z,Fri Dec 12 2025 13:31:12 GMT-0600 (Central Standard Time),334306.0,banana,1100,I,z,z,None,458,259.0,199.0,4,1,2096.2999999523163,332209.7000000477,7707,banana,NF,C,330116,330116,328287,329406,328287,330383,329917,329917,330383,77
66,test,1,inc,1,m,Fri Dec 12 2025 13:31:12 GMT-0600 (Central Standard Time),336189.40000009537,pear,900,I,m,m,None,446,247.0,199.0,118,1,1880.2000000476837,334309.2000000477,7707,zinc,NF,C,332016,332016,330386,331300,330387,332266,331816,331816,332266,78
67,test,1,inc,1,m,Fri Dec 12 2025 13:31:12 GMT-0600 (Central Standard Time),338403.40000009537,raisin,1100,I,m,m,None,581,381.0,200.0,88,1,2211.2000000476837,336192.2000000477,7707,silver,NF,C,334098,334098,332269,333382,332269,334480,333898,333898,334480,79
67,test,1,con,0,m,Fri Dec 12 2025 13:31:12 GMT-0600 (Central Standard Time),340737.5,gold,1000,I,z,z,None,785,585.0,200.0,99,1,2331.1999999284744,338406.3000000715,7707,gold,NF,C,336214,336214,334483,335498,334483,336815,336014,336014,336814,80
68,test,1,inc,1,m,Fri Dec 12 2025 13:31:12 GMT-0600 (Central Standard Time),342803.0,pear,900,I,m,m,None,648,449.0,199.0,102,1,2062.899999976158,340740.10000002384,7707,gold,NF,C,338430,338430,336817,337730,336817,338880,338231,338231,338880,81
69,test,1,con,1,m,Fri Dec 12 2025 13:31:12 GMT-0600 (Central Standard Time),344704.40000009537,gold,800,I,m,m,None,553,338.0,215.0,97,1,1898.3000000715256,342806.10000002384,7707,gold,NF,C,340429,340429,338883,339697,338883,340781,340214,340214,340781,82
70,test,1,con,1,z,Fri Dec 12 2025 13:31:12 GMT-0600 (Central Standard Time),346718.60000002384,cherry,1100,I,z,z,None,395,180.0,215.0,12,1,2010.3999999761581,344708.2000000477,7707,cherry,NF,C,342612,342612,340785,341896,340785,342796,342397,342397,342796,83
71,test,1,inc,1,z,Fri Dec 12 2025 13:31:12 GMT-0600 (Central Standard Time),348767.40000009537,copper,900,I,z,z,None,610,411.0,199.0,6,1,2045.5,346721.90000009537,7707,banana,NF,C,344428,344428,342799,343713,342799,344845,344229,344229,344844,84
72,test,1,inc,1,z,Fri Dec 12 2025 13:31:12 GMT-0600 (Central Standard Time),350833.60000002384,copper,900,I,z,z,None,625,425.0,200.0,14,1,2062.899999976158,348770.7000000477,7707,cherry,NF,C,346478,346478,344848,345761,344848,346911,346278,346278,346911,85
73,test,1,inc,1,m,Fri Dec 12 2025 13:31:12 GMT-0600 (Central Standard Time),353082.7000000477,raisin,1100,I,m,m,None,599,400.0,199.0,72,1,2245.7000000476837,350837.0,7707,bronze,NF,C,348743,348743,346914,348027,346914,349160,348544,348544,349160,86
74,test,1,con,1,z,Fri Dec 12 2025 13:31:12 GMT-0600 (Central Standard Time),355215.3000000715,kiwi,1100,I,z,z,None,486,285.0,201.0,52,1,2129.600000023842,353085.7000000477,7707,kiwi,NF,C,350994,350994,349163,350276,349163,351292,350793,350793,351292,87
75,test,1,con,1,z,Fri Dec 12 2025 13:31:12 GMT-0600 (Central Standard Time),357214.7000000477,lime,1100,I,z,z,None,369,168.0,201.0,36,1,1996.7999999523163,355217.90000009537,7707,lime,NF,C,353119,353119,351295,352408,351295,353292,352918,352918,353292,88
76,test,1,con,1,m,Fri Dec 12 2025 13:31:12 GMT-0600 (Central Standard Time),359032.10000002384,silver,900,I,m,m,None,369,169.0,200.0,82,1,1814.1000000238419,357218.0,7707,silver,NF,C,354926,354926,353295,354209,353295,355109,354725,354725,355109,89
77,test,1,con,1,m,Fri Dec 12 2025 13:31:12 GMT-0600 (Central Standard Time),361013.7000000477,bronze,900,I,m,m,None,539,339.0,200.0,66,1,1978.6000000238419,359035.10000002384,7707,bronze,NF,C,356741,356741,355112,356026,355112,357091,356541,356541,357091,90
78,test,1,con,1,m,Fri Dec 12 2025 13:31:12 GMT-0600 (Central Standard Time),362979.10000002384,bronze,1000,I,m,m,None,439,239.0,200.0,67,1,1960.6000000238419,361018.5,7707,bronze,NF,C,358808,358808,357096,358107,357096,359056,358608,358608,359056,91
78,test,1,inc,0,m,Fri Dec 12 2025 13:31:12 GMT-0600 (Central Standard Time),364912.8000000715,pear,900,I,z,z,None,483,268.0,215.0,110,1,1930.6000000238419,362982.2000000477,7707,iron,NF,C,360707,360707,359059,359973,359059,360990,360491,360491,360990,92
79,test,1,inc,1,z,Fri Dec 12 2025 13:31:12 GMT-0600 (Central Standard Time),367044.90000009537,copper,900,I,z,z,None,687,471.0,216.0,30,1,2129.100000023842,364915.8000000715,7707,raisin,NF,C,362640,362640,360993,361906,360993,363122,362424,362424,363122,93
79,test,1,con,0,z,Fri Dec 12 2025 13:31:12 GMT-0600 (Central Standard Time),368811.10000002384,banana,800,I,m,m,None,433,233.0,200.0,1,1,1763.1000000238419,367048.0,7707,banana,NF,C,364655,364655,363125,363938,363125,364888,364455,364455,364888,94
80,test,1,con,1,m,Fri Dec 12 2025 13:31:12 GMT-0600 (Central Standard Time),370861.0,silver,1000,I,m,m,None,513,313.0,200.0,83,1,2047.2999999523163,368813.7000000477,7707,silver,NF,C,366622,366622,364891,365905,364891,366938,366422,366422,366938,95
80,test,1,con,0,m,Fri Dec 12 2025 13:31:12 GMT-0600 (Central Standard Time),372959.8000000715,gold,1100,I,z,z,None,461,261.0,200.0,100,1,2095.8000000715256,370864.0,7707,gold,NF,C,368770,368770,366941,368054,366941,369037,368570,368570,369037,96
81,test,1,inc,1,z,Fri Dec 12 2025 13:31:12 GMT-0600 (Central Standard Time),375259.8000000715,cobalt,1100,I,z,z,None,648,449.0,199.0,16,1,2296.899999976158,372962.90000009537,7707,cherry,NF,C,370871,370871,369040,370154,369040,371337,370671,370671,371337,97
82,test,1,con,1,z,Fri Dec 12 2025 13:31:12 GMT-0600 (Central Standard Time),377192.60000002384,banana,900,I,z,z,None,495,294.0,201.0,2,1,1929.6999999284744,375262.90000009537,7707,banana,NF,C,372970,372970,371340,372253,371340,373270,372769,372769,373270,98
83,test,1,inc,1,z,Fri Dec 12 2025 13:31:12 GMT-0600 (Central Standard Time),379524.2000000477,iron,900,I,z,z,None,897,697.0,200.0,38,1,2329.0,377195.2000000477,7707,lime,NF,C,374902,374902,373272,374187,373273,375601,374702,374702,375601,99
84,test,1,con,1,m,Fri Dec 12 2025 13:31:12 GMT-0600 (Central Standard Time),381457.2000000477,iron,800,I,m,m,None,591,392.0,199.0,105,1,1930.1000000238419,379527.10000002384,7707,iron,NF,C,377135,377135,375604,376421,375604,377534,376935,376935,377534,100
85,test,1,inc,1,m,Fri Dec 12 2025 13:31:12 GMT-0600 (Central Standard Time),383857.5,plum,1100,I,m,m,None,759,559.0,200.0,104,1,2395.5,381462.0,7707,gold,NF,C,379368,379368,377539,378651,377539,379935,379167,379167,379935,101
86,test,1,con,1,m,Fri Dec 12 2025 13:31:12 GMT-0600 (Central Standard Time),385640.0,zinc,800,I,m,m,None,444,244.0,200.0,113,1,1779.5,383860.5,7707,zinc,NF,C,381467,381467,379938,380750,379938,381717,381267,381267,381717,102
86,test,1,inc,0,m,Fri Dec 12 2025 13:31:12 GMT-0600 (Central Standard Time),387338.40000009537,lime,800,I,z,z,None,355,140.0,215.0,101,1,1695.2000000476837,385643.2000000477,7707,gold,NF,C,383267,383267,381720,382533,381720,383415,383051,383051,383415,103
87,test,1,inc,1,m,Fri Dec 12 2025 13:31:12 GMT-0600 (Central Standard Time),389188.0,lime,800,I,m,m,None,529,316.0,213.0,109,1,1846.6999999284744,387341.3000000715,7707,iron,NF,C,384949,384949,383418,384232,383419,385265,384735,384735,385265,104
88,test,1,inc,1,m,Fri Dec 12 2025 13:31:12 GMT-0600 (Central Standard Time),391253.90000009537,cherry,900,I,m,m,None,621,421.0,200.0,94,1,2063.4000000953674,389190.5,7707,cobalt,NF,C,386898,386898,385268,386182,385268,387331,386698,386698,387331,105
89,test,1,inc,1,z,Fri Dec 12 2025 13:31:12 GMT-0600 (Central Standard Time),393421.3000000715,silver,1000,I,z,z,None,639,439.0,200.0,31,1,2164.3000000715256,391257.0,7707,raisin,NF,C,389048,389048,387334,388347,387334,389498,388848,388848,389498,106
90,test,1,con,1,m,Fri Dec 12 2025 13:31:12 GMT-0600 (Central Standard Time),395369.7000000477,cobalt,900,I,m,m,None,510,309.0,201.0,90,1,1945.3999999761581,393424.3000000715,7707,cobalt,NF,C,391131,391131,389501,390415,389502,391447,390930,390930,391447,107
91,test,1,con,1,z,Fri Dec 12 2025 13:31:12 GMT-0600 (Central Standard Time),397418.90000009537,lime,1000,I,z,z,None,499,299.0,200.0,35,1,2046.0,395372.90000009537,7707,lime,NF,C,393180,393180,391450,392464,391450,393496,392980,392980,393496,108
92,test,1,con,1,m,Fri Dec 12 2025 13:31:12 GMT-0600 (Central Standard Time),399535.3000000715,bronze,1100,I,m,m,None,470,270.0,200.0,68,1,2113.7000000476837,397421.60000002384,7707,bronze,NF,C,395329,395329,393499,394612,393499,395612,395129,395129,395612,109
93,test,1,inc,1,z,Fri Dec 12 2025 13:31:12 GMT-0600 (Central Standard Time),401651.2000000477,silver,1000,I,z,z,None,583,384.0,199.0,7,1,2112.899999976158,399538.3000000715,7707,banana,NF,C,397344,397344,395615,396628,395616,397728,397145,397145,397728,110
94,test,1,inc,1,z,Fri Dec 12 2025 13:31:12 GMT-0600 (Central Standard Time),403650.2000000477,iron,900,I,z,z,None,566,365.0,201.0,46,1,1996.2000000476837,401654.0,7707,pear,NF,C,399362,399362,397731,398645,397731,399727,399161,399161,399727,111
95,test,1,con,1,z,Fri Dec 12 2025 13:31:12 GMT-0600 (Central Standard Time),405783.40000009537,cherry,1000,I,z,z,None,588,388.0,200.0,11,1,2130.2000000476837,403653.2000000477,7707,cherry,NF,C,401460,401460,399730,400744,399730,401860,401260,401260,401860,112
96,test,1,con,1,z,Fri Dec 12 2025 13:31:12 GMT-0600 (Central Standard Time),407799.2000000477,pear,900,I,z,z,None,577,362.0,215.0,42,1,2012.8999999761581,405786.3000000715,7707,pear,NF,C,403509,403509,401863,402777,401864,403876,403294,403294,403876,113
97,test,1,inc,1,z,Fri Dec 12 2025 13:31:12 GMT-0600 (Central Standard Time),409981.3000000715,cobalt,1100,I,z,z,None,547,346.0,201.0,32,1,2179.3000000715256,407802.0,7707,raisin,NF,C,405709,405709,403879,404993,403879,406058,405508,405508,406058,114
98,test,1,con,1,m,Fri Dec 12 2025 13:31:12 GMT-0600 (Central Standard Time),411730.5,cobalt,800,I,m,m,None,415,215.0,200.0,89,1,1745.5999999046326,409984.90000009537,7707,cobalt,NF,C,407592,407592,406062,406876,406062,407808,407392,407392,407808,115
99,test,1,con,1,z,Fri Dec 12 2025 13:31:12 GMT-0600 (Central Standard Time),413899.3000000715,orange,1100,I,z,z,None,534,334.0,200.0,20,1,2166.2000000476837,411733.10000002384,7707,orange,NF,C,409641,409641,407810,408925,407810,409976,409441,409441,409976,116
100,test,1,inc,1,z,Fri Dec 12 2025 13:31:12 GMT-0600 (Central Standard Time),416146.2000000477,lead,1100,I,z,z,None,599,399.0,200.0,40,1,2243.7999999523163,413902.40000009537,7707,lime,NF,C,411808,411808,409979,411091,409980,412223,411607,411607,412223,117
100,test,1,con,0,m,Fri Dec 12 2025 13:31:12 GMT-0600 (Central Standard Time),418329.0,iron,1100,I,z,z,None,534,334.0,200.0,108,1,2180.0999999046326,416148.90000009537,7707,iron,NF,C,414057,414057,412226,413340,412226,414406,413856,413856,414406,118
101,test,1,con,1,m,Fri Dec 12 2025 13:31:12 GMT-0600 (Central Standard Time),419961.8000000715,copper,800,I,m,m,None,285,84.0,201.0,73,1,1630.1000000238419,418331.7000000477,7707,copper,NF,C,415939,415939,414409,415223,414409,416039,415738,415738,416039,119
102,test,1,inc,1,m,Fri Dec 12 2025 13:31:12 GMT-0600 (Central Standard Time),422094.8000000715,raisin,1100,I,m,m,None,488,288.0,200.0,80,1,2130.100000023842,419964.7000000477,7707,copper,NF,C,417872,417872,416042,417155,416042,418172,417672,417672,418172,120
103,test,1,con,1,m,Fri Dec 12 2025 13:31:12 GMT-0600 (Central Standard Time),424127.0,iron,1000,I,m,m,None,503,304.0,199.0,107,1,2028.8999999761581,422098.10000002384,7707,iron,NF,C,419888,419888,418175,419188,418175,420204,419689,419689,420204,121
104,test,1,con,1,m,Fri Dec 12 2025 13:31:12 GMT-0600 (Central Standard Time),425860.40000009537,bronze,800,I,m,m,None,389,190.0,199.0,65,1,1730.6000000238419,424129.8000000715,7707,bronze,NF,C,421737,421737,420207,421021,420207,421937,421538,421538,421937,122
105,test,1,con,1,m,Fri Dec 12 2025 13:31:12 GMT-0600 (Central Standard Time),427975.90000009537,lead,1100,I,m,m,None,478,262.0,216.0,124,1,2113.0,425862.90000009537,7707,lead,NF,C,423777,423777,421940,423053,421940,424053,423560,423560,424053,123
105,test,1,con,0,z,Fri Dec 12 2025 13:31:12 GMT-0600 (Central Standard Time),431308.7000000477,plum,800,I,None,None,None,1800,1800.0,200.0,57,1,3329.7999999523163,427978.90000009537,7707,plum,NF,C,425586,425586,424056,424870,424056,427386,425386,425386,427386,124
105,test,1,inc,0,z,Fri Dec 12 2025 13:31:12 GMT-0600 (Central Standard Time),433291.0,copper,900,I,m,m,None,549,350.0,199.0,22,1,1979.0,431312.0,7707,orange,NF,C,429018,429018,427389,428303,427389,429368,428819,428819,429368,125
106,test,1,inc,1,m,Fri Dec 12 2025 13:31:12 GMT-0600 (Central Standard Time),435557.2000000477,plum,1100,I,m,m,None,631,431.0,200.0,128,1,2263.7000000476837,433293.5,7707,lead,NF,C,431201,431201,429371,430485,429371,431634,431001,431001,431634,126
107,test,1,inc,1,z,Fri Dec 12 2025 13:31:12 GMT-0600 (Central Standard Time),437556.90000009537,gold,800,I,z,z,None,663,464.0,199.0,61,1,1996.9000000953674,435560.0,7707,plum,NF,C,433167,433167,431637,432451,431637,433634,432968,432968,433634,127
108,test,1,con,1,z,Fri Dec 12 2025 13:31:12 GMT-0600 (Central Standard Time),439572.5,orange,900,I,z,z,None,573,374.0,199.0,18,1,2013.1999999284744,437559.3000000715,7707,orange,NF,C,435265,435265,433636,434550,433637,435650,435066,435066,435650,128
