acc_sum,block,block_c,block_cond,con_img,correct,correct_response,datetime,endtime,face,jitter,line,project,response,response_time,row_sel,session_number,start_end,starttime,subject_id,task,task_vers,trial
1,prac,1,A,haborder.png,1,z,Fri Jun 27 2025 16:33:58 GMT-0500 (Central Daylight Time),43746.0,CFD-WM-009-009-A.jpg,1900,solid,O,z,799,8,1,3532.7000000476837,40213.299999952316,7174,ATS,B,1
2,prac,1,A,haborder.png,1,m,Fri Jun 27 2025 16:33:58 GMT-0500 (Central Daylight Time),46961.700000047684,CFD-BM-020-024-HC.jpg,1500,solid,O,m,883,3,1,6748.400000095367,40213.299999952316,7174,ATS,B,2
3,prac,1,A,haborder.png,1,m,Fri Jun 27 2025 16:33:58 GMT-0500 (Central Daylight Time),50143.5,CFD-WM-011-006-HC.jpg,1400,solid,O,m,952,7,1,9930.200000047684,40213.299999952316,7174,ATS,B,3
4,prac,1,A,haborder.png,1,z,Fri Jun 27 2025 16:33:58 GMT-0500 (Central Daylight Time),53358.299999952316,CFD-WF-026-008-A.jpg,1600,solid,O,z,785,10,1,13145.0,40213.299999952316,7174,ATS,B,4
5,prac,1,A,haborder.png,1,z,Fri Jun 27 2025 16:33:58 GMT-0500 (Central Daylight Time),56040.700000047684,CFD-BF-050-012-A.jpg,1200,solid,O,z,667,6,1,15827.400000095367,40213.299999952316,7174,ATS,B,5
6,prac,1,A,haborder.png,1,z,Fri Jun 27 2025 16:33:58 GMT-0500 (Central Daylight Time),59173.200000047684,CFD-BM-037-041-A.jpg,1600,solid,O,z,723,2,1,18959.900000095367,40213.299999952316,7174,ATS,B,6
7,prac,1,A,haborder.png,1,z,Fri Jun 27 2025 16:33:58 GMT-0500 (Central Daylight Time),61772.89999997616,CFD-WF-013-015-A.jpg,1000,solid,O,z,796,12,1,21559.600000023842,40213.299999952316,7174,ATS,B,7
8,prac,1,A,haborder.png,1,m,Fri Jun 27 2025 16:33:58 GMT-0500 (Central Daylight Time),65521.5,CFD-BF-035-007-HC.jpg,2000,solid,O,m,926,5,1,25308.200000047684,40213.299999952316,7174,ATS,B,8
9,prac,1,A,haborder.png,1,m,Fri Jun 27 2025 16:33:58 GMT-0500 (Central Daylight Time),68836.89999997616,CFD-WF-011-006-HC.jpg,1500,solid,O,m,994,11,1,28623.600000023842,40213.299999952316,7174,ATS,B,9
9,prac,1,A,haborder.png,0,m,Fri Jun 27 2025 16:33:58 GMT-0500 (Central Daylight Time),72802.70000004768,CFD-BM-015-017-HC.jpg,1700,solid,O,z,1464,1,1,32589.400000095367,40213.299999952316,7174,ATS,B,10
10,prac,1,A,haborder.png,1,z,Fri Jun 27 2025 16:33:58 GMT-0500 (Central Daylight Time),75551.89999997616,CFD-BF-051-043-A.jpg,1000,solid,O,z,926,4,1,35338.60000002384,40213.299999952316,7174,ATS,B,11
11,prac,1,A,haborder.png,1,m,Fri Jun 27 2025 16:33:58 GMT-0500 (Central Daylight Time),78850.89999997616,CFD-WM-012-007-HC.jpg,1700,solid,O,m,773,9,1,38637.60000002384,40213.299999952316,7174,ATS,B,12
1,prac,1,B,mfborder.png,1,z,Fri Jun 27 2025 16:33:58 GMT-0500 (Central Daylight Time),101593.29999995232,CFD-BF-027-013-HC.jpg,1500,dash,O,z,1074,3,1,3398.899999976158,98194.39999997616,7174,ATS,B,1
2,prac,1,B,mfborder.png,1,z,Fri Jun 27 2025 16:33:58 GMT-0500 (Central Daylight Time),103975.79999995232,CFD-WF-011-006-HC.jpg,1000,dash,O,z,559,12,1,5781.399999976158,98194.39999997616,7174,ATS,B,2
3,prac,1,B,mfborder.png,1,m,Fri Jun 27 2025 16:33:58 GMT-0500 (Central Daylight Time),107291.5,CFD-WM-009-009-A.jpg,1700,dash,O,m,789,9,1,9097.100000023842,98194.39999997616,7174,ATS,B,3
3,prac,1,B,mfborder.png,0,z,Fri Jun 27 2025 16:33:58 GMT-0500 (Central Daylight Time),110606.0,CFD-BF-051-043-A.jpg,1000,dash,O,m,1486,4,1,12411.600000023842,98194.39999997616,7174,ATS,B,4
4,prac,1,B,mfborder.png,1,m,Fri Jun 27 2025 16:33:58 GMT-0500 (Central Daylight Time),114238.60000002384,CFD-WM-012-007-HC.jpg,1600,dash,O,m,1226,10,1,16044.200000047684,98194.39999997616,7174,ATS,B,5
4,prac,1,B,mfborder.png,0,z,Fri Jun 27 2025 16:33:58 GMT-0500 (Central Daylight Time),117504.0,CFD-BF-035-007-HC.jpg,1400,dash,O,m,1050,7,1,19309.600000023842,98194.39999997616,7174,ATS,B,6
5,prac,1,B,mfborder.png,1,m,Fri Jun 27 2025 16:33:58 GMT-0500 (Central Daylight Time),120703.5,CFD-WM-037-060-A.jpg,1200,dash,O,m,1184,6,1,22509.100000023842,98194.39999997616,7174,ATS,B,7
6,prac,1,B,mfborder.png,1,m,Fri Jun 27 2025 16:33:58 GMT-0500 (Central Daylight Time),124302.5,CFD-BM-041-048-A.jpg,1600,dash,O,m,1193,2,1,26108.100000023842,98194.39999997616,7174,ATS,B,8
7,prac,1,B,mfborder.png,1,z,Fri Jun 27 2025 16:33:58 GMT-0500 (Central Daylight Time),127351.5,CFD-WF-026-008-A.jpg,1500,dash,O,z,718,11,1,29157.100000023842,98194.39999997616,7174,ATS,B,9
8,prac,1,B,mfborder.png,1,m,Fri Jun 27 2025 16:33:58 GMT-0500 (Central Daylight Time),130966.89999997616,CFD-BM-020-024-HC.jpg,1700,dash,O,m,1085,1,1,32772.5,98194.39999997616,7174,ATS,B,10
9,prac,1,B,mfborder.png,1,m,Fri Jun 27 2025 16:33:58 GMT-0500 (Central Daylight Time),134765.70000004768,CFD-BM-037-041-A.jpg,2000,dash,O,m,980,5,1,36571.300000071526,98194.39999997616,7174,ATS,B,11
9,prac,1,B,mfborder.png,0,z,Fri Jun 27 2025 16:33:58 GMT-0500 (Central Daylight Time),138513.89999997616,CFD-WF-027-007-HC.jpg,1900,dash,O,m,1049,8,1,40319.5,98194.39999997616,7174,ATS,B,12
0,test,1,A,haborder.png,0,m,Fri Jun 27 2025 16:33:58 GMT-0500 (Central Daylight Time),156924.10000002384,CFD-BM-020-024-HC.jpg,1500,solid,O,z,1179,3,1,2698.600000023842,154225.5,7174,ATS,B,1
1,test,1,A,haborder.png,1,m,Fri Jun 27 2025 16:33:58 GMT-0500 (Central Daylight Time),159656.60000002384,CFD-BM-015-017-HC.jpg,1700,solid,O,m,1000,1,1,5431.100000023842,154225.5,7174,ATS,B,2
2,test,1,A,haborder.png,1,m,Fri Jun 27 2025 16:33:58 GMT-0500 (Central Daylight Time),162006.5,CFD-BM-015-017-HC.jpg,1700,solid,O,m,629,1,1,7781.0,154225.5,7174,ATS,B,3
3,test,1,A,haborder.png,1,z,Fri Jun 27 2025 16:33:58 GMT-0500 (Central Daylight Time),164538.89999997616,CFD-WF-026-008-A.jpg,1600,solid,O,z,892,10,1,10313.399999976158,154225.5,7174,ATS,B,4
4,test,1,A,haborder.png,1,z,Fri Jun 27 2025 16:33:58 GMT-0500 (Central Daylight Time),166372.0,CFD-BF-051-043-A.jpg,1000,solid,O,z,782,4,1,12146.5,154225.5,7174,ATS,B,5
4,test,1,A,haborder.png,0,z,Fri Jun 27 2025 16:33:58 GMT-0500 (Central Daylight Time),169104.29999995232,CFD-WM-009-009-A.jpg,1900,solid,O,m,793,8,1,14878.799999952316,154225.5,7174,ATS,B,6
5,test,1,A,haborder.png,1,m,Fri Jun 27 2025 16:33:58 GMT-0500 (Central Daylight Time),171535.89999997616,CFD-WF-011-006-HC.jpg,1500,solid,O,m,875,11,1,17310.399999976158,154225.5,7174,ATS,B,7
6,test,1,A,haborder.png,1,z,Fri Jun 27 2025 16:33:58 GMT-0500 (Central Daylight Time),173269.60000002384,CFD-WF-013-015-A.jpg,1000,solid,O,z,712,12,1,19044.100000023842,154225.5,7174,ATS,B,8
7,test,1,A,haborder.png,1,z,Fri Jun 27 2025 16:33:58 GMT-0500 (Central Daylight Time),175852.10000002384,CFD-WM-009-009-A.jpg,1900,solid,O,z,633,8,1,21626.600000023842,154225.5,7174,ATS,B,9
8,test,1,A,haborder.png,1,m,Fri Jun 27 2025 16:33:58 GMT-0500 (Central Daylight Time),179000.89999997616,CFD-BF-035-007-HC.jpg,2000,solid,O,m,1101,5,1,24775.399999976158,154225.5,7174,ATS,B,10
9,test,1,A,haborder.png,1,z,Fri Jun 27 2025 16:33:58 GMT-0500 (Central Daylight Time),181683.70000004768,CFD-WF-026-008-A.jpg,1600,solid,O,z,1016,10,1,27458.200000047684,154225.5,7174,ATS,B,11
9,test,1,A,haborder.png,0,z,Fri Jun 27 2025 16:33:58 GMT-0500 (Central Daylight Time),184431.89999997616,CFD-BF-050-012-A.jpg,1200,solid,O,None,1514,6,1,30206.399999976158,154225.5,7174,ATS,B,12
10,test,1,A,haborder.png,1,m,Fri Jun 27 2025 16:33:58 GMT-0500 (Central Daylight Time),186565.79999995232,CFD-WM-011-006-HC.jpg,1400,solid,O,m,716,7,1,32340.299999952316,154225.5,7174,ATS,B,13
11,test,1,A,haborder.png,1,z,Fri Jun 27 2025 16:33:58 GMT-0500 (Central Daylight Time),189001.20000004768,CFD-BF-050-012-A.jpg,1200,solid,O,z,1181,6,1,34775.700000047684,154225.5,7174,ATS,B,14
12,test,1,A,haborder.png,1,m,Fri Jun 27 2025 16:33:58 GMT-0500 (Central Daylight Time),191413.5,CFD-BM-020-024-HC.jpg,1500,solid,O,m,879,3,1,37188.0,154225.5,7174,ATS,B,15
13,test,1,A,haborder.png,1,m,Fri Jun 27 2025 16:33:58 GMT-0500 (Central Daylight Time),193597.39999997616,CFD-WF-011-006-HC.jpg,1500,solid,O,m,648,11,1,39371.89999997616,154225.5,7174,ATS,B,16
14,test,1,A,haborder.png,1,m,Fri Jun 27 2025 16:33:58 GMT-0500 (Central Daylight Time),196678.5,CFD-BF-035-007-HC.jpg,2000,solid,O,m,1038,5,1,42453.0,154225.5,7174,ATS,B,17
15,test,1,A,haborder.png,1,z,Fri Jun 27 2025 16:33:58 GMT-0500 (Central Daylight Time),198544.60000002384,CFD-BF-051-043-A.jpg,1000,solid,O,z,827,4,1,44319.10000002384,154225.5,7174,ATS,B,18
16,test,1,A,haborder.png,1,m,Fri Jun 27 2025 16:33:58 GMT-0500 (Central Daylight Time),200960.29999995232,CFD-WM-012-007-HC.jpg,1700,solid,O,m,669,9,1,46734.799999952316,154225.5,7174,ATS,B,19
17,test,1,A,haborder.png,1,m,Fri Jun 27 2025 16:33:58 GMT-0500 (Central Daylight Time),203026.5,CFD-WM-011-006-HC.jpg,1400,solid,O,m,643,7,1,48801.0,154225.5,7174,ATS,B,20
17,test,1,A,haborder.png,0,z,Fri Jun 27 2025 16:33:58 GMT-0500 (Central Daylight Time),204709.10000002384,CFD-WF-013-015-A.jpg,1000,solid,O,m,624,12,1,50483.60000002384,154225.5,7174,ATS,B,21
18,test,1,A,haborder.png,1,z,Fri Jun 27 2025 16:33:58 GMT-0500 (Central Daylight Time),207408.39999997616,CFD-BM-037-041-A.jpg,1600,solid,O,z,1036,2,1,53182.89999997616,154225.5,7174,ATS,B,22
19,test,1,A,haborder.png,1,m,Fri Jun 27 2025 16:33:58 GMT-0500 (Central Daylight Time),209857.39999997616,CFD-WM-012-007-HC.jpg,1700,solid,O,m,709,9,1,55631.89999997616,154225.5,7174,ATS,B,23
20,test,1,A,haborder.png,1,z,Fri Jun 27 2025 16:33:58 GMT-0500 (Central Daylight Time),212439.70000004768,CFD-BM-037-041-A.jpg,1600,solid,O,z,942,2,1,58214.200000047684,154225.5,7174,ATS,B,24
1,test,1,B,mfborder.png,1,m,Fri Jun 27 2025 16:33:58 GMT-0500 (Central Daylight Time),228751.29999995232,CFD-BM-020-024-HC.jpg,1700,dash,O,m,992,1,1,2765.399999976158,225985.89999997616,7174,ATS,B,1
2,test,1,B,mfborder.png,1,z,Fri Jun 27 2025 16:33:58 GMT-0500 (Central Daylight Time),230834.0,CFD-BF-027-013-HC.jpg,1500,dash,O,z,534,3,1,4848.100000023842,225985.89999997616,7174,ATS,B,2
3,test,1,B,mfborder.png,1,z,Fri Jun 27 2025 16:33:58 GMT-0500 (Central Daylight Time),232916.39999997616,CFD-BF-027-013-HC.jpg,1500,dash,O,z,532,3,1,6930.5,225985.89999997616,7174,ATS,B,3
4,test,1,B,mfborder.png,1,m,Fri Jun 27 2025 16:33:58 GMT-0500 (Central Daylight Time),235082.60000002384,CFD-BM-041-048-A.jpg,1600,dash,O,m,508,2,1,9096.700000047684,225985.89999997616,7174,ATS,B,4
5,test,1,B,mfborder.png,1,z,Fri Jun 27 2025 16:33:58 GMT-0500 (Central Daylight Time),237198.70000004768,CFD-WF-026-008-A.jpg,1500,dash,O,z,580,11,1,11212.800000071526,225985.89999997616,7174,ATS,B,5
6,test,1,B,mfborder.png,1,z,Fri Jun 27 2025 16:33:58 GMT-0500 (Central Daylight Time),238965.0,CFD-BF-051-043-A.jpg,1000,dash,O,z,748,4,1,12979.100000023842,225985.89999997616,7174,ATS,B,6
7,test,1,B,mfborder.png,1,m,Fri Jun 27 2025 16:33:58 GMT-0500 (Central Daylight Time),241047.5,CFD-WM-037-060-A.jpg,1200,dash,O,m,836,6,1,15061.600000023842,225985.89999997616,7174,ATS,B,7
8,test,1,B,mfborder.png,1,z,Fri Jun 27 2025 16:33:58 GMT-0500 (Central Daylight Time),243062.70000004768,CFD-BF-035-007-HC.jpg,1400,dash,O,z,553,7,1,17076.800000071526,225985.89999997616,7174,ATS,B,8
8,test,1,B,mfborder.png,0,m,Fri Jun 27 2025 16:33:58 GMT-0500 (Central Daylight Time),245028.89999997616,CFD-WM-037-060-A.jpg,1200,dash,O,z,737,6,1,19043.0,225985.89999997616,7174,ATS,B,9
9,test,1,B,mfborder.png,1,m,Fri Jun 27 2025 16:33:58 GMT-0500 (Central Daylight Time),247378.60000002384,CFD-BM-020-024-HC.jpg,1700,dash,O,m,608,1,1,21392.700000047684,225985.89999997616,7174,ATS,B,10
10,test,1,B,mfborder.png,1,z,Fri Jun 27 2025 16:33:58 GMT-0500 (Central Daylight Time),249161.29999995232,CFD-WF-011-006-HC.jpg,1000,dash,O,z,734,12,1,23175.399999976158,225985.89999997616,7174,ATS,B,11
11,test,1,B,mfborder.png,1,m,Fri Jun 27 2025 16:33:58 GMT-0500 (Central Daylight Time),251627.0,CFD-WM-009-009-A.jpg,1700,dash,O,m,723,9,1,25641.100000023842,225985.89999997616,7174,ATS,B,12
12,test,1,B,mfborder.png,1,m,Fri Jun 27 2025 16:33:58 GMT-0500 (Central Daylight Time),254393.5,CFD-BM-037-041-A.jpg,2000,dash,O,m,718,5,1,28407.600000023842,225985.89999997616,7174,ATS,B,13
13,test,1,B,mfborder.png,1,m,Fri Jun 27 2025 16:33:58 GMT-0500 (Central Daylight Time),256675.70000004768,CFD-BM-041-048-A.jpg,1600,dash,O,m,632,2,1,30689.800000071526,225985.89999997616,7174,ATS,B,14
14,test,1,B,mfborder.png,1,z,Fri Jun 27 2025 16:33:58 GMT-0500 (Central Daylight Time),259441.10000002384,CFD-WF-027-007-HC.jpg,1900,dash,O,z,801,8,1,33455.200000047684,225985.89999997616,7174,ATS,B,15
15,test,1,B,mfborder.png,1,z,Fri Jun 27 2025 16:33:58 GMT-0500 (Central Daylight Time),261657.0,CFD-BF-035-007-HC.jpg,1400,dash,O,z,776,7,1,35671.10000002384,225985.89999997616,7174,ATS,B,16
16,test,1,B,mfborder.png,1,z,Fri Jun 27 2025 16:33:58 GMT-0500 (Central Daylight Time),263339.89999997616,CFD-BF-051-043-A.jpg,1000,dash,O,z,631,4,1,37354.0,225985.89999997616,7174,ATS,B,17
17,test,1,B,mfborder.png,1,m,Fri Jun 27 2025 16:33:58 GMT-0500 (Central Daylight Time),265639.2999999523,CFD-WM-012-007-HC.jpg,1600,dash,O,m,653,10,1,39653.39999997616,225985.89999997616,7174,ATS,B,18
18,test,1,B,mfborder.png,1,m,Fri Jun 27 2025 16:33:58 GMT-0500 (Central Daylight Time),267922.2000000477,CFD-WM-012-007-HC.jpg,1600,dash,O,m,642,10,1,41936.300000071526,225985.89999997616,7174,ATS,B,19
19,test,1,B,mfborder.png,1,z,Fri Jun 27 2025 16:33:58 GMT-0500 (Central Daylight Time),269737.2000000477,CFD-WF-011-006-HC.jpg,1000,dash,O,z,774,12,1,43751.300000071526,225985.89999997616,7174,ATS,B,20
20,test,1,B,mfborder.png,1,m,Fri Jun 27 2025 16:33:58 GMT-0500 (Central Daylight Time),272170.5,CFD-WM-009-009-A.jpg,1700,dash,O,m,702,9,1,46184.60000002384,225985.89999997616,7174,ATS,B,21
21,test,1,B,mfborder.png,1,z,Fri Jun 27 2025 16:33:58 GMT-0500 (Central Daylight Time),274736.10000002384,CFD-WF-027-007-HC.jpg,1900,dash,O,z,619,8,1,48750.200000047684,225985.89999997616,7174,ATS,B,22
22,test,1,B,mfborder.png,1,m,Fri Jun 27 2025 16:33:58 GMT-0500 (Central Daylight Time),277435.5,CFD-BM-037-041-A.jpg,2000,dash,O,m,633,5,1,51449.60000002384,225985.89999997616,7174,ATS,B,23
23,test,1,B,mfborder.png,1,z,Fri Jun 27 2025 16:33:58 GMT-0500 (Central Daylight Time),279734.60000002384,CFD-WF-026-008-A.jpg,1500,dash,O,z,754,11,1,53748.700000047684,225985.89999997616,7174,ATS,B,24
1,11,1,C,haborder.png,1,m,Fri Jun 27 2025 16:33:58 GMT-0500 (Central Daylight Time),304493.2999999523,CFD-WM-011-006-HC.jpg,1000,dash,O,m,1089,prac,1,2915.6999999284744,301577.60000002384,7174,ATS,B,1
2,5,1,C,mfborder.png,1,m,Fri Jun 27 2025 16:33:58 GMT-0500 (Central Daylight Time),307375.7999999523,CFD-BM-037-041-A.jpg,1200,dash,O,m,868,prac,1,5798.199999928474,301577.60000002384,7174,ATS,B,2
3,3,1,C,mfborder.png,1,z,Fri Jun 27 2025 16:33:58 GMT-0500 (Central Daylight Time),310208.2999999523,CFD-BF-035-007-HC.jpg,1000,dash,O,z,1019,prac,1,8630.699999928474,301577.60000002384,7174,ATS,B,3
4,10,1,C,haborder.png,1,m,Fri Jun 27 2025 16:33:58 GMT-0500 (Central Daylight Time),313339.89999997616,CFD-BM-020-024-HC.jpg,1500,solid,O,m,805,prac,1,11762.299999952316,301577.60000002384,7174,ATS,B,4
5,7,1,C,haborder.png,1,z,Fri Jun 27 2025 16:33:58 GMT-0500 (Central Daylight Time),316989.10000002384,CFD-BF-051-043-A.jpg,1900,dash,O,z,921,prac,1,15411.5,301577.60000002384,7174,ATS,B,5
6,8,1,C,haborder.png,1,z,Fri Jun 27 2025 16:33:58 GMT-0500 (Central Daylight Time),320988.0,CFD-BF-050-012-A.jpg,1700,solid,O,z,1480,prac,1,19410.399999976158,301577.60000002384,7174,ATS,B,6
7,1,1,C,mfborder.png,1,z,Fri Jun 27 2025 16:33:58 GMT-0500 (Central Daylight Time),324136.89999997616,CFD-WF-011-006-HC.jpg,1600,dash,O,z,717,prac,1,22559.299999952316,301577.60000002384,7174,ATS,B,7
8,12,1,C,haborder.png,1,m,Fri Jun 27 2025 16:33:58 GMT-0500 (Central Daylight Time),327269.10000002384,CFD-WM-011-006-HC.jpg,1400,solid,O,m,906,prac,1,25691.5,301577.60000002384,7174,ATS,B,8
9,2,1,C,mfborder.png,1,z,Fri Jun 27 2025 16:33:58 GMT-0500 (Central Daylight Time),330634.7000000477,CFD-WF-013-015-A.jpg,1500,solid,O,z,1057,prac,1,29057.100000023842,301577.60000002384,7174,ATS,B,9
10,9,1,C,haborder.png,1,z,Fri Jun 27 2025 16:33:58 GMT-0500 (Central Daylight Time),334016.89999997616,CFD-WF-026-008-A.jpg,1600,dash,O,z,942,prac,1,32439.299999952316,301577.60000002384,7174,ATS,B,10
11,4,1,C,mfborder.png,1,m,Fri Jun 27 2025 16:33:58 GMT-0500 (Central Daylight Time),337682.60000002384,CFD-BM-015-017-HC.jpg,2000,solid,O,m,849,prac,1,36105.0,301577.60000002384,7174,ATS,B,11
12,6,1,C,mfborder.png,1,m,Fri Jun 27 2025 16:33:58 GMT-0500 (Central Daylight Time),341064.89999997616,CFD-WM-009-009-A.jpg,1700,solid,O,m,877,prac,1,39487.299999952316,301577.60000002384,7174,ATS,B,12
1,test,1,C,mfborder.png,1,z,Fri Jun 27 2025 16:33:58 GMT-0500 (Central Daylight Time),355559.89999997616,CFD-BF-027-013-HC.jpg,1700,dash,O,z,1073,1,1,2832.399999976158,352727.5,7174,ATS,B,1
1,test,1,C,haborder.png,0,z,Fri Jun 27 2025 16:33:58 GMT-0500 (Central Daylight Time),358825.7999999523,CFD-BM-041-048-A.jpg,1700,solid,O,None,1508,9,1,6098.299999952316,352727.5,7174,ATS,B,2
1,test,1,C,mfborder.png,0,m,Fri Jun 27 2025 16:33:58 GMT-0500 (Central Daylight Time),362374.10000002384,CFD-WM-037-060-A.jpg,2000,dash,O,None,1514,5,1,9646.600000023842,352727.5,7174,ATS,B,3
1,test,1,C,haborder.png,0,m,Fri Jun 27 2025 16:33:58 GMT-0500 (Central Daylight Time),364739.60000002384,CFD-WF-027-007-HC.jpg,1500,solid,O,z,822,11,1,12012.100000023842,352727.5,7174,ATS,B,4
1,test,1,C,haborder.png,0,z,Fri Jun 27 2025 16:33:58 GMT-0500 (Central Daylight Time),367755.2999999523,CFD-BM-037-041-A.jpg,1900,solid,O,m,1082,8,1,15027.799999952316,352727.5,7174,ATS,B,5
2,test,1,C,mfborder.png,1,m,Fri Jun 27 2025 16:33:58 GMT-0500 (Central Daylight Time),370171.39999997616,CFD-BM-020-024-HC.jpg,1200,dash,O,m,1190,6,1,17443.899999976158,352727.5,7174,ATS,B,6
3,test,1,C,mfborder.png,1,z,Fri Jun 27 2025 16:33:58 GMT-0500 (Central Daylight Time),372754.10000002384,CFD-WF-026-008-A.jpg,1500,dash,O,z,1042,3,1,20026.600000023842,352727.5,7174,ATS,B,7
4,test,1,C,mfborder.png,1,m,Fri Jun 27 2025 16:33:58 GMT-0500 (Central Daylight Time),374903.2999999523,CFD-WM-012-007-HC.jpg,1000,dash,O,m,1083,4,1,22175.799999952316,352727.5,7174,ATS,B,8
4,test,1,C,haborder.png,0,m,Fri Jun 27 2025 16:33:58 GMT-0500 (Central Daylight Time),376852.60000002384,CFD-WF-011-006-HC.jpg,1000,solid,O,z,906,12,1,24125.100000023842,352727.5,7174,ATS,B,9
4,test,1,C,haborder.png,0,z,Fri Jun 27 2025 16:33:58 GMT-0500 (Central Daylight Time),379202.0,CFD-WM-009-009-A.jpg,1400,solid,O,m,908,7,1,26474.5,352727.5,7174,ATS,B,10
4,test,1,C,haborder.png,0,z,Fri Jun 27 2025 16:33:58 GMT-0500 (Central Daylight Time),381634.5,CFD-WM-009-009-A.jpg,1400,solid,O,m,967,7,1,28907.0,352727.5,7174,ATS,B,11
4,test,1,C,haborder.png,0,m,Fri Jun 27 2025 16:33:58 GMT-0500 (Central Daylight Time),384233.5,CFD-BF-035-007-HC.jpg,1600,solid,O,z,952,10,1,31506.0,352727.5,7174,ATS,B,12
5,test,1,C,mfborder.png,1,m,Fri Jun 27 2025 16:33:58 GMT-0500 (Central Daylight Time),386949.39999997616,CFD-BM-020-024-HC.jpg,1200,dash,O,m,1464,6,1,34221.89999997616,352727.5,7174,ATS,B,13
6,test,1,C,haborder.png,1,m,Fri Jun 27 2025 16:33:58 GMT-0500 (Central Daylight Time),389498.5,CFD-BF-035-007-HC.jpg,1600,solid,O,m,908,10,1,36771.0,352727.5,7174,ATS,B,14
7,test,1,C,mfborder.png,1,z,Fri Jun 27 2025 16:33:58 GMT-0500 (Central Daylight Time),392130.89999997616,CFD-BF-051-043-A.jpg,1600,dash,O,z,983,2,1,39403.39999997616,352727.5,7174,ATS,B,15
8,test,1,C,mfborder.png,1,z,Fri Jun 27 2025 16:33:58 GMT-0500 (Central Daylight Time),394580.2999999523,CFD-BF-051-043-A.jpg,1600,dash,O,z,784,2,1,41852.799999952316,352727.5,7174,ATS,B,16
9,test,1,C,mfborder.png,1,m,Fri Jun 27 2025 16:33:58 GMT-0500 (Central Daylight Time),396462.89999997616,CFD-WM-012-007-HC.jpg,1000,dash,O,m,837,4,1,43735.39999997616,352727.5,7174,ATS,B,17
10,test,1,C,mfborder.png,1,z,Fri Jun 27 2025 16:33:58 GMT-0500 (Central Daylight Time),398928.60000002384,CFD-WF-026-008-A.jpg,1500,dash,O,z,903,3,1,46201.10000002384,352727.5,7174,ATS,B,18
10,test,1,C,haborder.png,0,m,Fri Jun 27 2025 16:33:58 GMT-0500 (Central Daylight Time),401794.7000000477,CFD-WF-027-007-HC.jpg,1500,solid,O,z,1308,11,1,49067.200000047684,352727.5,7174,ATS,B,19
10,test,1,C,mfborder.png,0,m,Fri Jun 27 2025 16:33:58 GMT-0500 (Central Daylight Time),405342.7000000477,CFD-WM-037-060-A.jpg,2000,dash,O,None,1514,5,1,52615.200000047684,352727.5,7174,ATS,B,20
11,test,1,C,haborder.png,1,z,Fri Jun 27 2025 16:33:58 GMT-0500 (Central Daylight Time),407842.5,CFD-BM-041-048-A.jpg,1700,solid,O,z,767,9,1,55115.0,352727.5,7174,ATS,B,21
11,test,1,C,haborder.png,0,z,Fri Jun 27 2025 16:33:58 GMT-0500 (Central Daylight Time),411123.89999997616,CFD-BM-037-041-A.jpg,1900,solid,O,m,1346,8,1,58396.39999997616,352727.5,7174,ATS,B,22
11,test,1,C,haborder.png,0,m,Fri Jun 27 2025 16:33:58 GMT-0500 (Central Daylight Time),413657.2000000477,CFD-WF-011-006-HC.jpg,1000,solid,O,None,1514,12,1,60929.700000047684,352727.5,7174,ATS,B,23
12,test,1,C,mfborder.png,1,z,Fri Jun 27 2025 16:33:58 GMT-0500 (Central Daylight Time),416772.89999997616,CFD-BF-027-013-HC.jpg,1700,dash,O,z,1350,1,1,64045.39999997616,352727.5,7174,ATS,B,24
1,test,2,C,mfborder.png,1,m,Fri Jun 27 2025 16:33:58 GMT-0500 (Central Daylight Time),426403.2000000477,CFD-WM-009-009-A.jpg,1200,dash,O,m,1022,6,1,2283.3000000715256,424119.89999997616,7174,ATS,B,1
2,test,2,C,mfborder.png,1,m,Fri Jun 27 2025 16:33:58 GMT-0500 (Central Daylight Time),428752.5,CFD-BM-015-017-HC.jpg,1000,dash,O,m,1299,4,1,4632.600000023842,424119.89999997616,7174,ATS,B,2
2,test,2,C,haborder.png,0,m,Fri Jun 27 2025 16:33:58 GMT-0500 (Central Daylight Time),431901.39999997616,CFD-BM-020-024-HC.jpg,1600,solid,O,None,1514,10,1,7781.5,424119.89999997616,7174,ATS,B,3
3,test,2,C,haborder.png,1,z,Fri Jun 27 2025 16:33:58 GMT-0500 (Central Daylight Time),434616.5,CFD-BF-050-012-A.jpg,1900,solid,O,z,767,8,1,10496.600000023842,424119.89999997616,7174,ATS,B,4
3,test,2,C,mfborder.png,0,m,Fri Jun 27 2025 16:33:58 GMT-0500 (Central Daylight Time),437732.60000002384,CFD-BM-037-041-A.jpg,2000,dash,O,z,1089,5,1,13612.700000047684,424119.89999997616,7174,ATS,B,5
3,test,2,C,haborder.png,0,z,Fri Jun 27 2025 16:33:58 GMT-0500 (Central Daylight Time),439965.39999997616,CFD-BF-051-043-A.jpg,1400,solid,O,m,798,7,1,15845.5,424119.89999997616,7174,ATS,B,6
3,test,2,C,mfborder.png,0,z,Fri Jun 27 2025 16:33:58 GMT-0500 (Central Daylight Time),442864.2999999523,CFD-WF-011-006-HC.jpg,1700,dash,O,m,1152,1,1,18744.399999976158,424119.89999997616,7174,ATS,B,7
4,test,2,C,haborder.png,1,z,Fri Jun 27 2025 16:33:58 GMT-0500 (Central Daylight Time),445496.2999999523,CFD-WF-026-008-A.jpg,1700,solid,O,z,885,9,1,21376.399999976158,424119.89999997616,7174,ATS,B,8
5,test,2,C,mfborder.png,1,z,Fri Jun 27 2025 16:33:58 GMT-0500 (Central Daylight Time),448645.2000000477,CFD-WF-011-006-HC.jpg,1700,dash,O,z,1421,1,1,24525.300000071526,424119.89999997616,7174,ATS,B,9
6,test,2,C,haborder.png,1,m,Fri Jun 27 2025 16:33:58 GMT-0500 (Central Daylight Time),450894.5,CFD-WM-011-006-HC.jpg,1000,solid,O,m,1220,12,1,26774.600000023842,424119.89999997616,7174,ATS,B,10
7,test,2,C,mfborder.png,1,m,Fri Jun 27 2025 16:33:58 GMT-0500 (Central Daylight Time),454127.39999997616,CFD-BM-037-041-A.jpg,2000,dash,O,m,1205,5,1,30007.5,424119.89999997616,7174,ATS,B,11
8,test,2,C,mfborder.png,1,z,Fri Jun 27 2025 16:33:58 GMT-0500 (Central Daylight Time),456809.89999997616,CFD-BF-035-007-HC.jpg,1500,dash,O,z,1143,3,1,32690.0,424119.89999997616,7174,ATS,B,12
9,test,2,C,haborder.png,1,z,Fri Jun 27 2025 16:33:58 GMT-0500 (Central Daylight Time),459275.10000002384,CFD-BF-051-043-A.jpg,1400,solid,O,z,1024,7,1,35155.200000047684,424119.89999997616,7174,ATS,B,13
10,test,2,C,mfborder.png,1,m,Fri Jun 27 2025 16:33:58 GMT-0500 (Central Daylight Time),461291.60000002384,CFD-BM-015-017-HC.jpg,1000,dash,O,m,962,4,1,37171.700000047684,424119.89999997616,7174,ATS,B,14
11,test,2,C,haborder.png,1,m,Fri Jun 27 2025 16:33:58 GMT-0500 (Central Daylight Time),463790.7999999523,CFD-WM-011-006-HC.jpg,1500,solid,O,m,954,11,1,39670.89999997616,424119.89999997616,7174,ATS,B,15
12,test,2,C,mfborder.png,1,z,Fri Jun 27 2025 16:33:58 GMT-0500 (Central Daylight Time),466340.0,CFD-WF-013-015-A.jpg,1600,dash,O,z,886,2,1,42220.10000002384,424119.89999997616,7174,ATS,B,16
13,test,2,C,haborder.png,1,m,Fri Jun 27 2025 16:33:58 GMT-0500 (Central Daylight Time),469155.7000000477,CFD-WM-011-006-HC.jpg,1500,solid,O,m,1268,11,1,45035.800000071526,424119.89999997616,7174,ATS,B,17
13,test,2,C,mfborder.png,0,z,Fri Jun 27 2025 16:33:58 GMT-0500 (Central Daylight Time),472304.89999997616,CFD-WF-013-015-A.jpg,1600,dash,O,None,1514,2,1,48185.0,424119.89999997616,7174,ATS,B,18
14,test,2,C,haborder.png,1,m,Fri Jun 27 2025 16:33:58 GMT-0500 (Central Daylight Time),474820.10000002384,CFD-BM-020-024-HC.jpg,1600,solid,O,m,881,10,1,50700.200000047684,424119.89999997616,7174,ATS,B,19
15,test,2,C,haborder.png,1,z,Fri Jun 27 2025 16:33:58 GMT-0500 (Central Daylight Time),477486.2999999523,CFD-BF-050-012-A.jpg,1900,solid,O,z,746,8,1,53366.39999997616,424119.89999997616,7174,ATS,B,20
16,test,2,C,haborder.png,1,z,Fri Jun 27 2025 16:33:58 GMT-0500 (Central Daylight Time),480268.60000002384,CFD-WF-026-008-A.jpg,1700,solid,O,z,1039,9,1,56148.700000047684,424119.89999997616,7174,ATS,B,21
17,test,2,C,haborder.png,1,m,Fri Jun 27 2025 16:33:58 GMT-0500 (Central Daylight Time),482801.10000002384,CFD-WM-011-006-HC.jpg,1000,solid,O,m,1494,12,1,58681.200000047684,424119.89999997616,7174,ATS,B,22
17,test,2,C,mfborder.png,0,m,Fri Jun 27 2025 16:33:58 GMT-0500 (Central Daylight Time),485183.7000000477,CFD-WM-009-009-A.jpg,1200,dash,O,z,1132,6,1,61063.800000071526,424119.89999997616,7174,ATS,B,23
17,test,2,C,mfborder.png,0,z,Fri Jun 27 2025 16:33:58 GMT-0500 (Central Daylight Time),487632.2999999523,CFD-BF-035-007-HC.jpg,1500,dash,O,m,909,3,1,63512.39999997616,424119.89999997616,7174,ATS,B,24
0,test,3,C,haborder.png,0,z,Fri Jun 27 2025 16:33:58 GMT-0500 (Central Daylight Time),493114.7999999523,CFD-WM-009-009-A.jpg,1400,solid,O,None,1514,7,1,2949.2999999523163,490165.5,7174,ATS,B,1
1,test,3,C,mfborder.png,1,z,Fri Jun 27 2025 16:33:58 GMT-0500 (Central Daylight Time),495697.10000002384,CFD-BF-027-013-HC.jpg,1700,dash,O,z,845,1,1,5531.600000023842,490165.5,7174,ATS,B,2
1,test,3,C,mfborder.png,0,z,Fri Jun 27 2025 16:33:58 GMT-0500 (Central Daylight Time),498013.2000000477,CFD-BF-051-043-A.jpg,1600,dash,O,m,683,2,1,7847.700000047684,490165.5,7174,ATS,B,3
1,test,3,C,mfborder.png,0,m,Fri Jun 27 2025 16:33:58 GMT-0500 (Central Daylight Time),500145.2000000477,CFD-BM-020-024-HC.jpg,1200,dash,O,z,884,6,1,9979.700000047684,490165.5,7174,ATS,B,4
1,test,3,C,haborder.png,0,z,Fri Jun 27 2025 16:33:58 GMT-0500 (Central Daylight Time),502561.2999999523,CFD-WM-009-009-A.jpg,1400,solid,O,m,986,7,1,12395.799999952316,490165.5,7174,ATS,B,5
1,test,3,C,haborder.png,0,z,Fri Jun 27 2025 16:33:58 GMT-0500 (Central Daylight Time),505243.7999999523,CFD-BM-041-048-A.jpg,1700,solid,O,m,916,9,1,15078.299999952316,490165.5,7174,ATS,B,6
2,test,3,C,haborder.png,1,z,Fri Jun 27 2025 16:33:58 GMT-0500 (Central Daylight Time),508342.7999999523,CFD-BM-037-041-A.jpg,1900,solid,O,z,1156,8,1,18177.299999952316,490165.5,7174,ATS,B,7
3,test,3,C,mfborder.png,1,z,Fri Jun 27 2025 16:33:58 GMT-0500 (Central Daylight Time),510525.39999997616,CFD-WF-026-008-A.jpg,1500,dash,O,z,639,3,1,20359.899999976158,490165.5,7174,ATS,B,8
3,test,3,C,mfborder.png,0,m,Fri Jun 27 2025 16:33:58 GMT-0500 (Central Daylight Time),514074.5,CFD-WM-037-060-A.jpg,2000,dash,O,None,1515,5,1,23909.0,490165.5,7174,ATS,B,9
3,test,3,C,haborder.png,0,m,Fri Jun 27 2025 16:33:58 GMT-0500 (Central Daylight Time),516090.0,CFD-WF-011-006-HC.jpg,1000,solid,O,z,975,12,1,25924.5,490165.5,7174,ATS,B,10
3,test,3,C,haborder.png,0,m,Fri Jun 27 2025 16:33:58 GMT-0500 (Central Daylight Time),518905.89999997616,CFD-WF-027-007-HC.jpg,1500,solid,O,z,1253,11,1,28740.399999976158,490165.5,7174,ATS,B,11
3,test,3,C,mfborder.png,0,m,Fri Jun 27 2025 16:33:58 GMT-0500 (Central Daylight Time),521455.39999997616,CFD-WM-012-007-HC.jpg,1000,dash,O,None,1514,4,1,31289.899999976158,490165.5,7174,ATS,B,12
4,test,3,C,haborder.png,1,z,Fri Jun 27 2025 16:33:58 GMT-0500 (Central Daylight Time),524204.2999999523,CFD-BM-041-048-A.jpg,1700,solid,O,z,1007,9,1,34038.799999952316,490165.5,7174,ATS,B,13
4,test,3,C,mfborder.png,0,m,Fri Jun 27 2025 16:33:58 GMT-0500 (Central Daylight Time),526503.5,CFD-BM-020-024-HC.jpg,1200,dash,O,z,1045,6,1,36338.0,490165.5,7174,ATS,B,14
4,test,3,C,haborder.png,0,m,Fri Jun 27 2025 16:33:58 GMT-0500 (Central Daylight Time),529002.7999999523,CFD-BF-035-007-HC.jpg,1600,solid,O,z,834,10,1,38837.299999952316,490165.5,7174,ATS,B,15
5,test,3,C,mfborder.png,1,m,Fri Jun 27 2025 16:33:58 GMT-0500 (Central Daylight Time),531851.7000000477,CFD-WM-037-060-A.jpg,2000,dash,O,m,807,5,1,41686.200000047684,490165.5,7174,ATS,B,16
6,test,3,C,mfborder.png,1,z,Fri Jun 27 2025 16:33:58 GMT-0500 (Central Daylight Time),534417.6000000238,CFD-WF-026-008-A.jpg,1500,dash,O,z,1018,3,1,44252.10000002384,490165.5,7174,ATS,B,17
6,test,3,C,haborder.png,0,z,Fri Jun 27 2025 16:33:58 GMT-0500 (Central Daylight Time),537433.3999999762,CFD-BM-037-041-A.jpg,1900,solid,O,m,1076,8,1,47267.89999997616,490165.5,7174,ATS,B,18
7,test,3,C,mfborder.png,1,m,Fri Jun 27 2025 16:33:58 GMT-0500 (Central Daylight Time),539666.0,CFD-WM-012-007-HC.jpg,1000,dash,O,m,1186,4,1,49500.5,490165.5,7174,ATS,B,19
8,test,3,C,mfborder.png,1,z,Fri Jun 27 2025 16:33:58 GMT-0500 (Central Daylight Time),542349.1000000238,CFD-BF-051-043-A.jpg,1600,dash,O,z,1049,2,1,52183.60000002384,490165.5,7174,ATS,B,20
9,test,3,C,haborder.png,1,m,Fri Jun 27 2025 16:33:58 GMT-0500 (Central Daylight Time),545147.3999999762,CFD-BF-035-007-HC.jpg,1600,solid,O,m,1157,10,1,54981.89999997616,490165.5,7174,ATS,B,21
10,test,3,C,mfborder.png,1,z,Fri Jun 27 2025 16:33:58 GMT-0500 (Central Daylight Time),547713.1000000238,CFD-BF-027-013-HC.jpg,1700,dash,O,z,802,1,1,57547.60000002384,490165.5,7174,ATS,B,22
10,test,3,C,haborder.png,0,m,Fri Jun 27 2025 16:33:58 GMT-0500 (Central Daylight Time),550262.6000000238,CFD-WF-011-006-HC.jpg,1000,solid,O,None,1514,12,1,60097.10000002384,490165.5,7174,ATS,B,23
11,test,3,C,haborder.png,1,m,Fri Jun 27 2025 16:33:58 GMT-0500 (Central Daylight Time),553210.7999999523,CFD-WF-027-007-HC.jpg,1500,solid,O,m,1384,11,1,63045.299999952316,490165.5,7174,ATS,B,24
1,test,4,C,haborder.png,1,m,Fri Jun 27 2025 16:33:58 GMT-0500 (Central Daylight Time),557160.2999999523,CFD-WM-011-006-HC.jpg,1000,solid,O,m,1369,12,1,2432.5999999046326,554727.7000000477,7174,ATS,B,1
2,test,4,C,haborder.png,1,z,Fri Jun 27 2025 16:33:58 GMT-0500 (Central Daylight Time),559858.7999999523,CFD-BF-051-043-A.jpg,1400,solid,O,z,1225,7,1,5131.099999904633,554727.7000000477,7174,ATS,B,2
3,test,4,C,haborder.png,1,m,Fri Jun 27 2025 16:33:58 GMT-0500 (Central Daylight Time),562508.5,CFD-BM-020-024-HC.jpg,1600,solid,O,m,1016,10,1,7780.799999952316,554727.7000000477,7174,ATS,B,3
4,test,4,C,haborder.png,1,m,Fri Jun 27 2025 16:33:58 GMT-0500 (Central Daylight Time),564607.7000000477,CFD-WM-011-006-HC.jpg,1000,solid,O,m,1031,12,1,9880.0,554727.7000000477,7174,ATS,B,4
5,test,4,C,mfborder.png,1,z,Fri Jun 27 2025 16:33:58 GMT-0500 (Central Daylight Time),567456.7000000477,CFD-BF-035-007-HC.jpg,1500,dash,O,z,1311,3,1,12729.0,554727.7000000477,7174,ATS,B,5
6,test,4,C,haborder.png,1,m,Fri Jun 27 2025 16:33:58 GMT-0500 (Central Daylight Time),570588.2000000477,CFD-BM-020-024-HC.jpg,1600,solid,O,m,1496,10,1,15860.5,554727.7000000477,7174,ATS,B,6
6,test,4,C,mfborder.png,0,m,Fri Jun 27 2025 16:33:58 GMT-0500 (Central Daylight Time),573121.2000000477,CFD-BM-015-017-HC.jpg,1000,dash,O,None,1514,4,1,18393.5,554727.7000000477,7174,ATS,B,7
7,test,4,C,haborder.png,1,m,Fri Jun 27 2025 16:33:58 GMT-0500 (Central Daylight Time),575421.6000000238,CFD-WM-011-006-HC.jpg,1500,solid,O,m,765,11,1,20693.899999976158,554727.7000000477,7174,ATS,B,8
8,test,4,C,haborder.png,1,z,Fri Jun 27 2025 16:33:58 GMT-0500 (Central Daylight Time),577886.7000000477,CFD-WF-026-008-A.jpg,1700,solid,O,z,723,9,1,23159.0,554727.7000000477,7174,ATS,B,9
9,test,4,C,haborder.png,1,z,Fri Jun 27 2025 16:33:58 GMT-0500 (Central Daylight Time),580952.2999999523,CFD-BF-050-012-A.jpg,1900,solid,O,z,1127,8,1,26224.599999904633,554727.7000000477,7174,ATS,B,10
10,test,4,C,mfborder.png,1,z,Fri Jun 27 2025 16:33:58 GMT-0500 (Central Daylight Time),584084.5,CFD-WF-011-006-HC.jpg,1700,dash,O,z,1390,1,1,29356.799999952316,554727.7000000477,7174,ATS,B,11
10,test,4,C,mfborder.png,0,m,Fri Jun 27 2025 16:33:58 GMT-0500 (Central Daylight Time),586833.7999999523,CFD-WM-009-009-A.jpg,1200,dash,O,None,1515,6,1,32106.099999904633,554727.7000000477,7174,ATS,B,12
10,test,4,C,mfborder.png,0,m,Fri Jun 27 2025 16:33:58 GMT-0500 (Central Daylight Time),589533.2000000477,CFD-WM-009-009-A.jpg,1200,dash,O,z,1449,6,1,34805.5,554727.7000000477,7174,ATS,B,13
11,test,4,C,haborder.png,1,z,Fri Jun 27 2025 16:33:58 GMT-0500 (Central Daylight Time),592481.8999999762,CFD-BF-050-012-A.jpg,1900,solid,O,z,1009,8,1,37754.199999928474,554727.7000000477,7174,ATS,B,14
12,test,4,C,mfborder.png,1,z,Fri Jun 27 2025 16:33:58 GMT-0500 (Central Daylight Time),594914.3999999762,CFD-BF-035-007-HC.jpg,1500,dash,O,z,892,3,1,40186.699999928474,554727.7000000477,7174,ATS,B,15
12,test,4,C,mfborder.png,0,m,Fri Jun 27 2025 16:33:58 GMT-0500 (Central Daylight Time),597480.5,CFD-BM-015-017-HC.jpg,1000,dash,O,None,1514,4,1,42752.799999952316,554727.7000000477,7174,ATS,B,16
13,test,4,C,haborder.png,1,z,Fri Jun 27 2025 16:33:58 GMT-0500 (Central Daylight Time),600679.1000000238,CFD-WF-026-008-A.jpg,1700,solid,O,z,1455,9,1,45951.39999997616,554727.7000000477,7174,ATS,B,17
14,test,4,C,haborder.png,1,z,Fri Jun 27 2025 16:33:58 GMT-0500 (Central Daylight Time),602944.3999999762,CFD-BF-051-043-A.jpg,1400,solid,O,z,819,7,1,48216.699999928474,554727.7000000477,7174,ATS,B,18
15,test,4,C,mfborder.png,1,z,Fri Jun 27 2025 16:33:58 GMT-0500 (Central Daylight Time),605627.5,CFD-WF-013-015-A.jpg,1600,dash,O,z,1058,2,1,50899.799999952316,554727.7000000477,7174,ATS,B,19
16,test,4,C,mfborder.png,1,z,Fri Jun 27 2025 16:33:58 GMT-0500 (Central Daylight Time),608044.7999999523,CFD-WF-013-015-A.jpg,1600,dash,O,z,782,2,1,53317.09999990463,554727.7000000477,7174,ATS,B,20
17,test,4,C,mfborder.png,1,m,Fri Jun 27 2025 16:33:58 GMT-0500 (Central Daylight Time),611325.5,CFD-BM-037-041-A.jpg,2000,dash,O,m,1245,5,1,56597.799999952316,554727.7000000477,7174,ATS,B,21
18,test,4,C,mfborder.png,1,m,Fri Jun 27 2025 16:33:58 GMT-0500 (Central Daylight Time),614058.0,CFD-BM-037-041-A.jpg,2000,dash,O,m,685,5,1,59330.299999952316,554727.7000000477,7174,ATS,B,22
19,test,4,C,haborder.png,1,m,Fri Jun 27 2025 16:33:58 GMT-0500 (Central Daylight Time),616657.2000000477,CFD-WM-011-006-HC.jpg,1500,solid,O,m,1053,11,1,61929.5,554727.7000000477,7174,ATS,B,23
19,test,4,C,mfborder.png,0,z,Fri Jun 27 2025 16:33:58 GMT-0500 (Central Daylight Time),619906.5,CFD-WF-011-006-HC.jpg,1700,dash,O,None,1516,1,1,65178.799999952316,554727.7000000477,7174,ATS,B,24
