acc_sum,block_c,block_dur,condition,correct,correct_response,countdown,datetime,endtime,project,response,response_time,response_time_test1_response,response_time_test2_response,row_sel,same,session_number,start_end,starttime,stim1,stim2,subject_id,task,task_vers,time_test1,time_test2,trial
1,1,0.0,prac,1,z,30000.0,Fri Mar 27 2026 14:55:15 GMT-0500 (Central Daylight Time),35607.59999990463,O,z,1668,,,4,yes,1,3193.4000000953674,32414.199999809265,RSM,RSM,7784,LC,C,,,1
1,1,0.0,prac,0,m,30000.0,Fri Mar 27 2026 14:55:15 GMT-0500 (Central Daylight Time),41705.799999952316,O,z,4580,,,3,no,1,6091.900000095367,35613.89999985695,QHZXPC,QHZWPC,7784,LC,C,,,2
2,1,0.0,prac,1,z,30000.0,Fri Mar 27 2026 14:55:15 GMT-0500 (Central Daylight Time),51084.699999809265,O,z,7841,,,6,yes,1,9372.199999809265,41712.5,CSDBFPHXZ,CSDBFPHXZ,7784,LC,C,,,3
3,1,0.0,prac,1,m,30000.0,Fri Mar 27 2026 14:55:15 GMT-0500 (Central Daylight Time),56400.39999985695,O,m,3783,,,5,no,1,5309.799999952316,51090.59999990463,LNDPRSKQB,LNDPRSJQB,7784,LC,C,,,4
4,1,0.0,prac,1,m,30000.0,Fri Mar 27 2026 14:55:15 GMT-0500 (Central Daylight Time),59399.89999985695,O,m,1460,,,1,no,1,2993.2999999523163,56406.59999990463,RNV,FNV,7784,LC,C,,,5
5,1,0.0,prac,1,z,30000.0,Fri Mar 27 2026 14:55:15 GMT-0500 (Central Daylight Time),65698.19999980927,O,z,4774,,,2,yes,1,6290.799999952316,59407.39999985695,NBGFSM,NBGFSM,7784,LC,C,,,6
1,1,2.132999897003174,test,1,m,27867.000102996826,Fri Mar 27 2026 14:55:15 GMT-0500 (Central Daylight Time),79042.39999985695,O,m,2120,2120,,1,no,1,2128.899999856949,76913.5,HCF,RCF,7784,LC,C,74822,,1
2,1,6.48199987411499,test,1,m,23518.00012588501,Fri Mar 27 2026 14:55:15 GMT-0500 (Central Daylight Time),83390.89999985695,O,m,4341,4341,,2,no,1,4345.299999952316,79045.59999990463,QTPRJX,QTPNJX,7784,LC,C,76954,,2
3,1,11.151000022888184,test,1,m,18848.999977111816,Fri Mar 27 2026 14:55:15 GMT-0500 (Central Daylight Time),88060.39999985695,O,m,4656,4656,,3,no,1,4666.099999904633,83394.29999995232,MZDYGVGKQ,MZDYGLBKQ,7784,LC,C,81303,,3
4,1,13.145999908447266,test,1,m,16854.000091552734,Fri Mar 27 2026 14:55:15 GMT-0500 (Central Daylight Time),90055.5,O,m,1979,1979,,4,no,1,1992.6000001430511,88062.89999985695,FQTNMK,JQTNMK,7784,LC,C,85971,,4
5,1,15.245999813079834,test,1,z,14754.000186920166,Fri Mar 27 2026 14:55:15 GMT-0500 (Central Daylight Time),92155.09999990463,O,z,2096,2096,,5,yes,1,2096.4000000953674,90058.69999980927,CLJ,CLJ,7784,LC,C,87967,,5
6,1,19.194000005722046,test,1,m,10805.999994277954,Fri Mar 27 2026 14:55:15 GMT-0500 (Central Daylight Time),96103.5,O,m,3938,3938,,6,no,1,3942.5,92161.0,JGDMNSVPW,JGZMNSVPW,7784,LC,C,90069,,6
7,1,26.108999967575073,test,1,z,3891.0000324249268,Fri Mar 27 2026 14:55:15 GMT-0500 (Central Daylight Time),103018.09999990463,O,z,6902,6902,,7,yes,1,6910.0,96108.09999990463,FPTVHKCBJ,FPTVHKCBJ,7784,LC,C,94017,,7
8,1,28.573999881744385,test,1,m,1426.0001182556152,Fri Mar 27 2026 14:55:15 GMT-0500 (Central Daylight Time),105483.69999980927,O,m,2451,2451,,8,no,1,2461.0999999046326,103022.59999990463,XRPZBS,ZRPBDH,7784,LC,C,100931,,8
8,1,30.007999897003174,test,0,m,-7.999897003173828,Fri Mar 27 2026 14:55:15 GMT-0500 (Central Daylight Time),106917.5,O,None,1427,1427,,9,no,1,1428.2000000476837,105489.29999995232,ZSQ,ZSP,7784,LC,C,103398,,9
1,2,8.66100001335144,test,1,z,21338.99998664856,Fri Mar 27 2026 14:55:15 GMT-0500 (Central Daylight Time),118244.39999985695,O,z,8645,,8645.0,1,yes,1,12755.099999904633,105489.29999995232,PRDBZTYFN,PRDBZTYFN,7784,LC,C,,107497.0,1
2,2,11.996999979019165,test,1,m,18003.000020980835,Fri Mar 27 2026 14:55:15 GMT-0500 (Central Daylight Time),121580.09999990463,O,m,3321,,3321.0,2,no,1,16090.799999952316,105489.29999995232,NCWJDZ,NCMJDZ,7784,LC,C,,116159.0,2
3,2,13.710000038146973,test,1,m,16289.999961853027,Fri Mar 27 2026 14:55:15 GMT-0500 (Central Daylight Time),123293.59999990463,O,m,1705,,1705.0,3,no,1,17804.299999952316,105489.29999995232,KHW,KBW,7784,LC,C,,119492.0,3
4,2,17.64400005340576,test,1,m,12355.999946594238,Fri Mar 27 2026 14:55:15 GMT-0500 (Central Daylight Time),127227.89999985695,O,m,3922,,3922.0,4,no,1,21738.599999904633,105489.29999995232,ZRBGMF,ZRBCMF,7784,LC,C,,121205.0,4
5,2,19.261000156402588,test,1,m,10738.999843597412,Fri Mar 27 2026 14:55:15 GMT-0500 (Central Daylight Time),128845.5,O,m,1604,,1604.0,5,no,1,23356.200000047684,105489.29999995232,BTH,BYH,7784,LC,C,,125138.0,5
6,2,27.539999961853027,test,1,z,2460.0000381469727,Fri Mar 27 2026 14:55:15 GMT-0500 (Central Daylight Time),137123.59999990463,O,z,8265,,8265.0,6,yes,1,31634.299999952316,105489.29999995232,XWKQRYCNZ,XWKQRYCNZ,7784,LC,C,,126757.0,6
6,2,30.006999969482422,test,0,z,-6.999969482421875,Fri Mar 27 2026 14:55:15 GMT-0500 (Central Daylight Time),139590.29999995232,O,None,2462,,2462.0,7,yes,1,34101.0,105489.29999995232,HNPDLK,HNPDLK,7784,LC,C,,135036.0,7
