Number,acc_sum,block,block_c,block_cond,con_img,correct,correct_response,datetime,endtime,jitter,project,response,response_time,row_sel,session_number,start_end,starttime,subject_id,task,task_vers,trial
6,0,prac,1,A,circle.png,0,m,Thu Mar 19 2026 14:01:21 GMT-0500 (Central Daylight Time),82555.79999995232,1900,O,None,1511,5,1,4192.0,78363.79999995232,7781,NTS,C,1
1,1,prac,1,A,circle.png,1,z,Thu Mar 19 2026 14:01:21 GMT-0500 (Central Daylight Time),85141.20000004768,1000,O,z,794,1,1,2580.5,82560.70000004768,7781,NTS,C,2
8,2,prac,1,A,circle.png,1,m,Thu Mar 19 2026 14:01:21 GMT-0500 (Central Daylight Time),88490.20000004768,1600,O,m,957,7,1,3342.2000000476837,85148.0,7781,NTS,C,3
2,3,prac,1,A,circle.png,1,z,Thu Mar 19 2026 14:01:21 GMT-0500 (Central Daylight Time),91988.39999997616,2000,O,z,698,2,1,3490.1999999284744,88498.20000004768,7781,NTS,C,4
6,4,prac,1,A,circle.png,1,m,Thu Mar 19 2026 14:01:21 GMT-0500 (Central Daylight Time),95271.39999997616,1900,O,m,607,5,1,3276.2999999523163,91995.10000002384,7781,NTS,C,5
4,5,prac,1,A,circle.png,1,z,Thu Mar 19 2026 14:01:21 GMT-0500 (Central Daylight Time),98169.10000002384,1400,O,z,709,4,1,2890.100000023842,95279.0,7781,NTS,C,6
4,6,prac,1,A,circle.png,1,z,Thu Mar 19 2026 14:01:21 GMT-0500 (Central Daylight Time),101334.39999997616,1400,O,z,976,4,1,3157.5,98176.89999997616,7781,NTS,C,7
9,7,prac,1,A,circle.png,1,m,Thu Mar 19 2026 14:01:21 GMT-0500 (Central Daylight Time),104317.79999995232,1500,O,m,711,8,1,2979.0999999046326,101338.70000004768,7781,NTS,C,8
9,8,prac,1,A,circle.png,1,m,Thu Mar 19 2026 14:01:21 GMT-0500 (Central Daylight Time),107283.29999995232,1500,O,m,678,8,1,2957.0999999046326,104326.20000004768,7781,NTS,C,9
7,9,prac,1,A,circle.png,1,m,Thu Mar 19 2026 14:01:21 GMT-0500 (Central Daylight Time),110597.20000004768,1700,O,m,825,6,1,3305.8000000715256,107291.39999997616,7781,NTS,C,10
8,10,prac,1,A,circle.png,1,m,Thu Mar 19 2026 14:01:21 GMT-0500 (Central Daylight Time),113531.89999997616,1600,O,m,538,7,1,2929.100000023842,110602.79999995232,7781,NTS,C,11
3,11,prac,1,A,circle.png,1,z,Thu Mar 19 2026 14:01:21 GMT-0500 (Central Daylight Time),116364.70000004768,1200,O,z,861,3,1,2826.3000000715256,113538.39999997616,7781,NTS,C,12
7,1,prac,1,B,triangle.png,1,z,Thu Mar 19 2026 14:01:21 GMT-0500 (Central Daylight Time),161799.89999997616,2000,O,z,1075,6,1,3861.5,157938.39999997616,7781,NTS,C,1
9,2,prac,1,B,triangle.png,1,z,Thu Mar 19 2026 14:01:21 GMT-0500 (Central Daylight Time),164815.60000002384,1400,O,z,818,8,1,3008.7000000476837,161806.89999997616,7781,NTS,C,2
4,3,prac,1,B,triangle.png,1,m,Thu Mar 19 2026 14:01:21 GMT-0500 (Central Daylight Time),167848.20000004768,1500,O,m,743,4,1,3025.9000000953674,164822.29999995232,7781,NTS,C,3
1,4,prac,1,B,triangle.png,1,z,Thu Mar 19 2026 14:01:21 GMT-0500 (Central Daylight Time),171163.89999997616,1900,O,z,638,1,1,3310.100000023842,167853.79999995232,7781,NTS,C,4
2,5,prac,1,B,triangle.png,1,m,Thu Mar 19 2026 14:01:21 GMT-0500 (Central Daylight Time),174495.39999997616,1700,O,m,844,2,1,3324.0,171171.39999997616,7781,NTS,C,5
8,6,prac,1,B,triangle.png,1,m,Thu Mar 19 2026 14:01:21 GMT-0500 (Central Daylight Time),177330.20000004768,1200,O,m,834,7,1,2828.5,174501.70000004768,7781,NTS,C,6
2,7,prac,1,B,triangle.png,1,m,Thu Mar 19 2026 14:01:21 GMT-0500 (Central Daylight Time),180827.70000004768,1700,O,m,1005,2,1,3490.9000000953674,177336.79999995232,7781,NTS,C,7
6,8,prac,1,B,triangle.png,1,m,Thu Mar 19 2026 14:01:21 GMT-0500 (Central Daylight Time),183876.60000002384,1000,O,m,1262,5,1,3042.7000000476837,180833.89999997616,7781,NTS,C,8
3,9,prac,1,B,triangle.png,1,z,Thu Mar 19 2026 14:01:21 GMT-0500 (Central Daylight Time),186908.29999995232,1600,O,z,633,3,1,3023.899999976158,183884.39999997616,7781,NTS,C,9
6,10,prac,1,B,triangle.png,1,m,Thu Mar 19 2026 14:01:21 GMT-0500 (Central Daylight Time),189907.89999997616,1000,O,m,1216,5,1,2993.1999999284744,186914.70000004768,7781,NTS,C,10
9,11,prac,1,B,triangle.png,1,z,Thu Mar 19 2026 14:01:21 GMT-0500 (Central Daylight Time),193041.20000004768,1400,O,z,943,8,1,3125.2000000476837,189916.0,7781,NTS,C,11
3,12,prac,1,B,triangle.png,1,z,Thu Mar 19 2026 14:01:21 GMT-0500 (Central Daylight Time),196388.60000002384,1600,O,z,956,3,1,3341.2000000476837,193047.39999997616,7781,NTS,C,12
7,1,test,1,A,circle.png,1,m,Thu Mar 19 2026 14:01:21 GMT-0500 (Central Daylight Time),227145.20000004768,1700,O,m,1188,6,1,2908.9000000953674,224236.29999995232,7781,NTS,C,1
3,2,test,1,A,circle.png,1,z,Thu Mar 19 2026 14:01:21 GMT-0500 (Central Daylight Time),229227.0,1200,O,z,855,3,1,2079.100000023842,227147.89999997616,7781,NTS,C,2
8,3,test,1,A,circle.png,1,m,Thu Mar 19 2026 14:01:21 GMT-0500 (Central Daylight Time),231727.20000004768,1600,O,m,869,7,1,2494.100000023842,229233.10000002384,7781,NTS,C,3
4,4,test,1,A,circle.png,1,z,Thu Mar 19 2026 14:01:21 GMT-0500 (Central Daylight Time),234492.5,1400,O,z,1347,4,1,2757.600000023842,231734.89999997616,7781,NTS,C,4
9,5,test,1,A,circle.png,1,m,Thu Mar 19 2026 14:01:21 GMT-0500 (Central Daylight Time),236789.79999995232,1500,O,m,775,8,1,2291.7999999523163,234498.0,7781,NTS,C,5
7,6,test,1,A,circle.png,1,m,Thu Mar 19 2026 14:01:21 GMT-0500 (Central Daylight Time),239124.29999995232,1700,O,m,613,6,1,2331.5999999046326,236792.70000004768,7781,NTS,C,6
8,7,test,1,A,circle.png,1,m,Thu Mar 19 2026 14:01:21 GMT-0500 (Central Daylight Time),241957.0,1600,O,m,1205,7,1,2827.5,239129.5,7781,NTS,C,7
2,8,test,1,A,circle.png,1,z,Thu Mar 19 2026 14:01:21 GMT-0500 (Central Daylight Time),244840.79999995232,2000,O,z,860,2,1,2879.6999999284744,241961.10000002384,7781,NTS,C,8
6,9,test,1,A,circle.png,1,m,Thu Mar 19 2026 14:01:21 GMT-0500 (Central Daylight Time),247671.39999997616,1900,O,m,900,5,1,2825.7999999523163,244845.60000002384,7781,NTS,C,9
8,10,test,1,A,circle.png,1,m,Thu Mar 19 2026 14:01:21 GMT-0500 (Central Daylight Time),250003.89999997616,1600,O,m,705,7,1,2327.6999999284744,247676.20000004768,7781,NTS,C,10
9,11,test,1,A,circle.png,1,m,Thu Mar 19 2026 14:01:21 GMT-0500 (Central Daylight Time),252269.20000004768,1500,O,m,745,8,1,2261.5,250007.70000004768,7781,NTS,C,11
6,12,test,1,A,circle.png,1,m,Thu Mar 19 2026 14:01:21 GMT-0500 (Central Daylight Time),255002.39999997616,1900,O,m,804,5,1,2727.2999999523163,252275.10000002384,7781,NTS,C,12
3,13,test,1,A,circle.png,1,z,Thu Mar 19 2026 14:01:21 GMT-0500 (Central Daylight Time),256885.70000004768,1200,O,z,654,3,1,1879.2000000476837,255006.5,7781,NTS,C,13
2,14,test,1,A,circle.png,1,z,Thu Mar 19 2026 14:01:21 GMT-0500 (Central Daylight Time),259452.39999997616,2000,O,z,540,2,1,2561.7999999523163,256890.60000002384,7781,NTS,C,14
1,15,test,1,A,circle.png,1,z,Thu Mar 19 2026 14:01:21 GMT-0500 (Central Daylight Time),261065.79999995232,1000,O,z,582,1,1,1609.2999999523163,259456.5,7781,NTS,C,15
9,16,test,1,A,circle.png,1,m,Thu Mar 19 2026 14:01:21 GMT-0500 (Central Daylight Time),263350.7000000477,1500,O,m,747,8,1,2282.2000000476837,261068.5,7781,NTS,C,16
1,17,test,1,A,circle.png,1,z,Thu Mar 19 2026 14:01:21 GMT-0500 (Central Daylight Time),265132.39999997616,1000,O,z,764,1,1,1776.3999999761581,263356.0,7781,NTS,C,17
8,18,test,1,A,circle.png,1,m,Thu Mar 19 2026 14:01:21 GMT-0500 (Central Daylight Time),267467.0,1600,O,m,701,7,1,2328.399999976158,265138.60000002384,7781,NTS,C,18
2,19,test,1,A,circle.png,1,z,Thu Mar 19 2026 14:01:21 GMT-0500 (Central Daylight Time),270114.10000002384,2000,O,z,616,2,1,2643.5,267470.60000002384,7781,NTS,C,19
7,20,test,1,A,circle.png,1,m,Thu Mar 19 2026 14:01:21 GMT-0500 (Central Daylight Time),272431.0,1700,O,m,595,6,1,2310.2999999523163,270120.7000000477,7781,NTS,C,20
1,21,test,1,A,circle.png,1,z,Thu Mar 19 2026 14:01:21 GMT-0500 (Central Daylight Time),274079.5,1000,O,z,619,1,1,1645.2999999523163,272434.2000000477,7781,NTS,C,21
3,22,test,1,A,circle.png,1,z,Thu Mar 19 2026 14:01:21 GMT-0500 (Central Daylight Time),276079.10000002384,1200,O,z,776,3,1,1994.6000000238419,274084.5,7781,NTS,C,22
6,23,test,1,A,circle.png,1,m,Thu Mar 19 2026 14:01:21 GMT-0500 (Central Daylight Time),278595.0,1900,O,m,598,5,1,2511.899999976158,276083.10000002384,7781,NTS,C,23
4,24,test,1,A,circle.png,1,z,Thu Mar 19 2026 14:01:21 GMT-0500 (Central Daylight Time),280677.2999999523,1400,O,z,659,4,1,2078.7999999523163,278598.5,7781,NTS,C,24
9,1,test,1,B,triangle.png,1,z,Thu Mar 19 2026 14:01:21 GMT-0500 (Central Daylight Time),295189.89999997616,1400,O,z,1353,8,1,2779.0,292410.89999997616,7781,NTS,C,1
7,2,test,1,B,triangle.png,1,z,Thu Mar 19 2026 14:01:21 GMT-0500 (Central Daylight Time),297937.7000000477,2000,O,z,722,6,1,2743.3000000715256,295194.39999997616,7781,NTS,C,2
3,3,test,1,B,triangle.png,1,z,Thu Mar 19 2026 14:01:21 GMT-0500 (Central Daylight Time),300255.2999999523,1600,O,z,685,3,1,2315.0,297940.2999999523,7781,NTS,C,3
4,4,test,1,B,triangle.png,1,m,Thu Mar 19 2026 14:01:21 GMT-0500 (Central Daylight Time),302437.2000000477,1500,O,m,655,4,1,2176.5,300260.7000000477,7781,NTS,C,4
4,5,test,1,B,triangle.png,1,m,Thu Mar 19 2026 14:01:21 GMT-0500 (Central Daylight Time),304619.89999997616,1500,O,m,656,4,1,2179.6999999284744,302440.2000000477,7781,NTS,C,5
1,6,test,1,B,triangle.png,1,z,Thu Mar 19 2026 14:01:21 GMT-0500 (Central Daylight Time),307370.89999997616,1900,O,z,832,1,1,2745.7999999523163,304625.10000002384,7781,NTS,C,6
7,7,test,1,B,triangle.png,1,z,Thu Mar 19 2026 14:01:21 GMT-0500 (Central Daylight Time),310785.2999999523,2000,O,z,1390,6,1,3408.899999976158,307376.39999997616,7781,NTS,C,7
2,8,test,1,B,triangle.png,1,m,Thu Mar 19 2026 14:01:21 GMT-0500 (Central Daylight Time),313416.7000000477,1700,O,m,908,2,1,2625.9000000953674,310790.7999999523,7781,NTS,C,8
9,9,test,1,B,triangle.png,1,z,Thu Mar 19 2026 14:01:21 GMT-0500 (Central Daylight Time),316648.7000000477,1900,O,z,1298,16,1,3227.5,313421.2000000477,7781,NTS,C,9
8,10,test,1,B,triangle.png,1,m,Thu Mar 19 2026 14:01:21 GMT-0500 (Central Daylight Time),318631.7000000477,1200,O,m,749,7,1,1976.5,316655.2000000477,7781,NTS,C,10
9,11,test,1,B,triangle.png,1,z,Thu Mar 19 2026 14:01:21 GMT-0500 (Central Daylight Time),321614.7000000477,1900,O,z,1053,16,1,2978.600000023842,318636.10000002384,7781,NTS,C,11
2,12,test,1,B,triangle.png,1,m,Thu Mar 19 2026 14:01:21 GMT-0500 (Central Daylight Time),324063.7000000477,1200,O,m,1217,10,1,2444.5,321619.2000000477,7781,NTS,C,12
6,13,test,1,B,triangle.png,1,m,Thu Mar 19 2026 14:01:21 GMT-0500 (Central Daylight Time),325896.60000002384,1000,O,m,809,5,1,1829.8000000715256,324066.7999999523,7781,NTS,C,13
3,14,test,1,B,triangle.png,1,z,Thu Mar 19 2026 14:01:21 GMT-0500 (Central Daylight Time),328711.2999999523,2000,O,z,792,11,1,2811.399999976158,325899.89999997616,7781,NTS,C,14
6,15,test,1,B,triangle.png,1,m,Thu Mar 19 2026 14:01:21 GMT-0500 (Central Daylight Time),330645.0,1000,O,m,912,5,1,1928.2999999523163,328716.7000000477,7781,NTS,C,15
1,16,test,1,B,triangle.png,1,z,Thu Mar 19 2026 14:01:21 GMT-0500 (Central Daylight Time),333326.7999999523,1900,O,z,760,1,1,2676.6999999284744,330650.10000002384,7781,NTS,C,16
8,17,test,1,B,triangle.png,1,m,Thu Mar 19 2026 14:01:21 GMT-0500 (Central Daylight Time),335859.7000000477,1700,O,m,805,15,1,2529.100000023842,333330.60000002384,7781,NTS,C,17
1,18,test,1,B,triangle.png,1,z,Thu Mar 19 2026 14:01:21 GMT-0500 (Central Daylight Time),338008.60000002384,1400,O,z,726,9,1,2143.100000023842,335865.5,7781,NTS,C,18
2,19,test,1,B,triangle.png,1,m,Thu Mar 19 2026 14:01:21 GMT-0500 (Central Daylight Time),340776.7000000477,1700,O,m,1035,2,1,2762.3000000715256,338014.39999997616,7781,NTS,C,19
4,20,test,1,B,triangle.png,1,m,Thu Mar 19 2026 14:01:21 GMT-0500 (Central Daylight Time),342511.39999997616,1000,O,m,717,12,1,1729.1999999284744,340782.2000000477,7781,NTS,C,20
7,21,test,1,B,triangle.png,1,z,Thu Mar 19 2026 14:01:21 GMT-0500 (Central Daylight Time),345124.89999997616,1600,O,z,987,14,1,2610.100000023842,342514.7999999523,7781,NTS,C,21
6,22,test,1,B,triangle.png,1,m,Thu Mar 19 2026 14:01:21 GMT-0500 (Central Daylight Time),347492.60000002384,1500,O,m,834,13,1,2361.3000000715256,345131.2999999523,7781,NTS,C,22
1,23,test,1,B,triangle.png,1,z,Thu Mar 19 2026 14:01:21 GMT-0500 (Central Daylight Time),349621.60000002384,1400,O,z,709,9,1,2121.899999976158,347499.7000000477,7781,NTS,C,23
4,24,test,1,B,triangle.png,1,m,Thu Mar 19 2026 14:01:21 GMT-0500 (Central Daylight Time),351737.89999997616,1000,O,m,1080,12,1,2111.1999999284744,349626.7000000477,7781,NTS,C,24
3,1,prac,1,C,triangle.png,1,z,Thu Mar 19 2026 14:01:21 GMT-0500 (Central Daylight Time),421700.10000002384,1500,O,z,920,3,1,3209.600000023842,418490.5,7781,NTS,C,1
6,2,prac,1,C,circle.png,1,m,Thu Mar 19 2026 14:01:21 GMT-0500 (Central Daylight Time),425683.10000002384,2000,O,m,1188,5,1,3974.600000023842,421708.5,7781,NTS,C,2
6,3,prac,1,C,circle.png,1,m,Thu Mar 19 2026 14:01:21 GMT-0500 (Central Daylight Time),429414.39999997616,2000,O,m,934,5,1,3724.100000023842,425690.2999999523,7781,NTS,C,3
7,4,prac,1,C,triangle.png,1,z,Thu Mar 19 2026 14:01:21 GMT-0500 (Central Daylight Time),432646.7000000477,1200,O,z,1258,6,1,3227.7000000476837,429419.0,7781,NTS,C,4
9,5,prac,1,C,circle.png,1,m,Thu Mar 19 2026 14:01:21 GMT-0500 (Central Daylight Time),436777.89999997616,1900,O,m,1438,8,1,4125.299999952316,432652.60000002384,7781,NTS,C,5
4,5,prac,1,C,circle.png,0,z,Thu Mar 19 2026 14:01:21 GMT-0500 (Central Daylight Time),439993.2999999523,1000,O,m,1423,4,1,3209.399999976158,436783.89999997616,7781,NTS,C,6
8,5,prac,1,C,triangle.png,0,m,Thu Mar 19 2026 14:01:21 GMT-0500 (Central Daylight Time),443692.39999997616,1400,O,None,1515,7,1,3694.2999999523163,439998.10000002384,7781,NTS,C,7
3,6,prac,1,C,triangle.png,1,z,Thu Mar 19 2026 14:01:21 GMT-0500 (Central Daylight Time),446775.5,1500,O,z,796,3,1,3076.0,443699.5,7781,NTS,C,8
2,6,prac,1,C,triangle.png,0,m,Thu Mar 19 2026 14:01:21 GMT-0500 (Central Daylight Time),450657.10000002384,1600,O,None,1501,2,1,3876.0,446781.10000002384,7781,NTS,C,9
1,6,prac,1,C,circle.png,0,z,Thu Mar 19 2026 14:01:21 GMT-0500 (Central Daylight Time),454404.89999997616,1700,O,m,1262,1,1,3742.1999999284744,450662.7000000477,7781,NTS,C,10
9,6,prac,1,C,circle.png,0,m,Thu Mar 19 2026 14:01:21 GMT-0500 (Central Daylight Time),458238.0,1900,O,z,1144,8,1,3827.100000023842,454410.89999997616,7781,NTS,C,11
4,6,prac,1,C,circle.png,0,z,Thu Mar 19 2026 14:01:21 GMT-0500 (Central Daylight Time),461537.2999999523,1000,O,None,1517,4,1,3292.399999976158,458244.89999997616,7781,NTS,C,12
7,0,prac,2,C,triangle.png,0,z,Thu Mar 19 2026 14:01:21 GMT-0500 (Central Daylight Time),522619.60000002384,1200,O,None,1516,6,1,3496.3000000715256,519123.2999999523,7781,NTS,C,1
9,1,prac,2,C,circle.png,1,m,Thu Mar 19 2026 14:01:21 GMT-0500 (Central Daylight Time),526168.7999999523,1900,O,m,867,8,1,3542.0,522626.7999999523,7781,NTS,C,2
2,1,prac,2,C,triangle.png,0,m,Thu Mar 19 2026 14:01:21 GMT-0500 (Central Daylight Time),530065.2999999523,1600,O,None,1516,2,1,3892.1999999284744,526173.1000000238,7781,NTS,C,3
1,2,prac,2,C,circle.png,1,z,Thu Mar 19 2026 14:01:21 GMT-0500 (Central Daylight Time),533448.2999999523,1700,O,z,899,1,1,3376.5999999046326,530071.7000000477,7781,NTS,C,4
3,3,prac,2,C,triangle.png,1,z,Thu Mar 19 2026 14:01:21 GMT-0500 (Central Daylight Time),536747.0,1500,O,z,1027,3,1,3292.600000023842,533454.3999999762,7781,NTS,C,5
4,3,prac,2,C,circle.png,0,z,Thu Mar 19 2026 14:01:21 GMT-0500 (Central Daylight Time),539612.8999999762,1000,O,m,1095,4,1,2859.7999999523163,536753.1000000238,7781,NTS,C,6
4,4,prac,2,C,circle.png,1,z,Thu Mar 19 2026 14:01:21 GMT-0500 (Central Daylight Time),542327.8999999762,1000,O,z,934,4,1,2707.600000023842,539620.2999999523,7781,NTS,C,7
3,5,prac,2,C,triangle.png,1,z,Thu Mar 19 2026 14:01:21 GMT-0500 (Central Daylight Time),545726.5,1500,O,z,1111,3,1,3391.399999976158,542335.1000000238,7781,NTS,C,8
9,6,prac,2,C,circle.png,1,m,Thu Mar 19 2026 14:01:21 GMT-0500 (Central Daylight Time),549443.3999999762,1900,O,m,1038,8,1,3713.0,545730.3999999762,7781,NTS,C,9
8,6,prac,2,C,triangle.png,0,m,Thu Mar 19 2026 14:01:21 GMT-0500 (Central Daylight Time),552391.1000000238,1400,O,z,759,7,1,2940.600000023842,549450.5,7781,NTS,C,10
6,7,prac,2,C,circle.png,1,m,Thu Mar 19 2026 14:01:21 GMT-0500 (Central Daylight Time),556272.7999999523,2000,O,m,1098,5,1,3876.2999999523163,552396.5,7781,NTS,C,11
7,8,prac,2,C,triangle.png,1,z,Thu Mar 19 2026 14:01:21 GMT-0500 (Central Daylight Time),559173.8999999762,1200,O,z,903,6,1,2895.399999976158,556278.5,7781,NTS,C,12
2,0,prac,3,C,triangle.png,0,m,Thu Mar 19 2026 14:01:21 GMT-0500 (Central Daylight Time),572318.3999999762,1600,O,None,1517,2,1,3891.5,568426.8999999762,7781,NTS,C,1
2,0,prac,3,C,triangle.png,0,m,Thu Mar 19 2026 14:01:21 GMT-0500 (Central Daylight Time),575699.8999999762,1600,O,z,994,2,1,3374.6999999284744,572325.2000000477,7781,NTS,C,2
3,1,prac,3,C,triangle.png,1,z,Thu Mar 19 2026 14:01:21 GMT-0500 (Central Daylight Time),579032.3999999762,1500,O,z,1050,3,1,3324.899999976158,575707.5,7781,NTS,C,3
9,2,prac,3,C,circle.png,1,m,Thu Mar 19 2026 14:01:21 GMT-0500 (Central Daylight Time),583083.2999999523,1900,O,m,1346,8,1,4040.5999999046326,579042.7000000477,7781,NTS,C,4
1,3,prac,3,C,circle.png,1,z,Thu Mar 19 2026 14:01:21 GMT-0500 (Central Daylight Time),586896.3999999762,1700,O,z,1324,1,1,3805.5,583090.8999999762,7781,NTS,C,5
6,4,prac,3,C,circle.png,1,m,Thu Mar 19 2026 14:01:21 GMT-0500 (Central Daylight Time),590713.2999999523,2000,O,m,1024,5,1,3810.0,586903.2999999523,7781,NTS,C,6
8,4,prac,3,C,triangle.png,0,m,Thu Mar 19 2026 14:01:21 GMT-0500 (Central Daylight Time),594411.5,1400,O,None,1516,7,1,3687.399999976158,590724.1000000238,7781,NTS,C,7
3,5,prac,3,C,triangle.png,1,z,Thu Mar 19 2026 14:01:21 GMT-0500 (Central Daylight Time),597843.7999999523,1500,O,z,1138,3,1,3425.0999999046326,594418.7000000477,7781,NTS,C,8
4,6,prac,3,C,circle.png,1,z,Thu Mar 19 2026 14:01:21 GMT-0500 (Central Daylight Time),600826.2999999523,1000,O,z,1197,4,1,2974.6999999284744,597851.6000000238,7781,NTS,C,9
9,7,prac,3,C,circle.png,1,m,Thu Mar 19 2026 14:01:21 GMT-0500 (Central Daylight Time),604342.0,1900,O,m,843,8,1,3509.0,600833.0,7781,NTS,C,10
7,8,prac,3,C,triangle.png,1,z,Thu Mar 19 2026 14:01:21 GMT-0500 (Central Daylight Time),607240.3999999762,1200,O,z,910,6,1,2891.1999999284744,604349.2000000477,7781,NTS,C,11
1,9,prac,3,C,circle.png,1,z,Thu Mar 19 2026 14:01:21 GMT-0500 (Central Daylight Time),610840.2999999523,1700,O,z,1125,1,1,3592.7999999523163,607247.5,7781,NTS,C,12
1,1,test,1,C,triangle.png,1,z,Thu Mar 19 2026 14:01:21 GMT-0500 (Central Daylight Time),642229.3999999762,1900,O,z,963,17,1,2878.5,639350.8999999762,7781,NTS,C,1
4,1,test,1,C,triangle.png,0,m,Thu Mar 19 2026 14:01:21 GMT-0500 (Central Daylight Time),644861.7000000477,1500,O,z,1111,20,1,2627.2000000476837,642234.5,7781,NTS,C,2
6,2,test,1,C,circle.png,1,m,Thu Mar 19 2026 14:01:21 GMT-0500 (Central Daylight Time),647760.1000000238,1900,O,m,966,21,1,2895.2000000476837,644864.8999999762,7781,NTS,C,3
2,2,test,1,C,triangle.png,0,m,Thu Mar 19 2026 14:01:21 GMT-0500 (Central Daylight Time),651293.5,2000,O,None,1516,2,1,3528.899999976158,647764.6000000238,7781,NTS,C,4
2,2,test,1,C,circle.png,0,z,Thu Mar 19 2026 14:01:21 GMT-0500 (Central Daylight Time),654360.3999999762,1700,O,m,1335,10,1,3062.0,651298.3999999762,7781,NTS,C,5
9,3,test,1,C,triangle.png,1,z,Thu Mar 19 2026 14:01:21 GMT-0500 (Central Daylight Time),657074.5,1400,O,z,1283,16,1,2711.100000023842,654363.3999999762,7781,NTS,C,6
1,4,test,1,C,triangle.png,1,z,Thu Mar 19 2026 14:01:21 GMT-0500 (Central Daylight Time),659823.6000000238,1900,O,z,830,9,1,2743.8000000715256,657079.7999999523,7781,NTS,C,7
4,5,test,1,C,circle.png,1,z,Thu Mar 19 2026 14:01:21 GMT-0500 (Central Daylight Time),662389.1000000238,1400,O,z,1147,4,1,2560.3000000715256,659828.7999999523,7781,NTS,C,8
4,5,test,1,C,triangle.png,0,m,Thu Mar 19 2026 14:01:21 GMT-0500 (Central Daylight Time),665422.3999999762,1500,O,None,1515,12,1,3029.399999976158,662393.0,7781,NTS,C,9
1,5,test,1,C,circle.png,0,z,Thu Mar 19 2026 14:01:21 GMT-0500 (Central Daylight Time),667956.0,1000,O,None,1517,1,1,2528.2999999523163,665427.7000000477,7781,NTS,C,10
3,6,test,1,C,triangle.png,1,z,Thu Mar 19 2026 14:01:21 GMT-0500 (Central Daylight Time),670170.1000000238,1200,O,z,998,3,1,2210.5,667959.6000000238,7781,NTS,C,11
3,7,test,1,C,circle.png,1,z,Thu Mar 19 2026 14:01:21 GMT-0500 (Central Daylight Time),673053.5,1600,O,z,1257,11,1,2875.100000023842,670178.3999999762,7781,NTS,C,12
8,8,test,1,C,triangle.png,1,m,Thu Mar 19 2026 14:01:21 GMT-0500 (Central Daylight Time),675835.1000000238,1600,O,m,1157,7,1,2776.5,673058.6000000238,7781,NTS,C,13
9,9,test,1,C,circle.png,1,m,Thu Mar 19 2026 14:01:21 GMT-0500 (Central Daylight Time),678401.1000000238,1500,O,m,1042,8,1,2562.100000023842,675839.0,7781,NTS,C,14
2,10,test,1,C,circle.png,1,z,Thu Mar 19 2026 14:01:21 GMT-0500 (Central Daylight Time),681133.3999999762,1700,O,z,1013,18,1,2728.600000023842,678404.7999999523,7781,NTS,C,15
7,10,test,1,C,circle.png,0,m,Thu Mar 19 2026 14:01:21 GMT-0500 (Central Daylight Time),684499.7999999523,2000,O,z,1348,14,1,3361.7999999523163,681138.0,7781,NTS,C,16
8,11,test,1,C,circle.png,1,m,Thu Mar 19 2026 14:01:21 GMT-0500 (Central Daylight Time),687030.2000000477,1200,O,m,1308,15,1,2523.4000000953674,684506.7999999523,7781,NTS,C,17
7,12,test,1,C,triangle.png,1,z,Thu Mar 19 2026 14:01:21 GMT-0500 (Central Daylight Time),689813.7999999523,1700,O,z,1062,6,1,2780.2999999523163,687033.5,7781,NTS,C,18
9,13,test,1,C,circle.png,1,m,Thu Mar 19 2026 14:01:21 GMT-0500 (Central Daylight Time),692246.2999999523,1500,O,m,905,24,1,2427.399999976158,689818.8999999762,7781,NTS,C,19
3,14,test,1,C,circle.png,1,z,Thu Mar 19 2026 14:01:21 GMT-0500 (Central Daylight Time),694997.0,1600,O,z,1134,19,1,2746.0,692251.0,7781,NTS,C,20
7,15,test,1,C,triangle.png,1,z,Thu Mar 19 2026 14:01:21 GMT-0500 (Central Daylight Time),697597.5,1700,O,z,875,22,1,2595.899999976158,695001.6000000238,7781,NTS,C,21
6,16,test,1,C,triangle.png,1,m,Thu Mar 19 2026 14:01:21 GMT-0500 (Central Daylight Time),699745.2000000477,1000,O,m,1114,13,1,2143.7000000476837,697601.5,7781,NTS,C,22
6,17,test,1,C,circle.png,1,m,Thu Mar 19 2026 14:01:21 GMT-0500 (Central Daylight Time),703043.7999999523,1900,O,m,1374,5,1,3292.2999999523163,699751.5,7781,NTS,C,23
8,18,test,1,C,triangle.png,1,m,Thu Mar 19 2026 14:01:21 GMT-0500 (Central Daylight Time),705427.8999999762,1600,O,m,761,23,1,2378.6999999284744,703049.2000000477,7781,NTS,C,24
3,1,test,2,C,circle.png,1,z,Thu Mar 19 2026 14:01:21 GMT-0500 (Central Daylight Time),722787.1000000238,1600,O,z,1083,19,1,2692.600000023842,720094.5,7781,NTS,C,1
7,2,test,2,C,circle.png,1,m,Thu Mar 19 2026 14:01:21 GMT-0500 (Central Daylight Time),725986.1000000238,2000,O,m,1182,14,1,3193.7000000476837,722792.3999999762,7781,NTS,C,2
1,3,test,2,C,circle.png,1,z,Thu Mar 19 2026 14:01:21 GMT-0500 (Central Daylight Time),727819.8999999762,1000,O,z,816,1,1,1828.2999999523163,725991.6000000238,7781,NTS,C,3
3,4,test,2,C,circle.png,1,z,Thu Mar 19 2026 14:01:21 GMT-0500 (Central Daylight Time),730200.7000000477,1600,O,z,749,11,1,2375.4000000953674,727825.2999999523,7781,NTS,C,4
6,5,test,2,C,triangle.png,1,m,Thu Mar 19 2026 14:01:21 GMT-0500 (Central Daylight Time),732350.7000000477,1000,O,m,1120,13,1,2146.4000000953674,730204.2999999523,7781,NTS,C,5
6,6,test,2,C,circle.png,1,m,Thu Mar 19 2026 14:01:21 GMT-0500 (Central Daylight Time),735083.8999999762,1900,O,m,804,5,1,2728.5,732355.3999999762,7781,NTS,C,6
2,7,test,2,C,circle.png,1,z,Thu Mar 19 2026 14:01:21 GMT-0500 (Central Daylight Time),737800.8999999762,1700,O,z,987,18,1,2711.7999999523163,735089.1000000238,7781,NTS,C,7
3,8,test,2,C,triangle.png,1,z,Thu Mar 19 2026 14:01:21 GMT-0500 (Central Daylight Time),740132.2000000477,1200,O,z,1116,3,1,2325.3000000715256,737806.8999999762,7781,NTS,C,8
9,9,test,2,C,triangle.png,1,z,Thu Mar 19 2026 14:01:21 GMT-0500 (Central Daylight Time),742381.2000000477,1400,O,z,822,24,1,2244.2000000476837,740137.0,7781,NTS,C,9
2,10,test,2,C,triangle.png,1,m,Thu Mar 19 2026 14:01:21 GMT-0500 (Central Daylight Time),745580.7999999523,2000,O,m,1184,2,1,3195.0,742385.7999999523,7781,NTS,C,10
4,11,test,2,C,triangle.png,1,m,Thu Mar 19 2026 14:01:21 GMT-0500 (Central Daylight Time),747879.0,1500,O,m,771,12,1,2292.7999999523163,745586.2000000477,7781,NTS,C,11
8,12,test,2,C,triangle.png,1,m,Thu Mar 19 2026 14:01:21 GMT-0500 (Central Daylight Time),750410.1000000238,1600,O,m,912,7,1,2525.399999976158,747884.7000000477,7781,NTS,C,12
2,13,test,2,C,circle.png,1,z,Thu Mar 19 2026 14:01:21 GMT-0500 (Central Daylight Time),752944.6000000238,1700,O,z,810,10,1,2531.8000000715256,750412.7999999523,7781,NTS,C,13
7,14,test,2,C,triangle.png,1,z,Thu Mar 19 2026 14:01:21 GMT-0500 (Central Daylight Time),755842.7999999523,1700,O,z,1164,6,1,2894.7999999523163,752948.0,7781,NTS,C,14
7,15,test,2,C,circle.png,1,m,Thu Mar 19 2026 14:01:21 GMT-0500 (Central Daylight Time),759076.1000000238,2000,O,m,1205,22,1,3229.0,755847.1000000238,7781,NTS,C,15
9,16,test,2,C,circle.png,1,m,Thu Mar 19 2026 14:01:21 GMT-0500 (Central Daylight Time),761424.6000000238,1500,O,m,827,8,1,2344.2000000476837,759080.3999999762,7781,NTS,C,16
4,17,test,2,C,circle.png,1,z,Thu Mar 19 2026 14:01:21 GMT-0500 (Central Daylight Time),763624.5,1400,O,z,768,4,1,2195.2999999523163,761429.2000000477,7781,NTS,C,17
8,18,test,2,C,circle.png,1,m,Thu Mar 19 2026 14:01:21 GMT-0500 (Central Daylight Time),765638.3999999762,1200,O,m,792,15,1,2009.3999999761581,763629.0,7781,NTS,C,18
9,19,test,2,C,triangle.png,1,z,Thu Mar 19 2026 14:01:21 GMT-0500 (Central Daylight Time),768239.0,1400,O,z,1177,16,1,2597.2000000476837,765641.7999999523,7781,NTS,C,19
6,20,test,2,C,triangle.png,1,m,Thu Mar 19 2026 14:01:21 GMT-0500 (Central Daylight Time),770239.0,1000,O,m,969,21,1,1994.0,768245.0,7781,NTS,C,20
8,21,test,2,C,circle.png,1,m,Thu Mar 19 2026 14:01:21 GMT-0500 (Central Daylight Time),772739.7000000477,1200,O,m,1285,23,1,2495.3000000715256,770244.3999999762,7781,NTS,C,21
4,21,test,2,C,triangle.png,0,m,Thu Mar 19 2026 14:01:21 GMT-0500 (Central Daylight Time),775337.2999999523,1500,O,z,1082,20,1,2592.0,772745.2999999523,7781,NTS,C,22
1,22,test,2,C,triangle.png,1,z,Thu Mar 19 2026 14:01:21 GMT-0500 (Central Daylight Time),778038.7000000477,1900,O,z,771,17,1,2698.4000000953674,775340.2999999523,7781,NTS,C,23
1,23,test,2,C,triangle.png,1,z,Thu Mar 19 2026 14:01:21 GMT-0500 (Central Daylight Time),780719.6000000238,1900,O,z,753,9,1,2677.0,778042.6000000238,7781,NTS,C,24
2,1,test,3,C,triangle.png,1,m,Thu Mar 19 2026 14:01:21 GMT-0500 (Central Daylight Time),786450.2000000477,2000,O,m,1493,2,1,3510.3000000715256,782939.8999999762,7781,NTS,C,1
7,2,test,3,C,triangle.png,1,z,Thu Mar 19 2026 14:01:21 GMT-0500 (Central Daylight Time),789037.7000000477,1700,O,z,868,6,1,2583.5,786454.2000000477,7781,NTS,C,2
4,3,test,3,C,triangle.png,1,m,Thu Mar 19 2026 14:01:21 GMT-0500 (Central Daylight Time),791647.5,1500,O,m,1093,12,1,2607.100000023842,789040.3999999762,7781,NTS,C,3
2,4,test,3,C,triangle.png,1,m,Thu Mar 19 2026 14:01:21 GMT-0500 (Central Daylight Time),794564.7999999523,2000,O,m,889,18,1,2913.2999999523163,791651.5,7781,NTS,C,4
9,5,test,3,C,circle.png,1,m,Thu Mar 19 2026 14:01:21 GMT-0500 (Central Daylight Time),797280.1000000238,1500,O,m,1186,8,1,2712.399999976158,794567.7000000477,7781,NTS,C,5
6,6,test,3,C,circle.png,1,m,Thu Mar 19 2026 14:01:21 GMT-0500 (Central Daylight Time),800062.2999999523,1900,O,m,861,21,1,2777.5,797284.7999999523,7781,NTS,C,6
3,6,test,3,C,triangle.png,0,z,Thu Mar 19 2026 14:01:21 GMT-0500 (Central Daylight Time),802794.0,1200,O,None,1515,19,1,2728.5,800065.5,7781,NTS,C,7
1,7,test,3,C,circle.png,1,z,Thu Mar 19 2026 14:01:21 GMT-0500 (Central Daylight Time),804576.7000000477,1000,O,z,757,1,1,1779.6000000238419,802797.1000000238,7781,NTS,C,8
9,8,test,3,C,circle.png,1,m,Thu Mar 19 2026 14:01:21 GMT-0500 (Central Daylight Time),806942.2000000477,1500,O,m,842,24,1,2361.0,804581.2000000477,7781,NTS,C,9
7,9,test,3,C,circle.png,1,m,Thu Mar 19 2026 14:01:21 GMT-0500 (Central Daylight Time),810209.7999999523,2000,O,m,1236,14,1,3264.6999999284744,806945.1000000238,7781,NTS,C,10
7,10,test,3,C,triangle.png,1,z,Thu Mar 19 2026 14:01:21 GMT-0500 (Central Daylight Time),812858.7000000477,1700,O,z,917,22,1,2643.3000000715256,810215.3999999762,7781,NTS,C,11
8,10,test,3,C,triangle.png,0,m,Thu Mar 19 2026 14:01:21 GMT-0500 (Central Daylight Time),815691.1000000238,1600,O,z,1215,23,1,2824.2000000476837,812866.8999999762,7781,NTS,C,12
3,10,test,3,C,circle.png,0,z,Thu Mar 19 2026 14:01:21 GMT-0500 (Central Daylight Time),818656.7999999523,1600,O,m,1334,11,1,2959.2999999523163,815697.5,7781,NTS,C,13
8,10,test,3,C,triangle.png,0,m,Thu Mar 19 2026 14:01:21 GMT-0500 (Central Daylight Time),821722.2000000477,1600,O,z,1449,7,1,3056.600000023842,818665.6000000238,7781,NTS,C,14
8,11,test,3,C,circle.png,1,m,Thu Mar 19 2026 14:01:21 GMT-0500 (Central Daylight Time),823955.5,1200,O,m,1017,15,1,2229.100000023842,821726.3999999762,7781,NTS,C,15
1,12,test,3,C,triangle.png,1,z,Thu Mar 19 2026 14:01:21 GMT-0500 (Central Daylight Time),826639.2000000477,1900,O,z,764,9,1,2678.600000023842,823960.6000000238,7781,NTS,C,16
6,13,test,3,C,triangle.png,1,m,Thu Mar 19 2026 14:01:21 GMT-0500 (Central Daylight Time),829119.1000000238,1000,O,m,1460,13,1,2472.399999976158,826646.7000000477,7781,NTS,C,17
1,14,test,3,C,circle.png,1,z,Thu Mar 19 2026 14:01:21 GMT-0500 (Central Daylight Time),831619.0,1000,O,z,1465,17,1,2495.2999999523163,829123.7000000477,7781,NTS,C,18
6,15,test,3,C,circle.png,1,m,Thu Mar 19 2026 14:01:21 GMT-0500 (Central Daylight Time),834800.7999999523,1900,O,m,1251,5,1,3177.2999999523163,831623.5,7781,NTS,C,19
3,16,test,3,C,triangle.png,1,z,Thu Mar 19 2026 14:01:21 GMT-0500 (Central Daylight Time),836983.1000000238,1200,O,z,952,3,1,2176.3000000715256,834806.7999999523,7781,NTS,C,20
4,17,test,3,C,circle.png,1,z,Thu Mar 19 2026 14:01:21 GMT-0500 (Central Daylight Time),839684.8999999762,1400,O,z,1280,20,1,2696.399999976158,836988.5,7781,NTS,C,21
2,18,test,3,C,circle.png,1,z,Thu Mar 19 2026 14:01:21 GMT-0500 (Central Daylight Time),842249.2000000477,1700,O,z,843,10,1,2556.4000000953674,839692.7999999523,7781,NTS,C,22
9,18,test,3,C,triangle.png,0,z,Thu Mar 19 2026 14:01:21 GMT-0500 (Central Daylight Time),844482.7000000477,1400,O,m,809,16,1,2229.2000000476837,842253.5,7781,NTS,C,23
4,19,test,3,C,circle.png,1,z,Thu Mar 19 2026 14:01:21 GMT-0500 (Central Daylight Time),847296.1000000238,1400,O,z,1382,4,1,2808.7000000476837,844487.3999999762,7781,NTS,C,24
7,1,test,4,C,circle.png,1,m,Thu Mar 19 2026 14:01:21 GMT-0500 (Central Daylight Time),859459.1000000238,2000,O,m,1181,14,1,3193.7000000476837,856265.3999999762,7781,NTS,C,1
7,2,test,4,C,triangle.png,1,z,Thu Mar 19 2026 14:01:21 GMT-0500 (Central Daylight Time),862293.2000000477,1700,O,z,1114,22,1,2831.3000000715256,859461.8999999762,7781,NTS,C,2
3,2,test,4,C,circle.png,0,z,Thu Mar 19 2026 14:01:21 GMT-0500 (Central Daylight Time),865424.6000000238,1600,O,None,1515,11,1,3127.0,862297.6000000238,7781,NTS,C,3
1,3,test,4,C,circle.png,1,z,Thu Mar 19 2026 14:01:21 GMT-0500 (Central Daylight Time),867608.0,1000,O,z,1151,1,1,2177.0,865431.0,7781,NTS,C,4
4,4,test,4,C,circle.png,1,z,Thu Mar 19 2026 14:01:21 GMT-0500 (Central Daylight Time),870190.6000000238,1400,O,z,1166,20,1,2577.7000000476837,867612.8999999762,7781,NTS,C,5
7,5,test,4,C,triangle.png,1,z,Thu Mar 19 2026 14:01:21 GMT-0500 (Central Daylight Time),873205.3999999762,1700,O,z,1288,6,1,3010.2999999523163,870195.1000000238,7781,NTS,C,6
2,6,test,4,C,circle.png,1,z,Thu Mar 19 2026 14:01:21 GMT-0500 (Central Daylight Time),876288.7000000477,1700,O,z,1359,10,1,3079.2000000476837,873209.5,7781,NTS,C,7
9,7,test,4,C,triangle.png,1,z,Thu Mar 19 2026 14:01:21 GMT-0500 (Central Daylight Time),878870.7000000477,1400,O,z,1153,16,1,2579.4000000953674,876291.2999999523,7781,NTS,C,8
2,7,test,4,C,triangle.png,0,m,Thu Mar 19 2026 14:01:21 GMT-0500 (Central Daylight Time),882402.5,2000,O,None,1514,2,1,3528.2000000476837,878874.2999999523,7781,NTS,C,9
8,8,test,4,C,circle.png,1,m,Thu Mar 19 2026 14:01:21 GMT-0500 (Central Daylight Time),884803.2999999523,1200,O,m,1182,15,1,2397.5,882405.7999999523,7781,NTS,C,10
3,9,test,4,C,triangle.png,1,z,Thu Mar 19 2026 14:01:21 GMT-0500 (Central Daylight Time),887167.2999999523,1200,O,z,1133,3,1,2359.5999999046326,884807.7000000477,7781,NTS,C,11
2,10,test,4,C,triangle.png,1,m,Thu Mar 19 2026 14:01:21 GMT-0500 (Central Daylight Time),890617.1000000238,2000,O,m,1418,18,1,3445.8000000715256,887171.2999999523,7781,NTS,C,12
1,10,test,4,C,triangle.png,0,z,Thu Mar 19 2026 14:01:21 GMT-0500 (Central Daylight Time),894032.7000000477,1900,O,None,1501,9,1,3410.2000000476837,890622.5,7781,NTS,C,13
6,10,test,4,C,triangle.png,0,m,Thu Mar 19 2026 14:01:21 GMT-0500 (Central Daylight Time),896565.7999999523,1000,O,None,1516,13,1,2528.1999999284744,894037.6000000238,7781,NTS,C,14
1,11,test,4,C,circle.png,1,z,Thu Mar 19 2026 14:01:21 GMT-0500 (Central Daylight Time),898830.6000000238,1000,O,z,1237,17,1,2260.0,896570.6000000238,7781,NTS,C,15
6,11,test,4,C,circle.png,0,m,Thu Mar 19 2026 14:01:21 GMT-0500 (Central Daylight Time),901496.2999999523,1900,O,z,742,5,1,2660.7999999523163,898835.5,7781,NTS,C,16
8,12,test,4,C,triangle.png,1,m,Thu Mar 19 2026 14:01:21 GMT-0500 (Central Daylight Time),904229.1000000238,1600,O,m,1104,23,1,2729.2000000476837,901499.8999999762,7781,NTS,C,17
8,13,test,4,C,triangle.png,1,m,Thu Mar 19 2026 14:01:21 GMT-0500 (Central Daylight Time),906884.2999999523,1600,O,m,1027,7,1,2650.5,904233.7999999523,7781,NTS,C,18
6,14,test,4,C,circle.png,1,m,Thu Mar 19 2026 14:01:21 GMT-0500 (Central Daylight Time),909828.2999999523,1900,O,m,1033,21,1,2941.2999999523163,906887.0,7781,NTS,C,19
4,14,test,4,C,triangle.png,0,m,Thu Mar 19 2026 14:01:21 GMT-0500 (Central Daylight Time),912859.3999999762,1500,O,None,1515,12,1,3025.2999999523163,909834.1000000238,7781,NTS,C,20
4,15,test,4,C,circle.png,1,z,Thu Mar 19 2026 14:01:21 GMT-0500 (Central Daylight Time),915375.7999999523,1400,O,z,1086,4,1,2512.7999999523163,912863.0,7781,NTS,C,21
3,15,test,4,C,triangle.png,0,z,Thu Mar 19 2026 14:01:21 GMT-0500 (Central Daylight Time),917958.0,1200,O,m,1362,19,1,2578.0,915380.0,7781,NTS,C,22
9,16,test,4,C,circle.png,1,m,Thu Mar 19 2026 14:01:21 GMT-0500 (Central Daylight Time),920574.1000000238,1500,O,m,1087,24,1,2613.0,917961.1000000238,7781,NTS,C,23
9,17,test,4,C,circle.png,1,m,Thu Mar 19 2026 14:01:21 GMT-0500 (Central Daylight Time),922972.5,1500,O,m,870,8,1,2393.600000023842,920578.8999999762,7781,NTS,C,24
