acc_sum,block,block_c,change,condition,correct,correct_response,datetime,endtime,face,project,response,response_time,row_sel,session_number,start_end,starttime,subject_id,task,task_vers,trial
0,prac,1,,1-Back,,,Wed Mar 25 2026 10:04:41 GMT-0500 (Central Daylight Time),,124_o_f_d_a.png,I,space,14774,1,1,,,8099,VNB,A,0
1,prac,1,0.0,1-Back,1.0,m,Wed Mar 25 2026 10:04:41 GMT-0500 (Central Daylight Time),169706.79999995232,071_y_f_n_a.png,I,m,907,2,1,1705.2000000476837,168001.59999990463,8099,VNB,A,1
2,prac,1,0.0,1-Back,1.0,m,Wed Mar 25 2026 10:04:41 GMT-0500 (Central Daylight Time),171972.70000004768,165_m_m_h_a.png,I,m,1461,3,1,2258.600000143051,169714.09999990463,8099,VNB,A,2
3,prac,1,0.0,1-Back,1.0,m,Wed Mar 25 2026 10:04:41 GMT-0500 (Central Daylight Time),174105.40000009537,109_y_m_d_a.png,I,m,1325,4,1,2125.5,171979.90000009537,8099,VNB,A,3
4,prac,1,0.0,1-Back,1.0,m,Wed Mar 25 2026 10:04:41 GMT-0500 (Central Daylight Time),175704.59999990463,124_o_f_n_a.png,I,m,782,5,1,1591.5,174113.09999990463,8099,VNB,A,4
5,prac,1,1.0,1-Back,1.0,z,Wed Mar 25 2026 10:04:41 GMT-0500 (Central Daylight Time),177221.09999990463,109_y_m_n_a.png,I,z,705,6,1,1508.8999998569489,175712.20000004768,8099,VNB,A,5
6,prac,1,0.0,1-Back,1.0,m,Wed Mar 25 2026 10:04:41 GMT-0500 (Central Daylight Time),178954.79999995232,039_o_m_h_a.png,I,m,941,7,1,1726.5999999046326,177228.20000004768,8099,VNB,A,6
7,prac,1,0.0,1-Back,1.0,m,Wed Mar 25 2026 10:04:41 GMT-0500 (Central Daylight Time),180520.0,139_m_f_d_a.png,I,m,749,8,1,1557.7000000476837,178962.29999995232,8099,VNB,A,7
8,prac,1,1.0,1-Back,1.0,z,Wed Mar 25 2026 10:04:41 GMT-0500 (Central Daylight Time),182102.90000009537,071_y_f_d_a.png,I,z,769,9,1,1575.3000001907349,180527.59999990463,8099,VNB,A,8
9,prac,1,0.0,1-Back,1.0,m,Wed Mar 25 2026 10:04:41 GMT-0500 (Central Daylight Time),184252.20000004768,165_m_m_n_a.png,I,m,1336,10,1,2142.0,182110.20000004768,8099,VNB,A,9
10,prac,1,0.0,1-Back,1.0,m,Wed Mar 25 2026 10:04:41 GMT-0500 (Central Daylight Time),186051.5,124_o_f_h_a.png,I,m,974,11,1,1792.5,184259.0,8099,VNB,A,10
11,prac,1,0.0,1-Back,1.0,m,Wed Mar 25 2026 10:04:41 GMT-0500 (Central Daylight Time),187567.79999995232,109_y_m_d_a.png,I,m,727,12,1,1509.0999999046326,186058.70000004768,8099,VNB,A,11
0,test,1,0.0,1-Back,,,Wed Mar 25 2026 10:04:41 GMT-0500 (Central Daylight Time),187567.79999995232,071_y_f_d_a.png,I,space,11399,1,1,1509.0999999046326,186058.70000004768,8099,VNB,A,0
1,test,1,0.0,1-Back,1.0,m,Wed Mar 25 2026 10:04:41 GMT-0500 (Central Daylight Time),209827.5,139_m_f_n_a.png,I,m,1297,2,1,2310.5999999046326,207516.90000009537,8099,VNB,A,1
2,test,1,0.0,1-Back,1.0,m,Wed Mar 25 2026 10:04:41 GMT-0500 (Central Daylight Time),211660.20000004768,039_o_m_h_a.png,I,m,813,3,1,1828.2000000476837,209832.0,8099,VNB,A,2
3,test,1,1.0,1-Back,1.0,z,Wed Mar 25 2026 10:04:41 GMT-0500 (Central Daylight Time),213376.20000004768,165_m_m_h_a.png,I,z,692,4,1,1711.6000001430511,211664.59999990463,8099,VNB,A,3
4,test,1,0.0,1-Back,1.0,m,Wed Mar 25 2026 10:04:41 GMT-0500 (Central Daylight Time),215025.70000004768,124_o_f_n_a.png,I,m,632,5,1,1645.4000000953674,213380.29999995232,8099,VNB,A,4
5,test,1,0.0,1-Back,1.0,m,Wed Mar 25 2026 10:04:41 GMT-0500 (Central Daylight Time),216675.40000009537,109_y_m_d_a.png,I,m,631,6,1,1645.6000001430511,215029.79999995232,8099,VNB,A,5
6,test,1,1.0,1-Back,1.0,z,Wed Mar 25 2026 10:04:41 GMT-0500 (Central Daylight Time),218208.29999995232,139_m_f_d_a.png,I,z,509,7,1,1529.2000000476837,216679.09999990463,8099,VNB,A,6
7,test,1,0.0,1-Back,1.0,m,Wed Mar 25 2026 10:04:41 GMT-0500 (Central Daylight Time),219958.20000004768,071_y_f_h_a.png,I,m,720,8,1,1745.7999999523163,218212.40000009537,8099,VNB,A,7
8,test,1,0.0,1-Back,1.0,m,Wed Mar 25 2026 10:04:41 GMT-0500 (Central Daylight Time),221623.59999990463,039_o_m_n_a.png,I,m,635,9,1,1661.2999999523163,219962.29999995232,8099,VNB,A,8
9,test,1,0.0,1-Back,1.0,m,Wed Mar 25 2026 10:04:41 GMT-0500 (Central Daylight Time),223206.70000004768,109_y_m_h_a.png,I,m,554,10,1,1577.6000001430511,221629.09999990463,8099,VNB,A,9
10,test,1,0.0,1-Back,1.0,m,Wed Mar 25 2026 10:04:41 GMT-0500 (Central Daylight Time),224839.29999995232,039_o_m_d_a.png,I,m,610,11,1,1627.2000000476837,223212.09999990463,8099,VNB,A,10
11,test,1,1.0,1-Back,1.0,z,Wed Mar 25 2026 10:04:41 GMT-0500 (Central Daylight Time),226321.90000009537,124_o_f_d_a.png,I,z,465,12,1,1477.4000000953674,224844.5,8099,VNB,A,11
12,test,1,0.0,1-Back,1.0,m,Wed Mar 25 2026 10:04:41 GMT-0500 (Central Daylight Time),228038.0,165_m_m_n_a.png,I,m,695,13,1,1711.0,226327.0,8099,VNB,A,12
13,test,1,1.0,1-Back,1.0,z,Wed Mar 25 2026 10:04:41 GMT-0500 (Central Daylight Time),229871.0,071_y_f_n_a.png,I,z,810,14,1,1826.9000000953674,228044.09999990463,8099,VNB,A,13
14,test,1,0.0,1-Back,1.0,m,Wed Mar 25 2026 10:04:41 GMT-0500 (Central Daylight Time),231703.70000004768,139_m_f_h_a.png,I,m,802,15,1,1828.9000000953674,229874.79999995232,8099,VNB,A,14
15,test,1,0.0,1-Back,1.0,m,Wed Mar 25 2026 10:04:41 GMT-0500 (Central Daylight Time),233369.90000009537,165_m_m_d_a.png,I,m,649,16,1,1662.7000000476837,231707.20000004768,8099,VNB,A,15
16,test,1,0.0,1-Back,1.0,m,Wed Mar 25 2026 10:04:41 GMT-0500 (Central Daylight Time),235036.20000004768,109_y_m_n_a.png,I,m,646,17,1,1662.1000001430511,233374.09999990463,8099,VNB,A,16
17,test,1,0.0,1-Back,1.0,m,Wed Mar 25 2026 10:04:41 GMT-0500 (Central Daylight Time),236769.0,124_o_f_h_a.png,I,m,709,18,1,1728.0999999046326,235040.90000009537,8099,VNB,A,17
0,test,2,0.0,1-Back,,,Wed Mar 25 2026 10:04:41 GMT-0500 (Central Daylight Time),236769.0,109_y_m_n_a.png,I,space,1599,1,1,1728.0999999046326,235040.90000009537,8099,VNB,A,0
1,test,2,0.0,1-Back,1.0,m,Wed Mar 25 2026 10:04:41 GMT-0500 (Central Daylight Time),242134.0,071_y_f_h_a.png,I,m,720,2,1,1745.5,240388.5,8099,VNB,A,1
2,test,2,1.0,1-Back,1.0,m,Wed Mar 25 2026 10:04:41 GMT-0500 (Central Daylight Time),243749.79999995232,039_o_m_n_a.png,I,m,594,3,1,1611.2000000476837,242138.59999990463,8099,VNB,A,2
3,test,2,0.0,1-Back,1.0,m,Wed Mar 25 2026 10:04:41 GMT-0500 (Central Daylight Time),245483.29999995232,139_m_f_d_a.png,I,m,708,4,1,1729.0999999046326,243754.20000004768,8099,VNB,A,3
4,test,2,0.0,1-Back,1.0,z,Wed Mar 25 2026 10:04:41 GMT-0500 (Central Daylight Time),247449.20000004768,165_m_m_d_a.png,I,z,933,5,1,1961.6000001430511,245487.59999990463,8099,VNB,A,4
5,test,2,0.0,1-Back,1.0,m,Wed Mar 25 2026 10:04:41 GMT-0500 (Central Daylight Time),249248.59999990463,109_y_m_h_a.png,I,m,767,6,1,1795.2999999523163,247453.29999995232,8099,VNB,A,5
6,test,2,1.0,1-Back,1.0,z,Wed Mar 25 2026 10:04:41 GMT-0500 (Central Daylight Time),250981.29999995232,124_o_f_h_a.png,I,z,712,7,1,1728.5,249252.79999995232,8099,VNB,A,6
7,test,2,0.0,1-Back,1.0,m,Wed Mar 25 2026 10:04:41 GMT-0500 (Central Daylight Time),252647.20000004768,139_m_f_n_a.png,I,m,635,8,1,1661.2999999523163,250985.90000009537,8099,VNB,A,7
8,test,2,0.0,1-Back,1.0,m,Wed Mar 25 2026 10:04:41 GMT-0500 (Central Daylight Time),254496.59999990463,071_y_f_d_a.png,I,m,817,9,1,1845.0999999046326,252651.5,8099,VNB,A,8
9,test,2,0.0,1-Back,1.0,m,Wed Mar 25 2026 10:04:41 GMT-0500 (Central Daylight Time),256146.20000004768,165_m_m_n_a.png,I,m,633,10,1,1645.9000000953674,254500.29999995232,8099,VNB,A,9
10,test,2,1.0,1-Back,1.0,m,Wed Mar 25 2026 10:04:41 GMT-0500 (Central Daylight Time),257862.29999995232,139_m_f_h_a.png,I,m,686,11,1,1710.7999999523163,256151.5,8099,VNB,A,10
11,test,2,0.0,1-Back,1.0,z,Wed Mar 25 2026 10:04:41 GMT-0500 (Central Daylight Time),259328.59999990463,039_o_m_h_a.png,I,z,434,12,1,1462.6999998092651,257865.90000009537,8099,VNB,A,11
12,test,2,0.0,1-Back,1.0,m,Wed Mar 25 2026 10:04:41 GMT-0500 (Central Daylight Time),260978.70000004768,109_y_m_d_a.png,I,m,632,13,1,1646.0,259332.70000004768,8099,VNB,A,12
13,test,2,0.0,1-Back,1.0,m,Wed Mar 25 2026 10:04:41 GMT-0500 (Central Daylight Time),262627.59999990463,124_o_f_n_a.png,I,m,622,14,1,1644.6999998092651,260982.90000009537,8099,VNB,A,13
13,test,2,0.0,1-Back,0.0,z,Wed Mar 25 2026 10:04:41 GMT-0500 (Central Daylight Time),264227.0,071_y_f_n_a.png,I,m,581,15,1,1594.5,262632.5,8099,VNB,A,14
14,test,2,1.0,1-Back,1.0,m,Wed Mar 25 2026 10:04:41 GMT-0500 (Central Daylight Time),265943.2999999523,165_m_m_h_a.png,I,m,694,16,1,1711.7999999523163,264231.5,8099,VNB,A,15
15,test,2,0.0,1-Back,1.0,m,Wed Mar 25 2026 10:04:41 GMT-0500 (Central Daylight Time),267492.59999990463,124_o_f_d_a.png,I,m,521,17,1,1545.0999999046326,265947.5,8099,VNB,A,16
16,test,2,1.0,1-Back,1.0,z,Wed Mar 25 2026 10:04:41 GMT-0500 (Central Daylight Time),269025.7999999523,039_o_m_d_a.png,I,z,501,18,1,1528.8999998569489,267496.90000009537,8099,VNB,A,17
0,test,3,1.0,1-Back,,,Wed Mar 25 2026 10:04:41 GMT-0500 (Central Daylight Time),269025.7999999523,124_o_f_h_a.png,I,space,1407,1,1,1528.8999998569489,267496.90000009537,8099,VNB,A,0
1,test,3,0.0,1-Back,1.0,m,Wed Mar 25 2026 10:04:41 GMT-0500 (Central Daylight Time),274090.2999999523,139_m_f_d_a.png,I,m,581,2,1,1594.2000000476837,272496.09999990463,8099,VNB,A,1
2,test,3,1.0,1-Back,1.0,m,Wed Mar 25 2026 10:04:41 GMT-0500 (Central Daylight Time),275590.2999999523,165_m_m_n_a.png,I,m,471,3,1,1496.0999999046326,274094.2000000477,8099,VNB,A,2
3,test,3,0.0,1-Back,1.0,z,Wed Mar 25 2026 10:04:41 GMT-0500 (Central Daylight Time),277256.2999999523,124_o_f_n_a.png,I,z,634,4,1,1661.5999999046326,275594.7000000477,8099,VNB,A,3
4,test,3,1.0,1-Back,1.0,m,Wed Mar 25 2026 10:04:41 GMT-0500 (Central Daylight Time),278905.7000000477,039_o_m_d_a.png,I,m,625,5,1,1644.0,277261.7000000477,8099,VNB,A,4
5,test,3,0.0,1-Back,1.0,m,Wed Mar 25 2026 10:04:41 GMT-0500 (Central Daylight Time),280521.7999999523,071_y_f_h_a.png,I,m,584,6,1,1612.2999999523163,278909.5,8099,VNB,A,5
6,test,3,0.0,1-Back,1.0,z,Wed Mar 25 2026 10:04:41 GMT-0500 (Central Daylight Time),282638.2000000477,109_y_m_h_a.png,I,z,1087,7,1,2112.0,280526.2000000477,8099,VNB,A,6
7,test,3,0.0,1-Back,1.0,m,Wed Mar 25 2026 10:04:41 GMT-0500 (Central Daylight Time),284604.09999990463,139_m_f_n_a.png,I,m,947,8,1,1962.0999999046326,282642.0,8099,VNB,A,7
8,test,3,0.0,1-Back,1.0,m,Wed Mar 25 2026 10:04:41 GMT-0500 (Central Daylight Time),286370.09999990463,071_y_f_d_a.png,I,m,749,9,1,1760.5999999046326,284609.5,8099,VNB,A,8
9,test,3,1.0,1-Back,1.0,m,Wed Mar 25 2026 10:04:41 GMT-0500 (Central Daylight Time),288369.7000000477,039_o_m_n_a.png,I,m,982,10,1,1995.6000001430511,286374.09999990463,8099,VNB,A,9
10,test,3,0.0,1-Back,1.0,m,Wed Mar 25 2026 10:04:41 GMT-0500 (Central Daylight Time),290069.0,165_m_m_h_a.png,I,m,680,11,1,1693.4000000953674,288375.59999990463,8099,VNB,A,10
10,test,3,0.0,1-Back,0.0,z,Wed Mar 25 2026 10:04:41 GMT-0500 (Central Daylight Time),292201.90000009537,139_m_f_h_a.png,I,m,1108,12,1,2129.0,290072.90000009537,8099,VNB,A,11
11,test,3,1.0,1-Back,1.0,m,Wed Mar 25 2026 10:04:41 GMT-0500 (Central Daylight Time),293934.40000009537,124_o_f_d_a.png,I,m,710,13,1,1728.4000000953674,292206.0,8099,VNB,A,12
12,test,3,0.0,1-Back,1.0,z,Wed Mar 25 2026 10:04:41 GMT-0500 (Central Daylight Time),295734.09999990463,165_m_m_d_a.png,I,z,779,14,1,1796.0,293938.09999990463,8099,VNB,A,13
13,test,3,0.0,1-Back,1.0,m,Wed Mar 25 2026 10:04:41 GMT-0500 (Central Daylight Time),297283.5,109_y_m_n_a.png,I,m,523,15,1,1545.7999999523163,295737.7000000477,8099,VNB,A,14
14,test,3,1.0,1-Back,1.0,m,Wed Mar 25 2026 10:04:41 GMT-0500 (Central Daylight Time),299083.09999990463,039_o_m_h_a.png,I,m,774,16,1,1795.7999999523163,297287.2999999523,8099,VNB,A,15
15,test,3,0.0,1-Back,1.0,m,Wed Mar 25 2026 10:04:41 GMT-0500 (Central Daylight Time),300815.7000000477,109_y_m_d_a.png,I,m,701,17,1,1728.5,299087.2000000477,8099,VNB,A,16
16,test,3,1.0,1-Back,1.0,m,Wed Mar 25 2026 10:04:41 GMT-0500 (Central Daylight Time),302598.59999990463,071_y_f_n_a.png,I,m,761,18,1,1779.2999999523163,300819.2999999523,8099,VNB,A,17
0,test,4,1.0,1-Back,,,Wed Mar 25 2026 10:04:41 GMT-0500 (Central Daylight Time),302598.59999990463,165_m_m_d_a.png,I,space,6291,1,1,1779.2999999523163,300819.2999999523,8099,VNB,A,0
0,test,4,0.0,1-Back,0.0,z,Wed Mar 25 2026 10:04:41 GMT-0500 (Central Daylight Time),313661.5,039_o_m_d_a.png,I,m,1721,2,1,2744.7000000476837,310916.7999999523,8099,VNB,A,1
1,test,4,0.0,1-Back,1.0,m,Wed Mar 25 2026 10:04:41 GMT-0500 (Central Daylight Time),315194.2999999523,109_y_m_h_a.png,I,m,515,3,1,1527.7000000476837,313666.59999990463,8099,VNB,A,2
2,test,4,0.0,1-Back,1.0,m,Wed Mar 25 2026 10:04:41 GMT-0500 (Central Daylight Time),317161.5,139_m_f_n_a.png,I,m,942,4,1,1963.7999999523163,315197.7000000477,8099,VNB,A,3
3,test,4,1.0,1-Back,1.0,m,Wed Mar 25 2026 10:04:41 GMT-0500 (Central Daylight Time),319143.09999990463,124_o_f_h_a.png,I,m,952,5,1,1977.7999999523163,317165.2999999523,8099,VNB,A,4
4,test,4,0.0,1-Back,1.0,m,Wed Mar 25 2026 10:04:41 GMT-0500 (Central Daylight Time),320926.2000000477,165_m_m_n_a.png,I,m,754,6,1,1778.9000000953674,319147.2999999523,8099,VNB,A,5
5,test,4,0.0,1-Back,1.0,m,Wed Mar 25 2026 10:04:41 GMT-0500 (Central Daylight Time),322808.7000000477,109_y_m_d_a.png,I,m,859,7,1,1878.4000000953674,320930.2999999523,8099,VNB,A,6
5,test,4,1.0,1-Back,0.0,z,Wed Mar 25 2026 10:04:41 GMT-0500 (Central Daylight Time),324924.7000000477,071_y_f_d_a.png,I,m,1097,8,1,2112.100000143051,322812.59999990463,8099,VNB,A,7
6,test,4,0.0,1-Back,1.0,m,Wed Mar 25 2026 10:04:41 GMT-0500 (Central Daylight Time),326675.09999990463,139_m_f_h_a.png,I,m,733,9,1,1745.7999999523163,324929.2999999523,8099,VNB,A,8
6,test,4,0.0,1-Back,0.0,z,Wed Mar 25 2026 10:04:41 GMT-0500 (Central Daylight Time),329706.7999999523,039_o_m_h_a.png,I,None,2016,10,1,3027.2999999523163,326679.5,8099,VNB,A,9
7,test,4,1.0,1-Back,1.0,m,Wed Mar 25 2026 10:04:41 GMT-0500 (Central Daylight Time),331572.7000000477,124_o_f_n_a.png,I,m,838,11,1,1860.7000000476837,329712.0,8099,VNB,A,10
8,test,4,0.0,1-Back,1.0,m,Wed Mar 25 2026 10:04:41 GMT-0500 (Central Daylight Time),333955.2999999523,139_m_f_d_a.png,I,m,1357,12,1,2378.2000000476837,331577.09999990463,8099,VNB,A,11
9,test,4,0.0,1-Back,1.0,m,Wed Mar 25 2026 10:04:41 GMT-0500 (Central Daylight Time),335754.40000009537,071_y_f_n_a.png,I,m,782,13,1,1794.5,333959.90000009537,8099,VNB,A,12
10,test,4,0.0,1-Back,1.0,m,Wed Mar 25 2026 10:04:41 GMT-0500 (Central Daylight Time),337320.7000000477,124_o_f_d_a.png,I,m,533,14,1,1561.9000000953674,335758.7999999523,8099,VNB,A,13
11,test,4,0.0,1-Back,1.0,m,Wed Mar 25 2026 10:04:41 GMT-0500 (Central Daylight Time),338920.40000009537,071_y_f_h_a.png,I,m,577,15,1,1595.5,337324.90000009537,8099,VNB,A,14
12,test,4,1.0,1-Back,1.0,z,Wed Mar 25 2026 10:04:41 GMT-0500 (Central Daylight Time),340520.09999990463,165_m_m_h_a.png,I,z,487,16,1,1595.0999999046326,338925.0,8099,VNB,A,15
13,test,4,0.0,1-Back,1.0,m,Wed Mar 25 2026 10:04:41 GMT-0500 (Central Daylight Time),342219.40000009537,039_o_m_n_a.png,I,m,674,17,1,1695.3000001907349,340524.09999990463,8099,VNB,A,16
13,test,4,1.0,1-Back,0.0,z,Wed Mar 25 2026 10:04:41 GMT-0500 (Central Daylight Time),344318.7999999523,109_y_m_n_a.png,I,m,1077,18,1,2095.0,342223.7999999523,8099,VNB,A,17
0,test,5,1.0,1-Back,,,Wed Mar 25 2026 10:04:41 GMT-0500 (Central Daylight Time),344318.7999999523,039_o_m_n_a.png,I,space,1770,1,1,2095.0,342223.7999999523,8099,VNB,A,0
1,test,5,1.0,1-Back,1.0,m,Wed Mar 25 2026 10:04:41 GMT-0500 (Central Daylight Time),350316.5,124_o_f_h_a.png,I,m,1179,2,1,2195.0999999046326,348121.40000009537,8099,VNB,A,1
2,test,5,0.0,1-Back,1.0,m,Wed Mar 25 2026 10:04:41 GMT-0500 (Central Daylight Time),351949.59999990463,109_y_m_d_a.png,I,m,612,3,1,1628.3999998569489,350321.2000000477,8099,VNB,A,2
3,test,5,0.0,1-Back,1.0,z,Wed Mar 25 2026 10:04:41 GMT-0500 (Central Daylight Time),353615.7999999523,039_o_m_d_a.png,I,z,636,4,1,1662.0999999046326,351953.7000000477,8099,VNB,A,3
4,test,5,0.0,1-Back,1.0,m,Wed Mar 25 2026 10:04:41 GMT-0500 (Central Daylight Time),355315.09999990463,139_m_f_h_a.png,I,m,682,5,1,1694.0999999046326,353621.0,8099,VNB,A,4
5,test,5,0.0,1-Back,1.0,m,Wed Mar 25 2026 10:04:41 GMT-0500 (Central Daylight Time),356981.5,071_y_f_n_a.png,I,m,637,6,1,1662.7999999523163,355318.7000000477,8099,VNB,A,5
5,test,5,1.0,1-Back,0.0,z,Wed Mar 25 2026 10:04:41 GMT-0500 (Central Daylight Time),359114.2999999523,124_o_f_n_a.png,I,m,1115,7,1,2128.899999856949,356985.40000009537,8099,VNB,A,6
6,test,5,0.0,1-Back,1.0,m,Wed Mar 25 2026 10:04:41 GMT-0500 (Central Daylight Time),360763.40000009537,139_m_f_d_a.png,I,m,630,8,1,1645.1000001430511,359118.2999999523,8099,VNB,A,7
7,test,5,0.0,1-Back,1.0,m,Wed Mar 25 2026 10:04:41 GMT-0500 (Central Daylight Time),362380.90000009537,109_y_m_h_a.png,I,m,597,9,1,1613.1000001430511,360767.7999999523,8099,VNB,A,8
8,test,5,0.0,1-Back,1.0,m,Wed Mar 25 2026 10:04:41 GMT-0500 (Central Daylight Time),363929.2999999523,071_y_f_d_a.png,I,m,525,10,1,1544.2000000476837,362385.09999990463,8099,VNB,A,9
9,test,5,0.0,1-Back,1.0,m,Wed Mar 25 2026 10:04:41 GMT-0500 (Central Daylight Time),365512.09999990463,165_m_m_n_a.png,I,m,551,11,1,1578.0999999046326,363934.0,8099,VNB,A,10
10,test,5,1.0,1-Back,1.0,z,Wed Mar 25 2026 10:04:41 GMT-0500 (Central Daylight Time),367111.59999990463,139_m_f_n_a.png,I,z,577,12,1,1595.0999999046326,365516.5,8099,VNB,A,11
11,test,5,0.0,1-Back,1.0,m,Wed Mar 25 2026 10:04:41 GMT-0500 (Central Daylight Time),368845.2000000477,039_o_m_h_a.png,I,m,706,13,1,1729.7999999523163,367115.40000009537,8099,VNB,A,12
11,test,5,0.0,1-Back,0.0,z,Wed Mar 25 2026 10:04:41 GMT-0500 (Central Daylight Time),370593.59999990463,165_m_m_h_a.png,I,m,724,14,1,1744.5,368849.09999990463,8099,VNB,A,13
12,test,5,1.0,1-Back,1.0,m,Wed Mar 25 2026 10:04:41 GMT-0500 (Central Daylight Time),372226.7000000477,124_o_f_d_a.png,I,m,607,15,1,1629.2000000476837,370597.5,8099,VNB,A,14
13,test,5,0.0,1-Back,1.0,m,Wed Mar 25 2026 10:04:41 GMT-0500 (Central Daylight Time),373759.40000009537,109_y_m_n_a.png,I,m,510,16,1,1528.8000001907349,372230.59999990463,8099,VNB,A,15
14,test,5,0.0,1-Back,1.0,m,Wed Mar 25 2026 10:04:41 GMT-0500 (Central Daylight Time),375392.40000009537,071_y_f_h_a.png,I,m,601,17,1,1629.0,373763.40000009537,8099,VNB,A,16
15,test,5,0.0,1-Back,1.0,m,Wed Mar 25 2026 10:04:41 GMT-0500 (Central Daylight Time),377025.40000009537,165_m_m_d_a.png,I,m,608,18,1,1629.0,375396.40000009537,8099,VNB,A,17
0,prac,1,0.0,2-Back,,,Wed Mar 25 2026 10:04:41 GMT-0500 (Central Daylight Time),377025.40000009537,139_m_f_n_a.png,I,space,20313,1,1,1629.0,375396.40000009537,8099,VNB,A,0
0,prac,1,0.0,2-Back,,,Wed Mar 25 2026 10:04:41 GMT-0500 (Central Daylight Time),377025.40000009537,124_o_f_h_a.png,I,space,20313,2,1,1629.0,375396.40000009537,8099,VNB,A,0
1,prac,1,0.0,2-Back,1.0,m,Wed Mar 25 2026 10:04:41 GMT-0500 (Central Daylight Time),495856.0,039_o_m_d_a.png,I,m,1341,3,1,2126.7000000476837,493729.2999999523,8099,VNB,A,1
2,prac,1,1.0,2-Back,1.0,z,Wed Mar 25 2026 10:04:41 GMT-0500 (Central Daylight Time),497471.0,165_m_m_h_a.png,I,z,808,4,1,1607.2000000476837,495863.7999999523,8099,VNB,A,2
3,prac,1,0.0,2-Back,1.0,m,Wed Mar 25 2026 10:04:41 GMT-0500 (Central Daylight Time),499370.59999990463,071_y_f_n_a.png,I,m,1097,5,1,1892.0,497478.59999990463,8099,VNB,A,3
4,prac,1,1.0,2-Back,1.0,z,Wed Mar 25 2026 10:04:41 GMT-0500 (Central Daylight Time),501519.7999999523,039_o_m_h_a.png,I,z,1335,6,1,2142.7000000476837,499377.09999990463,8099,VNB,A,4
4,prac,1,1.0,2-Back,0.0,z,Wed Mar 25 2026 10:04:41 GMT-0500 (Central Daylight Time),504335.5,109_y_m_n_a.png,I,None,2010,7,1,2809.0999999046326,501526.40000009537,8099,VNB,A,5
5,prac,1,0.0,2-Back,1.0,m,Wed Mar 25 2026 10:04:41 GMT-0500 (Central Daylight Time),506418.0,139_m_f_d_a.png,I,m,1281,8,1,2075.0999999046326,504342.90000009537,8099,VNB,A,6
6,prac,1,0.0,2-Back,1.0,m,Wed Mar 25 2026 10:04:41 GMT-0500 (Central Daylight Time),507884.5,124_o_f_d_a.png,I,m,624,9,1,1460.0,506424.5,8099,VNB,A,7
6,prac,1,0.0,2-Back,0.0,m,Wed Mar 25 2026 10:04:41 GMT-0500 (Central Daylight Time),509616.90000009537,165_m_m_h_a.png,I,z,958,10,1,1726.7000000476837,507890.2000000477,8099,VNB,A,8
6,prac,1,1.0,2-Back,0.0,z,Wed Mar 25 2026 10:04:41 GMT-0500 (Central Daylight Time),511716.40000009537,071_y_f_d_a.png,I,m,1288,11,1,2092.2000000476837,509624.2000000477,8099,VNB,A,9
7,prac,1,0.0,2-Back,1.0,m,Wed Mar 25 2026 10:04:41 GMT-0500 (Central Daylight Time),513715.7000000477,039_o_m_n_a.png,I,m,1190,12,1,1992.0,511723.7000000477,8099,VNB,A,10
0,test,1,0.0,2-Back,,,Wed Mar 25 2026 10:04:41 GMT-0500 (Central Daylight Time),513715.7000000477,109_y_m_h_a.png,I,space,9163,1,1,1992.0,511723.7000000477,8099,VNB,A,0
0,test,1,0.0,2-Back,,,Wed Mar 25 2026 10:04:41 GMT-0500 (Central Daylight Time),513715.7000000477,124_o_f_n_a.png,I,space,9163,2,1,1992.0,511723.7000000477,8099,VNB,A,0
1,test,1,0.0,2-Back,1.0,z,Wed Mar 25 2026 10:04:41 GMT-0500 (Central Daylight Time),536525.5999999046,039_o_m_h_a.png,I,z,538,3,1,1561.5999999046326,534964.0,8099,VNB,A,1
2,test,1,0.0,2-Back,1.0,m,Wed Mar 25 2026 10:04:41 GMT-0500 (Central Daylight Time),538658.0999999046,139_m_f_d_a.png,I,m,1108,4,1,2128.5,536529.5999999046,8099,VNB,A,2
3,test,1,1.0,2-Back,1.0,m,Wed Mar 25 2026 10:04:41 GMT-0500 (Central Daylight Time),540824.0999999046,109_y_m_n_a.png,I,m,1143,5,1,2161.899999856949,538662.2000000477,8099,VNB,A,3
4,test,1,0.0,2-Back,1.0,z,Wed Mar 25 2026 10:04:41 GMT-0500 (Central Daylight Time),542773.4000000954,071_y_f_d_a.png,I,z,929,6,1,1945.2000000476837,540828.2000000477,8099,VNB,A,4
5,test,1,0.0,2-Back,1.0,m,Wed Mar 25 2026 10:04:41 GMT-0500 (Central Daylight Time),544989.4000000954,165_m_m_h_a.png,I,m,1196,7,1,2211.800000190735,542777.5999999046,8099,VNB,A,5
6,test,1,1.0,2-Back,1.0,m,Wed Mar 25 2026 10:04:41 GMT-0500 (Central Daylight Time),547105.4000000954,071_y_f_n_a.png,I,m,1091,8,1,2112.300000190735,544993.0999999046,8099,VNB,A,6
7,test,1,0.0,2-Back,1.0,z,Wed Mar 25 2026 10:04:41 GMT-0500 (Central Daylight Time),548822.5,124_o_f_h_a.png,I,z,695,9,1,1713.5,547109.0,8099,VNB,A,7
8,test,1,0.0,2-Back,1.0,m,Wed Mar 25 2026 10:04:41 GMT-0500 (Central Daylight Time),550771.0,039_o_m_d_a.png,I,m,917,10,1,1944.2999999523163,548826.7000000477,8099,VNB,A,8
9,test,1,1.0,2-Back,1.0,m,Wed Mar 25 2026 10:04:41 GMT-0500 (Central Daylight Time),552887.0,165_m_m_d_a.png,I,m,1086,11,1,2111.5,550775.5,8099,VNB,A,9
10,test,1,0.0,2-Back,1.0,m,Wed Mar 25 2026 10:04:41 GMT-0500 (Central Daylight Time),554969.5999999046,139_m_f_n_a.png,I,m,1049,12,1,2078.5,552891.0999999046,8099,VNB,A,10
11,test,1,0.0,2-Back,1.0,m,Wed Mar 25 2026 10:04:41 GMT-0500 (Central Daylight Time),556968.9000000954,071_y_f_h_a.png,I,m,967,13,1,1995.0,554973.9000000954,8099,VNB,A,11
11,test,1,0.0,2-Back,0.0,z,Wed Mar 25 2026 10:04:41 GMT-0500 (Central Daylight Time),559501.5999999046,165_m_m_n_a.png,I,m,1504,14,1,2528.2999999523163,556973.2999999523,8099,VNB,A,12
12,test,1,0.0,2-Back,1.0,m,Wed Mar 25 2026 10:04:41 GMT-0500 (Central Daylight Time),562051.5,109_y_m_d_a.png,I,m,1531,15,1,2546.0999999046326,559505.4000000954,8099,VNB,A,13
13,test,1,1.0,2-Back,1.0,m,Wed Mar 25 2026 10:04:41 GMT-0500 (Central Daylight Time),563899.9000000954,139_m_f_h_a.png,I,m,823,16,1,1844.4000000953674,562055.5,8099,VNB,A,14
13,test,1,0.0,2-Back,0.0,z,Wed Mar 25 2026 10:04:41 GMT-0500 (Central Daylight Time),566715.9000000954,124_o_f_d_a.png,I,m,1798,17,1,2812.4000000953674,563903.5,8099,VNB,A,15
14,test,1,0.0,2-Back,1.0,m,Wed Mar 25 2026 10:04:41 GMT-0500 (Central Daylight Time),568665.0,039_o_m_n_a.png,I,m,916,18,1,1945.5,566719.5,8099,VNB,A,16
0,test,2,0.0,2-Back,,,Wed Mar 25 2026 10:04:41 GMT-0500 (Central Daylight Time),568665.0,165_m_m_h_a.png,I,space,1329,1,1,1945.5,566719.5,8099,VNB,A,0
0,test,2,0.0,2-Back,,,Wed Mar 25 2026 10:04:41 GMT-0500 (Central Daylight Time),568665.0,071_y_f_n_a.png,I,space,1329,2,1,1945.5,566719.5,8099,VNB,A,0
1,test,2,1.0,2-Back,1.0,z,Wed Mar 25 2026 10:04:41 GMT-0500 (Central Daylight Time),577029.4000000954,124_o_f_h_a.png,I,z,929,3,1,1945.4000000953674,575084.0,8099,VNB,A,1
2,test,2,0.0,2-Back,1.0,m,Wed Mar 25 2026 10:04:41 GMT-0500 (Central Daylight Time),579561.7999999523,039_o_m_d_a.png,I,m,1516,4,1,2528.5999999046326,577033.2000000477,8099,VNB,A,2
3,test,2,0.0,2-Back,1.0,m,Wed Mar 25 2026 10:04:41 GMT-0500 (Central Daylight Time),582361.0999999046,139_m_f_d_a.png,I,m,1775,5,1,2795.2999999523163,579565.7999999523,8099,VNB,A,3
3,test,2,0.0,2-Back,0.0,m,Wed Mar 25 2026 10:04:41 GMT-0500 (Central Daylight Time),584776.7999999523,109_y_m_h_a.png,I,z,1392,6,1,2411.5,582365.2999999523,8099,VNB,A,4
3,test,2,0.0,2-Back,0.0,m,Wed Mar 25 2026 10:04:41 GMT-0500 (Central Daylight Time),587809.4000000954,124_o_f_n_a.png,I,None,2016,7,1,3028.7000000476837,584780.7000000477,8099,VNB,A,5
4,test,2,1.0,2-Back,1.0,z,Wed Mar 25 2026 10:04:41 GMT-0500 (Central Daylight Time),590425.2999999523,039_o_m_h_a.png,I,z,1592,8,1,2611.7999999523163,587813.5,8099,VNB,A,6
4,test,2,0.0,2-Back,0.0,m,Wed Mar 25 2026 10:04:41 GMT-0500 (Central Daylight Time),592591.2000000477,071_y_f_d_a.png,I,z,1135,9,1,2162.4000000953674,590428.7999999523,8099,VNB,A,7
5,test,2,0.0,2-Back,1.0,m,Wed Mar 25 2026 10:04:41 GMT-0500 (Central Daylight Time),594540.4000000954,109_y_m_d_a.png,I,m,930,10,1,1944.6000001430511,592595.7999999523,8099,VNB,A,8
6,test,2,0.0,2-Back,1.0,m,Wed Mar 25 2026 10:04:41 GMT-0500 (Central Daylight Time),596756.2999999523,165_m_m_n_a.png,I,m,1188,11,1,2211.7000000476837,594544.5999999046,8099,VNB,A,9
7,test,2,0.0,2-Back,1.0,m,Wed Mar 25 2026 10:04:41 GMT-0500 (Central Daylight Time),598906.0999999046,139_m_f_h_a.png,I,m,1117,12,1,2145.899999856949,596760.2000000477,8099,VNB,A,10
7,test,2,1.0,2-Back,0.0,z,Wed Mar 25 2026 10:04:41 GMT-0500 (Central Daylight Time),600971.7000000477,039_o_m_n_a.png,I,m,1047,13,1,2061.7000000476837,598910.0,8099,VNB,A,11
7,test,2,0.0,2-Back,0.0,m,Wed Mar 25 2026 10:04:41 GMT-0500 (Central Daylight Time),602987.9000000954,124_o_f_d_a.png,I,z,989,14,1,2012.3000001907349,600975.5999999046,8099,VNB,A,12
8,test,2,0.0,2-Back,1.0,m,Wed Mar 25 2026 10:04:41 GMT-0500 (Central Daylight Time),605204.0,071_y_f_h_a.png,I,m,1190,15,1,2212.2000000476837,602991.7999999523,8099,VNB,A,13
9,test,2,0.0,2-Back,1.0,z,Wed Mar 25 2026 10:04:41 GMT-0500 (Central Daylight Time),607236.4000000954,165_m_m_d_a.png,I,z,1014,16,1,2028.3000001907349,605208.0999999046,8099,VNB,A,14
10,test,2,0.0,2-Back,1.0,m,Wed Mar 25 2026 10:04:41 GMT-0500 (Central Daylight Time),609769.0999999046,109_y_m_n_a.png,I,m,1500,17,1,2528.7999999523163,607240.2999999523,8099,VNB,A,15
11,test,2,1.0,2-Back,1.0,m,Wed Mar 25 2026 10:04:41 GMT-0500 (Central Daylight Time),612001.9000000954,139_m_f_n_a.png,I,m,1200,18,1,2228.600000143051,609773.2999999523,8099,VNB,A,16
0,test,3,1.0,2-Back,,,Wed Mar 25 2026 10:04:41 GMT-0500 (Central Daylight Time),612001.9000000954,039_o_m_n_a.png,I,space,1288,1,1,2228.600000143051,609773.2999999523,8099,VNB,A,0
0,test,3,1.0,2-Back,,,Wed Mar 25 2026 10:04:41 GMT-0500 (Central Daylight Time),612001.9000000954,124_o_f_d_a.png,I,space,1288,2,1,2228.600000143051,609773.2999999523,8099,VNB,A,0
1,test,3,0.0,2-Back,1.0,m,Wed Mar 25 2026 10:04:41 GMT-0500 (Central Daylight Time),620332.4000000954,071_y_f_h_a.png,I,m,956,3,1,1978.9000000953674,618353.5,8099,VNB,A,1
2,test,3,0.0,2-Back,1.0,z,Wed Mar 25 2026 10:04:41 GMT-0500 (Central Daylight Time),622749.2999999523,139_m_f_d_a.png,I,z,1389,4,1,2412.7000000476837,620336.5999999046,8099,VNB,A,2
3,test,3,1.0,2-Back,1.0,m,Wed Mar 25 2026 10:04:41 GMT-0500 (Central Daylight Time),624497.7999999523,109_y_m_n_a.png,I,m,733,5,1,1744.3999998569489,622753.4000000954,8099,VNB,A,3
3,test,3,0.0,2-Back,0.0,m,Wed Mar 25 2026 10:04:41 GMT-0500 (Central Daylight Time),626697.2000000477,039_o_m_h_a.png,I,z,1166,6,1,2195.4000000953674,624501.7999999523,8099,VNB,A,4
4,test,3,0.0,2-Back,1.0,z,Wed Mar 25 2026 10:04:41 GMT-0500 (Central Daylight Time),629529.4000000954,071_y_f_n_a.png,I,z,1800,7,1,2828.100000143051,626701.2999999523,8099,VNB,A,5
5,test,3,1.0,2-Back,1.0,m,Wed Mar 25 2026 10:04:41 GMT-0500 (Central Daylight Time),631729.0999999046,165_m_m_d_a.png,I,m,1168,8,1,2196.199999809265,629532.9000000954,8099,VNB,A,6
6,test,3,0.0,2-Back,1.0,m,Wed Mar 25 2026 10:04:41 GMT-0500 (Central Daylight Time),633511.5999999046,109_y_m_d_a.png,I,m,753,9,1,1779.0999999046326,631732.5,8099,VNB,A,7
7,test,3,0.0,2-Back,1.0,m,Wed Mar 25 2026 10:04:41 GMT-0500 (Central Daylight Time),635511.2999999523,124_o_f_h_a.png,I,m,970,10,1,1995.8999998569489,633515.4000000954,8099,VNB,A,8
8,test,3,1.0,2-Back,1.0,m,Wed Mar 25 2026 10:04:41 GMT-0500 (Central Daylight Time),637677.0999999046,139_m_f_n_a.png,I,m,1145,11,1,2161.7999999523163,635515.2999999523,8099,VNB,A,9
9,test,3,1.0,2-Back,1.0,z,Wed Mar 25 2026 10:04:41 GMT-0500 (Central Daylight Time),639493.2000000477,165_m_m_h_a.png,I,z,788,12,1,1812.1000001430511,637681.0999999046,8099,VNB,A,10
9,test,3,0.0,2-Back,0.0,m,Wed Mar 25 2026 10:04:41 GMT-0500 (Central Daylight Time),641959.2000000477,071_y_f_d_a.png,I,z,1444,13,1,2461.2000000476837,639498.0,8099,VNB,A,11
10,test,3,0.0,2-Back,1.0,m,Wed Mar 25 2026 10:04:41 GMT-0500 (Central Daylight Time),644724.7999999523,124_o_f_n_a.png,I,m,1746,14,1,2761.2000000476837,641963.5999999046,8099,VNB,A,12
10,test,3,0.0,2-Back,0.0,z,Wed Mar 25 2026 10:04:41 GMT-0500 (Central Daylight Time),646724.0,039_o_m_d_a.png,I,m,980,15,1,1995.2999999523163,644728.7000000477,8099,VNB,A,13
11,test,3,1.0,2-Back,1.0,m,Wed Mar 25 2026 10:04:41 GMT-0500 (Central Daylight Time),648873.7000000477,139_m_f_h_a.png,I,m,1132,16,1,2143.5,646730.2000000477,8099,VNB,A,14
11,test,3,0.0,2-Back,0.0,m,Wed Mar 25 2026 10:04:41 GMT-0500 (Central Daylight Time),651106.4000000954,165_m_m_n_a.png,I,z,1208,17,1,2228.9000000953674,648877.5,8099,VNB,A,15
12,test,3,0.0,2-Back,1.0,z,Wed Mar 25 2026 10:04:41 GMT-0500 (Central Daylight Time),653405.4000000954,109_y_m_h_a.png,I,z,1271,18,1,2294.9000000953674,651110.5,8099,VNB,A,16
0,test,4,0.0,2-Back,,,Wed Mar 25 2026 10:04:41 GMT-0500 (Central Daylight Time),653405.4000000954,139_m_f_n_a.png,I,space,1012,1,1,2294.9000000953674,651110.5,8099,VNB,A,0
0,test,4,0.0,2-Back,,,Wed Mar 25 2026 10:04:41 GMT-0500 (Central Daylight Time),653405.4000000954,039_o_m_n_a.png,I,space,1012,2,1,2294.9000000953674,651110.5,8099,VNB,A,0
1,test,4,1.0,2-Back,1.0,m,Wed Mar 25 2026 10:04:41 GMT-0500 (Central Daylight Time),661602.7999999523,109_y_m_h_a.png,I,m,1091,3,1,2112.0,659490.7999999523,8099,VNB,A,1
2,test,4,1.0,2-Back,1.0,m,Wed Mar 25 2026 10:04:41 GMT-0500 (Central Daylight Time),663418.7999999523,124_o_f_d_a.png,I,m,798,4,1,1811.5999999046326,661607.2000000477,8099,VNB,A,2
3,test,4,0.0,2-Back,1.0,z,Wed Mar 25 2026 10:04:41 GMT-0500 (Central Daylight Time),665085.2999999523,039_o_m_h_a.png,I,z,646,5,1,1662.5,663422.7999999523,8099,VNB,A,3
4,test,4,0.0,2-Back,1.0,m,Wed Mar 25 2026 10:04:41 GMT-0500 (Central Daylight Time),667434.5,165_m_m_n_a.png,I,m,1332,6,1,2345.2000000476837,665089.2999999523,8099,VNB,A,4
5,test,4,0.0,2-Back,1.0,m,Wed Mar 25 2026 10:04:41 GMT-0500 (Central Daylight Time),669583.7000000477,139_m_f_d_a.png,I,m,1119,7,1,2145.7999999523163,667437.9000000954,8099,VNB,A,5
6,test,4,0.0,2-Back,1.0,z,Wed Mar 25 2026 10:04:41 GMT-0500 (Central Daylight Time),671266.5,071_y_f_n_a.png,I,z,665,8,1,1679.0999999046326,669587.4000000954,8099,VNB,A,6
7,test,4,1.0,2-Back,1.0,m,Wed Mar 25 2026 10:04:41 GMT-0500 (Central Daylight Time),673366.0,124_o_f_h_a.png,I,m,1079,9,1,2095.5999999046326,671270.4000000954,8099,VNB,A,7
8,test,4,0.0,2-Back,1.0,m,Wed Mar 25 2026 10:04:41 GMT-0500 (Central Daylight Time),675648.5999999046,165_m_m_h_a.png,I,m,1259,10,1,2279.0999999046326,673369.5,8099,VNB,A,8
9,test,4,0.0,2-Back,1.0,m,Wed Mar 25 2026 10:04:41 GMT-0500 (Central Daylight Time),677631.4000000954,071_y_f_d_a.png,I,m,953,11,1,1979.2000000476837,675652.2000000477,8099,VNB,A,9
10,test,4,0.0,2-Back,1.0,m,Wed Mar 25 2026 10:04:41 GMT-0500 (Central Daylight Time),679631.7000000477,109_y_m_n_a.png,I,m,969,12,1,1996.7999999523163,677634.9000000954,8099,VNB,A,10
10,test,4,0.0,2-Back,0.0,z,Wed Mar 25 2026 10:04:41 GMT-0500 (Central Daylight Time),681763.2999999523,039_o_m_d_a.png,I,m,1106,13,1,2127.399999856949,679635.9000000954,8099,VNB,A,11
10,test,4,1.0,2-Back,0.0,m,Wed Mar 25 2026 10:04:41 GMT-0500 (Central Daylight Time),683879.5,139_m_f_h_a.png,I,z,1094,14,1,2112.2000000476837,681767.2999999523,8099,VNB,A,12
11,test,4,1.0,2-Back,1.0,m,Wed Mar 25 2026 10:04:41 GMT-0500 (Central Daylight Time),685845.5999999046,071_y_f_h_a.png,I,m,938,15,1,1962.3999998569489,683883.2000000477,8099,VNB,A,13
12,test,4,0.0,2-Back,1.0,m,Wed Mar 25 2026 10:04:41 GMT-0500 (Central Daylight Time),687611.5,124_o_f_n_a.png,I,m,748,16,1,1761.5999999046326,685849.9000000954,8099,VNB,A,14
13,test,4,0.0,2-Back,1.0,m,Wed Mar 25 2026 10:04:41 GMT-0500 (Central Daylight Time),689444.2000000477,109_y_m_d_a.png,I,m,806,17,1,1828.7000000476837,687615.5,8099,VNB,A,15
14,test,4,1.0,2-Back,1.0,m,Wed Mar 25 2026 10:04:41 GMT-0500 (Central Daylight Time),691510.2000000477,165_m_m_d_a.png,I,m,1045,18,1,2061.9000000953674,689448.2999999523,8099,VNB,A,16
0,test,5,1.0,2-Back,,,Wed Mar 25 2026 10:04:41 GMT-0500 (Central Daylight Time),691510.2000000477,071_y_f_d_a.png,I,space,1203,1,1,2061.9000000953674,689448.2999999523,8099,VNB,A,0
0,test,5,1.0,2-Back,,,Wed Mar 25 2026 10:04:41 GMT-0500 (Central Daylight Time),691510.2000000477,124_o_f_h_a.png,I,space,1203,2,1,2061.9000000953674,689448.2999999523,8099,VNB,A,0
1,test,5,1.0,2-Back,1.0,z,Wed Mar 25 2026 10:04:41 GMT-0500 (Central Daylight Time),699857.5999999046,039_o_m_d_a.png,I,z,1017,3,1,2045.5,697812.0999999046,8099,VNB,A,1
2,test,5,1.0,2-Back,1.0,m,Wed Mar 25 2026 10:04:41 GMT-0500 (Central Daylight Time),701674.0,139_m_f_n_a.png,I,m,784,4,1,1812.2999999523163,699861.7000000477,8099,VNB,A,2
2,test,5,0.0,2-Back,0.0,m,Wed Mar 25 2026 10:04:41 GMT-0500 (Central Daylight Time),703806.2000000477,165_m_m_h_a.png,I,z,1111,5,1,2128.100000143051,701678.0999999046,8099,VNB,A,3
2,test,5,0.0,2-Back,0.0,z,Wed Mar 25 2026 10:04:41 GMT-0500 (Central Daylight Time),705989.2000000477,071_y_f_n_a.png,I,m,1162,6,1,2179.4000000953674,703809.7999999523,8099,VNB,A,4
3,test,5,0.0,2-Back,1.0,m,Wed Mar 25 2026 10:04:41 GMT-0500 (Central Daylight Time),708305.0,124_o_f_d_a.png,I,m,1283,7,1,2312.0999999046326,705992.9000000954,8099,VNB,A,5
4,test,5,0.0,2-Back,1.0,m,Wed Mar 25 2026 10:04:41 GMT-0500 (Central Daylight Time),710154.5,039_o_m_h_a.png,I,m,825,8,1,1845.4000000953674,708309.0999999046,8099,VNB,A,6
5,test,5,1.0,2-Back,1.0,z,Wed Mar 25 2026 10:04:41 GMT-0500 (Central Daylight Time),712353.7000000477,139_m_f_d_a.png,I,z,1175,9,1,2195.4000000953674,710158.2999999523,8099,VNB,A,7
6,test,5,0.0,2-Back,1.0,m,Wed Mar 25 2026 10:04:41 GMT-0500 (Central Daylight Time),714336.5,109_y_m_n_a.png,I,m,960,10,1,1978.5999999046326,712357.9000000954,8099,VNB,A,8
7,test,5,0.0,2-Back,1.0,m,Wed Mar 25 2026 10:04:41 GMT-0500 (Central Daylight Time),716336.0,165_m_m_n_a.png,I,m,977,11,1,1995.2999999523163,714340.7000000477,8099,VNB,A,9
8,test,5,0.0,2-Back,1.0,m,Wed Mar 25 2026 10:04:41 GMT-0500 (Central Daylight Time),718285.0,071_y_f_h_a.png,I,m,854,12,1,1944.9000000953674,716340.0999999046,8099,VNB,A,10
8,test,5,0.0,2-Back,0.0,m,Wed Mar 25 2026 10:04:41 GMT-0500 (Central Daylight Time),720384.7999999523,109_y_m_d_a.png,I,z,1075,13,1,2096.0,718288.7999999523,8099,VNB,A,11
9,test,5,1.0,2-Back,1.0,z,Wed Mar 25 2026 10:04:41 GMT-0500 (Central Daylight Time),722500.5999999046,139_m_f_h_a.png,I,z,1097,14,1,2111.899999856949,720388.7000000477,8099,VNB,A,12
10,test,5,0.0,2-Back,1.0,m,Wed Mar 25 2026 10:04:41 GMT-0500 (Central Daylight Time),724316.7000000477,039_o_m_n_a.png,I,m,789,15,1,1811.7000000476837,722505.0,8099,VNB,A,13
11,test,5,0.0,2-Back,1.0,m,Wed Mar 25 2026 10:04:41 GMT-0500 (Central Daylight Time),726716.0999999046,165_m_m_d_a.png,I,m,1380,16,1,2395.2999999523163,724320.7999999523,8099,VNB,A,14
12,test,5,0.0,2-Back,1.0,z,Wed Mar 25 2026 10:04:41 GMT-0500 (Central Daylight Time),728732.5999999046,124_o_f_n_a.png,I,z,990,17,1,2012.7999999523163,726719.7999999523,8099,VNB,A,15
13,test,5,1.0,2-Back,1.0,m,Wed Mar 25 2026 10:04:41 GMT-0500 (Central Daylight Time),730848.2000000477,109_y_m_h_a.png,I,m,1093,18,1,2112.0,728736.2000000477,8099,VNB,A,16
