acc_sum,block,block_c,condition,correct,correct_response,datetime,endtime,flanker,jitter,project,response,response_test_buffer_response,response_test_target_response,response_time,response_time_test_buffer_response,response_time_test_target_response,row_sel,session_number,start_end,starttime,subject_id,target,task,task_vers,time_test_buffer,time_test_buffer_response,time_test_constants,time_test_flanker,time_test_jitter,time_test_logger,time_test_target,time_test_target_response,time_test_variables,trial
1,prac,1,con,1,m,Tue Nov 18 2025 16:55:36 GMT-0600 (Central Standard Time),132091.0,zinc,1000,I,m,,,828,,,15,1,3127.800000011921,128963.19999998808,7248,zinc,NF,C,,,,,,,,,,1
1,prac,1,inc,0,m,Tue Nov 18 2025 16:55:36 GMT-0600 (Central Standard Time),135090.30000001192,raisin,1100,I,z,,,594,,,12,1,2994.600000023842,132095.69999998808,7248,cobalt,NF,C,,,,,,,,,,2
2,prac,1,inc,1,z,Tue Nov 18 2025 16:55:36 GMT-0600 (Central Standard Time),137756.09999999404,copper,900,I,z,,,475,,,2,1,2660.699999988079,135095.40000000596,7248,cherry,NF,C,,,,,,,,,,3
3,prac,1,con,1,m,Tue Nov 18 2025 16:55:36 GMT-0600 (Central Standard Time),140471.40000000596,gold,800,I,m,,,606,,,13,1,2710.7000000178814,137760.69999998808,7248,gold,NF,C,,,,,,,,,,4
4,prac,1,inc,1,m,Tue Nov 18 2025 16:55:36 GMT-0600 (Central Standard Time),143187.40000000596,pear,900,I,m,,,511,,,14,1,2709.9000000059605,140477.5,7248,iron,NF,C,,,,,,,,,,5
5,prac,1,con,1,z,Tue Nov 18 2025 16:55:36 GMT-0600 (Central Standard Time),145753.90000000596,banana,800,I,z,,,477,,,1,1,2561.7000000178814,143192.19999998808,7248,banana,NF,C,,,,,,,,,,6
6,prac,1,con,1,z,Tue Nov 18 2025 16:55:36 GMT-0600 (Central Standard Time),148635.40000000596,orange,1000,I,z,,,576,,,3,1,2877.800000011921,145757.59999999404,7248,orange,NF,C,,,,,,,,,,7
7,prac,1,con,1,m,Tue Nov 18 2025 16:55:36 GMT-0600 (Central Standard Time),151451.59999999404,silver,1000,I,m,,,517,,,11,1,2812.0,148639.59999999404,7248,silver,NF,C,,,,,,,,,,8
8,prac,1,inc,1,m,Tue Nov 18 2025 16:55:36 GMT-0600 (Central Standard Time),154283.80000001192,plum,1100,I,m,,,419,,,16,1,2822.0,151461.80000001192,7248,lead,NF,C,,,,,,,,,,9
9,prac,1,con,1,z,Tue Nov 18 2025 16:55:36 GMT-0600 (Central Standard Time),156917.19999998808,lime,800,I,z,,,527,,,5,1,2622.0,154295.19999998808,7248,lime,NF,C,,,,,,,,,,10
10,prac,1,con,1,m,Tue Nov 18 2025 16:55:36 GMT-0600 (Central Standard Time),159466.30000001192,bronze,800,I,m,,,438,,,9,1,2541.100000023842,156925.19999998808,7248,bronze,NF,C,,,,,,,,,,11
11,prac,1,inc,1,m,Tue Nov 18 2025 16:55:36 GMT-0600 (Central Standard Time),162162.5,cherry,900,I,m,,,509,,,10,1,2686.5999999940395,159475.90000000596,7248,copper,NF,C,,,,,,,,,,12
12,prac,1,inc,1,z,Tue Nov 18 2025 16:55:36 GMT-0600 (Central Standard Time),164996.30000001192,lead,1100,I,z,,,419,,,8,1,2830.4000000059605,162165.90000000596,7248,plum,NF,C,,,,,,,,,,13
13,prac,1,inc,1,z,Tue Nov 18 2025 16:55:36 GMT-0600 (Central Standard Time),167912.80000001192,cobalt,1100,I,z,,,505,,,4,1,2908.5,165004.30000001192,7248,raisin,NF,C,,,,,,,,,,14
14,prac,1,con,1,z,Tue Nov 18 2025 16:55:36 GMT-0600 (Central Standard Time),170695.30000001192,kiwi,1000,I,z,,,473,,,7,1,2775.0,167920.30000001192,7248,kiwi,NF,C,,,,,,,,,,15
14,prac,1,inc,0,z,Tue Nov 18 2025 16:55:36 GMT-0600 (Central Standard Time),173300.0,iron,900,I,m,,,399,,,6,1,2597.0999999940395,170702.90000000596,7248,pear,NF,C,,,,,,,,,,16
1,test,1,con,1,m,Tue Nov 18 2025 16:55:36 GMT-0600 (Central Standard Time),185857.09999999404,cobalt,900,I,m,m,None,598,398.0,200.0,90,1,2027.5,183829.59999999404,7248,cobalt,NF,C,176970,176970,175341,176252,175341,177368,176769,176769,177368,1
2,test,1,inc,1,m,Tue Nov 18 2025 16:55:36 GMT-0600 (Central Standard Time),187756.40000000596,banana,800,I,m,m,None,561,361.0,200.0,69,1,1894.4000000059605,185862.0,7248,bronze,NF,C,178902,178902,177373,178184,177373,179267,178701,178701,179267,2
3,test,1,inc,1,m,Tue Nov 18 2025 16:55:36 GMT-0600 (Central Standard Time),189605.59999999404,lime,800,I,m,m,None,510,311.0,199.0,101,1,1844.4000000059605,187761.19999998808,7248,gold,NF,C,180801,180801,179272,180085,179273,181117,180601,180601,181117,3
4,test,1,inc,1,m,Tue Nov 18 2025 16:55:36 GMT-0600 (Central Standard Time),191672.59999999404,raisin,1100,I,m,m,None,432,233.0,199.0,72,1,2061.4000000059605,189611.19999998808,7248,bronze,NF,C,182950,182950,181122,182234,181122,183184,182750,182750,183184,4
5,test,1,inc,1,m,Tue Nov 18 2025 16:55:36 GMT-0600 (Central Standard Time),193455.19999998808,cherry,900,I,m,m,None,359,159.0,200.0,70,1,1776.5,191678.69999998808,7248,bronze,NF,C,184801,184801,183190,184099,183190,184966,184600,184600,184966,5
6,test,1,con,1,z,Tue Nov 18 2025 16:55:36 GMT-0600 (Central Standard Time),195470.5,orange,1000,I,z,z,None,474,260.0,214.0,19,1,2010.300000011921,193460.19999998808,7248,orange,NF,C,186716,186716,184971,185983,184972,186982,186501,186501,186982,6
6,test,1,inc,0,z,Tue Nov 18 2025 16:55:36 GMT-0600 (Central Standard Time),197286.5,iron,900,I,m,m,None,377,176.0,201.0,46,1,1812.4000000059605,195474.09999999404,7248,pear,NF,C,188615,188615,186985,187901,186985,188798,188413,188413,188798,7
7,test,1,con,1,m,Tue Nov 18 2025 16:55:36 GMT-0600 (Central Standard Time),199253.40000000596,copper,1100,I,m,m,None,328,129.0,199.0,76,1,1960.800000011921,197292.59999999404,7248,copper,NF,C,190631,190631,188804,189916,188804,190764,190432,190432,190764,8
7,test,1,con,0,z,Tue Nov 18 2025 16:55:36 GMT-0600 (Central Standard Time),201103.0,lime,900,I,m,m,None,411,211.0,200.0,34,1,1844.5999999940395,199258.40000000596,7248,lime,NF,C,192397,192397,190769,191682,190770,192614,192197,192197,192614,9
7,test,1,inc,0,z,Tue Nov 18 2025 16:55:36 GMT-0600 (Central Standard Time),203085.09999999404,cobalt,1100,I,m,m,None,334,116.0,218.0,24,1,1977.2999999821186,201107.80000001192,7248,orange,NF,C,194467,194467,192619,193730,192619,194596,194247,194248,194596,10
8,test,1,inc,1,z,Tue Nov 18 2025 16:55:36 GMT-0600 (Central Standard Time),205201.59999999404,zinc,1000,I,z,z,None,583,383.0,200.0,47,1,2110.0,203091.59999999404,7248,pear,NF,C,196329,196329,194603,195613,194603,196713,196129,196129,196713,11
9,test,1,inc,1,z,Tue Nov 18 2025 16:55:36 GMT-0600 (Central Standard Time),206983.59999999404,bronze,800,I,z,z,None,441,242.0,199.0,5,1,1776.7999999821186,205206.80000001192,7248,banana,NF,C,198245,198245,196718,197529,196718,198495,198046,198046,198495,12
10,test,1,inc,1,m,Tue Nov 18 2025 16:55:36 GMT-0600 (Central Standard Time),208866.09999999404,orange,1000,I,m,m,None,364,165.0,199.0,87,1,1878.4000000059605,206987.69999998808,7248,silver,NF,C,200211,200211,198499,199511,198499,200377,200012,200012,200377,13
11,test,1,inc,1,z,Tue Nov 18 2025 16:55:36 GMT-0600 (Central Standard Time),210748.80000001192,bronze,800,I,z,z,None,542,343.0,199.0,13,1,1876.9000000059605,208871.90000000596,7248,cherry,NF,C,201912,201912,200383,201194,200383,202260,201712,201712,202260,14
12,test,1,inc,1,m,Tue Nov 18 2025 16:55:36 GMT-0600 (Central Standard Time),212899.40000000596,plum,1100,I,m,m,None,505,304.0,201.0,120,1,2146.800000011921,210752.59999999404,7248,zinc,NF,C,204095,204095,202264,203378,202264,204410,203894,203894,204410,15
13,test,1,con,1,m,Tue Nov 18 2025 16:55:36 GMT-0600 (Central Standard Time),214899.19999998808,silver,900,I,m,m,None,557,357.0,200.0,82,1,1995.3999999761581,212903.80000001192,7248,silver,NF,C,206042,206042,204415,205326,204415,206410,205842,205842,206410,16
14,test,1,inc,1,m,Tue Nov 18 2025 16:55:36 GMT-0600 (Central Standard Time),216747.09999999404,cherry,900,I,m,m,None,413,213.0,200.0,86,1,1842.2999999821186,214904.80000001192,7248,silver,NF,C,208042,208042,206416,207325,206416,208258,207841,207841,208258,17
15,test,1,con,1,m,Tue Nov 18 2025 16:55:36 GMT-0600 (Central Standard Time),218764.0,zinc,1000,I,m,m,None,470,271.0,199.0,115,1,2012.699999988079,216751.30000001192,7248,zinc,NF,C,209993,209993,208262,209276,208263,210275,209793,209793,210275,18
15,test,1,inc,0,z,Tue Nov 18 2025 16:55:36 GMT-0600 (Central Standard Time),220628.69999998808,iron,900,I,m,m,None,433,229.0,204.0,54,1,1860.199999988079,218768.5,7248,kiwi,NF,C,211898,211898,210280,211191,210280,212140,211693,211693,212140,19
16,test,1,inc,1,z,Tue Nov 18 2025 16:55:36 GMT-0600 (Central Standard Time),222562.0,copper,900,I,z,z,None,489,290.0,199.0,30,1,1929.5999999940395,220632.40000000596,7248,raisin,NF,C,213772,213772,212143,213057,212144,214073,213573,213573,214073,20
17,test,1,inc,1,z,Tue Nov 18 2025 16:55:36 GMT-0600 (Central Standard Time),224364.19999998808,copper,900,I,z,z,None,357,156.0,201.0,6,1,1799.0999999940395,222565.09999999404,7248,banana,NF,C,215707,215707,214076,214991,214076,215875,215506,215506,215875,21
18,test,1,con,1,m,Tue Nov 18 2025 16:55:36 GMT-0600 (Central Standard Time),226462.59999999404,copper,1000,I,m,m,None,561,361.0,200.0,75,1,2093.2999999821186,224369.30000001192,7248,copper,NF,C,217606,217606,215880,216891,215881,217974,217406,217406,217974,22
19,test,1,con,1,m,Tue Nov 18 2025 16:55:36 GMT-0600 (Central Standard Time),228510.59999999404,cobalt,1100,I,m,m,None,402,202.0,200.0,92,1,2042.5999999940395,226468.0,7248,cobalt,NF,C,219805,219805,217979,219089,217979,220022,219605,219605,220022,23
20,test,1,inc,1,z,Tue Nov 18 2025 16:55:36 GMT-0600 (Central Standard Time),230193.30000001192,bronze,800,I,z,z,None,342,142.0,200.0,21,1,1678.4000000059605,228514.90000000596,7248,orange,NF,C,221554,221554,220026,220840,220026,221704,221354,221354,221704,24
21,test,1,inc,1,m,Tue Nov 18 2025 16:55:36 GMT-0600 (Central Standard Time),232108.90000000596,banana,800,I,m,m,None,566,367.0,199.0,93,1,1912.800000011921,230196.09999999404,7248,cobalt,NF,C,223239,223240,221707,222522,221707,223620,223040,223040,223620,25
21,test,1,inc,0,z,Tue Nov 18 2025 16:55:36 GMT-0600 (Central Standard Time),234158.30000001192,lead,1100,I,m,m,None,402,200.0,202.0,56,1,2044.9000000059605,232113.40000000596,7248,kiwi,NF,C,225456,225456,223624,224737,223625,225669,225253,225253,225669,26
22,test,1,con,1,z,Tue Nov 18 2025 16:55:36 GMT-0600 (Central Standard Time),236123.90000000596,kiwi,900,I,z,z,None,529,328.0,201.0,50,1,1960.5999999940395,234163.30000001192,7248,kiwi,NF,C,227304,227304,225674,226586,225675,227635,227103,227103,227635,27
23,test,1,inc,1,z,Tue Nov 18 2025 16:55:36 GMT-0600 (Central Standard Time),238107.09999999404,zinc,1000,I,z,z,None,448,249.0,199.0,39,1,1979.7999999821186,236127.30000001192,7248,lime,NF,C,229353,229353,227638,228652,227639,229618,229154,229154,229618,28
24,test,1,con,1,m,Tue Nov 18 2025 16:55:36 GMT-0600 (Central Standard Time),240139.80000001192,silver,1000,I,m,m,None,485,270.0,215.0,83,1,2026.800000011921,238113.0,7248,silver,NF,C,231369,231369,229624,230636,229624,231651,231153,231153,231651,29
25,test,1,con,1,z,Tue Nov 18 2025 16:55:36 GMT-0600 (Central Standard Time),242122.69999998808,raisin,900,I,z,z,None,542,339.0,203.0,26,1,1978.199999988079,240144.5,7248,raisin,NF,C,233286,233286,231655,232569,231656,233634,233083,233083,233634,30
26,test,1,inc,1,z,Tue Nov 18 2025 16:55:36 GMT-0600 (Central Standard Time),244171.19999998808,cobalt,1100,I,z,z,None,411,212.0,199.0,8,1,2045.3999999761581,242125.80000001192,7248,banana,NF,C,235466,235467,233637,234753,233637,235682,235267,235267,235682,31
27,test,1,inc,1,z,Tue Nov 18 2025 16:55:36 GMT-0600 (Central Standard Time),245905.40000000596,gold,800,I,z,z,None,405,189.0,216.0,61,1,1731.0,244174.40000000596,7248,plum,NF,C,237218,237218,235685,236499,235686,237416,237001,237001,237416,32
28,test,1,inc,1,m,Tue Nov 18 2025 16:55:36 GMT-0600 (Central Standard Time),247770.5,banana,800,I,m,m,None,522,323.0,199.0,77,1,1860.800000011921,245909.69999998808,7248,copper,NF,C,238948,238948,237421,238233,237421,239282,238749,238749,239282,33
28,test,1,inc,0,m,Tue Nov 18 2025 16:55:36 GMT-0600 (Central Standard Time),249771.40000000596,plum,1100,I,z,z,None,380,167.0,213.0,112,1,1997.5999999940395,247773.80000001192,7248,iron,NF,C,241114,241114,239285,240397,239285,241282,240900,240900,241282,34
29,test,1,inc,1,z,Tue Nov 18 2025 16:55:36 GMT-0600 (Central Standard Time),251537.90000000596,bronze,800,I,z,z,None,423,209.0,214.0,29,1,1762.5999999940395,249775.30000001192,7248,raisin,NF,C,242831,242831,241286,242099,241287,243049,242616,242616,243049,35
29,test,1,inc,0,z,Tue Nov 18 2025 16:55:36 GMT-0600 (Central Standard Time),253502.5,silver,1000,I,m,m,None,418,219.0,199.0,15,1,1960.199999988079,251542.30000001192,7248,cherry,NF,C,244780,244781,243053,244064,243054,245014,244581,244581,245013,36
30,test,1,con,1,z,Tue Nov 18 2025 16:55:36 GMT-0600 (Central Standard Time),255468.40000000596,plum,1100,I,z,z,None,337,138.0,199.0,60,1,1962.0999999940395,253506.30000001192,7248,plum,NF,C,246830,246830,245017,246129,245018,246979,246631,246631,246979,37
31,test,1,con,1,z,Tue Nov 18 2025 16:55:36 GMT-0600 (Central Standard Time),257268.69999998808,pear,900,I,z,z,None,361,147.0,214.0,42,1,1796.699999988079,255472.0,7248,pear,NF,C,248628,248628,246983,247896,246983,248780,248414,248414,248780,38
32,test,1,con,1,z,Tue Nov 18 2025 16:55:36 GMT-0600 (Central Standard Time),259032.69999998808,banana,800,I,z,z,None,433,232.0,201.0,1,1,1761.0999999940395,257271.59999999404,7248,banana,NF,C,250312,250312,248783,249595,248783,250544,250111,250111,250544,39
33,test,1,inc,1,m,Tue Nov 18 2025 16:55:36 GMT-0600 (Central Standard Time),260949.80000001192,kiwi,1000,I,m,m,None,383,168.0,215.0,111,1,1914.300000011921,259035.5,7248,iron,NF,C,252279,252279,250547,251561,250547,252461,252063,252063,252461,40
34,test,1,inc,1,m,Tue Nov 18 2025 16:55:36 GMT-0600 (Central Standard Time),262715.8000000119,lime,800,I,m,m,None,445,245.0,200.0,125,1,1763.5,260952.30000001192,7248,lead,NF,C,253978,253978,252463,253277,252464,254227,253778,253778,254227,41
35,test,1,inc,1,m,Tue Nov 18 2025 16:55:36 GMT-0600 (Central Standard Time),264464.90000000596,lime,800,I,m,m,None,421,207.0,214.0,109,1,1745.4000000059605,262719.5,7248,iron,NF,C,255760,255760,254231,255043,254231,255976,255546,255546,255976,42
36,test,1,inc,1,m,Tue Nov 18 2025 16:55:36 GMT-0600 (Central Standard Time),266332.40000000596,pear,900,I,m,m,None,438,238.0,200.0,118,1,1863.300000011921,264469.09999999404,7248,zinc,NF,C,257593,257593,255980,256892,255980,257843,257393,257393,257843,43
37,test,1,con,1,z,Tue Nov 18 2025 16:55:36 GMT-0600 (Central Standard Time),268297.5,cherry,1000,I,z,z,None,429,215.0,214.0,11,1,1962.199999988079,266335.3000000119,7248,cherry,NF,C,259593,259593,257846,258861,257846,259809,259378,259378,259809,44
37,test,1,con,0,z,Tue Nov 18 2025 16:55:36 GMT-0600 (Central Standard Time),270065.09999999404,plum,800,I,m,m,None,434,233.0,201.0,57,1,1764.2999999821186,268300.8000000119,7248,plum,NF,C,261343,261343,259812,260625,259812,261576,261141,261141,261576,45
37,test,1,inc,0,z,Tue Nov 18 2025 16:55:36 GMT-0600 (Central Standard Time),271764.3000000119,gold,800,I,m,m,None,362,163.0,199.0,53,1,1694.9000000059605,270069.40000000596,7248,kiwi,NF,C,263108,263108,261580,262391,261581,263275,262908,262908,263275,46
38,test,1,inc,1,z,Tue Nov 18 2025 16:55:36 GMT-0600 (Central Standard Time),273778.8000000119,cobalt,1100,I,z,z,None,380,177.0,203.0,32,1,2008.2000000178814,271770.59999999404,7248,raisin,NF,C,265110,265110,263282,264391,263282,265290,264907,264907,265290,47
38,test,1,con,0,m,Tue Nov 18 2025 16:55:36 GMT-0600 (Central Standard Time),275479.90000000596,gold,800,I,z,z,None,362,160.0,202.0,97,1,1694.9000000059605,273785.0,7248,gold,NF,C,266824,266824,265296,266107,265296,266991,266622,266622,266991,48
39,test,1,inc,1,z,Tue Nov 18 2025 16:55:36 GMT-0600 (Central Standard Time),277527.59999999404,lead,1100,I,z,z,None,415,200.0,215.0,64,1,2040.4000000059605,275487.1999999881,7248,plum,NF,C,268823,268823,266998,268105,266999,269039,268607,268607,269039,49
40,test,1,inc,1,m,Tue Nov 18 2025 16:55:36 GMT-0600 (Central Standard Time),279393.6999999881,banana,800,I,m,m,None,520,306.0,214.0,85,1,1860.5,277533.1999999881,7248,silver,NF,C,270589,270589,269044,269856,269044,270905,270374,270374,270905,50
41,test,1,con,1,m,Tue Nov 18 2025 16:55:36 GMT-0600 (Central Standard Time),281461.40000000596,bronze,900,I,m,m,None,620,421.0,199.0,66,1,2061.9000000059605,279399.5,7248,bronze,NF,C,272538,272538,270911,271823,270911,272972,272338,272338,272972,51
42,test,1,inc,1,z,Tue Nov 18 2025 16:55:36 GMT-0600 (Central Standard Time),283625.40000000596,cobalt,1100,I,z,z,None,538,324.0,214.0,16,1,2160.300000011921,281465.09999999404,7248,cherry,NF,C,274804,274804,272976,274087,272976,275137,274589,274589,275136,52
43,test,1,inc,1,z,Tue Nov 18 2025 16:55:36 GMT-0600 (Central Standard Time),285525.59999999404,copper,900,I,z,z,None,467,254.0,213.0,22,1,1894.5,283631.09999999404,7248,orange,NF,C,276769,276769,275142,276054,275142,277037,276556,276556,277037,53
44,test,1,inc,1,m,Tue Nov 18 2025 16:55:36 GMT-0600 (Central Standard Time),287425.5,lime,800,I,m,m,None,551,349.0,202.0,117,1,1896.300000011921,285529.1999999881,7248,zinc,NF,C,278572,278572,277040,277853,277041,278937,278369,278369,278937,54
45,test,1,inc,1,m,Tue Nov 18 2025 16:55:36 GMT-0600 (Central Standard Time),289441.3000000119,orange,1000,I,m,m,None,473,274.0,199.0,71,1,2010.300000011921,287431.0,7248,bronze,NF,C,280669,280669,278942,279952,278942,280952,280469,280469,280952,55
46,test,1,inc,1,m,Tue Nov 18 2025 16:55:36 GMT-0600 (Central Standard Time),291474.8000000119,kiwi,1000,I,m,m,None,492,285.0,207.0,127,1,2029.2000000178814,289445.59999999404,7248,lead,NF,C,282691,282691,280957,281969,280957,282986,282483,282483,282986,56
47,test,1,con,1,m,Tue Nov 18 2025 16:55:36 GMT-0600 (Central Standard Time),293289.3000000119,iron,800,I,m,m,None,495,281.0,214.0,105,1,1806.7000000178814,291482.59999999404,7248,iron,NF,C,284518,284518,282994,283801,282994,284800,284303,284303,284800,57
48,test,1,inc,1,z,Tue Nov 18 2025 16:55:36 GMT-0600 (Central Standard Time),295138.59999999404,gold,800,I,z,z,None,505,304.0,201.0,45,1,1845.199999988079,293293.40000000596,7248,pear,NF,C,286335,286335,284804,285617,284805,286650,286133,286133,286650,58
49,test,1,con,1,m,Tue Nov 18 2025 16:55:36 GMT-0600 (Central Standard Time),297237.6999999881,zinc,900,I,m,m,None,659,460.0,199.0,114,1,2093.5,295144.1999999881,7248,zinc,NF,C,288283,288283,286655,287566,286655,288749,288084,288084,288749,59
50,test,1,con,1,z,Tue Nov 18 2025 16:55:36 GMT-0600 (Central Standard Time),299520.1999999881,pear,1100,I,z,z,None,648,449.0,199.0,44,1,2275.699999988079,297244.5,7248,pear,NF,C,290582,290582,288756,289866,288756,291031,290383,290383,291031,60
51,test,1,con,1,z,Tue Nov 18 2025 16:55:36 GMT-0600 (Central Standard Time),301536.90000000596,banana,900,I,z,z,None,572,357.0,215.0,2,1,2012.9000000059605,299524.0,7248,banana,NF,C,292682,292682,291035,291950,291035,293048,292466,292466,293048,61
52,test,1,con,1,m,Tue Nov 18 2025 16:55:36 GMT-0600 (Central Standard Time),303436.1999999881,silver,800,I,m,m,None,559,345.0,214.0,81,1,1895.5999999940395,301540.59999999404,7248,silver,NF,C,294598,294598,293052,293865,293052,294947,294383,294383,294947,62
53,test,1,con,1,z,Tue Nov 18 2025 16:55:36 GMT-0600 (Central Standard Time),305419.5,banana,1000,I,z,z,None,461,247.0,214.0,3,1,1979.699999988079,303439.8000000119,7248,banana,NF,C,296681,296681,294951,295964,294951,296931,296466,296466,296930,63
54,test,1,con,1,z,Tue Nov 18 2025 16:55:36 GMT-0600 (Central Standard Time),307368.40000000596,cherry,800,I,z,z,None,601,402.0,199.0,9,1,1943.7000000178814,305424.6999999881,7248,cherry,NF,C,298464,298464,296936,297748,296936,298879,298264,298264,298879,64
55,test,1,inc,1,m,Tue Nov 18 2025 16:55:36 GMT-0600 (Central Standard Time),309601.90000000596,raisin,1100,I,m,m,None,588,373.0,215.0,80,1,2224.800000011921,307377.09999999404,7248,copper,NF,C,300729,300730,298888,299997,298888,301113,300514,300514,301113,65
56,test,1,con,1,m,Tue Nov 18 2025 16:55:36 GMT-0600 (Central Standard Time),311466.6999999881,lead,800,I,m,m,None,529,330.0,199.0,121,1,1859.5999999940395,309607.09999999404,7248,lead,NF,C,302647,302647,301118,301930,301118,302978,302447,302447,302978,66
57,test,1,con,1,m,Tue Nov 18 2025 16:55:36 GMT-0600 (Central Standard Time),313399.40000000596,gold,900,I,m,m,None,492,293.0,199.0,98,1,1927.2000000178814,311472.1999999881,7248,gold,NF,C,304611,304611,302983,303895,302983,304910,304411,304411,304910,67
58,test,1,con,1,z,Tue Nov 18 2025 16:55:36 GMT-0600 (Central Standard Time),315432.8000000119,orange,900,I,z,z,None,591,392.0,199.0,18,1,2029.800000011921,313403.0,7248,orange,NF,C,306544,306544,304914,305828,304914,306944,306344,306344,306944,68
59,test,1,con,1,z,Tue Nov 18 2025 16:55:36 GMT-0600 (Central Standard Time),317381.40000000596,kiwi,800,I,z,z,None,612,412.0,200.0,49,1,1944.4000000059605,315437.0,7248,kiwi,NF,C,308476,308476,306948,307760,306948,308892,308276,308276,308892,69
59,test,1,inc,0,z,Tue Nov 18 2025 16:55:36 GMT-0600 (Central Standard Time),319497.8000000119,lead,1100,I,m,m,None,488,289.0,199.0,40,1,2110.2000000178814,317387.59999999404,7248,lime,NF,C,310709,310709,308899,310009,308899,311009,310510,310510,311009,70
60,test,1,inc,1,m,Tue Nov 18 2025 16:55:36 GMT-0600 (Central Standard Time),321564.0,cherry,900,I,m,m,None,626,412.0,214.0,78,1,2063.300000011921,319500.6999999881,7248,copper,NF,C,312659,312659,311012,311926,311012,313075,312444,312444,313075,71
61,test,1,con,1,z,Tue Nov 18 2025 16:55:36 GMT-0600 (Central Standard Time),323830.40000000596,kiwi,1000,I,z,z,None,721,521.0,200.0,51,1,2262.7000000178814,321567.6999999881,7248,kiwi,NF,C,314808,314808,313079,314092,313079,315341,314608,314608,315341,72
62,test,1,inc,1,m,Tue Nov 18 2025 16:55:36 GMT-0600 (Central Standard Time),325945.0,kiwi,1000,I,m,m,None,573,372.0,201.0,119,1,2108.4000000059605,323836.59999999404,7248,zinc,NF,C,317075,317075,315348,316358,315348,317456,316874,316874,317456,73
63,test,1,inc,1,z,Tue Nov 18 2025 16:55:36 GMT-0600 (Central Standard Time),328011.3000000119,zinc,1000,I,z,z,None,521,321.0,200.0,63,1,2062.9000000059605,325948.40000000596,7248,plum,NF,C,319190,319191,317459,318473,317460,319522,318990,318990,319522,74
64,test,1,inc,1,m,Tue Nov 18 2025 16:55:36 GMT-0600 (Central Standard Time),329994.40000000596,pear,900,I,m,m,None,539,338.0,201.0,102,1,1978.0999999940395,328016.3000000119,7248,gold,NF,C,321157,321157,319527,320440,319528,321505,320956,320956,321505,75
65,test,1,con,1,m,Tue Nov 18 2025 16:55:36 GMT-0600 (Central Standard Time),332260.1999999881,bronze,1000,I,m,m,None,727,527.0,200.0,67,1,2262.2999999821186,329997.90000000596,7248,bronze,NF,C,323240,323240,321509,322522,321509,323771,323039,323039,323771,76
66,test,1,con,1,z,Tue Nov 18 2025 16:55:36 GMT-0600 (Central Standard Time),334509.90000000596,kiwi,1100,I,z,z,None,618,419.0,199.0,52,1,2245.800000011921,332264.09999999404,7248,kiwi,NF,C,325588,325588,323775,324888,323775,326021,325389,325389,326021,77
67,test,1,inc,1,m,Tue Nov 18 2025 16:55:36 GMT-0600 (Central Standard Time),336542.09999999404,kiwi,1000,I,m,m,None,483,268.0,215.0,103,1,2027.699999988079,334514.40000000596,7248,gold,NF,C,327771,327771,326025,327038,326026,328053,327555,327555,328053,78
68,test,1,con,1,m,Tue Nov 18 2025 16:55:36 GMT-0600 (Central Standard Time),338741.59999999404,cobalt,1000,I,m,m,None,664,465.0,199.0,91,1,2194.5999999940395,336547.0,7248,cobalt,NF,C,329774,329774,328058,329071,328058,330253,329575,329575,330253,79
69,test,1,inc,1,z,Tue Nov 18 2025 16:55:36 GMT-0600 (Central Standard Time),340792.40000000596,silver,1000,I,z,z,None,516,316.0,200.0,23,1,2046.0,338746.40000000596,7248,orange,NF,C,331987,331987,330257,331270,330258,332303,331787,331787,332303,80
70,test,1,con,1,m,Tue Nov 18 2025 16:55:36 GMT-0600 (Central Standard Time),343072.59999999404,zinc,800,I,m,m,None,939,739.0,200.0,113,1,2276.699999988079,340795.90000000596,7248,zinc,NF,C,333836,333836,332307,333120,332307,334584,333636,333636,334584,81
70,test,1,con,0,m,Tue Nov 18 2025 16:55:36 GMT-0600 (Central Standard Time),345190.90000000596,lead,1100,I,z,z,None,478,278.0,200.0,124,1,2115.0,343075.90000000596,7248,lead,NF,C,336418,336418,334587,335702,334587,336702,336218,336218,336702,82
71,test,1,con,1,m,Tue Nov 18 2025 16:55:36 GMT-0600 (Central Standard Time),347372.40000000596,iron,900,I,m,m,None,736,536.0,200.0,106,1,2177.2000000178814,345195.1999999881,7248,iron,NF,C,338335,338335,336706,337618,336707,338883,338134,338134,338883,83
72,test,1,con,1,z,Tue Nov 18 2025 16:55:36 GMT-0600 (Central Standard Time),349287.6999999881,pear,800,I,z,z,None,574,374.0,200.0,41,1,1910.2999999821186,347377.40000000596,7248,pear,NF,C,340417,340417,338888,339700,338889,340799,340217,340217,340799,84
73,test,1,inc,1,m,Tue Nov 18 2025 16:55:36 GMT-0600 (Central Standard Time),351337.6999999881,pear,900,I,m,m,None,615,399.0,216.0,126,1,2046.5,349291.1999999881,7248,lead,NF,C,342450,342450,340802,341717,340802,342849,342234,342234,342849,85
74,test,1,con,1,z,Tue Nov 18 2025 16:55:36 GMT-0600 (Central Standard Time),353436.3000000119,raisin,1000,I,z,z,None,552,351.0,201.0,27,1,2095.100000023842,351341.1999999881,7248,raisin,NF,C,344584,344584,342852,343866,342853,344947,344382,344382,344947,86
75,test,1,con,1,z,Tue Nov 18 2025 16:55:36 GMT-0600 (Central Standard Time),355386.3000000119,orange,800,I,z,z,None,606,406.0,200.0,17,1,1944.5,353441.8000000119,7248,orange,NF,C,346481,346481,344953,345765,344953,346897,346281,346281,346897,87
76,test,1,con,1,z,Tue Nov 18 2025 16:55:36 GMT-0600 (Central Standard Time),357485.6999999881,orange,1100,I,z,z,None,450,251.0,199.0,20,1,2096.399999976158,355389.3000000119,7248,orange,NF,C,348732,348732,346900,348015,346901,348997,348532,348532,348997,88
77,test,1,con,1,m,Tue Nov 18 2025 16:55:36 GMT-0600 (Central Standard Time),359634.3000000119,lead,900,I,m,m,None,712,513.0,199.0,122,1,2144.100000023842,357490.1999999881,7248,lead,NF,C,350630,350630,349001,349914,349002,351145,350431,350431,351145,89
78,test,1,con,1,z,Tue Nov 18 2025 16:55:36 GMT-0600 (Central Standard Time),361740.5,lime,1000,I,z,z,None,558,359.0,199.0,35,1,2103.5,359637.0,7248,lime,NF,C,352879,352879,351148,352164,351148,353252,352680,352680,353252,90
79,test,1,inc,1,m,Tue Nov 18 2025 16:55:36 GMT-0600 (Central Standard Time),363800.0,orange,1000,I,m,m,None,517,318.0,199.0,79,1,2056.5,361743.5,7248,copper,NF,C,354977,354977,353255,354262,353255,355311,354778,354778,355311,91
80,test,1,con,1,m,Tue Nov 18 2025 16:55:36 GMT-0600 (Central Standard Time),365716.0,copper,800,I,m,m,None,594,379.0,215.0,73,1,1912.5999999940395,363803.40000000596,7248,copper,NF,C,356844,356844,355314,356127,355315,357227,356629,356629,357227,92
81,test,1,con,1,z,Tue Nov 18 2025 16:55:36 GMT-0600 (Central Standard Time),367800.09999999404,cherry,1100,I,z,z,None,434,234.0,200.0,12,1,2079.7999999821186,365720.3000000119,7248,cherry,NF,C,359061,359061,357231,358344,357232,359311,358861,358861,359311,93
82,test,1,con,1,z,Tue Nov 18 2025 16:55:36 GMT-0600 (Central Standard Time),369681.5,raisin,800,I,z,z,None,538,322.0,216.0,25,1,1876.300000011921,367805.1999999881,7248,raisin,NF,C,360861,360861,359316,360126,359317,361193,360645,360645,361193,94
83,test,1,con,1,m,Tue Nov 18 2025 16:55:36 GMT-0600 (Central Standard Time),371564.3000000119,copper,900,I,m,m,None,445,245.0,200.0,74,1,1878.5,369685.8000000119,7248,copper,NF,C,362827,362827,361197,362110,361197,363075,362626,362626,363075,95
84,test,1,inc,1,z,Tue Nov 18 2025 16:55:36 GMT-0600 (Central Standard Time),373580.40000000596,iron,900,I,z,z,None,578,379.0,199.0,38,1,2011.5,371568.90000000596,7248,lime,NF,C,364709,364709,363080,363993,363080,365091,364509,364509,365091,96
85,test,1,con,1,m,Tue Nov 18 2025 16:55:36 GMT-0600 (Central Standard Time),375846.90000000596,silver,1100,I,m,m,None,635,435.0,200.0,84,1,2261.800000011921,373585.09999999404,7248,silver,NF,C,366909,366909,365096,366208,365096,367358,366709,366709,367358,97
86,test,1,con,1,z,Tue Nov 18 2025 16:55:36 GMT-0600 (Central Standard Time),377811.59999999404,cherry,900,I,z,z,None,542,328.0,214.0,10,1,1960.699999988079,375850.90000000596,7248,cherry,NF,C,368991,368991,367362,368275,367362,369323,368776,368776,369323,98
87,test,1,con,1,m,Tue Nov 18 2025 16:55:36 GMT-0600 (Central Standard Time),380095.0,iron,1100,I,m,m,None,641,442.0,199.0,108,1,2280.300000011921,377814.6999999881,7248,iron,NF,C,371157,371157,369326,370441,369326,371606,370957,370957,371606,99
88,test,1,con,1,m,Tue Nov 18 2025 16:55:36 GMT-0600 (Central Standard Time),382327.8000000119,gold,1100,I,m,m,None,593,394.0,199.0,100,1,2229.800000011921,380098.0,7248,gold,NF,C,373439,373439,371609,372724,371609,373839,373240,373240,373839,100
89,test,1,con,1,z,Tue Nov 18 2025 16:55:36 GMT-0600 (Central Standard Time),384426.09999999404,plum,1000,I,z,z,None,578,379.0,199.0,59,1,2094.699999988079,382331.40000000596,7248,plum,NF,C,375556,375556,373842,374855,373843,375937,375356,375356,375937,101
90,test,1,inc,1,m,Tue Nov 18 2025 16:55:36 GMT-0600 (Central Standard Time),386410.0,pear,900,I,m,m,None,538,339.0,199.0,110,1,1979.300000011921,384430.6999999881,7248,iron,NF,C,377572,377572,375942,376856,375942,377921,377372,377372,377921,102
91,test,1,inc,1,z,Tue Nov 18 2025 16:55:36 GMT-0600 (Central Standard Time),388660.0,lead,1100,I,z,z,None,606,405.0,201.0,48,1,2246.5,386413.5,7248,pear,NF,C,379754,379754,377925,379037,377925,380171,379553,379553,380171,103
92,test,1,inc,1,z,Tue Nov 18 2025 16:55:36 GMT-0600 (Central Standard Time),390925.8000000119,zinc,1000,I,z,z,None,719,519.0,200.0,55,1,2262.4000000059605,388663.40000000596,7248,kiwi,NF,C,381904,381904,380174,381188,380175,382437,381704,381704,382437,104
93,test,1,inc,1,z,Tue Nov 18 2025 16:55:36 GMT-0600 (Central Standard Time),392942.1999999881,iron,900,I,z,z,None,569,369.0,200.0,62,1,2011.5,390930.6999999881,7248,plum,NF,C,384070,384070,382442,383353,382442,384453,383870,383870,384453,105
94,test,1,inc,1,m,Tue Nov 18 2025 16:55:36 GMT-0600 (Central Standard Time),395089.40000000596,plum,1100,I,m,m,None,506,303.0,203.0,104,1,2143.5,392945.90000000596,7248,gold,NF,C,386288,386288,384457,385569,384457,386600,386085,386085,386600,106
95,test,1,con,1,m,Tue Nov 18 2025 16:55:36 GMT-0600 (Central Standard Time),397206.1999999881,iron,1000,I,m,m,None,584,385.0,199.0,107,1,2114.0,395092.1999999881,7248,iron,NF,C,388318,388318,386603,387616,386603,388717,388118,388118,388717,107
96,test,1,inc,1,z,Tue Nov 18 2025 16:55:36 GMT-0600 (Central Standard Time),399289.8000000119,silver,1000,I,z,z,None,533,334.0,199.0,31,1,2080.800000011921,397209.0,7248,raisin,NF,C,390451,390451,388720,389734,388720,390801,390252,390252,390801,108
97,test,1,con,1,z,Tue Nov 18 2025 16:55:36 GMT-0600 (Central Standard Time),401506.8000000119,raisin,1100,I,z,z,None,580,366.0,214.0,28,1,2212.4000000059605,399294.40000000596,7248,raisin,NF,C,392634,392634,390805,391917,390806,393018,392419,392419,393018,109
98,test,1,con,1,z,Tue Nov 18 2025 16:55:36 GMT-0600 (Central Standard Time),403788.8000000119,banana,1100,I,z,z,None,638,437.0,201.0,4,1,2274.9000000059605,401513.90000000596,7248,banana,NF,C,394850,394850,393025,394132,393025,395300,394649,394649,395300,110
99,test,1,con,1,z,Tue Nov 18 2025 16:55:36 GMT-0600 (Central Standard Time),405669.6999999881,lime,800,I,z,z,None,542,323.0,219.0,33,1,1876.3999999761581,403793.3000000119,7248,lime,NF,C,396852,396852,395304,396115,395305,397181,396633,396633,397181,111
100,test,1,con,1,m,Tue Nov 18 2025 16:55:36 GMT-0600 (Central Standard Time),407536.3000000119,bronze,800,I,m,m,None,524,324.0,200.0,65,1,1862.4000000059605,405673.90000000596,7248,bronze,NF,C,398715,398715,397185,398000,397185,399047,398515,398515,399047,112
101,test,1,con,1,z,Tue Nov 18 2025 16:55:36 GMT-0600 (Central Standard Time),409553.5,pear,1000,I,z,z,None,487,274.0,213.0,43,1,2012.699999988079,407540.8000000119,7248,pear,NF,C,400781,400781,399052,400065,399052,401065,400568,400568,401065,113
102,test,1,inc,1,z,Tue Nov 18 2025 16:55:36 GMT-0600 (Central Standard Time),411668.59999999404,copper,900,I,z,z,None,676,475.0,201.0,14,1,2111.0,409557.59999999404,7248,cherry,NF,C,402700,402700,401069,401980,401069,403180,402499,402499,403180,114
103,test,1,inc,1,m,Tue Nov 18 2025 16:55:36 GMT-0600 (Central Standard Time),413851.1999999881,plum,1100,I,m,m,None,547,345.0,202.0,128,1,2175.5,411675.6999999881,7248,lead,NF,C,405014,405014,403187,404296,403187,405362,404812,404812,405362,115
104,test,1,con,1,m,Tue Nov 18 2025 16:55:36 GMT-0600 (Central Standard Time),416166.90000000596,bronze,1100,I,m,m,None,669,468.0,201.0,68,1,2309.5999999940395,413857.3000000119,7248,bronze,NF,C,407196,407196,405368,406481,405369,407678,406995,406995,407678,116
105,test,1,inc,1,m,Tue Nov 18 2025 16:55:36 GMT-0600 (Central Standard Time),418482.8000000119,raisin,1100,I,m,m,None,693,479.0,214.0,88,1,2311.100000023842,416171.6999999881,7248,silver,NF,C,409511,409511,407683,408795,407683,409994,409297,409297,409994,117
106,test,1,inc,1,z,Tue Nov 18 2025 16:55:36 GMT-0600 (Central Standard Time),420366.59999999404,gold,800,I,z,z,None,549,350.0,199.0,37,1,1880.2999999821186,418486.3000000119,7248,lime,NF,C,411512,411512,409997,410810,409997,411878,411312,411312,411878,118
107,test,1,inc,1,z,Tue Nov 18 2025 16:55:36 GMT-0600 (Central Standard Time),422516.8000000119,silver,1000,I,z,z,None,614,413.0,201.0,7,1,2145.9000000059605,420370.90000000596,7248,banana,NF,C,413611,413611,411882,412894,411882,414028,413410,413410,414028,119
108,test,1,inc,1,m,Tue Nov 18 2025 16:55:36 GMT-0600 (Central Standard Time),424564.40000000596,cherry,900,I,m,m,None,603,403.0,200.0,94,1,2044.0999999940395,422520.3000000119,7248,cobalt,NF,C,415660,415660,414031,414943,414032,416075,415460,415460,416075,120
109,test,1,con,1,m,Tue Nov 18 2025 16:55:36 GMT-0600 (Central Standard Time),426717.6999999881,zinc,1100,I,m,m,None,533,317.0,216.0,116,1,2150.399999976158,424567.3000000119,7248,zinc,NF,C,417910,417910,416078,417192,416078,418229,417693,417693,418229,121
110,test,1,inc,1,m,Tue Nov 18 2025 16:55:36 GMT-0600 (Central Standard Time),428978.6999999881,raisin,1100,I,m,m,None,645,429.0,216.0,96,1,2257.5999999940395,426721.09999999404,7248,cobalt,NF,C,420058,420058,418232,419341,418232,420490,419842,419842,420490,122
110,test,1,con,0,z,Tue Nov 18 2025 16:55:36 GMT-0600 (Central Standard Time),430961.5,plum,900,I,m,m,None,539,334.0,205.0,58,1,1979.0,428982.5,7248,plum,NF,C,422129,422129,420494,421409,420494,422473,421924,421924,422473,123
110,test,1,con,0,m,Tue Nov 18 2025 16:55:36 GMT-0600 (Central Standard Time),432862.6999999881,cobalt,800,I,z,z,None,551,337.0,214.0,89,1,1896.5999999940395,430966.09999999404,7248,cobalt,NF,C,424022,424022,422477,423290,422477,424374,423807,423807,424374,124
111,test,1,con,1,m,Tue Nov 18 2025 16:55:36 GMT-0600 (Central Standard Time),434911.0,lead,1000,I,m,m,None,509,309.0,200.0,123,1,2043.9000000059605,432867.09999999404,7248,lead,NF,C,426106,426106,424378,425394,424378,426422,425905,425905,426422,125
112,test,1,con,1,m,Tue Nov 18 2025 16:55:36 GMT-0600 (Central Standard Time),436944.6999999881,gold,1000,I,m,m,None,493,293.0,200.0,99,1,2030.0999999940395,434914.59999999404,7248,gold,NF,C,428155,428155,426426,427440,426426,428456,427955,427955,428456,126
113,test,1,con,1,z,Tue Nov 18 2025 16:55:36 GMT-0600 (Central Standard Time),439176.59999999404,lime,1100,I,z,z,None,604,389.0,215.0,36,1,2227.199999988079,436949.40000000596,7248,lime,NF,C,430290,430290,428460,429571,428461,430688,430074,430074,430688,127
114,test,1,inc,1,m,Tue Nov 18 2025 16:55:36 GMT-0600 (Central Standard Time),441192.90000000596,orange,1000,I,m,m,None,484,283.0,201.0,95,1,2011.800000011921,439181.09999999404,7248,cobalt,NF,C,432421,432421,430692,431705,430692,432704,432220,432220,432704,128
