Q,Q1,Q2,Q3,Q4,acc_sum,block,block_c,correct,correct_response,datetime,endtime,project,response,response_time,row_sel,session_number,squiggle1,squiggle1x,squiggle1y,squiggle2,squiggle2x,squiggle2y,squiggle3,squiggle3x,squiggle3y,squiggle4,squiggle4x,squiggle4y,start_end,starttime,subject_id,target_congruent,task,task_vers,testsquiggle,testsquigglex,testsquiggley,time_practice_delay,time_practice_fixation,time_practice_stimuli,time_practice_study,time_test_delay,time_test_fixation,time_test_stimuli,time_test_study,trial
1,1,0,0,0,0,prac,1,0,z,Tue Dec 30 2025 14:31:26 GMT-0600 (Central Standard Time),168275.60000002384,I,None,2015,1,1,116.bmp,-120,-120,117.bmp,120,-120,118.bmp,-120,120,119.bmp,120,120,10876.400000035763,157399.19999998808,8080,yes,SM,A,116.bmp,-120,-120,159042,153013,161058,155027,,,,,1
3,0,0,1,0,0,prac,1,0,m,Tue Dec 30 2025 14:31:26 GMT-0600 (Central Standard Time),179106.10000002384,I,None,2015,2,1,120.bmp,-120,-120,121.bmp,120,-120,122.bmp,-120,120,123.bmp,120,120,10826.0,168280.10000002384,8080,no,SM,A,123.bmp,-120,120,169922,163894,171938,165906,,,,,2
4,0,0,0,1,1,prac,1,1,m,Tue Dec 30 2025 14:31:26 GMT-0600 (Central Standard Time),189436.10000002384,I,m,1502,3,1,124.bmp,-120,-120,125.bmp,120,-120,126.bmp,-120,120,127.bmp,120,120,10325.900000035763,179110.19999998808,8080,no,SM,A,124.bmp,120,120,180752,174724,182768,176736,,,,,3
2,0,1,0,0,1,prac,1,0,z,Tue Dec 30 2025 14:31:26 GMT-0600 (Central Standard Time),199766.10000002384,I,m,1509,4,1,128.bmp,-120,-120,129.bmp,120,-120,130.bmp,-120,120,131.bmp,120,120,10326.300000011921,189439.80000001192,8080,yes,SM,A,129.bmp,120,-120,191081,185054,193098,187066,,,,,4
3,0,0,1,0,1,prac,1,0,z,Tue Dec 30 2025 14:31:26 GMT-0600 (Central Standard Time),210595.80000001192,I,None,2016,5,1,132.bmp,-120,-120,133.bmp,120,-120,134.bmp,-120,120,135.bmp,120,120,10826.300000011921,199769.5,8080,yes,SM,A,134.bmp,-120,120,201412,195384,203428,197397,,,,,5
1,1,0,0,0,2,prac,1,1,m,Tue Dec 30 2025 14:31:26 GMT-0600 (Central Standard Time),220626.19999998808,I,m,1205,6,1,136.bmp,-120,-120,137.bmp,120,-120,138.bmp,-120,120,139.bmp,120,120,10026.5,210599.69999998808,8080,no,SM,A,139.bmp,-120,-120,212242,206214,214258,208226,,,,,6
2,0,1,0,0,3,prac,1,1,m,Tue Dec 30 2025 14:31:26 GMT-0600 (Central Standard Time),230839.90000003576,I,m,1391,7,1,140.bmp,-120,-120,141.bmp,120,-120,142.bmp,-120,120,143.bmp,120,120,10210.200000047684,220629.69999998808,8080,no,SM,A,140.bmp,120,-120,222272,216244,224288,218256,,,,,7
4,0,0,0,1,3,prac,1,0,z,Tue Dec 30 2025 14:31:26 GMT-0600 (Central Standard Time),241736.40000003576,I,None,2001,8,1,144.bmp,-120,-120,145.bmp,120,-120,146.bmp,-120,120,147.bmp,120,120,10893.100000023842,230843.30000001192,8080,yes,SM,A,147.bmp,120,120,232485,226458,234583,228470,,,,,8
1,1,0,0,0,1,prac,2,1,z,Tue Dec 30 2025 14:31:26 GMT-0600 (Central Standard Time),257381.40000003576,I,z,1218,1,1,116.bmp,-120,-120,117.bmp,120,-120,118.bmp,-120,120,119.bmp,120,120,10043.800000011921,247337.60000002384,8080,yes,SM,A,116.bmp,-120,-120,248980,242952,250996,244965,,,,,1
3,0,0,1,0,1,prac,2,0,m,Tue Dec 30 2025 14:31:26 GMT-0600 (Central Standard Time),268211.3000000119,I,None,2016,2,1,120.bmp,-120,-120,121.bmp,120,-120,122.bmp,-120,120,123.bmp,120,120,10825.600000023842,257385.69999998808,8080,no,SM,A,123.bmp,-120,120,259027,253000,261043,255012,,,,,2
4,0,0,0,1,1,prac,2,0,m,Tue Dec 30 2025 14:31:26 GMT-0600 (Central Standard Time),278391.5,I,z,1365,3,1,124.bmp,-120,-120,125.bmp,120,-120,126.bmp,-120,120,127.bmp,120,120,10176.399999976158,268215.10000002384,8080,no,SM,A,124.bmp,120,120,269857,263829,271873,265842,,,,,3
2,0,1,0,0,1,prac,2,0,z,Tue Dec 30 2025 14:31:26 GMT-0600 (Central Standard Time),288221.90000003576,I,m,1010,4,1,128.bmp,-120,-120,129.bmp,120,-120,130.bmp,-120,120,131.bmp,120,120,9826.600000023842,278395.3000000119,8080,yes,SM,A,129.bmp,120,-120,280037,274009,282053,276022,,,,,4
3,0,0,1,0,1,prac,2,0,z,Tue Dec 30 2025 14:31:26 GMT-0600 (Central Standard Time),298536.3000000119,I,m,1497,5,1,132.bmp,-120,-120,133.bmp,120,-120,134.bmp,-120,120,135.bmp,120,120,10311.5,288224.8000000119,8080,yes,SM,A,134.bmp,-120,120,289867,283839,291885,285852,,,,,5
1,1,0,0,0,1,prac,2,0,m,Tue Dec 30 2025 14:31:26 GMT-0600 (Central Standard Time),309231.8000000119,I,z,1882,6,1,136.bmp,-120,-120,137.bmp,120,-120,138.bmp,-120,120,139.bmp,120,120,10690.300000011921,298541.5,8080,no,SM,A,139.bmp,-120,-120,300181,294156,302197,296165,,,,,6
2,0,1,0,0,2,prac,2,1,m,Tue Dec 30 2025 14:31:26 GMT-0600 (Central Standard Time),319328.6999999881,I,m,1280,7,1,140.bmp,-120,-120,141.bmp,120,-120,142.bmp,-120,120,143.bmp,120,120,10093.699999988079,309235.0,8080,no,SM,A,140.bmp,120,-120,310877,304849,312894,306862,,,,,7
4,0,0,0,1,2,prac,2,0,z,Tue Dec 30 2025 14:31:26 GMT-0600 (Central Standard Time),330158.40000003576,I,None,2016,8,1,144.bmp,-120,-120,145.bmp,120,-120,146.bmp,-120,120,147.bmp,120,120,10826.400000035763,319332.0,8080,yes,SM,A,147.bmp,120,120,320974,314946,322990,316959,,,,,8
4,0,0,0,1,0,test,1,0,m,Tue Dec 30 2025 14:31:26 GMT-0600 (Central Standard Time),360565.90000003576,I,z,1445,1,1,148.bmp,-120,-120,149.bmp,120,-120,150.bmp,-120,120,143.bmp,120,120,9494.200000047684,351071.6999999881,8080,no,SM,A,150.bmp,120,120,320974,314946,322990,316959,352714.0,346686.0,354730.0,348699.0,1
2,0,1,0,0,0,test,1,0,m,Tue Dec 30 2025 14:31:26 GMT-0600 (Central Standard Time),369446.40000003576,I,z,828,2,1,101.bmp,-120,-120,102.bmp,120,-120,103.bmp,-120,120,104.bmp,120,120,8875.600000023842,360570.8000000119,8080,no,SM,A,103.bmp,120,-120,320974,314946,322990,316959,362211.0,356185.0,364227.0,358196.0,2
1,1,0,0,0,0,test,1,0,z,Tue Dec 30 2025 14:31:26 GMT-0600 (Central Standard Time),379060.0,I,m,1562,3,1,105.bmp,-120,-120,106.bmp,120,-120,107.bmp,-120,120,108.bmp,120,120,9610.399999976158,369449.60000002384,8080,yes,SM,A,105.bmp,-120,-120,320974,314946,322990,316959,371092.0,365064.0,373108.0,367077.0,3
3,0,0,1,0,1,test,1,1,m,Tue Dec 30 2025 14:31:26 GMT-0600 (Central Standard Time),388356.90000003576,I,m,1245,4,1,109.bmp,-120,-120,110.bmp,120,-120,111.bmp,-120,120,112.bmp,120,120,9293.300000011921,379063.60000002384,8080,no,SM,A,109.bmp,-120,120,320974,314946,322990,316959,380705.0,374678.0,382721.0,376690.0,4
2,0,1,0,0,2,test,1,1,z,Tue Dec 30 2025 14:31:26 GMT-0600 (Central Standard Time),397804.0,I,z,1387,5,1,113.bmp,-120,-120,114.bmp,120,-120,115.bmp,-120,120,116.bmp,120,120,9443.800000011921,388360.1999999881,8080,yes,SM,A,114.bmp,120,-120,320974,314946,322990,316959,390002.0,383975.0,392019.0,385989.0,5
3,0,0,1,0,3,test,1,1,z,Tue Dec 30 2025 14:31:26 GMT-0600 (Central Standard Time),406868.10000002384,I,z,1005,6,1,117.bmp,-120,-120,118.bmp,120,-120,119.bmp,-120,120,120.bmp,120,120,9060.900000035763,397807.1999999881,8080,yes,SM,A,119.bmp,-120,120,320974,314946,322990,316959,399450.0,393421.0,401466.0,395434.0,6
4,0,0,0,1,3,test,1,0,z,Tue Dec 30 2025 14:31:26 GMT-0600 (Central Standard Time),416031.8000000119,I,m,1101,7,1,121.bmp,-120,-120,122.bmp,120,-120,123.bmp,-120,120,124.bmp,120,120,9160.600000023842,406871.1999999881,8080,yes,SM,A,124.bmp,120,120,320974,314946,322990,316959,408513.0,402485.0,410529.0,404498.0,7
2,0,1,0,0,3,test,1,0,m,Tue Dec 30 2025 14:31:26 GMT-0600 (Central Standard Time),425745.3000000119,I,z,1658,8,1,125.bmp,-120,-120,126.bmp,120,-120,127.bmp,-120,120,128.bmp,120,120,9709.600000023842,416035.6999999881,8080,no,SM,A,125.bmp,120,-120,320974,314946,322990,316959,417677.0,411650.0,419693.0,413662.0,8
3,0,0,1,0,3,test,1,0,m,Tue Dec 30 2025 14:31:26 GMT-0600 (Central Standard Time),435092.0,I,z,1287,9,1,129.bmp,-120,-120,130.bmp,120,-120,131.bmp,-120,120,132.bmp,120,120,9343.800000011921,425748.1999999881,8080,no,SM,A,130.bmp,-120,120,320974,314946,322990,316959,427391.0,421362.0,429407.0,423375.0,9
4,0,0,0,1,3,test,1,0,z,Tue Dec 30 2025 14:31:26 GMT-0600 (Central Standard Time),444888.90000003576,I,m,1747,10,1,137.bmp,-120,-120,138.bmp,120,-120,139.bmp,-120,120,140.bmp,120,120,9793.700000047684,435095.1999999881,8080,yes,SM,A,140.bmp,120,120,320974,314946,322990,316959,436738.0,430709.0,438755.0,432723.0,10
3,0,0,1,0,4,test,1,1,z,Tue Dec 30 2025 14:31:26 GMT-0600 (Central Standard Time),454369.6999999881,I,z,1431,11,1,133.bmp,-120,-120,134.bmp,120,-120,135.bmp,-120,120,136.bmp,120,120,9477.399999976158,444892.3000000119,8080,yes,SM,A,135.bmp,-120,120,320974,314946,322990,316959,446535.0,440506.0,448551.0,442520.0,11
2,0,1,0,0,5,test,1,1,m,Tue Dec 30 2025 14:31:26 GMT-0600 (Central Standard Time),464266.60000002384,I,m,1839,12,1,141.bmp,-120,-120,142.bmp,120,-120,143.bmp,-120,120,144.bmp,120,120,9893.5,454373.10000002384,8080,no,SM,A,141.bmp,120,-120,320974,314946,322990,316959,456015.0,449987.0,458031.0,452000.0,12
3,0,0,1,0,6,test,1,1,m,Tue Dec 30 2025 14:31:26 GMT-0600 (Central Standard Time),473713.5,I,m,1390,13,1,145.bmp,-120,-120,146.bmp,120,-120,147.bmp,-120,120,148.bmp,120,120,9443.800000011921,464269.6999999881,8080,no,SM,A,146.bmp,-120,120,320974,314946,322990,316959,465912.0,459884.0,467928.0,461897.0,13
1,1,0,0,0,6,test,1,0,z,Tue Dec 30 2025 14:31:26 GMT-0600 (Central Standard Time),483777.10000002384,I,None,2016,14,1,149.bmp,-120,-120,150.bmp,120,-120,104.bmp,-120,120,101.bmp,120,120,10060.5,473716.60000002384,8080,yes,SM,A,149.bmp,-120,-120,320974,314946,322990,316959,475359.0,469331.0,477375.0,471344.0,14
4,0,0,0,1,6,test,1,0,m,Tue Dec 30 2025 14:31:26 GMT-0600 (Central Standard Time),493840.6999999881,I,None,2016,15,1,110.bmp,-120,-120,111.bmp,120,-120,112.bmp,-120,120,113.bmp,120,120,10060.599999964237,483780.10000002384,8080,no,SM,A,111.bmp,120,120,320974,314946,322990,316959,485422.0,479394.0,487439.0,481407.0,15
1,1,0,0,0,7,test,1,1,m,Tue Dec 30 2025 14:31:26 GMT-0600 (Central Standard Time),502987.8000000119,I,m,1096,16,1,102.bmp,-120,-120,103.bmp,120,-120,104.bmp,-120,120,105.bmp,120,120,9143.699999988079,493844.10000002384,8080,no,SM,A,105.bmp,-120,-120,320974,314946,322990,316959,495486.0,489458.0,497502.0,491471.0,16
3,0,0,1,0,7,test,1,0,m,Tue Dec 30 2025 14:31:26 GMT-0600 (Central Standard Time),513051.5,I,None,2016,17,1,122.bmp,-120,-120,123.bmp,120,-120,124.bmp,-120,120,125.bmp,120,120,10060.399999976158,502991.10000002384,8080,no,SM,A,122.bmp,-120,120,320974,314946,322990,316959,504634.0,498605.0,506649.0,500618.0,17
1,1,0,0,0,7,test,1,0,z,Tue Dec 30 2025 14:31:26 GMT-0600 (Central Standard Time),523114.90000003576,I,None,2016,18,1,106.bmp,-120,-120,107.bmp,120,-120,108.bmp,-120,120,109.bmp,120,120,10058.600000023842,513056.3000000119,8080,yes,SM,A,106.bmp,-120,-120,320974,314946,322990,316959,514697.0,508671.0,516713.0,510681.0,18
2,0,1,0,0,7,test,1,0,z,Tue Dec 30 2025 14:31:26 GMT-0600 (Central Standard Time),533178.4000000358,I,None,2016,19,1,126.bmp,-120,-120,127.bmp,120,-120,128.bmp,-120,120,129.bmp,120,120,10059.700000047684,523118.6999999881,8080,yes,SM,A,127.bmp,120,-120,320974,314946,322990,316959,524760.0,518733.0,526776.0,520745.0,19
3,0,0,1,0,8,test,1,1,z,Tue Dec 30 2025 14:31:26 GMT-0600 (Central Standard Time),543175.1999999881,I,z,1934,20,1,130.bmp,-120,-120,131.bmp,120,-120,132.bmp,-120,120,133.bmp,120,120,9993.699999988079,533181.5,8080,yes,SM,A,132.bmp,-120,120,320974,314946,322990,316959,534825.0,528796.0,536840.0,530809.0,20
1,1,0,0,0,8,test,1,0,m,Tue Dec 30 2025 14:31:26 GMT-0600 (Central Standard Time),553238.5,I,None,2015,21,1,114.bmp,-120,-120,115.bmp,120,-120,116.bmp,-120,120,117.bmp,120,120,10060.0,543178.5,8080,no,SM,A,116.bmp,-120,-120,320974,314946,322990,316959,544821.0,538793.0,546837.0,540806.0,21
4,0,0,0,1,8,test,1,0,z,Tue Dec 30 2025 14:31:26 GMT-0600 (Central Standard Time),562735.6000000238,I,m,1434,22,1,118.bmp,-120,-120,119.bmp,120,-120,120.bmp,-120,120,121.bmp,120,120,9492.600000023842,553243.0,8080,yes,SM,A,121.bmp,120,120,320974,314946,322990,316959,554884.0,548857.0,556900.0,550869.0,22
1,1,0,0,0,9,test,1,1,m,Tue Dec 30 2025 14:31:26 GMT-0600 (Central Standard Time),572099.3000000119,I,m,1312,23,1,134.bmp,-120,-120,135.bmp,120,-120,136.bmp,-120,120,137.bmp,120,120,9360.600000023842,562738.6999999881,8080,no,SM,A,137.bmp,-120,-120,320974,314946,322990,316959,564381.0,558353.0,566398.0,560366.0,23
2,0,1,0,0,9,test,1,0,z,Tue Dec 30 2025 14:31:26 GMT-0600 (Central Standard Time),581996.1000000238,I,m,1845,24,1,142.bmp,-120,-120,143.bmp,120,-120,144.bmp,-120,120,145.bmp,120,120,9893.400000035763,572102.6999999881,8080,yes,SM,A,143.bmp,120,-120,320974,314946,322990,316959,573745.0,567717.0,575761.0,569730.0,24
4,0,0,0,1,10,test,1,1,m,Tue Dec 30 2025 14:31:26 GMT-0600 (Central Standard Time),591076.8000000119,I,m,1020,25,1,146.bmp,-120,-120,147.bmp,120,-120,148.bmp,-120,120,149.bmp,120,120,9077.300000011921,581999.5,8080,no,SM,A,148.bmp,120,120,320974,314946,322990,316959,583642.0,577614.0,585658.0,579626.0,25
1,1,0,0,0,10,test,1,0,z,Tue Dec 30 2025 14:31:26 GMT-0600 (Central Standard Time),601140.1999999881,I,None,2015,26,1,138.bmp,-120,-120,139.bmp,120,-120,140.bmp,-120,120,141.bmp,120,120,10058.5,591081.6999999881,8080,yes,SM,A,138.bmp,-120,-120,320974,314946,322990,316959,592722.0,586696.0,594739.0,588707.0,26
4,0,0,0,1,10,test,1,0,z,Tue Dec 30 2025 14:31:26 GMT-0600 (Central Standard Time),611204.0,I,None,2016,27,1,150.bmp,-120,-120,111.bmp,120,-120,101.bmp,-120,120,102.bmp,120,120,10060.899999976158,601143.1000000238,8080,yes,SM,A,102.bmp,120,120,320974,314946,322990,316959,602786.0,596757.0,604802.0,598770.0,27
3,0,0,1,0,11,test,1,1,m,Tue Dec 30 2025 14:31:26 GMT-0600 (Central Standard Time),620334.3000000119,I,m,1069,28,1,103.bmp,-120,-120,104.bmp,120,-120,105.bmp,-120,120,106.bmp,120,120,9127.600000023842,611206.6999999881,8080,no,SM,A,103.bmp,-120,120,320974,314946,322990,316959,612849.0,606821.0,614865.0,608834.0,28
2,0,1,0,0,12,test,1,1,z,Tue Dec 30 2025 14:31:26 GMT-0600 (Central Standard Time),629948.0,I,z,1563,29,1,107.bmp,-120,-120,108.bmp,120,-120,109.bmp,-120,120,110.bmp,120,120,9610.800000011921,620337.1999999881,8080,yes,SM,A,108.bmp,120,-120,320974,314946,322990,316959,621980.0,615951.0,623996.0,617965.0,29
3,0,0,1,0,13,test,1,1,z,Tue Dec 30 2025 14:31:26 GMT-0600 (Central Standard Time),639345.0,I,z,1340,30,1,111.bmp,-120,-120,112.bmp,120,-120,113.bmp,-120,120,114.bmp,120,120,9392.699999988079,629952.3000000119,8080,yes,SM,A,113.bmp,-120,120,320974,314946,322990,316959,631594.0,625567.0,633610.0,627578.0,30
1,1,0,0,0,14,test,1,1,z,Tue Dec 30 2025 14:31:26 GMT-0600 (Central Standard Time),648358.9000000358,I,z,960,31,1,115.bmp,-120,-120,116.bmp,120,-120,117.bmp,-120,120,118.bmp,120,120,9010.5,639348.4000000358,8080,yes,SM,A,115.bmp,-120,-120,320974,314946,322990,316959,640990.0,634963.0,643007.0,636975.0,31
2,0,1,0,0,15,test,1,1,m,Tue Dec 30 2025 14:31:26 GMT-0600 (Central Standard Time),657622.4000000358,I,m,1210,32,1,119.bmp,-120,-120,120.bmp,120,-120,121.bmp,-120,120,122.bmp,120,120,9260.5,648361.9000000358,8080,no,SM,A,119.bmp,120,-120,320974,314946,322990,316959,650004.0,643976.0,652020.0,645989.0,32
4,0,0,0,1,16,test,1,1,z,Tue Dec 30 2025 14:31:26 GMT-0600 (Central Standard Time),667586.0,I,z,1906,33,1,131.bmp,-120,-120,132.bmp,120,-120,133.bmp,-120,120,134.bmp,120,120,9960.800000011921,657625.1999999881,8080,yes,SM,A,134.bmp,120,120,320974,314946,322990,316959,659268.0,653239.0,661284.0,655253.0,33
2,0,1,0,0,16,test,1,0,z,Tue Dec 30 2025 14:31:26 GMT-0600 (Central Standard Time),677649.8000000119,I,None,2016,34,1,123.bmp,-120,-120,124.bmp,120,-120,125.bmp,-120,120,126.bmp,120,120,10060.5,667589.3000000119,8080,yes,SM,A,124.bmp,120,-120,320974,314946,322990,316959,669232.0,663203.0,671248.0,665216.0,34
4,0,0,0,1,17,test,1,1,m,Tue Dec 30 2025 14:31:26 GMT-0600 (Central Standard Time),686974.3000000119,I,m,1261,35,1,127.bmp,-120,-120,128.bmp,120,-120,129.bmp,-120,120,130.bmp,120,120,9321.300000011921,677653.0,8080,no,SM,A,129.bmp,120,120,320974,314946,322990,316959,679295.0,673267.0,681311.0,675280.0,35
3,0,0,1,0,18,test,1,1,m,Tue Dec 30 2025 14:31:26 GMT-0600 (Central Standard Time),696476.8000000119,I,m,1436,36,1,135.bmp,-120,-120,136.bmp,120,-120,137.bmp,-120,120,138.bmp,120,120,9497.100000023842,686979.6999999881,8080,no,SM,A,135.bmp,-120,120,320974,314946,322990,316959,688626.0,682594.0,690642.0,684610.0,36
1,1,0,0,0,19,test,1,1,m,Tue Dec 30 2025 14:31:26 GMT-0600 (Central Standard Time),705607.4000000358,I,m,1075,37,1,139.bmp,-120,-120,140.bmp,120,-120,141.bmp,-120,120,142.bmp,120,120,9127.5,696479.9000000358,8080,no,SM,A,140.bmp,-120,-120,320974,314946,322990,316959,698123.0,692094.0,700139.0,694108.0,37
2,0,1,0,0,20,test,1,1,m,Tue Dec 30 2025 14:31:26 GMT-0600 (Central Standard Time),715187.6000000238,I,m,1530,38,1,143.bmp,-120,-120,144.bmp,120,-120,145.bmp,-120,120,146.bmp,120,120,9577.400000035763,705610.1999999881,8080,no,SM,A,145.bmp,120,-120,320974,314946,322990,316959,707253.0,701224.0,709269.0,703238.0,38
4,0,0,0,1,21,test,1,1,z,Tue Dec 30 2025 14:31:26 GMT-0600 (Central Standard Time),724868.1000000238,I,z,1620,39,1,147.bmp,-120,-120,148.bmp,120,-120,149.bmp,-120,120,150.bmp,120,120,9677.0,715191.1000000238,8080,yes,SM,A,150.bmp,120,120,320974,314946,322990,316959,716833.0,710805.0,718849.0,712818.0,39
3,0,0,1,0,22,test,1,1,m,Tue Dec 30 2025 14:31:26 GMT-0600 (Central Standard Time),734499.4000000358,I,m,1580,40,1,104.bmp,-120,-120,105.bmp,120,-120,106.bmp,-120,120,107.bmp,120,120,9628.300000011921,724871.1000000238,8080,no,SM,A,105.bmp,-120,120,320974,314946,322990,316959,726515.0,720485.0,728530.0,722498.0,40
1,1,0,0,0,23,test,1,1,z,Tue Dec 30 2025 14:31:26 GMT-0600 (Central Standard Time),743379.0,I,z,830,41,1,108.bmp,-120,-120,109.bmp,120,-120,110.bmp,-120,120,111.bmp,120,120,8876.599999964237,734502.4000000358,8080,yes,SM,A,108.bmp,-120,-120,320974,314946,322990,316959,736144.0,730117.0,738160.0,732129.0,41
4,0,0,0,1,23,test,1,0,z,Tue Dec 30 2025 14:31:26 GMT-0600 (Central Standard Time),753442.5,I,None,2015,42,1,112.bmp,-120,-120,113.bmp,120,-120,114.bmp,-120,120,115.bmp,120,120,10059.300000011921,743383.1999999881,8080,yes,SM,A,115.bmp,120,120,320974,314946,322990,316959,745024.0,738997.0,747041.0,741009.0,42
1,1,0,0,0,24,test,1,1,z,Tue Dec 30 2025 14:31:26 GMT-0600 (Central Standard Time),763272.8000000119,I,z,1767,43,1,116.bmp,-120,-120,117.bmp,120,-120,118.bmp,-120,120,119.bmp,120,120,9827.199999988079,753445.6000000238,8080,yes,SM,A,116.bmp,-120,-120,320974,314946,322990,316959,755088.0,749060.0,757104.0,751073.0,43
4,0,0,0,1,25,test,1,1,m,Tue Dec 30 2025 14:31:26 GMT-0600 (Central Standard Time),772569.8000000119,I,m,1247,44,1,104.bmp,-120,-120,101.bmp,120,-120,102.bmp,-120,120,103.bmp,120,120,9293.699999988079,763276.1000000238,8080,no,SM,A,104.bmp,120,120,320974,314946,322990,316959,764919.0,758890.0,766934.0,760903.0,44
1,1,0,0,0,26,test,1,1,m,Tue Dec 30 2025 14:31:26 GMT-0600 (Central Standard Time),781983.5,I,m,1351,45,1,128.bmp,-120,-120,129.bmp,120,-120,130.bmp,-120,120,131.bmp,120,120,9410.0,772573.5,8080,no,SM,A,131.bmp,-120,-120,320974,314946,322990,316959,774215.0,768188.0,776231.0,770200.0,45
1,1,0,0,0,27,test,1,1,m,Tue Dec 30 2025 14:31:26 GMT-0600 (Central Standard Time),791514.1000000238,I,m,1473,46,1,120.bmp,-120,-120,121.bmp,120,-120,122.bmp,-120,120,123.bmp,120,120,9527.400000035763,781986.6999999881,8080,no,SM,A,121.bmp,-120,-120,320974,314946,322990,316959,783629.0,777601.0,785645.0,779614.0,46
3,0,0,1,0,27,test,1,0,z,Tue Dec 30 2025 14:31:26 GMT-0600 (Central Standard Time),800594.0,I,m,1030,47,1,124.bmp,-120,-120,125.bmp,120,-120,126.bmp,-120,120,127.bmp,120,120,9076.5,791517.5,8080,yes,SM,A,126.bmp,-120,120,320974,314946,322990,316959,793159.0,787132.0,795176.0,789144.0,47
3,0,0,1,0,27,test,1,0,z,Tue Dec 30 2025 14:31:26 GMT-0600 (Central Standard Time),809808.1999999881,I,m,1166,48,1,140.bmp,-120,-120,141.bmp,120,-120,142.bmp,-120,120,143.bmp,120,120,9211.5,800596.6999999881,8080,yes,SM,A,142.bmp,-120,120,320974,314946,322990,316959,802240.0,796211.0,804256.0,798225.0,48
2,0,1,0,0,27,test,1,0,z,Tue Dec 30 2025 14:31:26 GMT-0600 (Central Standard Time),819255.3000000119,I,m,1384,49,1,136.bmp,-120,-120,137.bmp,120,-120,138.bmp,-120,120,139.bmp,120,120,9444.399999976158,809810.9000000358,8080,yes,SM,A,137.bmp,120,-120,320974,314946,322990,316959,811454.0,805425.0,813470.0,807438.0,49
3,0,0,1,0,28,test,1,1,m,Tue Dec 30 2025 14:31:26 GMT-0600 (Central Standard Time),828444.5,I,m,1125,50,1,132.bmp,-120,-120,133.bmp,120,-120,134.bmp,-120,120,135.bmp,120,120,9185.0,819259.5,8080,no,SM,A,132.bmp,-120,120,320974,314946,322990,316959,820901.0,814874.0,822917.0,816885.0,50
2,0,1,0,0,28,test,1,0,z,Tue Dec 30 2025 14:31:26 GMT-0600 (Central Standard Time),838499.0,I,None,2016,51,1,144.bmp,-120,-120,145.bmp,120,-120,146.bmp,-120,120,147.bmp,120,120,10049.199999988079,828449.8000000119,8080,yes,SM,A,145.bmp,120,-120,320974,314946,322990,316959,830081.0,824064.0,832097.0,826066.0,51
4,0,0,0,1,29,test,1,1,m,Tue Dec 30 2025 14:31:26 GMT-0600 (Central Standard Time),847696.1000000238,I,m,1149,52,1,148.bmp,-120,-120,149.bmp,120,-120,150.bmp,-120,120,131.bmp,120,120,9194.199999988079,838501.9000000358,8080,no,SM,A,148.bmp,120,120,320974,314946,322990,316959,840145.0,834116.0,842161.0,836129.0,52
3,0,0,1,0,30,test,1,1,z,Tue Dec 30 2025 14:31:26 GMT-0600 (Central Standard Time),857643.1999999881,I,z,1888,53,1,101.bmp,-120,-120,102.bmp,120,-120,103.bmp,-120,120,104.bmp,120,120,9944.299999952316,847698.9000000358,8080,yes,SM,A,103.bmp,-120,120,320974,314946,322990,316959,849342.0,843313.0,851358.0,845326.0,53
1,1,0,0,0,31,test,1,1,m,Tue Dec 30 2025 14:31:26 GMT-0600 (Central Standard Time),867373.4000000358,I,m,1669,54,1,105.bmp,-120,-120,106.bmp,120,-120,107.bmp,-120,120,108.bmp,120,120,9727.100000023842,857646.3000000119,8080,no,SM,A,107.bmp,-120,-120,320974,314946,322990,316959,859289.0,853261.0,861305.0,855274.0,54
4,0,0,0,1,31,test,1,0,z,Tue Dec 30 2025 14:31:26 GMT-0600 (Central Standard Time),877553.5,I,None,2004,55,1,109.bmp,-120,-120,110.bmp,120,-120,111.bmp,-120,120,112.bmp,120,120,10176.899999976158,867376.6000000238,8080,yes,SM,A,112.bmp,120,120,320974,314946,322990,316959,869019.0,862991.0,871163.0,865004.0,55
2,0,1,0,0,32,test,1,1,m,Tue Dec 30 2025 14:31:26 GMT-0600 (Central Standard Time),887217.1999999881,I,m,1607,56,1,113.bmp,-120,-120,114.bmp,120,-120,115.bmp,-120,120,116.bmp,120,120,9661.0,877556.1999999881,8080,no,SM,A,113.bmp,120,-120,320974,314946,322990,316959,879199.0,873170.0,881215.0,875184.0,56
4,0,0,0,1,32,test,1,0,m,Tue Dec 30 2025 14:31:26 GMT-0600 (Central Standard Time),896764.1999999881,I,z,1495,57,1,117.bmp,-120,-120,118.bmp,120,-120,119.bmp,-120,120,120.bmp,120,120,9544.199999988079,887220.0,8080,no,SM,A,118.bmp,120,120,320974,314946,322990,316959,888863.0,882834.0,890879.0,884847.0,57
3,0,0,1,0,33,test,1,1,z,Tue Dec 30 2025 14:31:26 GMT-0600 (Central Standard Time),906478.0,I,z,1651,58,1,121.bmp,-120,-120,122.bmp,120,-120,123.bmp,-120,120,124.bmp,120,120,9711.0,896767.0,8080,yes,SM,A,123.bmp,-120,120,320974,314946,322990,316959,898410.0,892381.0,900426.0,894395.0,58
2,0,1,0,0,33,test,1,0,m,Tue Dec 30 2025 14:31:26 GMT-0600 (Central Standard Time),916141.4000000358,I,z,1610,59,1,125.bmp,-120,-120,126.bmp,120,-120,127.bmp,-120,120,128.bmp,120,120,9660.400000035763,906481.0,8080,no,SM,A,128.bmp,120,-120,320974,314946,322990,316959,908123.0,902095.0,910140.0,904108.0,59
1,1,0,0,0,34,test,1,1,z,Tue Dec 30 2025 14:31:26 GMT-0600 (Central Standard Time),925871.8000000119,I,z,1682,60,1,129.bmp,-120,-120,130.bmp,120,-120,131.bmp,-120,120,132.bmp,120,120,9726.800000011921,916145.0,8080,yes,SM,A,129.bmp,-120,-120,320974,314946,322990,316959,917787.0,911759.0,919803.0,913772.0,60
2,0,1,0,0,34,test,1,0,z,Tue Dec 30 2025 14:31:26 GMT-0600 (Central Standard Time),935935.5,I,None,2015,61,1,133.bmp,-120,-120,134.bmp,120,-120,135.bmp,-120,120,136.bmp,120,120,10061.099999964237,925874.4000000358,8080,yes,SM,A,134.bmp,120,-120,320974,314946,322990,316959,927517.0,921489.0,929534.0,923502.0,61
4,0,0,0,1,34,test,1,0,z,Tue Dec 30 2025 14:31:26 GMT-0600 (Central Standard Time),945998.6999999881,I,None,2016,62,1,141.bmp,-120,-120,142.bmp,120,-120,143.bmp,-120,120,144.bmp,120,120,10059.899999976158,935938.8000000119,8080,yes,SM,A,144.bmp,120,120,320974,314946,322990,316959,937581.0,931553.0,939597.0,933565.0,62
1,1,0,0,0,34,test,1,0,m,Tue Dec 30 2025 14:31:26 GMT-0600 (Central Standard Time),956062.1000000238,I,None,2015,63,1,145.bmp,-120,-120,146.bmp,120,-120,147.bmp,-120,120,148.bmp,120,120,10059.699999988079,946002.4000000358,8080,no,SM,A,145.bmp,-120,120,320974,314946,322990,316959,947644.0,941617.0,949661.0,943629.0,63
2,0,1,0,0,35,test,1,1,z,Tue Dec 30 2025 14:31:26 GMT-0600 (Central Standard Time),965775.6000000238,I,z,1658,64,1,149.bmp,-120,-120,150.bmp,120,-120,112.bmp,-120,120,101.bmp,120,120,9710.400000035763,956065.1999999881,8080,yes,SM,A,150.bmp,120,-120,320974,314946,322990,316959,957707.0,951679.0,959724.0,953693.0,64
4,0,0,0,1,36,test,1,1,m,Tue Dec 30 2025 14:31:26 GMT-0600 (Central Standard Time),974874.0,I,m,1048,65,1,102.bmp,-120,-120,103.bmp,120,-120,104.bmp,-120,120,105.bmp,120,120,9095.599999964237,965778.4000000358,8080,no,SM,A,104.bmp,120,120,320974,314946,322990,316959,967421.0,961393.0,969438.0,963406.0,65
3,0,0,1,0,37,test,1,1,m,Tue Dec 30 2025 14:31:26 GMT-0600 (Central Standard Time),984603.1999999881,I,m,1679,66,1,106.bmp,-120,-120,107.bmp,120,-120,108.bmp,-120,120,109.bmp,120,120,9724.099999964237,974879.1000000238,8080,no,SM,A,109.bmp,-120,120,320974,314946,322990,316959,976519.0,970493.0,978535.0,972503.0,66
2,0,1,0,0,38,test,1,1,m,Tue Dec 30 2025 14:31:26 GMT-0600 (Central Standard Time),993717.1000000238,I,m,1053,67,1,137.bmp,-120,-120,138.bmp,120,-120,139.bmp,-120,120,140.bmp,120,120,9110.199999988079,984606.9000000358,8080,no,SM,A,139.bmp,120,-120,320974,314946,322990,316959,986249.0,980221.0,988265.0,982234.0,67
3,0,0,1,0,38,test,1,0,z,Tue Dec 30 2025 14:31:26 GMT-0600 (Central Standard Time),1003264.1999999881,I,m,1483,68,1,110.bmp,-120,-120,111.bmp,120,-120,112.bmp,-120,120,113.bmp,120,120,9543.699999988079,993720.5,8080,yes,SM,A,112.bmp,-120,120,320974,314946,322990,316959,995363.0,989335.0,997379.0,991347.0,68
1,1,0,0,0,39,test,1,1,m,Tue Dec 30 2025 14:31:26 GMT-0600 (Central Standard Time),1012411.5,I,m,1096,69,1,114.bmp,-120,-120,115.bmp,120,-120,116.bmp,-120,120,117.bmp,120,120,9144.0,1003267.5,8080,no,SM,A,115.bmp,-120,-120,320974,314946,322990,316959,1004910.0,998882.0,1006926.0,1000894.0,69
2,0,1,0,0,40,test,1,1,m,Tue Dec 30 2025 14:31:26 GMT-0600 (Central Standard Time),1021626.1000000238,I,m,1165,70,1,118.bmp,-120,-120,119.bmp,120,-120,120.bmp,-120,120,121.bmp,120,120,9211.5,1012414.6000000238,8080,no,SM,A,120.bmp,120,-120,320974,314946,322990,316959,1014057.0,1008029.0,1016073.0,1010042.0,70
4,0,0,0,1,40,test,1,0,z,Tue Dec 30 2025 14:31:26 GMT-0600 (Central Standard Time),1031688.8000000119,I,None,2016,71,1,122.bmp,-120,-120,123.bmp,120,-120,124.bmp,-120,120,125.bmp,120,120,10059.699999988079,1021629.1000000238,8080,yes,SM,A,125.bmp,120,120,320974,314946,322990,316959,1023270.0,1017243.0,1025287.0,1019255.0,71
1,1,0,0,0,41,test,1,1,z,Tue Dec 30 2025 14:31:26 GMT-0600 (Central Standard Time),1040985.6000000238,I,z,1239,72,1,126.bmp,-120,-120,127.bmp,120,-120,128.bmp,-120,120,129.bmp,120,120,9294.100000023842,1031691.5,8080,yes,SM,A,126.bmp,-120,-120,320974,314946,322990,316959,1033334.0,1027306.0,1035350.0,1029319.0,72
2,0,1,0,0,41,test,1,0,z,Tue Dec 30 2025 14:31:26 GMT-0600 (Central Standard Time),1051049.300000012,I,None,2016,73,1,130.bmp,-120,-120,131.bmp,120,-120,132.bmp,-120,120,133.bmp,120,120,10060.899999976158,1040988.4000000358,8080,yes,SM,A,131.bmp,120,-120,320974,314946,322990,316959,1042631.0,1036603.0,1044647.0,1038616.0,73
4,0,0,0,1,42,test,1,1,m,Tue Dec 30 2025 14:31:26 GMT-0600 (Central Standard Time),1059996.300000012,I,m,895,74,1,134.bmp,-120,-120,135.bmp,120,-120,136.bmp,-120,120,137.bmp,120,120,8941.899999976158,1051054.4000000358,8080,no,SM,A,136.bmp,120,120,320974,314946,322990,316959,1052695.0,1046669.0,1054711.0,1048680.0,74
2,0,1,0,0,43,test,1,1,m,Tue Dec 30 2025 14:31:26 GMT-0600 (Central Standard Time),1069176.699999988,I,m,1116,75,1,138.bmp,-120,-120,139.bmp,120,-120,140.bmp,-120,120,141.bmp,120,120,9177.5,1059999.199999988,8080,no,SM,A,141.bmp,120,-120,320974,314946,322990,316959,1061642.0,1055613.0,1063658.0,1057627.0,75
1,1,0,0,0,44,test,1,1,z,Tue Dec 30 2025 14:31:26 GMT-0600 (Central Standard Time),1078557.199999988,I,z,1327,76,1,142.bmp,-120,-120,143.bmp,120,-120,144.bmp,-120,120,145.bmp,120,120,9377.5,1069179.699999988,8080,yes,SM,A,142.bmp,-120,-120,320974,314946,322990,316959,1070822.0,1064794.0,1072839.0,1066807.0,76
3,0,0,1,0,45,test,1,1,z,Tue Dec 30 2025 14:31:26 GMT-0600 (Central Standard Time),1087766.0,I,z,1145,77,1,150.bmp,-120,-120,111.bmp,120,-120,101.bmp,-120,120,102.bmp,120,120,9205.699999988079,1078560.300000012,8080,yes,SM,A,101.bmp,-120,120,320974,314946,322990,316959,1080203.0,1074175.0,1082219.0,1076187.0,77
1,1,0,0,0,45,test,1,0,m,Tue Dec 30 2025 14:31:26 GMT-0600 (Central Standard Time),1097301.300000012,I,z,1476,78,1,146.bmp,-120,-120,147.bmp,120,-120,148.bmp,-120,120,149.bmp,120,120,9531.899999976158,1087769.4000000358,8080,no,SM,A,147.bmp,-120,-120,320974,314946,322990,316959,1089418.0,1083384.0,1091433.0,1085401.0,78
4,0,0,0,1,46,test,1,1,m,Tue Dec 30 2025 14:31:26 GMT-0600 (Central Standard Time),1106498.5,I,m,1139,79,1,107.bmp,-120,-120,108.bmp,120,-120,109.bmp,-120,120,110.bmp,120,120,9193.899999976158,1097304.6000000238,8080,no,SM,A,107.bmp,120,120,320974,314946,322990,316959,1098947.0,1092919.0,1100963.0,1094931.0,79
3,0,0,1,0,46,test,1,0,m,Tue Dec 30 2025 14:31:26 GMT-0600 (Central Standard Time),1116562.0,I,None,2016,80,1,103.bmp,-120,-120,104.bmp,120,-120,105.bmp,-120,120,106.bmp,120,120,10060.5,1106501.5,8080,no,SM,A,106.bmp,-120,120,320974,314946,322990,316959,1108144.0,1102116.0,1110160.0,1104129.0,80
