Q,Q1,Q2,Q3,Q4,acc_sum,block,block_c,correct,correct_response,datetime,endtime,project,response,response_time,row_sel,session_number,squiggle1,squiggle1x,squiggle1y,squiggle2,squiggle2x,squiggle2y,squiggle3,squiggle3x,squiggle3y,squiggle4,squiggle4x,squiggle4y,start_end,starttime,subject_id,target_congruent,task,task_vers,testsquiggle,testsquigglex,testsquiggley,time_practice_delay,time_practice_fixation,time_practice_stimuli,time_practice_study,time_test_delay,time_test_fixation,time_test_stimuli,time_test_study,trial
1,1,0,0,0,1,prac,1,1,z,Fri Mar 13 2026 09:56:59 GMT-0500 (Central Daylight Time),193769.60000002384,I,z,1981,1,2,66.bmp,-120,-120,67.bmp,120,-120,68.bmp,-120,120,69.bmp,120,120,10793.5,182976.10000002384,8080,yes,SM,C,66.bmp,-120,-120,185059,179030,187074,181043,,,,,1
3,0,0,1,0,2,prac,1,1,m,Fri Mar 13 2026 09:56:59 GMT-0500 (Central Daylight Time),204082.89999997616,I,m,1496,2,2,70.bmp,-120,-120,71.bmp,120,-120,72.bmp,-120,120,73.bmp,120,120,10309.0,193773.89999997616,8080,no,SM,C,73.bmp,-120,120,195855,189828,197871,191840,,,,,2
4,0,0,0,1,3,prac,1,1,m,Fri Mar 13 2026 09:56:59 GMT-0500 (Central Daylight Time),214329.69999998808,I,m,1429,3,2,74.bmp,-120,-120,75.bmp,120,-120,76.bmp,-120,120,77.bmp,120,120,10242.899999976158,204086.80000001192,8080,no,SM,C,74.bmp,120,120,206169,200141,208186,202153,,,,,3
2,0,1,0,0,4,prac,1,1,z,Fri Mar 13 2026 09:56:59 GMT-0500 (Central Daylight Time),225109.69999998808,I,z,1952,4,2,78.bmp,-120,-120,79.bmp,120,-120,80.bmp,-120,120,81.bmp,120,120,10776.599999964237,214333.10000002384,8080,yes,SM,C,79.bmp,120,-120,216415,210387,218431,212400,,,,,4
3,0,0,1,0,5,prac,1,1,z,Fri Mar 13 2026 09:56:59 GMT-0500 (Central Daylight Time),235156.5,I,z,1228,5,2,82.bmp,-120,-120,83.bmp,120,-120,84.bmp,-120,120,85.bmp,120,120,10043.399999976158,225113.10000002384,8080,yes,SM,C,84.bmp,-120,120,227195,221167,229211,223180,,,,,5
1,1,0,0,0,6,prac,1,1,m,Fri Mar 13 2026 09:56:59 GMT-0500 (Central Daylight Time),245903.19999998808,I,m,1917,6,2,86.bmp,-120,-120,87.bmp,120,-120,88.bmp,-120,120,89.bmp,120,120,10743.199999988079,235160.0,8080,no,SM,C,89.bmp,-120,-120,237246,231214,239258,233227,,,,,6
2,0,1,0,0,7,prac,1,1,m,Fri Mar 13 2026 09:56:59 GMT-0500 (Central Daylight Time),256083.30000001192,I,m,1362,7,2,90.bmp,-120,-120,91.bmp,120,-120,92.bmp,-120,120,93.bmp,120,120,10175.300000011921,245908.0,8080,no,SM,C,90.bmp,120,-120,247989,241962,250005,243973,,,,,7
4,0,0,0,1,7,prac,1,0,z,Fri Mar 13 2026 09:56:59 GMT-0500 (Central Daylight Time),266913.1999999881,I,None,2016,8,2,94.bmp,-120,-120,95.bmp,120,-120,96.bmp,-120,120,97.bmp,120,120,10826.199999988079,256087.0,8080,yes,SM,C,97.bmp,120,120,258169,252141,260185,254153,,,,,8
4,0,0,0,1,1,test,1,1,m,Fri Mar 13 2026 09:56:59 GMT-0500 (Central Daylight Time),291972.1999999881,I,m,1222,1,2,98.bmp,-120,-120,99.bmp,120,-120,100.bmp,-120,120,93.bmp,120,120,9277.899999976158,282694.3000000119,8080,yes,SM,C,100.bmp,120,120,258169,252141,260185,254153,284777.0,278749.0,286793.0,280762.0,1
2,0,1,0,0,2,test,1,1,m,Fri Mar 13 2026 09:56:59 GMT-0500 (Central Daylight Time),301269.1999999881,I,m,1245,2,2,51.bmp,-120,-120,52.bmp,120,-120,53.bmp,-120,120,54.bmp,120,120,9293.699999988079,291975.5,8080,yes,SM,C,53.bmp,120,-120,258169,252141,260185,254153,294058.0,288030.0,296074.0,290042.0,2
1,1,0,0,0,3,test,1,1,z,Fri Mar 13 2026 09:56:59 GMT-0500 (Central Daylight Time),310099.6999999881,I,z,771,3,2,55.bmp,-120,-120,56.bmp,120,-120,57.bmp,-120,120,58.bmp,120,120,8826.800000011921,301272.89999997616,8080,yes,SM,C,55.bmp,-120,-120,258169,252141,260185,254153,303356.0,297327.0,305372.0,299341.0,3
3,0,0,1,0,3,test,1,0,m,Fri Mar 13 2026 09:56:59 GMT-0500 (Central Daylight Time),319663.5,I,z,1377,4,2,59.bmp,-120,-120,60.bmp,120,-120,61.bmp,-120,120,62.bmp,120,120,9560.0,310103.5,8080,yes,SM,C,59.bmp,-120,120,258169,252141,260185,254153,312185.0,306158.0,314326.0,308170.0,4
2,0,1,0,0,3,test,1,0,z,Fri Mar 13 2026 09:56:59 GMT-0500 (Central Daylight Time),328777.10000002384,I,m,1057,5,2,63.bmp,-120,-120,64.bmp,120,-120,65.bmp,-120,120,66.bmp,120,120,9109.700000047684,319667.39999997616,8080,yes,SM,C,64.bmp,120,-120,258169,252141,260185,254153,321749.0,315722.0,323766.0,317734.0,5
3,0,0,1,0,4,test,1,1,z,Fri Mar 13 2026 09:56:59 GMT-0500 (Central Daylight Time),338824.10000002384,I,z,1984,6,2,67.bmp,-120,-120,68.bmp,120,-120,69.bmp,-120,120,70.bmp,120,120,10043.100000023842,328781.0,8080,yes,SM,C,69.bmp,-120,120,258169,252141,260185,254153,330863.0,324835.0,332879.0,326848.0,6
4,0,0,0,1,4,test,1,0,z,Fri Mar 13 2026 09:56:59 GMT-0500 (Central Daylight Time),348887.8000000119,I,None,2016,7,2,71.bmp,-120,-120,72.bmp,120,-120,73.bmp,-120,120,74.bmp,120,120,10060.199999988079,338827.60000002384,8080,yes,SM,C,74.bmp,120,120,258169,252141,260185,254153,340910.0,334882.0,342926.0,336894.0,7
2,0,1,0,0,5,test,1,1,m,Fri Mar 13 2026 09:56:59 GMT-0500 (Central Daylight Time),358601.3000000119,I,m,1666,8,2,75.bmp,-120,-120,76.bmp,120,-120,77.bmp,-120,120,78.bmp,120,120,9710.300000011921,348891.0,8080,yes,SM,C,75.bmp,120,-120,258169,252141,260185,254153,350973.0,344945.0,352989.0,346958.0,8
3,0,0,1,0,5,test,1,0,m,Fri Mar 13 2026 09:56:59 GMT-0500 (Central Daylight Time),367948.3000000119,I,z,1288,9,2,79.bmp,-120,-120,80.bmp,120,-120,81.bmp,-120,120,82.bmp,120,120,9343.0,358605.3000000119,8080,yes,SM,C,80.bmp,-120,120,258169,252141,260185,254153,360687.0,354660.0,362703.0,356672.0,9
4,0,0,0,1,5,test,1,0,z,Fri Mar 13 2026 09:56:59 GMT-0500 (Central Daylight Time),377245.39999997616,I,m,1237,10,2,87.bmp,-120,-120,88.bmp,120,-120,89.bmp,-120,120,90.bmp,120,120,9293.299999952316,367952.10000002384,8080,yes,SM,C,90.bmp,120,120,258169,252141,260185,254153,370034.0,364006.0,372050.0,366019.0,10
3,0,0,1,0,6,test,1,1,z,Fri Mar 13 2026 09:56:59 GMT-0500 (Central Daylight Time),386542.39999997616,I,z,1244,11,2,83.bmp,-120,-120,84.bmp,120,-120,85.bmp,-120,120,86.bmp,120,120,9292.699999988079,377249.6999999881,8080,yes,SM,C,85.bmp,-120,120,258169,252141,260185,254153,379331.0,373304.0,381347.0,375316.0,11
2,0,1,0,0,7,test,1,1,m,Fri Mar 13 2026 09:56:59 GMT-0500 (Central Daylight Time),395689.60000002384,I,m,1099,12,2,91.bmp,-120,-120,92.bmp,120,-120,93.bmp,-120,120,94.bmp,120,120,9144.0,386545.60000002384,8080,yes,SM,C,91.bmp,120,-120,258169,252141,260185,254153,388628.0,382600.0,390644.0,384613.0,12
3,0,0,1,0,8,test,1,1,m,Fri Mar 13 2026 09:56:59 GMT-0500 (Central Daylight Time),405469.89999997616,I,m,1728,13,2,95.bmp,-120,-120,96.bmp,120,-120,97.bmp,-120,120,98.bmp,120,120,9776.399999976158,395693.5,8080,yes,SM,C,96.bmp,-120,120,258169,252141,260185,254153,397775.0,391748.0,399791.0,393760.0,13
1,1,0,0,0,8,test,1,0,z,Fri Mar 13 2026 09:56:59 GMT-0500 (Central Daylight Time),415467.1999999881,I,m,1947,14,2,99.bmp,-120,-120,100.bmp,120,-120,54.bmp,-120,120,51.bmp,120,120,9993.699999988079,405473.5,8080,yes,SM,C,99.bmp,-120,-120,258169,252141,260185,254153,407555.0,401528.0,409572.0,403540.0,14
4,0,0,0,1,8,test,1,0,m,Fri Mar 13 2026 09:56:59 GMT-0500 (Central Daylight Time),425531.39999997616,I,None,2016,15,2,60.bmp,-120,-120,61.bmp,120,-120,62.bmp,-120,120,63.bmp,120,120,10060.799999952316,415470.60000002384,8080,yes,SM,C,61.bmp,120,120,258169,252141,260185,254153,417552.0,411525.0,419569.0,413537.0,15
1,1,0,0,0,8,test,1,0,m,Fri Mar 13 2026 09:56:59 GMT-0500 (Central Daylight Time),434844.10000002384,I,z,1263,16,2,52.bmp,-120,-120,53.bmp,120,-120,54.bmp,-120,120,55.bmp,120,120,9309.5,425534.60000002384,8080,yes,SM,C,55.bmp,-120,-120,258169,252141,260185,254153,427616.0,421589.0,429632.0,423601.0,16
3,0,0,1,0,8,test,1,0,m,Fri Mar 13 2026 09:56:59 GMT-0500 (Central Daylight Time),444907.60000002384,I,None,2016,17,2,72.bmp,-120,-120,73.bmp,120,-120,74.bmp,-120,120,75.bmp,120,120,10060.700000047684,434846.89999997616,8080,yes,SM,C,72.bmp,-120,120,258169,252141,260185,254153,436930.0,430901.0,438946.0,432914.0,17
1,1,0,0,0,9,test,1,1,z,Fri Mar 13 2026 09:56:59 GMT-0500 (Central Daylight Time),454004.6999999881,I,z,1046,18,2,56.bmp,-120,-120,57.bmp,120,-120,58.bmp,-120,120,59.bmp,120,120,9094.0,444910.6999999881,8080,yes,SM,C,56.bmp,-120,-120,258169,252141,260185,254153,446993.0,440965.0,449009.0,442978.0,18
2,0,1,0,0,9,test,1,0,z,Fri Mar 13 2026 09:56:59 GMT-0500 (Central Daylight Time),464068.3000000119,I,None,2016,19,2,76.bmp,-120,-120,77.bmp,120,-120,78.bmp,-120,120,79.bmp,120,120,10059.400000035763,454008.89999997616,8080,yes,SM,C,77.bmp,120,-120,258169,252141,260185,254153,456090.0,450063.0,458106.0,452075.0,19
3,0,0,1,0,9,test,1,0,z,Fri Mar 13 2026 09:56:59 GMT-0500 (Central Daylight Time),473599.5,I,m,1469,20,2,80.bmp,-120,-120,81.bmp,120,-120,82.bmp,-120,120,83.bmp,120,120,9527.399999976158,464072.10000002384,8080,yes,SM,C,82.bmp,-120,120,258169,252141,260185,254153,466154.0,460126.0,468170.0,462139.0,20
1,1,0,0,0,10,test,1,1,m,Fri Mar 13 2026 09:56:59 GMT-0500 (Central Daylight Time),483519.10000002384,I,m,1802,21,2,64.bmp,-120,-120,65.bmp,120,-120,66.bmp,-120,120,67.bmp,120,120,9916.600000023842,473602.5,8080,yes,SM,C,66.bmp,-120,-120,258169,252141,260185,254153,475684.0,469657.0,477701.0,471670.0,21
4,0,0,0,1,11,test,1,1,z,Fri Mar 13 2026 09:56:59 GMT-0500 (Central Daylight Time),492825.8000000119,I,z,1265,22,2,68.bmp,-120,-120,69.bmp,120,-120,70.bmp,-120,120,71.bmp,120,120,9302.0,483523.8000000119,8080,yes,SM,C,71.bmp,120,120,258169,252141,260185,254153,485598.0,479578.0,487614.0,481583.0,22
1,1,0,0,0,12,test,1,1,m,Fri Mar 13 2026 09:56:59 GMT-0500 (Central Daylight Time),502439.6999999881,I,m,1559,23,2,84.bmp,-120,-120,85.bmp,120,-120,86.bmp,-120,120,87.bmp,120,120,9610.699999988079,492829.0,8080,yes,SM,C,87.bmp,-120,-120,258169,252141,260185,254153,494912.0,488883.0,496928.0,490896.0,23
2,0,1,0,0,13,test,1,1,z,Fri Mar 13 2026 09:56:59 GMT-0500 (Central Daylight Time),511720.1999999881,I,z,1226,24,2,92.bmp,-120,-120,93.bmp,120,-120,94.bmp,-120,120,95.bmp,120,120,9277.199999988079,502443.0,8080,yes,SM,C,93.bmp,120,-120,258169,252141,260185,254153,504525.0,498497.0,506541.0,500510.0,24
4,0,0,0,1,14,test,1,1,m,Fri Mar 13 2026 09:56:59 GMT-0500 (Central Daylight Time),521417.0,I,m,1633,25,2,96.bmp,-120,-120,97.bmp,120,-120,98.bmp,-120,120,99.bmp,120,120,9693.100000023842,511723.89999997616,8080,yes,SM,C,98.bmp,120,120,258169,252141,260185,254153,513806.0,507778.0,515822.0,509790.0,25
1,1,0,0,0,15,test,1,1,z,Fri Mar 13 2026 09:56:59 GMT-0500 (Central Daylight Time),530692.1000000238,I,z,1227,26,2,88.bmp,-120,-120,89.bmp,120,-120,90.bmp,-120,120,91.bmp,120,120,9272.100000023842,521420.0,8080,yes,SM,C,88.bmp,-120,-120,258169,252141,260185,254153,523503.0,517474.0,525519.0,519487.0,26
4,0,0,0,1,16,test,1,1,z,Fri Mar 13 2026 09:56:59 GMT-0500 (Central Daylight Time),539977.8999999762,I,z,1249,27,2,100.bmp,-120,-120,61.bmp,120,-120,51.bmp,-120,120,52.bmp,120,120,9281.899999976158,530696.0,8080,yes,SM,C,52.bmp,120,120,258169,252141,260185,254153,532766.0,526750.0,534782.0,528751.0,27
3,0,0,1,0,16,test,1,0,m,Fri Mar 13 2026 09:56:59 GMT-0500 (Central Daylight Time),550041.3999999762,I,None,2015,28,2,53.bmp,-120,-120,54.bmp,120,-120,55.bmp,-120,120,56.bmp,120,120,10060.299999952316,539981.1000000238,8080,yes,SM,C,53.bmp,-120,120,258169,252141,260185,254153,542063.0,536035.0,544080.0,538048.0,28
2,0,1,0,0,17,test,1,1,z,Fri Mar 13 2026 09:56:59 GMT-0500 (Central Daylight Time),559971.6000000238,I,z,1872,29,2,57.bmp,-120,-120,58.bmp,120,-120,59.bmp,-120,120,60.bmp,120,120,9926.600000023842,550045.0,8080,yes,SM,C,58.bmp,120,-120,258169,252141,260185,254153,552127.0,546099.0,554143.0,548112.0,29
3,0,0,1,0,17,test,1,0,z,Fri Mar 13 2026 09:56:59 GMT-0500 (Central Daylight Time),569835.1000000238,I,m,1806,30,2,61.bmp,-120,-120,62.bmp,120,-120,63.bmp,-120,120,64.bmp,120,120,9860.5,559974.6000000238,8080,yes,SM,C,63.bmp,-120,120,258169,252141,260185,254153,562057.0,556029.0,564073.0,558042.0,30
1,1,0,0,0,18,test,1,1,z,Fri Mar 13 2026 09:56:59 GMT-0500 (Central Daylight Time),578799.0,I,z,883,31,2,65.bmp,-120,-120,66.bmp,120,-120,67.bmp,-120,120,68.bmp,120,120,8960.899999976158,569838.1000000238,8080,yes,SM,C,65.bmp,-120,-120,258169,252141,260185,254153,571921.0,565892.0,573964.0,567905.0,31
2,0,1,0,0,19,test,1,1,m,Fri Mar 13 2026 09:56:59 GMT-0500 (Central Daylight Time),588246.1999999881,I,m,1394,32,2,69.bmp,-120,-120,70.bmp,120,-120,71.bmp,-120,120,72.bmp,120,120,9443.300000011921,578802.8999999762,8080,yes,SM,C,69.bmp,120,-120,258169,252141,260185,254153,580885.0,574857.0,582901.0,576869.0,32
4,0,0,0,1,20,test,1,1,z,Fri Mar 13 2026 09:56:59 GMT-0500 (Central Daylight Time),597593.3000000119,I,z,1299,33,2,81.bmp,-120,-120,82.bmp,120,-120,83.bmp,-120,120,84.bmp,120,120,9343.800000011921,588249.5,8080,yes,SM,C,84.bmp,120,120,258169,252141,260185,254153,590332.0,584304.0,592348.0,586316.0,33
2,0,1,0,0,20,test,1,0,z,Fri Mar 13 2026 09:56:59 GMT-0500 (Central Daylight Time),607656.8000000119,I,None,2016,34,2,73.bmp,-120,-120,74.bmp,120,-120,75.bmp,-120,120,76.bmp,120,120,10060.600000023842,597596.1999999881,8080,yes,SM,C,74.bmp,120,-120,258169,252141,260185,254153,599679.0,593650.0,601695.0,595664.0,34
4,0,0,0,1,21,test,1,1,m,Fri Mar 13 2026 09:56:59 GMT-0500 (Central Daylight Time),616687.1999999881,I,m,977,35,2,77.bmp,-120,-120,78.bmp,120,-120,79.bmp,-120,120,80.bmp,120,120,9026.399999976158,607660.8000000119,8080,yes,SM,C,79.bmp,120,120,258169,252141,260185,254153,609742.0,603715.0,611758.0,605727.0,35
3,0,0,1,0,21,test,1,0,m,Fri Mar 13 2026 09:56:59 GMT-0500 (Central Daylight Time),626750.8000000119,I,None,2016,36,2,85.bmp,-120,-120,86.bmp,120,-120,87.bmp,-120,120,88.bmp,120,120,10060.400000035763,616690.3999999762,8080,yes,SM,C,85.bmp,-120,120,258169,252141,260185,254153,618773.0,612745.0,620789.0,614757.0,36
1,1,0,0,0,22,test,1,1,m,Fri Mar 13 2026 09:56:59 GMT-0500 (Central Daylight Time),635897.6999999881,I,m,1091,37,2,89.bmp,-120,-120,90.bmp,120,-120,91.bmp,-120,120,92.bmp,120,120,9143.699999988079,626754.0,8080,yes,SM,C,90.bmp,-120,-120,258169,252141,260185,254153,628836.0,622808.0,630852.0,624821.0,37
2,0,1,0,0,22,test,1,0,m,Fri Mar 13 2026 09:56:59 GMT-0500 (Central Daylight Time),645411.5,I,z,1456,38,2,93.bmp,-120,-120,94.bmp,120,-120,95.bmp,-120,120,96.bmp,120,120,9510.5,635901.0,8080,yes,SM,C,95.bmp,120,-120,258169,252141,260185,254153,637984.0,631955.0,639999.0,633968.0,38
4,0,0,0,1,23,test,1,1,z,Fri Mar 13 2026 09:56:59 GMT-0500 (Central Daylight Time),655225.1999999881,I,z,1757,39,2,97.bmp,-120,-120,98.bmp,120,-120,99.bmp,-120,120,100.bmp,120,120,9810.399999976158,645414.8000000119,8080,yes,SM,C,100.bmp,120,120,258169,252141,260185,254153,647497.0,641469.0,649514.0,643482.0,39
3,0,0,1,0,24,test,1,1,m,Fri Mar 13 2026 09:56:59 GMT-0500 (Central Daylight Time),664938.8000000119,I,m,1656,40,2,54.bmp,-120,-120,55.bmp,120,-120,56.bmp,-120,120,57.bmp,120,120,9710.100000023842,655228.6999999881,8080,yes,SM,C,55.bmp,-120,120,258169,252141,260185,254153,657311.0,651283.0,659327.0,653296.0,40
1,1,0,0,0,25,test,1,1,z,Fri Mar 13 2026 09:56:59 GMT-0500 (Central Daylight Time),674852.1999999881,I,z,1854,41,2,58.bmp,-120,-120,59.bmp,120,-120,60.bmp,-120,120,61.bmp,120,120,9910.399999976158,664941.8000000119,8080,yes,SM,C,58.bmp,-120,-120,258169,252141,260185,254153,667025.0,660996.0,669041.0,663009.0,41
4,0,0,0,1,26,test,1,1,z,Fri Mar 13 2026 09:56:59 GMT-0500 (Central Daylight Time),684882.5,I,z,1981,42,2,62.bmp,-120,-120,63.bmp,120,-120,64.bmp,-120,120,65.bmp,120,120,10027.100000023842,674855.3999999762,8080,yes,SM,C,65.bmp,120,120,258169,252141,260185,254153,676938.0,670910.0,678954.0,672923.0,42
1,1,0,0,0,26,test,1,0,z,Fri Mar 13 2026 09:56:59 GMT-0500 (Central Daylight Time),694512.8000000119,I,m,1575,43,2,66.bmp,-120,-120,67.bmp,120,-120,68.bmp,-120,120,69.bmp,120,120,9626.699999988079,684886.1000000238,8080,yes,SM,C,66.bmp,-120,-120,258169,252141,260185,254153,686968.0,680940.0,688984.0,682953.0,43
4,0,0,0,1,26,test,1,0,m,Fri Mar 13 2026 09:56:59 GMT-0500 (Central Daylight Time),704576.3000000119,I,None,2015,44,2,54.bmp,-120,-120,51.bmp,120,-120,52.bmp,-120,120,53.bmp,120,120,10060.400000035763,694515.8999999762,8080,yes,SM,C,54.bmp,120,120,258169,252141,260185,254153,696598.0,690570.0,698615.0,692583.0,44
1,1,0,0,0,27,test,1,1,m,Fri Mar 13 2026 09:56:59 GMT-0500 (Central Daylight Time),714090.1999999881,I,m,1457,45,2,78.bmp,-120,-120,79.bmp,120,-120,80.bmp,-120,120,81.bmp,120,120,9510.0,704580.1999999881,8080,yes,SM,C,81.bmp,-120,-120,258169,252141,260185,254153,706662.0,700634.0,708678.0,702647.0,45
1,1,0,0,0,27,test,1,0,m,Fri Mar 13 2026 09:56:59 GMT-0500 (Central Daylight Time),723470.6000000238,I,z,1319,46,2,70.bmp,-120,-120,71.bmp,120,-120,72.bmp,-120,120,73.bmp,120,120,9376.900000035763,714093.6999999881,8080,yes,SM,C,71.bmp,-120,-120,258169,252141,260185,254153,716176.0,710148.0,718192.0,712160.0,46
3,0,0,1,0,28,test,1,1,z,Fri Mar 13 2026 09:56:59 GMT-0500 (Central Daylight Time),732617.8999999762,I,z,1084,47,2,74.bmp,-120,-120,75.bmp,120,-120,76.bmp,-120,120,77.bmp,120,120,9144.299999952316,723473.6000000238,8080,yes,SM,C,76.bmp,-120,120,258169,252141,260185,254153,725556.0,719528.0,727572.0,721541.0,47
3,0,0,1,0,29,test,1,1,z,Fri Mar 13 2026 09:56:59 GMT-0500 (Central Daylight Time),741781.3000000119,I,z,1112,48,2,90.bmp,-120,-120,91.bmp,120,-120,92.bmp,-120,120,93.bmp,120,120,9160.199999988079,732621.1000000238,8080,yes,SM,C,92.bmp,-120,120,258169,252141,260185,254153,734703.0,728675.0,736719.0,730688.0,48
2,0,1,0,0,30,test,1,1,z,Fri Mar 13 2026 09:56:59 GMT-0500 (Central Daylight Time),751078.5,I,z,1236,49,2,86.bmp,-120,-120,87.bmp,120,-120,88.bmp,-120,120,89.bmp,120,120,9293.800000011921,741784.6999999881,8080,yes,SM,C,87.bmp,120,-120,258169,252141,260185,254153,743867.0,737839.0,745883.0,739852.0,49
3,0,0,1,0,31,test,1,1,m,Fri Mar 13 2026 09:56:59 GMT-0500 (Central Daylight Time),760842.0,I,m,1707,50,2,82.bmp,-120,-120,83.bmp,120,-120,84.bmp,-120,120,85.bmp,120,120,9760.199999988079,751081.8000000119,8080,yes,SM,C,82.bmp,-120,120,258169,252141,260185,254153,753164.0,747136.0,755180.0,749149.0,50
2,0,1,0,0,31,test,1,0,z,Fri Mar 13 2026 09:56:59 GMT-0500 (Central Daylight Time),770906.8999999762,I,None,2017,51,2,94.bmp,-120,-120,95.bmp,120,-120,96.bmp,-120,120,97.bmp,120,120,10061.799999952316,760845.1000000238,8080,yes,SM,C,95.bmp,120,-120,258169,252141,260185,254153,762928.0,756899.0,764944.0,758912.0,51
4,0,0,0,1,32,test,1,1,m,Fri Mar 13 2026 09:56:59 GMT-0500 (Central Daylight Time),780569.3000000119,I,m,1608,52,2,98.bmp,-120,-120,99.bmp,120,-120,100.bmp,-120,120,81.bmp,120,120,9659.0,770910.3000000119,8080,yes,SM,C,98.bmp,120,120,258169,252141,260185,254153,772991.0,766964.0,775007.0,768976.0,52
3,0,0,1,0,32,test,1,0,z,Fri Mar 13 2026 09:56:59 GMT-0500 (Central Daylight Time),790632.8999999762,I,None,2016,53,2,51.bmp,-120,-120,52.bmp,120,-120,53.bmp,-120,120,54.bmp,120,120,10060.799999952316,780572.1000000238,8080,yes,SM,C,53.bmp,-120,120,258169,252141,260185,254153,782655.0,776626.0,784671.0,778640.0,53
1,1,0,0,0,32,test,1,0,m,Fri Mar 13 2026 09:56:59 GMT-0500 (Central Daylight Time),800696.3000000119,I,None,2015,54,2,55.bmp,-120,-120,56.bmp,120,-120,57.bmp,-120,120,58.bmp,120,120,10059.699999988079,790636.6000000238,8080,yes,SM,C,57.bmp,-120,-120,258169,252141,260185,254153,792718.0,786691.0,794735.0,788703.0,54
4,0,0,0,1,32,test,1,0,z,Fri Mar 13 2026 09:56:59 GMT-0500 (Central Daylight Time),810709.8000000119,I,m,1961,55,2,59.bmp,-120,-120,60.bmp,120,-120,61.bmp,-120,120,62.bmp,120,120,10010.0,800699.8000000119,8080,yes,SM,C,62.bmp,120,120,258169,252141,260185,254153,802782.0,796754.0,804798.0,798767.0,55
2,0,1,0,0,33,test,1,1,m,Fri Mar 13 2026 09:56:59 GMT-0500 (Central Daylight Time),820606.6999999881,I,m,1843,56,2,63.bmp,-120,-120,64.bmp,120,-120,65.bmp,-120,120,66.bmp,120,120,9893.599999964237,810713.1000000238,8080,yes,SM,C,63.bmp,120,-120,258169,252141,260185,254153,812796.0,806767.0,814812.0,808780.0,56
4,0,0,0,1,34,test,1,1,m,Fri Mar 13 2026 09:56:59 GMT-0500 (Central Daylight Time),829854.0,I,m,1186,57,2,67.bmp,-120,-120,68.bmp,120,-120,69.bmp,-120,120,70.bmp,120,120,9244.300000011921,820609.6999999881,8080,yes,SM,C,68.bmp,120,120,258169,252141,260185,254153,822692.0,816664.0,824709.0,818677.0,57
3,0,0,1,0,35,test,1,1,z,Fri Mar 13 2026 09:56:59 GMT-0500 (Central Daylight Time),839067.6000000238,I,z,1163,58,2,71.bmp,-120,-120,72.bmp,120,-120,73.bmp,-120,120,74.bmp,120,120,9210.400000035763,829857.1999999881,8080,yes,SM,C,73.bmp,-120,120,258169,252141,260185,254153,831940.0,825912.0,833956.0,827924.0,58
2,0,1,0,0,35,test,1,0,m,Fri Mar 13 2026 09:56:59 GMT-0500 (Central Daylight Time),848564.6000000238,I,z,1447,59,2,75.bmp,-120,-120,76.bmp,120,-120,77.bmp,-120,120,78.bmp,120,120,9494.5,839070.1000000238,8080,yes,SM,C,78.bmp,120,-120,258169,252141,260185,254153,841153.0,835124.0,843169.0,837138.0,59
1,1,0,0,0,35,test,1,0,z,Fri Mar 13 2026 09:56:59 GMT-0500 (Central Daylight Time),858278.3999999762,I,m,1660,60,2,79.bmp,-120,-120,80.bmp,120,-120,81.bmp,-120,120,82.bmp,120,120,9711.0,848567.3999999762,8080,yes,SM,C,79.bmp,-120,-120,258169,252141,260185,254153,850650.0,844622.0,852667.0,846636.0,60
2,0,1,0,0,36,test,1,1,z,Fri Mar 13 2026 09:56:59 GMT-0500 (Central Daylight Time),867775.3999999762,I,z,1443,61,2,83.bmp,-120,-120,84.bmp,120,-120,85.bmp,-120,120,86.bmp,120,120,9493.599999964237,858281.8000000119,8080,yes,SM,C,84.bmp,120,-120,258169,252141,260185,254153,860364.0,854336.0,862380.0,856349.0,61
4,0,0,0,1,37,test,1,1,z,Fri Mar 13 2026 09:56:59 GMT-0500 (Central Daylight Time),877655.5,I,z,1826,62,2,91.bmp,-120,-120,92.bmp,120,-120,93.bmp,-120,120,94.bmp,120,120,9877.300000011921,867778.1999999881,8080,yes,SM,C,94.bmp,120,120,258169,252141,260185,254153,869861.0,863832.0,871877.0,865846.0,62
1,1,0,0,0,38,test,1,1,m,Fri Mar 13 2026 09:56:59 GMT-0500 (Central Daylight Time),886952.6999999881,I,m,1242,63,2,95.bmp,-120,-120,96.bmp,120,-120,97.bmp,-120,120,98.bmp,120,120,9293.599999964237,877659.1000000238,8080,yes,SM,C,95.bmp,-120,120,258169,252141,260185,254153,879741.0,873713.0,881757.0,875726.0,63
2,0,1,0,0,39,test,1,1,z,Fri Mar 13 2026 09:56:59 GMT-0500 (Central Daylight Time),896116.5,I,z,1105,64,2,99.bmp,-120,-120,100.bmp,120,-120,62.bmp,-120,120,51.bmp,120,120,9160.0,886956.5,8080,yes,SM,C,100.bmp,120,-120,258169,252141,260185,254153,889038.0,883011.0,891054.0,885023.0,64
4,0,0,0,1,40,test,1,1,m,Fri Mar 13 2026 09:56:59 GMT-0500 (Central Daylight Time),905130.3000000119,I,m,965,65,2,52.bmp,-120,-120,53.bmp,120,-120,54.bmp,-120,120,55.bmp,120,120,9010.600000023842,896119.6999999881,8080,yes,SM,C,54.bmp,120,120,258169,252141,260185,254153,898202.0,892174.0,900218.0,894187.0,65
3,0,0,1,0,41,test,1,1,m,Fri Mar 13 2026 09:56:59 GMT-0500 (Central Daylight Time),914344.1000000238,I,m,1159,66,2,56.bmp,-120,-120,57.bmp,120,-120,58.bmp,-120,120,59.bmp,120,120,9211.100000023842,905133.0,8080,yes,SM,C,59.bmp,-120,120,258169,252141,260185,254153,907216.0,901187.0,909232.0,903201.0,66
2,0,1,0,0,42,test,1,1,m,Fri Mar 13 2026 09:56:59 GMT-0500 (Central Daylight Time),923858.0,I,m,1458,67,2,87.bmp,-120,-120,88.bmp,120,-120,89.bmp,-120,120,90.bmp,120,120,9510.100000023842,914347.8999999762,8080,yes,SM,C,89.bmp,120,-120,258169,252141,260185,254153,916430.0,910402.0,918446.0,912415.0,67
3,0,0,1,0,43,test,1,1,z,Fri Mar 13 2026 09:56:59 GMT-0500 (Central Daylight Time),933204.8000000119,I,z,1287,68,2,60.bmp,-120,-120,61.bmp,120,-120,62.bmp,-120,120,63.bmp,120,120,9343.400000035763,923861.3999999762,8080,yes,SM,C,62.bmp,-120,120,258169,252141,260185,254153,925943.0,919916.0,927960.0,921928.0,68
1,1,0,0,0,43,test,1,0,m,Fri Mar 13 2026 09:56:59 GMT-0500 (Central Daylight Time),943268.5,I,None,2015,69,2,64.bmp,-120,-120,65.bmp,120,-120,66.bmp,-120,120,67.bmp,120,120,10059.600000023842,933208.8999999762,8080,yes,SM,C,65.bmp,-120,-120,258169,252141,260185,254153,935290.0,929263.0,937307.0,931275.0,69
2,0,1,0,0,44,test,1,1,m,Fri Mar 13 2026 09:56:59 GMT-0500 (Central Daylight Time),952332.3999999762,I,m,1004,70,2,68.bmp,-120,-120,69.bmp,120,-120,70.bmp,-120,120,71.bmp,120,120,9061.0,943271.3999999762,8080,yes,SM,C,70.bmp,120,-120,258169,252141,260185,254153,945354.0,939326.0,947371.0,941339.0,70
4,0,0,0,1,44,test,1,0,z,Fri Mar 13 2026 09:56:59 GMT-0500 (Central Daylight Time),961629.3000000119,I,m,1237,71,2,72.bmp,-120,-120,73.bmp,120,-120,74.bmp,-120,120,75.bmp,120,120,9294.199999988079,952335.1000000238,8080,yes,SM,C,75.bmp,120,120,258169,252141,260185,254153,954418.0,948389.0,956435.0,950403.0,71
1,1,0,0,0,45,test,1,1,z,Fri Mar 13 2026 09:56:59 GMT-0500 (Central Daylight Time),970943.0,I,z,1252,72,2,76.bmp,-120,-120,77.bmp,120,-120,78.bmp,-120,120,79.bmp,120,120,9311.100000023842,961631.8999999762,8080,yes,SM,C,76.bmp,-120,-120,258169,252141,260185,254153,963715.0,957686.0,965731.0,959700.0,72
2,0,1,0,0,46,test,1,1,z,Fri Mar 13 2026 09:56:59 GMT-0500 (Central Daylight Time),980590.1999999881,I,z,1587,73,2,80.bmp,-120,-120,81.bmp,120,-120,82.bmp,-120,120,83.bmp,120,120,9643.899999976158,970946.3000000119,8080,yes,SM,C,81.bmp,120,-120,258169,252141,260185,254153,973029.0,967000.0,975045.0,969013.0,73
4,0,0,0,1,47,test,1,1,m,Fri Mar 13 2026 09:56:59 GMT-0500 (Central Daylight Time),990153.8000000119,I,m,1507,74,2,84.bmp,-120,-120,85.bmp,120,-120,86.bmp,-120,120,87.bmp,120,120,9560.400000035763,980593.3999999762,8080,yes,SM,C,86.bmp,120,120,258169,252141,260185,254153,982676.0,976648.0,984692.0,978660.0,74
2,0,1,0,0,48,test,1,1,m,Fri Mar 13 2026 09:56:59 GMT-0500 (Central Daylight Time),1000084.1999999881,I,m,1872,75,2,88.bmp,-120,-120,89.bmp,120,-120,90.bmp,-120,120,91.bmp,120,120,9927.5,990156.6999999881,8080,yes,SM,C,91.bmp,120,-120,258169,252141,260185,254153,992240.0,986211.0,994256.0,988224.0,75
1,1,0,0,0,49,test,1,1,z,Fri Mar 13 2026 09:56:59 GMT-0500 (Central Daylight Time),1009731.1999999881,I,z,1473,76,2,92.bmp,-120,-120,93.bmp,120,-120,94.bmp,-120,120,95.bmp,120,120,9643.899999976158,1000087.3000000119,8080,yes,SM,C,92.bmp,-120,-120,258169,252141,260185,254153,1002286.0,996142.0,1004303.0,998284.0,76
3,0,0,1,0,50,test,1,1,z,Fri Mar 13 2026 09:56:59 GMT-0500 (Central Daylight Time),1018728.1999999881,I,z,935,77,2,100.bmp,-120,-120,61.bmp,120,-120,51.bmp,-120,120,52.bmp,120,120,8993.599999964237,1009734.6000000238,8080,yes,SM,C,51.bmp,-120,120,258169,252141,260185,254153,1011817.0,1005789.0,1013833.0,1007802.0,77
1,1,0,0,0,51,test,1,1,m,Fri Mar 13 2026 09:56:59 GMT-0500 (Central Daylight Time),1028325.6000000238,I,m,1538,78,2,96.bmp,-120,-120,97.bmp,120,-120,98.bmp,-120,120,99.bmp,120,120,9593.5,1018732.1000000238,8080,yes,SM,C,97.bmp,-120,-120,258169,252141,260185,254153,1020814.0,1014786.0,1022830.0,1016799.0,78
4,0,0,0,1,52,test,1,1,m,Fri Mar 13 2026 09:56:59 GMT-0500 (Central Daylight Time),1037740.3999999762,I,m,1365,79,2,57.bmp,-120,-120,58.bmp,120,-120,59.bmp,-120,120,60.bmp,120,120,9409.599999964237,1028330.8000000119,8080,yes,SM,C,57.bmp,120,120,258169,252141,260185,254153,1030411.0,1024385.0,1032427.0,1026396.0,79
3,0,0,1,0,53,test,1,1,m,Fri Mar 13 2026 09:56:59 GMT-0500 (Central Daylight Time),1046836.3000000119,I,m,1047,80,2,53.bmp,-120,-120,54.bmp,120,-120,55.bmp,-120,120,56.bmp,120,120,9092.100000023842,1037744.1999999881,8080,yes,SM,C,56.bmp,-120,120,258169,252141,260185,254153,1039825.0,1033798.0,1041841.0,1035810.0,80
