acc_sum,block,block_c,condition,correct,correct_response,datetime,endtime,flanker,jitter,project,response,response_test_buffer_response,response_test_target_response,response_time,response_time_test_buffer_response,response_time_test_target_response,row_sel,session_number,start_end,starttime,subject_id,target,task,task_vers,time_test_buffer,time_test_buffer_response,time_test_constants,time_test_flanker,time_test_jitter,time_test_logger,time_test_target,time_test_target_response,time_test_variables,trial
1,prac,1,con,1,z,Fri May 09 2025 13:56:06 GMT-0400 (Eastern Daylight Time),145200.19999980927,brutal,800,I,z,,,495,,,13,3,2590.9000005722046,142609.29999923706,9003,brutal,AF,B,,,,,,,,,,1
1,prac,1,con,0,m,Fri May 09 2025 13:56:06 GMT-0400 (Eastern Daylight Time),147883.19999980927,jacket,800,I,z,,,566,,,5,3,2672.9000005722046,145210.29999923706,9003,jacket,AF,B,,,,,,,,,,2
2,prac,1,con,1,z,Fri May 09 2025 13:56:06 GMT-0400 (Eastern Daylight Time),150456.5999994278,elated,800,I,z,,,459,,,9,3,2560.800000190735,147895.79999923706,9003,elated,AF,B,,,,,,,,,,3
3,prac,1,inc,1,z,Fri May 09 2025 13:56:06 GMT-0400 (Eastern Daylight Time),153433.0,napkin,1100,I,z,,,577,,,12,3,2969.7000007629395,150463.29999923706,9003,friend,AF,B,,,,,,,,,,4
4,prac,1,inc,1,m,Fri May 09 2025 13:56:06 GMT-0400 (Eastern Daylight Time),156116.5999994278,kind,900,I,m,,,466,,,2,3,2673.8999996185303,153442.69999980927,9003,rock,AF,B,,,,,,,,,,5
5,prac,1,inc,1,z,Fri May 09 2025 13:56:06 GMT-0400 (Eastern Daylight Time),158916.39999961853,film,900,I,z,,,589,,,14,3,2787.3999996185303,156129.0,9003,hate,AF,B,,,,,,,,,,6
6,prac,1,inc,1,m,Fri May 09 2025 13:56:06 GMT-0400 (Eastern Daylight Time),161749.69999980927,hate,1100,I,m,,,421,,,4,3,2823.1000003814697,158926.5999994278,9003,film,AF,B,,,,,,,,,,7
7,prac,1,inc,1,z,Fri May 09 2025 13:56:06 GMT-0400 (Eastern Daylight Time),164866.5,window,1100,I,z,,,701,,,16,3,3106.2000007629395,161760.29999923706,9003,temper,AF,B,,,,,,,,,,8
8,prac,1,con,1,m,Fri May 09 2025 13:56:06 GMT-0400 (Eastern Daylight Time),167499.69999980927,step,800,I,m,,,515,,,1,3,2622.9000005722046,164876.79999923706,9003,step,AF,B,,,,,,,,,,9
9,prac,1,inc,1,m,Fri May 09 2025 13:56:06 GMT-0400 (Eastern Daylight Time),170349.69999980927,brutal,1100,I,m,,,446,,,8,3,2839.800000190735,167509.89999961853,9003,window,AF,B,,,,,,,,,,10
10,prac,1,con,1,m,Fri May 09 2025 13:56:06 GMT-0400 (Eastern Daylight Time),173116.5,bell,1000,I,m,,,440,,,3,3,2747.800000190735,170368.69999980927,9003,bell,AF,B,,,,,,,,,,11
11,prac,1,con,1,m,Fri May 09 2025 13:56:06 GMT-0400 (Eastern Daylight Time),176116.39999961853,remote,1000,I,m,,,692,,,7,3,2990.8999996185303,173125.5,9003,remote,AF,B,,,,,,,,,,12
12,prac,1,con,1,z,Fri May 09 2025 13:56:06 GMT-0400 (Eastern Daylight Time),178966.39999961853,love,1000,I,z,,,537,,,11,3,2840.5,176125.89999961853,9003,love,AF,B,,,,,,,,,,13
13,prac,1,inc,1,m,Fri May 09 2025 13:56:06 GMT-0400 (Eastern Daylight Time),181716.29999923706,elated,900,I,m,,,540,,,6,3,2738.5,178977.79999923706,9003,napkin,AF,B,,,,,,,,,,14
14,prac,1,inc,1,z,Fri May 09 2025 13:56:06 GMT-0400 (Eastern Daylight Time),184482.39999961853,rock,900,I,z,,,557,,,10,3,2753.8999996185303,181728.5,9003,kind,AF,B,,,,,,,,,,15
14,prac,1,con,0,z,Fri May 09 2025 13:56:06 GMT-0400 (Eastern Daylight Time),187283.0999994278,rage,1000,I,m,,,492,,,15,3,2794.300000190735,184488.79999923706,9003,rage,AF,B,,,,,,,,,,16
1,test,1,con,1,m,Fri May 09 2025 13:56:06 GMT-0400 (Eastern Daylight Time),204699.89999961853,remote,800,I,m,m,None,617,418.0,199.0,113,3,1958.6000003814697,202741.29999923706,9003,remote,AF,B,193674,193674,192148,192957,192149,194107,193474,193474,194107,1
2,test,1,con,1,m,Fri May 09 2025 13:56:06 GMT-0400 (Eastern Daylight Time),206866.29999923706,window,1100,I,m,m,None,526,327.0,199.0,124,3,2156.5999994277954,204709.69999980927,9003,window,AF,B,195940,195941,194117,195224,194117,196274,195741,195741,196273,2
3,test,1,con,1,m,Fri May 09 2025 13:56:06 GMT-0400 (Eastern Daylight Time),208766.19999980927,jacket,800,I,m,m,None,556,357.0,199.0,97,3,1889.0,206877.19999980927,9003,jacket,AF,B,197807,197807,196284,197091,196285,198173,197608,197608,198173,3
4,test,1,con,1,z,Fri May 09 2025 13:56:06 GMT-0400 (Eastern Daylight Time),210532.89999961853,hate,800,I,z,z,None,424,225.0,199.0,41,3,1757.5,208775.39999961853,9003,hate,AF,B,199707,199707,198182,198991,198183,199940,199508,199508,199940,4
5,test,1,inc,1,z,Fri May 09 2025 13:56:06 GMT-0400 (Eastern Daylight Time),212466.19999980927,rock,900,I,z,z,None,485,286.0,199.0,54,3,1923.5,210542.69999980927,9003,rage,AF,B,201574,201574,199950,200857,199950,201873,201374,201374,201873,5
6,test,1,con,1,z,Fri May 09 2025 13:56:06 GMT-0400 (Eastern Daylight Time),214499.5999994278,elated,1000,I,z,z,None,493,294.0,199.0,3,3,2023.1999998092651,212476.39999961853,9003,elated,AF,B,203607,203607,201883,202891,201884,203907,203408,203408,203907,6
7,test,1,con,1,m,Fri May 09 2025 13:56:06 GMT-0400 (Eastern Daylight Time),216616.0,remote,1000,I,m,m,None,570,371.0,199.0,115,3,2106.7000007629395,214509.29999923706,9003,remote,AF,B,205641,205641,203916,204924,203917,206023,205441,205441,206023,7
7,test,1,con,0,z,Fri May 09 2025 13:56:06 GMT-0400 (Eastern Daylight Time),218566.29999923706,friend,900,I,m,m,None,507,308.0,199.0,26,3,1944.5999994277954,216621.69999980927,9003,friend,AF,B,207657,207657,206029,206941,206029,207973,207458,207458,207973,8
8,test,1,inc,1,m,Fri May 09 2025 13:56:06 GMT-0400 (Eastern Daylight Time),220732.5999994278,hate,1100,I,m,m,None,515,316.0,199.0,96,3,2157.0999994277954,218575.5,9003,film,AF,B,209807,209807,207983,209091,207983,210140,209608,209608,210140,9
9,test,1,con,1,m,Fri May 09 2025 13:56:06 GMT-0400 (Eastern Daylight Time),222566.19999980927,napkin,800,I,m,m,None,498,299.0,199.0,105,3,1827.3000001907349,220738.89999961853,9003,napkin,AF,B,211674,211674,210146,210957,210146,211973,211474,211474,211973,10
10,test,1,con,1,m,Fri May 09 2025 13:56:06 GMT-0400 (Eastern Daylight Time),224533.0,napkin,900,I,m,m,None,525,326.0,199.0,106,3,1958.3000001907349,222574.69999980927,9003,napkin,AF,B,213607,213607,211982,212891,211982,213940,213408,213408,213940,11
11,test,1,inc,1,m,Fri May 09 2025 13:56:06 GMT-0400 (Eastern Daylight Time),226616.0999994278,temper,1000,I,m,m,None,545,346.0,199.0,111,3,2073.5,224542.5999994278,9003,napkin,AF,B,215674,215674,213950,214957,213950,216023,215474,215474,216023,12
12,test,1,inc,1,z,Fri May 09 2025 13:56:06 GMT-0400 (Eastern Daylight Time),228533.0,napkin,900,I,z,z,None,474,275.0,199.0,62,3,1905.3000001907349,226627.69999980927,9003,temper,AF,B,217657,217657,216035,216941,216035,217940,217458,217458,217940,13
13,test,1,con,1,m,Fri May 09 2025 13:56:06 GMT-0400 (Eastern Daylight Time),230566.19999980927,remote,900,I,m,m,None,598,399.0,199.0,114,3,2025.0,228541.19999980927,9003,remote,AF,B,219574,219574,217948,218857,217949,219973,219374,219374,219973,14
14,test,1,inc,1,z,Fri May 09 2025 13:56:06 GMT-0400 (Eastern Daylight Time),232499.5999994278,jacket,800,I,z,z,None,575,376.0,199.0,29,3,1917.0,230582.5999994278,9003,friend,AF,B,221524,221524,219990,220807,219991,221907,221324,221324,221907,15
15,test,1,con,1,z,Fri May 09 2025 13:56:06 GMT-0400 (Eastern Daylight Time),234632.89999961853,temper,1000,I,z,z,None,595,396.0,199.0,59,3,2123.5,232509.39999961853,9003,temper,AF,B,223640,223641,221916,222924,221917,224040,223441,223441,224040,16
16,test,1,con,1,z,Fri May 09 2025 13:56:06 GMT-0400 (Eastern Daylight Time),236549.69999980927,elated,900,I,z,z,None,466,267.0,199.0,2,3,1904.9000005722046,234644.79999923706,9003,elated,AF,B,225674,225674,224052,224957,224052,225957,225474,225474,225957,17
17,test,1,inc,1,m,Fri May 09 2025 13:56:06 GMT-0400 (Eastern Daylight Time),238399.5999994278,elated,800,I,m,m,None,504,305.0,199.0,101,3,1840.3000001907349,236559.29999923706,9003,jacket,AF,B,227490,227491,225966,226774,225967,227807,227291,227291,227807,18
17,test,1,inc,0,m,Fri May 09 2025 13:56:06 GMT-0400 (Eastern Daylight Time),240249.5999994278,elated,800,I,z,z,None,503,304.0,199.0,117,3,1839.0,238410.5999994278,9003,remote,AF,B,229340,229340,227818,228624,227818,229657,229141,229141,229657,19
18,test,1,inc,1,z,Fri May 09 2025 13:56:06 GMT-0400 (Eastern Daylight Time),242499.5,window,1100,I,z,z,None,600,401.0,199.0,40,3,2240.800000190735,240258.69999980927,9003,brutal,AF,B,231490,231491,229666,230774,229666,231907,231291,231291,231907,20
19,test,1,con,1,m,Fri May 09 2025 13:56:06 GMT-0400 (Eastern Daylight Time),244549.0999994278,napkin,1100,I,m,m,None,407,192.0,215.0,108,3,2039.8000001907349,242509.29999923706,9003,napkin,AF,B,233756,233756,231916,233024,231917,233956,233541,233541,233956,21
20,test,1,inc,1,m,Fri May 09 2025 13:56:06 GMT-0400 (Eastern Daylight Time),246666.19999980927,hate,1100,I,m,m,None,478,278.0,200.0,80,3,2109.1000003814697,244557.0999994278,9003,rock,AF,B,235790,235791,233964,235074,233965,236073,235590,235590,236073,22
21,test,1,inc,1,z,Fri May 09 2025 13:56:06 GMT-0400 (Eastern Daylight Time),248632.79999923706,napkin,900,I,z,z,None,529,329.0,200.0,6,3,1957.8999996185303,246674.89999961853,9003,elated,AF,B,237707,237707,236082,236991,236082,238040,237507,237507,238040,23
22,test,1,con,1,m,Fri May 09 2025 13:56:06 GMT-0400 (Eastern Daylight Time),250866.29999923706,rock,1100,I,m,m,None,586,387.0,199.0,76,3,2223.5,248642.79999923706,9003,rock,AF,B,239874,239874,238050,239157,238050,240273,239674,239674,240273,24
23,test,1,con,1,m,Fri May 09 2025 13:56:06 GMT-0400 (Eastern Daylight Time),252666.29999923706,film,800,I,m,m,None,460,261.0,199.0,89,3,1791.5999994277954,250874.69999980927,9003,film,AF,B,241807,241807,240282,241091,240282,242073,241608,241608,242073,25
24,test,1,con,1,z,Fri May 09 2025 13:56:06 GMT-0400 (Eastern Daylight Time),254782.79999923706,love,1000,I,z,z,None,580,381.0,199.0,19,3,2107.3999996185303,252675.39999961853,9003,love,AF,B,243807,243807,242082,243091,242083,244190,243608,243608,244190,26
25,test,1,inc,1,m,Fri May 09 2025 13:56:06 GMT-0400 (Eastern Daylight Time),256982.5999994278,friend,1100,I,m,m,None,555,356.0,199.0,120,3,2191.5,254791.0999994278,9003,remote,AF,B,246024,246024,244198,245307,244199,246390,245824,245824,246390,27
26,test,1,con,1,z,Fri May 09 2025 13:56:06 GMT-0400 (Eastern Daylight Time),259032.79999923706,temper,900,I,z,z,None,611,412.0,199.0,58,3,2044.5,256988.29999923706,9003,temper,AF,B,248024,248024,246395,247307,246396,248440,247824,247824,248440,28
26,test,1,inc,0,z,Fri May 09 2025 13:56:06 GMT-0400 (Eastern Daylight Time),260916.19999980927,jacket,800,I,m,m,None,533,334.0,199.0,37,3,1874.5,259041.69999980927,9003,brutal,AF,B,249974,249974,248449,249257,248449,250323,249774,249774,250323,29
27,test,1,inc,1,m,Fri May 09 2025 13:56:06 GMT-0400 (Eastern Daylight Time),262949.5999994278,kind,900,I,m,m,None,584,384.0,200.0,86,3,2020.8000001907349,260928.79999923706,9003,bell,AF,B,251957,251957,250336,251241,250336,252357,251757,251757,252357,30
28,test,1,con,1,z,Fri May 09 2025 13:56:06 GMT-0400 (Eastern Daylight Time),265166.19999980927,rage,1100,I,z,z,None,572,373.0,199.0,52,3,2207.4000005722046,262958.79999923706,9003,rage,AF,B,254190,254191,252366,253474,252366,254574,253991,253991,254573,31
29,test,1,inc,1,m,Fri May 09 2025 13:56:06 GMT-0400 (Eastern Daylight Time),267366.79999923706,hate,1100,I,m,m,None,566,366.0,200.0,88,3,2192.3999996185303,265174.39999961853,9003,bell,AF,B,256407,256407,254581,255691,254582,256774,256207,256207,256774,32
30,test,1,con,1,m,Fri May 09 2025 13:56:06 GMT-0400 (Eastern Daylight Time),269599.29999923706,film,1100,I,m,m,None,596,397.0,199.0,92,3,2224.699999809265,267374.5999994278,9003,film,AF,B,258607,258607,256782,257891,256782,259006,258408,258408,259006,33
31,test,1,con,1,m,Fri May 09 2025 13:56:06 GMT-0400 (Eastern Daylight Time),271583.0,rock,900,I,m,m,None,538,339.0,199.0,74,3,1973.4000005722046,269609.5999994278,9003,rock,AF,B,260641,260641,259017,259923,259017,260990,260441,260441,260990,34
32,test,1,con,1,z,Fri May 09 2025 13:56:06 GMT-0400 (Eastern Daylight Time),273766.29999923706,hate,1000,I,z,z,None,646,431.0,215.0,43,3,2174.199999809265,271592.0999994278,9003,hate,AF,B,262741,262741,260999,262007,261000,263173,262525,262525,263173,35
33,test,1,con,1,z,Fri May 09 2025 13:56:06 GMT-0400 (Eastern Daylight Time),275799.39999961853,kind,900,I,z,z,None,596,397.0,199.0,10,3,2025.1000003814697,273774.29999923706,9003,kind,AF,B,264807,264807,263181,264090,263182,265206,264608,264608,265206,36
34,test,1,con,1,z,Fri May 09 2025 13:56:06 GMT-0400 (Eastern Daylight Time),278083.0,friend,1100,I,z,z,None,635,436.0,199.0,28,3,2276.7000007629395,275806.29999923706,9003,friend,AF,B,267041,267041,265213,266324,265214,267490,266841,266841,267490,37
35,test,1,inc,1,m,Fri May 09 2025 13:56:06 GMT-0400 (Eastern Daylight Time),280016.19999980927,rage,800,I,m,m,None,595,396.0,199.0,85,3,1923.9000005722046,278092.29999923706,9003,bell,AF,B,269024,269024,267499,268307,267500,269423,268824,268824,269423,38
36,test,1,con,1,z,Fri May 09 2025 13:56:06 GMT-0400 (Eastern Daylight Time),282032.89999961853,hate,900,I,z,z,None,577,362.0,215.0,42,3,2008.1999998092651,280024.69999980927,9003,hate,AF,B,271074,271074,269432,270341,269432,271440,270858,270858,271440,39
37,test,1,con,1,m,Fri May 09 2025 13:56:06 GMT-0400 (Eastern Daylight Time),284083.0,window,1000,I,m,m,None,510,311.0,199.0,123,3,2041.3000001907349,282041.69999980927,9003,window,AF,B,273174,273174,271449,272457,271449,273490,272974,272974,273490,40
37,test,1,con,0,m,Fri May 09 2025 13:56:06 GMT-0400 (Eastern Daylight Time),286149.69999980927,window,900,I,z,z,None,616,417.0,199.0,122,3,2058.1000003814697,284091.5999994278,9003,window,AF,B,275124,275124,273499,274407,273499,275557,274924,274924,275557,41
38,test,1,inc,1,m,Fri May 09 2025 13:56:06 GMT-0400 (Eastern Daylight Time),288032.89999961853,rage,800,I,m,m,None,538,338.0,200.0,77,3,1874.1999998092651,286158.69999980927,9003,rock,AF,B,277090,277090,275566,276374,275566,277440,276890,276890,277440,42
39,test,1,inc,1,m,Fri May 09 2025 13:56:06 GMT-0400 (Eastern Daylight Time),289999.39999961853,brutal,900,I,m,m,None,530,331.0,199.0,126,3,1957.5,288041.89999961853,9003,window,AF,B,279074,279074,277449,278357,277449,279406,278874,278874,279406,43
40,test,1,inc,1,z,Fri May 09 2025 13:56:06 GMT-0400 (Eastern Daylight Time),292183.0,remote,1000,I,z,z,None,638,439.0,199.0,7,3,2175.6000003814697,290007.39999961853,9003,elated,AF,B,281140,281141,279414,280424,279415,281590,280941,280941,281590,44
41,test,1,inc,1,z,Fri May 09 2025 13:56:06 GMT-0400 (Eastern Daylight Time),294166.29999923706,rock,900,I,z,z,None,548,349.0,199.0,14,3,1971.7999992370605,292194.5,9003,kind,AF,B,283224,283224,281602,282507,281602,283573,283024,283024,283573,45
42,test,1,con,1,m,Fri May 09 2025 13:56:06 GMT-0400 (Eastern Daylight Time),296016.19999980927,bell,800,I,m,m,None,505,305.0,200.0,81,3,1841.8000001907349,294174.39999961853,9003,bell,AF,B,285107,285107,283581,284391,283582,285423,284907,284907,285423,46
43,test,1,inc,1,z,Fri May 09 2025 13:56:06 GMT-0400 (Eastern Daylight Time),297899.19999980927,step,800,I,z,z,None,542,342.0,200.0,53,3,1873.8000001907349,296025.39999961853,9003,rage,AF,B,286958,286958,285432,286241,285433,287306,286757,286757,287306,47
44,test,1,con,1,m,Fri May 09 2025 13:56:06 GMT-0400 (Eastern Daylight Time),300016.0999994278,jacket,1100,I,m,m,None,479,280.0,199.0,100,3,2111.5999994277954,297904.5,9003,jacket,AF,B,289141,289141,287312,288424,287312,289423,288941,288941,289423,48
45,test,1,con,1,z,Fri May 09 2025 13:56:06 GMT-0400 (Eastern Daylight Time),302299.5999994278,brutal,1100,I,z,z,None,643,443.0,200.0,36,3,2274.199999809265,300025.39999961853,9003,brutal,AF,B,291257,291257,289432,290541,289433,291707,291057,291057,291707,49
46,test,1,con,1,z,Fri May 09 2025 13:56:06 GMT-0400 (Eastern Daylight Time),304432.39999961853,brutal,1000,I,z,z,None,594,395.0,199.0,35,3,2123.6000003814697,302308.79999923706,9003,brutal,AF,B,293441,293441,291716,292724,291716,293840,293241,293241,293839,50
47,test,1,con,1,m,Fri May 09 2025 13:56:06 GMT-0400 (Eastern Daylight Time),306449.5,step,900,I,m,m,None,577,378.0,199.0,66,3,2011.6000003814697,304437.89999961853,9003,step,AF,B,295474,295474,293845,294757,293845,295857,295274,295274,295856,51
48,test,1,con,1,z,Fri May 09 2025 13:56:06 GMT-0400 (Eastern Daylight Time),308399.39999961853,friend,800,I,z,z,None,612,413.0,199.0,25,3,1940.3000001907349,306459.0999994278,9003,friend,AF,B,297390,297391,295866,296674,295867,297807,297191,297191,297806,52
49,test,1,con,1,z,Fri May 09 2025 13:56:06 GMT-0400 (Eastern Daylight Time),310449.5999994278,brutal,800,I,z,z,None,704,504.0,200.0,33,3,2042.5999994277954,308407.0,9003,brutal,AF,B,299341,299341,297814,298624,297814,299857,299140,299140,299857,53
50,test,1,inc,1,m,Fri May 09 2025 13:56:06 GMT-0400 (Eastern Daylight Time),312533.0,love,1000,I,m,m,None,533,334.0,199.0,79,3,2074.300000190735,310458.69999980927,9003,rock,AF,B,301590,301590,299866,300874,299866,301940,301391,301391,301940,54
51,test,1,con,1,m,Fri May 09 2025 13:56:06 GMT-0400 (Eastern Daylight Time),314799.5999994278,step,1000,I,m,m,None,729,530.0,199.0,67,3,2257.8999996185303,312541.69999980927,9003,step,AF,B,303674,303674,301949,302957,301949,304207,303474,303474,304207,55
52,test,1,inc,1,z,Fri May 09 2025 13:56:06 GMT-0400 (Eastern Daylight Time),316716.29999923706,step,800,I,z,z,None,567,368.0,199.0,13,3,1901.8999996185303,314814.39999961853,9003,kind,AF,B,305740,305740,304221,305024,304222,306123,305541,305541,306123,56
53,test,1,inc,1,m,Fri May 09 2025 13:56:06 GMT-0400 (Eastern Daylight Time),319032.79999923706,hate,1100,I,m,m,None,679,479.0,200.0,72,3,2307.699999809265,316725.0999994278,9003,step,AF,B,307957,307957,306132,307241,306133,308440,307757,307757,308440,57
54,test,1,inc,1,z,Fri May 09 2025 13:56:06 GMT-0400 (Eastern Daylight Time),321199.69999980927,remote,1000,I,z,z,None,622,423.0,199.0,63,3,2157.800000190735,319041.89999961853,9003,temper,AF,B,310174,310174,308449,309457,308449,310607,309974,309974,310607,58
55,test,1,inc,1,m,Fri May 09 2025 13:56:06 GMT-0400 (Eastern Daylight Time),323083.0,elated,800,I,m,m,None,535,336.0,199.0,125,3,1871.7000007629395,321211.29999923706,9003,window,AF,B,312141,312141,310618,311424,310619,312490,311941,311941,312490,59
56,test,1,inc,1,z,Fri May 09 2025 13:56:06 GMT-0400 (Eastern Daylight Time),324949.5,step,800,I,z,z,None,524,325.0,199.0,45,3,1856.2000007629395,323093.29999923706,9003,hate,AF,B,314024,314024,312500,313307,312501,314357,313824,313824,314356,60
57,test,1,inc,1,z,Fri May 09 2025 13:56:06 GMT-0400 (Eastern Daylight Time),326899.29999923706,rock,900,I,z,z,None,501,302.0,199.0,46,3,1940.5999994277954,324958.69999980927,9003,hate,AF,B,315990,315990,314366,315273,314366,316306,315791,315791,316306,61
58,test,1,con,1,m,Fri May 09 2025 13:56:06 GMT-0400 (Eastern Daylight Time),329232.89999961853,step,1100,I,m,m,None,695,496.0,199.0,68,3,2327.1000003814697,326905.79999923706,9003,step,AF,B,318141,318141,316313,317424,316313,318640,317941,317941,318640,62
59,test,1,inc,1,z,Fri May 09 2025 13:56:06 GMT-0400 (Eastern Daylight Time),331533.0,film,1100,I,z,z,None,650,451.0,199.0,16,3,2289.300000190735,329243.69999980927,9003,kind,AF,B,320474,320474,318651,319757,318651,320940,320274,320274,320940,63
60,test,1,con,1,m,Fri May 09 2025 13:56:06 GMT-0400 (Eastern Daylight Time),333466.29999923706,jacket,900,I,m,m,None,494,294.0,200.0,98,3,1923.0,331543.29999923706,9003,jacket,AF,B,322574,322574,320950,321857,320951,322873,322373,322373,322873,64
61,test,1,con,1,m,Fri May 09 2025 13:56:06 GMT-0400 (Eastern Daylight Time),335866.39999961853,bell,1100,I,m,m,None,754,554.0,200.0,84,3,2391.199999809265,333475.19999980927,9003,bell,AF,B,324707,324707,322882,323990,322883,325273,324507,324507,325273,65
62,test,1,con,1,z,Fri May 09 2025 13:56:06 GMT-0400 (Eastern Daylight Time),337949.5999994278,temper,1100,I,z,z,None,439,224.0,215.0,60,3,2073.8999996185303,335875.69999980927,9003,temper,AF,B,327124,327124,325283,326390,325283,327357,326907,326908,327357,66
62,test,1,con,0,z,Fri May 09 2025 13:56:06 GMT-0400 (Eastern Daylight Time),339932.89999961853,brutal,900,I,m,m,None,540,341.0,199.0,34,3,1973.5,337959.39999961853,9003,brutal,AF,B,328990,328991,327366,328274,327367,329340,328791,328791,329340,67
63,test,1,inc,1,m,Fri May 09 2025 13:56:06 GMT-0400 (Eastern Daylight Time),342082.89999961853,friend,1100,I,m,m,None,501,302.0,199.0,112,3,2141.0,339941.89999961853,9003,napkin,AF,B,331174,331174,329349,330457,329350,331490,330974,330974,331490,68
64,test,1,con,1,m,Fri May 09 2025 13:56:06 GMT-0400 (Eastern Daylight Time),343982.89999961853,window,800,I,m,m,None,555,356.0,199.0,121,3,1891.3999996185303,342091.5,9003,window,AF,B,333024,333024,331499,332307,331499,333390,332824,332824,333390,69
65,test,1,inc,1,z,Fri May 09 2025 13:56:06 GMT-0400 (Eastern Daylight Time),346249.5999994278,window,1100,I,z,z,None,620,421.0,199.0,32,3,2254.800000190735,343994.79999923706,9003,friend,AF,B,335224,335224,333402,334507,333402,335657,335024,335024,335657,70
66,test,1,inc,1,m,Fri May 09 2025 13:56:06 GMT-0400 (Eastern Daylight Time),348149.5999994278,elated,800,I,m,m,None,556,357.0,199.0,109,3,1890.6999998092651,346258.89999961853,9003,napkin,AF,B,337190,337191,335666,336474,335666,337557,336991,336991,337557,71
67,test,1,con,1,z,Fri May 09 2025 13:56:06 GMT-0400 (Eastern Daylight Time),350166.0999994278,kind,1000,I,z,z,None,481,282.0,199.0,11,3,2008.0999994277954,348158.0,9003,kind,AF,B,339290,339290,337565,338574,337565,339573,339091,339091,339573,72
68,test,1,con,1,z,Fri May 09 2025 13:56:06 GMT-0400 (Eastern Daylight Time),352216.29999923706,rage,1000,I,z,z,None,505,306.0,199.0,51,3,2041.1999998092651,350175.0999994278,9003,rage,AF,B,341307,341307,339582,340591,339583,341623,341107,341108,341623,73
69,test,1,inc,1,z,Fri May 09 2025 13:56:06 GMT-0400 (Eastern Daylight Time),354182.5,bell,1000,I,z,z,None,431,231.0,200.0,23,3,1951.4000005722046,352231.0999994278,9003,love,AF,B,343357,343357,341638,342641,341639,343590,343157,343157,343590,74
70,test,1,inc,1,z,Fri May 09 2025 13:56:06 GMT-0400 (Eastern Daylight Time),356216.0,bell,1000,I,z,z,None,495,296.0,199.0,47,3,2026.3000001907349,354189.69999980927,9003,hate,AF,B,345324,345324,343597,344607,343597,345623,345124,345124,345623,75
71,test,1,inc,1,m,Fri May 09 2025 13:56:06 GMT-0400 (Eastern Daylight Time),358333.0,love,1000,I,m,m,None,575,375.0,200.0,87,3,2109.4000005722046,356223.5999994278,9003,bell,AF,B,347357,347357,345631,346641,345631,347740,347157,347157,347740,76
72,test,1,con,1,m,Fri May 09 2025 13:56:06 GMT-0400 (Eastern Daylight Time),360332.89999961853,jacket,1000,I,m,m,None,449,250.0,199.0,99,3,1991.5,358341.39999961853,9003,jacket,AF,B,349474,349474,347748,348757,347749,349740,349274,349274,349740,77
73,test,1,inc,1,m,Fri May 09 2025 13:56:06 GMT-0400 (Eastern Daylight Time),362232.69999980927,brutal,900,I,m,m,None,445,246.0,199.0,110,3,1883.9000005722046,360348.79999923706,9003,napkin,AF,B,351390,351391,349756,350673,349757,351640,351191,351191,351640,78
74,test,1,con,1,m,Fri May 09 2025 13:56:06 GMT-0400 (Eastern Daylight Time),364199.5999994278,film,900,I,m,m,None,521,322.0,199.0,90,3,1958.0999994277954,362241.5,9003,film,AF,B,353274,353274,351649,352557,351649,353607,353074,353074,353607,79
75,test,1,inc,1,z,Fri May 09 2025 13:56:06 GMT-0400 (Eastern Daylight Time),366282.69999980927,window,1100,I,z,z,None,442,243.0,199.0,8,3,2073.199999809265,364209.5,9003,elated,AF,B,355440,355441,353617,354723,353617,355690,355241,355241,355690,80
76,test,1,inc,1,z,Fri May 09 2025 13:56:06 GMT-0400 (Eastern Daylight Time),368149.5999994278,step,800,I,z,z,None,516,317.0,199.0,21,3,1861.5,366288.0999994278,9003,love,AF,B,357224,357224,355695,356507,355695,357557,357024,357024,357557,81
77,test,1,con,1,m,Fri May 09 2025 13:56:06 GMT-0400 (Eastern Daylight Time),370033.0,step,800,I,m,m,None,536,337.0,199.0,65,3,1873.8000001907349,368159.19999980927,9003,step,AF,B,359090,359091,357566,358374,357567,359440,358891,358891,359440,82
77,test,1,inc,0,z,Fri May 09 2025 13:56:06 GMT-0400 (Eastern Daylight Time),372099.69999980927,film,1100,I,m,m,None,417,218.0,199.0,56,3,2058.300000190735,370041.39999961853,9003,rage,AF,B,361274,361274,359448,360557,359449,361507,361074,361074,361507,83
78,test,1,inc,1,z,Fri May 09 2025 13:56:06 GMT-0400 (Eastern Daylight Time),374416.0999994278,remote,1000,I,z,z,None,771,572.0,199.0,39,3,2307.699999809265,372108.39999961853,9003,brutal,AF,B,363240,363240,361515,362524,361516,363823,363041,363041,363823,84
79,test,1,inc,1,m,Fri May 09 2025 13:56:06 GMT-0400 (Eastern Daylight Time),376432.69999980927,temper,1000,I,m,m,None,479,279.0,200.0,103,3,2007.0,374425.69999980927,9003,jacket,AF,B,365557,365557,363833,364840,363833,365840,365357,365357,365840,85
80,test,1,inc,1,z,Fri May 09 2025 13:56:06 GMT-0400 (Eastern Daylight Time),378382.5999994278,napkin,900,I,z,z,None,514,315.0,199.0,30,3,1942.3999996185303,376440.19999980927,9003,friend,AF,B,367474,367474,365847,366757,365848,367790,367274,367274,367790,86
81,test,1,con,1,z,Fri May 09 2025 13:56:06 GMT-0400 (Eastern Daylight Time),380433.69999980927,friend,1000,I,z,z,None,503,304.0,199.0,27,3,2036.0,378397.69999980927,9003,friend,AF,B,369524,369524,367805,368807,367806,369841,369324,369324,369841,87
82,test,1,con,1,m,Fri May 09 2025 13:56:06 GMT-0400 (Eastern Daylight Time),382466.0,napkin,1000,I,m,m,None,485,286.0,199.0,107,3,2027.0,380439.0,9003,napkin,AF,B,371574,371574,369846,370857,369846,371873,371374,371374,371873,88
82,test,1,con,0,m,Fri May 09 2025 13:56:06 GMT-0400 (Eastern Daylight Time),384566.29999923706,bell,1000,I,z,z,None,557,358.0,199.0,83,3,2094.8999996185303,382471.39999961853,9003,bell,AF,B,373607,373607,371878,372890,371879,373973,373408,373408,373973,89
83,test,1,con,1,z,Fri May 09 2025 13:56:06 GMT-0400 (Eastern Daylight Time),386316.29999923706,rage,800,I,z,z,None,400,201.0,199.0,49,3,1739.2999992370605,384577.0,9003,rage,AF,B,375507,375507,373984,374791,373985,375723,375308,375308,375723,90
84,test,1,con,1,z,Fri May 09 2025 13:56:06 GMT-0400 (Eastern Daylight Time),388199.29999923706,rage,900,I,z,z,None,447,247.0,200.0,50,3,1874.2999992370605,386325.0,9003,rage,AF,B,377357,377357,375732,376640,375733,377606,377157,377157,377606,91
85,test,1,inc,1,m,Fri May 09 2025 13:56:06 GMT-0400 (Eastern Daylight Time),390133.0,kind,900,I,m,m,None,491,292.0,199.0,78,3,1923.1000003814697,388209.89999961853,9003,rock,AF,B,379240,379241,377617,378524,377617,379540,379041,379041,379540,92
86,test,1,inc,1,m,Fri May 09 2025 13:56:06 GMT-0400 (Eastern Daylight Time),392166.29999923706,temper,1000,I,m,m,None,490,291.0,199.0,127,3,2024.0999994277954,390142.19999980927,9003,window,AF,B,381274,381274,379549,380557,379550,381573,381074,381074,381573,93
87,test,1,inc,1,m,Fri May 09 2025 13:56:06 GMT-0400 (Eastern Daylight Time),394299.69999980927,friend,1100,I,m,m,None,484,285.0,199.0,104,3,2123.9000005722046,392175.79999923706,9003,jacket,AF,B,383407,383407,381583,382691,381583,383707,383207,383208,383707,94
88,test,1,con,1,z,Fri May 09 2025 13:56:06 GMT-0400 (Eastern Daylight Time),396249.69999980927,elated,800,I,z,z,None,605,405.0,200.0,1,3,1939.8000001907349,394309.89999961853,9003,elated,AF,B,385240,385240,383717,384524,383717,385657,385040,385040,385657,95
88,test,1,con,0,z,Fri May 09 2025 13:56:06 GMT-0400 (Eastern Daylight Time),398416.19999980927,elated,1100,I,m,m,None,521,322.0,199.0,4,3,2156.5,396259.69999980927,9003,elated,AF,B,387490,387491,385667,386774,385667,387823,387291,387291,387823,96
89,test,1,inc,1,m,Fri May 09 2025 13:56:06 GMT-0400 (Eastern Daylight Time),400433.0,brutal,900,I,m,m,None,570,371.0,199.0,118,3,2007.4000005722046,398425.5999994278,9003,remote,AF,B,389457,389457,387833,388740,387833,389840,389257,389257,389840,97
90,test,1,inc,1,m,Fri May 09 2025 13:56:06 GMT-0400 (Eastern Daylight Time),402382.89999961853,kind,900,I,m,m,None,505,306.0,199.0,94,3,1941.1000003814697,400441.79999923706,9003,film,AF,B,391474,391474,389849,390757,389849,391790,391274,391274,391790,98
91,test,1,inc,1,z,Fri May 09 2025 13:56:06 GMT-0400 (Eastern Daylight Time),404466.19999980927,window,1100,I,z,z,None,442,243.0,199.0,64,3,2074.300000190735,402391.89999961853,9003,temper,AF,B,393625,393625,391799,392908,391799,393873,393424,393424,393873,99
92,test,1,inc,1,z,Fri May 09 2025 13:56:06 GMT-0400 (Eastern Daylight Time),406666.29999923706,film,1100,I,z,z,None,554,354.0,200.0,48,3,2191.5,404474.79999923706,9003,hate,AF,B,395707,395707,393882,394991,393883,396073,395507,395507,396073,100
93,test,1,con,1,z,Fri May 09 2025 13:56:06 GMT-0400 (Eastern Daylight Time),408533.0,love,900,I,z,z,None,425,225.0,200.0,18,3,1857.3000001907349,406675.69999980927,9003,love,AF,B,397707,397707,396083,396991,396083,397940,397507,397507,397940,101
94,test,1,inc,1,z,Fri May 09 2025 13:56:06 GMT-0400 (Eastern Daylight Time),410332.89999961853,jacket,800,I,z,z,None,449,250.0,199.0,5,3,1791.0,408541.89999961853,9003,elated,AF,B,399474,399474,397949,398757,397949,399740,399274,399274,399740,102
95,test,1,con,1,m,Fri May 09 2025 13:56:06 GMT-0400 (Eastern Daylight Time),412516.0999994278,remote,1100,I,m,m,None,533,334.0,199.0,116,3,2173.800000190735,410342.29999923706,9003,remote,AF,B,401574,401574,399749,400857,399750,401923,401374,401374,401923,103
96,test,1,inc,1,z,Fri May 09 2025 13:56:06 GMT-0400 (Eastern Daylight Time),414599.29999923706,remote,1000,I,z,z,None,546,347.0,199.0,31,3,2073.2999992370605,412526.0,9003,friend,AF,B,403657,403657,401933,402941,401933,404006,403458,403458,404006,104
97,test,1,con,1,m,Fri May 09 2025 13:56:06 GMT-0400 (Eastern Daylight Time),416616.29999923706,bell,900,I,m,m,None,571,372.0,199.0,82,3,2006.8999996185303,414609.39999961853,9003,bell,AF,B,405640,405640,404016,404924,404017,406023,405441,405441,406023,105
98,test,1,con,1,z,Fri May 09 2025 13:56:06 GMT-0400 (Eastern Daylight Time),418716.5,kind,1100,I,z,z,None,451,252.0,199.0,12,3,2091.0,416625.5,9003,kind,AF,B,407857,407857,406033,407141,406033,408124,407657,407657,408123,106
99,test,1,con,1,z,Fri May 09 2025 13:56:06 GMT-0400 (Eastern Daylight Time),420499.5,love,800,I,z,z,None,444,244.0,200.0,17,3,1773.1000003814697,418726.39999961853,9003,love,AF,B,409657,409657,408133,408941,408134,409907,409457,409457,409907,107
100,test,1,con,1,m,Fri May 09 2025 13:56:06 GMT-0400 (Eastern Daylight Time),422516.19999980927,rock,1000,I,m,m,None,467,268.0,199.0,75,3,2008.3000001907349,420507.89999961853,9003,rock,AF,B,411640,411640,409915,410924,409915,411923,411441,411441,411923,108
100,test,1,inc,0,z,Fri May 09 2025 13:56:06 GMT-0400 (Eastern Daylight Time),424415.69999980927,napkin,900,I,m,m,None,462,262.0,200.0,38,3,1888.3000001907349,422527.39999961853,9003,brutal,AF,B,413557,413557,411934,412841,411935,413823,413357,413357,413823,109
101,test,1,inc,1,m,Fri May 09 2025 13:56:06 GMT-0400 (Eastern Daylight Time),426282.89999961853,rage,800,I,m,m,None,519,320.0,199.0,69,3,1862.0,424420.89999961853,9003,step,AF,B,415356,415356,413828,414641,413829,415690,415157,415157,415690,110
102,test,1,con,1,z,Fri May 09 2025 13:56:06 GMT-0400 (Eastern Daylight Time),428066.19999980927,temper,800,I,z,z,None,435,236.0,199.0,57,3,1774.1999998092651,426292.0,9003,temper,AF,B,417224,417224,415699,416507,415699,417473,417024,417024,417473,111
103,test,1,con,1,z,Fri May 09 2025 13:56:06 GMT-0400 (Eastern Daylight Time),429999.29999923706,kind,800,I,z,z,None,597,398.0,199.0,9,3,1924.2999992370605,428075.0,9003,kind,AF,B,419007,419007,417482,418291,417483,419406,418807,418807,419406,112
104,test,1,inc,1,m,Fri May 09 2025 13:56:06 GMT-0400 (Eastern Daylight Time),432199.29999923706,friend,1100,I,m,m,None,564,365.0,199.0,128,3,2187.0999994277954,430012.19999980927,9003,window,AF,B,421240,421240,419419,420524,419420,421606,421041,421041,421606,113
105,test,1,inc,1,z,Fri May 09 2025 13:56:06 GMT-0400 (Eastern Daylight Time),434333.0,bell,1000,I,z,z,None,576,376.0,200.0,55,3,2118.4000005722046,432214.5999994278,9003,rage,AF,B,423357,423357,421622,422641,421623,423740,423157,423157,423740,114
106,test,1,con,1,m,Fri May 09 2025 13:56:06 GMT-0400 (Eastern Daylight Time),436183.0,rock,800,I,m,m,None,505,306.0,199.0,73,3,1840.6000003814697,434342.39999961853,9003,rock,AF,B,425274,425274,423749,424557,423750,425590,425074,425074,425590,115
106,test,1,con,0,m,Fri May 09 2025 13:56:06 GMT-0400 (Eastern Daylight Time),438166.29999923706,film,1000,I,z,z,None,448,249.0,199.0,91,3,1974.1999998092651,436192.0999994278,9003,film,AF,B,427324,427324,425599,426607,425600,427573,427124,427124,427573,116
107,test,1,inc,1,m,Fri May 09 2025 13:56:06 GMT-0400 (Eastern Daylight Time),439983.0,rage,800,I,m,m,None,473,273.0,200.0,93,3,1807.7000007629395,438175.29999923706,9003,film,AF,B,429107,429107,427582,428390,427583,429390,428907,428907,429390,117
108,test,1,con,1,z,Fri May 09 2025 13:56:06 GMT-0400 (Eastern Daylight Time),442083.0,love,1100,I,z,z,None,452,253.0,199.0,20,3,2087.7000007629395,439995.29999923706,9003,love,AF,B,431224,431224,429402,430507,429403,431490,431024,431024,431490,118
108,test,1,inc,0,z,Fri May 09 2025 13:56:06 GMT-0400 (Eastern Daylight Time),444099.5999994278,bell,1000,I,m,m,None,476,277.0,199.0,15,3,2006.0,442093.5999994278,9003,kind,AF,B,433224,433224,431501,432507,431501,433507,433024,433024,433507,119
108,test,1,con,0,z,Fri May 09 2025 13:56:06 GMT-0400 (Eastern Daylight Time),446182.5,hate,1100,I,m,m,None,446,247.0,199.0,44,3,2074.7000007629395,444107.79999923706,9003,hate,AF,B,435340,435341,433515,434624,433515,435590,435141,435141,435590,120
109,test,1,inc,1,m,Fri May 09 2025 13:56:06 GMT-0400 (Eastern Daylight Time),448266.19999980927,love,1000,I,m,m,None,543,344.0,199.0,95,3,2078.5,446187.69999980927,9003,film,AF,B,437324,437324,435595,436607,435595,437673,437124,437124,437673,121
109,test,1,inc,0,m,Fri May 09 2025 13:56:06 GMT-0400 (Eastern Daylight Time),450266.0,temper,1000,I,z,z,None,453,253.0,200.0,119,3,1984.8000001907349,448281.19999980927,9003,remote,AF,B,439407,439407,437688,438691,437689,439673,439207,439207,439673,122
110,test,1,inc,1,m,Fri May 09 2025 13:56:06 GMT-0400 (Eastern Daylight Time),452382.79999923706,love,1000,I,m,m,None,582,382.0,200.0,71,3,2109.699999809265,450273.0999994278,9003,step,AF,B,441407,441407,439680,440690,439681,441790,441207,441207,441790,123
111,test,1,inc,1,z,Fri May 09 2025 13:56:06 GMT-0400 (Eastern Daylight Time),454249.5999994278,rock,900,I,z,z,None,427,228.0,199.0,22,3,1859.0,452390.5999994278,9003,love,AF,B,443424,443424,441798,442707,441798,443657,443224,443224,443657,124
112,test,1,inc,1,z,Fri May 09 2025 13:56:06 GMT-0400 (Eastern Daylight Time),456316.0,film,1100,I,z,z,None,417,218.0,199.0,24,3,2057.300000190735,454258.69999980927,9003,love,AF,B,445490,445490,443666,444774,443666,445723,445291,445291,445723,125
113,test,1,inc,1,m,Fri May 09 2025 13:56:06 GMT-0400 (Eastern Daylight Time),458283.0,brutal,900,I,m,m,None,527,327.0,200.0,102,3,1959.2000007629395,456323.79999923706,9003,jacket,AF,B,447357,447357,445731,446641,445731,447690,447157,447157,447690,126
113,test,1,inc,0,z,Fri May 09 2025 13:56:06 GMT-0400 (Eastern Daylight Time),460149.5999994278,jacket,800,I,m,m,None,524,325.0,199.0,61,3,1857.5,458292.0999994278,9003,temper,AF,B,449224,449224,447699,448507,447700,449557,449024,449024,449557,127
114,test,1,inc,1,m,Fri May 09 2025 13:56:06 GMT-0400 (Eastern Daylight Time),462149.5999994278,kind,900,I,m,m,None,550,351.0,199.0,70,3,1990.8000001907349,460158.79999923706,9003,step,AF,B,451190,451190,449566,450474,449566,451557,450991,450991,451557,128
