Q,Q1,Q2,Q3,Q4,acc_sum,block,block_c,correct,correct_response,datetime,endtime,project,response,response_time,row_sel,session_number,squiggle1,squiggle1x,squiggle1y,squiggle2,squiggle2x,squiggle2y,squiggle3,squiggle3x,squiggle3y,squiggle4,squiggle4x,squiggle4y,start_end,starttime,subject_id,target_congruent,task,task_vers,testsquiggle,testsquigglex,testsquiggley,time_practice_delay,time_practice_fixation,time_practice_stimuli,time_practice_study,time_test_delay,time_test_fixation,time_test_stimuli,time_test_study,trial
1,1,0,0,0,1,prac,1,1,z,Thu Jul 10 2025 13:57:41 GMT-0400 (Eastern Daylight Time),258113.20000001788,I,z,1595,1,1,66.bmp,-120,-120,67.bmp,120,-120,68.bmp,-120,120,69.bmp,120,120,10413.5,247699.70000001788,9024,yes,SM,C,66.bmp,-120,-120,245818,239788,247835,241801,,,,,1
3,0,0,1,0,1,prac,1,0,m,Thu Jul 10 2025 13:57:41 GMT-0400 (Eastern Daylight Time),268812.8000000119,I,z,1867,2,1,70.bmp,-120,-120,71.bmp,120,-120,72.bmp,-120,120,73.bmp,120,120,10688.90000000596,258123.90000000596,9024,no,SM,C,73.bmp,-120,120,256234,250212,258251,252218,,,,,2
4,0,0,0,1,2,prac,1,1,m,Thu Jul 10 2025 13:57:41 GMT-0400 (Eastern Daylight Time),278812.8000000119,I,m,1168,3,1,74.bmp,-120,-120,75.bmp,120,-120,76.bmp,-120,120,77.bmp,120,120,9992.0,268820.8000000119,9024,no,SM,C,74.bmp,120,120,266934,260909,268951,262918,,,,,3
2,0,1,0,0,2,prac,1,0,z,Thu Jul 10 2025 13:57:41 GMT-0400 (Eastern Daylight Time),289362.8000000119,I,m,1727,4,1,78.bmp,-120,-120,79.bmp,120,-120,80.bmp,-120,120,81.bmp,120,120,10542.59999999404,278820.2000000179,9024,yes,SM,C,79.bmp,120,-120,276934,270908,278951,272917,,,,,4
3,0,0,1,0,3,prac,1,1,z,Thu Jul 10 2025 13:57:41 GMT-0400 (Eastern Daylight Time),300112.8000000119,I,z,1929,5,1,82.bmp,-120,-120,83.bmp,120,-120,84.bmp,-120,120,85.bmp,120,120,10742.0,289370.8000000119,9024,yes,SM,C,84.bmp,-120,120,287484,281459,289502,283468,,,,,5
1,1,0,0,0,4,prac,1,1,m,Thu Jul 10 2025 13:57:41 GMT-0400 (Eastern Daylight Time),310346.2000000179,I,m,1387,6,1,86.bmp,-120,-120,87.bmp,120,-120,88.bmp,-120,120,89.bmp,120,120,10224.700000017881,300121.5,9024,no,SM,C,89.bmp,-120,-120,298251,292217,300268,294235,,,,,6
2,0,1,0,0,4,prac,1,0,m,Thu Jul 10 2025 13:57:41 GMT-0400 (Eastern Daylight Time),321179.5,I,None,2016,7,1,90.bmp,-120,-120,91.bmp,120,-120,92.bmp,-120,120,93.bmp,120,120,10827.699999988079,310351.8000000119,9024,no,SM,C,90.bmp,120,-120,308467,302440,310485,304451,,,,,7
4,0,0,0,1,4,prac,1,0,z,Thu Jul 10 2025 13:57:41 GMT-0400 (Eastern Daylight Time),330779.40000000596,I,m,768,8,1,94.bmp,-120,-120,95.bmp,120,-120,96.bmp,-120,120,97.bmp,120,120,9591.800000011921,321187.59999999404,9024,yes,SM,C,97.bmp,120,120,319301,313276,321318,315284,,,,,8
1,1,0,0,0,1,prac,2,1,z,Thu Jul 10 2025 13:57:41 GMT-0400 (Eastern Daylight Time),356713.0,I,z,1154,1,1,66.bmp,-120,-120,67.bmp,120,-120,68.bmp,-120,120,69.bmp,120,120,9977.59999999404,346735.40000000596,9024,yes,SM,C,66.bmp,-120,-120,344851,338824,346868,340835,,,,,1
3,0,0,1,0,1,prac,2,0,m,Thu Jul 10 2025 13:57:41 GMT-0400 (Eastern Daylight Time),366812.8000000119,I,z,1268,2,1,70.bmp,-120,-120,71.bmp,120,-120,72.bmp,-120,120,73.bmp,120,120,10090.0,356722.8000000119,9024,no,SM,C,73.bmp,-120,120,354834,348811,356851,350818,,,,,2
4,0,0,0,1,2,prac,2,1,m,Thu Jul 10 2025 13:57:41 GMT-0400 (Eastern Daylight Time),376646.40000000596,I,m,1022,3,1,74.bmp,-120,-120,75.bmp,120,-120,76.bmp,-120,120,77.bmp,120,120,9825.699999988079,366820.7000000179,9024,no,SM,C,74.bmp,120,120,364934,358909,366936,360918,,,,,3
2,0,1,0,0,2,prac,2,0,z,Thu Jul 10 2025 13:57:41 GMT-0400 (Eastern Daylight Time),386479.5,I,m,1014,4,1,78.bmp,-120,-120,79.bmp,120,-120,80.bmp,-120,120,81.bmp,120,120,9826.40000000596,376653.09999999404,9024,yes,SM,C,79.bmp,120,-120,374768,368741,376785,370751,,,,,4
3,0,0,1,0,3,prac,2,1,z,Thu Jul 10 2025 13:57:41 GMT-0400 (Eastern Daylight Time),396129.59999999404,I,z,829,5,1,82.bmp,-120,-120,83.bmp,120,-120,84.bmp,-120,120,85.bmp,120,120,9642.09999999404,386487.5,9024,yes,SM,C,84.bmp,-120,120,384601,378576,386618,380585,,,,,5
1,1,0,0,0,3,prac,2,0,m,Thu Jul 10 2025 13:57:41 GMT-0400 (Eastern Daylight Time),406962.8000000119,I,None,2016,6,1,86.bmp,-120,-120,87.bmp,120,-120,88.bmp,-120,120,89.bmp,120,120,10822.700000017881,396140.09999999404,9024,no,SM,C,89.bmp,-120,-120,394251,388229,396268,390235,,,,,6
2,0,1,0,0,4,prac,2,1,m,Thu Jul 10 2025 13:57:41 GMT-0400 (Eastern Daylight Time),416812.90000000596,I,m,1017,7,1,90.bmp,-120,-120,91.bmp,120,-120,92.bmp,-120,120,93.bmp,120,120,9839.800000011921,406973.09999999404,9024,no,SM,C,90.bmp,120,-120,405084,399061,407101,401067,,,,,7
4,0,0,0,1,4,prac,2,0,z,Thu Jul 10 2025 13:57:41 GMT-0400 (Eastern Daylight Time),426479.59999999404,I,m,847,8,1,94.bmp,-120,-120,95.bmp,120,-120,96.bmp,-120,120,97.bmp,120,120,9660.0,416819.59999999404,9024,yes,SM,C,97.bmp,120,120,414934,408908,416952,410918,,,,,8
4,0,0,0,1,1,test,1,1,m,Thu Jul 10 2025 13:57:41 GMT-0400 (Eastern Daylight Time),470946.40000000596,I,m,1445,1,1,98.bmp,-120,-120,99.bmp,120,-120,100.bmp,-120,120,93.bmp,120,120,9498.0,461448.40000000596,9024,yes,SM,C,100.bmp,120,120,414934,408908,416952,410918,459568.0,453537.0,461585.0,455551.0,1
2,0,1,0,0,2,test,1,1,m,Thu Jul 10 2025 13:57:41 GMT-0400 (Eastern Daylight Time),480429.59999999404,I,m,1419,2,1,51.bmp,-120,-120,52.bmp,120,-120,53.bmp,-120,120,54.bmp,120,120,9477.09999999404,470952.5,9024,yes,SM,C,53.bmp,120,-120,414934,408908,416952,410918,469068.0,463041.0,471084.0,465052.0,2
1,1,0,0,0,3,test,1,1,z,Thu Jul 10 2025 13:57:41 GMT-0400 (Eastern Daylight Time),489479.5,I,z,990,3,1,55.bmp,-120,-120,56.bmp,120,-120,57.bmp,-120,120,58.bmp,120,120,9040.5,480439.0,9024,yes,SM,C,55.bmp,-120,-120,414934,408908,416952,410918,478551.0,472528.0,480568.0,474534.0,3
3,0,0,1,0,3,test,1,0,m,Thu Jul 10 2025 13:57:41 GMT-0400 (Eastern Daylight Time),498812.90000000596,I,z,1270,4,1,59.bmp,-120,-120,60.bmp,120,-120,61.bmp,-120,120,62.bmp,120,120,9323.199999988079,489489.7000000179,9024,yes,SM,C,59.bmp,-120,120,414934,408908,416952,410918,487601.0,481578.0,489617.0,483584.0,4
2,0,1,0,0,3,test,1,0,z,Thu Jul 10 2025 13:57:41 GMT-0400 (Eastern Daylight Time),508463.0,I,m,1598,5,1,63.bmp,-120,-120,64.bmp,120,-120,65.bmp,-120,120,66.bmp,120,120,9643.40000000596,498819.59999999404,9024,yes,SM,C,64.bmp,120,-120,414934,408908,416952,410918,496934.0,490908.0,498952.0,492918.0,5
3,0,0,1,0,4,test,1,1,z,Thu Jul 10 2025 13:57:41 GMT-0400 (Eastern Daylight Time),518097.40000000596,I,z,1580,6,1,67.bmp,-120,-120,68.bmp,120,-120,69.bmp,-120,120,70.bmp,120,120,9625.59999999404,508471.8000000119,9024,yes,SM,C,69.bmp,-120,120,414934,408908,416952,410918,506584.0,500560.0,508602.0,502568.0,6
4,0,0,0,1,4,test,1,0,z,Thu Jul 10 2025 13:57:41 GMT-0400 (Eastern Daylight Time),527113.0,I,m,955,7,1,71.bmp,-120,-120,72.bmp,120,-120,73.bmp,-120,120,74.bmp,120,120,9009.90000000596,518103.09999999404,9024,yes,SM,C,74.bmp,120,120,414934,408908,416952,410918,516218.0,510191.0,518235.0,512201.0,7
2,0,1,0,0,4,test,1,0,m,Thu Jul 10 2025 13:57:41 GMT-0400 (Eastern Daylight Time),537179.3000000119,I,None,2015,8,1,75.bmp,-120,-120,76.bmp,120,-120,77.bmp,-120,120,78.bmp,120,120,10055.59999999404,527123.7000000179,9024,yes,SM,C,75.bmp,120,-120,414934,408908,416952,410918,525234.0,519212.0,527252.0,521218.0,8
3,0,0,1,0,4,test,1,0,m,Thu Jul 10 2025 13:57:41 GMT-0400 (Eastern Daylight Time),547246.2000000179,I,None,2016,9,1,79.bmp,-120,-120,80.bmp,120,-120,81.bmp,-120,120,82.bmp,120,120,10062.40000000596,537183.8000000119,9024,yes,SM,C,80.bmp,-120,120,414934,408908,416952,410918,535301.0,529272.0,537318.0,531285.0,9
4,0,0,0,1,4,test,1,0,z,Thu Jul 10 2025 13:57:41 GMT-0400 (Eastern Daylight Time),556079.7000000179,I,m,782,10,1,87.bmp,-120,-120,88.bmp,120,-120,89.bmp,-120,120,90.bmp,120,120,8826.700000017881,547253.0,9024,yes,SM,C,90.bmp,120,120,414934,408908,416952,410918,545368.0,539341.0,547385.0,541352.0,10
3,0,0,1,0,5,test,1,1,z,Thu Jul 10 2025 13:57:41 GMT-0400 (Eastern Daylight Time),565096.3000000119,I,z,957,11,1,83.bmp,-120,-120,84.bmp,120,-120,85.bmp,-120,120,86.bmp,120,120,9008.800000011921,556087.5,9024,yes,SM,C,85.bmp,-120,120,414934,408908,416952,410918,554201.0,548176.0,556218.0,550185.0,11
2,0,1,0,0,6,test,1,1,m,Thu Jul 10 2025 13:57:41 GMT-0400 (Eastern Daylight Time),573996.2000000179,I,m,835,12,1,91.bmp,-120,-120,92.bmp,120,-120,93.bmp,-120,120,94.bmp,120,120,8891.600000023842,565104.599999994,9024,yes,SM,C,91.bmp,120,-120,414934,408908,416952,410918,563218.0,557193.0,565235.0,559201.0,12
3,0,0,1,0,7,test,1,1,m,Thu Jul 10 2025 13:57:41 GMT-0400 (Eastern Daylight Time),583479.599999994,I,m,1424,13,1,95.bmp,-120,-120,96.bmp,120,-120,97.bmp,-120,120,98.bmp,120,120,9476.59999999404,574003.0,9024,yes,SM,C,96.bmp,-120,120,414934,408908,416952,410918,572118.0,566091.0,574134.0,568101.0,13
1,1,0,0,0,7,test,1,0,z,Thu Jul 10 2025 13:57:41 GMT-0400 (Eastern Daylight Time),593146.099999994,I,m,1604,14,1,99.bmp,-120,-120,100.bmp,120,-120,54.bmp,-120,120,51.bmp,120,120,9656.5,583489.599999994,9024,yes,SM,C,99.bmp,-120,-120,414934,408908,416952,410918,581601.0,575578.0,583619.0,577585.0,14
4,0,0,0,1,8,test,1,1,m,Thu Jul 10 2025 13:57:41 GMT-0400 (Eastern Daylight Time),602629.599999994,I,m,1425,15,1,60.bmp,-120,-120,61.bmp,120,-120,62.bmp,-120,120,63.bmp,120,120,9476.699999988079,593152.900000006,9024,yes,SM,C,61.bmp,120,120,414934,408908,416952,410918,591268.0,585241.0,593285.0,587252.0,15
1,1,0,0,0,9,test,1,1,m,Thu Jul 10 2025 13:57:41 GMT-0400 (Eastern Daylight Time),612196.2000000179,I,m,1511,16,1,52.bmp,-120,-120,53.bmp,120,-120,54.bmp,-120,120,55.bmp,120,120,9557.40000000596,602638.8000000119,9024,yes,SM,C,55.bmp,-120,-120,414934,408908,416952,410918,600751.0,594727.0,602768.0,596734.0,16
3,0,0,1,0,9,test,1,0,m,Thu Jul 10 2025 13:57:41 GMT-0400 (Eastern Daylight Time),621662.8000000119,I,z,1400,17,1,72.bmp,-120,-120,73.bmp,120,-120,74.bmp,-120,120,75.bmp,120,120,9457.200000017881,612205.599999994,9024,yes,SM,C,72.bmp,-120,120,414934,408908,416952,410918,610318.0,604294.0,612335.0,606301.0,17
1,1,0,0,0,9,test,1,0,z,Thu Jul 10 2025 13:57:41 GMT-0400 (Eastern Daylight Time),631729.599999994,I,None,2016,18,1,56.bmp,-120,-120,57.bmp,120,-120,58.bmp,-120,120,59.bmp,120,120,10060.5,621669.099999994,9024,yes,SM,C,56.bmp,-120,-120,414934,408908,416952,410918,619785.0,613757.0,621802.0,615768.0,18
2,0,1,0,0,9,test,1,0,z,Thu Jul 10 2025 13:57:41 GMT-0400 (Eastern Daylight Time),640613.0,I,m,827,19,1,76.bmp,-120,-120,77.bmp,120,-120,78.bmp,-120,120,79.bmp,120,120,8876.199999988079,631736.8000000119,9024,yes,SM,C,77.bmp,120,-120,414934,408908,416952,410918,629851.0,623825.0,631868.0,625835.0,19
3,0,0,1,0,10,test,1,1,z,Thu Jul 10 2025 13:57:41 GMT-0400 (Eastern Daylight Time),649646.0,I,z,967,20,1,80.bmp,-120,-120,81.bmp,120,-120,82.bmp,-120,120,83.bmp,120,120,9026.299999982119,640619.7000000179,9024,yes,SM,C,82.bmp,-120,120,414934,408908,416952,410918,638735.0,632708.0,640752.0,634718.0,20
1,1,0,0,0,11,test,1,1,m,Thu Jul 10 2025 13:57:41 GMT-0400 (Eastern Daylight Time),659596.5,I,m,1885,21,1,64.bmp,-120,-120,65.bmp,120,-120,66.bmp,-120,120,67.bmp,120,120,9946.40000000596,649650.099999994,9024,yes,SM,C,66.bmp,-120,-120,414934,408908,416952,410918,647768.0,641738.0,649785.0,643751.0,21
4,0,0,0,1,11,test,1,0,z,Thu Jul 10 2025 13:57:41 GMT-0400 (Eastern Daylight Time),668863.0,I,m,1200,22,1,68.bmp,-120,-120,69.bmp,120,-120,70.bmp,-120,120,71.bmp,120,120,9255.0,659608.0,9024,yes,SM,C,71.bmp,120,120,414934,408908,416952,410918,657718.0,651697.0,659735.0,653701.0,22
1,1,0,0,0,12,test,1,1,m,Thu Jul 10 2025 13:57:41 GMT-0400 (Eastern Daylight Time),678462.900000006,I,m,1533,23,1,84.bmp,-120,-120,85.bmp,120,-120,86.bmp,-120,120,87.bmp,120,120,9593.5,668869.400000006,9024,yes,SM,C,87.bmp,-120,-120,414934,408908,416952,410918,666985.0,660958.0,669002.0,662968.0,23
2,0,1,0,0,13,test,1,1,z,Thu Jul 10 2025 13:57:41 GMT-0400 (Eastern Daylight Time),688046.2000000179,I,z,1517,24,1,92.bmp,-120,-120,93.bmp,120,-120,94.bmp,-120,120,95.bmp,120,120,9577.700000017881,678468.5,9024,yes,SM,C,93.bmp,120,-120,414934,408908,416952,410918,676585.0,670557.0,678602.0,672568.0,24
4,0,0,0,1,13,test,1,0,m,Thu Jul 10 2025 13:57:41 GMT-0400 (Eastern Daylight Time),697679.400000006,I,z,1581,25,1,96.bmp,-120,-120,97.bmp,120,-120,98.bmp,-120,120,99.bmp,120,120,9626.5,688052.900000006,9024,yes,SM,C,98.bmp,120,120,414934,408908,416952,410918,686168.0,680141.0,688185.0,682151.0,25
1,1,0,0,0,13,test,1,0,z,Thu Jul 10 2025 13:57:41 GMT-0400 (Eastern Daylight Time),707746.3000000119,I,None,2016,26,1,88.bmp,-120,-120,89.bmp,120,-120,90.bmp,-120,120,91.bmp,120,120,10062.0,697684.3000000119,9024,yes,SM,C,88.bmp,-120,-120,414934,408908,416952,410918,695801.0,689773.0,697818.0,691785.0,26
4,0,0,0,1,13,test,1,0,z,Thu Jul 10 2025 13:57:41 GMT-0400 (Eastern Daylight Time),717396.099999994,I,m,1593,27,1,100.bmp,-120,-120,61.bmp,120,-120,51.bmp,-120,120,52.bmp,120,120,9642.799999982119,707753.3000000119,9024,yes,SM,C,52.bmp,120,120,414934,408908,416952,410918,705868.0,699842.0,707885.0,701852.0,27
3,0,0,1,0,13,test,1,0,m,Thu Jul 10 2025 13:57:41 GMT-0400 (Eastern Daylight Time),726779.599999994,I,z,1320,28,1,53.bmp,-120,-120,54.bmp,120,-120,55.bmp,-120,120,56.bmp,120,120,9378.5,717401.099999994,9024,yes,SM,C,53.bmp,-120,120,414934,408908,416952,410918,715518.0,709489.0,717535.0,711501.0,28
2,0,1,0,0,13,test,1,0,z,Thu Jul 10 2025 13:57:41 GMT-0400 (Eastern Daylight Time),736696.3000000119,I,m,1857,29,1,57.bmp,-120,-120,58.bmp,120,-120,59.bmp,-120,120,60.bmp,120,120,9909.90000000596,726786.400000006,9024,yes,SM,C,58.bmp,120,-120,414934,408908,416952,410918,724901.0,718875.0,726918.0,720885.0,29
3,0,0,1,0,13,test,1,0,z,Thu Jul 10 2025 13:57:41 GMT-0400 (Eastern Daylight Time),746763.099999994,I,None,2016,30,1,61.bmp,-120,-120,62.bmp,120,-120,63.bmp,-120,120,64.bmp,120,120,10058.899999976158,736704.2000000179,9024,yes,SM,C,63.bmp,-120,120,414934,408908,416952,410918,734818.0,728793.0,736835.0,730802.0,30
1,1,0,0,0,14,test,1,1,z,Thu Jul 10 2025 13:57:41 GMT-0400 (Eastern Daylight Time),756546.5,I,z,1729,31,1,65.bmp,-120,-120,66.bmp,120,-120,67.bmp,-120,120,68.bmp,120,120,9774.0,746772.5,9024,yes,SM,C,65.bmp,-120,-120,414934,408908,416952,410918,744885.0,738861.0,746902.0,740868.0,31
2,0,1,0,0,15,test,1,1,m,Thu Jul 10 2025 13:57:41 GMT-0400 (Eastern Daylight Time),766246.400000006,I,m,1642,32,1,69.bmp,-120,-120,70.bmp,120,-120,71.bmp,-120,120,72.bmp,120,120,9693.40000000596,756553.0,9024,yes,SM,C,69.bmp,120,-120,414934,408908,416952,410918,754668.0,748641.0,756685.0,750652.0,32
4,0,0,0,1,15,test,1,0,z,Thu Jul 10 2025 13:57:41 GMT-0400 (Eastern Daylight Time),776296.5,I,m,1990,33,1,81.bmp,-120,-120,82.bmp,120,-120,83.bmp,-120,120,84.bmp,120,120,10041.5,766255.0,9024,yes,SM,C,84.bmp,120,120,414934,408908,416952,410918,764368.0,758343.0,766385.0,760352.0,33
2,0,1,0,0,15,test,1,0,z,Thu Jul 10 2025 13:57:41 GMT-0400 (Eastern Daylight Time),786079.8000000119,I,m,1718,34,1,73.bmp,-120,-120,74.bmp,120,-120,75.bmp,-120,120,76.bmp,120,120,9775.200000017881,776304.599999994,9024,yes,SM,C,74.bmp,120,-120,414934,408908,416952,410918,774418.0,768393.0,776434.0,770402.0,34
4,0,0,0,1,16,test,1,1,m,Thu Jul 10 2025 13:57:41 GMT-0400 (Eastern Daylight Time),795463.0,I,m,1325,35,1,77.bmp,-120,-120,78.bmp,120,-120,79.bmp,-120,120,80.bmp,120,120,9376.59999999404,786086.400000006,9024,yes,SM,C,79.bmp,120,120,414934,408908,416952,410918,784201.0,778176.0,786218.0,780185.0,35
3,0,0,1,0,16,test,1,0,m,Thu Jul 10 2025 13:57:41 GMT-0400 (Eastern Daylight Time),804729.599999994,I,z,1205,36,1,85.bmp,-120,-120,86.bmp,120,-120,87.bmp,-120,120,88.bmp,120,120,9259.899999976158,795469.7000000179,9024,yes,SM,C,85.bmp,-120,120,414934,408908,416952,410918,793585.0,787558.0,795602.0,789568.0,36
1,1,0,0,0,17,test,1,1,m,Thu Jul 10 2025 13:57:41 GMT-0400 (Eastern Daylight Time),814379.8000000119,I,m,1587,37,1,89.bmp,-120,-120,90.bmp,120,-120,91.bmp,-120,120,92.bmp,120,120,9640.5,804739.3000000119,9024,yes,SM,C,90.bmp,-120,-120,414934,408908,416952,410918,802851.0,796827.0,804868.0,798835.0,37
2,0,1,0,0,18,test,1,1,m,Thu Jul 10 2025 13:57:41 GMT-0400 (Eastern Daylight Time),824412.900000006,I,m,1969,38,1,93.bmp,-120,-120,94.bmp,120,-120,95.bmp,-120,120,96.bmp,120,120,10025.0,814387.900000006,9024,yes,SM,C,95.bmp,120,-120,414934,408908,416952,410918,812501.0,806476.0,814518.0,808484.0,38
4,0,0,0,1,18,test,1,0,z,Thu Jul 10 2025 13:57:41 GMT-0400 (Eastern Daylight Time),833596.599999994,I,m,1119,39,1,97.bmp,-120,-120,98.bmp,120,-120,99.bmp,-120,120,100.bmp,120,120,9176.299999982119,824420.3000000119,9024,yes,SM,C,100.bmp,120,120,414934,408908,416952,410918,822535.0,816509.0,824552.0,818518.0,39
3,0,0,1,0,19,test,1,1,m,Thu Jul 10 2025 13:57:41 GMT-0400 (Eastern Daylight Time),843264.2000000179,I,m,1600,40,1,54.bmp,-120,-120,55.bmp,120,-120,56.bmp,-120,120,57.bmp,120,120,9659.90000000596,833604.3000000119,9024,yes,SM,C,55.bmp,-120,120,414934,408908,416952,410918,831718.0,825693.0,833735.0,827702.0,40
1,1,0,0,0,19,test,1,0,z,Thu Jul 10 2025 13:57:41 GMT-0400 (Eastern Daylight Time),853329.900000006,I,None,2016,41,1,58.bmp,-120,-120,59.bmp,120,-120,60.bmp,-120,120,61.bmp,120,120,10061.59999999404,843268.3000000119,9024,yes,SM,C,58.bmp,-120,-120,414934,408908,416952,410918,841386.0,835357.0,843402.0,837368.0,41
4,0,0,0,1,19,test,1,0,z,Thu Jul 10 2025 13:57:41 GMT-0400 (Eastern Daylight Time),862279.7000000179,I,m,891,42,1,62.bmp,-120,-120,63.bmp,120,-120,64.bmp,-120,120,65.bmp,120,120,8940.200000017881,853339.5,9024,yes,SM,C,65.bmp,120,120,414934,408908,416952,410918,851451.0,845428.0,853468.0,847434.0,42
1,1,0,0,0,19,test,1,0,z,Thu Jul 10 2025 13:57:41 GMT-0400 (Eastern Daylight Time),871579.400000006,I,m,1236,43,1,66.bmp,-120,-120,67.bmp,120,-120,68.bmp,-120,120,69.bmp,120,120,9289.40000000596,862290.0,9024,yes,SM,C,66.bmp,-120,-120,414934,408908,416952,410918,860401.0,854379.0,862418.0,856384.0,43
4,0,0,0,1,20,test,1,1,m,Thu Jul 10 2025 13:57:41 GMT-0400 (Eastern Daylight Time),880713.2000000179,I,m,1073,44,1,54.bmp,-120,-120,51.bmp,120,-120,52.bmp,-120,120,53.bmp,120,120,9129.600000023842,871583.599999994,9024,yes,SM,C,54.bmp,120,120,414934,408908,416952,410918,869701.0,863672.0,871718.0,865685.0,44
1,1,0,0,0,21,test,1,1,m,Thu Jul 10 2025 13:57:41 GMT-0400 (Eastern Daylight Time),890146.400000006,I,m,1380,45,1,78.bmp,-120,-120,79.bmp,120,-120,80.bmp,-120,120,81.bmp,120,120,9425.300000011921,880721.099999994,9024,yes,SM,C,81.bmp,-120,-120,414934,408908,416952,410918,878835.0,872809.0,880851.0,874818.0,45
1,1,0,0,0,22,test,1,1,m,Thu Jul 10 2025 13:57:41 GMT-0400 (Eastern Daylight Time),899446.2000000179,I,m,1241,46,1,70.bmp,-120,-120,71.bmp,120,-120,72.bmp,-120,120,73.bmp,120,120,9291.0,890155.2000000179,9024,yes,SM,C,71.bmp,-120,-120,414934,408908,416952,410918,888268.0,882243.0,890285.0,884251.0,46
3,0,0,1,0,22,test,1,0,z,Thu Jul 10 2025 13:57:41 GMT-0400 (Eastern Daylight Time),909163.2000000179,I,m,1654,47,1,74.bmp,-120,-120,75.bmp,120,-120,76.bmp,-120,120,77.bmp,120,120,9704.40000000596,899458.8000000119,9024,yes,SM,C,76.bmp,-120,120,414934,408908,416952,410918,897568.0,891547.0,899585.0,893552.0,47
3,0,0,1,0,22,test,1,0,z,Thu Jul 10 2025 13:57:41 GMT-0400 (Eastern Daylight Time),919229.900000006,I,None,2017,48,1,90.bmp,-120,-120,91.bmp,120,-120,92.bmp,-120,120,93.bmp,120,120,10056.90000000596,909173.0,9024,yes,SM,C,92.bmp,-120,120,414934,408908,416952,410918,907285.0,901262.0,909301.0,903268.0,48
2,0,1,0,0,22,test,1,0,z,Thu Jul 10 2025 13:57:41 GMT-0400 (Eastern Daylight Time),928446.3000000119,I,m,1150,49,1,86.bmp,-120,-120,87.bmp,120,-120,88.bmp,-120,120,89.bmp,120,120,9208.700000017881,919237.599999994,9024,yes,SM,C,87.bmp,120,-120,414934,408908,416952,410918,917351.0,911326.0,919368.0,913334.0,49
3,0,0,1,0,22,test,1,0,m,Thu Jul 10 2025 13:57:41 GMT-0400 (Eastern Daylight Time),937729.7000000179,I,z,1229,50,1,82.bmp,-120,-120,83.bmp,120,-120,84.bmp,-120,120,85.bmp,120,120,9279.600000023842,928450.099999994,9024,yes,SM,C,82.bmp,-120,120,414934,408908,416952,410918,926568.0,920538.0,928585.0,922552.0,50
2,0,1,0,0,23,test,1,1,z,Thu Jul 10 2025 13:57:41 GMT-0400 (Eastern Daylight Time),947129.8000000119,I,z,1339,51,1,94.bmp,-120,-120,95.bmp,120,-120,96.bmp,-120,120,97.bmp,120,120,9396.40000000596,937733.400000006,9024,yes,SM,C,95.bmp,120,-120,414934,408908,416952,410918,935851.0,929822.0,937868.0,931835.0,51
4,0,0,0,1,23,test,1,0,m,Thu Jul 10 2025 13:57:41 GMT-0400 (Eastern Daylight Time),957196.3000000119,I,None,2016,52,1,98.bmp,-120,-120,99.bmp,120,-120,100.bmp,-120,120,81.bmp,120,120,10059.40000000596,947136.900000006,9024,yes,SM,C,98.bmp,120,120,414934,408908,416952,410918,945251.0,939225.0,947268.0,941235.0,52
3,0,0,1,0,24,test,1,1,z,Thu Jul 10 2025 13:57:41 GMT-0400 (Eastern Daylight Time),966546.400000006,I,z,1296,53,1,51.bmp,-120,-120,52.bmp,120,-120,53.bmp,-120,120,54.bmp,120,120,9346.699999988079,957199.7000000179,9024,yes,SM,C,53.bmp,-120,120,414934,408908,416952,410918,955318.0,949288.0,957335.0,951302.0,53
1,1,0,0,0,25,test,1,1,m,Thu Jul 10 2025 13:57:41 GMT-0400 (Eastern Daylight Time),976379.900000006,I,m,1770,54,1,55.bmp,-120,-120,56.bmp,120,-120,57.bmp,-120,120,58.bmp,120,120,9826.699999988079,966553.2000000179,9024,yes,SM,C,57.bmp,-120,-120,414934,408908,416952,410918,964668.0,958642.0,966685.0,960652.0,54
4,0,0,0,1,25,test,1,0,z,Thu Jul 10 2025 13:57:41 GMT-0400 (Eastern Daylight Time),986013.099999994,I,m,1568,55,1,59.bmp,-120,-120,60.bmp,120,-120,61.bmp,-120,120,62.bmp,120,120,9625.09999999404,976388.0,9024,yes,SM,C,62.bmp,120,120,414934,408908,416952,410918,974501.0,968476.0,976519.0,970485.0,55
2,0,1,0,0,26,test,1,1,m,Thu Jul 10 2025 13:57:41 GMT-0400 (Eastern Daylight Time),995163.2000000179,I,m,1087,56,1,63.bmp,-120,-120,64.bmp,120,-120,65.bmp,-120,120,66.bmp,120,120,9144.200000017881,986019.0,9024,yes,SM,C,63.bmp,120,-120,414934,408908,416952,410918,984135.0,978107.0,986152.0,980118.0,56
4,0,0,0,1,26,test,1,0,m,Thu Jul 10 2025 13:57:41 GMT-0400 (Eastern Daylight Time),1004779.900000006,I,z,1554,57,1,67.bmp,-120,-120,68.bmp,120,-120,69.bmp,-120,120,70.bmp,120,120,9606.59999999404,995173.3000000119,9024,yes,SM,C,68.bmp,120,120,414934,408908,416952,410918,993285.0,987262.0,995301.0,989269.0,57
3,0,0,1,0,27,test,1,1,z,Thu Jul 10 2025 13:57:41 GMT-0400 (Eastern Daylight Time),1013946.7000000179,I,z,1104,58,1,71.bmp,-120,-120,72.bmp,120,-120,73.bmp,-120,120,74.bmp,120,120,9161.700000017881,1004785.0,9024,yes,SM,C,73.bmp,-120,120,414934,408908,416952,410918,1002901.0,996873.0,1004919.0,998885.0,58
2,0,1,0,0,28,test,1,1,m,Thu Jul 10 2025 13:57:41 GMT-0400 (Eastern Daylight Time),1023330.0,I,m,1330,59,1,75.bmp,-120,-120,76.bmp,120,-120,77.bmp,-120,120,78.bmp,120,120,9375.0,1013955.0,9024,yes,SM,C,78.bmp,120,-120,414934,408908,416952,410918,1012068.0,1006043.0,1014085.0,1008052.0,59
1,1,0,0,0,28,test,1,0,z,Thu Jul 10 2025 13:57:41 GMT-0400 (Eastern Daylight Time),1032696.7000000179,I,m,1306,60,1,79.bmp,-120,-120,80.bmp,120,-120,81.bmp,-120,120,82.bmp,120,120,9360.600000023842,1023336.099999994,9024,yes,SM,C,79.bmp,-120,-120,414934,408908,416952,410918,1021451.0,1015424.0,1023469.0,1017435.0,60
2,0,1,0,0,28,test,1,0,z,Thu Jul 10 2025 13:57:41 GMT-0400 (Eastern Daylight Time),1042246.5,I,m,1492,61,1,83.bmp,-120,-120,84.bmp,120,-120,85.bmp,-120,120,86.bmp,120,120,9540.699999988079,1032705.8000000119,9024,yes,SM,C,84.bmp,120,-120,414934,408908,416952,410918,1030818.0,1024794.0,1032835.0,1026802.0,61
4,0,0,0,1,28,test,1,0,z,Thu Jul 10 2025 13:57:41 GMT-0400 (Eastern Daylight Time),1051463.300000012,I,m,1158,62,1,91.bmp,-120,-120,92.bmp,120,-120,93.bmp,-120,120,94.bmp,120,120,9206.5,1042256.8000000119,9024,yes,SM,C,94.bmp,120,120,414934,408908,416952,410918,1040368.0,1034345.0,1042385.0,1036352.0,62
1,1,0,0,0,28,test,1,0,m,Thu Jul 10 2025 13:57:41 GMT-0400 (Eastern Daylight Time),1061196.300000012,I,z,1669,63,1,95.bmp,-120,-120,96.bmp,120,-120,97.bmp,-120,120,98.bmp,120,120,9727.0,1051469.300000012,9024,yes,SM,C,95.bmp,-120,120,414934,408908,416952,410918,1049585.0,1043558.0,1051602.0,1045568.0,63
2,0,1,0,0,28,test,1,0,z,Thu Jul 10 2025 13:57:41 GMT-0400 (Eastern Daylight Time),1070546.5,I,m,1296,64,1,99.bmp,-120,-120,100.bmp,120,-120,62.bmp,-120,120,51.bmp,120,120,9347.0,1061199.5,9024,yes,SM,C,100.bmp,120,-120,414934,408908,416952,410918,1059318.0,1053288.0,1061335.0,1055301.0,64
4,0,0,0,1,29,test,1,1,m,Thu Jul 10 2025 13:57:41 GMT-0400 (Eastern Daylight Time),1079663.300000012,I,m,1050,65,1,52.bmp,-120,-120,53.bmp,120,-120,54.bmp,-120,120,55.bmp,120,120,9110.300000011921,1070553.0,9024,yes,SM,C,54.bmp,120,120,414934,408908,416952,410918,1068668.0,1062641.0,1070685.0,1064652.0,65
3,0,0,1,0,30,test,1,1,m,Thu Jul 10 2025 13:57:41 GMT-0400 (Eastern Daylight Time),1089146.7000000179,I,m,1422,66,1,56.bmp,-120,-120,57.bmp,120,-120,58.bmp,-120,120,59.bmp,120,120,9475.100000023842,1079671.599999994,9024,yes,SM,C,59.bmp,-120,120,414934,408908,416952,410918,1077784.0,1071760.0,1079801.0,1073768.0,66
2,0,1,0,0,31,test,1,1,m,Thu Jul 10 2025 13:57:41 GMT-0400 (Eastern Daylight Time),1098529.400000006,I,m,1329,67,1,87.bmp,-120,-120,88.bmp,120,-120,89.bmp,-120,120,90.bmp,120,120,9374.300000011921,1089155.099999994,9024,yes,SM,C,89.bmp,120,-120,414934,408908,416952,410918,1087268.0,1081243.0,1089285.0,1083252.0,67
3,0,0,1,0,32,test,1,1,z,Thu Jul 10 2025 13:57:41 GMT-0400 (Eastern Daylight Time),1108079.599999994,I,z,1498,68,1,60.bmp,-120,-120,61.bmp,120,-120,62.bmp,-120,120,63.bmp,120,120,9546.299999982119,1098533.300000012,9024,yes,SM,C,62.bmp,-120,120,414934,408908,416952,410918,1096652.0,1090622.0,1098668.0,1092635.0,68
1,1,0,0,0,32,test,1,0,m,Thu Jul 10 2025 13:57:41 GMT-0400 (Eastern Daylight Time),1118146.7000000179,I,None,2017,69,1,64.bmp,-120,-120,65.bmp,120,-120,66.bmp,-120,120,67.bmp,120,120,10063.600000023842,1108083.099999994,9024,yes,SM,C,65.bmp,-120,-120,414934,408908,416952,410918,1106201.0,1100171.0,1108218.0,1102185.0,69
2,0,1,0,0,33,test,1,1,m,Thu Jul 10 2025 13:57:41 GMT-0400 (Eastern Daylight Time),1127696.5,I,m,1498,70,1,68.bmp,-120,-120,69.bmp,120,-120,70.bmp,-120,120,71.bmp,120,120,9542.699999988079,1118153.800000012,9024,yes,SM,C,70.bmp,120,-120,414934,408908,416952,410918,1116268.0,1110242.0,1118285.0,1112251.0,70
4,0,0,0,1,33,test,1,0,z,Thu Jul 10 2025 13:57:41 GMT-0400 (Eastern Daylight Time),1136981.7000000179,I,m,1228,71,1,72.bmp,-120,-120,73.bmp,120,-120,74.bmp,-120,120,75.bmp,120,120,9279.100000023842,1127702.599999994,9024,yes,SM,C,75.bmp,120,120,414934,408908,416952,410918,1125818.0,1119791.0,1127835.0,1121803.0,71
1,1,0,0,0,34,test,1,1,z,Thu Jul 10 2025 13:57:41 GMT-0400 (Eastern Daylight Time),1146213.300000012,I,z,1176,72,1,76.bmp,-120,-120,77.bmp,120,-120,78.bmp,-120,120,79.bmp,120,120,9227.5,1136985.800000012,9024,yes,SM,C,76.bmp,-120,-120,414934,408908,416952,410918,1135101.0,1129074.0,1137119.0,1131085.0,72
2,0,1,0,0,34,test,1,0,z,Thu Jul 10 2025 13:57:41 GMT-0400 (Eastern Daylight Time),1156280.0,I,None,2016,73,1,80.bmp,-120,-120,81.bmp,120,-120,82.bmp,-120,120,83.bmp,120,120,10056.0,1146224.0,9024,yes,SM,C,81.bmp,120,-120,414934,408908,416952,410918,1144335.0,1138313.0,1146352.0,1140319.0,73
4,0,0,0,1,35,test,1,1,m,Thu Jul 10 2025 13:57:41 GMT-0400 (Eastern Daylight Time),1165679.900000006,I,m,1348,74,1,84.bmp,-120,-120,85.bmp,120,-120,86.bmp,-120,120,87.bmp,120,120,9393.0,1156286.900000006,9024,yes,SM,C,86.bmp,120,120,414934,408908,416952,410918,1154402.0,1148375.0,1156418.0,1150385.0,74
2,0,1,0,0,36,test,1,1,m,Thu Jul 10 2025 13:57:41 GMT-0400 (Eastern Daylight Time),1175163.2000000179,I,m,1422,75,1,88.bmp,-120,-120,89.bmp,120,-120,90.bmp,-120,120,91.bmp,120,120,9476.300000011921,1165686.900000006,9024,yes,SM,C,91.bmp,120,-120,414934,408908,416952,410918,1163802.0,1157775.0,1165818.0,1159785.0,75
1,1,0,0,0,37,test,1,1,z,Thu Jul 10 2025 13:57:41 GMT-0400 (Eastern Daylight Time),1184863.400000006,I,z,1633,76,1,92.bmp,-120,-120,93.bmp,120,-120,94.bmp,-120,120,95.bmp,120,120,9693.800000011921,1175169.599999994,9024,yes,SM,C,92.bmp,-120,-120,414934,408908,416952,410918,1173285.0,1167258.0,1175302.0,1169269.0,76
3,0,0,1,0,38,test,1,1,z,Thu Jul 10 2025 13:57:41 GMT-0400 (Eastern Daylight Time),1194596.599999994,I,z,1678,77,1,100.bmp,-120,-120,61.bmp,120,-120,51.bmp,-120,120,52.bmp,120,120,9727.0,1184869.599999994,9024,yes,SM,C,51.bmp,-120,120,414934,408908,416952,410918,1182984.0,1176958.0,1185001.0,1178968.0,77
1,1,0,0,0,39,test,1,1,m,Thu Jul 10 2025 13:57:41 GMT-0400 (Eastern Daylight Time),1204380.2000000179,I,m,1720,78,1,96.bmp,-120,-120,97.bmp,120,-120,98.bmp,-120,120,99.bmp,120,120,9775.300000011921,1194604.900000006,9024,yes,SM,C,97.bmp,-120,-120,414934,408908,416952,410918,1192719.0,1186693.0,1194735.0,1188702.0,78
4,0,0,0,1,40,test,1,1,m,Thu Jul 10 2025 13:57:41 GMT-0400 (Eastern Daylight Time),1213963.5,I,m,1521,79,1,57.bmp,-120,-120,58.bmp,120,-120,59.bmp,-120,120,60.bmp,120,120,9576.699999988079,1204386.800000012,9024,yes,SM,C,57.bmp,120,120,414934,408908,416952,410918,1202502.0,1196475.0,1204518.0,1198485.0,79
3,0,0,1,0,41,test,1,1,m,Thu Jul 10 2025 13:57:41 GMT-0400 (Eastern Daylight Time),1223380.0,I,m,1361,80,1,53.bmp,-120,-120,54.bmp,120,-120,55.bmp,-120,120,56.bmp,120,120,9408.5,1213971.5,9024,yes,SM,C,56.bmp,-120,120,414934,408908,416952,410918,1212085.0,1206060.0,1214102.0,1208069.0,80
