Q,Q1,Q2,Q3,Q4,acc_sum,block,block_c,correct,correct_response,datetime,endtime,project,response,response_time,row_sel,session_number,squiggle1,squiggle1x,squiggle1y,squiggle2,squiggle2x,squiggle2y,squiggle3,squiggle3x,squiggle3y,squiggle4,squiggle4x,squiggle4y,start_end,starttime,subject_id,target_congruent,task,task_vers,testsquiggle,testsquigglex,testsquiggley,time_practice_delay,time_practice_fixation,time_practice_stimuli,time_practice_study,time_test_delay,time_test_fixation,time_test_stimuli,time_test_study,trial
1,1,0,0,0,0,prac,1,0,z,Thu Sep 11 2025 15:52:04 GMT-0400 (Eastern Daylight Time),181861.89999961853,I,m,1632,1,2,116.bmp,-120,-120,117.bmp,120,-120,118.bmp,-120,120,119.bmp,120,120,10443.60000038147,171418.29999923706,9024,yes,SM,A,116.bmp,-120,-120,163342,157316,165359,159326,,,,,1
3,0,0,1,0,0,prac,1,0,m,Thu Sep 11 2025 15:52:04 GMT-0400 (Eastern Daylight Time),191961.69999980927,I,z,1278,2,2,120.bmp,-120,-120,121.bmp,120,-120,122.bmp,-120,120,123.bmp,120,120,10089.60000038147,181872.0999994278,9024,no,SM,A,123.bmp,-120,120,173792,167769,175809,169776,,,,,2
4,0,0,0,1,1,prac,1,1,m,Thu Sep 11 2025 15:52:04 GMT-0400 (Eastern Daylight Time),202061.89999961853,I,m,1275,3,2,124.bmp,-120,-120,125.bmp,120,-120,126.bmp,-120,120,127.bmp,120,120,10092.10000038147,191969.79999923706,9024,no,SM,A,124.bmp,120,120,183892,177867,185909,179876,,,,,3
2,0,1,0,0,1,prac,1,0,z,Thu Sep 11 2025 15:52:04 GMT-0400 (Eastern Daylight Time),212061.69999980927,I,m,1174,4,2,128.bmp,-120,-120,129.bmp,120,-120,130.bmp,-120,120,131.bmp,120,120,9990.300000190735,202071.39999961853,9024,yes,SM,A,129.bmp,120,-120,193992,187969,196009,189976,,,,,4
3,0,0,1,0,2,prac,1,1,z,Thu Sep 11 2025 15:52:04 GMT-0400 (Eastern Daylight Time),222278.5,I,z,1399,5,2,132.bmp,-120,-120,133.bmp,120,-120,134.bmp,-120,120,135.bmp,120,120,10209.0,212069.5,9024,yes,SM,A,134.bmp,-120,120,203992,197967,206009,199976,,,,,5
1,1,0,0,0,2,prac,1,0,m,Thu Sep 11 2025 15:52:04 GMT-0400 (Eastern Daylight Time),232361.79999923706,I,z,1262,6,2,136.bmp,-120,-120,137.bmp,120,-120,138.bmp,-120,120,139.bmp,120,120,10075.099999427795,222286.69999980927,9024,no,SM,A,139.bmp,-120,-120,214209,208184,216226,210193,,,,,6
2,0,1,0,0,3,prac,1,1,m,Thu Sep 11 2025 15:52:04 GMT-0400 (Eastern Daylight Time),242678.5,I,m,1499,7,2,140.bmp,-120,-120,141.bmp,120,-120,142.bmp,-120,120,143.bmp,120,120,10308.60000038147,232369.89999961853,9024,no,SM,A,140.bmp,120,-120,224292,218267,226309,220276,,,,,7
4,0,0,0,1,3,prac,1,0,z,Thu Sep 11 2025 15:52:04 GMT-0400 (Eastern Daylight Time),252495.0999994278,I,m,990,8,2,144.bmp,-120,-120,145.bmp,120,-120,146.bmp,-120,120,147.bmp,120,120,9809.099999427795,242686.0,9024,yes,SM,A,147.bmp,120,120,234609,228583,236626,230593,,,,,8
1,1,0,0,0,1,prac,2,1,z,Thu Sep 11 2025 15:52:04 GMT-0400 (Eastern Daylight Time),273528.39999961853,I,z,1329,1,2,116.bmp,-120,-120,117.bmp,120,-120,118.bmp,-120,120,119.bmp,120,120,10143.10000038147,263385.29999923706,9024,yes,SM,A,116.bmp,-120,-120,255309,249283,257326,251293,,,,,1
3,0,0,1,0,1,prac,2,0,m,Thu Sep 11 2025 15:52:04 GMT-0400 (Eastern Daylight Time),283827.79999923706,I,z,1468,2,2,120.bmp,-120,-120,121.bmp,120,-120,122.bmp,-120,120,123.bmp,120,120,10289.29999923706,273538.5,9024,no,SM,A,123.bmp,-120,120,265459,259436,267476,261443,,,,,2
4,0,0,0,1,2,prac,2,1,m,Thu Sep 11 2025 15:52:04 GMT-0400 (Eastern Daylight Time),293478.0,I,m,832,3,2,124.bmp,-120,-120,125.bmp,120,-120,126.bmp,-120,120,127.bmp,120,120,9645.800000190735,283832.19999980927,9024,no,SM,A,124.bmp,120,120,275759,269730,277776,271743,,,,,3
2,0,1,0,0,2,prac,2,0,z,Thu Sep 11 2025 15:52:04 GMT-0400 (Eastern Daylight Time),303411.69999980927,I,m,1101,4,2,128.bmp,-120,-120,129.bmp,120,-120,130.bmp,-120,120,131.bmp,120,120,9929.300000190735,293482.39999961853,9024,yes,SM,A,129.bmp,120,-120,285409,279380,287426,281393,,,,,4
3,0,0,1,0,3,prac,2,1,z,Thu Sep 11 2025 15:52:04 GMT-0400 (Eastern Daylight Time),313261.79999923706,I,z,1024,5,2,132.bmp,-120,-120,133.bmp,120,-120,134.bmp,-120,120,135.bmp,120,120,9841.29999923706,303420.5,9024,yes,SM,A,134.bmp,-120,120,295342,289318,297359,291326,,,,,5
1,1,0,0,0,4,prac,2,1,m,Thu Sep 11 2025 15:52:04 GMT-0400 (Eastern Daylight Time),323445.19999980927,I,m,1351,6,2,136.bmp,-120,-120,137.bmp,120,-120,138.bmp,-120,120,139.bmp,120,120,10175.300000190735,313269.89999961853,9024,no,SM,A,139.bmp,-120,-120,305192,299167,307209,301176,,,,,6
2,0,1,0,0,5,prac,2,1,m,Thu Sep 11 2025 15:52:04 GMT-0400 (Eastern Daylight Time),333378.5,I,m,1103,7,2,140.bmp,-120,-120,141.bmp,120,-120,142.bmp,-120,120,143.bmp,120,120,9925.5,323453.0,9024,no,SM,A,140.bmp,120,-120,315376,309350,317393,311359,,,,,7
4,0,0,0,1,6,prac,2,1,z,Thu Sep 11 2025 15:52:04 GMT-0400 (Eastern Daylight Time),344145.0999994278,I,z,1938,8,2,144.bmp,-120,-120,145.bmp,120,-120,146.bmp,-120,120,147.bmp,120,120,10758.89999961853,333386.19999980927,9024,yes,SM,A,147.bmp,120,120,325309,319283,327326,321293,,,,,8
4,0,0,0,1,1,test,1,1,m,Thu Sep 11 2025 15:52:04 GMT-0400 (Eastern Daylight Time),418811.5999994278,I,m,1843,1,2,148.bmp,-120,-120,149.bmp,120,-120,150.bmp,-120,120,143.bmp,120,120,9892.5,408919.0999994278,9024,no,SM,A,150.bmp,120,120,325309,319283,327326,321293,400842.0,394816.0,402859.0,396826.0,1
2,0,1,0,0,2,test,1,1,m,Thu Sep 11 2025 15:52:04 GMT-0400 (Eastern Daylight Time),428395.19999980927,I,m,1529,2,2,101.bmp,-120,-120,102.bmp,120,-120,103.bmp,-120,120,104.bmp,120,120,9576.60000038147,418818.5999994278,9024,no,SM,A,103.bmp,120,-120,325309,319283,327326,321293,410742.0,404716.0,412759.0,406726.0,2
1,1,0,0,0,3,test,1,1,z,Thu Sep 11 2025 15:52:04 GMT-0400 (Eastern Daylight Time),437895.0,I,z,1432,3,2,105.bmp,-120,-120,106.bmp,120,-120,107.bmp,-120,120,108.bmp,120,120,9489.800000190735,428405.19999980927,9024,yes,SM,A,105.bmp,-120,-120,325309,319283,327326,321293,420326.0,414302.0,422343.0,416309.0,3
3,0,0,1,0,4,test,1,1,m,Thu Sep 11 2025 15:52:04 GMT-0400 (Eastern Daylight Time),447461.79999923706,I,m,1501,4,2,109.bmp,-120,-120,110.bmp,120,-120,111.bmp,-120,120,112.bmp,120,120,9558.699999809265,437903.0999994278,9024,no,SM,A,109.bmp,-120,120,325309,319283,327326,321293,429826.0,423800.0,431843.0,425809.0,4
2,0,1,0,0,5,test,1,1,z,Thu Sep 11 2025 15:52:04 GMT-0400 (Eastern Daylight Time),456528.5,I,z,1006,5,2,113.bmp,-120,-120,114.bmp,120,-120,115.bmp,-120,120,116.bmp,120,120,9056.0,447472.5,9024,yes,SM,A,114.bmp,120,-120,325309,319283,327326,321293,439392.0,433370.0,441409.0,435376.0,5
3,0,0,1,0,6,test,1,1,z,Thu Sep 11 2025 15:52:04 GMT-0400 (Eastern Daylight Time),465945.0999994278,I,z,1364,6,2,117.bmp,-120,-120,118.bmp,120,-120,119.bmp,-120,120,120.bmp,120,120,9407.89999961853,456537.19999980927,9024,yes,SM,A,119.bmp,-120,120,325309,319283,327326,321293,448459.0,442434.0,450476.0,444443.0,6
4,0,0,0,1,6,test,1,0,z,Thu Sep 11 2025 15:52:04 GMT-0400 (Eastern Daylight Time),476012.0,I,None,2016,7,2,121.bmp,-120,-120,122.bmp,120,-120,123.bmp,-120,120,124.bmp,120,120,10057.20000076294,465954.79999923706,9024,yes,SM,A,124.bmp,120,120,325309,319283,327326,321293,457876.0,451852.0,459893.0,453859.0,7
2,0,1,0,0,6,test,1,0,m,Thu Sep 11 2025 15:52:04 GMT-0400 (Eastern Daylight Time),485711.79999923706,I,z,1640,8,2,125.bmp,-120,-120,126.bmp,120,-120,127.bmp,-120,120,128.bmp,120,120,9691.5,476020.29999923706,9024,no,SM,A,125.bmp,120,-120,325309,319283,327326,321293,467942.0,461918.0,469960.0,463926.0,8
3,0,0,1,0,6,test,1,0,m,Thu Sep 11 2025 15:52:04 GMT-0400 (Eastern Daylight Time),495245.19999980927,I,z,1477,9,2,129.bmp,-120,-120,130.bmp,120,-120,131.bmp,-120,120,132.bmp,120,120,9525.300000190735,485719.89999961853,9024,no,SM,A,130.bmp,-120,120,325309,319283,327326,321293,477642.0,471617.0,479659.0,473626.0,9
4,0,0,0,1,6,test,1,0,z,Thu Sep 11 2025 15:52:04 GMT-0400 (Eastern Daylight Time),504728.39999961853,I,m,1431,10,2,137.bmp,-120,-120,138.bmp,120,-120,139.bmp,-120,120,140.bmp,120,120,9473.5,495254.89999961853,9024,yes,SM,A,140.bmp,120,120,325309,319283,327326,321293,487176.0,481152.0,489193.0,483159.0,10
3,0,0,1,0,7,test,1,1,z,Thu Sep 11 2025 15:52:04 GMT-0400 (Eastern Daylight Time),514595.29999923706,I,z,1804,11,2,133.bmp,-120,-120,134.bmp,120,-120,135.bmp,-120,120,136.bmp,120,120,9855.699999809265,504739.5999994278,9024,yes,SM,A,135.bmp,-120,120,325309,319283,327326,321293,496659.0,490637.0,498676.0,492643.0,11
2,0,1,0,0,8,test,1,1,m,Thu Sep 11 2025 15:52:04 GMT-0400 (Eastern Daylight Time),524178.5,I,m,1521,12,2,141.bmp,-120,-120,142.bmp,120,-120,143.bmp,-120,120,144.bmp,120,120,9573.60000038147,514604.89999961853,9024,no,SM,A,141.bmp,120,-120,325309,319283,327326,321293,506526.0,500502.0,508543.0,502509.0,12
3,0,0,1,0,8,test,1,0,m,Thu Sep 11 2025 15:52:04 GMT-0400 (Eastern Daylight Time),533495.1999998093,I,z,1250,13,2,145.bmp,-120,-120,146.bmp,120,-120,147.bmp,-120,120,148.bmp,120,120,9306.900000572205,524188.29999923706,9024,no,SM,A,146.bmp,-120,120,325309,319283,327326,321293,516109.0,510086.0,518126.0,512093.0,13
1,1,0,0,0,8,test,1,0,z,Thu Sep 11 2025 15:52:04 GMT-0400 (Eastern Daylight Time),543228.0999994278,I,m,1676,14,2,149.bmp,-120,-120,150.bmp,120,-120,104.bmp,-120,120,101.bmp,120,120,9723.699999809265,533504.3999996185,9024,yes,SM,A,149.bmp,-120,-120,325309,319283,327326,321293,525426.0,519402.0,527443.0,521411.0,14
4,0,0,0,1,9,test,1,1,m,Thu Sep 11 2025 15:52:04 GMT-0400 (Eastern Daylight Time),552695.1999998093,I,m,1400,15,2,110.bmp,-120,-120,111.bmp,120,-120,112.bmp,-120,120,113.bmp,120,120,9462.5,543232.6999998093,9024,no,SM,A,111.bmp,120,120,325309,319283,327326,321293,535159.0,529130.0,537176.0,531142.0,15
1,1,0,0,0,10,test,1,1,m,Thu Sep 11 2025 15:52:04 GMT-0400 (Eastern Daylight Time),562595.2999992371,I,m,1837,16,2,102.bmp,-120,-120,103.bmp,120,-120,104.bmp,-120,120,105.bmp,120,120,9892.89999961853,552702.3999996185,9024,no,SM,A,105.bmp,-120,-120,325309,319283,327326,321293,544626.0,538600.0,546643.0,540610.0,16
3,0,0,1,0,11,test,1,1,m,Thu Sep 11 2025 15:52:04 GMT-0400 (Eastern Daylight Time),572311.7999992371,I,m,1665,17,2,122.bmp,-120,-120,123.bmp,120,-120,124.bmp,-120,120,125.bmp,120,120,9707.0,562604.7999992371,9024,no,SM,A,122.bmp,-120,120,325309,319283,327326,321293,554526.0,548502.0,556543.0,550509.0,17
1,1,0,0,0,12,test,1,1,z,Thu Sep 11 2025 15:52:04 GMT-0400 (Eastern Daylight Time),582078.5999994278,I,z,1708,18,2,106.bmp,-120,-120,107.bmp,120,-120,108.bmp,-120,120,109.bmp,120,120,9760.599999427795,572318.0,9024,yes,SM,A,106.bmp,-120,-120,325309,319283,327326,321293,564242.0,558215.0,566260.0,560225.0,18
2,0,1,0,0,12,test,1,0,z,Thu Sep 11 2025 15:52:04 GMT-0400 (Eastern Daylight Time),591178.3999996185,I,m,1047,19,2,126.bmp,-120,-120,127.bmp,120,-120,128.bmp,-120,120,129.bmp,120,120,9092.199999809265,582086.1999998093,9024,yes,SM,A,127.bmp,120,-120,325309,319283,327326,321293,574009.0,567983.0,576025.0,569993.0,19
3,0,0,1,0,13,test,1,1,z,Thu Sep 11 2025 15:52:04 GMT-0400 (Eastern Daylight Time),600295.7999992371,I,z,1067,20,2,130.bmp,-120,-120,131.bmp,120,-120,132.bmp,-120,120,133.bmp,120,120,9108.79999923706,591187.0,9024,yes,SM,A,132.bmp,-120,120,325309,319283,327326,321293,583109.0,577085.0,585125.0,579092.0,20
1,1,0,0,0,14,test,1,1,m,Thu Sep 11 2025 15:52:04 GMT-0400 (Eastern Daylight Time),609844.5999994278,I,m,1484,21,2,114.bmp,-120,-120,115.bmp,120,-120,116.bmp,-120,120,117.bmp,120,120,9539.39999961853,600305.1999998093,9024,no,SM,A,116.bmp,-120,-120,325309,319283,327326,321293,592226.0,586203.0,594243.0,588209.0,21
4,0,0,0,1,14,test,1,0,z,Thu Sep 11 2025 15:52:04 GMT-0400 (Eastern Daylight Time),618962.0,I,m,1054,22,2,118.bmp,-120,-120,119.bmp,120,-120,120.bmp,-120,120,121.bmp,120,120,9113.60000038147,609848.3999996185,9024,yes,SM,A,121.bmp,120,120,325309,319283,327326,321293,601776.0,595746.0,603793.0,597759.0,22
1,1,0,0,0,15,test,1,1,m,Thu Sep 11 2025 15:52:04 GMT-0400 (Eastern Daylight Time),628445.3999996185,I,m,1426,23,2,134.bmp,-120,-120,135.bmp,120,-120,136.bmp,-120,120,137.bmp,120,120,9475.300000190735,618970.0999994278,9024,no,SM,A,137.bmp,-120,-120,325309,319283,327326,321293,610893.0,604867.0,612909.0,606876.0,23
2,0,1,0,0,16,test,1,1,z,Thu Sep 11 2025 15:52:04 GMT-0400 (Eastern Daylight Time),637995.1999998093,I,z,1495,24,2,142.bmp,-120,-120,143.bmp,120,-120,144.bmp,-120,120,145.bmp,120,120,9540.199999809265,628455.0,9024,yes,SM,A,143.bmp,120,-120,325309,319283,327326,321293,620376.0,614352.0,622393.0,616359.0,24
4,0,0,0,1,17,test,1,1,m,Thu Sep 11 2025 15:52:04 GMT-0400 (Eastern Daylight Time),647095.6999998093,I,m,1049,25,2,146.bmp,-120,-120,147.bmp,120,-120,148.bmp,-120,120,149.bmp,120,120,9093.400000572205,638002.2999992371,9024,no,SM,A,148.bmp,120,120,325309,319283,327326,321293,629926.0,623899.0,631943.0,625909.0,25
1,1,0,0,0,17,test,1,0,z,Thu Sep 11 2025 15:52:04 GMT-0400 (Eastern Daylight Time),656645.3999996185,I,m,1485,26,2,138.bmp,-120,-120,139.bmp,120,-120,140.bmp,-120,120,141.bmp,120,120,9541.699999809265,647103.6999998093,9024,yes,SM,A,138.bmp,-120,-120,325309,319283,327326,321293,639026.0,633001.0,641043.0,635009.0,26
4,0,0,0,1,17,test,1,0,z,Thu Sep 11 2025 15:52:04 GMT-0400 (Eastern Daylight Time),666712.0,I,None,2016,27,2,150.bmp,-120,-120,111.bmp,120,-120,101.bmp,-120,120,102.bmp,120,120,10059.0,656653.0,9024,yes,SM,A,102.bmp,120,120,325309,319283,327326,321293,648576.0,642550.0,650593.0,644559.0,27
3,0,0,1,0,18,test,1,1,m,Thu Sep 11 2025 15:52:04 GMT-0400 (Eastern Daylight Time),676162.0,I,m,1388,28,2,103.bmp,-120,-120,104.bmp,120,-120,105.bmp,-120,120,106.bmp,120,120,9438.60000038147,666723.3999996185,9024,no,SM,A,103.bmp,-120,120,325309,319283,327326,321293,658643.0,652621.0,660660.0,654626.0,28
2,0,1,0,0,18,test,1,0,z,Thu Sep 11 2025 15:52:04 GMT-0400 (Eastern Daylight Time),685395.2999992371,I,m,1170,29,2,107.bmp,-120,-120,108.bmp,120,-120,109.bmp,-120,120,110.bmp,120,120,9224.199999809265,676171.0999994278,9024,yes,SM,A,108.bmp,120,-120,325309,319283,327326,321293,668092.0,662068.0,670110.0,664076.0,29
3,0,0,1,0,18,test,1,0,z,Thu Sep 11 2025 15:52:04 GMT-0400 (Eastern Daylight Time),695012.0999994278,I,m,1553,30,2,111.bmp,-120,-120,112.bmp,120,-120,113.bmp,-120,120,114.bmp,120,120,9608.099999427795,685404.0,9024,yes,SM,A,113.bmp,-120,120,325309,319283,327326,321293,677326.0,671301.0,679343.0,673309.0,30
1,1,0,0,0,18,test,1,0,z,Thu Sep 11 2025 15:52:04 GMT-0400 (Eastern Daylight Time),704311.7999992371,I,m,1248,31,2,115.bmp,-120,-120,116.bmp,120,-120,117.bmp,-120,120,118.bmp,120,120,9292.39999961853,695019.3999996185,9024,yes,SM,A,115.bmp,-120,-120,325309,319283,327326,321293,686942.0,680917.0,688960.0,682926.0,31
2,0,1,0,0,19,test,1,1,m,Thu Sep 11 2025 15:52:04 GMT-0400 (Eastern Daylight Time),714012.1999998093,I,m,1644,32,2,119.bmp,-120,-120,120.bmp,120,-120,121.bmp,-120,120,122.bmp,120,120,9694.400000572205,704317.7999992371,9024,no,SM,A,119.bmp,120,-120,325309,319283,327326,321293,696242.0,690215.0,698260.0,692226.0,32
4,0,0,0,1,19,test,1,0,z,Thu Sep 11 2025 15:52:04 GMT-0400 (Eastern Daylight Time),723328.6999998093,I,m,1256,33,2,131.bmp,-120,-120,132.bmp,120,-120,133.bmp,-120,120,134.bmp,120,120,9309.900000572205,714018.7999992371,9024,yes,SM,A,134.bmp,120,120,325309,319283,327326,321293,705943.0,699916.0,707960.0,701926.0,33
2,0,1,0,0,19,test,1,0,z,Thu Sep 11 2025 15:52:04 GMT-0400 (Eastern Daylight Time),732912.1999998093,I,m,1524,34,2,123.bmp,-120,-120,124.bmp,120,-120,125.bmp,-120,120,126.bmp,120,120,9573.5,723338.6999998093,9024,yes,SM,A,124.bmp,120,-120,325309,319283,327326,321293,715259.0,709236.0,717276.0,711243.0,34
4,0,0,0,1,19,test,1,0,m,Thu Sep 11 2025 15:52:04 GMT-0400 (Eastern Daylight Time),742978.7999992371,I,None,2016,35,2,127.bmp,-120,-120,128.bmp,120,-120,129.bmp,-120,120,130.bmp,120,120,10058.599999427795,732920.1999998093,9024,no,SM,A,129.bmp,120,120,325309,319283,327326,321293,724842.0,718818.0,726860.0,720826.0,35
3,0,0,1,0,20,test,1,1,m,Thu Sep 11 2025 15:52:04 GMT-0400 (Eastern Daylight Time),752512.0,I,m,1474,36,2,135.bmp,-120,-120,136.bmp,120,-120,137.bmp,-120,120,138.bmp,120,120,9526.0,742986.0,9024,no,SM,A,135.bmp,-120,120,325309,319283,327326,321293,734909.0,728883.0,736926.0,730893.0,36
1,1,0,0,0,21,test,1,1,m,Thu Sep 11 2025 15:52:04 GMT-0400 (Eastern Daylight Time),762012.0999994278,I,m,1444,37,2,139.bmp,-120,-120,140.bmp,120,-120,141.bmp,-120,120,142.bmp,120,120,9493.699999809265,752518.3999996185,9024,no,SM,A,140.bmp,-120,-120,325309,319283,327326,321293,744443.0,738416.0,746460.0,740426.0,37
2,0,1,0,0,22,test,1,1,m,Thu Sep 11 2025 15:52:04 GMT-0400 (Eastern Daylight Time),771612.1999998093,I,m,1544,38,2,143.bmp,-120,-120,144.bmp,120,-120,145.bmp,-120,120,146.bmp,120,120,9590.60000038147,762021.5999994278,9024,no,SM,A,145.bmp,120,-120,325309,319283,327326,321293,753943.0,747919.0,755960.0,749926.0,38
4,0,0,0,1,22,test,1,0,z,Thu Sep 11 2025 15:52:04 GMT-0400 (Eastern Daylight Time),781111.7999992371,I,m,1448,39,2,147.bmp,-120,-120,148.bmp,120,-120,149.bmp,-120,120,150.bmp,120,120,9491.5,771620.2999992371,9024,yes,SM,A,150.bmp,120,120,325309,319283,327326,321293,763543.0,757518.0,765559.0,759526.0,39
3,0,0,1,0,22,test,1,0,m,Thu Sep 11 2025 15:52:04 GMT-0400 (Eastern Daylight Time),791178.6999998093,I,None,2016,40,2,104.bmp,-120,-120,105.bmp,120,-120,106.bmp,-120,120,107.bmp,120,120,10059.0,781119.6999998093,9024,no,SM,A,105.bmp,-120,120,325309,319283,327326,321293,773043.0,767017.0,775060.0,769026.0,40
1,1,0,0,0,22,test,1,0,z,Thu Sep 11 2025 15:52:04 GMT-0400 (Eastern Daylight Time),800728.5999994278,I,m,1498,41,2,108.bmp,-120,-120,109.bmp,120,-120,110.bmp,-120,120,111.bmp,120,120,9540.099999427795,791188.5,9024,yes,SM,A,108.bmp,-120,-120,325309,319283,327326,321293,783109.0,777086.0,785126.0,779093.0,41
4,0,0,0,1,22,test,1,0,z,Thu Sep 11 2025 15:52:04 GMT-0400 (Eastern Daylight Time),810795.5,I,None,2016,42,2,112.bmp,-120,-120,113.bmp,120,-120,114.bmp,-120,120,115.bmp,120,120,10059.400000572205,800736.0999994278,9024,yes,SM,A,115.bmp,120,120,325309,319283,327326,321293,792659.0,786633.0,794676.0,788642.0,42
1,1,0,0,0,22,test,1,0,z,Thu Sep 11 2025 15:52:04 GMT-0400 (Eastern Daylight Time),820595.3999996185,I,m,1737,43,2,116.bmp,-120,-120,117.bmp,120,-120,118.bmp,-120,120,119.bmp,120,120,9792.199999809265,810803.1999998093,9024,yes,SM,A,116.bmp,-120,-120,325309,319283,327326,321293,802726.0,796701.0,804743.0,798710.0,43
4,0,0,0,1,23,test,1,1,m,Thu Sep 11 2025 15:52:04 GMT-0400 (Eastern Daylight Time),830212.0999994278,I,m,1553,44,2,104.bmp,-120,-120,101.bmp,120,-120,102.bmp,-120,120,103.bmp,120,120,9605.699999809265,820606.3999996185,9024,no,SM,A,104.bmp,120,120,325309,319283,327326,321293,812526.0,806504.0,814543.0,808510.0,44
1,1,0,0,0,24,test,1,1,m,Thu Sep 11 2025 15:52:04 GMT-0400 (Eastern Daylight Time),839595.3999996185,I,m,1328,45,2,128.bmp,-120,-120,129.bmp,120,-120,130.bmp,-120,120,131.bmp,120,120,9376.699999809265,830218.6999998093,9024,no,SM,A,131.bmp,-120,-120,325309,319283,327326,321293,822143.0,816116.0,824160.0,818126.0,45
1,1,0,0,0,25,test,1,1,m,Thu Sep 11 2025 15:52:04 GMT-0400 (Eastern Daylight Time),849095.3999996185,I,m,1434,46,2,120.bmp,-120,-120,121.bmp,120,-120,122.bmp,-120,120,123.bmp,120,120,9491.5,839603.8999996185,9024,no,SM,A,121.bmp,-120,-120,325309,319283,327326,321293,831526.0,825501.0,833543.0,827510.0,46
3,0,0,1,0,26,test,1,1,z,Thu Sep 11 2025 15:52:04 GMT-0400 (Eastern Daylight Time),858578.7999992371,I,z,1421,47,2,124.bmp,-120,-120,125.bmp,120,-120,126.bmp,-120,120,127.bmp,120,120,9476.199999809265,849102.5999994278,9024,yes,SM,A,126.bmp,-120,120,325309,319283,327326,321293,841026.0,835000.0,843043.0,837010.0,47
3,0,0,1,0,27,test,1,1,z,Thu Sep 11 2025 15:52:04 GMT-0400 (Eastern Daylight Time),867662.0999994278,I,z,1027,48,2,140.bmp,-120,-120,141.bmp,120,-120,142.bmp,-120,120,143.bmp,120,120,9077.300000190735,858584.7999992371,9024,yes,SM,A,142.bmp,-120,120,325309,319283,327326,321293,850509.0,844482.0,852526.0,846493.0,48
2,0,1,0,0,27,test,1,0,z,Thu Sep 11 2025 15:52:04 GMT-0400 (Eastern Daylight Time),876912.0999994278,I,m,1189,49,2,136.bmp,-120,-120,137.bmp,120,-120,138.bmp,-120,120,139.bmp,120,120,9240.0,867672.0999994278,9024,yes,SM,A,137.bmp,120,-120,325309,319283,327326,321293,859593.0,853570.0,861610.0,855576.0,49
3,0,0,1,0,27,test,1,0,m,Thu Sep 11 2025 15:52:04 GMT-0400 (Eastern Daylight Time),886395.1999998093,I,z,1428,50,2,132.bmp,-120,-120,133.bmp,120,-120,134.bmp,-120,120,135.bmp,120,120,9474.800000190735,876920.3999996185,9024,no,SM,A,132.bmp,-120,120,325309,319283,327326,321293,868842.0,862818.0,870860.0,864826.0,50
2,0,1,0,0,27,test,1,0,z,Thu Sep 11 2025 15:52:04 GMT-0400 (Eastern Daylight Time),896228.7999992371,I,m,1769,51,2,144.bmp,-120,-120,145.bmp,120,-120,146.bmp,-120,120,147.bmp,120,120,9828.5,886400.2999992371,9024,yes,SM,A,145.bmp,120,-120,325309,319283,327326,321293,878326.0,872298.0,880343.0,874310.0,51
4,0,0,0,1,28,test,1,1,m,Thu Sep 11 2025 15:52:04 GMT-0400 (Eastern Daylight Time),905712.1999998093,I,m,1424,52,2,148.bmp,-120,-120,149.bmp,120,-120,150.bmp,-120,120,131.bmp,120,120,9476.0,896236.1999998093,9024,no,SM,A,148.bmp,120,120,325309,319283,327326,321293,888159.0,882133.0,890176.0,884143.0,52
3,0,0,1,0,29,test,1,1,z,Thu Sep 11 2025 15:52:04 GMT-0400 (Eastern Daylight Time),915395.5999994278,I,z,1620,53,2,101.bmp,-120,-120,102.bmp,120,-120,103.bmp,-120,120,104.bmp,120,120,9673.699999809265,905721.8999996185,9024,yes,SM,A,103.bmp,-120,120,325309,319283,327326,321293,897643.0,891619.0,899660.0,893626.0,53
1,1,0,0,0,29,test,1,0,m,Thu Sep 11 2025 15:52:04 GMT-0400 (Eastern Daylight Time),925095.5999994278,I,z,1634,54,2,105.bmp,-120,-120,106.bmp,120,-120,107.bmp,-120,120,108.bmp,120,120,9690.099999427795,915405.5,9024,no,SM,A,107.bmp,-120,-120,325309,319283,327326,321293,907326.0,901303.0,909343.0,903310.0,54
4,0,0,0,1,29,test,1,0,z,Thu Sep 11 2025 15:52:04 GMT-0400 (Eastern Daylight Time),935012.1999998093,I,m,1853,55,2,109.bmp,-120,-120,110.bmp,120,-120,111.bmp,-120,120,112.bmp,120,120,9905.900000572205,925106.2999992371,9024,yes,SM,A,112.bmp,120,120,325309,319283,327326,321293,917026.0,911004.0,919043.0,913010.0,55
2,0,1,0,0,30,test,1,1,m,Thu Sep 11 2025 15:52:04 GMT-0400 (Eastern Daylight Time),944578.8999996185,I,m,1504,56,2,113.bmp,-120,-120,114.bmp,120,-120,115.bmp,-120,120,116.bmp,120,120,9559.300000190735,935019.5999994278,9024,no,SM,A,113.bmp,120,-120,325309,319283,327326,321293,926943.0,920917.0,928960.0,922926.0,56
4,0,0,0,1,31,test,1,1,m,Thu Sep 11 2025 15:52:04 GMT-0400 (Eastern Daylight Time),953762.1999998093,I,m,1122,57,2,117.bmp,-120,-120,118.bmp,120,-120,119.bmp,-120,120,120.bmp,120,120,9174.400000572205,944587.7999992371,9024,no,SM,A,118.bmp,120,120,325309,319283,327326,321293,936509.0,930485.0,938526.0,932493.0,57
3,0,0,1,0,32,test,1,1,z,Thu Sep 11 2025 15:52:04 GMT-0400 (Eastern Daylight Time),962812.0,I,z,995,58,2,121.bmp,-120,-120,122.bmp,120,-120,123.bmp,-120,120,124.bmp,120,120,9042.20000076294,953769.7999992371,9024,yes,SM,A,123.bmp,-120,120,325309,319283,327326,321293,945692.0,939667.0,947709.0,941676.0,58
2,0,1,0,0,32,test,1,0,m,Thu Sep 11 2025 15:52:04 GMT-0400 (Eastern Daylight Time),972745.2999992371,I,z,1880,59,2,125.bmp,-120,-120,126.bmp,120,-120,127.bmp,-120,120,128.bmp,120,120,9929.199999809265,962816.0999994278,9024,no,SM,A,128.bmp,120,-120,325309,319283,327326,321293,954743.0,948713.0,956760.0,950726.0,59
1,1,0,0,0,33,test,1,1,z,Thu Sep 11 2025 15:52:04 GMT-0400 (Eastern Daylight Time),982278.7999992371,I,z,1467,60,2,129.bmp,-120,-120,130.bmp,120,-120,131.bmp,-120,120,132.bmp,120,120,9526.599999427795,972752.1999998093,9024,yes,SM,A,129.bmp,-120,-120,325309,319283,327326,321293,964676.0,958650.0,966693.0,960660.0,60
2,0,1,0,0,33,test,1,0,z,Thu Sep 11 2025 15:52:04 GMT-0400 (Eastern Daylight Time),991662.1999998093,I,m,1326,61,2,133.bmp,-120,-120,134.bmp,120,-120,135.bmp,-120,120,136.bmp,120,120,9376.800000190735,982285.3999996185,9024,yes,SM,A,134.bmp,120,-120,325309,319283,327326,321293,974209.0,968183.0,976226.0,970193.0,61
4,0,0,0,1,34,test,1,1,z,Thu Sep 11 2025 15:52:04 GMT-0400 (Eastern Daylight Time),1001312.2999992371,I,z,1591,62,2,141.bmp,-120,-120,142.bmp,120,-120,143.bmp,-120,120,144.bmp,120,120,9640.79999923706,991671.5,9024,yes,SM,A,144.bmp,120,120,325309,319283,327326,321293,983593.0,977569.0,985610.0,979576.0,62
1,1,0,0,0,34,test,1,0,m,Thu Sep 11 2025 15:52:04 GMT-0400 (Eastern Daylight Time),1010445.5,I,z,1093,63,2,145.bmp,-120,-120,146.bmp,120,-120,147.bmp,-120,120,148.bmp,120,120,9123.20000076294,1001322.2999992371,9024,no,SM,A,145.bmp,-120,120,325309,319283,327326,321293,993228.0,987220.0,995243.0,989226.0,63
2,0,1,0,0,35,test,1,1,z,Thu Sep 11 2025 15:52:04 GMT-0400 (Eastern Daylight Time),1019945.3999996185,I,z,1448,64,2,149.bmp,-120,-120,150.bmp,120,-120,112.bmp,-120,120,101.bmp,120,120,9493.300000190735,1010452.0999994278,9024,yes,SM,A,150.bmp,120,-120,325309,319283,327326,321293,1002376.0,996349.0,1004393.0,998360.0,64
4,0,0,0,1,36,test,1,1,m,Thu Sep 11 2025 15:52:04 GMT-0400 (Eastern Daylight Time),1029945.2999992371,I,m,1947,65,2,102.bmp,-120,-120,103.bmp,120,-120,104.bmp,-120,120,105.bmp,120,120,9992.199999809265,1019953.0999994278,9024,no,SM,A,104.bmp,120,120,325309,319283,327326,321293,1011876.0,1005850.0,1013893.0,1007860.0,65
3,0,0,1,0,36,test,1,0,m,Thu Sep 11 2025 15:52:04 GMT-0400 (Eastern Daylight Time),1040012.5,I,None,2016,66,2,106.bmp,-120,-120,107.bmp,120,-120,108.bmp,-120,120,109.bmp,120,120,10058.800000190735,1029953.6999998093,9024,no,SM,A,109.bmp,-120,120,325309,319283,327326,321293,1021876.0,1015851.0,1023893.0,1017860.0,66
2,0,1,0,0,36,test,1,0,m,Thu Sep 11 2025 15:52:04 GMT-0400 (Eastern Daylight Time),1049362.299999237,I,z,1288,67,2,137.bmp,-120,-120,138.bmp,120,-120,139.bmp,-120,120,140.bmp,120,120,9339.199999809265,1040023.0999994278,9024,no,SM,A,139.bmp,120,-120,325309,319283,327326,321293,1031943.0,1025921.0,1033960.0,1027926.0,67
3,0,0,1,0,37,test,1,1,z,Thu Sep 11 2025 15:52:04 GMT-0400 (Eastern Daylight Time),1058945.5999994278,I,z,1523,68,2,110.bmp,-120,-120,111.bmp,120,-120,112.bmp,-120,120,113.bmp,120,120,9573.800000190735,1049371.799999237,9024,yes,SM,A,112.bmp,-120,120,325309,319283,327326,321293,1041293.0,1035269.0,1043310.0,1037276.0,68
1,1,0,0,0,38,test,1,1,m,Thu Sep 11 2025 15:52:04 GMT-0400 (Eastern Daylight Time),1068445.6999998093,I,m,1443,69,2,114.bmp,-120,-120,115.bmp,120,-120,116.bmp,-120,120,117.bmp,120,120,9493.5,1058952.1999998093,9024,no,SM,A,115.bmp,-120,-120,325309,319283,327326,321293,1050876.0,1044849.0,1052893.0,1046860.0,69
2,0,1,0,0,39,test,1,1,m,Thu Sep 11 2025 15:52:04 GMT-0400 (Eastern Daylight Time),1077762.299999237,I,m,1256,70,2,118.bmp,-120,-120,119.bmp,120,-120,120.bmp,-120,120,121.bmp,120,120,9307.5,1068454.799999237,9024,no,SM,A,120.bmp,120,-120,325309,319283,327326,321293,1060376.0,1054352.0,1062393.0,1056360.0,70
4,0,0,0,1,39,test,1,0,z,Thu Sep 11 2025 15:52:04 GMT-0400 (Eastern Daylight Time),1087829.0,I,None,2016,71,2,122.bmp,-120,-120,123.bmp,120,-120,124.bmp,-120,120,125.bmp,120,120,10059.60000038147,1077769.3999996185,9024,yes,SM,A,125.bmp,120,120,325309,319283,327326,321293,1069693.0,1063667.0,1071710.0,1065676.0,71
1,1,0,0,0,40,test,1,1,z,Thu Sep 11 2025 15:52:04 GMT-0400 (Eastern Daylight Time),1096679.0,I,z,800,72,2,126.bmp,-120,-120,127.bmp,120,-120,128.bmp,-120,120,129.bmp,120,120,8841.5,1087837.5,9024,yes,SM,A,126.bmp,-120,-120,325309,319283,327326,321293,1079743.0,1073735.0,1081760.0,1075742.0,72
2,0,1,0,0,41,test,1,1,z,Thu Sep 11 2025 15:52:04 GMT-0400 (Eastern Daylight Time),1106612.299999237,I,z,1870,73,2,130.bmp,-120,-120,131.bmp,120,-120,132.bmp,-120,120,133.bmp,120,120,9922.39999961853,1096689.8999996185,9024,yes,SM,A,131.bmp,120,-120,325309,319283,327326,321293,1088609.0,1082587.0,1090627.0,1084593.0,73
4,0,0,0,1,42,test,1,1,m,Thu Sep 11 2025 15:52:04 GMT-0400 (Eastern Daylight Time),1115928.799999237,I,m,1264,74,2,134.bmp,-120,-120,135.bmp,120,-120,136.bmp,-120,120,137.bmp,120,120,9309.0,1106619.799999237,9024,no,SM,A,136.bmp,120,120,325309,319283,327326,321293,1098543.0,1092517.0,1100560.0,1094527.0,74
2,0,1,0,0,43,test,1,1,m,Thu Sep 11 2025 15:52:04 GMT-0400 (Eastern Daylight Time),1125812.1999998093,I,m,1820,75,2,138.bmp,-120,-120,139.bmp,120,-120,140.bmp,-120,120,141.bmp,120,120,9876.199999809265,1115936.0,9024,no,SM,A,141.bmp,120,-120,325309,319283,327326,321293,1107860.0,1101833.0,1109877.0,1103843.0,75
1,1,0,0,0,44,test,1,1,z,Thu Sep 11 2025 15:52:04 GMT-0400 (Eastern Daylight Time),1135679.0999994278,I,z,1808,76,2,142.bmp,-120,-120,143.bmp,120,-120,144.bmp,-120,120,145.bmp,120,120,9857.39999961853,1125821.6999998093,9024,yes,SM,A,142.bmp,-120,-120,325309,319283,327326,321293,1117743.0,1111719.0,1119760.0,1113726.0,76
3,0,0,1,0,45,test,1,1,z,Thu Sep 11 2025 15:52:04 GMT-0400 (Eastern Daylight Time),1145245.5999994278,I,z,1510,77,2,150.bmp,-120,-120,111.bmp,120,-120,101.bmp,-120,120,102.bmp,120,120,9560.099999427795,1135685.5,9024,yes,SM,A,101.bmp,-120,120,325309,319283,327326,321293,1127610.0,1121583.0,1129627.0,1123593.0,77
1,1,0,0,0,45,test,1,0,m,Thu Sep 11 2025 15:52:04 GMT-0400 (Eastern Daylight Time),1155312.299999237,I,None,2016,78,2,146.bmp,-120,-120,147.bmp,120,-120,148.bmp,-120,120,149.bmp,120,120,10060.199999809265,1145252.0999994278,9024,no,SM,A,147.bmp,-120,-120,325309,319283,327326,321293,1137176.0,1131149.0,1139193.0,1133160.0,78
4,0,0,0,1,46,test,1,1,m,Thu Sep 11 2025 15:52:04 GMT-0400 (Eastern Daylight Time),1164712.0999994278,I,m,1348,79,2,107.bmp,-120,-120,108.bmp,120,-120,109.bmp,-120,120,110.bmp,120,120,9390.89999961853,1155321.1999998093,9024,no,SM,A,107.bmp,120,120,325309,319283,327326,321293,1147243.0,1141218.0,1149260.0,1143227.0,79
3,0,0,1,0,46,test,1,0,m,Thu Sep 11 2025 15:52:04 GMT-0400 (Eastern Daylight Time),1174128.799999237,I,z,1357,80,2,103.bmp,-120,-120,104.bmp,120,-120,105.bmp,-120,120,106.bmp,120,120,9407.599999427795,1164721.1999998093,9024,no,SM,A,106.bmp,-120,120,325309,319283,327326,321293,1156643.0,1150619.0,1158660.0,1152626.0,80
