acc_sum,block,block_c,block_cond,con_img,correct,correct_response,datetime,endtime,face,jitter,line,project,response,response_time,row_sel,session_number,start_end,starttime,subject_id,task,task_vers,trial
1,prac,1,A,haborder.png,1,z,Fri May 09 2025 11:07:58 GMT-0500 (Central Daylight Time),73309.20000004768,CFD-WM-036-018-A.jpg,1900,solid,O,z,883,8,1,3582.0,69727.20000004768,7145,ATS,C,1
2,prac,1,A,haborder.png,1,z,Fri May 09 2025 11:07:58 GMT-0500 (Central Daylight Time),76041.0,CFD-BF-002-018-A.jpg,1200,solid,O,z,716,6,1,6313.799999952316,69727.20000004768,7145,ATS,C,2
3,prac,1,A,haborder.png,1,m,Fri May 09 2025 11:07:58 GMT-0500 (Central Daylight Time),79523.40000003576,CFD-BF-019-004-HC.jpg,2000,solid,O,m,705,5,1,9796.199999988079,69727.20000004768,7145,ATS,C,3
4,prac,1,A,haborder.png,1,m,Fri May 09 2025 11:07:58 GMT-0500 (Central Daylight Time),82625.0,CFD-WM-035-036-HC.jpg,1700,solid,O,m,617,9,1,12897.799999952316,69727.20000004768,7145,ATS,C,4
5,prac,1,A,haborder.png,1,z,Fri May 09 2025 11:07:58 GMT-0500 (Central Daylight Time),85855.0,CFD-WF-037-016-A.jpg,1600,solid,O,z,824,10,1,16127.799999952316,69727.20000004768,7145,ATS,C,5
6,prac,1,A,haborder.png,1,z,Fri May 09 2025 11:07:58 GMT-0500 (Central Daylight Time),88235.40000003576,CFD-WF-023-013-A.jpg,1000,solid,O,z,585,12,1,18508.19999998808,69727.20000004768,7145,ATS,C,6
7,prac,1,A,haborder.png,1,z,Fri May 09 2025 11:07:58 GMT-0500 (Central Daylight Time),91403.60000002384,CFD-BM-043-014-A.jpg,1600,solid,O,z,763,2,1,21676.399999976158,69727.20000004768,7145,ATS,C,7
8,prac,1,A,haborder.png,1,z,Fri May 09 2025 11:07:58 GMT-0500 (Central Daylight Time),93835.90000003576,CFD-BF-031-020-A.jpg,1000,solid,O,z,649,4,1,24108.69999998808,69727.20000004768,7145,ATS,C,8
9,prac,1,A,haborder.png,1,m,Fri May 09 2025 11:07:58 GMT-0500 (Central Daylight Time),96535.30000001192,CFD-WM-028-005-HC.jpg,1400,solid,O,m,507,7,1,26808.099999964237,69727.20000004768,7145,ATS,C,9
10,prac,1,A,haborder.png,1,m,Fri May 09 2025 11:07:58 GMT-0500 (Central Daylight Time),99634.5,CFD-WF-013-009-HC.jpg,1500,solid,O,m,806,11,1,29907.299999952316,69727.20000004768,7145,ATS,C,10
11,prac,1,A,haborder.png,1,m,Fri May 09 2025 11:07:58 GMT-0500 (Central Daylight Time),102884.70000004768,CFD-BM-034-035-HC.jpg,1700,solid,O,m,753,1,1,33157.5,69727.20000004768,7145,ATS,C,11
12,prac,1,A,haborder.png,1,m,Fri May 09 2025 11:07:58 GMT-0500 (Central Daylight Time),105764.10000002384,CFD-BM-022-004-HC.jpg,1500,solid,O,m,594,3,1,36036.89999997616,69727.20000004768,7145,ATS,C,12
1,prac,1,B,mfborder.png,1,z,Fri May 09 2025 11:07:58 GMT-0500 (Central Daylight Time),125826.20000004768,CFD-WF-013-009-HC.jpg,1000,12,O,z,832,dash,1,2616.2000000476837,123210.0,7145,ATS,C,1
2,prac,1,B,mfborder.png,1,m,Fri May 09 2025 11:07:58 GMT-0500 (Central Daylight Time),129224.20000004768,CFD-BM-022-004-HC.jpg,1700,1,O,m,901,dash,1,6014.200000047684,123210.0,7145,ATS,C,2
3,prac,1,B,mfborder.png,1,m,Fri May 09 2025 11:07:58 GMT-0500 (Central Daylight Time),132690.0,CFD-BM-043-014-A.jpg,2000,5,O,m,686,dash,1,9480.0,123210.0,7145,ATS,C,3
4,prac,1,B,mfborder.png,1,m,Fri May 09 2025 11:07:58 GMT-0500 (Central Daylight Time),135405.90000003576,CFD-WM-034-040-A.jpg,1200,6,O,m,719,dash,1,12195.900000035763,123210.0,7145,ATS,C,4
5,prac,1,B,mfborder.png,1,z,Fri May 09 2025 11:07:58 GMT-0500 (Central Daylight Time),138222.20000004768,CFD-WF-037-016-A.jpg,1500,11,O,z,526,dash,1,15012.200000047684,123210.0,7145,ATS,C,5
6,prac,1,B,mfborder.png,1,m,Fri May 09 2025 11:07:58 GMT-0500 (Central Daylight Time),141820.70000004768,CFD-WM-035-036-HC.jpg,1600,10,O,m,1203,dash,1,18610.700000047684,123210.0,7145,ATS,C,6
7,prac,1,B,mfborder.png,1,m,Fri May 09 2025 11:07:58 GMT-0500 (Central Daylight Time),144703.20000004768,CFD-BM-021-026-A.jpg,1600,2,O,m,483,dash,1,21493.200000047684,123210.0,7145,ATS,C,7
8,prac,1,B,mfborder.png,1,m,Fri May 09 2025 11:07:58 GMT-0500 (Central Daylight Time),148152.10000002384,CFD-WM-036-018-A.jpg,1700,9,O,m,950,dash,1,24942.100000023842,123210.0,7145,ATS,C,8
9,prac,1,B,mfborder.png,1,z,Fri May 09 2025 11:07:58 GMT-0500 (Central Daylight Time),151500.30000001192,CFD-WF-001-010-HC.jpg,1900,8,O,z,653,dash,1,28290.30000001192,123210.0,7145,ATS,C,9
10,prac,1,B,mfborder.png,1,z,Fri May 09 2025 11:07:58 GMT-0500 (Central Daylight Time),153784.10000002384,CFD-BF-031-020-A.jpg,1000,4,O,z,492,dash,1,30574.100000023842,123210.0,7145,ATS,C,10
11,prac,1,B,mfborder.png,1,z,Fri May 09 2025 11:07:58 GMT-0500 (Central Daylight Time),156602.10000002384,CFD-BF-019-004-HC.jpg,1400,7,O,z,616,dash,1,33392.10000002384,123210.0,7145,ATS,C,11
12,prac,1,B,mfborder.png,1,z,Fri May 09 2025 11:07:58 GMT-0500 (Central Daylight Time),159847.30000001192,CFD-BF-042-031-HC.jpg,1500,3,O,z,949,dash,1,36637.30000001192,123210.0,7145,ATS,C,12
1,test,1,A,haborder.png,1,m,Fri May 09 2025 11:07:58 GMT-0500 (Central Daylight Time),178875.5,CFD-BF-019-004-HC.jpg,2000,solid,O,m,788,5,1,2813.699999988079,176061.80000001192,7145,ATS,C,1
2,test,1,A,haborder.png,1,z,Fri May 09 2025 11:07:58 GMT-0500 (Central Daylight Time),181258.30000001192,CFD-WM-036-018-A.jpg,1900,solid,O,z,458,8,1,5196.5,176061.80000001192,7145,ATS,C,2
3,test,1,A,haborder.png,1,m,Fri May 09 2025 11:07:58 GMT-0500 (Central Daylight Time),183474.5,CFD-WM-035-036-HC.jpg,1700,solid,O,m,491,9,1,7412.699999988079,176061.80000001192,7145,ATS,C,3
4,test,1,A,haborder.png,1,z,Fri May 09 2025 11:07:58 GMT-0500 (Central Daylight Time),185657.30000001192,CFD-BM-043-014-A.jpg,1600,solid,O,z,556,2,1,9595.5,176061.80000001192,7145,ATS,C,4
5,test,1,A,haborder.png,1,m,Fri May 09 2025 11:07:58 GMT-0500 (Central Daylight Time),188040.20000004768,CFD-BM-034-035-HC.jpg,1700,solid,O,m,651,1,1,11978.400000035763,176061.80000001192,7145,ATS,C,5
6,test,1,A,haborder.png,1,m,Fri May 09 2025 11:07:58 GMT-0500 (Central Daylight Time),190105.70000004768,CFD-BM-022-004-HC.jpg,1500,solid,O,m,541,3,1,14043.900000035763,176061.80000001192,7145,ATS,C,6
7,test,1,A,haborder.png,1,m,Fri May 09 2025 11:07:58 GMT-0500 (Central Daylight Time),192157.5,CFD-WF-013-009-HC.jpg,1500,solid,O,m,534,11,1,16095.699999988079,176061.80000001192,7145,ATS,C,7
8,test,1,A,haborder.png,1,z,Fri May 09 2025 11:07:58 GMT-0500 (Central Daylight Time),193854.10000002384,CFD-BF-031-020-A.jpg,1000,solid,O,z,669,4,1,17792.30000001192,176061.80000001192,7145,ATS,C,8
9,test,1,A,haborder.png,1,z,Fri May 09 2025 11:07:58 GMT-0500 (Central Daylight Time),195987.40000003576,CFD-WF-037-016-A.jpg,1600,solid,O,z,504,10,1,19925.600000023842,176061.80000001192,7145,ATS,C,9
10,test,1,A,haborder.png,1,m,Fri May 09 2025 11:07:58 GMT-0500 (Central Daylight Time),198287.10000002384,CFD-WM-035-036-HC.jpg,1700,solid,O,m,570,9,1,22225.30000001192,176061.80000001192,7145,ATS,C,10
11,test,1,A,haborder.png,1,m,Fri May 09 2025 11:07:58 GMT-0500 (Central Daylight Time),200502.0,CFD-BM-034-035-HC.jpg,1700,solid,O,m,495,1,1,24440.19999998808,176061.80000001192,7145,ATS,C,11
12,test,1,A,haborder.png,1,m,Fri May 09 2025 11:07:58 GMT-0500 (Central Daylight Time),202567.0,CFD-WF-013-009-HC.jpg,1500,solid,O,m,540,11,1,26505.19999998808,176061.80000001192,7145,ATS,C,12
13,test,1,A,haborder.png,1,m,Fri May 09 2025 11:07:58 GMT-0500 (Central Daylight Time),204584.0,CFD-WM-028-005-HC.jpg,1400,solid,O,m,593,7,1,28522.19999998808,176061.80000001192,7145,ATS,C,13
14,test,1,A,haborder.png,1,z,Fri May 09 2025 11:07:58 GMT-0500 (Central Daylight Time),206184.0,CFD-WF-023-013-A.jpg,1000,solid,O,z,576,12,1,30122.19999998808,176061.80000001192,7145,ATS,C,14
15,test,1,A,haborder.png,1,m,Fri May 09 2025 11:07:58 GMT-0500 (Central Daylight Time),208284.10000002384,CFD-BM-022-004-HC.jpg,1500,solid,O,m,583,3,1,32222.30000001192,176061.80000001192,7145,ATS,C,15
16,test,1,A,haborder.png,1,z,Fri May 09 2025 11:07:58 GMT-0500 (Central Daylight Time),210481.80000001192,CFD-WF-037-016-A.jpg,1600,solid,O,z,573,10,1,34420.0,176061.80000001192,7145,ATS,C,16
17,test,1,A,haborder.png,1,m,Fri May 09 2025 11:07:58 GMT-0500 (Central Daylight Time),213282.30000001192,CFD-BF-019-004-HC.jpg,2000,solid,O,m,782,5,1,37220.5,176061.80000001192,7145,ATS,C,17
18,test,1,A,haborder.png,1,z,Fri May 09 2025 11:07:58 GMT-0500 (Central Daylight Time),215330.70000004768,CFD-BF-002-018-A.jpg,1200,solid,O,z,823,6,1,39268.90000003576,176061.80000001192,7145,ATS,C,18
19,test,1,A,haborder.png,1,z,Fri May 09 2025 11:07:58 GMT-0500 (Central Daylight Time),217064.0,CFD-BF-002-018-A.jpg,1200,solid,O,z,502,6,1,41002.19999998808,176061.80000001192,7145,ATS,C,19
20,test,1,A,haborder.png,1,z,Fri May 09 2025 11:07:58 GMT-0500 (Central Daylight Time),219696.40000003576,CFD-WM-036-018-A.jpg,1900,solid,O,z,702,8,1,43634.60000002384,176061.80000001192,7145,ATS,C,20
21,test,1,A,haborder.png,1,m,Fri May 09 2025 11:07:58 GMT-0500 (Central Daylight Time),221527.30000001192,CFD-WM-028-005-HC.jpg,1400,solid,O,m,409,7,1,45465.5,176061.80000001192,7145,ATS,C,21
22,test,1,A,haborder.png,1,z,Fri May 09 2025 11:07:58 GMT-0500 (Central Daylight Time),223195.0,CFD-WF-023-013-A.jpg,1000,solid,O,z,638,12,1,47133.19999998808,176061.80000001192,7145,ATS,C,22
22,test,1,A,haborder.png,0,z,Fri May 09 2025 11:07:58 GMT-0500 (Central Daylight Time),225644.80000001192,CFD-BM-043-014-A.jpg,1600,solid,O,m,821,2,1,49583.0,176061.80000001192,7145,ATS,C,23
23,test,1,A,haborder.png,1,z,Fri May 09 2025 11:07:58 GMT-0500 (Central Daylight Time),227326.60000002384,CFD-BF-031-020-A.jpg,1000,solid,O,z,661,4,1,51264.80000001192,176061.80000001192,7145,ATS,C,24
1,test,1,B,mfborder.png,1,m,Fri May 09 2025 11:07:58 GMT-0500 (Central Daylight Time),236075.0,CFD-WM-034-040-A.jpg,1200,dash,O,m,694,6,1,1933.699999988079,234141.30000001192,7145,ATS,C,1
2,test,1,B,mfborder.png,1,m,Fri May 09 2025 11:07:58 GMT-0500 (Central Daylight Time),238637.80000001192,CFD-BM-043-014-A.jpg,2000,dash,O,m,542,5,1,4496.5,234141.30000001192,7145,ATS,C,2
3,test,1,B,mfborder.png,1,z,Fri May 09 2025 11:07:58 GMT-0500 (Central Daylight Time),240688.60000002384,CFD-WF-037-016-A.jpg,1500,dash,O,z,526,11,1,6547.300000011921,234141.30000001192,7145,ATS,C,3
4,test,1,B,mfborder.png,1,z,Fri May 09 2025 11:07:58 GMT-0500 (Central Daylight Time),242221.30000001192,CFD-WF-013-009-HC.jpg,1000,dash,O,z,503,12,1,8080.0,234141.30000001192,7145,ATS,C,4
5,test,1,B,mfborder.png,1,m,Fri May 09 2025 11:07:58 GMT-0500 (Central Daylight Time),244304.40000003576,CFD-BM-021-026-A.jpg,1600,dash,O,m,450,2,1,10163.100000023842,234141.30000001192,7145,ATS,C,5
6,test,1,B,mfborder.png,1,m,Fri May 09 2025 11:07:58 GMT-0500 (Central Daylight Time),246121.80000001192,CFD-WM-034-040-A.jpg,1200,dash,O,m,600,6,1,11980.5,234141.30000001192,7145,ATS,C,6
7,test,1,B,mfborder.png,1,m,Fri May 09 2025 11:07:58 GMT-0500 (Central Daylight Time),248220.90000003576,CFD-WM-035-036-HC.jpg,1600,dash,O,m,472,10,1,14079.600000023842,234141.30000001192,7145,ATS,C,7
8,test,1,B,mfborder.png,1,m,Fri May 09 2025 11:07:58 GMT-0500 (Central Daylight Time),250385.20000004768,CFD-WM-036-018-A.jpg,1700,dash,O,m,441,9,1,16243.900000035763,234141.30000001192,7145,ATS,C,8
9,test,1,B,mfborder.png,1,z,Fri May 09 2025 11:07:58 GMT-0500 (Central Daylight Time),251884.5,CFD-BF-031-020-A.jpg,1000,dash,O,z,479,4,1,17743.19999998808,234141.30000001192,7145,ATS,C,9
10,test,1,B,mfborder.png,1,z,Fri May 09 2025 11:07:58 GMT-0500 (Central Daylight Time),253301.40000003576,CFD-BF-031-020-A.jpg,1000,dash,O,z,387,4,1,19160.100000023842,234141.30000001192,7145,ATS,C,10
11,test,1,B,mfborder.png,1,m,Fri May 09 2025 11:07:58 GMT-0500 (Central Daylight Time),255367.60000002384,CFD-WM-035-036-HC.jpg,1600,dash,O,m,443,10,1,21226.30000001192,234141.30000001192,7145,ATS,C,11
12,test,1,B,mfborder.png,1,z,Fri May 09 2025 11:07:58 GMT-0500 (Central Daylight Time),257451.20000004768,CFD-BF-019-004-HC.jpg,1400,dash,O,z,655,7,1,23309.900000035763,234141.30000001192,7145,ATS,C,12
13,test,1,B,mfborder.png,1,m,Fri May 09 2025 11:07:58 GMT-0500 (Central Daylight Time),259549.10000002384,CFD-BM-021-026-A.jpg,1600,dash,O,m,482,2,1,25407.80000001192,234141.30000001192,7145,ATS,C,13
14,test,1,B,mfborder.png,1,m,Fri May 09 2025 11:07:58 GMT-0500 (Central Daylight Time),261781.70000004768,CFD-WM-036-018-A.jpg,1700,dash,O,m,511,9,1,27640.400000035763,234141.30000001192,7145,ATS,C,14
15,test,1,B,mfborder.png,1,m,Fri May 09 2025 11:07:58 GMT-0500 (Central Daylight Time),263965.40000003576,CFD-BM-022-004-HC.jpg,1700,dash,O,m,454,1,1,29824.100000023842,234141.30000001192,7145,ATS,C,15
16,test,1,B,mfborder.png,1,z,Fri May 09 2025 11:07:58 GMT-0500 (Central Daylight Time),265931.5,CFD-WF-037-016-A.jpg,1500,dash,O,z,440,11,1,31790.19999998808,234141.30000001192,7145,ATS,C,16
17,test,1,B,mfborder.png,1,z,Fri May 09 2025 11:07:58 GMT-0500 (Central Daylight Time),268597.60000002384,CFD-WF-001-010-HC.jpg,1900,dash,O,z,747,8,1,34456.30000001192,234141.30000001192,7145,ATS,C,17
18,test,1,B,mfborder.png,1,z,Fri May 09 2025 11:07:58 GMT-0500 (Central Daylight Time),270628.0,CFD-BF-019-004-HC.jpg,1400,dash,O,z,612,7,1,36486.69999998808,234141.30000001192,7145,ATS,C,18
19,test,1,B,mfborder.png,1,m,Fri May 09 2025 11:07:58 GMT-0500 (Central Daylight Time),272795.2000000477,CFD-BM-022-004-HC.jpg,1700,dash,O,m,446,1,1,38653.90000003576,234141.30000001192,7145,ATS,C,19
20,test,1,B,mfborder.png,1,z,Fri May 09 2025 11:07:58 GMT-0500 (Central Daylight Time),275011.10000002384,CFD-BF-042-031-HC.jpg,1500,dash,O,z,689,3,1,40869.80000001192,234141.30000001192,7145,ATS,C,20
21,test,1,B,mfborder.png,1,m,Fri May 09 2025 11:07:58 GMT-0500 (Central Daylight Time),277542.60000002384,CFD-BM-043-014-A.jpg,2000,dash,O,m,502,5,1,43401.30000001192,234141.30000001192,7145,ATS,C,21
22,test,1,B,mfborder.png,1,z,Fri May 09 2025 11:07:58 GMT-0500 (Central Daylight Time),279809.2000000477,CFD-BF-042-031-HC.jpg,1500,dash,O,z,740,3,1,45667.90000003576,234141.30000001192,7145,ATS,C,22
23,test,1,B,mfborder.png,1,z,Fri May 09 2025 11:07:58 GMT-0500 (Central Daylight Time),281409.8000000119,CFD-WF-013-009-HC.jpg,1000,dash,O,z,575,12,1,47268.5,234141.30000001192,7145,ATS,C,23
24,test,1,B,mfborder.png,1,z,Fri May 09 2025 11:07:58 GMT-0500 (Central Daylight Time),283858.40000003576,CFD-WF-001-010-HC.jpg,1900,dash,O,z,524,8,1,49717.10000002384,234141.30000001192,7145,ATS,C,24
1,prac,1,C,mfborder.png,1,z,Fri May 09 2025 11:07:58 GMT-0500 (Central Daylight Time),304654.5,CFD-WF-013-009-HC.jpg,1600,dash,O,z,1269,8,1,3668.099999964237,300986.40000003576,7145,ATS,C,1
1,prac,1,C,mfborder.png,0,m,Fri May 09 2025 11:07:58 GMT-0500 (Central Daylight Time),308152.2000000477,CFD-BM-043-014-A.jpg,1200,dash,O,None,1517,8,1,7165.800000011921,300986.40000003576,7145,ATS,C,2
2,prac,1,C,mfborder.png,1,z,Fri May 09 2025 11:07:58 GMT-0500 (Central Daylight Time),310733.60000002384,CFD-BF-019-004-HC.jpg,1000,dash,O,z,791,8,1,9747.199999988079,300986.40000003576,7145,ATS,C,3
3,prac,1,C,haborder.png,1,m,Fri May 09 2025 11:07:58 GMT-0500 (Central Daylight Time),313533.90000003576,CFD-WM-028-005-HC.jpg,1400,solid,O,m,627,8,1,12547.5,300986.40000003576,7145,ATS,C,4
4,prac,1,C,haborder.png,1,z,Fri May 09 2025 11:07:58 GMT-0500 (Central Daylight Time),317130.3000000119,CFD-BF-031-020-A.jpg,1900,dash,O,z,910,8,1,16143.899999976158,300986.40000003576,7145,ATS,C,5
5,prac,1,C,haborder.png,1,m,Fri May 09 2025 11:07:58 GMT-0500 (Central Daylight Time),319698.0,CFD-WM-028-005-HC.jpg,1000,dash,O,m,780,8,1,18711.599999964237,300986.40000003576,7145,ATS,C,6
6,prac,1,C,mfborder.png,1,m,Fri May 09 2025 11:07:58 GMT-0500 (Central Daylight Time),322947.8000000119,CFD-WM-036-018-A.jpg,1700,solid,O,m,750,8,1,21961.399999976158,300986.40000003576,7145,ATS,C,7
7,prac,1,C,haborder.png,1,m,Fri May 09 2025 11:07:58 GMT-0500 (Central Daylight Time),326111.7000000477,CFD-BM-022-004-HC.jpg,1500,solid,O,m,851,8,1,25125.30000001192,300986.40000003576,7145,ATS,C,8
8,prac,1,C,mfborder.png,1,m,Fri May 09 2025 11:07:58 GMT-0500 (Central Daylight Time),330061.2000000477,CFD-BM-034-035-HC.jpg,2000,solid,O,m,1153,8,1,29074.80000001192,300986.40000003576,7145,ATS,C,9
9,prac,1,C,haborder.png,1,z,Fri May 09 2025 11:07:58 GMT-0500 (Central Daylight Time),333111.40000003576,CFD-WF-037-016-A.jpg,1600,dash,O,z,668,8,1,32125.0,300986.40000003576,7145,ATS,C,10
9,prac,1,C,mfborder.png,0,z,Fri May 09 2025 11:07:58 GMT-0500 (Central Daylight Time),336908.5,CFD-WF-023-013-A.jpg,1500,solid,O,None,1515,8,1,35922.09999996424,300986.40000003576,7145,ATS,C,11
10,prac,1,C,haborder.png,1,z,Fri May 09 2025 11:07:58 GMT-0500 (Central Daylight Time),340291.5,CFD-BF-002-018-A.jpg,1700,solid,O,z,898,8,1,39305.09999996424,300986.40000003576,7145,ATS,C,12
1,test,1,C,haborder.png,1,m,Fri May 09 2025 11:07:58 GMT-0500 (Central Daylight Time),350104.10000002384,CFD-WF-001-010-HC.jpg,1500,solid,O,m,1468,11,1,2996.800000011921,347107.3000000119,7145,ATS,C,1
1,test,1,C,haborder.png,0,z,Fri May 09 2025 11:07:58 GMT-0500 (Central Daylight Time),353537.60000002384,CFD-BM-043-014-A.jpg,1900,solid,O,None,1516,8,1,6430.300000011921,347107.3000000119,7145,ATS,C,2
2,test,1,C,mfborder.png,1,z,Fri May 09 2025 11:07:58 GMT-0500 (Central Daylight Time),355903.2000000477,CFD-BF-042-031-HC.jpg,1700,dash,O,z,645,1,1,8795.900000035763,347107.3000000119,7145,ATS,C,3
3,test,1,C,haborder.png,1,z,Fri May 09 2025 11:07:58 GMT-0500 (Central Daylight Time),359084.40000003576,CFD-BM-043-014-A.jpg,1900,solid,O,z,1267,8,1,11977.100000023842,347107.3000000119,7145,ATS,C,4
3,test,1,C,mfborder.png,0,m,Fri May 09 2025 11:07:58 GMT-0500 (Central Daylight Time),362617.5,CFD-WM-034-040-A.jpg,2000,dash,O,None,1509,5,1,15510.199999988079,347107.3000000119,7145,ATS,C,5
4,test,1,C,mfborder.png,1,z,Fri May 09 2025 11:07:58 GMT-0500 (Central Daylight Time),365216.10000002384,CFD-BF-031-020-A.jpg,1600,dash,O,z,968,2,1,18108.80000001192,347107.3000000119,7145,ATS,C,6
5,test,1,C,mfborder.png,1,z,Fri May 09 2025 11:07:58 GMT-0500 (Central Daylight Time),368199.10000002384,CFD-WF-037-016-A.jpg,1500,dash,O,z,1452,3,1,21091.80000001192,347107.3000000119,7145,ATS,C,7
5,test,1,C,haborder.png,0,z,Fri May 09 2025 11:07:58 GMT-0500 (Central Daylight Time),370613.90000003576,CFD-BM-021-026-A.jpg,1700,solid,O,m,685,9,1,23506.600000023842,347107.3000000119,7145,ATS,C,8
5,test,1,C,haborder.png,0,m,Fri May 09 2025 11:07:58 GMT-0500 (Central Daylight Time),372962.40000003576,CFD-WF-001-010-HC.jpg,1500,solid,O,z,821,11,1,25855.100000023842,347107.3000000119,7145,ATS,C,9
5,test,1,C,haborder.png,0,m,Fri May 09 2025 11:07:58 GMT-0500 (Central Daylight Time),375062.60000002384,CFD-WF-013-009-HC.jpg,1000,solid,O,z,1070,12,1,27955.30000001192,347107.3000000119,7145,ATS,C,10
6,test,1,C,mfborder.png,1,m,Fri May 09 2025 11:07:58 GMT-0500 (Central Daylight Time),377694.0,CFD-BM-022-004-HC.jpg,1200,dash,O,m,1408,6,1,30586.69999998808,347107.3000000119,7145,ATS,C,11
7,test,1,C,mfborder.png,1,z,Fri May 09 2025 11:07:58 GMT-0500 (Central Daylight Time),380128.60000002384,CFD-BF-031-020-A.jpg,1600,dash,O,z,809,2,1,33021.30000001192,347107.3000000119,7145,ATS,C,12
8,test,1,C,haborder.png,1,z,Fri May 09 2025 11:07:58 GMT-0500 (Central Daylight Time),382559.2000000477,CFD-WM-036-018-A.jpg,1400,solid,O,z,1008,7,1,35451.90000003576,347107.3000000119,7145,ATS,C,13
9,test,1,C,haborder.png,1,z,Fri May 09 2025 11:07:58 GMT-0500 (Central Daylight Time),385108.60000002384,CFD-BM-021-026-A.jpg,1700,solid,O,z,818,9,1,38001.30000001192,347107.3000000119,7145,ATS,C,14
10,test,1,C,haborder.png,1,m,Fri May 09 2025 11:07:58 GMT-0500 (Central Daylight Time),388158.0,CFD-BF-019-004-HC.jpg,1600,solid,O,m,1419,10,1,41050.69999998808,347107.3000000119,7145,ATS,C,15
10,test,1,C,haborder.png,0,z,Fri May 09 2025 11:07:58 GMT-0500 (Central Daylight Time),391090.8000000119,CFD-WM-036-018-A.jpg,1400,solid,O,None,1516,7,1,43983.5,347107.3000000119,7145,ATS,C,16
10,test,1,C,haborder.png,0,m,Fri May 09 2025 11:07:58 GMT-0500 (Central Daylight Time),392724.0,CFD-WF-013-009-HC.jpg,1000,solid,O,z,615,12,1,45616.69999998808,347107.3000000119,7145,ATS,C,17
10,test,1,C,mfborder.png,0,m,Fri May 09 2025 11:07:58 GMT-0500 (Central Daylight Time),395256.0,CFD-WM-035-036-HC.jpg,1000,dash,O,None,1508,4,1,48148.69999998808,347107.3000000119,7145,ATS,C,18
11,test,1,C,mfborder.png,1,z,Fri May 09 2025 11:07:58 GMT-0500 (Central Daylight Time),397724.2000000477,CFD-BF-042-031-HC.jpg,1700,dash,O,z,750,1,1,50616.90000003576,347107.3000000119,7145,ATS,C,19
12,test,1,C,mfborder.png,1,z,Fri May 09 2025 11:07:58 GMT-0500 (Central Daylight Time),400404.3000000119,CFD-WF-037-016-A.jpg,1500,dash,O,z,1164,3,1,53297.0,347107.3000000119,7145,ATS,C,20
13,test,1,C,mfborder.png,1,m,Fri May 09 2025 11:07:58 GMT-0500 (Central Daylight Time),402653.0,CFD-WM-035-036-HC.jpg,1000,dash,O,m,1220,4,1,55545.69999998808,347107.3000000119,7145,ATS,C,21
13,test,1,C,mfborder.png,0,m,Fri May 09 2025 11:07:58 GMT-0500 (Central Daylight Time),406019.40000003576,CFD-WM-034-040-A.jpg,2000,dash,O,z,1338,5,1,58912.10000002384,347107.3000000119,7145,ATS,C,22
13,test,1,C,mfborder.png,0,m,Fri May 09 2025 11:07:58 GMT-0500 (Central Daylight Time),408702.0,CFD-BM-022-004-HC.jpg,1200,dash,O,z,1452,6,1,61594.69999998808,347107.3000000119,7145,ATS,C,23
14,test,1,C,haborder.png,1,m,Fri May 09 2025 11:07:58 GMT-0500 (Central Daylight Time),411634.3000000119,CFD-BF-019-004-HC.jpg,1600,solid,O,m,1307,10,1,64527.0,347107.3000000119,7145,ATS,C,24
0,test,2,C,haborder.png,0,z,Fri May 09 2025 11:07:58 GMT-0500 (Central Daylight Time),418049.10000002384,CFD-BF-002-018-A.jpg,1900,solid,O,None,1506,8,1,3433.0,414616.10000002384,7145,ATS,C,1
0,test,2,C,mfborder.png,0,z,Fri May 09 2025 11:07:58 GMT-0500 (Central Daylight Time),421181.7000000477,CFD-WF-023-013-A.jpg,1600,dash,O,None,1514,2,1,6565.600000023842,414616.10000002384,7145,ATS,C,2
0,test,2,C,mfborder.png,0,m,Fri May 09 2025 11:07:58 GMT-0500 (Central Daylight Time),424714.2000000477,CFD-BM-043-014-A.jpg,2000,dash,O,None,1516,5,1,10098.100000023842,414616.10000002384,7145,ATS,C,3
1,test,2,C,mfborder.png,1,m,Fri May 09 2025 11:07:58 GMT-0500 (Central Daylight Time),426763.40000003576,CFD-WM-036-018-A.jpg,1200,dash,O,m,832,6,1,12147.300000011921,414616.10000002384,7145,ATS,C,4
2,test,2,C,haborder.png,1,m,Fri May 09 2025 11:07:58 GMT-0500 (Central Daylight Time),429177.0,CFD-BM-022-004-HC.jpg,1600,solid,O,m,796,10,1,14560.899999976158,414616.10000002384,7145,ATS,C,5
3,test,2,C,mfborder.png,1,z,Fri May 09 2025 11:07:58 GMT-0500 (Central Daylight Time),431278.60000002384,CFD-BF-019-004-HC.jpg,1500,dash,O,z,570,3,1,16662.5,414616.10000002384,7145,ATS,C,6
4,test,2,C,mfborder.png,1,m,Fri May 09 2025 11:07:58 GMT-0500 (Central Daylight Time),433460.7000000477,CFD-BM-034-035-HC.jpg,1000,dash,O,m,1154,4,1,18844.600000023842,414616.10000002384,7145,ATS,C,7
4,test,2,C,mfborder.png,0,m,Fri May 09 2025 11:07:58 GMT-0500 (Central Daylight Time),436193.8000000119,CFD-WM-036-018-A.jpg,1200,dash,O,None,1514,6,1,21577.69999998808,414616.10000002384,7145,ATS,C,8
4,test,2,C,mfborder.png,0,m,Fri May 09 2025 11:07:58 GMT-0500 (Central Daylight Time),439010.3000000119,CFD-BM-043-014-A.jpg,2000,dash,O,z,800,5,1,24394.19999998808,414616.10000002384,7145,ATS,C,9
5,test,2,C,haborder.png,1,m,Fri May 09 2025 11:07:58 GMT-0500 (Central Daylight Time),441427.5,CFD-WM-028-005-HC.jpg,1500,solid,O,m,902,11,1,26811.399999976158,414616.10000002384,7145,ATS,C,10
6,test,2,C,haborder.png,1,z,Fri May 09 2025 11:07:58 GMT-0500 (Central Daylight Time),443775.60000002384,CFD-BF-031-020-A.jpg,1400,solid,O,z,911,7,1,29159.5,414616.10000002384,7145,ATS,C,11
7,test,2,C,mfborder.png,1,z,Fri May 09 2025 11:07:58 GMT-0500 (Central Daylight Time),446674.2000000477,CFD-WF-013-009-HC.jpg,1700,dash,O,z,1165,1,1,32058.100000023842,414616.10000002384,7145,ATS,C,12
8,test,2,C,haborder.png,1,z,Fri May 09 2025 11:07:58 GMT-0500 (Central Daylight Time),449372.2000000477,CFD-WF-037-016-A.jpg,1700,solid,O,z,972,9,1,34756.10000002384,414616.10000002384,7145,ATS,C,13
9,test,2,C,mfborder.png,1,z,Fri May 09 2025 11:07:58 GMT-0500 (Central Daylight Time),452138.7000000477,CFD-WF-023-013-A.jpg,1600,dash,O,z,1140,2,1,37522.60000002384,414616.10000002384,7145,ATS,C,14
10,test,2,C,haborder.png,1,m,Fri May 09 2025 11:07:58 GMT-0500 (Central Daylight Time),454921.2000000477,CFD-BM-022-004-HC.jpg,1600,solid,O,m,1149,10,1,40305.10000002384,414616.10000002384,7145,ATS,C,15
11,test,2,C,mfborder.png,1,z,Fri May 09 2025 11:07:58 GMT-0500 (Central Daylight Time),457602.90000003576,CFD-WF-013-009-HC.jpg,1700,dash,O,z,956,1,1,42986.80000001192,414616.10000002384,7145,ATS,C,16
12,test,2,C,haborder.png,1,z,Fri May 09 2025 11:07:58 GMT-0500 (Central Daylight Time),460770.8000000119,CFD-WF-037-016-A.jpg,1700,solid,O,z,1450,9,1,46154.69999998808,414616.10000002384,7145,ATS,C,17
12,test,2,C,mfborder.png,0,m,Fri May 09 2025 11:07:58 GMT-0500 (Central Daylight Time),463302.7000000477,CFD-BM-034-035-HC.jpg,1000,dash,O,None,1515,4,1,48686.60000002384,414616.10000002384,7145,ATS,C,18
13,test,2,C,haborder.png,1,m,Fri May 09 2025 11:07:58 GMT-0500 (Central Daylight Time),465003.0,CFD-WM-028-005-HC.jpg,1000,solid,O,m,685,12,1,50386.89999997616,414616.10000002384,7145,ATS,C,19
13,test,2,C,haborder.png,0,m,Fri May 09 2025 11:07:58 GMT-0500 (Central Daylight Time),468034.7000000477,CFD-WM-028-005-HC.jpg,1500,solid,O,None,1516,11,1,53418.60000002384,414616.10000002384,7145,ATS,C,20
14,test,2,C,haborder.png,1,m,Fri May 09 2025 11:07:58 GMT-0500 (Central Daylight Time),469616.3000000119,CFD-WM-028-005-HC.jpg,1000,solid,O,m,542,12,1,55000.19999998808,414616.10000002384,7145,ATS,C,21
15,test,2,C,haborder.png,1,z,Fri May 09 2025 11:07:58 GMT-0500 (Central Daylight Time),472248.40000003576,CFD-BF-002-018-A.jpg,1900,solid,O,z,708,8,1,57632.30000001192,414616.10000002384,7145,ATS,C,22
16,test,2,C,haborder.png,1,z,Fri May 09 2025 11:07:58 GMT-0500 (Central Daylight Time),474648.10000002384,CFD-BF-031-020-A.jpg,1400,solid,O,z,976,7,1,60032.0,414616.10000002384,7145,ATS,C,23
17,test,2,C,mfborder.png,1,z,Fri May 09 2025 11:07:58 GMT-0500 (Central Daylight Time),477345.8000000119,CFD-BF-019-004-HC.jpg,1500,dash,O,z,1173,3,1,62729.69999998808,414616.10000002384,7145,ATS,C,24
1,test,3,C,haborder.png,1,z,Fri May 09 2025 11:07:58 GMT-0500 (Central Daylight Time),504039.0,CFD-BM-043-014-A.jpg,1900,solid,O,z,1186,8,1,3116.399999976158,500922.60000002384,7145,ATS,C,1
2,test,3,C,mfborder.png,1,z,Fri May 09 2025 11:07:58 GMT-0500 (Central Daylight Time),506856.10000002384,CFD-BF-031-020-A.jpg,1600,dash,O,z,1195,2,1,5933.5,500922.60000002384,7145,ATS,C,2
3,test,3,C,mfborder.png,1,z,Fri May 09 2025 11:07:58 GMT-0500 (Central Daylight Time),509253.3000000119,CFD-WF-037-016-A.jpg,1500,dash,O,z,881,3,1,8330.699999988079,500922.60000002384,7145,ATS,C,3
4,test,3,C,haborder.png,1,m,Fri May 09 2025 11:07:58 GMT-0500 (Central Daylight Time),511236.10000002384,CFD-WF-013-009-HC.jpg,1000,solid,O,m,956,12,1,10313.5,500922.60000002384,7145,ATS,C,4
5,test,3,C,mfborder.png,1,m,Fri May 09 2025 11:07:58 GMT-0500 (Central Daylight Time),513751.5,CFD-WM-035-036-HC.jpg,1000,dash,O,m,1491,4,1,12828.899999976158,500922.60000002384,7145,ATS,C,5
6,test,3,C,haborder.png,1,z,Fri May 09 2025 11:07:58 GMT-0500 (Central Daylight Time),516634.0,CFD-BM-021-026-A.jpg,1700,solid,O,z,1156,9,1,15711.399999976158,500922.60000002384,7145,ATS,C,6
7,test,3,C,haborder.png,1,m,Fri May 09 2025 11:07:58 GMT-0500 (Central Daylight Time),519183.90000003576,CFD-BF-019-004-HC.jpg,1600,solid,O,m,927,10,1,18261.30000001192,500922.60000002384,7145,ATS,C,7
8,test,3,C,mfborder.png,1,z,Fri May 09 2025 11:07:58 GMT-0500 (Central Daylight Time),521816.90000003576,CFD-BF-042-031-HC.jpg,1700,dash,O,z,909,1,1,20894.30000001192,500922.60000002384,7145,ATS,C,8
9,test,3,C,haborder.png,1,z,Fri May 09 2025 11:07:58 GMT-0500 (Central Daylight Time),524366.0,CFD-WM-036-018-A.jpg,1400,solid,O,z,1117,7,1,23443.399999976158,500922.60000002384,7145,ATS,C,9
10,test,3,C,mfborder.png,1,z,Fri May 09 2025 11:07:58 GMT-0500 (Central Daylight Time),526796.8000000119,CFD-WF-037-016-A.jpg,1500,dash,O,z,911,3,1,25874.19999998808,500922.60000002384,7145,ATS,C,10
11,test,3,C,mfborder.png,1,m,Fri May 09 2025 11:07:58 GMT-0500 (Central Daylight Time),529863.2000000477,CFD-WM-034-040-A.jpg,2000,dash,O,m,1043,5,1,28940.600000023842,500922.60000002384,7145,ATS,C,11
11,test,3,C,haborder.png,0,m,Fri May 09 2025 11:07:58 GMT-0500 (Central Daylight Time),532113.2000000477,CFD-WF-001-010-HC.jpg,1500,solid,O,z,726,11,1,31190.600000023842,500922.60000002384,7145,ATS,C,12
12,test,3,C,haborder.png,1,m,Fri May 09 2025 11:07:58 GMT-0500 (Central Daylight Time),533980.7000000477,CFD-WF-013-009-HC.jpg,1000,solid,O,m,849,12,1,33058.10000002384,500922.60000002384,7145,ATS,C,13
13,test,3,C,haborder.png,1,m,Fri May 09 2025 11:07:58 GMT-0500 (Central Daylight Time),536546.0,CFD-BF-019-004-HC.jpg,1600,solid,O,m,948,10,1,35623.39999997616,500922.60000002384,7145,ATS,C,14
14,test,3,C,mfborder.png,1,z,Fri May 09 2025 11:07:58 GMT-0500 (Central Daylight Time),538995.1000000238,CFD-BF-031-020-A.jpg,1600,dash,O,z,833,2,1,38072.5,500922.60000002384,7145,ATS,C,15
14,test,3,C,mfborder.png,0,m,Fri May 09 2025 11:07:58 GMT-0500 (Central Daylight Time),541728.2000000477,CFD-BM-022-004-HC.jpg,1200,dash,O,None,1515,6,1,40805.60000002384,500922.60000002384,7145,ATS,C,16
15,test,3,C,mfborder.png,1,m,Fri May 09 2025 11:07:58 GMT-0500 (Central Daylight Time),543741.8000000119,CFD-WM-035-036-HC.jpg,1000,dash,O,m,987,4,1,42819.19999998808,500922.60000002384,7145,ATS,C,17
16,test,3,C,haborder.png,1,z,Fri May 09 2025 11:07:58 GMT-0500 (Central Daylight Time),546357.3000000119,CFD-BM-021-026-A.jpg,1700,solid,O,z,886,9,1,45434.69999998808,500922.60000002384,7145,ATS,C,18
17,test,3,C,haborder.png,1,m,Fri May 09 2025 11:07:58 GMT-0500 (Central Daylight Time),548757.9000000358,CFD-WF-001-010-HC.jpg,1500,solid,O,m,877,11,1,47835.30000001192,500922.60000002384,7145,ATS,C,19
18,test,3,C,haborder.png,1,z,Fri May 09 2025 11:07:58 GMT-0500 (Central Daylight Time),551223.9000000358,CFD-WM-036-018-A.jpg,1400,solid,O,z,1032,7,1,50301.30000001192,500922.60000002384,7145,ATS,C,20
19,test,3,C,mfborder.png,1,m,Fri May 09 2025 11:07:58 GMT-0500 (Central Daylight Time),553455.6000000238,CFD-BM-022-004-HC.jpg,1200,dash,O,m,1008,6,1,52533.0,500922.60000002384,7145,ATS,C,21
20,test,3,C,mfborder.png,1,m,Fri May 09 2025 11:07:58 GMT-0500 (Central Daylight Time),556371.8000000119,CFD-WM-034-040-A.jpg,2000,dash,O,m,896,5,1,55449.19999998808,500922.60000002384,7145,ATS,C,22
21,test,3,C,mfborder.png,1,z,Fri May 09 2025 11:07:58 GMT-0500 (Central Daylight Time),558819.8000000119,CFD-BF-042-031-HC.jpg,1700,dash,O,z,719,1,1,57897.19999998808,500922.60000002384,7145,ATS,C,23
22,test,3,C,haborder.png,1,z,Fri May 09 2025 11:07:58 GMT-0500 (Central Daylight Time),561803.8000000119,CFD-BM-043-014-A.jpg,1900,solid,O,z,1055,8,1,60881.19999998808,500922.60000002384,7145,ATS,C,24
1,test,4,C,haborder.png,1,z,Fri May 09 2025 11:07:58 GMT-0500 (Central Daylight Time),569617.9000000358,CFD-BF-002-018-A.jpg,1900,solid,O,z,1248,8,1,3181.900000035763,566436.0,7145,ATS,C,1
2,test,4,C,haborder.png,1,z,Fri May 09 2025 11:07:58 GMT-0500 (Central Daylight Time),572183.0,CFD-BF-002-018-A.jpg,1900,solid,O,z,643,8,1,5747.0,566436.0,7145,ATS,C,2
3,test,4,C,mfborder.png,1,m,Fri May 09 2025 11:07:58 GMT-0500 (Central Daylight Time),573967.0,CFD-BM-034-035-HC.jpg,1000,dash,O,m,752,4,1,7531.0,566436.0,7145,ATS,C,3
4,test,4,C,mfborder.png,1,z,Fri May 09 2025 11:07:58 GMT-0500 (Central Daylight Time),576382.5,CFD-BF-019-004-HC.jpg,1500,dash,O,z,876,3,1,9946.5,566436.0,7145,ATS,C,4
5,test,4,C,mfborder.png,1,z,Fri May 09 2025 11:07:58 GMT-0500 (Central Daylight Time),578830.9000000358,CFD-WF-013-009-HC.jpg,1700,dash,O,z,719,1,1,12394.900000035763,566436.0,7145,ATS,C,5
6,test,4,C,haborder.png,1,m,Fri May 09 2025 11:07:58 GMT-0500 (Central Daylight Time),581063.3000000119,CFD-WM-028-005-HC.jpg,1500,solid,O,m,702,11,1,14627.300000011921,566436.0,7145,ATS,C,6
7,test,4,C,haborder.png,1,m,Fri May 09 2025 11:07:58 GMT-0500 (Central Daylight Time),583263.0,CFD-WM-028-005-HC.jpg,1500,solid,O,m,676,11,1,16827.0,566436.0,7145,ATS,C,7
8,test,4,C,haborder.png,1,z,Fri May 09 2025 11:07:58 GMT-0500 (Central Daylight Time),585762.9000000358,CFD-WF-037-016-A.jpg,1700,solid,O,z,774,9,1,19326.900000035763,566436.0,7145,ATS,C,8
9,test,4,C,mfborder.png,1,m,Fri May 09 2025 11:07:58 GMT-0500 (Central Daylight Time),588526.4000000358,CFD-BM-043-014-A.jpg,2000,dash,O,m,733,5,1,22090.400000035763,566436.0,7145,ATS,C,9
10,test,4,C,haborder.png,1,m,Fri May 09 2025 11:07:58 GMT-0500 (Central Daylight Time),590660.9000000358,CFD-WM-028-005-HC.jpg,1000,solid,O,m,1105,12,1,24224.900000035763,566436.0,7145,ATS,C,10
11,test,4,C,mfborder.png,1,z,Fri May 09 2025 11:07:58 GMT-0500 (Central Daylight Time),593159.6000000238,CFD-WF-013-009-HC.jpg,1700,dash,O,z,778,1,1,26723.600000023842,566436.0,7145,ATS,C,11
12,test,4,C,haborder.png,1,m,Fri May 09 2025 11:07:58 GMT-0500 (Central Daylight Time),595092.5,CFD-WM-028-005-HC.jpg,1000,solid,O,m,913,12,1,28656.5,566436.0,7145,ATS,C,12
13,test,4,C,haborder.png,1,m,Fri May 09 2025 11:07:58 GMT-0500 (Central Daylight Time),597474.4000000358,CFD-BM-022-004-HC.jpg,1600,solid,O,m,763,10,1,31038.400000035763,566436.0,7145,ATS,C,13
14,test,4,C,mfborder.png,1,z,Fri May 09 2025 11:07:58 GMT-0500 (Central Daylight Time),599808.5,CFD-BF-019-004-HC.jpg,1500,dash,O,z,800,3,1,33372.5,566436.0,7145,ATS,C,14
15,test,4,C,mfborder.png,1,z,Fri May 09 2025 11:07:58 GMT-0500 (Central Daylight Time),602506.7000000477,CFD-WF-023-013-A.jpg,1600,dash,O,z,1074,2,1,36070.700000047684,566436.0,7145,ATS,C,15
16,test,4,C,mfborder.png,1,m,Fri May 09 2025 11:07:58 GMT-0500 (Central Daylight Time),605405.6000000238,CFD-BM-043-014-A.jpg,2000,dash,O,m,868,5,1,38969.60000002384,566436.0,7145,ATS,C,16
17,test,4,C,mfborder.png,1,m,Fri May 09 2025 11:07:58 GMT-0500 (Central Daylight Time),607555.4000000358,CFD-WM-036-018-A.jpg,1200,dash,O,m,932,6,1,41119.40000003576,566436.0,7145,ATS,C,17
18,test,4,C,haborder.png,1,m,Fri May 09 2025 11:07:58 GMT-0500 (Central Daylight Time),610188.5,CFD-BM-022-004-HC.jpg,1600,solid,O,m,1006,10,1,43752.5,566436.0,7145,ATS,C,18
19,test,4,C,haborder.png,1,z,Fri May 09 2025 11:07:58 GMT-0500 (Central Daylight Time),613021.4000000358,CFD-WF-037-016-A.jpg,1700,solid,O,z,1107,9,1,46585.40000003576,566436.0,7145,ATS,C,19
20,test,4,C,haborder.png,1,z,Fri May 09 2025 11:07:58 GMT-0500 (Central Daylight Time),615220.3000000119,CFD-BF-031-020-A.jpg,1400,solid,O,z,782,7,1,48784.30000001192,566436.0,7145,ATS,C,20
21,test,4,C,mfborder.png,1,m,Fri May 09 2025 11:07:58 GMT-0500 (Central Daylight Time),617626.8000000119,CFD-BM-034-035-HC.jpg,1000,dash,O,m,1372,4,1,51190.80000001192,566436.0,7145,ATS,C,21
22,test,4,C,mfborder.png,1,z,Fri May 09 2025 11:07:58 GMT-0500 (Central Daylight Time),620367.2000000477,CFD-WF-023-013-A.jpg,1600,dash,O,z,1119,2,1,53931.200000047684,566436.0,7145,ATS,C,22
23,test,4,C,mfborder.png,1,m,Fri May 09 2025 11:07:58 GMT-0500 (Central Daylight Time),622852.3000000119,CFD-WM-036-018-A.jpg,1200,dash,O,m,1266,6,1,56416.30000001192,566436.0,7145,ATS,C,23
24,test,4,C,haborder.png,1,z,Fri May 09 2025 11:07:58 GMT-0500 (Central Daylight Time),625565.7000000477,CFD-BF-031-020-A.jpg,1400,solid,O,z,1286,7,1,59129.700000047684,566436.0,7145,ATS,C,24
