acc_sum,block,block_c,condition,correct,correct_response,datetime,endtime,flanker,jitter,project,response,response_test_buffer_response,response_test_target_response,response_time,response_time_test_buffer_response,response_time_test_target_response,row_sel,session_number,start_end,starttime,subject_id,target,task,task_vers,time_test_buffer,time_test_buffer_response,time_test_constants,time_test_flanker,time_test_jitter,time_test_logger,time_test_target,time_test_target_response,time_test_variables,trial
0,prac,1,con,0,z,Tue Jul 29 2025 15:32:46 GMT-0500 (Central Daylight Time),120438.10000000894,lime,800,I,None,,,1799,,,5,1,4888.20000000298,115549.90000000596,7189,lime,NF,C,,,,,,,,,,1
0,prac,1,inc,0,z,Tue Jul 29 2025 15:32:46 GMT-0500 (Central Daylight Time),125409.10000000894,copper,900,I,None,,,1799,,,2,1,4964.300000011921,120444.79999999702,7189,cherry,NF,C,,,,,,,,,,2
0,prac,1,inc,0,m,Tue Jul 29 2025 15:32:46 GMT-0500 (Central Daylight Time),128058.20000000298,plum,1100,I,z,,,239,,,16,1,2644.2000000029802,125414.0,7189,lead,NF,C,,,,,,,,,,3
0,prac,1,inc,0,z,Tue Jul 29 2025 15:32:46 GMT-0500 (Central Daylight Time),130640.70000000298,iron,900,I,m,,,374,,,6,1,2575.7000000029802,128065.0,7189,pear,NF,C,,,,,,,,,,4
1,prac,1,inc,1,z,Tue Jul 29 2025 15:32:46 GMT-0500 (Central Daylight Time),133523.5,lead,1100,I,z,,,480,,,8,1,2877.5999999940395,130645.90000000596,7189,plum,NF,C,,,,,,,,,,5
2,prac,1,con,1,m,Tue Jul 29 2025 15:32:46 GMT-0500 (Central Daylight Time),136305.60000000894,silver,1000,I,m,,,481,,,11,1,2777.9000000059605,133527.70000000298,7189,silver,NF,C,,,,,,,,,,6
3,prac,1,inc,1,z,Tue Jul 29 2025 15:32:46 GMT-0500 (Central Daylight Time),139138.10000000894,cobalt,1100,I,z,,,430,,,4,1,2826.800000011921,136311.29999999702,7189,raisin,NF,C,,,,,,,,,,7
4,prac,1,inc,1,m,Tue Jul 29 2025 15:32:46 GMT-0500 (Central Daylight Time),141937.10000000894,raisin,1100,I,m,,,398,,,12,1,2794.7000000029802,139142.40000000596,7189,cobalt,NF,C,,,,,,,,,,8
4,prac,1,con,0,m,Tue Jul 29 2025 15:32:46 GMT-0500 (Central Daylight Time),147018.90000000596,zinc,1000,I,None,,,1815,,,15,1,5077.29999999702,141941.60000000894,7189,zinc,NF,C,,,,,,,,,,9
4,prac,1,con,0,m,Tue Jul 29 2025 15:32:46 GMT-0500 (Central Daylight Time),149551.60000000894,bronze,800,I,z,,,417,,,9,1,2528.2000000029802,147023.40000000596,7189,bronze,NF,C,,,,,,,,,,10
4,prac,1,con,0,m,Tue Jul 29 2025 15:32:46 GMT-0500 (Central Daylight Time),152050.70000000298,gold,800,I,z,,,396,,,13,1,2494.9000000059605,149555.79999999702,7189,gold,NF,C,,,,,,,,,,11
5,prac,1,inc,1,m,Tue Jul 29 2025 15:32:46 GMT-0500 (Central Daylight Time),154816.60000000894,pear,900,I,m,,,558,,,14,1,2761.9000000059605,152054.70000000298,7189,iron,NF,C,,,,,,,,,,12
6,prac,1,con,1,z,Tue Jul 29 2025 15:32:46 GMT-0500 (Central Daylight Time),157315.70000000298,banana,800,I,z,,,387,,,1,1,2495.0,154820.70000000298,7189,banana,NF,C,,,,,,,,,,13
7,prac,1,con,1,z,Tue Jul 29 2025 15:32:46 GMT-0500 (Central Daylight Time),160198.20000000298,orange,1000,I,z,,,576,,,3,1,2878.4000000059605,157319.79999999702,7189,orange,NF,C,,,,,,,,,,14
8,prac,1,con,1,z,Tue Jul 29 2025 15:32:46 GMT-0500 (Central Daylight Time),162881.0,kiwi,1000,I,z,,,383,,,7,1,2678.8999999910593,160202.10000000894,7189,kiwi,NF,C,,,,,,,,,,15
8,prac,1,inc,0,m,Tue Jul 29 2025 15:32:46 GMT-0500 (Central Daylight Time),165463.20000000298,cherry,900,I,z,,,375,,,10,1,2578.0999999940395,162885.10000000894,7189,copper,NF,C,,,,,,,,,,16
1,prac,2,inc,1,m,Tue Jul 29 2025 15:32:46 GMT-0500 (Central Daylight Time),174194.0,cherry,900,I,m,,,415,,,10,1,2612.5999999940395,171581.40000000596,7189,copper,NF,C,,,,,,,,,,1
2,prac,2,con,1,z,Tue Jul 29 2025 15:32:46 GMT-0500 (Central Daylight Time),176593.0,banana,800,I,z,,,298,,,1,1,2394.7000000029802,174198.29999999702,7189,banana,NF,C,,,,,,,,,,2
3,prac,2,inc,1,m,Tue Jul 29 2025 15:32:46 GMT-0500 (Central Daylight Time),179392.20000000298,raisin,1100,I,m,,,384,,,12,1,2795.0999999940395,176597.10000000894,7189,cobalt,NF,C,,,,,,,,,,3
4,prac,2,inc,1,z,Tue Jul 29 2025 15:32:46 GMT-0500 (Central Daylight Time),182191.40000000596,cobalt,1100,I,z,,,392,,,4,1,2795.1000000089407,179396.29999999702,7189,raisin,NF,C,,,,,,,,,,4
5,prac,2,con,1,m,Tue Jul 29 2025 15:32:46 GMT-0500 (Central Daylight Time),184607.20000000298,gold,800,I,m,,,300,,,13,1,2410.5999999940395,182196.60000000894,7189,gold,NF,C,,,,,,,,,,5
6,prac,2,con,1,m,Tue Jul 29 2025 15:32:46 GMT-0500 (Central Daylight Time),187056.40000000596,bronze,800,I,m,,,333,,,9,1,2445.2999999970198,184611.10000000894,7189,bronze,NF,C,,,,,,,,,,6
6,prac,2,inc,0,m,Tue Jul 29 2025 15:32:46 GMT-0500 (Central Daylight Time),189772.20000000298,plum,1100,I,z,,,313,,,16,1,2711.9000000059605,187060.29999999702,7189,lead,NF,C,,,,,,,,,,7
7,prac,2,con,1,m,Tue Jul 29 2025 15:32:46 GMT-0500 (Central Daylight Time),192388.0,zinc,1000,I,m,,,304,,,15,1,2611.8999999910593,189776.10000000894,7189,zinc,NF,C,,,,,,,,,,8
8,prac,2,con,1,z,Tue Jul 29 2025 15:32:46 GMT-0500 (Central Daylight Time),195004.10000000894,kiwi,1000,I,z,,,313,,,7,1,2612.2000000029802,192391.90000000596,7189,kiwi,NF,C,,,,,,,,,,9
8,prac,2,con,0,z,Tue Jul 29 2025 15:32:46 GMT-0500 (Central Daylight Time),197753.20000000298,orange,1000,I,m,,,441,,,3,1,2744.9000000059605,195008.29999999702,7189,orange,NF,C,,,,,,,,,,10
8,prac,2,inc,0,z,Tue Jul 29 2025 15:32:46 GMT-0500 (Central Daylight Time),200568.79999999702,lead,1100,I,m,,,400,,,8,1,2811.7999999970198,197757.0,7189,plum,NF,C,,,,,,,,,,11
9,prac,2,inc,1,z,Tue Jul 29 2025 15:32:46 GMT-0500 (Central Daylight Time),203201.29999999702,iron,900,I,z,,,424,,,6,1,2628.699999988079,200572.60000000894,7189,pear,NF,C,,,,,,,,,,12
10,prac,2,inc,1,z,Tue Jul 29 2025 15:32:46 GMT-0500 (Central Daylight Time),205817.40000000596,copper,900,I,z,,,406,,,2,1,2612.2000000029802,203205.20000000298,7189,cherry,NF,C,,,,,,,,,,13
11,prac,2,con,1,z,Tue Jul 29 2025 15:32:46 GMT-0500 (Central Daylight Time),208383.10000000894,lime,800,I,z,,,452,,,5,1,2561.800000011921,205821.29999999702,7189,lime,NF,C,,,,,,,,,,14
12,prac,2,inc,1,m,Tue Jul 29 2025 15:32:46 GMT-0500 (Central Daylight Time),211031.79999999702,pear,900,I,m,,,432,,,14,1,2644.7999999970198,208387.0,7189,iron,NF,C,,,,,,,,,,15
13,prac,2,con,1,m,Tue Jul 29 2025 15:32:46 GMT-0500 (Central Daylight Time),213698.0,silver,1000,I,m,,,356,,,11,1,2662.2000000029802,211035.79999999702,7189,silver,NF,C,,,,,,,,,,16
0,test,1,inc,0,z,Tue Jul 29 2025 15:32:46 GMT-0500 (Central Daylight Time),226027.40000000596,bronze,800,I,m,m,None,615,415.0,200.0,5,1,1945.9000000059605,224081.5,7189,banana,NF,C,216056,216056,214527,215340,214527,216472,215856,215856,216472,1
0,test,1,con,0,m,Tue Jul 29 2025 15:32:46 GMT-0500 (Central Daylight Time),227976.60000000894,cobalt,900,I,z,z,None,502,302.0,200.0,90,1,1944.7000000029802,226031.90000000596,7189,cobalt,NF,C,218105,218105,216477,217389,216477,218422,217905,217905,218422,2
1,test,1,inc,1,m,Tue Jul 29 2025 15:32:46 GMT-0500 (Central Daylight Time),229776.5,lime,800,I,m,m,None,460,260.0,200.0,101,1,1794.5999999940395,227981.90000000596,7189,gold,NF,C,219955,219955,218427,219238,218427,220222,219755,219755,220222,3
2,test,1,con,1,z,Tue Jul 29 2025 15:32:46 GMT-0500 (Central Daylight Time),231625.90000000596,raisin,900,I,z,z,None,401,201.0,200.0,26,1,1845.1000000089407,229780.79999999702,7189,raisin,NF,C,221854,221854,220226,221138,220226,222071,221654,221654,222071,4
3,test,1,con,1,m,Tue Jul 29 2025 15:32:46 GMT-0500 (Central Daylight Time),233508.40000000596,lead,900,I,m,m,None,438,239.0,199.0,122,1,1878.2999999970198,231630.10000000894,7189,lead,NF,C,223704,223704,222075,222987,222075,223953,223504,223504,223953,5
3,test,1,inc,0,m,Tue Jul 29 2025 15:32:46 GMT-0500 (Central Daylight Time),235141.40000000596,banana,800,I,z,z,None,287,88.0,199.0,93,1,1628.6000000089407,233512.79999999702,7189,cobalt,NF,C,225486,225486,223958,224770,223958,225587,225287,225287,225586,6
3,test,1,inc,0,m,Tue Jul 29 2025 15:32:46 GMT-0500 (Central Daylight Time),237274.20000000298,plum,1100,I,z,z,None,500,300.0,200.0,104,1,2129.0,235145.20000000298,7189,gold,NF,C,227419,227419,225590,226703,225590,227719,227219,227219,227719,7
4,test,1,con,1,m,Tue Jul 29 2025 15:32:46 GMT-0500 (Central Daylight Time),239290.20000000298,iron,1000,I,m,m,None,399,200.0,199.0,107,1,2011.7999999970198,237278.40000000596,7189,iron,NF,C,229519,229519,227723,228814,227724,229735,229319,229319,229735,8
5,test,1,con,1,m,Tue Jul 29 2025 15:32:46 GMT-0500 (Central Daylight Time),241022.60000000894,zinc,800,I,m,m,None,395,195.0,200.0,113,1,1728.5,239294.10000000894,7189,zinc,NF,C,231268,231268,229739,230552,229739,231468,231068,231068,231468,9
6,test,1,inc,1,m,Tue Jul 29 2025 15:32:46 GMT-0500 (Central Daylight Time),242722.10000000894,lime,800,I,m,m,None,358,158.0,200.0,117,1,1695.800000011921,241026.29999999702,7189,zinc,NF,C,233001,233001,231471,232284,231472,233167,232801,232801,233167,10
7,test,1,con,1,m,Tue Jul 29 2025 15:32:46 GMT-0500 (Central Daylight Time),244538.20000000298,copper,900,I,m,m,None,383,183.0,200.0,74,1,1811.5999999940395,242726.60000000894,7189,copper,NF,C,234800,234800,233172,234084,233172,234983,234600,234600,234983,11
8,test,1,inc,1,m,Tue Jul 29 2025 15:32:46 GMT-0500 (Central Daylight Time),246555.20000000298,orange,1000,I,m,m,None,483,283.0,200.0,95,1,2013.4000000059605,244541.79999999702,7189,cobalt,NF,C,236716,236716,234987,236001,234987,237000,236516,236516,237000,12
9,test,1,inc,1,m,Tue Jul 29 2025 15:32:46 GMT-0500 (Central Daylight Time),248353.79999999702,lime,800,I,m,m,None,459,259.0,200.0,109,1,1795.199999988079,246558.60000000894,7189,iron,NF,C,238532,238532,237004,237816,237004,238799,238332,238332,238799,13
10,test,1,con,1,m,Tue Jul 29 2025 15:32:46 GMT-0500 (Central Daylight Time),250119.40000000596,bronze,900,I,m,m,None,326,127.0,199.0,66,1,1761.7000000029802,248357.70000000298,7189,bronze,NF,C,240432,240432,238803,239715,238803,240565,240232,240232,240564,14
10,test,1,inc,0,z,Tue Jul 29 2025 15:32:46 GMT-0500 (Central Daylight Time),252185.70000000298,cobalt,1100,I,m,m,None,417,217.0,200.0,24,1,2062.2000000029802,250123.5,7189,orange,NF,C,242398,242398,240569,241681,240569,242631,242198,242198,242631,15
11,test,1,con,1,m,Tue Jul 29 2025 15:32:46 GMT-0500 (Central Daylight Time),254068.70000000298,lead,1000,I,m,m,None,338,139.0,199.0,123,1,1879.0999999940395,252189.60000000894,7189,lead,NF,C,244364,244364,242635,243647,242635,244514,244164,244164,244514,16
12,test,1,con,1,z,Tue Jul 29 2025 15:32:46 GMT-0500 (Central Daylight Time),256067.90000000596,cherry,1100,I,z,z,None,355,156.0,199.0,12,1,1995.5,254072.40000000596,7189,cherry,NF,C,246347,246347,244517,245630,244518,246513,246147,246147,246513,17
13,test,1,con,1,m,Tue Jul 29 2025 15:32:46 GMT-0500 (Central Daylight Time),257833.79999999702,gold,900,I,m,m,None,333,133.0,200.0,98,1,1761.699999988079,256072.10000000894,7189,gold,NF,C,248146,248146,246517,247429,246517,248279,247946,247946,248279,18
14,test,1,inc,1,m,Tue Jul 29 2025 15:32:46 GMT-0500 (Central Daylight Time),259866.70000000298,kiwi,1000,I,m,m,None,491,291.0,200.0,111,1,2029.2000000029802,257837.5,7189,iron,NF,C,250012,250012,248283,249296,248283,250312,249812,249812,250312,19
15,test,1,inc,1,z,Tue Jul 29 2025 15:32:46 GMT-0500 (Central Daylight Time),261982.40000000596,lead,1100,I,z,z,None,479,201.0,278.0,48,1,2111.7000000029802,259870.70000000298,7189,pear,NF,C,252224,252224,250316,251428,250316,252428,251945,251945,252427,20
16,test,1,inc,1,z,Tue Jul 29 2025 15:32:46 GMT-0500 (Central Daylight Time),263715.5,gold,800,I,z,z,None,390,190.0,200.0,45,1,1728.5999999940395,261986.90000000596,7189,pear,NF,C,253961,253961,252432,253246,252432,254161,253761,253761,254161,21
16,test,1,inc,0,z,Tue Jul 29 2025 15:32:46 GMT-0500 (Central Daylight Time),265514.90000000596,iron,900,I,m,m,None,356,157.0,199.0,46,1,1795.4000000059605,263719.5,7189,pear,NF,C,255793,255794,254165,255077,254165,255960,255594,255594,255960,22
17,test,1,inc,1,m,Tue Jul 29 2025 15:32:46 GMT-0500 (Central Daylight Time),267481.299999997,orange,1000,I,m,m,None,426,226.0,200.0,71,1,1962.5999999940395,265518.700000003,7189,bronze,NF,C,257693,257693,255964,256977,255964,257926,257493,257493,257926,23
18,test,1,inc,1,z,Tue Jul 29 2025 15:32:46 GMT-0500 (Central Daylight Time),269380.40000000596,copper,900,I,z,z,None,456,256.0,200.0,6,1,1895.2999999970198,267485.10000000894,7189,banana,NF,C,259559,259559,257930,258843,257930,259826,259359,259359,259825,24
19,test,1,con,1,z,Tue Jul 29 2025 15:32:46 GMT-0500 (Central Daylight Time),271396.60000000894,banana,1100,I,z,z,None,379,180.0,199.0,4,1,2012.6000000089407,269384.0,7189,banana,NF,C,261659,261659,259829,260942,259829,261842,261459,261459,261842,25
20,test,1,con,1,z,Tue Jul 29 2025 15:32:46 GMT-0500 (Central Daylight Time),273378.799999997,raisin,1100,I,z,z,None,349,149.0,200.0,28,1,1978.5,271400.299999997,7189,raisin,NF,C,263674,263674,261845,262958,261846,263824,263474,263474,263824,26
21,test,1,inc,1,z,Tue Jul 29 2025 15:32:46 GMT-0500 (Central Daylight Time),275211.90000000596,copper,900,I,z,z,None,398,198.0,200.0,14,1,1829.7000000029802,273382.200000003,7189,cherry,NF,C,265457,265457,263827,264741,263828,265657,265257,265257,265657,27
22,test,1,con,1,z,Tue Jul 29 2025 15:32:46 GMT-0500 (Central Daylight Time),277244.700000003,lime,1100,I,z,z,None,397,197.0,200.0,36,1,2028.7999999970198,275215.90000000596,7189,lime,NF,C,267490,267490,265661,266773,265661,267690,267290,267290,267690,28
23,test,1,inc,1,z,Tue Jul 29 2025 15:32:46 GMT-0500 (Central Daylight Time),279393.799999997,lead,1100,I,z,z,None,507,308.0,199.0,40,1,2145.3999999910593,277248.40000000596,7189,lime,NF,C,269523,269523,267693,268806,267694,269839,269323,269323,269839,29
24,test,1,inc,1,z,Tue Jul 29 2025 15:32:46 GMT-0500 (Central Daylight Time),281493.200000003,cobalt,1100,I,z,z,None,455,255.0,200.0,32,1,2095.5999999940395,279397.60000000894,7189,raisin,NF,C,271672,271672,269843,270957,269843,271938,271472,271472,271938,30
24,test,1,inc,0,m,Tue Jul 29 2025 15:32:46 GMT-0500 (Central Daylight Time),283426.10000000894,kiwi,1000,I,z,z,None,400,200.0,200.0,119,1,1929.2000000029802,281496.90000000596,7189,zinc,NF,C,273671,273671,271942,272955,271942,273871,273471,273471,273871,31
25,test,1,con,1,z,Tue Jul 29 2025 15:32:46 GMT-0500 (Central Daylight Time),285158.799999997,cherry,800,I,z,z,None,387,187.0,200.0,9,1,1729.0999999940395,283429.700000003,7189,cherry,NF,C,275404,275404,273875,274688,273875,275604,275204,275204,275604,32
26,test,1,con,1,z,Tue Jul 29 2025 15:32:46 GMT-0500 (Central Daylight Time),287058.10000000894,kiwi,900,I,z,z,None,449,250.0,199.0,50,1,1895.7000000029802,285162.40000000596,7189,kiwi,NF,C,277237,277237,275607,276520,275608,277503,277037,277037,277503,33
27,test,1,inc,1,z,Tue Jul 29 2025 15:32:46 GMT-0500 (Central Daylight Time),289074.200000003,silver,1000,I,z,z,None,483,283.0,200.0,15,1,2012.2999999970198,287061.90000000596,7189,cherry,NF,C,279236,279236,277507,278519,277507,279519,279036,279036,279519,34
28,test,1,inc,1,z,Tue Jul 29 2025 15:32:46 GMT-0500 (Central Daylight Time),291123.60000000894,zinc,1000,I,z,z,None,515,315.0,200.0,47,1,2045.9000000059605,289077.700000003,7189,pear,NF,C,281252,281252,279523,280536,279523,281569,281052,281052,281569,35
29,test,1,con,1,m,Tue Jul 29 2025 15:32:46 GMT-0500 (Central Daylight Time),293006.200000003,gold,1000,I,m,m,None,337,137.0,200.0,99,1,1879.0,291127.200000003,7189,gold,NF,C,283302,283302,281572,282585,281573,283451,283101,283101,283451,36
30,test,1,con,1,z,Tue Jul 29 2025 15:32:46 GMT-0500 (Central Daylight Time),294990.10000000894,plum,900,I,z,z,None,546,346.0,200.0,58,1,1979.800000011921,293010.299999997,7189,plum,NF,C,285085,285085,283455,284368,283455,285435,284884,284884,285435,37
31,test,1,inc,1,z,Tue Jul 29 2025 15:32:46 GMT-0500 (Central Daylight Time),297022.0,iron,900,I,z,z,None,588,388.0,200.0,62,1,2028.0999999940395,294993.90000000596,7189,plum,NF,C,287067,287067,285439,286350,285439,287467,286867,286867,287467,38
32,test,1,con,1,z,Tue Jul 29 2025 15:32:46 GMT-0500 (Central Daylight Time),299087.5,plum,1000,I,z,z,None,526,327.0,199.0,59,1,2061.5,297026.0,7189,plum,NF,C,289200,289200,287471,288484,287471,289533,289000,289000,289533,39
33,test,1,con,1,m,Tue Jul 29 2025 15:32:46 GMT-0500 (Central Daylight Time),300803.700000003,copper,800,I,m,m,None,373,173.0,200.0,73,1,1712.2000000029802,299091.5,7189,copper,NF,C,291066,291066,289537,290349,289537,291249,290866,290866,291249,40
34,test,1,con,1,z,Tue Jul 29 2025 15:32:46 GMT-0500 (Central Daylight Time),302586.299999997,pear,900,I,z,z,None,349,149.0,200.0,42,1,1779.0,300807.299999997,7189,pear,NF,C,292882,292882,291252,292166,291253,293031,292682,292682,293031,41
35,test,1,con,1,z,Tue Jul 29 2025 15:32:46 GMT-0500 (Central Daylight Time),304586.0,orange,1100,I,z,z,None,349,150.0,199.0,20,1,1996.0,302590.0,7189,orange,NF,C,294865,294865,293035,294148,293035,295031,294665,294665,295031,42
36,test,1,con,1,m,Tue Jul 29 2025 15:32:46 GMT-0500 (Central Daylight Time),306618.799999997,copper,1100,I,m,m,None,391,191.0,200.0,76,1,2028.5,304590.299999997,7189,copper,NF,C,296864,296864,295035,296147,295036,297064,296664,296664,297064,43
37,test,1,con,1,z,Tue Jul 29 2025 15:32:46 GMT-0500 (Central Daylight Time),308351.40000000596,orange,800,I,z,z,None,393,194.0,199.0,17,1,1728.6000000089407,306622.799999997,7189,orange,NF,C,298597,298597,297068,297880,297068,298796,298397,298397,298796,44
38,test,1,con,1,m,Tue Jul 29 2025 15:32:46 GMT-0500 (Central Daylight Time),310034.299999997,iron,800,I,m,m,None,332,133.0,199.0,105,1,1679.3999999910593,308354.90000000596,7189,iron,NF,C,300330,300330,298800,299613,298800,300479,300130,300130,300479,45
39,test,1,con,1,m,Tue Jul 29 2025 15:32:46 GMT-0500 (Central Daylight Time),312100.10000000894,zinc,1000,I,m,m,None,523,323.0,200.0,115,1,2062.1000000089407,310038.0,7189,zinc,NF,C,302212,302212,300483,301496,300483,302545,302012,302012,302545,46
40,test,1,con,1,m,Tue Jul 29 2025 15:32:46 GMT-0500 (Central Daylight Time),314083.0,zinc,1100,I,m,m,None,340,141.0,199.0,116,1,1979.2000000029802,312103.799999997,7189,zinc,NF,C,304378,304378,302549,303662,302549,304528,304178,304179,304528,47
41,test,1,con,1,z,Tue Jul 29 2025 15:32:46 GMT-0500 (Central Daylight Time),315782.299999997,banana,800,I,z,z,None,362,161.0,201.0,1,1,1695.5999999940395,314086.700000003,7189,banana,NF,C,306062,306062,304532,305345,304532,306227,305861,305861,306227,48
42,test,1,con,1,z,Tue Jul 29 2025 15:32:46 GMT-0500 (Central Daylight Time),317565.10000000894,raisin,800,I,z,z,None,437,238.0,199.0,25,1,1778.9000000059605,315786.200000003,7189,raisin,NF,C,307760,307761,306231,307044,306232,308010,307561,307561,308010,49
43,test,1,con,1,z,Tue Jul 29 2025 15:32:46 GMT-0500 (Central Daylight Time),319364.60000000894,orange,1000,I,z,z,None,264,64.0,200.0,19,1,1795.6000000089407,317569.0,7189,orange,NF,C,309743,309743,308014,309027,308014,309810,309543,309543,309810,50
44,test,1,con,1,m,Tue Jul 29 2025 15:32:46 GMT-0500 (Central Daylight Time),321047.5,gold,800,I,m,m,None,335,136.0,199.0,97,1,1679.0999999940395,319368.40000000596,7189,gold,NF,C,311343,311343,309813,310626,309814,311493,311143,311143,311493,51
45,test,1,con,1,z,Tue Jul 29 2025 15:32:46 GMT-0500 (Central Daylight Time),322897.200000003,raisin,1000,I,z,z,None,309,109.0,200.0,27,1,1846.0,321051.200000003,7189,raisin,NF,C,313226,313226,311496,312509,311496,313342,313025,313025,313342,52
46,test,1,con,1,m,Tue Jul 29 2025 15:32:46 GMT-0500 (Central Daylight Time),324679.799999997,zinc,900,I,m,m,None,344,143.0,201.0,114,1,1778.8999999910593,322900.90000000596,7189,zinc,NF,C,314976,314976,313346,314259,313346,315125,314775,314775,315125,53
47,test,1,con,1,z,Tue Jul 29 2025 15:32:46 GMT-0500 (Central Daylight Time),326546.0,pear,1000,I,z,z,None,316,117.0,199.0,43,1,1862.5,324683.5,7189,pear,NF,C,316858,316858,315129,316141,315129,316991,316658,316658,316991,54
48,test,1,con,1,z,Tue Jul 29 2025 15:32:46 GMT-0500 (Central Daylight Time),328345.0,cherry,900,I,z,z,None,350,150.0,200.0,10,1,1795.2000000029802,326549.799999997,7189,cherry,NF,C,318624,318624,316995,317907,316995,318790,318424,318424,318790,55
49,test,1,con,1,z,Tue Jul 29 2025 15:32:46 GMT-0500 (Central Daylight Time),330161.200000003,kiwi,1000,I,z,z,None,268,68.0,200.0,51,1,1812.7000000029802,328348.5,7189,kiwi,NF,C,320523,320523,318794,319807,318794,320606,320323,320323,320606,56
49,test,1,inc,0,m,Tue Jul 29 2025 15:32:46 GMT-0500 (Central Daylight Time),332260.60000000894,kiwi,1000,I,z,z,None,556,356.0,200.0,103,1,2095.5,330165.10000000894,7189,gold,NF,C,322339,322339,320610,321623,320610,322706,322139,322139,322706,57
50,test,1,con,1,m,Tue Jul 29 2025 15:32:46 GMT-0500 (Central Daylight Time),333976.700000003,lead,800,I,m,m,None,367,168.0,199.0,121,1,1712.5,332264.200000003,7189,lead,NF,C,324239,324239,322709,323522,322709,324422,324039,324039,324422,58
51,test,1,con,1,m,Tue Jul 29 2025 15:32:46 GMT-0500 (Central Daylight Time),335976.0,cobalt,1100,I,m,m,None,359,160.0,199.0,92,1,1995.7999999970198,333980.200000003,7189,cobalt,NF,C,326255,326255,324425,325538,324426,326421,326055,326055,326421,59
51,test,1,inc,0,z,Tue Jul 29 2025 15:32:46 GMT-0500 (Central Daylight Time),339508.5,zinc,1000,I,None,None,None,1800,1800.0,200.0,55,1,3528.8999999910593,335979.60000000894,7189,kiwi,NF,C,328154,328154,326425,327438,326425,329954,327954,327954,329954,60
52,test,1,con,1,z,Tue Jul 29 2025 15:32:46 GMT-0500 (Central Daylight Time),341624.200000003,banana,1000,I,z,z,None,575,376.0,199.0,3,1,2111.7000000029802,339512.5,7189,banana,NF,C,331687,331687,329958,330970,329958,332069,331486,331487,332069,61
53,test,1,con,1,m,Tue Jul 29 2025 15:32:46 GMT-0500 (Central Daylight Time),343440.299999997,silver,900,I,m,m,None,369,169.0,200.0,82,1,1812.2999999970198,341628.0,7189,silver,NF,C,333702,333702,332073,332986,332073,333885,333502,333502,333885,62
54,test,1,inc,1,z,Tue Jul 29 2025 15:32:46 GMT-0500 (Central Daylight Time),345356.40000000596,copper,900,I,z,z,None,472,273.0,199.0,22,1,1912.4000000059605,343444.0,7189,orange,NF,C,335518,335518,333889,334802,333889,335802,335318,335319,335801,63
55,test,1,inc,1,m,Tue Jul 29 2025 15:32:46 GMT-0500 (Central Daylight Time),347306.0,cherry,900,I,m,m,None,507,308.0,199.0,94,1,1946.0,345360.0,7189,cobalt,NF,C,337435,337435,335805,336718,335805,337751,337235,337235,337751,64
56,test,1,con,1,z,Tue Jul 29 2025 15:32:46 GMT-0500 (Central Daylight Time),349005.200000003,plum,800,I,z,z,None,363,163.0,200.0,57,1,1695.2999999970198,347309.90000000596,7189,plum,NF,C,339284,339284,337755,338567,337755,339450,339084,339084,339450,65
57,test,1,inc,1,m,Tue Jul 29 2025 15:32:46 GMT-0500 (Central Daylight Time),351021.200000003,kiwi,1000,I,m,m,None,480,280.0,200.0,127,1,2012.2000000029802,349009.0,7189,lead,NF,C,341183,341183,339454,340467,339454,341466,340983,340983,341466,66
58,test,1,inc,1,m,Tue Jul 29 2025 15:32:46 GMT-0500 (Central Daylight Time),352954.10000000894,pear,900,I,m,m,None,500,300.0,200.0,126,1,1929.2000000029802,351024.90000000596,7189,lead,NF,C,343099,343099,341470,342383,341470,343399,342899,342899,343399,67
58,test,1,con,0,z,Tue Jul 29 2025 15:32:46 GMT-0500 (Central Daylight Time),354770.10000000894,pear,800,I,m,m,None,467,267.0,200.0,41,1,1812.6000000089407,352957.5,7189,pear,NF,C,344932,344932,343403,344216,343403,345215,344732,344732,345215,68
59,test,1,con,1,m,Tue Jul 29 2025 15:32:46 GMT-0500 (Central Daylight Time),356586.200000003,iron,900,I,m,m,None,383,183.0,200.0,106,1,1812.4000000059605,354773.799999997,7189,iron,NF,C,346848,346848,345219,346132,345219,347031,346648,346648,347031,69
60,test,1,con,1,m,Tue Jul 29 2025 15:32:46 GMT-0500 (Central Daylight Time),358618.60000000894,iron,1100,I,m,m,None,399,199.0,200.0,108,1,2028.9000000059605,356589.700000003,7189,iron,NF,C,348864,348864,347035,348148,347035,349064,348664,348664,349064,70
61,test,1,inc,1,m,Tue Jul 29 2025 15:32:46 GMT-0500 (Central Daylight Time),360784.90000000596,raisin,1100,I,m,m,None,526,326.0,200.0,88,1,2162.7999999970198,358622.10000000894,7189,silver,NF,C,350897,350897,349067,350180,349067,351230,350697,350697,351230,71
62,test,1,inc,1,m,Tue Jul 29 2025 15:32:46 GMT-0500 (Central Daylight Time),362717.700000003,cherry,900,I,m,m,None,496,296.0,200.0,86,1,1929.0,360788.700000003,7189,silver,NF,C,352863,352863,351234,352148,351234,353163,352663,352663,353163,72
63,test,1,con,1,z,Tue Jul 29 2025 15:32:46 GMT-0500 (Central Daylight Time),364450.5,lime,800,I,z,z,None,399,199.0,200.0,33,1,1728.8999999910593,362721.60000000894,7189,lime,NF,C,354696,354696,353167,353979,353167,354896,354496,354496,354896,73
64,test,1,con,1,m,Tue Jul 29 2025 15:32:46 GMT-0500 (Central Daylight Time),366333.0,silver,1000,I,m,m,None,337,138.0,199.0,83,1,1879.0,364454.0,7189,silver,NF,C,356629,356629,354899,355912,354899,356778,356428,356429,356778,74
65,test,1,inc,1,m,Tue Jul 29 2025 15:32:46 GMT-0500 (Central Daylight Time),368465.799999997,plum,1100,I,m,m,None,492,292.0,200.0,112,1,2128.3999999910593,366337.40000000596,7189,iron,NF,C,358611,358611,356782,357895,356783,358911,358411,358411,358911,75
66,test,1,inc,1,z,Tue Jul 29 2025 15:32:46 GMT-0500 (Central Daylight Time),370331.90000000596,bronze,800,I,z,z,None,523,323.0,200.0,29,1,1862.6000000089407,368469.299999997,7189,raisin,NF,C,360444,360444,358914,359727,358915,360777,360244,360244,360777,76
67,test,1,con,1,m,Tue Jul 29 2025 15:32:46 GMT-0500 (Central Daylight Time),372131.299999997,silver,800,I,m,m,None,457,257.0,200.0,81,1,1795.7999999970198,370335.5,7189,silver,NF,C,362310,362310,360781,361594,360781,362576,362110,362110,362576,77
68,test,1,con,1,m,Tue Jul 29 2025 15:32:46 GMT-0500 (Central Daylight Time),374147.299999997,gold,1100,I,m,m,None,372,173.0,199.0,100,1,2012.0999999940395,372135.200000003,7189,gold,NF,C,364410,364410,362580,363693,362580,364592,364210,364210,364592,78
69,test,1,inc,1,m,Tue Jul 29 2025 15:32:46 GMT-0500 (Central Daylight Time),376080.10000000894,pear,900,I,m,m,None,494,294.0,200.0,102,1,1929.2000000029802,374150.90000000596,7189,gold,NF,C,366225,366225,364596,365509,364596,366525,366025,366025,366525,79
70,test,1,inc,1,z,Tue Jul 29 2025 15:32:46 GMT-0500 (Central Daylight Time),378046.200000003,iron,900,I,z,z,None,521,321.0,200.0,38,1,1962.5999999940395,376083.60000000894,7189,lime,NF,C,368158,368158,366529,367442,366529,368491,367958,367958,368491,80
71,test,1,inc,1,m,Tue Jul 29 2025 15:32:46 GMT-0500 (Central Daylight Time),380078.799999997,pear,900,I,m,m,None,472,270.0,202.0,110,1,2029.0,378049.799999997,7189,iron,NF,C,370241,370241,368495,369408,368495,370524,370038,370038,370524,81
72,test,1,inc,1,m,Tue Jul 29 2025 15:32:46 GMT-0500 (Central Daylight Time),381894.90000000596,lime,800,I,m,m,None,470,270.0,200.0,125,1,1812.1000000089407,380082.799999997,7189,lead,NF,C,372057,372057,370528,371340,370528,372340,371857,371857,372340,82
72,test,1,con,0,z,Tue Jul 29 2025 15:32:46 GMT-0500 (Central Daylight Time),383760.90000000596,lime,900,I,m,m,None,425,226.0,199.0,34,1,1862.2999999970198,381898.60000000894,7189,lime,NF,C,373973,373973,372344,373256,372344,374206,373773,373773,374206,83
73,test,1,inc,1,m,Tue Jul 29 2025 15:32:46 GMT-0500 (Central Daylight Time),385743.700000003,orange,1000,I,m,m,None,444,244.0,200.0,79,1,1978.9000000059605,383764.799999997,7189,copper,NF,C,375939,375939,374210,375223,374210,376189,375739,375739,376189,84
74,test,1,inc,1,m,Tue Jul 29 2025 15:32:46 GMT-0500 (Central Daylight Time),387743.10000000894,cherry,900,I,m,m,None,560,361.0,199.0,78,1,1995.5,385747.60000000894,7189,copper,NF,C,377822,377822,376193,377105,376193,378188,377622,377622,378188,85
75,test,1,inc,1,m,Tue Jul 29 2025 15:32:46 GMT-0500 (Central Daylight Time),389892.299999997,raisin,1100,I,m,m,None,506,305.0,201.0,80,1,2145.699999988079,387746.60000000894,7189,copper,NF,C,380022,380022,378192,379305,378192,380337,379821,379821,380337,86
76,test,1,con,1,m,Tue Jul 29 2025 15:32:46 GMT-0500 (Central Daylight Time),391825.0,bronze,1000,I,m,m,None,392,193.0,199.0,67,1,1929.0,389896.0,7189,bronze,NF,C,382070,382070,380341,381354,380341,382270,381871,381871,382270,87
76,test,1,inc,0,m,Tue Jul 29 2025 15:32:46 GMT-0500 (Central Daylight Time),393824.200000003,plum,1100,I,z,z,None,351,151.0,200.0,128,1,1995.5999999940395,391828.60000000894,7189,lead,NF,C,384103,384103,382274,383386,382274,384269,383903,383903,384269,88
77,test,1,inc,1,m,Tue Jul 29 2025 15:32:46 GMT-0500 (Central Daylight Time),395940.10000000894,raisin,1100,I,m,m,None,480,280.0,200.0,72,1,2111.9000000059605,393828.200000003,7189,bronze,NF,C,386102,386102,384273,385386,384273,386385,385902,385902,386385,89
78,test,1,con,1,z,Tue Jul 29 2025 15:32:46 GMT-0500 (Central Daylight Time),397972.90000000596,cherry,1000,I,z,z,None,496,296.0,200.0,11,1,2029.0,395943.90000000596,7189,cherry,NF,C,388118,388118,386389,387402,386389,388418,387918,387918,388418,90
79,test,1,inc,1,z,Tue Jul 29 2025 15:32:46 GMT-0500 (Central Daylight Time),400072.5,iron,900,I,z,z,None,652,452.0,200.0,54,1,2096.0,397976.5,7189,kiwi,NF,C,390051,390051,388422,389334,388422,390518,389851,389851,390518,91
80,test,1,inc,1,m,Tue Jul 29 2025 15:32:46 GMT-0500 (Central Daylight Time),401871.700000003,banana,800,I,m,m,None,461,261.0,200.0,85,1,1795.7000000029802,400076.0,7189,silver,NF,C,392050,392050,390521,391334,390521,392317,391850,391850,392317,92
81,test,1,inc,1,m,Tue Jul 29 2025 15:32:46 GMT-0500 (Central Daylight Time),403921.200000003,orange,1000,I,m,m,None,501,301.0,200.0,87,1,2045.7000000029802,401875.5,7189,silver,NF,C,394050,394050,392321,393334,392321,394366,393850,393850,394366,93
82,test,1,inc,1,z,Tue Jul 29 2025 15:32:46 GMT-0500 (Central Daylight Time),406036.90000000596,cobalt,1100,I,z,z,None,480,280.0,200.0,8,1,2111.9000000059605,403925.0,7189,banana,NF,C,396199,396199,394370,395483,394370,396482,395999,395999,396482,94
83,test,1,con,1,m,Tue Jul 29 2025 15:32:46 GMT-0500 (Central Daylight Time),408119.700000003,lead,1100,I,m,m,None,436,236.0,200.0,124,1,2078.7000000029802,406041.0,7189,lead,NF,C,398315,398315,396486,397598,396486,398565,398115,398115,398565,95
84,test,1,inc,1,z,Tue Jul 29 2025 15:32:46 GMT-0500 (Central Daylight Time),410069.0,copper,900,I,z,z,None,512,313.0,199.0,30,1,1944.8999999910593,408124.10000000894,7189,raisin,NF,C,400198,400198,398569,399481,398569,400514,399998,399998,400514,96
85,test,1,con,1,m,Tue Jul 29 2025 15:32:46 GMT-0500 (Central Daylight Time),412168.299999997,bronze,1100,I,m,m,None,451,251.0,200.0,68,1,2095.8999999910593,410072.40000000596,7189,bronze,NF,C,402347,402347,400517,401630,400518,402613,402147,402147,402613,97
86,test,1,inc,1,z,Tue Jul 29 2025 15:32:46 GMT-0500 (Central Daylight Time),414001.10000000894,gold,800,I,z,z,None,492,293.0,199.0,61,1,1829.2000000029802,412171.90000000596,7189,plum,NF,C,404146,404146,402617,403430,402617,404446,403947,403947,404446,98
87,test,1,con,1,m,Tue Jul 29 2025 15:32:46 GMT-0500 (Central Daylight Time),415933.799999997,cobalt,1000,I,m,m,None,387,187.0,200.0,91,1,1928.8999999910593,414004.90000000596,7189,cobalt,NF,C,406179,406179,404450,405463,404450,406379,405979,405979,406379,99
88,test,1,inc,1,z,Tue Jul 29 2025 15:32:46 GMT-0500 (Central Daylight Time),417983.200000003,silver,1000,I,z,z,None,502,302.0,200.0,31,1,2045.7999999970198,415937.40000000596,7189,raisin,NF,C,408112,408112,406382,407395,406383,408428,407912,407912,408428,100
89,test,1,inc,1,z,Tue Jul 29 2025 15:32:46 GMT-0500 (Central Daylight Time),419782.60000000894,bronze,800,I,z,z,None,454,254.0,200.0,21,1,1795.7000000029802,417986.90000000596,7189,orange,NF,C,409961,409961,408432,409245,408432,410228,409761,409761,410228,101
90,test,1,inc,1,m,Tue Jul 29 2025 15:32:46 GMT-0500 (Central Daylight Time),421565.200000003,banana,800,I,m,m,None,436,237.0,199.0,77,1,1779.0,419786.200000003,7189,copper,NF,C,411761,411761,410231,411044,410231,412010,411561,411561,412010,102
91,test,1,inc,1,m,Tue Jul 29 2025 15:32:46 GMT-0500 (Central Daylight Time),423564.799999997,pear,900,I,m,m,None,563,364.0,199.0,118,1,1996.0,421568.799999997,7189,zinc,NF,C,413643,413643,412014,412927,412014,414010,413443,413444,414010,103
92,test,1,inc,1,m,Tue Jul 29 2025 15:32:46 GMT-0500 (Central Daylight Time),425697.60000000894,plum,1100,I,m,m,None,499,299.0,200.0,120,1,2128.5,423569.10000000894,7189,zinc,NF,C,415843,415843,414014,415126,414014,416143,415643,415643,416143,104
93,test,1,inc,1,z,Tue Jul 29 2025 15:32:46 GMT-0500 (Central Daylight Time),427830.0,lead,1100,I,z,z,None,445,245.0,200.0,64,1,2128.5999999940395,425701.40000000596,7189,plum,NF,C,418025,418025,416146,417320,416147,418275,417825,417825,418275,105
94,test,1,con,1,m,Tue Jul 29 2025 15:32:46 GMT-0500 (Central Daylight Time),429629.60000000894,bronze,800,I,m,m,None,455,255.0,200.0,65,1,1794.9000000059605,427834.700000003,7189,bronze,NF,C,419808,419808,418280,419092,418280,420075,419608,419608,420075,106
95,test,1,con,1,z,Tue Jul 29 2025 15:32:46 GMT-0500 (Central Daylight Time),431795.5,pear,1100,I,z,z,None,523,324.0,199.0,44,1,2162.0,429633.5,7189,pear,NF,C,421907,421907,420079,421191,420079,422241,421708,421708,422241,107
96,test,1,inc,1,z,Tue Jul 29 2025 15:32:46 GMT-0500 (Central Daylight Time),433861.40000000596,lead,1100,I,z,z,None,421,222.0,199.0,56,1,2062.1000000089407,431799.299999997,7189,kiwi,NF,C,424073,424073,422244,423357,422245,424306,423874,423874,424306,108
97,test,1,con,1,m,Tue Jul 29 2025 15:32:46 GMT-0500 (Central Daylight Time),435894.200000003,copper,1000,I,m,m,None,486,287.0,199.0,75,1,2029.2999999970198,433864.90000000596,7189,copper,NF,C,426039,426039,424310,425323,424310,426339,425840,425840,426339,109
98,test,1,con,1,z,Tue Jul 29 2025 15:32:46 GMT-0500 (Central Daylight Time),437910.299999997,orange,900,I,z,z,None,579,379.0,200.0,18,1,2012.2999999970198,435898.0,7189,orange,NF,C,427972,427972,426343,427256,426343,428355,427772,427772,428355,110
99,test,1,con,1,m,Tue Jul 29 2025 15:32:46 GMT-0500 (Central Daylight Time),439626.60000000894,cobalt,800,I,m,m,None,383,183.0,200.0,89,1,1712.4000000059605,437914.200000003,7189,cobalt,NF,C,429888,429888,428359,429172,428359,430072,429688,429688,430072,111
100,test,1,con,1,z,Tue Jul 29 2025 15:32:46 GMT-0500 (Central Daylight Time),441625.700000003,kiwi,1100,I,z,z,None,358,158.0,200.0,52,1,1995.5,439630.200000003,7189,kiwi,NF,C,431904,431904,430075,431188,430075,432071,431704,431704,432071,112
101,test,1,inc,1,m,Tue Jul 29 2025 15:32:46 GMT-0500 (Central Daylight Time),443558.299999997,cherry,900,I,m,m,None,503,304.0,199.0,70,1,1929.199999988079,441629.10000000894,7189,bronze,NF,C,433687,433687,432074,432987,432074,434003,433488,433488,434003,113
102,test,1,con,1,z,Tue Jul 29 2025 15:32:46 GMT-0500 (Central Daylight Time),445591.200000003,lime,1000,I,z,z,None,486,287.0,199.0,35,1,2029.2000000029802,443562.0,7189,lime,NF,C,435736,435736,434007,435020,434007,436036,435537,435537,436036,114
103,test,1,inc,1,z,Tue Jul 29 2025 15:32:46 GMT-0500 (Central Daylight Time),447440.60000000894,bronze,800,I,z,z,None,509,309.0,200.0,13,1,1845.800000011921,445594.799999997,7189,cherry,NF,C,437569,437569,436040,436853,436040,437886,437369,437369,437886,115
104,test,1,con,1,z,Tue Jul 29 2025 15:32:46 GMT-0500 (Central Daylight Time),449456.60000000894,plum,1100,I,z,z,None,376,176.0,200.0,60,1,2011.9000000059605,447444.700000003,7189,plum,NF,C,439719,439719,437890,439002,437890,439902,439518,439518,439902,116
105,test,1,con,1,m,Tue Jul 29 2025 15:32:46 GMT-0500 (Central Daylight Time),451439.40000000596,silver,1100,I,m,m,None,359,160.0,199.0,84,1,1978.7000000029802,449460.700000003,7189,silver,NF,C,441718,441718,439906,441018,439906,441884,441519,441519,441884,117
106,test,1,inc,1,z,Tue Jul 29 2025 15:32:46 GMT-0500 (Central Daylight Time),453388.5,zinc,1000,I,z,z,None,414,214.0,200.0,39,1,1945.2000000029802,451443.299999997,7189,lime,NF,C,443617,443617,441888,442901,441889,443834,443417,443417,443834,118
107,test,1,con,1,z,Tue Jul 29 2025 15:32:46 GMT-0500 (Central Daylight Time),455188.0,banana,900,I,z,z,None,356,156.0,200.0,2,1,1796.0,453392.0,7189,banana,NF,C,445467,445467,443837,444750,443837,445633,445267,445267,445633,119
108,test,1,inc,1,z,Tue Jul 29 2025 15:32:46 GMT-0500 (Central Daylight Time),457037.5,gold,800,I,z,z,None,505,305.0,200.0,37,1,1845.8999999910593,455191.60000000894,7189,lime,NF,C,447166,447166,445637,446450,445637,447483,446966,446966,447483,120
109,test,1,inc,1,z,Tue Jul 29 2025 15:32:46 GMT-0500 (Central Daylight Time),459053.5,zinc,1000,I,z,z,None,470,271.0,199.0,63,1,2012.3999999910593,457041.10000000894,7189,plum,NF,C,449215,449215,447486,448499,447486,449499,449016,449016,449499,121
110,test,1,inc,1,z,Tue Jul 29 2025 15:32:46 GMT-0500 (Central Daylight Time),461086.10000000894,cobalt,1100,I,z,z,None,394,194.0,200.0,16,1,2028.300000011921,459057.799999997,7189,cherry,NF,C,451332,451332,449503,450615,449503,451531,451131,451131,451531,122
111,test,1,con,1,z,Tue Jul 29 2025 15:32:46 GMT-0500 (Central Daylight Time),462869.0,kiwi,800,I,z,z,None,447,247.0,200.0,49,1,1779.2000000029802,461089.799999997,7189,kiwi,NF,C,453064,453064,451535,452348,451535,453314,452864,452864,453314,123
112,test,1,inc,1,z,Tue Jul 29 2025 15:32:46 GMT-0500 (Central Daylight Time),464868.40000000596,silver,1000,I,z,z,None,455,255.0,200.0,7,1,1995.6000000089407,462872.799999997,7189,banana,NF,C,455047,455047,453318,454331,453318,455313,454847,454847,455313,124
113,test,1,inc,1,m,Tue Jul 29 2025 15:32:46 GMT-0500 (Central Daylight Time),467267.5,raisin,1100,I,m,m,None,756,556.0,200.0,96,1,2395.5,464872.0,7189,cobalt,NF,C,457147,457147,455317,456430,455317,457713,456946,456946,457713,125
114,test,1,inc,1,z,Tue Jul 29 2025 15:32:46 GMT-0500 (Central Daylight Time),469117.10000000894,gold,800,I,z,z,None,513,313.0,200.0,53,1,1845.800000011921,467271.299999997,7189,kiwi,NF,C,459246,459246,457716,458529,457716,459562,459046,459046,459562,126
115,test,1,inc,1,z,Tue Jul 29 2025 15:32:46 GMT-0500 (Central Daylight Time),471216.200000003,silver,1000,I,z,z,None,552,352.0,200.0,23,1,2095.0,469121.200000003,7189,orange,NF,C,461295,461295,459566,460579,459566,461661,461095,461095,461661,127
116,test,1,inc,1,m,Tue Jul 29 2025 15:32:46 GMT-0500 (Central Daylight Time),473349.0,banana,800,I,m,m,None,788,589.0,199.0,69,1,2128.5999999940395,471220.40000000596,7189,bronze,NF,C,463194,463194,461665,462478,461666,463794,462995,462995,463794,128
