acc_sum,block_c,block_dur,condition,correct,correct_response,countdown,datetime,endtime,project,response,response_time,response_time_test1_response,response_time_test2_response,row_sel,same,session_number,start_end,starttime,stim1,stim2,subject_id,task,task_vers,time_test1,time_test2,trial
1,1,0.0,prac,1,m,30000.0,Thu Aug 14 2025 10:37:10 GMT-0500 (Central Daylight Time),40126.80000001192,O,m,2012,,,2,no,1,3544.099999964237,36582.700000047684,practrial2.png,practrial2b.png,7055,PC,A,,,1
2,1,0.0,prac,1,m,30000.0,Thu Aug 14 2025 10:37:10 GMT-0500 (Central Daylight Time),42925.0,O,m,1264,,,4,no,1,2792.2999999523163,40132.700000047684,practrial4.png,practrial4b.png,7055,PC,A,,,2
2,1,0.0,prac,0,m,30000.0,Thu Aug 14 2025 10:37:10 GMT-0500 (Central Daylight Time),47373.60000002384,O,z,2939,,,6,no,1,4443.899999976158,42929.700000047684,practrial6.png,practrial6b.png,7055,PC,A,,,3
3,1,0.0,prac,1,z,30000.0,Thu Aug 14 2025 10:37:10 GMT-0500 (Central Daylight Time),50123.60000002384,O,z,1233,,,3,yes,1,2743.300000011921,47380.30000001192,practrial3.png,practrial3.png,7055,PC,A,,,4
4,1,0.0,prac,1,z,30000.0,Thu Aug 14 2025 10:37:10 GMT-0500 (Central Daylight Time),52888.80000001192,O,z,1226,,,5,yes,1,2759.0,50129.80000001192,practrial5.png,practrial5.png,7055,PC,A,,,5
5,1,0.0,prac,1,z,30000.0,Thu Aug 14 2025 10:37:10 GMT-0500 (Central Daylight Time),55353.60000002384,O,z,927,,,1,yes,1,2458.300000011921,52895.30000001192,practrial1.png,practrial1.png,7055,PC,A,,,6
0,1,2.566999912261963,test,0,z,27433.000087738037,Thu Aug 14 2025 10:37:10 GMT-0500 (Central Daylight Time),63736.10000002384,O,m,2546,2546,,1,yes,1,2563.300000011921,61172.80000001192,test1trial1.png,test1trial1.png,7055,PC,A,59272,,1
1,1,3.8999998569488525,test,1,m,26100.000143051147,Thu Aug 14 2025 10:37:10 GMT-0500 (Central Daylight Time),65068.700000047684,O,m,1320,1320,,2,no,1,1328.2000000476837,63740.5,test1trial2.png,test1trial2b.png,7055,PC,A,61839,,2
2,1,5.197999954223633,test,1,z,24802.000045776367,Thu Aug 14 2025 10:37:10 GMT-0500 (Central Daylight Time),66372.60000002384,O,z,1286,1286,,3,yes,1,1300.699999988079,65071.90000003576,test1trial3.png,test1trial3.png,7055,PC,A,63170,,3
3,1,6.31499981880188,test,1,m,23685.00018119812,Thu Aug 14 2025 10:37:10 GMT-0500 (Central Daylight Time),67483.5,O,m,1093,1093,,4,no,1,1108.5,66375.0,test1trial4.png,test1trial4b.png,7055,PC,A,64474,,4
4,1,7.81499981880188,test,1,z,22185.00018119812,Thu Aug 14 2025 10:37:10 GMT-0500 (Central Daylight Time),68983.40000003576,O,z,1486,1486,,5,yes,1,1496.300000011921,67487.10000002384,test1trial5.png,test1trial5.png,7055,PC,A,65586,,5
5,1,8.96399998664856,test,1,m,21036.00001335144,Thu Aug 14 2025 10:37:10 GMT-0500 (Central Daylight Time),70133.0,O,m,1130,1130,,6,no,1,1146.0999999642372,68986.90000003576,test1trial6.png,test1trial6b.png,7055,PC,A,67086,,6
6,1,10.19700002670288,test,1,z,19802.99997329712,Thu Aug 14 2025 10:37:10 GMT-0500 (Central Daylight Time),71366.10000002384,O,z,1213,1213,,7,yes,1,1229.300000011921,70136.80000001192,test1trial7.png,test1trial7.png,7055,PC,A,68236,,7
6,1,11.312999963760376,test,0,m,18687.000036239624,Thu Aug 14 2025 10:37:10 GMT-0500 (Central Daylight Time),72481.80000001192,O,z,1098,1098,,8,no,1,1111.800000011921,71370.0,test1trial8.png,test1trial8b.png,7055,PC,A,69469,,8
7,1,12.246000051498413,test,1,z,17753.999948501587,Thu Aug 14 2025 10:37:10 GMT-0500 (Central Daylight Time),73414.70000004768,O,z,920,920,,9,yes,1,929.6000000238419,72485.10000002384,test1trial9.png,test1trial9.png,7055,PC,A,70584,,9
8,1,13.395999908447266,test,1,m,16604.000091552734,Thu Aug 14 2025 10:37:10 GMT-0500 (Central Daylight Time),74565.10000002384,O,m,1138,1138,,10,no,1,1146.6000000238419,73418.5,test1trial10.png,test1trial10b.png,7055,PC,A,71517,,10
9,1,15.062000036239624,test,1,z,14937.999963760376,Thu Aug 14 2025 10:37:10 GMT-0500 (Central Daylight Time),76231.30000001192,O,z,1646,1646,,11,yes,1,1662.800000011921,74568.5,test1trial11.png,test1trial11.png,7055,PC,A,72667,,11
9,1,18.210999965667725,test,0,m,11789.000034332275,Thu Aug 14 2025 10:37:10 GMT-0500 (Central Daylight Time),79379.5,O,z,3138,3138,,12,no,1,3144.399999976158,76235.10000002384,test1trial12.png,test1trial12b.png,7055,PC,A,74334,,12
10,1,20.3439998626709,test,1,m,9656.000137329102,Thu Aug 14 2025 10:37:10 GMT-0500 (Central Daylight Time),81513.20000004768,O,m,2129,2129,,13,no,1,2130.300000011921,79382.90000003576,test1trial13.png,test1trial13b.png,7055,PC,A,77482,,13
11,1,21.526000022888184,test,1,m,8473.999977111816,Thu Aug 14 2025 10:37:10 GMT-0500 (Central Daylight Time),82695.0,O,m,1168,1168,,14,no,1,1178.3999999761581,81516.60000002384,test1trial14.png,test1trial14b.png,7055,PC,A,79616,,14
12,1,22.64299988746643,test,1,z,7357.000112533569,Thu Aug 14 2025 10:37:10 GMT-0500 (Central Daylight Time),83811.70000004768,O,z,1098,1098,,15,yes,1,1113.4000000357628,82698.30000001192,test1trial15.png,test1trial15.png,7055,PC,A,80797,,15
13,1,23.80900001525879,test,1,m,6190.999984741211,Thu Aug 14 2025 10:37:10 GMT-0500 (Central Daylight Time),84978.30000001192,O,m,1147,1147,,16,no,1,1162.0,83816.30000001192,test1trial16.png,test1trial16b.png,7055,PC,A,81915,,16
14,1,25.743000030517578,test,1,z,4256.999969482422,Thu Aug 14 2025 10:37:10 GMT-0500 (Central Daylight Time),86911.30000001192,O,z,1912,1912,,17,yes,1,1924.199999988079,84987.10000002384,test1trial17.png,test1trial17.png,7055,PC,A,83086,,17
15,1,26.95899987220764,test,1,m,3041.0001277923584,Thu Aug 14 2025 10:37:10 GMT-0500 (Central Daylight Time),88127.30000001192,O,m,1200,1200,,18,no,1,1211.300000011921,86916.0,test1trial18.png,test1trial18b.png,7055,PC,A,85015,,18
15,1,30.006999969482422,test,0,m,-6.999969482421875,Thu Aug 14 2025 10:37:10 GMT-0500 (Central Daylight Time),91175.80000001192,O,None,3044,3044,,19,no,1,3045.800000011921,88130.0,test1trial19.png,test1trial19b.png,7055,PC,A,86229,,19
1,2,2.2149999141693115,test,1,m,27785.00008583069,Thu Aug 14 2025 10:37:10 GMT-0500 (Central Daylight Time),95173.60000002384,O,m,2192,,2192.0,1,no,1,7043.600000023842,88130.0,test2trial1.png,test2trial1b.png,7055,PC,A,,91064.0,1
2,2,4.496999979019165,test,1,m,25503.000020980835,Thu Aug 14 2025 10:37:10 GMT-0500 (Central Daylight Time),97456.10000002384,O,m,2266,,2266.0,2,no,1,9326.100000023842,88130.0,test2trial2.png,test2trial2b.png,7055,PC,A,,93275.0,2
3,2,5.9649999141693115,test,1,z,24035.00008583069,Thu Aug 14 2025 10:37:10 GMT-0500 (Central Daylight Time),98923.90000003576,O,z,1459,,1459.0,3,yes,1,10793.900000035763,88130.0,test2trial3.png,test2trial3.png,7055,PC,A,,95557.0,3
4,2,7.047999858856201,test,1,z,22952.0001411438,Thu Aug 14 2025 10:37:10 GMT-0500 (Central Daylight Time),100006.80000001192,O,z,1067,,1067.0,4,yes,1,11876.800000011921,88130.0,test2trial4.png,test2trial4.png,7055,PC,A,,97028.0,4
5,2,8.081000089645386,test,1,z,21918.999910354614,Thu Aug 14 2025 10:37:10 GMT-0500 (Central Daylight Time),101039.80000001192,O,z,1018,,1018.0,5,yes,1,12909.800000011921,88130.0,test2trial5.png,test2trial5.png,7055,PC,A,,98110.0,5
6,2,10.69700002670288,test,1,z,19302.99997329712,Thu Aug 14 2025 10:37:10 GMT-0500 (Central Daylight Time),103655.5,O,z,2596,,2596.0,6,yes,1,15525.5,88130.0,test2trial6.png,test2trial6.png,7055,PC,A,,99142.0,6
7,2,11.963000059127808,test,1,m,18036.999940872192,Thu Aug 14 2025 10:37:10 GMT-0500 (Central Daylight Time),104921.80000001192,O,m,1256,,1256.0,7,no,1,16791.80000001192,88130.0,test2trial7.png,test2trial7b.png,7055,PC,A,,101759.0,7
8,2,13.043999910354614,test,1,m,16956.000089645386,Thu Aug 14 2025 10:37:10 GMT-0500 (Central Daylight Time),106003.30000001192,O,m,1061,,1061.0,8,no,1,17873.30000001192,88130.0,test2trial8.png,test2trial8b.png,7055,PC,A,,103026.0,8
9,2,14.411999940872192,test,1,z,15588.000059127808,Thu Aug 14 2025 10:37:10 GMT-0500 (Central Daylight Time),107371.0,O,z,1354,,1354.0,9,yes,1,19241.0,88130.0,test2trial9.png,test2trial9.png,7055,PC,A,,104108.0,9
10,2,15.496000051498413,test,1,z,14503.999948501587,Thu Aug 14 2025 10:37:10 GMT-0500 (Central Daylight Time),108454.5,O,z,1063,,1063.0,10,yes,1,20324.5,88130.0,test2trial10.png,test2trial10.png,7055,PC,A,,105473.0,10
11,2,16.64299988746643,test,1,m,13357.00011253357,Thu Aug 14 2025 10:37:10 GMT-0500 (Central Daylight Time),109602.20000004768,O,m,1139,,1139.0,11,no,1,21472.200000047684,88130.0,test2trial11.png,test2trial11b.png,7055,PC,A,,106556.0,11
12,2,18.060999870300293,test,1,m,11939.000129699707,Thu Aug 14 2025 10:37:10 GMT-0500 (Central Daylight Time),111020.10000002384,O,m,1397,,1397.0,12,no,1,22890.100000023842,88130.0,test2trial12.png,test2trial12b.png,7055,PC,A,,107706.0,12
13,2,19.743000030517578,test,1,z,10256.999969482422,Thu Aug 14 2025 10:37:10 GMT-0500 (Central Daylight Time),112701.5,O,z,1667,,1667.0,13,yes,1,24571.5,88130.0,test2trial13.png,test2trial13.png,7055,PC,A,,109124.0,13
13,2,20.960000038146973,test,0,m,9039.999961853027,Thu Aug 14 2025 10:37:10 GMT-0500 (Central Daylight Time),113919.20000004768,O,z,1196,,1196.0,14,no,1,25789.200000047684,88130.0,test2trial14.png,test2trial14b.png,7055,PC,A,,110806.0,14
14,2,22.009999990463257,test,1,m,7990.000009536743,Thu Aug 14 2025 10:37:10 GMT-0500 (Central Daylight Time),114968.20000004768,O,m,1033,,1033.0,15,no,1,26838.200000047684,88130.0,test2trial15.png,test2trial15b.png,7055,PC,A,,112022.0,15
14,2,24.35599994659424,test,0,m,5644.000053405762,Thu Aug 14 2025 10:37:10 GMT-0500 (Central Daylight Time),117315.90000003576,O,z,2336,,2336.0,16,no,1,29185.900000035763,88130.0,test2trial16.png,test2trial16b.png,7055,PC,A,,113071.0,16
15,2,25.50499987602234,test,1,z,4495.000123977661,Thu Aug 14 2025 10:37:10 GMT-0500 (Central Daylight Time),118464.70000004768,O,z,1139,,1139.0,17,yes,1,30334.700000047684,88130.0,test2trial17.png,test2trial17.png,7055,PC,A,,115420.0,17
16,2,26.956000089645386,test,1,z,3043.9999103546143,Thu Aug 14 2025 10:37:10 GMT-0500 (Central Daylight Time),119915.80000001192,O,z,1428,,1428.0,18,yes,1,31785.80000001192,88130.0,test2trial18.png,test2trial18.png,7055,PC,A,,116571.0,18
17,2,28.02300000190735,test,1,z,1976.9999980926514,Thu Aug 14 2025 10:37:10 GMT-0500 (Central Daylight Time),120982.40000003576,O,z,1050,,1050.0,19,yes,1,32852.40000003576,88130.0,test2trial19.png,test2trial19.png,7055,PC,A,,118020.0,19
17,2,30.006999969482422,test,0,z,-6.999969482421875,Thu Aug 14 2025 10:37:10 GMT-0500 (Central Daylight Time),122966.10000002384,O,None,1979,,1979.0,20,yes,1,34836.10000002384,88130.0,test2trial20.png,test2trial20.png,7055,PC,A,,119084.0,20
