block_c,block_dur,condition,countdown,datetime,endtime,list,multichar_response,project,response,response_time,session_number,start_end,starttime,subject_id,task,task_vers,trial
,,,,Thu Jun 19 2025 17:04:24 GMT-0500 (Central Daylight Time),,,,O,space,405,1,,,7168,WL,C,
prac,,0,,Thu Jun 19 2025 17:04:24 GMT-0500 (Central Daylight Time),,NA,b,O,b,14865,1,,,7168,WL,C,1.0
prac,,0,,Thu Jun 19 2025 17:04:24 GMT-0500 (Central Daylight Time),,NA,bo,O,o,1040,1,,,7168,WL,C,1.0
prac,,0,,Thu Jun 19 2025 17:04:24 GMT-0500 (Central Daylight Time),,NA,boo,O,o,224,1,,,7168,WL,C,1.0
prac,,0,,Thu Jun 19 2025 17:04:24 GMT-0500 (Central Daylight Time),,NA,boos,O,s,912,1,,,7168,WL,C,1.0
prac,,0,,Thu Jun 19 2025 17:04:24 GMT-0500 (Central Daylight Time),,NA,boost,O,t,473,1,,,7168,WL,C,1.0
prac,,0,,Thu Jun 19 2025 17:04:24 GMT-0500 (Central Daylight Time),,NA,boostenter,O,enter,3481,1,,,7168,WL,C,1.0
1,2.0999999046325684,learn,57900.00009536743,Thu Jun 19 2025 17:04:24 GMT-0500 (Central Daylight Time),159156.69999998808,A,w,O,w,2064,1,2098.599999964237,157058.10000002384,7168,WL,C,1.0
1,2.3320000171661377,learn,57667.99998283386,Thu Jun 19 2025 17:04:24 GMT-0500 (Central Daylight Time),159388.80000001192,A,wh,O,h,190,1,2330.699999988079,157058.10000002384,7168,WL,C,1.0
1,3.81499981880188,learn,56185.00018119812,Thu Jun 19 2025 17:04:24 GMT-0500 (Central Daylight Time),160871.80000001192,A,whe,O,e,1456,1,3813.699999988079,157058.10000002384,7168,WL,C,1.0
1,4.96399998664856,learn,55036.00001335144,Thu Jun 19 2025 17:04:24 GMT-0500 (Central Daylight Time),162021.0,A,whea,O,a,1126,1,4962.899999976158,157058.10000002384,7168,WL,C,1.0
1,5.247999906539917,learn,54752.00009346008,Thu Jun 19 2025 17:04:24 GMT-0500 (Central Daylight Time),162305.10000002384,A,wheat,O,t,258,1,5247.0,157058.10000002384,7168,WL,C,1.0
1,7.86299991607666,learn,52137.00008392334,Thu Jun 19 2025 17:04:24 GMT-0500 (Central Daylight Time),164919.90000003576,A,wheatenter,O,enter,2580,1,7861.800000011921,157058.10000002384,7168,WL,C,1.0
1,9.646999835968018,learn,50353.00016403198,Thu Jun 19 2025 17:04:24 GMT-0500 (Central Daylight Time),166703.60000002384,A,q,O,q,1771,1,1783.300000011921,164920.30000001192,7168,WL,C,2.0
1,10.146999835968018,learn,49853.00016403198,Thu Jun 19 2025 17:04:24 GMT-0500 (Central Daylight Time),167203.5,A,qu,O,u,454,1,2283.199999988079,164920.30000001192,7168,WL,C,2.0
1,10.663999795913696,learn,49336.000204086304,Thu Jun 19 2025 17:04:24 GMT-0500 (Central Daylight Time),167719.90000003576,A,que,O,e,493,1,2799.600000023842,164920.30000001192,7168,WL,C,2.0
1,10.896999835968018,learn,49103.00016403198,Thu Jun 19 2025 17:04:24 GMT-0500 (Central Daylight Time),167953.30000001192,A,quee,O,e,188,1,3033.0,164920.30000001192,7168,WL,C,2.0
1,11.395999908447266,learn,48604.000091552734,Thu Jun 19 2025 17:04:24 GMT-0500 (Central Daylight Time),168452.5,A,queen,O,n,457,1,3532.199999988079,164920.30000001192,7168,WL,C,2.0
1,12.84499979019165,learn,47155.00020980835,Thu Jun 19 2025 17:04:24 GMT-0500 (Central Daylight Time),169901.60000002384,A,queenenter,O,enter,1419,1,4981.300000011921,164920.30000001192,7168,WL,C,2.0
1,16.794999837875366,learn,43205.000162124634,Thu Jun 19 2025 17:04:24 GMT-0500 (Central Daylight Time),173851.30000001192,A,b,O,b,3926,1,3949.399999976158,169901.90000003576,7168,WL,C,3.0
1,17.661999940872192,learn,42338.00005912781,Thu Jun 19 2025 17:04:24 GMT-0500 (Central Daylight Time),174717.80000001192,A,bo,O,o,830,1,4815.899999976158,169901.90000003576,7168,WL,C,3.0
1,18.027999877929688,learn,41972.00012207031,Thu Jun 19 2025 17:04:24 GMT-0500 (Central Daylight Time),175084.30000001192,A,bod,O,d,332,1,5182.399999976158,169901.90000003576,7168,WL,C,3.0
1,18.3439998626709,learn,41656.0001373291,Thu Jun 19 2025 17:04:24 GMT-0500 (Central Daylight Time),175400.40000003576,A,body,O,y,286,1,5498.5,169901.90000003576,7168,WL,C,3.0
1,19.459999799728394,learn,40540.00020027161,Thu Jun 19 2025 17:04:24 GMT-0500 (Central Daylight Time),176516.10000002384,A,bodyenter,O,enter,1077,1,6614.199999988079,169901.90000003576,7168,WL,C,3.0
1,22.14299988746643,learn,37857.00011253357,Thu Jun 19 2025 17:04:24 GMT-0500 (Central Daylight Time),179199.60000002384,A,l,O,l,2673,1,2683.199999988079,176516.40000003576,7168,WL,C,4.0
1,22.459999799728394,learn,37540.00020027161,Thu Jun 19 2025 17:04:24 GMT-0500 (Central Daylight Time),179516.10000002384,A,le,O,e,278,1,2999.699999988079,176516.40000003576,7168,WL,C,4.0
1,22.875999927520752,learn,37124.00007247925,Thu Jun 19 2025 17:04:24 GMT-0500 (Central Daylight Time),179932.69999998808,A,let,O,t,390,1,3416.2999999523163,176516.40000003576,7168,WL,C,4.0
1,23.075999975204468,learn,36924.00002479553,Thu Jun 19 2025 17:04:24 GMT-0500 (Central Daylight Time),180132.10000002384,A,lett,O,t,163,1,3615.699999988079,176516.40000003576,7168,WL,C,4.0
1,23.508999824523926,learn,36491.000175476074,Thu Jun 19 2025 17:04:24 GMT-0500 (Central Daylight Time),180565.69999998808,A,lette,O,e,406,1,4049.2999999523163,176516.40000003576,7168,WL,C,4.0
1,23.825999975204468,learn,36174.00002479553,Thu Jun 19 2025 17:04:24 GMT-0500 (Central Daylight Time),180882.30000001192,A,letter,O,r,275,1,4365.899999976158,176516.40000003576,7168,WL,C,4.0
1,25.240999937057495,learn,34759.000062942505,Thu Jun 19 2025 17:04:24 GMT-0500 (Central Daylight Time),182297.5,A,letterenter,O,enter,1380,1,5781.099999964237,176516.40000003576,7168,WL,C,4.0
1,27.757999897003174,learn,32242.000102996826,Thu Jun 19 2025 17:04:24 GMT-0500 (Central Daylight Time),184814.30000001192,A,c,O,c,2499,1,2516.5,182297.80000001192,7168,WL,C,5.0
1,28.073999881744385,learn,31926.000118255615,Thu Jun 19 2025 17:04:24 GMT-0500 (Central Daylight Time),185129.80000001192,A,co,O,o,270,1,2832.0,182297.80000001192,7168,WL,C,5.0
1,28.607999801635742,learn,31392.000198364258,Thu Jun 19 2025 17:04:24 GMT-0500 (Central Daylight Time),185664.0,A,cor,O,r,513,1,3366.199999988079,182297.80000001192,7168,WL,C,5.0
1,28.889999866485596,learn,31110.000133514404,Thu Jun 19 2025 17:04:24 GMT-0500 (Central Daylight Time),185946.5,A,corn,O,n,247,1,3648.699999988079,182297.80000001192,7168,WL,C,5.0
1,29.822999954223633,learn,30177.000045776367,Thu Jun 19 2025 17:04:24 GMT-0500 (Central Daylight Time),186879.19999998808,A,cornenter,O,enter,917,1,4581.399999976158,182297.80000001192,7168,WL,C,5.0
1,54.717000007629395,learn,5282.9999923706055,Thu Jun 19 2025 17:04:24 GMT-0500 (Central Daylight Time),211772.90000003576,A,b,O,b,24885,1,24893.400000035763,186879.5,7168,WL,C,6.0
1,55.531999826431274,learn,4468.000173568726,Thu Jun 19 2025 17:04:24 GMT-0500 (Central Daylight Time),212588.5,A,bo,O,o,793,1,25709.0,186879.5,7168,WL,C,6.0
1,56.01599979400635,learn,3984.0002059936523,Thu Jun 19 2025 17:04:24 GMT-0500 (Central Daylight Time),213072.10000002384,A,boy,O,y,451,1,26192.600000023842,186879.5,7168,WL,C,6.0
1,57.38099980354309,learn,2619.000196456909,Thu Jun 19 2025 17:04:24 GMT-0500 (Central Daylight Time),214436.90000003576,A,boyenter,O,enter,1325,1,27557.400000035763,186879.5,7168,WL,C,6.0
1,60.013999938964844,learn,-13.99993896484375,Thu Jun 19 2025 17:04:24 GMT-0500 (Central Daylight Time),217070.5,A,None,O,None,2626,1,2633.199999988079,214437.30000001192,7168,WL,C,7.0
2,1.4509999752044678,learn,58549.00002479553,Thu Jun 19 2025 17:04:24 GMT-0500 (Central Daylight Time),296212.0,A,t,O,t,1406,1,1449.3999999761581,294762.60000002384,7168,WL,C,1.0
2,2.2160000801086426,learn,57783.99991989136,Thu Jun 19 2025 17:04:24 GMT-0500 (Central Daylight Time),296977.3000000119,A,to,O,o,743,1,2214.699999988079,294762.60000002384,7168,WL,C,1.0
2,3.065999984741211,learn,56934.00001525879,Thu Jun 19 2025 17:04:24 GMT-0500 (Central Daylight Time),297827.40000003576,A,tow,O,w,821,1,3064.800000011921,294762.60000002384,7168,WL,C,1.0
2,3.3320000171661377,learn,56667.99998283386,Thu Jun 19 2025 17:04:24 GMT-0500 (Central Daylight Time),298093.60000002384,A,towe,O,e,235,1,3331.0,294762.60000002384,7168,WL,C,1.0
2,3.682000160217285,learn,56317.999839782715,Thu Jun 19 2025 17:04:24 GMT-0500 (Central Daylight Time),298443.6999999881,A,tower,O,r,314,1,3681.099999964237,294762.60000002384,7168,WL,C,1.0
2,5.263999938964844,learn,54736.000061035156,Thu Jun 19 2025 17:04:24 GMT-0500 (Central Daylight Time),300025.5,A,towerenter,O,enter,1543,1,5262.899999976158,294762.60000002384,7168,WL,C,1.0
2,6.998000144958496,learn,53001.999855041504,Thu Jun 19 2025 17:04:24 GMT-0500 (Central Daylight Time),301759.3000000119,A,q,O,q,1723,1,1733.5,300025.8000000119,7168,WL,C,2.0
2,7.29800009727478,learn,52701.99990272522,Thu Jun 19 2025 17:04:24 GMT-0500 (Central Daylight Time),302059.8000000119,A,qu,O,u,269,1,2034.0,300025.8000000119,7168,WL,C,2.0
2,7.980000019073486,learn,52019.999980926514,Thu Jun 19 2025 17:04:24 GMT-0500 (Central Daylight Time),302742.0,A,que,O,e,652,1,2716.199999988079,300025.8000000119,7168,WL,C,2.0
2,8.19700002670288,learn,51802.99997329712,Thu Jun 19 2025 17:04:24 GMT-0500 (Central Daylight Time),302959.0,A,quee,O,e,196,1,2933.199999988079,300025.8000000119,7168,WL,C,2.0
2,8.647000074386597,learn,51352.9999256134,Thu Jun 19 2025 17:04:24 GMT-0500 (Central Daylight Time),303408.90000003576,A,queen,O,n,409,1,3383.100000023842,300025.8000000119,7168,WL,C,2.0
2,9.513000011444092,learn,50486.99998855591,Thu Jun 19 2025 17:04:24 GMT-0500 (Central Daylight Time),304274.10000002384,A,queenenter,O,enter,822,1,4248.300000011921,300025.8000000119,7168,WL,C,2.0
2,10.580000162124634,learn,49419.999837875366,Thu Jun 19 2025 17:04:24 GMT-0500 (Central Daylight Time),305341.3000000119,A,w,O,w,1060,1,1066.8999999761581,304274.40000003576,7168,WL,C,3.0
2,10.796000003814697,learn,49203.9999961853,Thu Jun 19 2025 17:04:24 GMT-0500 (Central Daylight Time),305558.0,A,wh,O,h,189,1,1283.5999999642372,304274.40000003576,7168,WL,C,3.0
2,11.195000171661377,learn,48804.99982833862,Thu Jun 19 2025 17:04:24 GMT-0500 (Central Daylight Time),305956.8000000119,A,whe,O,e,369,1,1682.3999999761581,304274.40000003576,7168,WL,C,3.0
2,11.746999979019165,learn,48253.000020980835,Thu Jun 19 2025 17:04:24 GMT-0500 (Central Daylight Time),306508.3000000119,A,whea,O,a,543,1,2233.899999976158,304274.40000003576,7168,WL,C,3.0
2,12.312999963760376,learn,47687.000036239624,Thu Jun 19 2025 17:04:24 GMT-0500 (Central Daylight Time),307074.1999999881,A,wheat,O,t,526,1,2799.7999999523163,304274.40000003576,7168,WL,C,3.0
2,13.195000171661377,learn,46804.99982833862,Thu Jun 19 2025 17:04:24 GMT-0500 (Central Daylight Time),307956.3000000119,A,wheatenter,O,enter,853,1,3681.899999976158,304274.40000003576,7168,WL,C,3.0
2,13.861999988555908,learn,46138.00001144409,Thu Jun 19 2025 17:04:24 GMT-0500 (Central Daylight Time),308623.60000002384,A,c,O,c,648,1,666.9000000357628,307956.6999999881,7168,WL,C,4.0
2,14.161999940872192,learn,45838.00005912781,Thu Jun 19 2025 17:04:24 GMT-0500 (Central Daylight Time),308923.60000002384,A,co,O,o,258,1,966.9000000357628,307956.6999999881,7168,WL,C,4.0
2,14.67900013923645,learn,45320.99986076355,Thu Jun 19 2025 17:04:24 GMT-0500 (Central Daylight Time),309440.0,A,cor,O,r,493,1,1483.300000011921,307956.6999999881,7168,WL,C,4.0
2,15.011000156402588,learn,44988.99984359741,Thu Jun 19 2025 17:04:24 GMT-0500 (Central Daylight Time),309772.90000003576,A,corn,O,n,305,1,1816.2000000476837,307956.6999999881,7168,WL,C,4.0
2,15.894000053405762,learn,44105.99994659424,Thu Jun 19 2025 17:04:24 GMT-0500 (Central Daylight Time),310655.40000003576,A,cornenter,O,enter,843,1,2698.7000000476837,307956.6999999881,7168,WL,C,4.0
2,17.361000061035156,learn,42638.999938964844,Thu Jun 19 2025 17:04:24 GMT-0500 (Central Daylight Time),312122.5,A,d,O,d,1453,1,1466.800000011921,310655.6999999881,7168,WL,C,5.0
2,17.627000093460083,learn,42372.99990653992,Thu Jun 19 2025 17:04:24 GMT-0500 (Central Daylight Time),312388.90000003576,A,do,O,o,233,1,1733.2000000476837,310655.6999999881,7168,WL,C,5.0
2,17.960999965667725,learn,42039.000034332275,Thu Jun 19 2025 17:04:24 GMT-0500 (Central Daylight Time),312722.6999999881,A,doc,O,c,295,1,2067.0,310655.6999999881,7168,WL,C,5.0
2,18.41100001335144,learn,41588.99998664856,Thu Jun 19 2025 17:04:24 GMT-0500 (Central Daylight Time),313172.1999999881,A,doct,O,t,410,1,2516.5,310655.6999999881,7168,WL,C,5.0
2,18.710999965667725,learn,41289.000034332275,Thu Jun 19 2025 17:04:24 GMT-0500 (Central Daylight Time),313472.0,A,docto,O,o,269,1,2816.300000011921,310655.6999999881,7168,WL,C,5.0
2,19.22699999809265,learn,40773.00000190735,Thu Jun 19 2025 17:04:24 GMT-0500 (Central Daylight Time),313988.60000002384,A,doctor,O,r,493,1,3332.900000035763,310655.6999999881,7168,WL,C,5.0
2,19.943000078201294,learn,40056.999921798706,Thu Jun 19 2025 17:04:24 GMT-0500 (Central Daylight Time),314704.0,A,doctorenter,O,enter,682,1,4048.300000011921,310655.6999999881,7168,WL,C,5.0
2,20.776999950408936,learn,39223.000049591064,Thu Jun 19 2025 17:04:24 GMT-0500 (Central Daylight Time),315538.1999999881,A,h,O,h,812,1,833.8999999761581,314704.3000000119,7168,WL,C,6.0
2,21.493000030517578,learn,38506.99996948242,Thu Jun 19 2025 17:04:24 GMT-0500 (Central Daylight Time),316254.5,A,ho,O,o,688,1,1550.199999988079,314704.3000000119,7168,WL,C,6.0
2,21.89300012588501,learn,38106.99987411499,Thu Jun 19 2025 17:04:24 GMT-0500 (Central Daylight Time),316654.3000000119,A,hom,O,m,371,1,1950.0,314704.3000000119,7168,WL,C,6.0
2,22.509000062942505,learn,37490.999937057495,Thu Jun 19 2025 17:04:24 GMT-0500 (Central Daylight Time),317270.8000000119,A,home,O,e,591,1,2566.5,314704.3000000119,7168,WL,C,6.0
2,23.27500009536743,learn,36724.99990463257,Thu Jun 19 2025 17:04:24 GMT-0500 (Central Daylight Time),318036.3000000119,A,homeenter,O,enter,728,1,3332.0,314704.3000000119,7168,WL,C,6.0
2,24.659000158309937,learn,35340.99984169006,Thu Jun 19 2025 17:04:24 GMT-0500 (Central Daylight Time),319420.60000002384,A,s,O,s,1376,1,1384.1000000238419,318036.5,7168,WL,C,7.0
2,24.891000032424927,learn,35108.99996757507,Thu Jun 19 2025 17:04:24 GMT-0500 (Central Daylight Time),319652.6999999881,A,su,O,u,195,1,1616.199999988079,318036.5,7168,WL,C,7.0
2,25.424999952316284,learn,34575.000047683716,Thu Jun 19 2025 17:04:24 GMT-0500 (Central Daylight Time),320186.3000000119,A,sug,O,g,511,1,2149.800000011921,318036.5,7168,WL,C,7.0
2,25.725000143051147,learn,34274.99985694885,Thu Jun 19 2025 17:04:24 GMT-0500 (Central Daylight Time),320486.40000003576,A,suge,O,e,263,1,2449.900000035763,318036.5,7168,WL,C,7.0
2,26.02400016784668,learn,33975.99983215332,Thu Jun 19 2025 17:04:24 GMT-0500 (Central Daylight Time),320785.60000002384,A,suger,O,r,266,1,2749.100000023842,318036.5,7168,WL,C,7.0
2,27.039999961853027,learn,32960.00003814697,Thu Jun 19 2025 17:04:24 GMT-0500 (Central Daylight Time),321801.6999999881,A,sugerenter,O,enter,990,1,3765.199999988079,318036.5,7168,WL,C,7.0
2,30.27300000190735,learn,29726.99999809265,Thu Jun 19 2025 17:04:24 GMT-0500 (Central Daylight Time),325034.90000003576,A,n,O,n,3211,1,3232.900000035763,321802.0,7168,WL,C,8.0
2,30.623000144958496,learn,29376.999855041504,Thu Jun 19 2025 17:04:24 GMT-0500 (Central Daylight Time),325384.8000000119,A,na,O,a,319,1,3582.800000011921,321802.0,7168,WL,C,8.0
2,30.924000024795532,learn,29075.999975204468,Thu Jun 19 2025 17:04:24 GMT-0500 (Central Daylight Time),325685.1999999881,A,nai,O,i,278,1,3883.199999988079,321802.0,7168,WL,C,8.0
2,31.572999954223633,learn,28427.000045776367,Thu Jun 19 2025 17:04:24 GMT-0500 (Central Daylight Time),326334.5,A,nail,O,l,626,1,4532.5,321802.0,7168,WL,C,8.0
2,32.53800010681152,learn,27461.999893188477,Thu Jun 19 2025 17:04:24 GMT-0500 (Central Daylight Time),327299.90000003576,A,nailenter,O,enter,938,1,5497.900000035763,321802.0,7168,WL,C,8.0
2,33.621999979019165,learn,26378.000020980835,Thu Jun 19 2025 17:04:24 GMT-0500 (Central Daylight Time),328383.8000000119,A,h,O,h,1065,1,1083.699999988079,327300.10000002384,7168,WL,C,9.0
2,34.50500011444092,learn,25494.999885559082,Thu Jun 19 2025 17:04:24 GMT-0500 (Central Daylight Time),329266.8000000119,A,ho,O,o,841,1,1966.699999988079,327300.10000002384,7168,WL,C,9.0
2,34.871999979019165,learn,25128.000020980835,Thu Jun 19 2025 17:04:24 GMT-0500 (Central Daylight Time),329633.5,A,hom,O,m,334,1,2333.399999976158,327300.10000002384,7168,WL,C,9.0
2,35.32200002670288,learn,24677.99997329712,Thu Jun 19 2025 17:04:24 GMT-0500 (Central Daylight Time),330083.3000000119,A,home,O,e,407,1,2783.199999988079,327300.10000002384,7168,WL,C,9.0
2,36.021000146865845,learn,23978.999853134155,Thu Jun 19 2025 17:04:24 GMT-0500 (Central Daylight Time),330782.0,A,homeenter,O,enter,661,1,3481.899999976158,327300.10000002384,7168,WL,C,9.0
2,38.4210000038147,learn,21578.999996185303,Thu Jun 19 2025 17:04:24 GMT-0500 (Central Daylight Time),333182.40000003576,A,b,O,b,2391,1,2400.0,330782.40000003576,7168,WL,C,10.0
2,39.187000036239624,learn,20812.999963760376,Thu Jun 19 2025 17:04:24 GMT-0500 (Central Daylight Time),333948.40000003576,A,bo,O,o,742,1,3166.0,330782.40000003576,7168,WL,C,10.0
2,40.32000017166138,learn,19679.999828338623,Thu Jun 19 2025 17:04:24 GMT-0500 (Central Daylight Time),335081.60000002384,A,bod,O,d,1114,1,4299.199999988079,330782.40000003576,7168,WL,C,10.0
2,40.503000020980835,learn,19496.999979019165,Thu Jun 19 2025 17:04:24 GMT-0500 (Central Daylight Time),335264.90000003576,A,body,O,y,144,1,4482.5,330782.40000003576,7168,WL,C,10.0
2,41.335999965667725,learn,18664.000034332275,Thu Jun 19 2025 17:04:24 GMT-0500 (Central Daylight Time),336097.0,A,bodyenter,O,enter,798,1,5314.599999964237,330782.40000003576,7168,WL,C,10.0
2,42.03600001335144,learn,17963.99998664856,Thu Jun 19 2025 17:04:24 GMT-0500 (Central Daylight Time),336797.60000002384,A,b,O,b,684,1,700.3000000119209,336097.3000000119,7168,WL,C,11.0
2,42.736000061035156,learn,17263.999938964844,Thu Jun 19 2025 17:04:24 GMT-0500 (Central Daylight Time),337497.5,A,bo,O,o,668,1,1400.199999988079,336097.3000000119,7168,WL,C,11.0
2,43.20300006866455,learn,16796.99993133545,Thu Jun 19 2025 17:04:24 GMT-0500 (Central Daylight Time),337964.5,A,boy,O,y,440,1,1867.199999988079,336097.3000000119,7168,WL,C,11.0
2,44.051000118255615,learn,15948.999881744385,Thu Jun 19 2025 17:04:24 GMT-0500 (Central Daylight Time),338812.8000000119,A,boyenter,O,enter,821,1,2715.5,336097.3000000119,7168,WL,C,11.0
2,44.88499999046326,learn,15115.000009536743,Thu Jun 19 2025 17:04:24 GMT-0500 (Central Daylight Time),339646.6999999881,A,c,O,c,816,1,833.6999999880791,338813.0,7168,WL,C,12.0
2,45.41799998283386,learn,14582.000017166138,Thu Jun 19 2025 17:04:24 GMT-0500 (Central Daylight Time),340179.90000003576,A,ca,O,a,498,1,1366.9000000357628,338813.0,7168,WL,C,12.0
2,45.88499999046326,learn,14115.000009536743,Thu Jun 19 2025 17:04:24 GMT-0500 (Central Daylight Time),340646.5,A,cat,O,t,439,1,1833.5,338813.0,7168,WL,C,12.0
2,46.11800003051758,learn,13881.999969482422,Thu Jun 19 2025 17:04:24 GMT-0500 (Central Daylight Time),340879.5,A,catt,O,t,196,1,2066.5,338813.0,7168,WL,C,12.0
2,46.66799998283386,learn,13332.000017166138,Thu Jun 19 2025 17:04:24 GMT-0500 (Central Daylight Time),341429.1999999881,A,catte,O,e,526,1,2616.199999988079,338813.0,7168,WL,C,12.0
2,47.01800012588501,learn,12981.99987411499,Thu Jun 19 2025 17:04:24 GMT-0500 (Central Daylight Time),341779.40000003576,A,cattel,O,l,327,1,2966.400000035763,338813.0,7168,WL,C,12.0
2,47.318000078201294,learn,12681.999921798706,Thu Jun 19 2025 17:04:24 GMT-0500 (Central Daylight Time),342079.40000003576,A,cattell,O,l,261,1,3266.400000035763,338813.0,7168,WL,C,12.0
2,49.01600003242493,learn,10983.999967575073,Thu Jun 19 2025 17:04:24 GMT-0500 (Central Daylight Time),343777.60000002384,A,cattellenter,O,enter,1665,1,4964.600000023842,338813.0,7168,WL,C,12.0
2,60.013999938964844,learn,-13.99993896484375,Thu Jun 19 2025 17:04:24 GMT-0500 (Central Daylight Time),354775.1999999881,A,None,O,None,10991,1,10997.299999952316,343777.90000003576,7168,WL,C,13.0
3,1.9830000400543213,learn,58016.99995994568,Thu Jun 19 2025 17:04:24 GMT-0500 (Central Daylight Time),434782.60000002384,A,t,O,t,1957,1,1982.6000000238419,432800.0,7168,WL,C,1.0
3,2.2160000801086426,learn,57783.99991989136,Thu Jun 19 2025 17:04:24 GMT-0500 (Central Daylight Time),435015.3000000119,A,to,O,o,193,1,2215.300000011921,432800.0,7168,WL,C,1.0
3,2.881999969482422,learn,57118.00003051758,Thu Jun 19 2025 17:04:24 GMT-0500 (Central Daylight Time),435681.90000003576,A,tow,O,w,636,1,2881.900000035763,432800.0,7168,WL,C,1.0
3,3.131999969482422,learn,56868.00003051758,Thu Jun 19 2025 17:04:24 GMT-0500 (Central Daylight Time),435931.8000000119,A,towe,O,e,215,1,3131.800000011921,432800.0,7168,WL,C,1.0
3,3.4160001277923584,learn,56583.99987220764,Thu Jun 19 2025 17:04:24 GMT-0500 (Central Daylight Time),436215.3000000119,A,tower,O,r,246,1,3415.300000011921,432800.0,7168,WL,C,1.0
3,4.664000034332275,learn,55335.999965667725,Thu Jun 19 2025 17:04:24 GMT-0500 (Central Daylight Time),437463.6999999881,A,towerenter,O,enter,1216,1,4663.699999988079,432800.0,7168,WL,C,1.0
3,6.148000001907349,learn,53851.99999809265,Thu Jun 19 2025 17:04:24 GMT-0500 (Central Daylight Time),438947.6999999881,A,q,O,q,1461,1,1483.699999988079,437464.0,7168,WL,C,2.0
3,6.46399998664856,learn,53536.00001335144,Thu Jun 19 2025 17:04:24 GMT-0500 (Central Daylight Time),439264.1999999881,A,qu,O,u,276,1,1800.199999988079,437464.0,7168,WL,C,2.0
3,6.930999994277954,learn,53069.000005722046,Thu Jun 19 2025 17:04:24 GMT-0500 (Central Daylight Time),439730.60000002384,A,que,O,e,436,1,2266.600000023842,437464.0,7168,WL,C,2.0
3,7.147000074386597,learn,52852.9999256134,Thu Jun 19 2025 17:04:24 GMT-0500 (Central Daylight Time),439947.10000002384,A,quee,O,e,181,1,2483.100000023842,437464.0,7168,WL,C,2.0
3,7.730999946594238,learn,52269.00005340576,Thu Jun 19 2025 17:04:24 GMT-0500 (Central Daylight Time),440530.40000003576,A,queen,O,n,550,1,3066.400000035763,437464.0,7168,WL,C,2.0
3,8.729000091552734,learn,51270.999908447266,Thu Jun 19 2025 17:04:24 GMT-0500 (Central Daylight Time),441529.0,A,queenenter,O,enter,966,1,4065.0,437464.0,7168,WL,C,2.0
3,10.19700002670288,learn,49802.99997329712,Thu Jun 19 2025 17:04:24 GMT-0500 (Central Daylight Time),442996.60000002384,A,s,O,s,1452,1,1467.300000011921,441529.3000000119,7168,WL,C,3.0
3,10.42900013923645,learn,49570.99986076355,Thu Jun 19 2025 17:04:24 GMT-0500 (Central Daylight Time),443229.0,A,su,O,u,213,1,1699.699999988079,441529.3000000119,7168,WL,C,3.0
3,11.095999956130981,learn,48904.00004386902,Thu Jun 19 2025 17:04:24 GMT-0500 (Central Daylight Time),443896.0,A,sug,O,g,629,1,2366.699999988079,441529.3000000119,7168,WL,C,3.0
3,11.42900013923645,learn,48570.99986076355,Thu Jun 19 2025 17:04:24 GMT-0500 (Central Daylight Time),444229.10000002384,A,suge,O,e,297,1,2699.800000011921,441529.3000000119,7168,WL,C,3.0
3,11.67900013923645,learn,48320.99986076355,Thu Jun 19 2025 17:04:24 GMT-0500 (Central Daylight Time),444479.0,A,suger,O,r,222,1,2949.699999988079,441529.3000000119,7168,WL,C,3.0
3,12.394999980926514,learn,47605.000019073486,Thu Jun 19 2025 17:04:24 GMT-0500 (Central Daylight Time),445194.60000002384,A,sugerenter,O,enter,691,1,3665.300000011921,441529.3000000119,7168,WL,C,3.0
3,13.144999980926514,learn,46855.000019073486,Thu Jun 19 2025 17:04:24 GMT-0500 (Central Daylight Time),445944.90000003576,A,h,O,h,730,1,750.0,445194.90000003576,7168,WL,C,4.0
3,13.59500002861023,learn,46404.99997138977,Thu Jun 19 2025 17:04:24 GMT-0500 (Central Daylight Time),446395.10000002384,A,ho,O,o,416,1,1200.199999988079,445194.90000003576,7168,WL,C,4.0
3,13.977999925613403,learn,46022.0000743866,Thu Jun 19 2025 17:04:24 GMT-0500 (Central Daylight Time),446778.0,A,hom,O,m,349,1,1583.0999999642372,445194.90000003576,7168,WL,C,4.0
3,14.361999988555908,learn,45638.00001144409,Thu Jun 19 2025 17:04:24 GMT-0500 (Central Daylight Time),447161.3000000119,A,home,O,e,353,1,1966.3999999761581,445194.90000003576,7168,WL,C,4.0
3,14.99399995803833,learn,45006.00004196167,Thu Jun 19 2025 17:04:24 GMT-0500 (Central Daylight Time),447793.60000002384,A,homeenter,O,enter,591,1,2598.699999988079,445194.90000003576,7168,WL,C,4.0
3,15.760999917984009,learn,44239.00008201599,Thu Jun 19 2025 17:04:24 GMT-0500 (Central Daylight Time),448561.0,A,b,O,b,748,1,767.0999999642372,447793.90000003576,7168,WL,C,5.0
3,16.344000101089478,learn,43655.99989891052,Thu Jun 19 2025 17:04:24 GMT-0500 (Central Daylight Time),449144.0,A,bo,O,o,552,1,1350.0999999642372,447793.90000003576,7168,WL,C,5.0
3,17.194000005722046,learn,42805.999994277954,Thu Jun 19 2025 17:04:24 GMT-0500 (Central Daylight Time),449993.60000002384,A,boy,O,y,817,1,2199.699999988079,447793.90000003576,7168,WL,C,5.0
3,18.009999990463257,learn,41990.00000953674,Thu Jun 19 2025 17:04:24 GMT-0500 (Central Daylight Time),450809.3000000119,A,boyenter,O,enter,783,1,3015.399999976158,447793.90000003576,7168,WL,C,5.0
3,19.05999994277954,learn,40940.00005722046,Thu Jun 19 2025 17:04:24 GMT-0500 (Central Daylight Time),451859.90000003576,A,c,O,c,1028,1,1050.300000011921,450809.60000002384,7168,WL,C,6.0
3,19.542999982833862,learn,40457.00001716614,Thu Jun 19 2025 17:04:24 GMT-0500 (Central Daylight Time),452343.10000002384,A,ca,O,a,456,1,1533.5,450809.60000002384,7168,WL,C,6.0
3,20.075999975204468,learn,39924.00002479553,Thu Jun 19 2025 17:04:24 GMT-0500 (Central Daylight Time),452876.1999999881,A,cam,O,m,503,1,2066.599999964237,450809.60000002384,7168,WL,C,6.0
3,20.7260000705719,learn,39273.9999294281,Thu Jun 19 2025 17:04:24 GMT-0500 (Central Daylight Time),453526.0,A,camp,O,p,614,1,2716.399999976158,450809.60000002384,7168,WL,C,6.0
3,21.45900011062622,learn,38540.99988937378,Thu Jun 19 2025 17:04:24 GMT-0500 (Central Daylight Time),454258.1999999881,A,campenter,O,enter,698,1,3448.599999964237,450809.60000002384,7168,WL,C,6.0
3,22.358999967575073,learn,37641.00003242493,Thu Jun 19 2025 17:04:24 GMT-0500 (Central Daylight Time),455158.6999999881,A,f,O,f,883,1,900.2999999523163,454258.40000003576,7168,WL,C,7.0
3,22.776000022888184,learn,37223.99997711182,Thu Jun 19 2025 17:04:24 GMT-0500 (Central Daylight Time),455575.5,A,fl,O,l,379,1,1317.0999999642372,454258.40000003576,7168,WL,C,7.0
3,23.625,learn,36375.0,Thu Jun 19 2025 17:04:24 GMT-0500 (Central Daylight Time),456425.10000002384,A,fla,O,a,810,1,2166.699999988079,454258.40000003576,7168,WL,C,7.0
3,24.124000072479248,learn,35875.99992752075,Thu Jun 19 2025 17:04:24 GMT-0500 (Central Daylight Time),456924.10000002384,A,flag,O,g,472,1,2665.699999988079,454258.40000003576,7168,WL,C,7.0
3,24.924000024795532,learn,35075.99997520447,Thu Jun 19 2025 17:04:24 GMT-0500 (Central Daylight Time),457723.6999999881,A,flagenter,O,enter,785,1,3465.2999999523163,454258.40000003576,7168,WL,C,7.0
3,25.723999977111816,learn,34276.00002288818,Thu Jun 19 2025 17:04:24 GMT-0500 (Central Daylight Time),458523.90000003576,A,d,O,d,793,1,800.0,457723.90000003576,7168,WL,C,8.0
3,26.04100012779236,learn,33958.99987220764,Thu Jun 19 2025 17:04:24 GMT-0500 (Central Daylight Time),458841.0,A,do,O,o,293,1,1117.0999999642372,457723.90000003576,7168,WL,C,8.0
3,26.44099998474121,learn,33559.00001525879,Thu Jun 19 2025 17:04:24 GMT-0500 (Central Daylight Time),459240.8000000119,A,doc,O,c,369,1,1516.8999999761581,457723.90000003576,7168,WL,C,8.0
3,26.874000072479248,learn,33125.99992752075,Thu Jun 19 2025 17:04:24 GMT-0500 (Central Daylight Time),459674.10000002384,A,doct,O,t,395,1,1950.199999988079,457723.90000003576,7168,WL,C,8.0
3,27.157999992370605,learn,32842.000007629395,Thu Jun 19 2025 17:04:24 GMT-0500 (Central Daylight Time),459957.1999999881,A,docto,O,o,247,1,2233.2999999523163,457723.90000003576,7168,WL,C,8.0
3,27.674000024795532,learn,32325.999975204468,Thu Jun 19 2025 17:04:24 GMT-0500 (Central Daylight Time),460473.90000003576,A,doctor,O,r,477,1,2750.0,457723.90000003576,7168,WL,C,8.0
3,28.390000104904175,learn,31609.999895095825,Thu Jun 19 2025 17:04:24 GMT-0500 (Central Daylight Time),461189.1999999881,A,doctorenter,O,enter,683,1,3465.2999999523163,457723.90000003576,7168,WL,C,8.0
3,31.189000129699707,learn,28810.999870300293,Thu Jun 19 2025 17:04:24 GMT-0500 (Central Daylight Time),463989.1999999881,A,c,O,c,2793,1,2799.699999988079,461189.5,7168,WL,C,9.0
3,31.60599994659424,learn,28394.00005340576,Thu Jun 19 2025 17:04:24 GMT-0500 (Central Daylight Time),464405.90000003576,A,ca,O,a,381,1,3216.400000035763,461189.5,7168,WL,C,9.0
3,32.07200002670288,learn,27927.99997329712,Thu Jun 19 2025 17:04:24 GMT-0500 (Central Daylight Time),464871.60000002384,A,cat,O,t,432,1,3682.100000023842,461189.5,7168,WL,C,9.0
3,32.289000034332275,learn,27710.999965667725,Thu Jun 19 2025 17:04:24 GMT-0500 (Central Daylight Time),465089.10000002384,A,catt,O,t,190,1,3899.600000023842,461189.5,7168,WL,C,9.0
3,32.83899998664856,learn,27161.00001335144,Thu Jun 19 2025 17:04:24 GMT-0500 (Central Daylight Time),465638.6999999881,A,catte,O,e,515,1,4449.199999988079,461189.5,7168,WL,C,9.0
3,33.138999938964844,learn,26861.000061035156,Thu Jun 19 2025 17:04:24 GMT-0500 (Central Daylight Time),465938.60000002384,A,cattel,O,l,265,1,4749.100000023842,461189.5,7168,WL,C,9.0
3,34.38800001144409,learn,25611.99998855591,Thu Jun 19 2025 17:04:24 GMT-0500 (Central Daylight Time),467187.1999999881,A,cattelenter,O,enter,1213,1,5997.699999988079,461189.5,7168,WL,C,9.0
3,35.18900012969971,learn,24810.999870300293,Thu Jun 19 2025 17:04:24 GMT-0500 (Central Daylight Time),467987.90000003576,A,l,O,l,785,1,800.4000000357628,467187.5,7168,WL,C,10.0
3,35.42199993133545,learn,24578.00006866455,Thu Jun 19 2025 17:04:24 GMT-0500 (Central Daylight Time),468221.40000003576,A,le,O,e,196,1,1033.9000000357628,467187.5,7168,WL,C,10.0
3,35.78800010681152,learn,24211.999893188477,Thu Jun 19 2025 17:04:24 GMT-0500 (Central Daylight Time),468587.0,A,let,O,t,323,1,1399.5,467187.5,7168,WL,C,10.0
3,36.00500011444092,learn,23994.999885559082,Thu Jun 19 2025 17:04:24 GMT-0500 (Central Daylight Time),468804.3000000119,A,lett,O,t,198,1,1616.800000011921,467187.5,7168,WL,C,10.0
3,36.38700008392334,learn,23612.99991607666,Thu Jun 19 2025 17:04:24 GMT-0500 (Central Daylight Time),469186.40000003576,A,lette,O,e,356,1,1998.9000000357628,467187.5,7168,WL,C,10.0
3,36.67199993133545,learn,23328.00006866455,Thu Jun 19 2025 17:04:24 GMT-0500 (Central Daylight Time),469470.8000000119,A,letter,O,r,266,1,2283.300000011921,467187.5,7168,WL,C,10.0
3,37.38700008392334,learn,22612.99991607666,Thu Jun 19 2025 17:04:24 GMT-0500 (Central Daylight Time),470186.5,A,letterenter,O,enter,693,1,2999.0,467187.5,7168,WL,C,10.0
3,41.0699999332428,learn,18930.000066757202,Thu Jun 19 2025 17:04:24 GMT-0500 (Central Daylight Time),473869.3000000119,A,s,O,s,3667,1,3682.5,470186.8000000119,7168,WL,C,11.0
3,41.38700008392334,learn,18612.99991607666,Thu Jun 19 2025 17:04:24 GMT-0500 (Central Daylight Time),474185.8000000119,A,sh,O,h,274,1,3999.0,470186.8000000119,7168,WL,C,11.0
3,42.13599991798401,learn,17864.00008201599,Thu Jun 19 2025 17:04:24 GMT-0500 (Central Daylight Time),474935.5,A,sho,O,o,720,1,4748.699999988079,470186.8000000119,7168,WL,C,11.0
3,42.78600001335144,learn,17213.99998664856,Thu Jun 19 2025 17:04:24 GMT-0500 (Central Daylight Time),475585.5,A,shor,O,r,613,1,5398.699999988079,470186.8000000119,7168,WL,C,11.0
3,43.085999965667725,learn,16914.000034332275,Thu Jun 19 2025 17:04:24 GMT-0500 (Central Daylight Time),475885.3000000119,A,shore,O,e,263,1,5698.5,470186.8000000119,7168,WL,C,11.0
3,43.9520001411438,learn,16047.999858856201,Thu Jun 19 2025 17:04:24 GMT-0500 (Central Daylight Time),476750.8000000119,A,shoreenter,O,enter,834,1,6564.0,470186.8000000119,7168,WL,C,11.0
3,47.51800012588501,learn,12481.99987411499,Thu Jun 19 2025 17:04:24 GMT-0500 (Central Daylight Time),480316.90000003576,A,b,O,b,3559,1,3565.7000000476837,476751.1999999881,7168,WL,C,12.0
3,48.235000133514404,learn,11764.999866485596,Thu Jun 19 2025 17:04:24 GMT-0500 (Central Daylight Time),481033.90000003576,A,bo,O,o,685,1,4282.700000047684,476751.1999999881,7168,WL,C,12.0
3,48.65000009536743,learn,11349.999904632568,Thu Jun 19 2025 17:04:24 GMT-0500 (Central Daylight Time),481449.3000000119,A,bod,O,d,381,1,4698.100000023842,476751.1999999881,7168,WL,C,12.0
3,48.95099997520447,learn,11049.000024795532,Thu Jun 19 2025 17:04:24 GMT-0500 (Central Daylight Time),481750.40000003576,A,body,O,y,282,1,4999.200000047684,476751.1999999881,7168,WL,C,12.0
3,49.950000047683716,learn,10049.999952316284,Thu Jun 19 2025 17:04:24 GMT-0500 (Central Daylight Time),482748.8000000119,A,bodyenter,O,enter,970,1,5997.600000023842,476751.1999999881,7168,WL,C,12.0
3,50.549999952316284,learn,9450.000047683716,Thu Jun 19 2025 17:04:24 GMT-0500 (Central Daylight Time),483349.60000002384,A,c,O,c,585,1,600.5,482749.10000002384,7168,WL,C,13.0
3,50.83299994468689,learn,9167.00005531311,Thu Jun 19 2025 17:04:24 GMT-0500 (Central Daylight Time),483632.8000000119,A,co,O,o,244,1,883.6999999880791,482749.10000002384,7168,WL,C,13.0
3,51.367000102996826,learn,8632.999897003174,Thu Jun 19 2025 17:04:24 GMT-0500 (Central Daylight Time),484166.0,A,cor,O,r,505,1,1416.8999999761581,482749.10000002384,7168,WL,C,13.0
3,51.66700005531311,learn,8332.99994468689,Thu Jun 19 2025 17:04:24 GMT-0500 (Central Daylight Time),484465.90000003576,A,corn,O,n,260,1,1716.800000011921,482749.10000002384,7168,WL,C,13.0
3,52.41499996185303,learn,7585.000038146973,Thu Jun 19 2025 17:04:24 GMT-0500 (Central Daylight Time),485214.6999999881,A,cornenter,O,enter,711,1,2465.599999964237,482749.10000002384,7168,WL,C,13.0
3,53.06599998474121,learn,6934.000015258789,Thu Jun 19 2025 17:04:24 GMT-0500 (Central Daylight Time),485865.40000003576,A,w,O,w,638,1,650.5,485214.90000003576,7168,WL,C,14.0
3,53.33299994468689,learn,6667.00005531311,Thu Jun 19 2025 17:04:24 GMT-0500 (Central Daylight Time),486132.0,A,wh,O,h,233,1,917.0999999642372,485214.90000003576,7168,WL,C,14.0
3,53.6489999294281,learn,6351.000070571899,Thu Jun 19 2025 17:04:24 GMT-0500 (Central Daylight Time),486448.60000002384,A,whe,O,e,277,1,1233.699999988079,485214.90000003576,7168,WL,C,14.0
3,54.180999994277954,learn,5819.000005722046,Thu Jun 19 2025 17:04:24 GMT-0500 (Central Daylight Time),486980.5,A,whea,O,a,504,1,1765.5999999642372,485214.90000003576,7168,WL,C,14.0
3,54.73200011253357,learn,5267.999887466431,Thu Jun 19 2025 17:04:24 GMT-0500 (Central Daylight Time),487531.60000002384,A,wheat,O,t,537,1,2316.699999988079,485214.90000003576,7168,WL,C,14.0
3,55.64800000190735,learn,4351.999998092651,Thu Jun 19 2025 17:04:24 GMT-0500 (Central Daylight Time),488447.10000002384,A,wheatenter,O,enter,879,1,3232.199999988079,485214.90000003576,7168,WL,C,14.0
3,60.013999938964844,learn,-13.99993896484375,Thu Jun 19 2025 17:04:24 GMT-0500 (Central Daylight Time),492813.5,A,None,O,None,4360,1,4366.199999988079,488447.3000000119,7168,WL,C,15.0
4,2.947999954223633,learn,57052.00004577637,Thu Jun 19 2025 17:04:24 GMT-0500 (Central Daylight Time),566671.3000000119,A,t,O,t,2920,1,2947.600000023842,563723.6999999881,7168,WL,C,1.0
4,3.183000087738037,learn,56816.99991226196,Thu Jun 19 2025 17:04:24 GMT-0500 (Central Daylight Time),566905.6999999881,A,to,O,o,222,1,3182.0,563723.6999999881,7168,WL,C,1.0
4,3.8489999771118164,learn,56151.00002288818,Thu Jun 19 2025 17:04:24 GMT-0500 (Central Daylight Time),567571.9000000358,A,tow,O,w,633,1,3848.2000000476837,563723.6999999881,7168,WL,C,1.0
4,4.081000089645386,learn,55918.999910354614,Thu Jun 19 2025 17:04:24 GMT-0500 (Central Daylight Time),567804.1000000238,A,towe,O,e,199,1,4080.400000035763,563723.6999999881,7168,WL,C,1.0
4,4.29800009727478,learn,55701.99990272522,Thu Jun 19 2025 17:04:24 GMT-0500 (Central Daylight Time),568020.8000000119,A,tower,O,r,207,1,4297.100000023842,563723.6999999881,7168,WL,C,1.0
4,5.54800009727478,learn,54451.99990272522,Thu Jun 19 2025 17:04:24 GMT-0500 (Central Daylight Time),569270.4000000358,A,towerenter,O,enter,1237,1,5546.700000047684,563723.6999999881,7168,WL,C,1.0
4,7.164000034332275,learn,52835.999965667725,Thu Jun 19 2025 17:04:24 GMT-0500 (Central Daylight Time),570887.1999999881,A,q,O,q,1607,1,1616.5,569270.6999999881,7168,WL,C,2.0
4,8.730999946594238,learn,51269.00005340576,Thu Jun 19 2025 17:04:24 GMT-0500 (Central Daylight Time),572453.5,A,qu,O,u,1540,1,3182.800000011921,569270.6999999881,7168,WL,C,2.0
4,11.095999956130981,learn,48904.00004386902,Thu Jun 19 2025 17:04:24 GMT-0500 (Central Daylight Time),574818.9000000358,A,que,O,e,2333,1,5548.200000047684,569270.6999999881,7168,WL,C,2.0
4,11.312999963760376,learn,48687.000036239624,Thu Jun 19 2025 17:04:24 GMT-0500 (Central Daylight Time),575036.3000000119,A,quee,O,e,185,1,5765.600000023842,569270.6999999881,7168,WL,C,2.0
4,11.663000106811523,learn,48336.99989318848,Thu Jun 19 2025 17:04:24 GMT-0500 (Central Daylight Time),575386.1000000238,A,queen,O,n,309,1,6115.400000035763,569270.6999999881,7168,WL,C,2.0
4,13.128000020980835,learn,46871.999979019165,Thu Jun 19 2025 17:04:24 GMT-0500 (Central Daylight Time),576851.1999999881,A,queenenter,O,enter,1439,1,7580.5,569270.6999999881,7168,WL,C,2.0
4,14.42799997329712,learn,45572.00002670288,Thu Jun 19 2025 17:04:24 GMT-0500 (Central Daylight Time),578151.1999999881,A,w,O,w,1282,1,1299.699999988079,576851.5,7168,WL,C,3.0
4,14.611999988555908,learn,45388.00001144409,Thu Jun 19 2025 17:04:24 GMT-0500 (Central Daylight Time),578335.1999999881,A,wh,O,h,158,1,1483.699999988079,576851.5,7168,WL,C,3.0
4,14.994999885559082,learn,45005.00011444092,Thu Jun 19 2025 17:04:24 GMT-0500 (Central Daylight Time),578718.3000000119,A,whe,O,e,356,1,1866.800000011921,576851.5,7168,WL,C,3.0
4,15.479000091552734,learn,44520.999908447266,Thu Jun 19 2025 17:04:24 GMT-0500 (Central Daylight Time),579201.5,A,whea,O,a,453,1,2350.0,576851.5,7168,WL,C,3.0
4,15.92799997329712,learn,44072.00002670288,Thu Jun 19 2025 17:04:24 GMT-0500 (Central Daylight Time),579651.3000000119,A,wheat,O,t,410,1,2799.800000011921,576851.5,7168,WL,C,3.0
4,16.49399995803833,learn,43506.00004196167,Thu Jun 19 2025 17:04:24 GMT-0500 (Central Daylight Time),580216.9000000358,A,wheatenter,O,enter,526,1,3365.400000035763,576851.5,7168,WL,C,3.0
4,17.07800006866455,learn,42921.99993133545,Thu Jun 19 2025 17:04:24 GMT-0500 (Central Daylight Time),580800.9000000358,A,c,O,c,572,1,583.7000000476837,580217.1999999881,7168,WL,C,4.0
4,17.32800006866455,learn,42671.99993133545,Thu Jun 19 2025 17:04:24 GMT-0500 (Central Daylight Time),581050.8000000119,A,co,O,o,220,1,833.6000000238419,580217.1999999881,7168,WL,C,4.0
4,17.710999965667725,learn,42289.000034332275,Thu Jun 19 2025 17:04:24 GMT-0500 (Central Daylight Time),581434.0,A,cor,O,r,343,1,1216.800000011921,580217.1999999881,7168,WL,C,4.0
4,18.01099991798401,learn,41989.00008201599,Thu Jun 19 2025 17:04:24 GMT-0500 (Central Daylight Time),581733.6999999881,A,corn,O,n,271,1,1516.5,580217.1999999881,7168,WL,C,4.0
4,18.72699999809265,learn,41273.00000190735,Thu Jun 19 2025 17:04:24 GMT-0500 (Central Daylight Time),582449.4000000358,A,cornenter,O,enter,682,1,2232.2000000476837,580217.1999999881,7168,WL,C,4.0
4,19.311000108718872,learn,40688.99989128113,Thu Jun 19 2025 17:04:24 GMT-0500 (Central Daylight Time),583033.6000000238,A,d,O,d,563,1,583.9000000357628,582449.6999999881,7168,WL,C,5.0
4,19.609999895095825,learn,40390.000104904175,Thu Jun 19 2025 17:04:24 GMT-0500 (Central Daylight Time),583333.0,A,do,O,o,273,1,883.3000000119209,582449.6999999881,7168,WL,C,5.0
4,19.960000038146973,learn,40039.99996185303,Thu Jun 19 2025 17:04:24 GMT-0500 (Central Daylight Time),583683.1999999881,A,doc,O,c,318,1,1233.5,582449.6999999881,7168,WL,C,5.0
4,20.41000008583069,learn,39589.99991416931,Thu Jun 19 2025 17:04:24 GMT-0500 (Central Daylight Time),584133.0,A,doct,O,t,424,1,1683.300000011921,582449.6999999881,7168,WL,C,5.0
4,20.693000078201294,learn,39306.999921798706,Thu Jun 19 2025 17:04:24 GMT-0500 (Central Daylight Time),584416.0,A,docto,O,o,256,1,1966.300000011921,582449.6999999881,7168,WL,C,5.0
4,21.925999879837036,learn,38074.000120162964,Thu Jun 19 2025 17:04:24 GMT-0500 (Central Daylight Time),585649.3000000119,A,doctor,O,r,1195,1,3199.600000023842,582449.6999999881,7168,WL,C,5.0
4,22.29200005531311,learn,37707.99994468689,Thu Jun 19 2025 17:04:24 GMT-0500 (Central Daylight Time),586014.9000000358,A,doctorenter,O,enter,336,1,3565.2000000476837,582449.6999999881,7168,WL,C,5.0
4,23.16000008583069,learn,36839.99991416931,Thu Jun 19 2025 17:04:24 GMT-0500 (Central Daylight Time),586882.4000000358,A,f,O,f,846,1,867.3000000119209,586015.1000000238,7168,WL,C,6.0
4,23.45900011062622,learn,36540.99988937378,Thu Jun 19 2025 17:04:24 GMT-0500 (Central Daylight Time),587182.1999999881,A,fl,O,l,263,1,1167.0999999642372,586015.1000000238,7168,WL,C,6.0
4,24.158999919891357,learn,35841.00008010864,Thu Jun 19 2025 17:04:24 GMT-0500 (Central Daylight Time),587881.8000000119,A,fla,O,a,660,1,1866.699999988079,586015.1000000238,7168,WL,C,6.0
4,24.492000102996826,learn,35507.999897003174,Thu Jun 19 2025 17:04:24 GMT-0500 (Central Daylight Time),588214.6000000238,A,flag,O,g,296,1,2199.5,586015.1000000238,7168,WL,C,6.0
4,25.20799994468689,learn,34792.00005531311,Thu Jun 19 2025 17:04:24 GMT-0500 (Central Daylight Time),588930.6999999881,A,flagenter,O,enter,700,1,2915.599999964237,586015.1000000238,7168,WL,C,6.0
4,25.825999975204468,learn,34174.00002479553,Thu Jun 19 2025 17:04:24 GMT-0500 (Central Daylight Time),589548.1000000238,A,c,O,c,595,1,617.1000000238419,588931.0,7168,WL,C,7.0
4,26.29200005531311,learn,33707.99994468689,Thu Jun 19 2025 17:04:24 GMT-0500 (Central Daylight Time),590014.6999999881,A,ca,O,a,430,1,1083.699999988079,588931.0,7168,WL,C,7.0
4,26.79200005531311,learn,33207.99994468689,Thu Jun 19 2025 17:04:24 GMT-0500 (Central Daylight Time),590514.1999999881,A,cam,O,m,458,1,1583.199999988079,588931.0,7168,WL,C,7.0
4,27.47499990463257,learn,32525.00009536743,Thu Jun 19 2025 17:04:24 GMT-0500 (Central Daylight Time),591197.3000000119,A,camp,O,p,653,1,2266.300000011921,588931.0,7168,WL,C,7.0
4,28.174000024795532,learn,31825.999975204468,Thu Jun 19 2025 17:04:24 GMT-0500 (Central Daylight Time),591896.3000000119,A,campenter,O,enter,660,1,2965.300000011921,588931.0,7168,WL,C,7.0
4,28.823999881744385,learn,31176.000118255615,Thu Jun 19 2025 17:04:24 GMT-0500 (Central Daylight Time),592547.0,A,l,O,l,628,1,650.5,591896.5,7168,WL,C,8.0
4,29.058000087738037,learn,30941.999912261963,Thu Jun 19 2025 17:04:24 GMT-0500 (Central Daylight Time),592780.1000000238,A,le,O,e,200,1,883.6000000238419,591896.5,7168,WL,C,8.0
4,29.44099998474121,learn,30559.00001525879,Thu Jun 19 2025 17:04:24 GMT-0500 (Central Daylight Time),593163.3000000119,A,let,O,t,342,1,1266.800000011921,591896.5,7168,WL,C,8.0
4,29.641000032424927,learn,30358.999967575073,Thu Jun 19 2025 17:04:24 GMT-0500 (Central Daylight Time),593363.6000000238,A,lett,O,t,170,1,1467.1000000238419,591896.5,7168,WL,C,8.0
4,30.04099988937378,learn,29959.00011062622,Thu Jun 19 2025 17:04:24 GMT-0500 (Central Daylight Time),593763.5,A,lette,O,e,359,1,1867.0,591896.5,7168,WL,C,8.0
4,30.289999961853027,learn,29710.000038146973,Thu Jun 19 2025 17:04:24 GMT-0500 (Central Daylight Time),594012.5,A,letter,O,r,225,1,2116.0,591896.5,7168,WL,C,8.0
4,30.85599994659424,learn,29144.00005340576,Thu Jun 19 2025 17:04:24 GMT-0500 (Central Daylight Time),594578.8000000119,A,letterenter,O,enter,547,1,2682.300000011921,591896.5,7168,WL,C,8.0
4,31.539999961853027,learn,28460.000038146973,Thu Jun 19 2025 17:04:24 GMT-0500 (Central Daylight Time),595263.0,A,b,O,b,667,1,683.8999999761581,594579.1000000238,7168,WL,C,9.0
4,32.17400002479553,learn,27825.999975204468,Thu Jun 19 2025 17:04:24 GMT-0500 (Central Daylight Time),595896.1999999881,A,bi,O,i,598,1,1317.0999999642372,594579.1000000238,7168,WL,C,9.0
4,34.138999938964844,learn,25861.000061035156,Thu Jun 19 2025 17:04:24 GMT-0500 (Central Daylight Time),597861.5,A,b,O,backspace,1936,1,3282.399999976158,594579.1000000238,7168,WL,C,9.0
4,34.75600004196167,learn,25243.99995803833,Thu Jun 19 2025 17:04:24 GMT-0500 (Central Daylight Time),598478.5,A,bo,O,o,590,1,3899.399999976158,594579.1000000238,7168,WL,C,9.0
4,35.456000089645386,learn,24543.999910354614,Thu Jun 19 2025 17:04:24 GMT-0500 (Central Daylight Time),599178.3000000119,A,boy,O,y,665,1,4599.199999988079,594579.1000000238,7168,WL,C,9.0
4,36.4539999961853,learn,23546.000003814697,Thu Jun 19 2025 17:04:24 GMT-0500 (Central Daylight Time),600177.0,A,boyenter,O,enter,968,1,5597.899999976158,594579.1000000238,7168,WL,C,9.0
4,37.08800005912781,learn,22911.999940872192,Thu Jun 19 2025 17:04:24 GMT-0500 (Central Daylight Time),600810.9000000358,A,b,O,b,612,1,633.7000000476837,600177.1999999881,7168,WL,C,10.0
4,37.92199993133545,learn,22078.00006866455,Thu Jun 19 2025 17:04:24 GMT-0500 (Central Daylight Time),601644.1999999881,A,bo,O,o,799,1,1467.0,600177.1999999881,7168,WL,C,10.0
4,38.65499997138977,learn,21345.00002861023,Thu Jun 19 2025 17:04:24 GMT-0500 (Central Daylight Time),602377.1000000238,A,bod,O,d,696,1,2199.900000035763,600177.1999999881,7168,WL,C,10.0
4,38.86999988555908,learn,21130.000114440918,Thu Jun 19 2025 17:04:24 GMT-0500 (Central Daylight Time),602592.8000000119,A,body,O,y,184,1,2415.600000023842,600177.1999999881,7168,WL,C,10.0
4,39.687000036239624,learn,20312.999963760376,Thu Jun 19 2025 17:04:24 GMT-0500 (Central Daylight Time),603409.1000000238,A,bodyenter,O,enter,803,1,3231.900000035763,600177.1999999881,7168,WL,C,10.0
4,40.354000091552734,learn,19645.999908447266,Thu Jun 19 2025 17:04:24 GMT-0500 (Central Daylight Time),604076.4000000358,A,s,O,s,651,1,667.0,603409.4000000358,7168,WL,C,11.0
4,40.604000091552734,learn,19395.999908447266,Thu Jun 19 2025 17:04:24 GMT-0500 (Central Daylight Time),604326.6999999881,A,su,O,u,227,1,917.2999999523163,603409.4000000358,7168,WL,C,11.0
4,41.13800001144409,learn,18861.99998855591,Thu Jun 19 2025 17:04:24 GMT-0500 (Central Daylight Time),604860.1000000238,A,sug,O,g,510,1,1450.699999988079,603409.4000000358,7168,WL,C,11.0
4,41.420000076293945,learn,18579.999923706055,Thu Jun 19 2025 17:04:24 GMT-0500 (Central Daylight Time),605142.9000000358,A,suge,O,e,255,1,1733.5,603409.4000000358,7168,WL,C,11.0
4,41.68600010871887,learn,18313.999891281128,Thu Jun 19 2025 17:04:24 GMT-0500 (Central Daylight Time),605408.9000000358,A,suger,O,r,241,1,1999.5,603409.4000000358,7168,WL,C,11.0
4,42.36899995803833,learn,17631.00004196167,Thu Jun 19 2025 17:04:24 GMT-0500 (Central Daylight Time),606091.6000000238,A,sugerenter,O,enter,660,1,2682.199999988079,603409.4000000358,7168,WL,C,11.0
4,43.01900005340576,learn,16980.99994659424,Thu Jun 19 2025 17:04:24 GMT-0500 (Central Daylight Time),606741.6999999881,A,h,O,h,641,1,649.7999999523163,606091.9000000358,7168,WL,C,12.0
4,43.519999980926514,learn,16480.000019073486,Thu Jun 19 2025 17:04:24 GMT-0500 (Central Daylight Time),607242.1000000238,A,ho,O,o,471,1,1150.199999988079,606091.9000000358,7168,WL,C,12.0
4,43.86899995803833,learn,16131.00004196167,Thu Jun 19 2025 17:04:24 GMT-0500 (Central Daylight Time),607591.1000000238,A,hom,O,m,318,1,1499.199999988079,606091.9000000358,7168,WL,C,12.0
4,44.319000005722046,learn,15680.999994277954,Thu Jun 19 2025 17:04:24 GMT-0500 (Central Daylight Time),608042.1999999881,A,home,O,e,429,1,1950.2999999523163,606091.9000000358,7168,WL,C,12.0
4,45.03500008583069,learn,14964.999914169312,Thu Jun 19 2025 17:04:24 GMT-0500 (Central Daylight Time),608757.5,A,homeenter,O,enter,678,1,2665.599999964237,606091.9000000358,7168,WL,C,12.0
4,45.5699999332428,learn,14430.000066757202,Thu Jun 19 2025 17:04:24 GMT-0500 (Central Daylight Time),609292.6000000238,A,c,O,c,529,1,534.9000000357628,608757.6999999881,7168,WL,C,13.0
4,45.986000061035156,learn,14013.999938964844,Thu Jun 19 2025 17:04:24 GMT-0500 (Central Daylight Time),609708.6000000238,A,ca,O,a,390,1,950.9000000357628,608757.6999999881,7168,WL,C,13.0
4,46.38499999046326,learn,13615.000009536743,Thu Jun 19 2025 17:04:24 GMT-0500 (Central Daylight Time),610108.1000000238,A,cat,O,t,367,1,1350.4000000357628,608757.6999999881,7168,WL,C,13.0
4,46.585999965667725,learn,13414.000034332275,Thu Jun 19 2025 17:04:24 GMT-0500 (Central Daylight Time),610308.5,A,catt,O,t,175,1,1550.800000011921,608757.6999999881,7168,WL,C,13.0
4,47.95199990272522,learn,12048.00009727478,Thu Jun 19 2025 17:04:24 GMT-0500 (Central Daylight Time),611674.1000000238,A,catte,O,e,1335,1,2916.400000035763,608757.6999999881,7168,WL,C,13.0
4,48.1010000705719,learn,11898.9999294281,Thu Jun 19 2025 17:04:24 GMT-0500 (Central Daylight Time),611823.8000000119,A,cattel,O,l,122,1,3066.100000023842,608757.6999999881,7168,WL,C,13.0
4,50.08299994468689,learn,9917.00005531311,Thu Jun 19 2025 17:04:24 GMT-0500 (Central Daylight Time),613805.8000000119,A,cattelenter,O,enter,1951,1,5048.100000023842,608757.6999999881,7168,WL,C,13.0
4,51.117000102996826,learn,8882.999897003174,Thu Jun 19 2025 17:04:24 GMT-0500 (Central Daylight Time),614839.6999999881,A,l,O,l,1016,1,1033.5999999642372,613806.1000000238,7168,WL,C,14.0
4,51.58400011062622,learn,8415.99988937378,Thu Jun 19 2025 17:04:24 GMT-0500 (Central Daylight Time),615306.1999999881,A,le,O,e,427,1,1500.0999999642372,613806.1000000238,7168,WL,C,14.0
4,51.967000007629395,learn,8032.9999923706055,Thu Jun 19 2025 17:04:24 GMT-0500 (Central Daylight Time),615689.4000000358,A,let,O,t,358,1,1883.300000011921,613806.1000000238,7168,WL,C,14.0
4,52.18400001525879,learn,7815.999984741211,Thu Jun 19 2025 17:04:24 GMT-0500 (Central Daylight Time),615906.1000000238,A,lett,O,t,187,1,2100.0,613806.1000000238,7168,WL,C,14.0
4,52.56699991226196,learn,7433.000087738037,Thu Jun 19 2025 17:04:24 GMT-0500 (Central Daylight Time),616289.1999999881,A,lette,O,e,356,1,2483.099999964237,613806.1000000238,7168,WL,C,14.0
4,52.83400011062622,learn,7165.999889373779,Thu Jun 19 2025 17:04:24 GMT-0500 (Central Daylight Time),616556.8000000119,A,letter,O,r,242,1,2750.699999988079,613806.1000000238,7168,WL,C,14.0
4,53.765000104904175,learn,6234.999895095825,Thu Jun 19 2025 17:04:24 GMT-0500 (Central Daylight Time),617487.8000000119,A,letterenter,O,enter,901,1,3681.699999988079,613806.1000000238,7168,WL,C,14.0
4,55.16599988937378,learn,4834.000110626221,Thu Jun 19 2025 17:04:24 GMT-0500 (Central Daylight Time),618888.1000000238,A,c,O,c,1381,1,1399.9000000357628,617488.1999999881,7168,WL,C,15.0
4,55.46600008010864,learn,4533.999919891357,Thu Jun 19 2025 17:04:24 GMT-0500 (Central Daylight Time),619188.5,A,co,O,o,277,1,1700.300000011921,617488.1999999881,7168,WL,C,15.0
4,55.931999921798706,learn,4068.000078201294,Thu Jun 19 2025 17:04:24 GMT-0500 (Central Daylight Time),619654.6999999881,A,cor,O,r,434,1,2166.5,617488.1999999881,7168,WL,C,15.0
4,56.33200001716614,learn,3667.9999828338623,Thu Jun 19 2025 17:04:24 GMT-0500 (Central Daylight Time),620054.6000000238,A,corn,O,n,372,1,2566.400000035763,617488.1999999881,7168,WL,C,15.0
4,57.38100004196167,learn,2618.99995803833,Thu Jun 19 2025 17:04:24 GMT-0500 (Central Daylight Time),621103.5,A,cornenter,O,enter,1010,1,3615.300000011921,617488.1999999881,7168,WL,C,15.0
5,0.9340000152587891,learn,60000.0,Thu Jun 19 2025 17:04:24 GMT-0500 (Central Daylight Time),703611.1000000238,A,t,O,t,895,1,933.3000000119209,702677.8000000119,7168,WL,C,1.0
5,1.1500000953674316,learn,60000.0,Thu Jun 19 2025 17:04:24 GMT-0500 (Central Daylight Time),703827.3000000119,A,to,O,o,178,1,1149.5,702677.8000000119,7168,WL,C,1.0
5,2.0500001907348633,learn,60000.0,Thu Jun 19 2025 17:04:24 GMT-0500 (Central Daylight Time),704726.8000000119,A,tow,O,w,872,1,2049.0,702677.8000000119,7168,WL,C,1.0
5,2.2660000324249268,learn,60000.0,Thu Jun 19 2025 17:04:24 GMT-0500 (Central Daylight Time),704943.5,A,towe,O,e,180,1,2265.699999988079,702677.8000000119,7168,WL,C,1.0
5,2.4830000400543213,learn,60000.0,Thu Jun 19 2025 17:04:24 GMT-0500 (Central Daylight Time),705160.1999999881,A,tower,O,r,186,1,2482.399999976158,702677.8000000119,7168,WL,C,1.0
5,3.5820000171661377,learn,60000.0,Thu Jun 19 2025 17:04:24 GMT-0500 (Central Daylight Time),706258.8000000119,A,towerenter,O,enter,1075,1,3581.0,702677.8000000119,7168,WL,C,1.0
5,4.815999984741211,learn,60000.0,Thu Jun 19 2025 17:04:24 GMT-0500 (Central Daylight Time),707492.6999999881,A,q,O,q,1219,1,1233.699999988079,706259.0,7168,WL,C,2.0
5,5.081000089645386,learn,60000.0,Thu Jun 19 2025 17:04:24 GMT-0500 (Central Daylight Time),707758.5,A,qu,O,u,238,1,1499.5,706259.0,7168,WL,C,2.0
5,5.432000160217285,learn,60000.0,Thu Jun 19 2025 17:04:24 GMT-0500 (Central Daylight Time),708109.0,A,que,O,e,338,1,1850.0,706259.0,7168,WL,C,2.0
5,5.64900016784668,learn,60000.0,Thu Jun 19 2025 17:04:24 GMT-0500 (Central Daylight Time),708326.0,A,quee,O,e,183,1,2067.0,706259.0,7168,WL,C,2.0
5,5.966000080108643,learn,60000.0,Thu Jun 19 2025 17:04:24 GMT-0500 (Central Daylight Time),708642.3000000119,A,queen,O,n,285,1,2383.300000011921,706259.0,7168,WL,C,2.0
5,6.680999994277954,learn,60000.0,Thu Jun 19 2025 17:04:24 GMT-0500 (Central Daylight Time),709357.6999999881,A,queenenter,O,enter,687,1,3098.699999988079,706259.0,7168,WL,C,2.0
5,8.581000089645386,learn,60000.0,Thu Jun 19 2025 17:04:24 GMT-0500 (Central Daylight Time),711258.1999999881,A,h,O,h,1888,1,1900.2999999523163,709357.9000000358,7168,WL,C,3.0
5,9.081000089645386,learn,60000.0,Thu Jun 19 2025 17:04:24 GMT-0500 (Central Daylight Time),711757.8000000119,A,ho,O,o,474,1,2399.899999976158,709357.9000000358,7168,WL,C,3.0
5,9.481000185012817,learn,60000.0,Thu Jun 19 2025 17:04:24 GMT-0500 (Central Daylight Time),712157.5,A,hom,O,m,374,1,2799.599999964237,709357.9000000358,7168,WL,C,3.0
5,9.996999979019165,learn,60000.0,Thu Jun 19 2025 17:04:24 GMT-0500 (Central Daylight Time),712674.1999999881,A,home,O,e,478,1,3316.2999999523163,709357.9000000358,7168,WL,C,3.0
5,10.696000099182129,learn,60000.0,Thu Jun 19 2025 17:04:24 GMT-0500 (Central Daylight Time),713373.0,A,homeenter,O,enter,672,1,4015.099999964237,709357.9000000358,7168,WL,C,3.0
5,12.163000106811523,learn,60000.0,Thu Jun 19 2025 17:04:24 GMT-0500 (Central Daylight Time),714840.1000000238,A,s,O,s,1449,1,1466.800000011921,713373.3000000119,7168,WL,C,4.0
5,12.42900013923645,learn,60000.0,Thu Jun 19 2025 17:04:24 GMT-0500 (Central Daylight Time),715106.0,A,su,O,u,226,1,1732.699999988079,713373.3000000119,7168,WL,C,4.0
5,12.830000162124634,learn,60000.0,Thu Jun 19 2025 17:04:24 GMT-0500 (Central Daylight Time),715506.6999999881,A,sug,O,g,371,1,2133.399999976158,713373.3000000119,7168,WL,C,4.0
5,13.080000162124634,learn,60000.0,Thu Jun 19 2025 17:04:24 GMT-0500 (Central Daylight Time),715756.5,A,suge,O,e,217,1,2383.199999988079,713373.3000000119,7168,WL,C,4.0
5,13.330000162124634,learn,60000.0,Thu Jun 19 2025 17:04:24 GMT-0500 (Central Daylight Time),716006.4000000358,A,suger,O,r,216,1,2633.100000023842,713373.3000000119,7168,WL,C,4.0
5,13.962000131607056,learn,60000.0,Thu Jun 19 2025 17:04:24 GMT-0500 (Central Daylight Time),716638.6999999881,A,sugerenter,O,enter,594,1,3265.399999976158,713373.3000000119,7168,WL,C,4.0
5,14.61300015449524,learn,60000.0,Thu Jun 19 2025 17:04:24 GMT-0500 (Central Daylight Time),717289.3000000119,A,n,O,n,639,1,650.5,716638.8000000119,7168,WL,C,5.0
5,14.896000146865845,learn,60000.0,Thu Jun 19 2025 17:04:24 GMT-0500 (Central Daylight Time),717572.8000000119,A,na,O,a,259,1,934.0,716638.8000000119,7168,WL,C,5.0
5,15.17900013923645,learn,60000.0,Thu Jun 19 2025 17:04:24 GMT-0500 (Central Daylight Time),717855.8000000119,A,nai,O,i,255,1,1217.0,716638.8000000119,7168,WL,C,5.0
5,15.562000036239624,learn,60000.0,Thu Jun 19 2025 17:04:24 GMT-0500 (Central Daylight Time),718238.9000000358,A,nail,O,l,347,1,1600.1000000238419,716638.8000000119,7168,WL,C,5.0
5,16.210999965667725,learn,60000.0,Thu Jun 19 2025 17:04:24 GMT-0500 (Central Daylight Time),718888.0,A,nailenter,O,enter,622,1,2249.199999988079,716638.8000000119,7168,WL,C,5.0
5,17.261000156402588,learn,60000.0,Thu Jun 19 2025 17:04:24 GMT-0500 (Central Daylight Time),719937.5,A,b,O,b,1036,1,1049.300000011921,718888.1999999881,7168,WL,C,6.0
5,17.74500012397766,learn,60000.0,Thu Jun 19 2025 17:04:24 GMT-0500 (Central Daylight Time),720421.5,A,bo,O,o,476,1,1533.300000011921,718888.1999999881,7168,WL,C,6.0
5,18.228000164031982,learn,60000.0,Thu Jun 19 2025 17:04:24 GMT-0500 (Central Daylight Time),720905.0,A,boy,O,y,453,1,2016.800000011921,718888.1999999881,7168,WL,C,6.0
5,19.177000045776367,learn,60000.0,Thu Jun 19 2025 17:04:24 GMT-0500 (Central Daylight Time),721853.6000000238,A,boyenter,O,enter,932,1,2965.400000035763,718888.1999999881,7168,WL,C,6.0
5,20.127000093460083,learn,60000.0,Thu Jun 19 2025 17:04:24 GMT-0500 (Central Daylight Time),722803.4000000358,A,d,O,d,935,1,949.5,721853.9000000358,7168,WL,C,7.0
5,20.344000101089478,learn,60000.0,Thu Jun 19 2025 17:04:24 GMT-0500 (Central Daylight Time),723020.9000000358,A,do,O,o,208,1,1167.0,721853.9000000358,7168,WL,C,7.0
5,20.677000045776367,learn,60000.0,Thu Jun 19 2025 17:04:24 GMT-0500 (Central Daylight Time),723354.1000000238,A,doc,O,c,305,1,1500.199999988079,721853.9000000358,7168,WL,C,7.0
5,21.194000005722046,learn,60000.0,Thu Jun 19 2025 17:04:24 GMT-0500 (Central Daylight Time),723870.5,A,doct,O,t,485,1,2016.5999999642372,721853.9000000358,7168,WL,C,7.0
5,21.49399995803833,learn,60000.0,Thu Jun 19 2025 17:04:24 GMT-0500 (Central Daylight Time),724170.4000000358,A,docto,O,o,259,1,2316.5,721853.9000000358,7168,WL,C,7.0
5,21.92799997329712,learn,60000.0,Thu Jun 19 2025 17:04:24 GMT-0500 (Central Daylight Time),724604.6999999881,A,doctor,O,r,408,1,2750.7999999523163,721853.9000000358,7168,WL,C,7.0
5,22.79200005531311,learn,60000.0,Thu Jun 19 2025 17:04:24 GMT-0500 (Central Daylight Time),725469.1000000238,A,doctorenter,O,enter,837,1,3615.199999988079,721853.9000000358,7168,WL,C,7.0
5,23.843000173568726,learn,60000.0,Thu Jun 19 2025 17:04:24 GMT-0500 (Central Daylight Time),726519.6999999881,A,l,O,l,1041,1,1050.2999999523163,725469.4000000358,7168,WL,C,8.0
5,24.14300012588501,learn,60000.0,Thu Jun 19 2025 17:04:24 GMT-0500 (Central Daylight Time),726819.5,A,le,O,e,257,1,1350.0999999642372,725469.4000000358,7168,WL,C,8.0
5,24.526000022888184,learn,60000.0,Thu Jun 19 2025 17:04:24 GMT-0500 (Central Daylight Time),727202.6000000238,A,let,O,t,352,1,1733.199999988079,725469.4000000358,7168,WL,C,8.0
5,24.759000062942505,learn,60000.0,Thu Jun 19 2025 17:04:24 GMT-0500 (Central Daylight Time),727436.1000000238,A,lett,O,t,191,1,1966.699999988079,725469.4000000358,7168,WL,C,8.0
5,25.108999967575073,learn,60000.0,Thu Jun 19 2025 17:04:24 GMT-0500 (Central Daylight Time),727785.8000000119,A,lette,O,e,310,1,2316.399999976158,725469.4000000358,7168,WL,C,8.0
5,25.35800004005432,learn,60000.0,Thu Jun 19 2025 17:04:24 GMT-0500 (Central Daylight Time),728034.9000000358,A,letter,O,r,215,1,2565.5,725469.4000000358,7168,WL,C,8.0
5,25.85800004005432,learn,60000.0,Thu Jun 19 2025 17:04:24 GMT-0500 (Central Daylight Time),728534.9000000358,A,letterenter,O,enter,480,1,3065.5,725469.4000000358,7168,WL,C,8.0
5,26.526000022888184,learn,60000.0,Thu Jun 19 2025 17:04:24 GMT-0500 (Central Daylight Time),729202.6000000238,A,c,O,c,646,1,667.5,728535.1000000238,7168,WL,C,9.0
5,26.97699999809265,learn,60000.0,Thu Jun 19 2025 17:04:24 GMT-0500 (Central Daylight Time),729653.6000000238,A,ca,O,a,430,1,1118.5,728535.1000000238,7168,WL,C,9.0
5,27.325000047683716,learn,60000.0,Thu Jun 19 2025 17:04:24 GMT-0500 (Central Daylight Time),730001.8000000119,A,cam,O,m,309,1,1466.699999988079,728535.1000000238,7168,WL,C,9.0
5,27.89199995994568,learn,60000.0,Thu Jun 19 2025 17:04:24 GMT-0500 (Central Daylight Time),730568.4000000358,A,camp,O,p,529,1,2033.300000011921,728535.1000000238,7168,WL,C,9.0
5,28.740000009536743,learn,60000.0,Thu Jun 19 2025 17:04:24 GMT-0500 (Central Daylight Time),731417.1999999881,A,campenter,O,enter,808,1,2882.099999964237,728535.1000000238,7168,WL,C,9.0
5,29.69099998474121,learn,60000.0,Thu Jun 19 2025 17:04:24 GMT-0500 (Central Daylight Time),732367.8000000119,A,f,O,f,941,1,950.3999999761581,731417.4000000358,7168,WL,C,10.0
5,29.907000064849854,learn,60000.0,Thu Jun 19 2025 17:04:24 GMT-0500 (Central Daylight Time),732584.1000000238,A,fl,O,l,185,1,1166.699999988079,731417.4000000358,7168,WL,C,10.0
5,30.640000104904175,learn,60000.0,Thu Jun 19 2025 17:04:24 GMT-0500 (Central Daylight Time),733317.1999999881,A,fla,O,a,707,1,1899.7999999523163,731417.4000000358,7168,WL,C,10.0
5,31.174000024795532,learn,60000.0,Thu Jun 19 2025 17:04:24 GMT-0500 (Central Daylight Time),733850.9000000358,A,flag,O,g,502,1,2433.5,731417.4000000358,7168,WL,C,10.0
5,32.223000049591064,learn,60000.0,Thu Jun 19 2025 17:04:24 GMT-0500 (Central Daylight Time),734899.4000000358,A,flagenter,O,enter,1018,1,3482.0,731417.4000000358,7168,WL,C,10.0
5,35.539000034332275,learn,60000.0,Thu Jun 19 2025 17:04:24 GMT-0500 (Central Daylight Time),738215.3000000119,A,w,O,w,3297,1,3315.600000023842,734899.6999999881,7168,WL,C,11.0
5,35.97200012207031,learn,60000.0,Thu Jun 19 2025 17:04:24 GMT-0500 (Central Daylight Time),738649.0,A,wh,O,h,415,1,3749.300000011921,734899.6999999881,7168,WL,C,11.0
5,36.371999979019165,learn,60000.0,Thu Jun 19 2025 17:04:24 GMT-0500 (Central Daylight Time),739048.9000000358,A,whe,O,e,373,1,4149.200000047684,734899.6999999881,7168,WL,C,11.0
5,36.90499997138977,learn,60000.0,Thu Jun 19 2025 17:04:24 GMT-0500 (Central Daylight Time),739582.1000000238,A,whea,O,a,499,1,4682.400000035763,734899.6999999881,7168,WL,C,11.0
5,37.47099995613098,learn,60000.0,Thu Jun 19 2025 17:04:24 GMT-0500 (Central Daylight Time),740147.8000000119,A,wheat,O,t,542,1,5248.100000023842,734899.6999999881,7168,WL,C,11.0
5,38.1710000038147,learn,60000.0,Thu Jun 19 2025 17:04:24 GMT-0500 (Central Daylight Time),740847.3000000119,A,wheatenter,O,enter,671,1,5947.600000023842,734899.6999999881,7168,WL,C,11.0
5,38.98800015449524,learn,60000.0,Thu Jun 19 2025 17:04:24 GMT-0500 (Central Daylight Time),741664.6999999881,A,c,O,c,798,1,817.0999999642372,740847.6000000238,7168,WL,C,12.0
5,39.33800005912781,learn,60000.0,Thu Jun 19 2025 17:04:24 GMT-0500 (Central Daylight Time),742014.5,A,co,O,o,322,1,1166.8999999761581,740847.6000000238,7168,WL,C,12.0
5,39.7039999961853,learn,60000.0,Thu Jun 19 2025 17:04:24 GMT-0500 (Central Daylight Time),742381.1000000238,A,cor,O,r,332,1,1533.5,740847.6000000238,7168,WL,C,12.0
5,40.03800010681152,learn,60000.0,Thu Jun 19 2025 17:04:24 GMT-0500 (Central Daylight Time),742714.4000000358,A,corn,O,n,294,1,1866.800000011921,740847.6000000238,7168,WL,C,12.0
5,40.9539999961853,learn,60000.0,Thu Jun 19 2025 17:04:24 GMT-0500 (Central Daylight Time),743631.0,A,cornenter,O,enter,880,1,2783.399999976158,740847.6000000238,7168,WL,C,12.0
5,41.670000076293945,learn,60000.0,Thu Jun 19 2025 17:04:24 GMT-0500 (Central Daylight Time),744347.0,A,c,O,c,694,1,715.8000000119209,743631.1999999881,7168,WL,C,13.0
5,42.11899995803833,learn,60000.0,Thu Jun 19 2025 17:04:24 GMT-0500 (Central Daylight Time),744796.1000000238,A,ca,O,a,424,1,1164.9000000357628,743631.1999999881,7168,WL,C,13.0
5,42.82000017166138,learn,60000.0,Thu Jun 19 2025 17:04:24 GMT-0500 (Central Daylight Time),745497.0,A,cat,O,t,686,1,1865.800000011921,743631.1999999881,7168,WL,C,13.0
5,43.03700017929077,learn,60000.0,Thu Jun 19 2025 17:04:24 GMT-0500 (Central Daylight Time),745713.3000000119,A,catt,O,t,187,1,2082.100000023842,743631.1999999881,7168,WL,C,13.0
5,44.40300011634827,learn,60000.0,Thu Jun 19 2025 17:04:24 GMT-0500 (Central Daylight Time),747079.6999999881,A,cattl,O,l,1331,1,3448.5,743631.1999999881,7168,WL,C,13.0
5,44.61899995803833,learn,60000.0,Thu Jun 19 2025 17:04:24 GMT-0500 (Central Daylight Time),747296.1000000238,A,cattle,O,e,178,1,3664.900000035763,743631.1999999881,7168,WL,C,13.0
5,45.902000188827515,learn,60000.0,Thu Jun 19 2025 17:04:24 GMT-0500 (Central Daylight Time),748578.1999999881,A,cattleenter,O,enter,1250,1,4947.0,743631.1999999881,7168,WL,C,13.0
5,51.23399996757507,learn,60000.0,Thu Jun 19 2025 17:04:24 GMT-0500 (Central Daylight Time),753910.6000000238,A,s,O,s,5316,1,5332.100000023842,748578.5,7168,WL,C,14.0
5,51.401000022888184,learn,60000.0,Thu Jun 19 2025 17:04:24 GMT-0500 (Central Daylight Time),754077.4000000358,A,sh,O,h,140,1,5498.900000035763,748578.5,7168,WL,C,14.0
5,52.18400001525879,learn,60000.0,Thu Jun 19 2025 17:04:24 GMT-0500 (Central Daylight Time),754860.8000000119,A,sho,O,o,756,1,6282.300000011921,748578.5,7168,WL,C,14.0
5,52.60000014305115,learn,60000.0,Thu Jun 19 2025 17:04:24 GMT-0500 (Central Daylight Time),755276.9000000358,A,shor,O,r,391,1,6698.400000035763,748578.5,7168,WL,C,14.0
5,52.93300008773804,learn,60000.0,Thu Jun 19 2025 17:04:24 GMT-0500 (Central Daylight Time),755610.0,A,shore,O,e,302,1,7031.5,748578.5,7168,WL,C,14.0
5,53.98200011253357,learn,60000.0,Thu Jun 19 2025 17:04:24 GMT-0500 (Central Daylight Time),756658.8000000119,A,shoreenter,O,enter,1024,1,8080.300000011921,748578.5,7168,WL,C,14.0
5,62.164000034332275,learn,60000.0,Thu Jun 19 2025 17:04:24 GMT-0500 (Central Daylight Time),764840.5,A,b,O,b,8171,1,8181.399999976158,756659.1000000238,7168,WL,C,15.0
6,1.433000087738037,distr,58566.99991226196,Thu Jun 19 2025 17:04:24 GMT-0500 (Central Daylight Time),842315.1999999881,B,s,O,s,1395,1,1432.7999999523163,840882.4000000358,7168,WL,C,1.0
6,1.6500000953674316,distr,58349.99990463257,Thu Jun 19 2025 17:04:24 GMT-0500 (Central Daylight Time),842531.6999999881,B,sk,O,k,185,1,1649.2999999523163,840882.4000000358,7168,WL,C,1.0
6,2.315999984741211,distr,57684.00001525879,Thu Jun 19 2025 17:04:24 GMT-0500 (Central Daylight Time),843197.8000000119,B,sky,O,y,639,1,2315.399999976158,840882.4000000358,7168,WL,C,1.0
6,3.6480000019073486,distr,56351.99999809265,Thu Jun 19 2025 17:04:24 GMT-0500 (Central Daylight Time),844529.9000000358,B,skyenter,O,enter,1289,1,3647.5,840882.4000000358,7168,WL,C,1.0
6,4.448999881744385,distr,55551.000118255615,Thu Jun 19 2025 17:04:24 GMT-0500 (Central Daylight Time),845330.8000000119,B,v,O,v,779,1,800.6000000238419,844530.1999999881,7168,WL,C,2.0
6,4.73199987411499,distr,55268.00012588501,Thu Jun 19 2025 17:04:24 GMT-0500 (Central Daylight Time),845613.8000000119,B,va,O,a,246,1,1083.6000000238419,844530.1999999881,7168,WL,C,2.0
6,5.2809998989105225,distr,54719.00010108948,Thu Jun 19 2025 17:04:24 GMT-0500 (Central Daylight Time),846163.4000000358,B,val,O,l,518,1,1633.2000000476837,844530.1999999881,7168,WL,C,2.0
6,5.514999866485596,distr,54485.000133514404,Thu Jun 19 2025 17:04:24 GMT-0500 (Central Daylight Time),846396.6999999881,B,vall,O,l,206,1,1866.5,844530.1999999881,7168,WL,C,2.0
6,6.54800009727478,distr,53451.99990272522,Thu Jun 19 2025 17:04:24 GMT-0500 (Central Daylight Time),847429.9000000358,B,valle,O,e,1003,1,2899.7000000476837,844530.1999999881,7168,WL,C,2.0
6,6.747999906539917,distr,53252.00009346008,Thu Jun 19 2025 17:04:24 GMT-0500 (Central Daylight Time),847629.8000000119,B,valley,O,y,172,1,3099.600000023842,844530.1999999881,7168,WL,C,2.0
6,7.513000011444092,distr,52486.99998855591,Thu Jun 19 2025 17:04:24 GMT-0500 (Central Daylight Time),848395.4000000358,B,valleyenter,O,enter,737,1,3865.2000000476837,844530.1999999881,7168,WL,C,2.0
6,8.095999956130981,distr,51904.00004386902,Thu Jun 19 2025 17:04:24 GMT-0500 (Central Daylight Time),848978.3000000119,B,m,O,m,569,1,582.6000000238419,848395.6999999881,7168,WL,C,3.0
6,8.44700002670288,distr,51552.99997329712,Thu Jun 19 2025 17:04:24 GMT-0500 (Central Daylight Time),849329.1999999881,B,mo,O,o,331,1,933.5,848395.6999999881,7168,WL,C,3.0
6,8.846999883651733,distr,51153.00011634827,Thu Jun 19 2025 17:04:24 GMT-0500 (Central Daylight Time),849729.3000000119,B,mot,O,t,371,1,1333.6000000238419,848395.6999999881,7168,WL,C,3.0
6,9.096999883651733,distr,50903.00011634827,Thu Jun 19 2025 17:04:24 GMT-0500 (Central Daylight Time),849979.1999999881,B,moth,O,h,215,1,1583.5,848395.6999999881,7168,WL,C,3.0
6,9.346999883651733,distr,50653.00011634827,Thu Jun 19 2025 17:04:24 GMT-0500 (Central Daylight Time),850228.9000000358,B,mothe,O,e,220,1,1833.2000000476837,848395.6999999881,7168,WL,C,3.0
6,9.730000019073486,distr,50269.999980926514,Thu Jun 19 2025 17:04:24 GMT-0500 (Central Daylight Time),850612.3000000119,B,mother,O,r,342,1,2216.600000023842,848395.6999999881,7168,WL,C,3.0
6,11.84500002861023,distr,48154.99997138977,Thu Jun 19 2025 17:04:24 GMT-0500 (Central Daylight Time),852727.1999999881,B,motherenter,O,enter,2085,1,4331.5,848395.6999999881,7168,WL,C,3.0
6,14.361999988555908,distr,45638.00001144409,Thu Jun 19 2025 17:04:24 GMT-0500 (Central Daylight Time),855244.3000000119,B,d,O,d,2502,1,2516.800000011921,852727.5,7168,WL,C,4.0
6,14.678999900817871,distr,45321.00009918213,Thu Jun 19 2025 17:04:24 GMT-0500 (Central Daylight Time),855561.0,B,di,O,i,279,1,2833.5,852727.5,7168,WL,C,4.0
6,15.144999980926514,distr,44855.000019073486,Thu Jun 19 2025 17:04:24 GMT-0500 (Central Daylight Time),856026.6000000238,B,dia,O,a,434,1,3299.100000023842,852727.5,7168,WL,C,4.0
6,15.760999917984009,distr,44239.00008201599,Thu Jun 19 2025 17:04:24 GMT-0500 (Central Daylight Time),856642.4000000358,B,diam,O,m,593,1,3914.900000035763,852727.5,7168,WL,C,4.0
6,16.377000093460083,distr,43622.99990653992,Thu Jun 19 2025 17:04:24 GMT-0500 (Central Daylight Time),857259.1000000238,B,diamo,O,o,601,1,4531.600000023842,852727.5,7168,WL,C,4.0
6,16.694000005722046,distr,43305.999994277954,Thu Jun 19 2025 17:04:24 GMT-0500 (Central Daylight Time),857576.3000000119,B,diamon,O,n,301,1,4848.800000011921,852727.5,7168,WL,C,4.0
6,18.17799997329712,distr,41822.00002670288,Thu Jun 19 2025 17:04:24 GMT-0500 (Central Daylight Time),859059.5,B,diamond,O,d,1443,1,6332.0,852727.5,7168,WL,C,4.0
6,20.092999935150146,distr,39907.00006484985,Thu Jun 19 2025 17:04:24 GMT-0500 (Central Daylight Time),860974.6000000238,B,diamondenter,O,enter,1886,1,8247.100000023842,852727.5,7168,WL,C,4.0
6,21.55900001525879,distr,38440.99998474121,Thu Jun 19 2025 17:04:24 GMT-0500 (Central Daylight Time),862440.6000000238,B,c,O,c,1453,1,1465.699999988079,860974.9000000358,7168,WL,C,5.0
6,21.77500009536743,distr,38224.99990463257,Thu Jun 19 2025 17:04:24 GMT-0500 (Central Daylight Time),862657.3000000119,B,ch,O,h,203,1,1682.3999999761581,860974.9000000358,7168,WL,C,5.0
6,22.193000078201294,distr,37806.999921798706,Thu Jun 19 2025 17:04:24 GMT-0500 (Central Daylight Time),863074.6999999881,B,chr,O,r,396,1,2099.7999999523163,860974.9000000358,7168,WL,C,5.0
6,22.45899987220764,distr,37541.00012779236,Thu Jun 19 2025 17:04:24 GMT-0500 (Central Daylight Time),863341.3000000119,B,chri,O,i,232,1,2366.399999976158,860974.9000000358,7168,WL,C,5.0
6,23.009000062942505,distr,36990.999937057495,Thu Jun 19 2025 17:04:24 GMT-0500 (Central Daylight Time),863891.1999999881,B,chris,O,s,518,1,2916.2999999523163,860974.9000000358,7168,WL,C,5.0
6,23.509000062942505,distr,36490.999937057495,Thu Jun 19 2025 17:04:24 GMT-0500 (Central Daylight Time),864391.1000000238,B,christ,O,t,463,1,3416.199999988079,860974.9000000358,7168,WL,C,5.0
6,23.941999912261963,distr,36058.00008773804,Thu Jun 19 2025 17:04:24 GMT-0500 (Central Daylight Time),864824.1999999881,B,christm,O,m,404,1,3849.2999999523163,860974.9000000358,7168,WL,C,5.0
6,24.441999912261963,distr,35558.00008773804,Thu Jun 19 2025 17:04:24 GMT-0500 (Central Daylight Time),865324.0,B,christma,O,a,460,1,4349.099999964237,860974.9000000358,7168,WL,C,5.0
6,24.97499990463257,distr,35025.00009536743,Thu Jun 19 2025 17:04:24 GMT-0500 (Central Daylight Time),865857.1999999881,B,christmas,O,s,497,1,4882.299999952316,860974.9000000358,7168,WL,C,5.0
6,27.657000064849854,distr,32342.999935150146,Thu Jun 19 2025 17:04:24 GMT-0500 (Central Daylight Time),868538.6999999881,B,christmasenter,O,enter,2641,1,7563.799999952316,860974.9000000358,7168,WL,C,5.0
6,58.03099989891052,distr,1969.0001010894775,Thu Jun 19 2025 17:04:24 GMT-0500 (Central Daylight Time),898912.1000000238,B,f,O,f,30361,1,30373.19999998808,868538.9000000358,7168,WL,C,6.0
6,58.41499996185303,distr,1585.0000381469727,Thu Jun 19 2025 17:04:24 GMT-0500 (Central Daylight Time),899296.1999999881,B,fl,O,l,373,1,30757.299999952316,868538.9000000358,7168,WL,C,6.0
6,59.54800009727478,distr,451.9999027252197,Thu Jun 19 2025 17:04:24 GMT-0500 (Central Daylight Time),900429.1999999881,B,fla,O,a,1099,1,31890.299999952316,868538.9000000358,7168,WL,C,6.0
6,59.812999963760376,distr,187.00003623962402,Thu Jun 19 2025 17:04:24 GMT-0500 (Central Daylight Time),900694.8000000119,B,flag,O,g,231,1,32155.899999976158,868538.9000000358,7168,WL,C,6.0
6,60.01300001144409,distr,-13.000011444091797,Thu Jun 19 2025 17:04:24 GMT-0500 (Central Daylight Time),900894.9000000358,B,flagNone,O,None,193,1,32356.0,868538.9000000358,7168,WL,C,6.0
7,1.8650000095367432,immed,58134.99999046326,Thu Jun 19 2025 17:04:24 GMT-0500 (Central Daylight Time),936534.0,A,t,O,t,1841,1,1865.199999988079,934668.8000000119,7168,WL,C,1.0
7,2.0989999771118164,immed,57901.00002288818,Thu Jun 19 2025 17:04:24 GMT-0500 (Central Daylight Time),936767.1999999881,A,to,O,o,195,1,2098.399999976158,934668.8000000119,7168,WL,C,1.0
7,3.0820000171661377,immed,56917.99998283386,Thu Jun 19 2025 17:04:24 GMT-0500 (Central Daylight Time),937750.1000000238,A,tow,O,w,948,1,3081.300000011921,934668.8000000119,7168,WL,C,1.0
7,3.2980000972747803,immed,56701.99990272522,Thu Jun 19 2025 17:04:24 GMT-0500 (Central Daylight Time),937966.8000000119,A,towe,O,e,181,1,3298.0,934668.8000000119,7168,WL,C,1.0
7,3.5310001373291016,immed,56468.9998626709,Thu Jun 19 2025 17:04:24 GMT-0500 (Central Daylight Time),938199.6999999881,A,tower,O,r,204,1,3530.899999976158,934668.8000000119,7168,WL,C,1.0
7,4.680000066757202,immed,55319.9999332428,Thu Jun 19 2025 17:04:24 GMT-0500 (Central Daylight Time),939348.8000000119,A,towerenter,O,enter,1124,1,4680.0,934668.8000000119,7168,WL,C,1.0
7,5.564000129699707,immed,54435.99987030029,Thu Jun 19 2025 17:04:24 GMT-0500 (Central Daylight Time),940232.8000000119,A,q,O,q,865,1,883.8000000119209,939349.0,7168,WL,C,2.0
7,5.831000089645386,immed,54168.999910354614,Thu Jun 19 2025 17:04:24 GMT-0500 (Central Daylight Time),940499.1000000238,A,qu,O,u,235,1,1150.1000000238419,939349.0,7168,WL,C,2.0
7,6.180000066757202,immed,53819.9999332428,Thu Jun 19 2025 17:04:24 GMT-0500 (Central Daylight Time),940848.6999999881,A,que,O,e,317,1,1499.699999988079,939349.0,7168,WL,C,2.0
7,6.397000074386597,immed,53602.9999256134,Thu Jun 19 2025 17:04:24 GMT-0500 (Central Daylight Time),941065.9000000358,A,quee,O,e,192,1,1716.9000000357628,939349.0,7168,WL,C,2.0
7,6.814000129699707,immed,53185.99987030029,Thu Jun 19 2025 17:04:24 GMT-0500 (Central Daylight Time),941482.1999999881,A,queen,O,n,383,1,2133.199999988079,939349.0,7168,WL,C,2.0
7,7.828999996185303,immed,52171.0000038147,Thu Jun 19 2025 17:04:24 GMT-0500 (Central Daylight Time),942497.8000000119,A,queenenter,O,enter,982,1,3148.800000011921,939349.0,7168,WL,C,2.0
7,8.647000074386597,immed,51352.9999256134,Thu Jun 19 2025 17:04:24 GMT-0500 (Central Daylight Time),943315.4000000358,A,d,O,d,804,1,817.4000000357628,942498.0,7168,WL,C,3.0
7,8.880000114440918,immed,51119.99988555908,Thu Jun 19 2025 17:04:24 GMT-0500 (Central Daylight Time),943548.5,A,do,O,o,199,1,1050.5,942498.0,7168,WL,C,3.0
7,9.279000043869019,immed,50720.99995613098,Thu Jun 19 2025 17:04:24 GMT-0500 (Central Daylight Time),943948.0,A,doc,O,c,358,1,1450.0,942498.0,7168,WL,C,3.0
7,9.746000051498413,immed,50253.99994850159,Thu Jun 19 2025 17:04:24 GMT-0500 (Central Daylight Time),944414.6999999881,A,doct,O,t,431,1,1916.699999988079,942498.0,7168,WL,C,3.0
7,10.062999963760376,immed,49937.000036239624,Thu Jun 19 2025 17:04:24 GMT-0500 (Central Daylight Time),944731.1999999881,A,docto,O,o,277,1,2233.199999988079,942498.0,7168,WL,C,3.0
7,10.513000011444092,immed,49486.99998855591,Thu Jun 19 2025 17:04:24 GMT-0500 (Central Daylight Time),945181.1000000238,A,doctor,O,r,424,1,2683.100000023842,942498.0,7168,WL,C,3.0
7,10.995000123977661,immed,49004.99987602234,Thu Jun 19 2025 17:04:24 GMT-0500 (Central Daylight Time),945663.4000000358,A,doctorenter,O,enter,453,1,3165.400000035763,942498.0,7168,WL,C,3.0
7,11.962000131607056,immed,48037.999868392944,Thu Jun 19 2025 17:04:24 GMT-0500 (Central Daylight Time),946630.4000000358,A,s,O,s,958,1,966.8000000119209,945663.6000000238,7168,WL,C,4.0
7,12.312000036239624,immed,47687.999963760376,Thu Jun 19 2025 17:04:24 GMT-0500 (Central Daylight Time),946980.5,A,su,O,u,321,1,1316.8999999761581,945663.6000000238,7168,WL,C,4.0
7,12.84500002861023,immed,47154.99997138977,Thu Jun 19 2025 17:04:24 GMT-0500 (Central Daylight Time),947513.6999999881,A,sug,O,g,502,1,1850.0999999642372,945663.6000000238,7168,WL,C,4.0
7,13.111999988555908,immed,46888.00001144409,Thu Jun 19 2025 17:04:24 GMT-0500 (Central Daylight Time),947780.4000000358,A,suge,O,e,233,1,2116.800000011921,945663.6000000238,7168,WL,C,4.0
7,13.394999980926514,immed,46605.000019073486,Thu Jun 19 2025 17:04:24 GMT-0500 (Central Daylight Time),948063.6000000238,A,suger,O,r,245,1,2400.0,945663.6000000238,7168,WL,C,4.0
7,13.861000061035156,immed,46138.999938964844,Thu Jun 19 2025 17:04:24 GMT-0500 (Central Daylight Time),948529.1000000238,A,sugerenter,O,enter,436,1,2865.5,945663.6000000238,7168,WL,C,4.0
7,14.528000116348267,immed,45471.99988365173,Thu Jun 19 2025 17:04:24 GMT-0500 (Central Daylight Time),949196.6000000238,A,b,O,b,661,1,667.1999999880791,948529.4000000358,7168,WL,C,5.0
7,15.128999948501587,immed,44871.00005149841,Thu Jun 19 2025 17:04:24 GMT-0500 (Central Daylight Time),949796.9000000358,A,bo,O,o,573,1,1267.5,948529.4000000358,7168,WL,C,5.0
7,15.66100001335144,immed,44338.99998664856,Thu Jun 19 2025 17:04:24 GMT-0500 (Central Daylight Time),950329.5,A,boy,O,y,492,1,1800.0999999642372,948529.4000000358,7168,WL,C,5.0
7,16.5770001411438,immed,43422.9998588562,Thu Jun 19 2025 17:04:24 GMT-0500 (Central Daylight Time),951244.9000000358,A,boyenter,O,enter,880,1,2715.5,948529.4000000358,7168,WL,C,5.0
7,17.24399995803833,immed,42756.00004196167,Thu Jun 19 2025 17:04:24 GMT-0500 (Central Daylight Time),951912.5,A,b,O,b,657,1,667.3000000119209,951245.1999999881,7168,WL,C,6.0
7,17.8270001411438,immed,42172.9998588562,Thu Jun 19 2025 17:04:24 GMT-0500 (Central Daylight Time),952494.6999999881,A,bo,O,o,554,1,1249.5,951245.1999999881,7168,WL,C,6.0
7,18.276999950408936,immed,41723.000049591064,Thu Jun 19 2025 17:04:24 GMT-0500 (Central Daylight Time),952945.4000000358,A,bod,O,d,426,1,1700.2000000476837,951245.1999999881,7168,WL,C,6.0
7,18.592999935150146,immed,41407.00006484985,Thu Jun 19 2025 17:04:24 GMT-0500 (Central Daylight Time),953260.9000000358,A,body,O,y,280,1,2015.7000000476837,951245.1999999881,7168,WL,C,6.0
7,19.909000158309937,immed,40090.99984169006,Thu Jun 19 2025 17:04:24 GMT-0500 (Central Daylight Time),954577.1000000238,A,bodyenter,O,enter,1303,1,3331.900000035763,951245.1999999881,7168,WL,C,6.0
7,20.91000008583069,immed,39089.99991416931,Thu Jun 19 2025 17:04:24 GMT-0500 (Central Daylight Time),955577.8000000119,A,f,O,f,981,1,1000.5,954577.3000000119,7168,WL,C,7.0
7,21.358999967575073,immed,38641.00003242493,Thu Jun 19 2025 17:04:24 GMT-0500 (Central Daylight Time),956027.6000000238,A,fl,O,l,417,1,1450.300000011921,954577.3000000119,7168,WL,C,7.0
7,21.70900011062622,immed,38290.99988937378,Thu Jun 19 2025 17:04:24 GMT-0500 (Central Daylight Time),956377.3000000119,A,fla,O,a,320,1,1800.0,954577.3000000119,7168,WL,C,7.0
7,22.14300012588501,immed,37856.99987411499,Thu Jun 19 2025 17:04:24 GMT-0500 (Central Daylight Time),956810.6999999881,A,flag,O,g,398,1,2233.399999976158,954577.3000000119,7168,WL,C,7.0
7,23.091000080108643,immed,36908.99991989136,Thu Jun 19 2025 17:04:24 GMT-0500 (Central Daylight Time),957759.5,A,flagenter,O,enter,910,1,3182.199999988079,954577.3000000119,7168,WL,C,7.0
7,26.60800004005432,immed,33391.99995994568,Thu Jun 19 2025 17:04:24 GMT-0500 (Central Daylight Time),961276.1000000238,A,s,O,s,3493,1,3516.400000035763,957759.6999999881,7168,WL,C,8.0
7,26.907999992370605,immed,33092.000007629395,Thu Jun 19 2025 17:04:24 GMT-0500 (Central Daylight Time),961575.8000000119,A,sh,O,h,262,1,3816.100000023842,957759.6999999881,7168,WL,C,8.0
7,27.557000160217285,immed,32442.999839782715,Thu Jun 19 2025 17:04:24 GMT-0500 (Central Daylight Time),962225.5,A,sho,O,o,618,1,4465.800000011921,957759.6999999881,7168,WL,C,8.0
7,28.27300000190735,immed,31726.99999809265,Thu Jun 19 2025 17:04:24 GMT-0500 (Central Daylight Time),962941.1999999881,A,shor,O,r,691,1,5181.5,957759.6999999881,7168,WL,C,8.0
7,28.572999954223633,immed,31427.000045776367,Thu Jun 19 2025 17:04:24 GMT-0500 (Central Daylight Time),963241.0,A,shore,O,e,285,1,5481.300000011921,957759.6999999881,7168,WL,C,8.0
7,29.772000074386597,immed,30227.999925613403,Thu Jun 19 2025 17:04:24 GMT-0500 (Central Daylight Time),964440.6000000238,A,shoreenter,O,enter,1184,1,6680.900000035763,957759.6999999881,7168,WL,C,8.0
7,32.35599994659424,immed,27644.00005340576,Thu Jun 19 2025 17:04:24 GMT-0500 (Central Daylight Time),967024.0,A,w,O,w,2566,1,2583.099999964237,964440.9000000358,7168,WL,C,9.0
7,32.539000034332275,immed,27460.999965667725,Thu Jun 19 2025 17:04:24 GMT-0500 (Central Daylight Time),967207.3000000119,A,wh,O,h,157,1,2766.399999976158,964440.9000000358,7168,WL,C,9.0
7,32.90499997138977,immed,27095.00002861023,Thu Jun 19 2025 17:04:24 GMT-0500 (Central Daylight Time),967573.6000000238,A,whe,O,e,344,1,3132.699999988079,964440.9000000358,7168,WL,C,9.0
7,33.4060001373291,immed,26593.9998626709,Thu Jun 19 2025 17:04:24 GMT-0500 (Central Daylight Time),968073.6999999881,A,whea,O,a,462,1,3632.7999999523163,964440.9000000358,7168,WL,C,9.0
7,33.82200002670288,immed,26177.99997329712,Thu Jun 19 2025 17:04:24 GMT-0500 (Central Daylight Time),968490.1000000238,A,wheat,O,t,387,1,4049.199999988079,964440.9000000358,7168,WL,C,9.0
7,34.37100005149841,immed,25628.999948501587,Thu Jun 19 2025 17:04:24 GMT-0500 (Central Daylight Time),969039.0,A,wheatenter,O,enter,519,1,4598.099999964237,964440.9000000358,7168,WL,C,9.0
7,34.88700008392334,immed,25112.99991607666,Thu Jun 19 2025 17:04:24 GMT-0500 (Central Daylight Time),969555.4000000358,A,c,O,c,500,1,516.1000000238419,969039.3000000119,7168,WL,C,10.0
7,35.15499997138977,immed,24845.00002861023,Thu Jun 19 2025 17:04:24 GMT-0500 (Central Daylight Time),969823.1000000238,A,co,O,o,249,1,783.8000000119209,969039.3000000119,7168,WL,C,10.0
7,35.57100009918213,immed,24428.99990081787,Thu Jun 19 2025 17:04:24 GMT-0500 (Central Daylight Time),970239.5,A,cor,O,r,380,1,1200.199999988079,969039.3000000119,7168,WL,C,10.0
7,35.9210000038147,immed,24078.999996185303,Thu Jun 19 2025 17:04:24 GMT-0500 (Central Daylight Time),970589.1000000238,A,corn,O,n,324,1,1549.800000011921,969039.3000000119,7168,WL,C,10.0
7,38.003000020980835,immed,21996.999979019165,Thu Jun 19 2025 17:04:24 GMT-0500 (Central Daylight Time),972671.1999999881,A,cornenter,O,enter,2053,1,3631.899999976158,969039.3000000119,7168,WL,C,10.0
7,40.437000036239624,immed,19562.999963760376,Thu Jun 19 2025 17:04:24 GMT-0500 (Central Daylight Time),975105.0,A,c,O,c,2415,1,2433.599999964237,972671.4000000358,7168,WL,C,11.0
7,40.87000012397766,immed,19129.99987602234,Thu Jun 19 2025 17:04:24 GMT-0500 (Central Daylight Time),975537.8000000119,A,ca,O,a,402,1,2866.399999976158,972671.4000000358,7168,WL,C,11.0
7,41.13600015640259,immed,18863.999843597412,Thu Jun 19 2025 17:04:24 GMT-0500 (Central Daylight Time),975804.4000000358,A,cam,O,m,233,1,3133.0,972671.4000000358,7168,WL,C,11.0
7,41.736000061035156,immed,18263.999938964844,Thu Jun 19 2025 17:04:24 GMT-0500 (Central Daylight Time),976403.6000000238,A,camp,O,p,569,1,3732.199999988079,972671.4000000358,7168,WL,C,11.0
7,42.985000133514404,immed,17014.999866485596,Thu Jun 19 2025 17:04:24 GMT-0500 (Central Daylight Time),977652.9000000358,A,campenter,O,enter,1225,1,4981.5,972671.4000000358,7168,WL,C,11.0
7,43.61899995803833,immed,16381.00004196167,Thu Jun 19 2025 17:04:24 GMT-0500 (Central Daylight Time),978287.0,A,l,O,l,617,1,633.8999999761581,977653.1000000238,7168,WL,C,12.0
7,43.88499999046326,immed,16115.000009536743,Thu Jun 19 2025 17:04:24 GMT-0500 (Central Daylight Time),978553.5,A,le,O,e,237,1,900.3999999761581,977653.1000000238,7168,WL,C,12.0
7,44.235000133514404,immed,15764.999866485596,Thu Jun 19 2025 17:04:24 GMT-0500 (Central Daylight Time),978903.3000000119,A,let,O,t,322,1,1250.199999988079,977653.1000000238,7168,WL,C,12.0
7,44.4520001411438,immed,15547.999858856201,Thu Jun 19 2025 17:04:24 GMT-0500 (Central Daylight Time),979119.9000000358,A,lett,O,t,179,1,1466.800000011921,977653.1000000238,7168,WL,C,12.0
7,44.88499999046326,immed,15115.000009536743,Thu Jun 19 2025 17:04:24 GMT-0500 (Central Daylight Time),979553.0,A,lette,O,e,402,1,1899.8999999761581,977653.1000000238,7168,WL,C,12.0
7,45.20099997520447,immed,14799.000024795532,Thu Jun 19 2025 17:04:24 GMT-0500 (Central Daylight Time),979869.6000000238,A,letter,O,r,292,1,2216.5,977653.1000000238,7168,WL,C,12.0
7,46.08400011062622,immed,13915.99988937378,Thu Jun 19 2025 17:04:24 GMT-0500 (Central Daylight Time),980751.9000000358,A,letterenter,O,enter,844,1,3098.800000011921,977653.1000000238,7168,WL,C,12.0
7,46.71799993515015,immed,13282.000064849854,Thu Jun 19 2025 17:04:24 GMT-0500 (Central Daylight Time),981386.1999999881,A,c,O,c,622,1,634.0,980752.1999999881,7168,WL,C,13.0
7,47.134000062942505,immed,12865.999937057495,Thu Jun 19 2025 17:04:24 GMT-0500 (Central Daylight Time),981802.3000000119,A,ca,O,a,385,1,1050.1000000238419,980752.1999999881,7168,WL,C,13.0
7,47.58400011062622,immed,12415.99988937378,Thu Jun 19 2025 17:04:24 GMT-0500 (Central Daylight Time),982252.0,A,cat,O,t,427,1,1499.800000011921,980752.1999999881,7168,WL,C,13.0
7,47.801000118255615,immed,12198.999881744385,Thu Jun 19 2025 17:04:24 GMT-0500 (Central Daylight Time),982468.6999999881,A,catt,O,t,201,1,1716.5,980752.1999999881,7168,WL,C,13.0
7,48.58400011062622,immed,11415.99988937378,Thu Jun 19 2025 17:04:24 GMT-0500 (Central Daylight Time),983252.1000000238,A,catte,O,e,743,1,2499.900000035763,980752.1999999881,7168,WL,C,13.0
7,48.78400015830994,immed,11215.999841690063,Thu Jun 19 2025 17:04:24 GMT-0500 (Central Daylight Time),983452.0,A,cattel,O,l,159,1,2699.800000011921,980752.1999999881,7168,WL,C,13.0
7,50.24900007247925,immed,9750.999927520752,Thu Jun 19 2025 17:04:24 GMT-0500 (Central Daylight Time),984917.1999999881,A,cattelenter,O,enter,1435,1,4165.0,980752.1999999881,7168,WL,C,13.0
7,55.88100004196167,immed,4118.99995803833,Thu Jun 19 2025 17:04:24 GMT-0500 (Central Daylight Time),990549.6000000238,A,h,O,h,5625,1,5632.199999988079,984917.4000000358,7168,WL,C,14.0
7,56.430999994277954,immed,3569.000005722046,Thu Jun 19 2025 17:04:24 GMT-0500 (Central Daylight Time),991099.3000000119,A,ho,O,o,517,1,6181.899999976158,984917.4000000358,7168,WL,C,14.0
7,56.763999938964844,immed,3236.0000610351562,Thu Jun 19 2025 17:04:24 GMT-0500 (Central Daylight Time),991432.6000000238,A,hom,O,m,297,1,6515.199999988079,984917.4000000358,7168,WL,C,14.0
7,57.04800009727478,immed,2951.9999027252197,Thu Jun 19 2025 17:04:24 GMT-0500 (Central Daylight Time),991716.6999999881,A,home,O,e,261,1,6799.299999952316,984917.4000000358,7168,WL,C,14.0
7,58.19600009918213,immed,1803.999900817871,Thu Jun 19 2025 17:04:24 GMT-0500 (Central Daylight Time),992864.6000000238,A,homeenter,O,enter,1108,1,7947.199999988079,984917.4000000358,7168,WL,C,14.0
7,60.01300001144409,immed,-13.000011444091797,Thu Jun 19 2025 17:04:24 GMT-0500 (Central Daylight Time),994681.6000000238,A,None,O,None,1811,1,1816.800000011921,992864.8000000119,7168,WL,C,15.0
