acc_sum,block,block_c,condition,correct,correct_response,datetime,endtime,flanker,jitter,project,response,response_test_buffer_response,response_test_target_response,response_time,response_time_test_buffer_response,response_time_test_target_response,row_sel,session_number,start_end,starttime,subject_id,target,task,task_vers,time_test_buffer,time_test_buffer_response,time_test_constants,time_test_flanker,time_test_jitter,time_test_logger,time_test_target,time_test_target_response,time_test_variables,trial
0,prac,1,con,0,m,Thu Nov 20 2025 17:19:49 GMT-0600 (Central Standard Time),90728.90000003576,bell,1000,O,None,,,1815,,,3,,5077.800000011921,85651.10000002384,7246,bell,AF,B,,,,,,,,,,1
1,prac,1,inc,1,z,Thu Nov 20 2025 17:19:49 GMT-0600 (Central Standard Time),93912.40000003576,film,900,O,z,,,984,,,14,,3176.100000023842,90736.30000001192,7246,hate,AF,B,,,,,,,,,,2
2,prac,1,inc,1,z,Thu Nov 20 2025 17:19:49 GMT-0600 (Central Standard Time),96960.80000001192,rock,900,O,z,,,855,,,10,,3043.699999988079,93917.10000002384,7246,kind,AF,B,,,,,,,,,,3
3,prac,1,con,1,m,Thu Nov 20 2025 17:19:49 GMT-0600 (Central Standard Time),99747.40000003576,jacket,800,O,m,,,683,,,5,,2781.600000023842,96965.80000001192,7246,jacket,AF,B,,,,,,,,,,4
4,prac,1,inc,1,z,Thu Nov 20 2025 17:19:49 GMT-0600 (Central Standard Time),103458.30000001192,napkin,1100,O,z,,,1316,,,12,,3706.699999988079,99751.60000002384,7246,friend,AF,B,,,,,,,,,,5
5,prac,1,con,1,z,Thu Nov 20 2025 17:19:49 GMT-0600 (Central Standard Time),106508.0,elated,800,O,z,,,978,,,9,,3043.7999999523163,103464.20000004768,7246,elated,AF,B,,,,,,,,,,6
6,prac,1,inc,1,z,Thu Nov 20 2025 17:19:49 GMT-0600 (Central Standard Time),109772.70000004768,window,1100,O,z,,,852,,,16,,3257.800000011921,106514.90000003576,7246,temper,AF,B,,,,,,,,,,7
7,prac,1,con,1,z,Thu Nov 20 2025 17:19:49 GMT-0600 (Central Standard Time),112673.5,brutal,800,O,z,,,816,,,13,,2896.2999999523163,109777.20000004768,7246,brutal,AF,B,,,,,,,,,,8
8,prac,1,inc,1,m,Thu Nov 20 2025 17:19:49 GMT-0600 (Central Standard Time),115470.10000002384,kind,900,O,m,,,586,,,2,,2793.399999976158,112676.70000004768,7246,rock,AF,B,,,,,,,,,,9
9,prac,1,con,1,m,Thu Nov 20 2025 17:19:49 GMT-0600 (Central Standard Time),118236.10000002384,step,800,O,m,,,653,,,1,,2761.0,115475.10000002384,7246,step,AF,B,,,,,,,,,,10
10,prac,1,inc,1,m,Thu Nov 20 2025 17:19:49 GMT-0600 (Central Standard Time),121319.20000004768,hate,1100,O,m,,,676,,,4,,3079.100000023842,118240.10000002384,7246,film,AF,B,,,,,,,,,,11
11,prac,1,inc,1,m,Thu Nov 20 2025 17:19:49 GMT-0600 (Central Standard Time),124336.5,elated,900,O,m,,,818,,,6,,3011.899999976158,121324.60000002384,7246,napkin,AF,B,,,,,,,,,,12
12,prac,1,inc,1,m,Thu Nov 20 2025 17:19:49 GMT-0600 (Central Standard Time),127466.30000001192,brutal,1100,O,m,,,730,,,8,,3125.899999976158,124340.40000003576,7246,window,AF,B,,,,,,,,,,13
13,prac,1,con,1,z,Thu Nov 20 2025 17:19:49 GMT-0600 (Central Standard Time),130699.5,love,1000,O,z,,,936,,,11,,3229.0,127470.5,7246,love,AF,B,,,,,,,,,,14
14,prac,1,con,1,m,Thu Nov 20 2025 17:19:49 GMT-0600 (Central Standard Time),134081.0,remote,1000,O,m,,,1072,,,7,,3371.699999988079,130709.30000001192,7246,remote,AF,B,,,,,,,,,,15
15,prac,1,con,1,z,Thu Nov 20 2025 17:19:49 GMT-0600 (Central Standard Time),137396.60000002384,rage,1000,O,z,,,1001,,,15,,3308.600000023842,134088.0,7246,rage,AF,B,,,,,,,,,,16
1,test,1,con,1,z,Thu Nov 20 2025 17:19:49 GMT-0600 (Central Standard Time),152906.90000003576,love,1000,O,z,z,None,961,746.0,215.0,19,,2490.100000023842,150416.80000001192,7246,love,AF,B,149444,149444,147702,148712,147702,150192,149229,149229,150192,1
2,test,1,con,1,m,Thu Nov 20 2025 17:19:49 GMT-0600 (Central Standard Time),155458.0,film,1000,O,m,m,None,1006,807.0,199.0,91,,2548.099999964237,152909.90000003576,7246,film,AF,B,151927,151927,150195,151210,150195,152743,151727,151727,152743,2
3,test,1,con,1,m,Thu Nov 20 2025 17:19:49 GMT-0600 (Central Standard Time),157573.40000003576,film,900,O,m,m,None,669,454.0,215.0,90,,2111.100000023842,155462.30000001192,7246,film,AF,B,154393,154393,152747,153659,152748,154859,154177,154177,154858,3
4,test,1,con,1,m,Thu Nov 20 2025 17:19:49 GMT-0600 (Central Standard Time),159689.80000001192,window,900,O,m,m,None,682,483.0,199.0,122,,2109.399999976158,157580.40000003576,7246,window,AF,B,156492,156492,154865,155776,154866,156975,156292,156292,156975,4
5,test,1,inc,1,m,Thu Nov 20 2025 17:19:49 GMT-0600 (Central Standard Time),161923.20000004768,elated,800,O,m,m,None,890,689.0,201.0,109,,2227.800000011921,159695.40000003576,7246,napkin,AF,B,158510,158510,156980,157792,156981,159208,158308,158308,159208,5
6,test,1,con,1,z,Thu Nov 20 2025 17:19:49 GMT-0600 (Central Standard Time),164138.5,rage,800,O,z,z,None,881,681.0,200.0,49,,2210.199999988079,161928.30000001192,7246,rage,AF,B,160742,160742,159213,160024,159214,161424,160541,160541,161424,6
7,test,1,con,1,m,Thu Nov 20 2025 17:19:49 GMT-0600 (Central Standard Time),166387.20000004768,window,1100,O,m,m,None,604,404.0,200.0,124,,2242.100000023842,164145.10000002384,7246,window,AF,B,163259,163259,161430,162541,161430,163672,163057,163057,163672,7
8,test,1,con,1,z,Thu Nov 20 2025 17:19:49 GMT-0600 (Central Standard Time),168954.30000001192,hate,1100,O,z,z,None,931,732.0,199.0,44,,2560.599999964237,166393.70000004768,7246,hate,AF,B,165507,165507,163679,164790,163679,166239,165307,165307,166239,8
9,test,1,con,1,z,Thu Nov 20 2025 17:19:49 GMT-0600 (Central Standard Time),171268.90000003576,hate,800,O,z,z,None,969,751.0,218.0,41,,2308.5,168960.40000003576,7246,hate,AF,B,167791,167791,166245,167057,166246,168554,167572,167572,168554,9
10,test,1,inc,1,m,Thu Nov 20 2025 17:19:49 GMT-0600 (Central Standard Time),174085.10000002384,love,1000,O,m,m,None,1270,1071.0,199.0,71,,2809.899999976158,171275.20000004768,7246,step,AF,B,170288,170288,168560,169571,168560,171370,170089,170089,171370,10
11,test,1,inc,1,m,Thu Nov 20 2025 17:19:49 GMT-0600 (Central Standard Time),176784.0,friend,1100,O,m,m,None,1049,850.0,199.0,104,,2693.099999964237,174090.90000003576,7246,jacket,AF,B,173204,173204,171376,172489,171376,174069,173004,173004,174069,11
12,test,1,con,1,m,Thu Nov 20 2025 17:19:49 GMT-0600 (Central Standard Time),179250.30000001192,napkin,1000,O,m,m,None,923,723.0,200.0,107,,2461.899999976158,176788.40000003576,7246,napkin,AF,B,175804,175804,174073,175086,174074,176535,175603,175603,176535,12
13,test,1,inc,1,z,Thu Nov 20 2025 17:19:49 GMT-0600 (Central Standard Time),181983.20000004768,window,1100,O,z,z,None,1093,894.0,199.0,32,,2727.0,179256.20000004768,7246,friend,AF,B,178369,178369,176541,177652,176542,179268,178169,178169,179268,13
14,test,1,inc,1,m,Thu Nov 20 2025 17:19:49 GMT-0600 (Central Standard Time),184266.40000003576,rage,800,O,m,m,None,949,750.0,199.0,85,,2277.0,181989.40000003576,7246,bell,AF,B,180800,180801,179274,180085,179275,181551,180601,180601,181551,14
15,test,1,inc,1,z,Thu Nov 20 2025 17:19:49 GMT-0600 (Central Standard Time),186714.5,napkin,900,O,z,z,None,1006,792.0,214.0,30,,2442.899999976158,184271.60000002384,7246,friend,AF,B,183199,183199,181557,182467,181557,184000,182985,182985,183999,15
16,test,1,con,1,z,Thu Nov 20 2025 17:19:49 GMT-0600 (Central Standard Time),189431.30000001192,brutal,1100,O,z,z,None,1069,869.0,200.0,36,,2710.300000011921,186721.0,7246,brutal,AF,B,185833,185833,184006,185117,184006,186716,185633,185633,186716,16
17,test,1,inc,1,z,Thu Nov 20 2025 17:19:49 GMT-0600 (Central Standard Time),191930.10000002384,bell,1000,O,z,z,None,957,758.0,199.0,23,,2492.899999976158,189437.20000004768,7246,love,AF,B,188449,188449,186722,187734,186723,189215,188249,188249,189215,17
18,test,1,inc,1,m,Thu Nov 20 2025 17:19:49 GMT-0600 (Central Standard Time),194362.80000001192,friend,1100,O,m,m,None,815,615.0,200.0,128,,2429.0,191933.80000001192,7246,window,AF,B,191032,191032,189219,190331,189219,191648,190832,190832,191648,18
19,test,1,inc,1,z,Thu Nov 20 2025 17:19:49 GMT-0600 (Central Standard Time),196829.20000004768,rock,900,O,z,z,None,1021,804.0,217.0,46,,2461.7000000476837,194367.5,7246,hate,AF,B,193298,193298,191653,192564,191653,194114,193081,193081,194114,19
20,test,1,con,1,z,Thu Nov 20 2025 17:19:49 GMT-0600 (Central Standard Time),199261.40000003576,brutal,1000,O,z,z,None,893,679.0,214.0,35,,2429.300000011921,196832.10000002384,7246,brutal,AF,B,195863,195863,194117,195131,194117,196546,195648,195648,196546,20
21,test,1,con,1,m,Thu Nov 20 2025 17:19:49 GMT-0600 (Central Standard Time),202378.30000001192,rock,1100,O,m,m,None,1468,1268.0,200.0,76,,3113.199999988079,199265.10000002384,7246,rock,AF,B,198379,198379,196550,197663,196550,199663,198179,198179,199663,21
22,test,1,con,1,z,Thu Nov 20 2025 17:19:49 GMT-0600 (Central Standard Time),204691.60000002384,friend,1000,O,z,z,None,781,579.0,202.0,27,,2307.399999976158,202384.20000004768,7246,friend,AF,B,201396,201396,199669,200678,199669,201977,201194,201194,201977,22
23,test,1,con,1,z,Thu Nov 20 2025 17:19:49 GMT-0600 (Central Standard Time),207407.5,temper,1000,O,z,z,None,1176,977.0,199.0,59,,2712.7999999523163,204694.70000004768,7246,temper,AF,B,203710,203710,201980,202993,201980,204693,203511,203511,204693,23
24,test,1,con,1,m,Thu Nov 20 2025 17:19:49 GMT-0600 (Central Standard Time),209557.0,napkin,900,O,m,m,None,721,521.0,200.0,106,,2146.0,207411.0,7246,napkin,AF,B,206310,206310,204696,205608,204696,206842,206110,206110,206842,24
25,test,1,con,1,z,Thu Nov 20 2025 17:19:49 GMT-0600 (Central Standard Time),211756.70000004768,brutal,800,O,z,z,None,850,650.0,200.0,33,,2194.600000023842,209562.10000002384,7246,brutal,AF,B,208376,208376,206847,207660,206847,209042,208176,208176,209042,25
26,test,1,inc,1,m,Thu Nov 20 2025 17:19:49 GMT-0600 (Central Standard Time),214072.5,temper,1000,O,m,m,None,775,575.0,200.0,119,,2312.5,211760.0,7246,remote,AF,B,210776,210776,209045,210058,209045,211358,210575,210575,211357,26
27,test,1,inc,1,z,Thu Nov 20 2025 17:19:49 GMT-0600 (Central Standard Time),216338.70000004768,napkin,900,O,z,z,None,833,630.0,203.0,6,,2261.5,214077.20000004768,7246,elated,AF,B,212993,212993,211362,212276,211362,213624,212790,212790,213624,27
28,test,1,con,1,m,Thu Nov 20 2025 17:19:49 GMT-0600 (Central Standard Time),219338.10000002384,napkin,1100,O,m,m,None,1359,1158.0,201.0,108,,2995.0,216343.10000002384,7246,napkin,AF,B,215457,215457,213628,214742,213628,216623,215256,215256,216623,28
29,test,1,con,1,m,Thu Nov 20 2025 17:19:49 GMT-0600 (Central Standard Time),221736.90000003576,rock,800,O,m,m,None,1058,843.0,215.0,73,,2395.600000023842,219341.30000001192,7246,rock,AF,B,218172,218172,216626,217441,216626,219022,217956,217957,219022,29
30,test,1,con,1,z,Thu Nov 20 2025 17:19:49 GMT-0600 (Central Standard Time),224419.0,friend,900,O,z,z,None,1239,1040.0,199.0,26,,2678.399999976158,221740.60000002384,7246,friend,AF,B,220655,220655,219026,219939,219026,221704,220456,220456,221704,30
31,test,1,con,1,z,Thu Nov 20 2025 17:19:49 GMT-0600 (Central Standard Time),226970.0,temper,900,O,z,z,None,1102,902.0,200.0,58,,2546.399999976158,224423.60000002384,7246,temper,AF,B,223338,223338,221709,222621,221709,224255,223137,223137,224255,31
32,test,1,inc,1,z,Thu Nov 20 2025 17:19:49 GMT-0600 (Central Standard Time),229267.70000004768,jacket,800,O,z,z,None,956,755.0,201.0,5,,2292.7000000476837,226975.0,7246,elated,AF,B,225787,225788,224260,225070,224260,226553,225586,225586,226553,32
33,test,1,con,1,m,Thu Nov 20 2025 17:19:49 GMT-0600 (Central Standard Time),231283.70000004768,napkin,800,O,m,m,None,697,483.0,214.0,105,,2012.300000011921,229271.40000003576,7246,napkin,AF,B,228086,228086,226556,227370,226557,228569,227871,227871,228569,33
34,test,1,con,1,m,Thu Nov 20 2025 17:19:49 GMT-0600 (Central Standard Time),233615.90000003576,rock,1000,O,m,m,None,797,584.0,213.0,75,,2328.600000023842,231287.30000001192,7246,rock,AF,B,230302,230302,228572,229586,228573,230901,230088,230088,230901,34
35,test,1,inc,1,m,Thu Nov 20 2025 17:19:49 GMT-0600 (Central Standard Time),235848.40000003576,kind,900,O,m,m,None,807,592.0,215.0,94,,2229.5,233618.90000003576,7246,film,AF,B,232534,232534,230904,231818,230904,233134,232319,232319,233133,35
36,test,1,con,1,z,Thu Nov 20 2025 17:19:49 GMT-0600 (Central Standard Time),238049.5,temper,800,O,z,z,None,859,658.0,201.0,57,,2197.699999988079,235851.80000001192,7246,temper,AF,B,234668,234669,233137,233952,233137,235335,234467,234467,235335,36
37,test,1,inc,1,z,Thu Nov 20 2025 17:19:49 GMT-0600 (Central Standard Time),240248.40000003576,jacket,800,O,z,z,None,861,660.0,201.0,37,,2195.900000035763,238052.5,7246,brutal,AF,B,236867,236867,235338,236151,235338,237533,236666,236666,237533,37
38,test,1,inc,1,m,Thu Nov 20 2025 17:19:49 GMT-0600 (Central Standard Time),242763.90000003576,hate,1100,O,m,m,None,900,699.0,201.0,72,,2511.400000035763,240252.5,7246,step,AF,B,239350,239350,237538,238647,237538,240049,239149,239149,240049,38
39,test,1,con,1,z,Thu Nov 20 2025 17:19:49 GMT-0600 (Central Standard Time),245296.60000002384,rage,1000,O,z,z,None,983,784.0,199.0,51,,2528.600000023842,242768.0,7246,rage,AF,B,241782,241782,240053,241065,240053,242582,241583,241583,242582,39
40,test,1,con,1,z,Thu Nov 20 2025 17:19:49 GMT-0600 (Central Standard Time),248794.90000003576,rage,1100,O,z,z,None,1880,1666.0,214.0,52,,3494.100000023842,245300.80000001192,7246,rage,AF,B,244413,244414,242586,243697,242586,246080,244199,244199,246080,40
41,test,1,inc,1,m,Thu Nov 20 2025 17:19:49 GMT-0600 (Central Standard Time),251160.5,hate,1100,O,m,m,None,717,517.0,200.0,80,,2361.199999988079,248799.30000001192,7246,rock,AF,B,247914,247914,246084,247197,246085,248446,247713,247713,248445,41
42,test,1,inc,1,z,Thu Nov 20 2025 17:19:49 GMT-0600 (Central Standard Time),253994.10000002384,step,800,O,z,z,None,1490,1291.0,199.0,21,,2827.300000011921,251166.80000001192,7246,love,AF,B,249979,249979,248452,249262,248452,251279,249779,249779,251279,42
43,test,1,inc,1,z,Thu Nov 20 2025 17:19:49 GMT-0600 (Central Standard Time),256808.70000004768,remote,1000,O,z,z,None,1268,1068.0,200.0,63,,2809.100000023842,253999.60000002384,7246,temper,AF,B,253011,253011,251285,252295,251285,254094,252811,252811,254094,43
44,test,1,con,1,m,Thu Nov 20 2025 17:19:49 GMT-0600 (Central Standard Time),259159.10000002384,bell,800,O,m,m,None,1027,827.0,200.0,81,,2343.600000023842,256815.5,7246,bell,AF,B,255612,255612,254101,254910,254101,256444,255411,255411,256444,44
45,test,1,inc,1,z,Thu Nov 20 2025 17:19:49 GMT-0600 (Central Standard Time),261641.90000003576,bell,1000,O,z,z,None,966,767.0,199.0,47,,2475.300000011921,259166.60000002384,7246,hate,AF,B,258160,258160,256452,257459,256452,258927,257960,257960,258927,45
46,test,1,inc,1,m,Thu Nov 20 2025 17:19:49 GMT-0600 (Central Standard Time),264189.5,elated,800,O,m,m,None,1202,1003.0,199.0,101,,2542.2999999523163,261647.20000004768,7246,jacket,AF,B,260459,260459,258932,259742,258932,261475,260259,260259,261475,46
47,test,1,inc,1,m,Thu Nov 20 2025 17:19:49 GMT-0600 (Central Standard Time),267204.90000003576,kind,900,O,m,m,None,1579,1378.0,201.0,70,,3012.600000023842,264192.3000000119,7246,step,AF,B,263109,263109,261477,262391,261478,264490,262908,262908,264490,47
48,test,1,inc,1,z,Thu Nov 20 2025 17:19:49 GMT-0600 (Central Standard Time),269605.10000002384,window,1100,O,z,z,None,749,549.0,200.0,40,,2395.199999988079,267209.90000003576,7246,brutal,AF,B,266324,266324,264495,265607,264495,266890,266123,266123,266890,48
49,test,1,inc,1,z,Thu Nov 20 2025 17:19:49 GMT-0600 (Central Standard Time),272269.8000000119,film,1100,O,z,z,None,1027,828.0,199.0,48,,2660.399999976158,269609.40000003576,7246,hate,AF,B,268723,268723,266894,268007,266895,269555,268524,268524,269555,49
50,test,1,inc,1,m,Thu Nov 20 2025 17:19:49 GMT-0600 (Central Standard Time),275069.5,temper,1000,O,m,m,None,1253,1037.0,216.0,111,,2794.199999988079,272275.3000000119,7246,napkin,AF,B,271306,271306,269560,270572,269561,272355,271090,271090,272355,50
51,test,1,con,1,m,Thu Nov 20 2025 17:19:49 GMT-0600 (Central Standard Time),277368.90000003576,bell,1000,O,m,m,None,751,552.0,199.0,83,,2290.100000023842,275078.8000000119,7246,bell,AF,B,274088,274088,272364,273372,272364,274654,273888,273888,274654,51
51,test,1,inc,0,z,Thu Nov 20 2025 17:19:49 GMT-0600 (Central Standard Time),280818.10000002384,rock,900,O,None,None,None,1814,1814.0,200.0,54,,3441.699999988079,277376.40000003576,7246,rage,AF,B,276289,276289,274661,275572,274662,278103,276088,276088,278103,52
52,test,1,con,1,m,Thu Nov 20 2025 17:19:49 GMT-0600 (Central Standard Time),283134.10000002384,step,1000,O,m,m,None,784,570.0,214.0,67,,2312.600000023842,280821.5,7246,step,AF,B,279837,279837,278107,279120,278107,280419,279622,279622,280419,53
53,test,1,inc,1,m,Thu Nov 20 2025 17:19:49 GMT-0600 (Central Standard Time),285266.7000000477,brutal,900,O,m,m,None,705,490.0,215.0,110,,2128.800000011921,283137.90000003576,7246,napkin,AF,B,282052,282053,280423,281335,280423,282552,281837,281837,282552,54
54,test,1,inc,1,m,Thu Nov 20 2025 17:19:49 GMT-0600 (Central Standard Time),287299.2000000477,rage,800,O,m,m,None,688,489.0,199.0,77,,2027.1000000238419,285272.10000002384,7246,rock,AF,B,284085,284085,282557,283369,282558,284584,283886,283886,284584,55
55,test,1,inc,1,z,Thu Nov 20 2025 17:19:49 GMT-0600 (Central Standard Time),290015.10000002384,rock,900,O,z,z,None,1294,1094.0,200.0,14,,2711.800000011921,287303.3000000119,7246,kind,AF,B,286201,286201,284588,285491,284589,287300,286001,286001,287300,56
56,test,1,inc,1,z,Thu Nov 20 2025 17:19:49 GMT-0600 (Central Standard Time),292564.0,bell,1000,O,z,z,None,1004,789.0,215.0,55,,2545.7999999523163,290018.2000000477,7246,rage,AF,B,289050,289050,287303,288317,287303,289849,288834,288834,289849,57
57,test,1,con,1,z,Thu Nov 20 2025 17:19:49 GMT-0600 (Central Standard Time),295664.90000003576,friend,1100,O,z,z,None,1460,1260.0,200.0,28,,3093.5,292571.40000003576,7246,friend,AF,B,291683,291683,289856,290967,289857,292950,291482,291482,292950,58
58,test,1,inc,1,z,Thu Nov 20 2025 17:19:49 GMT-0600 (Central Standard Time),298295.90000003576,film,1100,O,z,z,None,994,795.0,199.0,56,,2626.5,295669.40000003576,7246,rage,AF,B,294780,294780,292954,294065,292955,295581,294581,294581,295581,59
59,test,1,con,1,m,Thu Nov 20 2025 17:19:49 GMT-0600 (Central Standard Time),300444.90000003576,jacket,800,O,m,m,None,813,611.0,202.0,97,,2144.400000035763,298300.5,7246,jacket,AF,B,297116,297116,295586,296398,295586,297730,296914,296914,297730,60
60,test,1,con,1,m,Thu Nov 20 2025 17:19:49 GMT-0600 (Central Standard Time),302911.3000000119,bell,1100,O,m,m,None,833,617.0,216.0,84,,2462.0,300449.3000000119,7246,bell,AF,B,299565,299565,297734,298846,297735,300196,299348,299348,300196,61
61,test,1,con,1,z,Thu Nov 20 2025 17:19:49 GMT-0600 (Central Standard Time),305077.7000000477,love,800,O,z,z,None,821,622.0,199.0,17,,2162.400000035763,302915.3000000119,7246,love,AF,B,301729,301729,300200,301014,300201,302363,301530,301530,302363,62
62,test,1,con,1,m,Thu Nov 20 2025 17:19:49 GMT-0600 (Central Standard Time),307226.2000000477,step,900,O,m,m,None,706,491.0,215.0,66,,2144.800000011921,305081.40000003576,7246,step,AF,B,304012,304012,302366,303279,302367,304511,303796,303796,304511,63
63,test,1,con,1,z,Thu Nov 20 2025 17:19:49 GMT-0600 (Central Standard Time),309409.3000000119,elated,800,O,z,z,None,850,649.0,201.0,1,,2179.599999964237,307229.7000000477,7246,elated,AF,B,306045,306045,304515,305328,304515,306694,305843,305843,306694,64
64,test,1,con,1,z,Thu Nov 20 2025 17:19:49 GMT-0600 (Central Standard Time),311863.7000000477,elated,900,O,z,z,None,1037,821.0,216.0,2,,2450.400000035763,309413.3000000119,7246,elated,AF,B,308328,308328,306698,307609,306699,309149,308111,308111,309149,65
65,test,1,inc,1,m,Thu Nov 20 2025 17:19:49 GMT-0600 (Central Standard Time),313841.3000000119,rage,800,O,m,m,None,650,448.0,202.0,93,,1974.800000011921,311866.5,7246,film,AF,B,310678,310678,309152,309960,309152,311126,310476,310476,311126,66
66,test,1,con,1,m,Thu Nov 20 2025 17:19:49 GMT-0600 (Central Standard Time),316291.90000003576,jacket,1100,O,m,m,None,801,600.0,201.0,100,,2447.0,313844.90000003576,7246,jacket,AF,B,312960,312960,311130,312244,311130,313577,312759,312759,313577,67
67,test,1,inc,1,m,Thu Nov 20 2025 17:19:49 GMT-0600 (Central Standard Time),318389.5,rage,800,O,m,m,None,754,554.0,200.0,69,,2093.599999964237,316295.90000003576,7246,step,AF,B,315109,315109,313581,314392,313581,315675,314908,314908,315674,68
68,test,1,inc,1,m,Thu Nov 20 2025 17:19:49 GMT-0600 (Central Standard Time),320622.2000000477,hate,1100,O,m,m,None,595,395.0,200.0,88,,2227.800000011921,318394.40000003576,7246,bell,AF,B,317508,317508,315679,316791,315680,317907,317308,317308,317907,69
69,test,1,con,1,z,Thu Nov 20 2025 17:19:49 GMT-0600 (Central Standard Time),323354.10000002384,kind,1000,O,z,z,None,1190,974.0,216.0,11,,2729.100000023842,320625.0,7246,kind,AF,B,319657,319657,317910,318924,317910,320639,319441,319441,320639,70
70,test,1,inc,1,z,Thu Nov 20 2025 17:19:49 GMT-0600 (Central Standard Time),325620.3000000119,bell,1000,O,z,z,None,731,531.0,200.0,15,,2261.699999988079,323358.60000002384,7246,kind,AF,B,322373,322373,320644,321656,320644,322905,322173,322173,322905,71
71,test,1,inc,1,m,Thu Nov 20 2025 17:19:49 GMT-0600 (Central Standard Time),327669.10000002384,brutal,900,O,m,m,None,612,398.0,214.0,118,,2044.699999988079,325624.40000003576,7246,remote,AF,B,324556,324556,322909,323822,322910,324954,324341,324341,324954,72
72,test,1,inc,1,m,Thu Nov 20 2025 17:19:49 GMT-0600 (Central Standard Time),330301.90000003576,kind,900,O,m,m,None,1194,994.0,200.0,86,,2628.300000011921,327673.60000002384,7246,bell,AF,B,326589,326589,324959,325872,324959,327587,326388,326388,327587,73
73,test,1,con,1,m,Thu Nov 20 2025 17:19:49 GMT-0600 (Central Standard Time),332684.10000002384,remote,1000,O,m,m,None,848,631.0,217.0,115,,2378.800000011921,330305.3000000119,7246,remote,AF,B,329338,329338,327590,328604,327590,329969,329121,329121,329969,74
74,test,1,con,1,m,Thu Nov 20 2025 17:19:49 GMT-0600 (Central Standard Time),334733.3000000119,jacket,900,O,m,m,None,616,402.0,214.0,98,,2045.699999988079,332687.60000002384,7246,jacket,AF,B,331604,331604,329973,330886,329973,332018,331389,331389,332018,75
75,test,1,con,1,z,Thu Nov 20 2025 17:19:49 GMT-0600 (Central Standard Time),337116.7000000477,kind,1100,O,z,z,None,737,520.0,217.0,12,,2379.800000011921,334736.90000003576,7246,kind,AF,B,333871,333871,332022,333136,332022,334402,333653,333653,334402,76
76,test,1,con,1,m,Thu Nov 20 2025 17:19:49 GMT-0600 (Central Standard Time),339715.8000000119,remote,800,O,m,m,None,1271,1071.0,200.0,113,,2595.699999988079,337120.10000002384,7246,remote,AF,B,335920,335920,334405,335219,334405,337001,335720,335720,337001,77
77,test,1,inc,1,z,Thu Nov 20 2025 17:19:49 GMT-0600 (Central Standard Time),342232.60000002384,window,1100,O,z,z,None,868,669.0,199.0,8,,2513.800000011921,339718.8000000119,7246,elated,AF,B,338834,338834,337004,338117,337004,339518,338634,338634,339518,78
78,test,1,inc,1,z,Thu Nov 20 2025 17:19:49 GMT-0600 (Central Standard Time),344580.8000000119,step,800,O,z,z,None,1013,813.0,200.0,53,,2343.699999988079,342237.10000002384,7246,rage,AF,B,341050,341050,339522,340334,339522,341866,340850,340850,341866,79
79,test,1,con,1,z,Thu Nov 20 2025 17:19:49 GMT-0600 (Central Standard Time),347347.0,friend,800,O,z,z,None,1423,1223.0,200.0,25,,2759.699999988079,344587.3000000119,7246,friend,AF,B,343400,343400,341872,342683,341873,344632,343200,343200,344632,80
80,test,1,inc,1,z,Thu Nov 20 2025 17:19:49 GMT-0600 (Central Standard Time),349612.40000003576,napkin,900,O,z,z,None,821,621.0,200.0,62,,2261.400000035763,347351.0,7246,temper,AF,B,346265,346265,344636,345549,344636,346898,346065,346065,346897,81
81,test,1,con,1,z,Thu Nov 20 2025 17:19:49 GMT-0600 (Central Standard Time),352045.2000000477,kind,800,O,z,z,None,1098,899.0,199.0,9,,2427.0,349618.2000000477,7246,kind,AF,B,348431,348431,346903,347716,346903,349330,348232,348232,349330,82
82,test,1,con,1,z,Thu Nov 20 2025 17:19:49 GMT-0600 (Central Standard Time),354577.2000000477,temper,1100,O,z,z,None,892,676.0,216.0,60,,2528.2000000476837,352049.0,7246,temper,AF,B,351180,351180,349334,350447,349334,351862,350964,350964,351862,83
83,test,1,con,1,z,Thu Nov 20 2025 17:19:49 GMT-0600 (Central Standard Time),356859.5,kind,900,O,z,z,None,839,638.0,201.0,10,,2279.0,354580.5,7246,kind,AF,B,353497,353497,351866,352780,351866,354145,353296,353296,354145,84
84,test,1,con,1,m,Thu Nov 20 2025 17:19:49 GMT-0600 (Central Standard Time),359016.90000003576,step,800,O,m,m,None,807,607.0,200.0,65,,2151.800000011921,356865.10000002384,7246,step,AF,B,355679,355679,354150,354962,354150,356302,355479,355479,356302,85
85,test,1,con,1,m,Thu Nov 20 2025 17:19:49 GMT-0600 (Central Standard Time),361542.0,step,1100,O,m,m,None,894,695.0,199.0,68,,2521.0,359021.0,7246,step,AF,B,358128,358128,356306,357411,356306,358827,357929,357929,358827,86
86,test,1,inc,1,z,Thu Nov 20 2025 17:19:49 GMT-0600 (Central Standard Time),364157.5,remote,1000,O,z,z,None,1077,878.0,199.0,7,,2611.7999999523163,361545.7000000477,7246,elated,AF,B,360561,360561,358831,359844,358831,361443,360361,360361,361443,87
87,test,1,inc,1,m,Thu Nov 20 2025 17:19:49 GMT-0600 (Central Standard Time),366692.0,friend,1100,O,m,m,None,889,690.0,199.0,120,,2529.599999964237,364162.40000003576,7246,remote,AF,B,363277,363277,361447,362562,361448,363977,363077,363077,363977,88
88,test,1,inc,1,z,Thu Nov 20 2025 17:19:49 GMT-0600 (Central Standard Time),368990.10000002384,film,1100,O,z,z,None,678,463.0,215.0,24,,2291.800000011921,366698.3000000119,7246,love,AF,B,365809,365809,363983,365092,363983,366275,365594,365594,366275,89
89,test,1,inc,1,z,Thu Nov 20 2025 17:19:49 GMT-0600 (Central Standard Time),371724.7000000477,remote,1000,O,z,z,None,1201,1001.0,200.0,31,,2730.800000011921,368993.90000003576,7246,friend,AF,B,368008,368008,366279,367293,366279,369010,367808,367808,369010,90
90,test,1,inc,1,m,Thu Nov 20 2025 17:19:49 GMT-0600 (Central Standard Time),374071.2000000477,love,1000,O,m,m,None,815,600.0,215.0,87,,2342.7000000476837,371728.5,7246,bell,AF,B,370743,370743,369014,370025,369014,371356,370526,370526,371356,91
91,test,1,inc,1,z,Thu Nov 20 2025 17:19:49 GMT-0600 (Central Standard Time),376621.40000003576,jacket,800,O,z,z,None,1214,1013.0,201.0,61,,2547.0,374074.40000003576,7246,temper,AF,B,372890,372890,371359,372173,371360,373907,372689,372689,373906,92
92,test,1,con,1,m,Thu Nov 20 2025 17:19:49 GMT-0600 (Central Standard Time),379202.8000000119,jacket,1000,O,m,m,None,1039,840.0,199.0,99,,2574.800000011921,376628.0,7246,jacket,AF,B,375639,375639,373913,374923,373913,376488,375439,375439,376488,93
93,test,1,con,1,m,Thu Nov 20 2025 17:19:49 GMT-0600 (Central Standard Time),381805.0,rock,900,O,m,m,None,1168,969.0,199.0,74,,2598.7999999523163,379206.2000000477,7246,rock,AF,B,378105,378105,376491,377404,376491,379090,377905,377905,379090,94
94,test,1,con,1,z,Thu Nov 20 2025 17:19:49 GMT-0600 (Central Standard Time),384037.2000000477,rage,900,O,z,z,None,789,590.0,199.0,50,,2228.100000023842,381809.10000002384,7246,rage,AF,B,380720,380720,379094,380007,379094,381322,380521,380521,381322,95
94,test,1,inc,0,z,Thu Nov 20 2025 17:19:49 GMT-0600 (Central Standard Time),386350.7000000477,window,1100,O,m,m,None,692,493.0,199.0,64,,2307.100000023842,384043.60000002384,7246,temper,AF,B,383138,383138,381329,382438,381329,383636,382939,382939,383636,96
95,test,1,inc,1,m,Thu Nov 20 2025 17:19:49 GMT-0600 (Central Standard Time),388883.8000000119,elated,800,O,m,m,None,1188,988.0,200.0,117,,2529.300000011921,386354.5,7246,remote,AF,B,385171,385171,383640,384453,383640,386169,384970,384970,386169,97
96,test,1,inc,1,m,Thu Nov 20 2025 17:19:49 GMT-0600 (Central Standard Time),391416.10000002384,love,1000,O,m,m,None,992,793.0,199.0,95,,2527.399999976158,388888.7000000477,7246,film,AF,B,387902,387902,386174,387185,386174,388701,387702,387702,388701,98
97,test,1,con,1,z,Thu Nov 20 2025 17:19:49 GMT-0600 (Central Standard Time),393881.60000002384,love,1100,O,z,z,None,824,625.0,199.0,20,,2461.199999988079,391420.40000003576,7246,love,AF,B,390534,390534,388705,389819,388706,391167,390334,390334,391167,99
98,test,1,con,1,z,Thu Nov 20 2025 17:19:49 GMT-0600 (Central Standard Time),396247.90000003576,hate,1000,O,z,z,None,826,623.0,203.0,43,,2362.199999988079,393885.7000000477,7246,hate,AF,B,392903,392903,391171,392184,391171,393533,392700,392700,393533,100
99,test,1,con,1,m,Thu Nov 20 2025 17:19:49 GMT-0600 (Central Standard Time),398646.7000000477,window,1000,O,m,m,None,851,636.0,215.0,123,,2393.7000000476837,396253.0,7246,window,AF,B,395283,395283,393538,394549,393538,395932,395068,395068,395932,101
100,test,1,inc,1,m,Thu Nov 20 2025 17:19:49 GMT-0600 (Central Standard Time),400980.40000003576,kind,900,O,m,m,None,904,705.0,199.0,78,,2330.100000023842,398650.3000000119,7246,rock,AF,B,397550,397550,395935,396849,395936,398265,397350,397350,398265,102
101,test,1,con,1,z,Thu Nov 20 2025 17:19:49 GMT-0600 (Central Standard Time),403229.10000002384,elated,1000,O,z,z,None,702,487.0,215.0,3,,2244.600000023842,400984.5,7246,elated,AF,B,400015,400015,398270,399281,398270,400514,399799,399799,400514,103
102,test,1,inc,1,m,Thu Nov 20 2025 17:19:49 GMT-0600 (Central Standard Time),405396.10000002384,love,1000,O,m,m,None,624,424.0,200.0,79,,2160.800000011921,403235.3000000119,7246,rock,AF,B,402247,402247,400520,401530,400521,402681,402047,402047,402681,104
103,test,1,inc,1,m,Thu Nov 20 2025 17:19:49 GMT-0600 (Central Standard Time),407795.5,hate,1100,O,m,m,None,782,566.0,216.0,96,,2395.099999964237,405400.40000003576,7246,film,AF,B,404514,404514,402685,403796,402686,405081,404298,404298,405080,105
104,test,1,inc,1,z,Thu Nov 20 2025 17:19:49 GMT-0600 (Central Standard Time),409859.0,step,800,O,z,z,None,729,530.0,199.0,13,,2059.599999964237,407799.40000003576,7246,kind,AF,B,406612,406612,405084,405899,405085,407144,406413,406413,407144,106
105,test,1,inc,1,m,Thu Nov 20 2025 17:19:49 GMT-0600 (Central Standard Time),412059.5,brutal,900,O,m,m,None,756,557.0,199.0,102,,2197.199999988079,409862.3000000119,7246,jacket,AF,B,408778,408778,407147,408063,407148,409345,408579,408579,409345,107
106,test,1,con,1,m,Thu Nov 20 2025 17:19:49 GMT-0600 (Central Standard Time),414225.5,window,800,O,m,m,None,818,618.0,200.0,121,,2160.0,412065.5,7246,window,AF,B,410878,410878,409351,410161,409351,411511,410678,410678,411510,108
107,test,1,inc,1,z,Thu Nov 20 2025 17:19:49 GMT-0600 (Central Standard Time),416458.2000000477,remote,1000,O,z,z,None,682,483.0,199.0,39,,2227.800000011921,414230.40000003576,7246,brutal,AF,B,413244,413244,411515,412527,411516,413743,413044,413044,413743,109
108,test,1,inc,1,z,Thu Nov 20 2025 17:19:49 GMT-0600 (Central Standard Time),418757.60000002384,napkin,900,O,z,z,None,877,663.0,214.0,38,,2294.399999976158,416463.2000000477,7246,brutal,AF,B,415376,415376,413748,414659,413749,416043,415161,415161,416043,110
109,test,1,con,1,z,Thu Nov 20 2025 17:19:49 GMT-0600 (Central Standard Time),420890.8000000119,love,900,O,z,z,None,686,474.0,212.0,18,,2129.5,418761.3000000119,7246,love,AF,B,417693,417693,416046,416959,416047,418176,417481,417481,418176,111
110,test,1,con,1,z,Thu Nov 20 2025 17:19:49 GMT-0600 (Central Standard Time),423239.60000002384,elated,1100,O,z,z,None,710,495.0,215.0,4,,2343.600000023842,420896.0,7246,elated,AF,B,420024,420024,418181,419292,418181,420525,419809,419809,420525,112
111,test,1,inc,1,z,Thu Nov 20 2025 17:19:49 GMT-0600 (Central Standard Time),426087.60000002384,rock,900,O,z,z,None,1409,1208.0,201.0,22,,2844.199999988079,423243.40000003576,7246,love,AF,B,422159,422159,420528,421442,420529,423373,421957,421957,423373,113
112,test,1,con,1,m,Thu Nov 20 2025 17:19:49 GMT-0600 (Central Standard Time),428287.3000000119,remote,900,O,m,m,None,767,550.0,217.0,114,,2194.699999988079,426092.60000002384,7246,remote,AF,B,425009,425009,423378,424290,423378,425572,424791,424791,425572,114
113,test,1,con,1,z,Thu Nov 20 2025 17:19:49 GMT-0600 (Central Standard Time),430619.90000003576,hate,900,O,z,z,None,888,686.0,202.0,42,,2326.199999988079,428293.7000000477,7246,hate,AF,B,427209,427209,425579,426490,425579,427905,427006,427006,427905,115
114,test,1,inc,1,m,Thu Nov 20 2025 17:19:49 GMT-0600 (Central Standard Time),432919.90000003576,friend,1100,O,m,m,None,677,462.0,215.0,112,,2295.5,430624.40000003576,7246,napkin,AF,B,429738,429738,427909,429022,427910,430205,429523,429523,430205,116
115,test,1,inc,1,z,Thu Nov 20 2025 17:19:49 GMT-0600 (Central Standard Time),435468.2000000477,film,1100,O,z,z,None,905,705.0,200.0,16,,2544.400000035763,432923.8000000119,7246,kind,AF,B,432037,432037,430209,431320,430209,432753,431837,431837,432753,117
116,test,1,con,1,m,Thu Nov 20 2025 17:19:49 GMT-0600 (Central Standard Time),438100.90000003576,remote,1100,O,m,m,None,1013,813.0,200.0,116,,2628.5,435472.40000003576,7246,remote,AF,B,434570,434570,432757,433869,432758,435386,434370,434370,435386,118
117,test,1,con,1,z,Thu Nov 20 2025 17:19:49 GMT-0600 (Central Standard Time),440452.5,brutal,900,O,z,z,None,924,725.0,199.0,34,,2347.699999988079,438104.8000000119,7246,brutal,AF,B,437002,437002,435390,436302,435390,437738,436803,436803,437738,119
118,test,1,con,1,m,Thu Nov 20 2025 17:19:49 GMT-0600 (Central Standard Time),442733.0,film,800,O,m,m,None,935,721.0,214.0,89,,2277.099999964237,440455.90000003576,7246,film,AF,B,439286,439286,437741,438552,437741,440018,439071,439071,440018,120
119,test,1,inc,1,m,Thu Nov 20 2025 17:19:49 GMT-0600 (Central Standard Time),444832.90000003576,brutal,900,O,m,m,None,663,462.0,201.0,126,,2096.0,442736.90000003576,7246,window,AF,B,441652,441652,440022,440937,440022,442118,441451,441451,442118,121
120,test,1,inc,1,z,Thu Nov 20 2025 17:19:49 GMT-0600 (Central Standard Time),446965.5,step,800,O,z,z,None,787,587.0,200.0,45,,2129.699999988079,444835.8000000119,7246,hate,AF,B,443652,443652,442121,442935,442121,444251,443452,443452,444250,122
121,test,1,inc,1,m,Thu Nov 20 2025 17:19:49 GMT-0600 (Central Standard Time),449280.7000000477,temper,1000,O,m,m,None,777,576.0,201.0,127,,2311.600000023842,446969.10000002384,7246,window,AF,B,445983,445983,444254,445266,444254,446566,445782,445782,446566,123
122,test,1,inc,1,m,Thu Nov 20 2025 17:19:49 GMT-0600 (Central Standard Time),451548.0,elated,800,O,m,m,None,933,717.0,216.0,125,,2261.599999964237,449286.40000003576,7246,window,AF,B,448116,448116,446571,447384,446572,448833,447900,447900,448833,124
123,test,1,con,1,m,Thu Nov 20 2025 17:19:49 GMT-0600 (Central Standard Time),453962.90000003576,film,1100,O,m,m,None,768,558.0,210.0,92,,2410.800000011921,451552.10000002384,7246,film,AF,B,450674,450674,448837,449950,448837,451248,450464,450464,451248,125
124,test,1,inc,1,z,Thu Nov 20 2025 17:19:49 GMT-0600 (Central Standard Time),456529.0,jacket,800,O,z,z,None,1227,1027.0,200.0,29,,2562.899999976158,453966.10000002384,7246,friend,AF,B,452781,452781,451251,452065,451251,453814,452581,452581,453814,126
125,test,1,inc,1,m,Thu Nov 20 2025 17:19:49 GMT-0600 (Central Standard Time),458694.90000003576,temper,1000,O,m,m,None,627,428.0,199.0,103,,2162.800000011921,456532.10000002384,7246,jacket,AF,B,455547,455547,453817,454830,453817,455980,455347,455347,455980,127
126,test,1,con,1,m,Thu Nov 20 2025 17:19:49 GMT-0600 (Central Standard Time),461010.7000000477,bell,900,O,m,m,None,875,675.0,200.0,82,,2311.800000011921,458698.90000003576,7246,bell,AF,B,457614,457614,455984,456896,455984,458296,457414,457414,458296,128
