Q,Q1,Q2,Q3,Q4,acc_sum,block,block_c,correct,correct_response,datetime,endtime,project,response,response_time,row_sel,session_number,squiggle1,squiggle1x,squiggle1y,squiggle2,squiggle2x,squiggle2y,squiggle3,squiggle3x,squiggle3y,squiggle4,squiggle4x,squiggle4y,start_end,starttime,subject_id,target_congruent,task,task_vers,testsquiggle,testsquigglex,testsquiggley,time_practice_delay,time_practice_fixation,time_practice_stimuli,time_practice_study,time_test_delay,time_test_fixation,time_test_stimuli,time_test_study,trial
1,1,0,0,0,1,prac,1,1,z,Fri Aug 02 2024 14:08:09 GMT-0500 (Central Daylight Time),214564.89999985695,O,z,1402,1,1,116.bmp,-120,-120,117.bmp,120,-120,118.bmp,-120,120,119.bmp,120,120,10210.5,204354.39999985695,7005,yes,SM,A,116.bmp,-120,-120,208800,202782,210805,204792,,,,,1
3,0,0,1,0,1,prac,1,0,m,Fri Aug 02 2024 14:08:09 GMT-0500 (Central Daylight Time),225368.0,O,None,2002,2,1,120.bmp,-120,-120,121.bmp,120,-120,122.bmp,-120,120,123.bmp,120,120,10796.299999952316,214571.70000004768,7005,no,SM,A,123.bmp,-120,120,219019,212999,221023,215012,,,,,2
4,0,0,0,1,2,prac,1,1,m,Fri Aug 02 2024 14:08:09 GMT-0500 (Central Daylight Time),235437.79999995232,O,m,1267,3,1,124.bmp,-120,-120,125.bmp,120,-120,126.bmp,-120,120,127.bmp,120,120,10061.900000095367,225375.89999985695,7005,no,SM,A,124.bmp,120,120,229823,223803,231827,225817,,,,,3
2,0,1,0,0,2,prac,1,0,z,Fri Aug 02 2024 14:08:09 GMT-0500 (Central Daylight Time),245924.5,O,m,1677,4,1,128.bmp,-120,-120,129.bmp,120,-120,130.bmp,-120,120,131.bmp,120,120,10478.100000143051,235446.39999985695,7005,yes,SM,A,129.bmp,120,-120,239893,233874,241898,235886,,,,,4
3,0,0,1,0,2,prac,1,0,z,Fri Aug 02 2024 14:08:09 GMT-0500 (Central Daylight Time),256729.20000004768,O,None,2004,5,1,132.bmp,-120,-120,133.bmp,120,-120,134.bmp,-120,120,135.bmp,120,120,10798.600000143051,245930.59999990463,7005,yes,SM,A,134.bmp,-120,120,250380,244358,252384,246373,,,,,5
1,1,0,0,0,3,prac,1,1,m,Fri Aug 02 2024 14:08:09 GMT-0500 (Central Daylight Time),266765.2999999523,O,m,1226,6,1,136.bmp,-120,-120,137.bmp,120,-120,138.bmp,-120,120,139.bmp,120,120,10029.599999904633,256735.70000004768,7005,no,SM,A,139.bmp,-120,-120,261185,255163,263189,257177,,,,,6
2,0,1,0,0,3,prac,1,0,m,Fri Aug 02 2024 14:08:09 GMT-0500 (Central Daylight Time),277552.89999985695,O,None,2002,7,1,140.bmp,-120,-120,141.bmp,120,-120,142.bmp,-120,120,143.bmp,120,120,10779.199999809265,266773.7000000477,7005,no,SM,A,140.bmp,120,-120,271221,265201,273225,267213,,,,,7
4,0,0,0,1,4,prac,1,1,z,Fri Aug 02 2024 14:08:09 GMT-0500 (Central Daylight Time),288073.89999985695,O,z,1714,8,1,144.bmp,-120,-120,145.bmp,120,-120,146.bmp,-120,120,147.bmp,120,120,10513.299999952316,277560.59999990463,7005,yes,SM,A,147.bmp,120,120,282008,275988,284013,278001,,,,,8
4,0,0,0,1,1,test,1,1,m,Fri Aug 02 2024 14:08:09 GMT-0500 (Central Daylight Time),330121.89999985695,O,m,1880,1,1,148.bmp,-120,-120,149.bmp,120,-120,150.bmp,-120,120,143.bmp,120,120,9910.699999809265,320211.2000000477,7005,no,SM,A,150.bmp,120,120,282008,275988,284013,278001,324658.0,318638.0,326662.0,320650.0,1
2,0,1,0,0,2,test,1,1,m,Fri Aug 02 2024 14:08:09 GMT-0500 (Central Daylight Time),339205.89999985695,O,m,1049,2,1,101.bmp,-120,-120,102.bmp,120,-120,103.bmp,-120,120,104.bmp,120,120,9079.599999904633,330126.2999999523,7005,no,SM,A,103.bmp,120,-120,282008,275988,284013,278001,334577.0,328553.0,336582.0,330570.0,2
1,1,0,0,0,3,test,1,1,z,Fri Aug 02 2024 14:08:09 GMT-0500 (Central Daylight Time),349125.5,O,z,1876,3,1,105.bmp,-120,-120,106.bmp,120,-120,107.bmp,-120,120,108.bmp,120,120,9912.900000095367,339212.59999990463,7005,yes,SM,A,105.bmp,-120,-120,282008,275988,284013,278001,343661.0,337640.0,345667.0,339654.0,3
3,0,0,1,0,4,test,1,1,m,Fri Aug 02 2024 14:08:09 GMT-0500 (Central Daylight Time),358359.59999990463,O,m,1197,4,1,109.bmp,-120,-120,110.bmp,120,-120,111.bmp,-120,120,112.bmp,120,120,9226.200000047684,349133.39999985695,7005,no,SM,A,109.bmp,-120,120,282008,275988,284013,278001,353581.0,347561.0,355585.0,349573.0,4
2,0,1,0,0,4,test,1,0,z,Fri Aug 02 2024 14:08:09 GMT-0500 (Central Daylight Time),368396.39999985695,O,None,2002,5,1,113.bmp,-120,-120,114.bmp,120,-120,115.bmp,-120,120,116.bmp,120,120,10031.099999904633,358365.2999999523,7005,yes,SM,A,114.bmp,120,-120,282008,275988,284013,278001,362816.0,356793.0,364821.0,358809.0,5
3,0,0,1,0,5,test,1,1,z,Fri Aug 02 2024 14:08:09 GMT-0500 (Central Daylight Time),377330.2999999523,O,z,894,6,1,117.bmp,-120,-120,118.bmp,120,-120,119.bmp,-120,120,120.bmp,120,120,8926.799999952316,368403.5,7005,yes,SM,A,119.bmp,-120,120,282008,275988,284013,278001,372852.0,366831.0,374857.0,368845.0,6
4,0,0,0,1,6,test,1,1,z,Fri Aug 02 2024 14:08:09 GMT-0500 (Central Daylight Time),386447.89999985695,O,z,1073,7,1,121.bmp,-120,-120,122.bmp,120,-120,123.bmp,-120,120,124.bmp,120,120,9109.799999952316,377338.09999990463,7005,yes,SM,A,124.bmp,120,120,282008,275988,284013,278001,381786.0,375765.0,383790.0,377778.0,7
2,0,1,0,0,7,test,1,1,m,Fri Aug 02 2024 14:08:09 GMT-0500 (Central Daylight Time),396317.0,O,m,1827,8,1,125.bmp,-120,-120,126.bmp,120,-120,127.bmp,-120,120,128.bmp,120,120,9861.799999952316,386455.2000000477,7005,no,SM,A,125.bmp,120,-120,282008,275988,284013,278001,390904.0,384883.0,392908.0,386897.0,8
3,0,0,1,0,8,test,1,1,m,Fri Aug 02 2024 14:08:09 GMT-0500 (Central Daylight Time),406153.09999990463,O,m,1790,9,1,129.bmp,-120,-120,130.bmp,120,-120,131.bmp,-120,120,132.bmp,120,120,9830.0,396323.09999990463,7005,no,SM,A,130.bmp,-120,120,282008,275988,284013,278001,400773.0,394750.0,402777.0,396766.0,9
4,0,0,0,1,9,test,1,1,z,Fri Aug 02 2024 14:08:09 GMT-0500 (Central Daylight Time),415905.09999990463,O,z,1705,10,1,137.bmp,-120,-120,138.bmp,120,-120,139.bmp,-120,120,140.bmp,120,120,9744.399999856949,406160.7000000477,7005,yes,SM,A,140.bmp,120,120,282008,275988,284013,278001,410609.0,404588.0,412613.0,406602.0,10
3,0,0,1,0,9,test,1,0,z,Fri Aug 02 2024 14:08:09 GMT-0500 (Central Daylight Time),424940.0,O,m,986,11,1,133.bmp,-120,-120,134.bmp,120,-120,135.bmp,-120,120,136.bmp,120,120,9028.600000143051,415911.39999985695,7005,yes,SM,A,135.bmp,-120,120,282008,275988,284013,278001,420361.0,414339.0,422366.0,416354.0,11
2,0,1,0,0,10,test,1,1,m,Fri Aug 02 2024 14:08:09 GMT-0500 (Central Daylight Time),434724.89999985695,O,m,1743,12,1,141.bmp,-120,-120,142.bmp,120,-120,143.bmp,-120,120,144.bmp,120,120,9778.599999904633,424946.2999999523,7005,no,SM,A,141.bmp,120,-120,282008,275988,284013,278001,429396.0,423373.0,431400.0,425388.0,12
3,0,0,1,0,11,test,1,1,m,Fri Aug 02 2024 14:08:09 GMT-0500 (Central Daylight Time),444528.0,O,m,1765,13,1,145.bmp,-120,-120,146.bmp,120,-120,147.bmp,-120,120,148.bmp,120,120,9795.700000047684,434732.2999999523,7005,no,SM,A,146.bmp,-120,120,282008,275988,284013,278001,439181.0,433160.0,441186.0,435173.0,13
1,1,0,0,0,12,test,1,1,z,Fri Aug 02 2024 14:08:09 GMT-0500 (Central Daylight Time),453444.89999985695,O,z,883,14,1,149.bmp,-120,-120,150.bmp,120,-120,104.bmp,-120,120,101.bmp,120,120,8910.399999856949,444534.5,7005,yes,SM,A,149.bmp,-120,-120,282008,275988,284013,278001,448983.0,442962.0,450988.0,444976.0,14
4,0,0,0,1,12,test,1,0,m,Fri Aug 02 2024 14:08:09 GMT-0500 (Central Daylight Time),462713.39999985695,O,z,1221,15,1,110.bmp,-120,-120,111.bmp,120,-120,112.bmp,-120,120,113.bmp,120,120,9263.799999952316,453449.59999990463,7005,no,SM,A,111.bmp,120,120,282008,275988,284013,278001,457901.0,451877.0,459905.0,453894.0,15
1,1,0,0,0,12,test,1,0,m,Fri Aug 02 2024 14:08:09 GMT-0500 (Central Daylight Time),472749.39999985695,O,None,2003,16,1,102.bmp,-120,-120,103.bmp,120,-120,104.bmp,-120,120,105.bmp,120,120,10029.799999952316,462719.59999990463,7005,no,SM,A,105.bmp,-120,-120,282008,275988,284013,278001,467169.0,461147.0,469173.0,463161.0,16
3,0,0,1,0,13,test,1,1,m,Fri Aug 02 2024 14:08:09 GMT-0500 (Central Daylight Time),482234.2000000477,O,m,1446,17,1,122.bmp,-120,-120,123.bmp,120,-120,124.bmp,-120,120,125.bmp,120,120,9478.700000047684,472755.5,7005,no,SM,A,122.bmp,-120,120,282008,275988,284013,278001,477205.0,471183.0,479209.0,473199.0,17
1,1,0,0,0,14,test,1,1,z,Fri Aug 02 2024 14:08:09 GMT-0500 (Central Daylight Time),491785.89999985695,O,z,1512,18,1,106.bmp,-120,-120,107.bmp,120,-120,108.bmp,-120,120,109.bmp,120,120,9545.0,482240.89999985695,7005,yes,SM,A,106.bmp,-120,-120,282008,275988,284013,278001,486690.0,480668.0,488695.0,482682.0,18
2,0,1,0,0,15,test,1,1,z,Fri Aug 02 2024 14:08:09 GMT-0500 (Central Daylight Time),500771.0,O,z,944,19,1,126.bmp,-120,-120,127.bmp,120,-120,128.bmp,-120,120,129.bmp,120,120,8979.5,491791.5,7005,yes,SM,A,127.bmp,120,-120,282008,275988,284013,278001,496242.0,490219.0,498247.0,492235.0,19
3,0,0,1,0,16,test,1,1,z,Fri Aug 02 2024 14:08:09 GMT-0500 (Central Daylight Time),510038.7000000477,O,z,1224,20,1,130.bmp,-120,-120,131.bmp,120,-120,132.bmp,-120,120,133.bmp,120,120,9261.5,500777.2000000477,7005,yes,SM,A,132.bmp,-120,120,282008,275988,284013,278001,505226.0,499204.0,507231.0,501218.0,20
1,1,0,0,0,16,test,1,0,m,Fri Aug 02 2024 14:08:09 GMT-0500 (Central Daylight Time),519690.59999990463,O,z,1605,21,1,114.bmp,-120,-120,115.bmp,120,-120,116.bmp,-120,120,117.bmp,120,120,9644.299999952316,510046.2999999523,7005,no,SM,A,116.bmp,-120,-120,282008,275988,284013,278001,514495.0,508474.0,516498.0,510487.0,21
4,0,0,0,1,17,test,1,1,z,Fri Aug 02 2024 14:08:09 GMT-0500 (Central Daylight Time),529192.7000000477,O,z,1463,22,1,118.bmp,-120,-120,119.bmp,120,-120,120.bmp,-120,120,121.bmp,120,120,9495.100000143051,519697.59999990463,7005,yes,SM,A,121.bmp,120,120,282008,275988,284013,278001,524147.0,518125.0,526151.0,520139.0,22
1,1,0,0,0,18,test,1,1,m,Fri Aug 02 2024 14:08:09 GMT-0500 (Central Daylight Time),538693.7000000477,O,m,1465,23,1,134.bmp,-120,-120,135.bmp,120,-120,136.bmp,-120,120,137.bmp,120,120,9495.800000190735,529197.899999857,7005,no,SM,A,137.bmp,-120,-120,282008,275988,284013,278001,533648.0,527625.0,535653.0,529641.0,23
2,0,1,0,0,19,test,1,1,z,Fri Aug 02 2024 14:08:09 GMT-0500 (Central Daylight Time),548496.399999857,O,z,1764,24,1,142.bmp,-120,-120,143.bmp,120,-120,144.bmp,-120,120,145.bmp,120,120,9797.699999809265,538698.7000000477,7005,yes,SM,A,143.bmp,120,-120,282008,275988,284013,278001,543150.0,537126.0,545155.0,539142.0,24
4,0,0,0,1,20,test,1,1,m,Fri Aug 02 2024 14:08:09 GMT-0500 (Central Daylight Time),557881.899999857,O,m,1338,25,1,146.bmp,-120,-120,147.bmp,120,-120,148.bmp,-120,120,149.bmp,120,120,9379.699999809265,548502.2000000477,7005,no,SM,A,148.bmp,120,120,282008,275988,284013,278001,552953.0,546929.0,554957.0,548945.0,25
1,1,0,0,0,21,test,1,1,z,Fri Aug 02 2024 14:08:09 GMT-0500 (Central Daylight Time),567016.399999857,O,z,1098,26,1,138.bmp,-120,-120,139.bmp,120,-120,140.bmp,-120,120,141.bmp,120,120,9125.399999856949,557891.0,7005,yes,SM,A,138.bmp,-120,-120,282008,275988,284013,278001,562337.0,556318.0,564341.0,558330.0,26
4,0,0,0,1,21,test,1,0,z,Fri Aug 02 2024 14:08:09 GMT-0500 (Central Daylight Time),577052.7000000477,O,None,2004,27,1,150.bmp,-120,-120,111.bmp,120,-120,101.bmp,-120,120,102.bmp,120,120,10028.200000047684,567024.5,7005,yes,SM,A,102.bmp,120,120,282008,275988,284013,278001,571472.0,565452.0,573476.0,567464.0,27
3,0,0,1,0,22,test,1,1,m,Fri Aug 02 2024 14:08:09 GMT-0500 (Central Daylight Time),586254.5999999046,O,m,1166,28,1,103.bmp,-120,-120,104.bmp,120,-120,105.bmp,-120,120,106.bmp,120,120,9193.399999856949,577061.2000000477,7005,no,SM,A,103.bmp,-120,120,282008,275988,284013,278001,581508.0,575489.0,583513.0,577501.0,28
2,0,1,0,0,23,test,1,1,z,Fri Aug 02 2024 14:08:09 GMT-0500 (Central Daylight Time),595588.399999857,O,z,1302,29,1,107.bmp,-120,-120,108.bmp,120,-120,109.bmp,-120,120,110.bmp,120,120,9326.0,586262.399999857,7005,yes,SM,A,108.bmp,120,-120,282008,275988,284013,278001,590709.0,584690.0,592713.0,586702.0,29
3,0,0,1,0,24,test,1,1,z,Fri Aug 02 2024 14:08:09 GMT-0500 (Central Daylight Time),604639.899999857,O,z,1007,30,1,111.bmp,-120,-120,112.bmp,120,-120,113.bmp,-120,120,114.bmp,120,120,9045.099999904633,595594.7999999523,7005,yes,SM,A,113.bmp,-120,120,282008,275988,284013,278001,600045.0,594022.0,602048.0,596037.0,30
1,1,0,0,0,25,test,1,1,z,Fri Aug 02 2024 14:08:09 GMT-0500 (Central Daylight Time),613924.399999857,O,z,1243,31,1,115.bmp,-120,-120,116.bmp,120,-120,117.bmp,-120,120,118.bmp,120,120,9277.299999952316,604647.0999999046,7005,yes,SM,A,115.bmp,-120,-120,282008,275988,284013,278001,609095.0,603075.0,611100.0,605088.0,31
2,0,1,0,0,26,test,1,1,m,Fri Aug 02 2024 14:08:09 GMT-0500 (Central Daylight Time),623208.899999857,O,m,1239,32,1,119.bmp,-120,-120,120.bmp,120,-120,121.bmp,-120,120,122.bmp,120,120,9276.799999952316,613932.0999999046,7005,no,SM,A,119.bmp,120,-120,282008,275988,284013,278001,618381.0,612360.0,620384.0,614371.0,32
4,0,0,0,1,27,test,1,1,z,Fri Aug 02 2024 14:08:09 GMT-0500 (Central Daylight Time),632560.2999999523,O,z,1306,33,1,131.bmp,-120,-120,132.bmp,120,-120,133.bmp,-120,120,134.bmp,120,120,9343.599999904633,623216.7000000477,7005,yes,SM,A,134.bmp,120,120,282008,275988,284013,278001,627664.0,621644.0,629669.0,623657.0,33
2,0,1,0,0,28,test,1,1,z,Fri Aug 02 2024 14:08:09 GMT-0500 (Central Daylight Time),641778.2000000477,O,z,1170,34,1,123.bmp,-120,-120,124.bmp,120,-120,125.bmp,-120,120,126.bmp,120,120,9211.300000190735,632566.899999857,7005,yes,SM,A,124.bmp,120,-120,282008,275988,284013,278001,637016.0,630994.0,639020.0,633009.0,34
4,0,0,0,1,29,test,1,1,m,Fri Aug 02 2024 14:08:09 GMT-0500 (Central Daylight Time),650996.5,O,m,1176,35,1,127.bmp,-120,-120,128.bmp,120,-120,129.bmp,-120,120,130.bmp,120,120,9212.100000143051,641784.399999857,7005,no,SM,A,129.bmp,120,120,282008,275988,284013,278001,646234.0,640212.0,648239.0,642226.0,35
3,0,0,1,0,29,test,1,0,m,Fri Aug 02 2024 14:08:09 GMT-0500 (Central Daylight Time),660414.2000000477,O,z,1382,36,1,135.bmp,-120,-120,136.bmp,120,-120,137.bmp,-120,120,138.bmp,120,120,9411.400000095367,651002.7999999523,7005,no,SM,A,135.bmp,-120,120,282008,275988,284013,278001,655452.0,649430.0,657456.0,651445.0,36
1,1,0,0,0,30,test,1,1,m,Fri Aug 02 2024 14:08:09 GMT-0500 (Central Daylight Time),669616.0,O,m,1156,37,1,139.bmp,-120,-120,140.bmp,120,-120,141.bmp,-120,120,142.bmp,120,120,9194.799999952316,660421.2000000477,7005,no,SM,A,140.bmp,-120,-120,282008,275988,284013,278001,664870.0,658849.0,666875.0,660863.0,37
2,0,1,0,0,31,test,1,1,m,Fri Aug 02 2024 14:08:09 GMT-0500 (Central Daylight Time),679301.0999999046,O,m,1651,38,1,143.bmp,-120,-120,144.bmp,120,-120,145.bmp,-120,120,146.bmp,120,120,9677.5,669623.5999999046,7005,no,SM,A,145.bmp,120,-120,282008,275988,284013,278001,674072.0,668051.0,676076.0,670064.0,38
4,0,0,0,1,32,test,1,1,z,Fri Aug 02 2024 14:08:09 GMT-0500 (Central Daylight Time),688769.7999999523,O,z,1420,39,1,147.bmp,-120,-120,148.bmp,120,-120,149.bmp,-120,120,150.bmp,120,120,9463.599999904633,679306.2000000477,7005,yes,SM,A,150.bmp,120,120,282008,275988,284013,278001,683757.0,677734.0,685762.0,679750.0,39
3,0,0,1,0,33,test,1,1,m,Fri Aug 02 2024 14:08:09 GMT-0500 (Central Daylight Time),698254.7999999523,O,m,1440,40,1,104.bmp,-120,-120,105.bmp,120,-120,106.bmp,-120,120,107.bmp,120,120,9477.700000047684,688777.0999999046,7005,no,SM,A,105.bmp,-120,120,282008,275988,284013,278001,693225.0,687204.0,695229.0,689218.0,40
1,1,0,0,0,34,test,1,1,z,Fri Aug 02 2024 14:08:09 GMT-0500 (Central Daylight Time),707039.0,O,z,740,41,1,108.bmp,-120,-120,109.bmp,120,-120,110.bmp,-120,120,111.bmp,120,120,8777.799999952316,698261.2000000477,7005,yes,SM,A,108.bmp,-120,-120,282008,275988,284013,278001,702711.0,696688.0,704715.0,698704.0,41
4,0,0,0,1,35,test,1,1,z,Fri Aug 02 2024 14:08:09 GMT-0500 (Central Daylight Time),716607.0,O,z,1523,42,1,112.bmp,-120,-120,113.bmp,120,-120,114.bmp,-120,120,115.bmp,120,120,9561.400000095367,707045.5999999046,7005,yes,SM,A,115.bmp,120,120,282008,275988,284013,278001,711494.0,705473.0,713499.0,707487.0,42
1,1,0,0,0,35,test,1,0,z,Fri Aug 02 2024 14:08:09 GMT-0500 (Central Daylight Time),726192.0999999046,O,m,1540,43,1,116.bmp,-120,-120,117.bmp,120,-120,118.bmp,-120,120,119.bmp,120,120,9577.599999904633,716614.5,7005,yes,SM,A,116.bmp,-120,-120,282008,275988,284013,278001,721063.0,715042.0,723067.0,717056.0,43
4,0,0,0,1,36,test,1,1,m,Fri Aug 02 2024 14:08:09 GMT-0500 (Central Daylight Time),735494.0999999046,O,m,1283,44,1,104.bmp,-120,-120,101.bmp,120,-120,102.bmp,-120,120,103.bmp,120,120,9298.399999856949,726195.7000000477,7005,no,SM,A,104.bmp,120,120,282008,275988,284013,278001,730632.0,724623.0,732636.0,726625.0,44
1,1,0,0,0,37,test,1,1,m,Fri Aug 02 2024 14:08:09 GMT-0500 (Central Daylight Time),744478.2000000477,O,m,941,45,1,128.bmp,-120,-120,129.bmp,120,-120,130.bmp,-120,120,131.bmp,120,120,8978.600000143051,735499.5999999046,7005,no,SM,A,131.bmp,-120,-120,282008,275988,284013,278001,739951.0,733927.0,741954.0,735942.0,45
1,1,0,0,0,38,test,1,1,m,Fri Aug 02 2024 14:08:09 GMT-0500 (Central Daylight Time),753962.7999999523,O,m,1437,46,1,120.bmp,-120,-120,121.bmp,120,-120,122.bmp,-120,120,123.bmp,120,120,9478.400000095367,744484.399999857,7005,no,SM,A,121.bmp,-120,-120,282008,275988,284013,278001,748934.0,742912.0,750938.0,744927.0,46
3,0,0,1,0,39,test,1,1,z,Fri Aug 02 2024 14:08:09 GMT-0500 (Central Daylight Time),763615.7000000477,O,z,1608,47,1,124.bmp,-120,-120,125.bmp,120,-120,126.bmp,-120,120,127.bmp,120,120,9645.300000190735,753970.399999857,7005,yes,SM,A,126.bmp,-120,120,282008,275988,284013,278001,758420.0,752398.0,760423.0,754412.0,47
3,0,0,1,0,40,test,1,1,z,Fri Aug 02 2024 14:08:09 GMT-0500 (Central Daylight Time),772850.5,O,z,1187,48,1,140.bmp,-120,-120,141.bmp,120,-120,142.bmp,-120,120,143.bmp,120,120,9228.0,763622.5,7005,yes,SM,A,142.bmp,-120,120,282008,275988,284013,278001,768071.0,762050.0,770075.0,764064.0,48
2,0,1,0,0,41,test,1,1,z,Fri Aug 02 2024 14:08:09 GMT-0500 (Central Daylight Time),782135.2999999523,O,z,1249,49,1,136.bmp,-120,-120,137.bmp,120,-120,138.bmp,-120,120,139.bmp,120,120,9275.700000047684,772859.5999999046,7005,yes,SM,A,137.bmp,120,-120,282008,275988,284013,278001,777306.0,771287.0,779310.0,773299.0,49
3,0,0,1,0,41,test,1,0,m,Fri Aug 02 2024 14:08:09 GMT-0500 (Central Daylight Time),792171.2000000477,O,None,2003,50,1,132.bmp,-120,-120,133.bmp,120,-120,134.bmp,-120,120,135.bmp,120,120,10029.5,782141.7000000477,7005,no,SM,A,132.bmp,-120,120,282008,275988,284013,278001,786591.0,780569.0,788595.0,782583.0,50
2,0,1,0,0,42,test,1,1,z,Fri Aug 02 2024 14:08:09 GMT-0500 (Central Daylight Time),801105.0,O,z,888,51,1,144.bmp,-120,-120,145.bmp,120,-120,146.bmp,-120,120,147.bmp,120,120,8925.5,792179.5,7005,yes,SM,A,145.bmp,120,-120,282008,275988,284013,278001,796628.0,790607.0,798631.0,792619.0,51
4,0,0,0,1,43,test,1,1,m,Fri Aug 02 2024 14:08:09 GMT-0500 (Central Daylight Time),810790.399999857,O,m,1641,52,1,148.bmp,-120,-120,149.bmp,120,-120,150.bmp,-120,120,131.bmp,120,120,9680.699999809265,801109.7000000477,7005,no,SM,A,148.bmp,120,120,282008,275988,284013,278001,805561.0,799537.0,807565.0,801554.0,52
3,0,0,1,0,44,test,1,1,z,Fri Aug 02 2024 14:08:09 GMT-0500 (Central Daylight Time),819424.399999857,O,z,596,53,1,101.bmp,-120,-120,102.bmp,120,-120,103.bmp,-120,120,104.bmp,120,120,8627.699999809265,810796.7000000477,7005,yes,SM,A,103.bmp,-120,120,282008,275988,284013,278001,815247.0,809224.0,817251.0,811238.0,53
1,1,0,0,0,44,test,1,0,m,Fri Aug 02 2024 14:08:09 GMT-0500 (Central Daylight Time),829076.399999857,O,z,1603,54,1,105.bmp,-120,-120,106.bmp,120,-120,107.bmp,-120,120,108.bmp,120,120,9645.199999809265,819431.2000000477,7005,no,SM,A,107.bmp,-120,-120,282008,275988,284013,278001,823879.0,817858.0,825884.0,819872.0,54
4,0,0,0,1,45,test,1,1,z,Fri Aug 02 2024 14:08:09 GMT-0500 (Central Daylight Time),838143.7000000477,O,z,1031,55,1,109.bmp,-120,-120,110.bmp,120,-120,111.bmp,-120,120,112.bmp,120,120,9060.600000143051,829083.0999999046,7005,yes,SM,A,112.bmp,120,120,282008,275988,284013,278001,833532.0,827510.0,835536.0,829525.0,55
2,0,1,0,0,45,test,1,0,m,Fri Aug 02 2024 14:08:09 GMT-0500 (Central Daylight Time),847446.0999999046,O,z,1259,56,1,113.bmp,-120,-120,114.bmp,120,-120,115.bmp,-120,120,116.bmp,120,120,9296.799999952316,838149.2999999523,7005,no,SM,A,113.bmp,120,-120,282008,275988,284013,278001,842600.0,836577.0,844604.0,838592.0,56
4,0,0,0,1,46,test,1,1,m,Fri Aug 02 2024 14:08:09 GMT-0500 (Central Daylight Time),856997.0999999046,O,m,1509,57,1,117.bmp,-120,-120,118.bmp,120,-120,119.bmp,-120,120,120.bmp,120,120,9544.700000047684,847452.399999857,7005,no,SM,A,118.bmp,120,120,282008,275988,284013,278001,851901.0,845880.0,853906.0,847894.0,57
3,0,0,1,0,47,test,1,1,z,Fri Aug 02 2024 14:08:09 GMT-0500 (Central Daylight Time),866364.899999857,O,z,1325,58,1,121.bmp,-120,-120,122.bmp,120,-120,123.bmp,-120,120,124.bmp,120,120,9361.199999809265,857003.7000000477,7005,yes,SM,A,123.bmp,-120,120,282008,275988,284013,278001,861453.0,855431.0,863458.0,857445.0,58
2,0,1,0,0,48,test,1,1,m,Fri Aug 02 2024 14:08:09 GMT-0500 (Central Daylight Time),876167.899999857,O,m,1765,59,1,125.bmp,-120,-120,126.bmp,120,-120,127.bmp,-120,120,128.bmp,120,120,9797.5,866370.399999857,7005,no,SM,A,128.bmp,120,-120,282008,275988,284013,278001,870823.0,864798.0,872825.0,866814.0,59
1,1,0,0,0,49,test,1,1,z,Fri Aug 02 2024 14:08:09 GMT-0500 (Central Daylight Time),884984.899999857,O,z,780,60,1,129.bmp,-120,-120,130.bmp,120,-120,131.bmp,-120,120,132.bmp,120,120,8811.0,876173.899999857,7005,yes,SM,A,129.bmp,-120,-120,282008,275988,284013,278001,880623.0,874601.0,882627.0,876616.0,60
2,0,1,0,0,49,test,1,0,z,Fri Aug 02 2024 14:08:09 GMT-0500 (Central Daylight Time),894169.899999857,O,m,1138,61,1,133.bmp,-120,-120,134.bmp,120,-120,135.bmp,-120,120,136.bmp,120,120,9177.599999904633,884992.2999999523,7005,yes,SM,A,134.bmp,120,-120,282008,275988,284013,278001,889441.0,883419.0,891445.0,885433.0,61
4,0,0,0,1,49,test,1,0,z,Fri Aug 02 2024 14:08:09 GMT-0500 (Central Daylight Time),903520.5,O,m,1313,62,1,141.bmp,-120,-120,142.bmp,120,-120,143.bmp,-120,120,144.bmp,120,120,9347.100000143051,894173.399999857,7005,yes,SM,A,144.bmp,120,120,282008,275988,284013,278001,898625.0,892601.0,900629.0,894618.0,62
1,1,0,0,0,49,test,1,0,m,Fri Aug 02 2024 14:08:09 GMT-0500 (Central Daylight Time),912388.5,O,z,835,63,1,145.bmp,-120,-120,146.bmp,120,-120,147.bmp,-120,120,148.bmp,120,120,8862.100000143051,903526.399999857,7005,no,SM,A,145.bmp,-120,120,282008,275988,284013,278001,907977.0,901954.0,909980.0,903969.0,63
2,0,1,0,0,49,test,1,0,z,Fri Aug 02 2024 14:08:09 GMT-0500 (Central Daylight Time),921439.7999999523,O,m,1007,64,1,149.bmp,-120,-120,150.bmp,120,-120,112.bmp,-120,120,101.bmp,120,120,9043.799999952316,912396.0,7005,yes,SM,A,150.bmp,120,-120,282008,275988,284013,278001,916844.0,910823.0,918848.0,912837.0,64
4,0,0,0,1,50,test,1,1,m,Fri Aug 02 2024 14:08:09 GMT-0500 (Central Daylight Time),930289.5999999046,O,m,812,65,1,102.bmp,-120,-120,103.bmp,120,-120,104.bmp,-120,120,105.bmp,120,120,8842.099999904633,921447.5,7005,no,SM,A,104.bmp,120,120,282008,275988,284013,278001,925895.0,919875.0,927899.0,921887.0,65
3,0,0,1,0,51,test,1,1,m,Fri Aug 02 2024 14:08:09 GMT-0500 (Central Daylight Time),939341.0999999046,O,m,1009,66,1,106.bmp,-120,-120,107.bmp,120,-120,108.bmp,-120,120,109.bmp,120,120,9046.200000047684,930294.899999857,7005,no,SM,A,109.bmp,-120,120,282008,275988,284013,278001,934745.0,928722.0,936750.0,930738.0,66
2,0,1,0,0,52,test,1,1,m,Fri Aug 02 2024 14:08:09 GMT-0500 (Central Daylight Time),948709.2999999523,O,m,1326,67,1,137.bmp,-120,-120,138.bmp,120,-120,139.bmp,-120,120,140.bmp,120,120,9361.799999952316,939347.5,7005,no,SM,A,139.bmp,120,-120,282008,275988,284013,278001,943796.0,937775.0,945801.0,939789.0,67
3,0,0,1,0,53,test,1,1,z,Fri Aug 02 2024 14:08:09 GMT-0500 (Central Daylight Time),957910.2000000477,O,z,1158,68,1,110.bmp,-120,-120,111.bmp,120,-120,112.bmp,-120,120,113.bmp,120,120,9194.700000047684,948715.5,7005,yes,SM,A,112.bmp,-120,120,282008,275988,284013,278001,953165.0,947143.0,955169.0,949157.0,68
1,1,0,0,0,54,test,1,1,m,Fri Aug 02 2024 14:08:09 GMT-0500 (Central Daylight Time),966846.2999999523,O,m,884,69,1,114.bmp,-120,-120,115.bmp,120,-120,116.bmp,-120,120,117.bmp,120,120,8929.599999904633,957916.7000000477,7005,no,SM,A,115.bmp,-120,-120,282008,275988,284013,278001,962366.0,956344.0,964371.0,958359.0,69
2,0,1,0,0,54,test,1,0,m,Fri Aug 02 2024 14:08:09 GMT-0500 (Central Daylight Time),976663.5999999046,O,z,1775,70,1,118.bmp,-120,-120,119.bmp,120,-120,120.bmp,-120,120,121.bmp,120,120,9811.200000047684,966852.399999857,7005,no,SM,A,120.bmp,120,-120,282008,275988,284013,278001,971301.0,965280.0,973304.0,967293.0,70
4,0,0,0,1,54,test,1,0,z,Fri Aug 02 2024 14:08:09 GMT-0500 (Central Daylight Time),986466.399999857,O,m,1763,71,1,122.bmp,-120,-120,123.bmp,120,-120,124.bmp,-120,120,125.bmp,120,120,9795.399999856949,976671.0,7005,yes,SM,A,125.bmp,120,120,282008,275988,284013,278001,981119.0,975098.0,983124.0,977111.0,71
1,1,0,0,0,55,test,1,1,z,Fri Aug 02 2024 14:08:09 GMT-0500 (Central Daylight Time),995667.2999999523,O,z,1162,72,1,126.bmp,-120,-120,127.bmp,120,-120,128.bmp,-120,120,129.bmp,120,120,9194.599999904633,986472.7000000477,7005,yes,SM,A,126.bmp,-120,-120,282008,275988,284013,278001,990922.0,984900.0,992925.0,986914.0,72
2,0,1,0,0,55,test,1,0,z,Fri Aug 02 2024 14:08:09 GMT-0500 (Central Daylight Time),1004801.5,O,m,1096,73,1,130.bmp,-120,-120,131.bmp,120,-120,132.bmp,-120,120,133.bmp,120,120,9126.799999952316,995674.7000000477,7005,yes,SM,A,131.bmp,120,-120,282008,275988,284013,278001,1000122.0,994102.0,1002127.0,996116.0,73
4,0,0,0,1,56,test,1,1,m,Fri Aug 02 2024 14:08:09 GMT-0500 (Central Daylight Time),1013836.0999999046,O,m,1001,74,1,134.bmp,-120,-120,135.bmp,120,-120,136.bmp,-120,120,137.bmp,120,120,9027.899999856949,1004808.2000000477,7005,no,SM,A,136.bmp,120,120,282008,275988,284013,278001,1009258.0,1003236.0,1011262.0,1005250.0,74
2,0,1,0,0,57,test,1,1,m,Fri Aug 02 2024 14:08:09 GMT-0500 (Central Daylight Time),1023070.7000000477,O,m,1199,75,1,138.bmp,-120,-120,139.bmp,120,-120,140.bmp,-120,120,141.bmp,120,120,9227.100000143051,1013843.5999999046,7005,no,SM,A,141.bmp,120,-120,282008,275988,284013,278001,1018292.0,1012271.0,1020296.0,1014284.0,75
1,1,0,0,0,58,test,1,1,z,Fri Aug 02 2024 14:08:09 GMT-0500 (Central Daylight Time),1031920.899999857,O,z,804,76,1,142.bmp,-120,-120,143.bmp,120,-120,144.bmp,-120,120,145.bmp,120,120,8843.099999904633,1023077.7999999523,7005,yes,SM,A,142.bmp,-120,-120,282008,275988,284013,278001,1027526.0,1021505.0,1029531.0,1023519.0,76
3,0,0,1,0,58,test,1,0,z,Fri Aug 02 2024 14:08:09 GMT-0500 (Central Daylight Time),1041356.0,O,m,1394,77,1,150.bmp,-120,-120,111.bmp,120,-120,101.bmp,-120,120,102.bmp,120,120,9427.600000143051,1031928.399999857,7005,yes,SM,A,101.bmp,-120,120,282008,275988,284013,278001,1036377.0,1030356.0,1038381.0,1032369.0,77
1,1,0,0,0,59,test,1,1,m,Fri Aug 02 2024 14:08:09 GMT-0500 (Central Daylight Time),1050674.2000000477,O,m,1277,78,1,146.bmp,-120,-120,147.bmp,120,-120,148.bmp,-120,120,149.bmp,120,120,9310.5,1041363.7000000477,7005,no,SM,A,147.bmp,-120,-120,282008,275988,284013,278001,1045812.0,1039791.0,1047816.0,1041804.0,78
4,0,0,0,1,60,test,1,1,m,Fri Aug 02 2024 14:08:09 GMT-0500 (Central Daylight Time),1059892.2000000477,O,m,1184,79,1,107.bmp,-120,-120,108.bmp,120,-120,109.bmp,-120,120,110.bmp,120,120,9210.900000095367,1050681.2999999523,7005,no,SM,A,107.bmp,120,120,282008,275988,284013,278001,1055130.0,1049108.0,1057135.0,1051124.0,79
3,0,0,1,0,61,test,1,1,m,Fri Aug 02 2024 14:08:09 GMT-0500 (Central Daylight Time),1069510.7000000477,O,m,1574,80,1,103.bmp,-120,-120,104.bmp,120,-120,105.bmp,-120,120,106.bmp,120,120,9611.200000047684,1059899.5,7005,no,SM,A,106.bmp,-120,120,282008,275988,284013,278001,1064347.0,1058327.0,1066353.0,1060340.0,80
