acc_sum,block,block_c,block_cond,con_img,correct,correct_response,datetime,endtime,face,jitter,line,project,response,response_time,row_sel,session_number,start_end,starttime,subject_id,task,task_vers,trial
1,prac,1,A,haborder.png,1,z,Tue Mar 24 2026 09:55:30 GMT-0500 (Central Daylight Time),17037.599999904633,CFD-WF-037-016-A.jpg,1600,solid,O,z,992,10,1,3381.5,13656.099999904633,7773,ATS,C,1
2,prac,1,A,haborder.png,1,m,Tue Mar 24 2026 09:55:30 GMT-0500 (Central Daylight Time),20188.200000047684,CFD-BM-022-004-HC.jpg,1500,solid,O,m,879,3,1,6532.100000143051,13656.099999904633,7773,ATS,C,2
2,prac,1,A,haborder.png,0,z,Tue Mar 24 2026 09:55:30 GMT-0500 (Central Daylight Time),23637.200000047684,CFD-BM-043-014-A.jpg,1600,solid,O,m,1067,2,1,9981.100000143051,13656.099999904633,7773,ATS,C,3
2,prac,1,A,haborder.png,0,m,Tue Mar 24 2026 09:55:30 GMT-0500 (Central Daylight Time),26568.89999985695,CFD-BF-019-004-HC.jpg,2000,solid,O,z,139,5,1,12912.799999952316,13656.099999904633,7773,ATS,C,4
2,prac,1,A,haborder.png,0,m,Tue Mar 24 2026 09:55:30 GMT-0500 (Central Daylight Time),28901.099999904633,CFD-WM-028-005-HC.jpg,1400,solid,O,z,145,7,1,15245.0,13656.099999904633,7773,ATS,C,5
3,prac,1,A,haborder.png,1,z,Tue Mar 24 2026 09:55:30 GMT-0500 (Central Daylight Time),31667.39999985695,CFD-WM-036-018-A.jpg,1900,solid,O,z,73,8,1,18011.299999952316,13656.099999904633,7773,ATS,C,6
4,prac,1,A,haborder.png,1,m,Tue Mar 24 2026 09:55:30 GMT-0500 (Central Daylight Time),34716.299999952316,CFD-BM-034-035-HC.jpg,1700,solid,O,m,561,1,1,21060.200000047684,13656.099999904633,7773,ATS,C,7
5,prac,1,A,haborder.png,1,m,Tue Mar 24 2026 09:55:30 GMT-0500 (Central Daylight Time),37781.39999985695,CFD-WM-035-036-HC.jpg,1700,solid,O,m,570,9,1,24125.299999952316,13656.099999904633,7773,ATS,C,8
6,prac,1,A,haborder.png,1,z,Tue Mar 24 2026 09:55:30 GMT-0500 (Central Daylight Time),40463.39999985695,CFD-BF-002-018-A.jpg,1200,solid,O,z,700,6,1,26807.299999952316,13656.099999904633,7773,ATS,C,9
7,prac,1,A,haborder.png,1,z,Tue Mar 24 2026 09:55:30 GMT-0500 (Central Daylight Time),42964.5,CFD-BF-031-020-A.jpg,1000,solid,O,z,721,4,1,29308.400000095367,13656.099999904633,7773,ATS,C,10
8,prac,1,A,haborder.png,1,m,Tue Mar 24 2026 09:55:30 GMT-0500 (Central Daylight Time),45896.700000047684,CFD-WF-013-009-HC.jpg,1500,solid,O,m,642,11,1,32240.60000014305,13656.099999904633,7773,ATS,C,11
9,prac,1,A,haborder.png,1,z,Tue Mar 24 2026 09:55:30 GMT-0500 (Central Daylight Time),48479.200000047684,CFD-WF-023-013-A.jpg,1000,solid,O,z,793,12,1,34823.10000014305,13656.099999904633,7773,ATS,C,12
1,prac,1,B,mfborder.png,1,z,Tue Mar 24 2026 09:55:30 GMT-0500 (Central Daylight Time),58941.59999990463,CFD-BF-031-020-A.jpg,1000,4,O,z,994,dash,1,2765.7000000476837,56175.89999985695,7773,ATS,C,1
2,prac,1,B,mfborder.png,1,z,Tue Mar 24 2026 09:55:30 GMT-0500 (Central Daylight Time),61375.39999985695,CFD-WF-013-009-HC.jpg,1000,12,O,z,634,dash,1,5199.5,56175.89999985695,7773,ATS,C,2
3,prac,1,B,mfborder.png,1,z,Tue Mar 24 2026 09:55:30 GMT-0500 (Central Daylight Time),64225.0,CFD-WF-037-016-A.jpg,1500,11,O,z,560,dash,1,8049.100000143051,56175.89999985695,7773,ATS,C,3
4,prac,1,B,mfborder.png,1,m,Tue Mar 24 2026 09:55:30 GMT-0500 (Central Daylight Time),67122.20000004768,CFD-WM-035-036-HC.jpg,1600,10,O,m,515,dash,1,10946.300000190735,56175.89999985695,7773,ATS,C,4
5,prac,1,B,mfborder.png,1,m,Tue Mar 24 2026 09:55:30 GMT-0500 (Central Daylight Time),70038.39999985695,CFD-BM-021-026-A.jpg,1600,2,O,m,517,dash,1,13862.5,56175.89999985695,7773,ATS,C,5
6,prac,1,B,mfborder.png,1,m,Tue Mar 24 2026 09:55:30 GMT-0500 (Central Daylight Time),73120.59999990463,CFD-WM-036-018-A.jpg,1700,9,O,m,600,dash,1,16944.700000047684,56175.89999985695,7773,ATS,C,6
7,prac,1,B,mfborder.png,1,m,Tue Mar 24 2026 09:55:30 GMT-0500 (Central Daylight Time),76619.79999995232,CFD-BM-043-014-A.jpg,2000,5,O,m,713,dash,1,20443.900000095367,56175.89999985695,7773,ATS,C,7
8,prac,1,B,mfborder.png,1,z,Tue Mar 24 2026 09:55:30 GMT-0500 (Central Daylight Time),79637.29999995232,CFD-BF-019-004-HC.jpg,1400,7,O,z,836,dash,1,23461.400000095367,56175.89999985695,7773,ATS,C,8
9,prac,1,B,mfborder.png,1,m,Tue Mar 24 2026 09:55:30 GMT-0500 (Central Daylight Time),82218.0,CFD-WM-034-040-A.jpg,1200,6,O,m,606,dash,1,26042.10000014305,56175.89999985695,7773,ATS,C,9
10,prac,1,B,mfborder.png,1,z,Tue Mar 24 2026 09:55:30 GMT-0500 (Central Daylight Time),85816.5,CFD-WF-001-010-HC.jpg,1900,8,O,z,899,dash,1,29640.60000014305,56175.89999985695,7773,ATS,C,10
11,prac,1,B,mfborder.png,1,z,Tue Mar 24 2026 09:55:30 GMT-0500 (Central Daylight Time),89315.70000004768,CFD-BF-042-031-HC.jpg,1500,3,O,z,1205,dash,1,33139.800000190735,56175.89999985695,7773,ATS,C,11
12,prac,1,B,mfborder.png,1,m,Tue Mar 24 2026 09:55:30 GMT-0500 (Central Daylight Time),92397.0,CFD-BM-022-004-HC.jpg,1700,1,O,m,593,dash,1,36221.10000014305,56175.89999985695,7773,ATS,C,12
1,test,1,A,haborder.png,1,m,Tue Mar 24 2026 09:55:30 GMT-0500 (Central Daylight Time),135584.59999990463,CFD-WM-035-036-HC.jpg,1700,solid,O,m,677,9,1,2398.899999856949,133185.70000004768,7773,ATS,C,1
2,test,1,A,haborder.png,1,m,Tue Mar 24 2026 09:55:30 GMT-0500 (Central Daylight Time),137816.29999995232,CFD-WM-035-036-HC.jpg,1700,solid,O,m,509,9,1,4630.599999904633,133185.70000004768,7773,ATS,C,2
3,test,1,A,haborder.png,1,m,Tue Mar 24 2026 09:55:30 GMT-0500 (Central Daylight Time),139765.5,CFD-WM-028-005-HC.jpg,1400,solid,O,m,519,7,1,6579.799999952316,133185.70000004768,7773,ATS,C,3
4,test,1,A,haborder.png,1,z,Tue Mar 24 2026 09:55:30 GMT-0500 (Central Daylight Time),141915.59999990463,CFD-WF-037-016-A.jpg,1600,solid,O,z,522,10,1,8729.899999856949,133185.70000004768,7773,ATS,C,4
5,test,1,A,haborder.png,1,z,Tue Mar 24 2026 09:55:30 GMT-0500 (Central Daylight Time),143664.89999985695,CFD-BF-002-018-A.jpg,1200,solid,O,z,517,6,1,10479.199999809265,133185.70000004768,7773,ATS,C,5
6,test,1,A,haborder.png,1,z,Tue Mar 24 2026 09:55:30 GMT-0500 (Central Daylight Time),146298.59999990463,CFD-WM-036-018-A.jpg,1900,solid,O,z,700,8,1,13112.899999856949,133185.70000004768,7773,ATS,C,6
7,test,1,A,haborder.png,1,z,Tue Mar 24 2026 09:55:30 GMT-0500 (Central Daylight Time),148929.79999995232,CFD-BM-043-014-A.jpg,1600,solid,O,z,1009,2,1,15744.099999904633,133185.70000004768,7773,ATS,C,7
8,test,1,A,haborder.png,1,m,Tue Mar 24 2026 09:55:30 GMT-0500 (Central Daylight Time),151095.39999985695,CFD-BM-022-004-HC.jpg,1500,solid,O,m,644,3,1,17909.699999809265,133185.70000004768,7773,ATS,C,8
9,test,1,A,haborder.png,1,z,Tue Mar 24 2026 09:55:30 GMT-0500 (Central Daylight Time),152960.79999995232,CFD-WF-023-013-A.jpg,1000,solid,O,z,841,12,1,19775.099999904633,133185.70000004768,7773,ATS,C,9
9,test,1,A,haborder.png,0,z,Tue Mar 24 2026 09:55:30 GMT-0500 (Central Daylight Time),155261.09999990463,CFD-BM-043-014-A.jpg,1600,solid,O,m,682,2,1,22075.39999985695,133185.70000004768,7773,ATS,C,10
10,test,1,A,haborder.png,1,z,Tue Mar 24 2026 09:55:30 GMT-0500 (Central Daylight Time),157011.79999995232,CFD-BF-031-020-A.jpg,1000,solid,O,z,735,4,1,23826.099999904633,133185.70000004768,7773,ATS,C,11
11,test,1,A,haborder.png,1,m,Tue Mar 24 2026 09:55:30 GMT-0500 (Central Daylight Time),159210.29999995232,CFD-WF-013-009-HC.jpg,1500,solid,O,m,675,11,1,26024.599999904633,133185.70000004768,7773,ATS,C,12
12,test,1,A,haborder.png,1,z,Tue Mar 24 2026 09:55:30 GMT-0500 (Central Daylight Time),161525.0,CFD-WF-037-016-A.jpg,1600,solid,O,z,694,10,1,28339.299999952316,133185.70000004768,7773,ATS,C,13
13,test,1,A,haborder.png,1,m,Tue Mar 24 2026 09:55:30 GMT-0500 (Central Daylight Time),163824.29999995232,CFD-BM-022-004-HC.jpg,1500,solid,O,m,775,3,1,30638.599999904633,133185.70000004768,7773,ATS,C,14
14,test,1,A,haborder.png,1,z,Tue Mar 24 2026 09:55:30 GMT-0500 (Central Daylight Time),166424.09999990463,CFD-WM-036-018-A.jpg,1900,solid,O,z,675,8,1,33238.39999985695,133185.70000004768,7773,ATS,C,15
15,test,1,A,haborder.png,1,z,Tue Mar 24 2026 09:55:30 GMT-0500 (Central Daylight Time),168091.0,CFD-BF-031-020-A.jpg,1000,solid,O,z,649,4,1,34905.299999952316,133185.70000004768,7773,ATS,C,16
16,test,1,A,haborder.png,1,m,Tue Mar 24 2026 09:55:30 GMT-0500 (Central Daylight Time),170871.79999995232,CFD-BF-019-004-HC.jpg,2000,solid,O,m,750,5,1,37686.09999990463,133185.70000004768,7773,ATS,C,17
17,test,1,A,haborder.png,1,m,Tue Mar 24 2026 09:55:30 GMT-0500 (Central Daylight Time),173339.79999995232,CFD-BM-034-035-HC.jpg,1700,solid,O,m,749,1,1,40154.09999990463,133185.70000004768,7773,ATS,C,18
18,test,1,A,haborder.png,1,z,Tue Mar 24 2026 09:55:30 GMT-0500 (Central Daylight Time),175238.0,CFD-BF-002-018-A.jpg,1200,solid,O,z,671,6,1,42052.299999952316,133185.70000004768,7773,ATS,C,19
19,test,1,A,haborder.png,1,m,Tue Mar 24 2026 09:55:30 GMT-0500 (Central Daylight Time),177870.29999995232,CFD-BF-019-004-HC.jpg,2000,solid,O,m,612,5,1,44684.59999990463,133185.70000004768,7773,ATS,C,20
20,test,1,A,haborder.png,1,m,Tue Mar 24 2026 09:55:30 GMT-0500 (Central Daylight Time),180319.79999995232,CFD-BM-034-035-HC.jpg,1700,solid,O,m,712,1,1,47134.09999990463,133185.70000004768,7773,ATS,C,21
21,test,1,A,haborder.png,1,z,Tue Mar 24 2026 09:55:30 GMT-0500 (Central Daylight Time),182019.20000004768,CFD-WF-023-013-A.jpg,1000,solid,O,z,673,12,1,48833.5,133185.70000004768,7773,ATS,C,22
22,test,1,A,haborder.png,1,m,Tue Mar 24 2026 09:55:30 GMT-0500 (Central Daylight Time),184203.0,CFD-WF-013-009-HC.jpg,1500,solid,O,m,668,11,1,51017.299999952316,133185.70000004768,7773,ATS,C,23
23,test,1,A,haborder.png,1,m,Tue Mar 24 2026 09:55:30 GMT-0500 (Central Daylight Time),186318.39999985695,CFD-WM-028-005-HC.jpg,1400,solid,O,m,685,7,1,53132.699999809265,133185.70000004768,7773,ATS,C,24
1,test,1,B,mfborder.png,1,z,Tue Mar 24 2026 09:55:30 GMT-0500 (Central Daylight Time),197180.70000004768,CFD-WF-001-010-HC.jpg,1900,dash,O,z,921,8,1,2849.100000143051,194331.59999990463,7773,ATS,C,1
2,test,1,B,mfborder.png,1,m,Tue Mar 24 2026 09:55:30 GMT-0500 (Central Daylight Time),199663.20000004768,CFD-BM-022-004-HC.jpg,1700,dash,O,m,752,1,1,5331.600000143051,194331.59999990463,7773,ATS,C,2
3,test,1,B,mfborder.png,1,z,Tue Mar 24 2026 09:55:30 GMT-0500 (Central Daylight Time),201512.29999995232,CFD-WF-013-009-HC.jpg,1000,dash,O,z,825,12,1,7180.700000047684,194331.59999990463,7773,ATS,C,3
4,test,1,B,mfborder.png,1,z,Tue Mar 24 2026 09:55:30 GMT-0500 (Central Daylight Time),204077.79999995232,CFD-WF-001-010-HC.jpg,1900,dash,O,z,645,8,1,9746.200000047684,194331.59999990463,7773,ATS,C,4
5,test,1,B,mfborder.png,1,m,Tue Mar 24 2026 09:55:30 GMT-0500 (Central Daylight Time),206210.89999985695,CFD-BM-021-026-A.jpg,1600,dash,O,m,506,2,1,11879.299999952316,194331.59999990463,7773,ATS,C,5
6,test,1,B,mfborder.png,1,z,Tue Mar 24 2026 09:55:30 GMT-0500 (Central Daylight Time),207911.09999990463,CFD-WF-013-009-HC.jpg,1000,dash,O,z,677,12,1,13579.5,194331.59999990463,7773,ATS,C,6
7,test,1,B,mfborder.png,1,m,Tue Mar 24 2026 09:55:30 GMT-0500 (Central Daylight Time),210609.5,CFD-BM-043-014-A.jpg,2000,dash,O,m,675,5,1,16277.900000095367,194331.59999990463,7773,ATS,C,7
8,test,1,B,mfborder.png,1,z,Tue Mar 24 2026 09:55:30 GMT-0500 (Central Daylight Time),212760.20000004768,CFD-WF-037-016-A.jpg,1500,dash,O,z,626,11,1,18428.60000014305,194331.59999990463,7773,ATS,C,8
9,test,1,B,mfborder.png,1,z,Tue Mar 24 2026 09:55:30 GMT-0500 (Central Daylight Time),214924.59999990463,CFD-BF-042-031-HC.jpg,1500,dash,O,z,644,3,1,20593.0,194331.59999990463,7773,ATS,C,9
10,test,1,B,mfborder.png,1,z,Tue Mar 24 2026 09:55:30 GMT-0500 (Central Daylight Time),217090.09999990463,CFD-WF-037-016-A.jpg,1500,dash,O,z,637,11,1,22758.5,194331.59999990463,7773,ATS,C,10
10,test,1,B,mfborder.png,0,m,Tue Mar 24 2026 09:55:30 GMT-0500 (Central Daylight Time),219823.39999985695,CFD-WM-034-040-A.jpg,1200,dash,O,None,1515,6,1,25491.799999952316,194331.59999990463,7773,ATS,C,11
11,test,1,B,mfborder.png,1,z,Tue Mar 24 2026 09:55:30 GMT-0500 (Central Daylight Time),221605.79999995232,CFD-BF-031-020-A.jpg,1000,dash,O,z,751,4,1,27274.200000047684,194331.59999990463,7773,ATS,C,12
12,test,1,B,mfborder.png,1,m,Tue Mar 24 2026 09:55:30 GMT-0500 (Central Daylight Time),224755.0,CFD-WM-036-018-A.jpg,1700,dash,O,m,1429,9,1,30423.400000095367,194331.59999990463,7773,ATS,C,13
13,test,1,B,mfborder.png,1,m,Tue Mar 24 2026 09:55:30 GMT-0500 (Central Daylight Time),226587.79999995232,CFD-WM-034-040-A.jpg,1200,dash,O,m,598,6,1,32256.200000047684,194331.59999990463,7773,ATS,C,14
14,test,1,B,mfborder.png,1,m,Tue Mar 24 2026 09:55:30 GMT-0500 (Central Daylight Time),229103.89999985695,CFD-BM-043-014-A.jpg,2000,dash,O,m,494,5,1,34772.299999952316,194331.59999990463,7773,ATS,C,15
15,test,1,B,mfborder.png,1,z,Tue Mar 24 2026 09:55:30 GMT-0500 (Central Daylight Time),231403.29999995232,CFD-BF-042-031-HC.jpg,1500,dash,O,z,780,3,1,37071.700000047684,194331.59999990463,7773,ATS,C,16
16,test,1,B,mfborder.png,1,m,Tue Mar 24 2026 09:55:30 GMT-0500 (Central Daylight Time),233654.09999990463,CFD-WM-035-036-HC.jpg,1600,dash,O,m,620,10,1,39322.5,194331.59999990463,7773,ATS,C,17
17,test,1,B,mfborder.png,1,m,Tue Mar 24 2026 09:55:30 GMT-0500 (Central Daylight Time),235735.70000004768,CFD-WM-035-036-HC.jpg,1600,dash,O,m,460,10,1,41404.10000014305,194331.59999990463,7773,ATS,C,18
18,test,1,B,mfborder.png,1,m,Tue Mar 24 2026 09:55:30 GMT-0500 (Central Daylight Time),237867.70000004768,CFD-BM-022-004-HC.jpg,1700,dash,O,m,415,1,1,43536.10000014305,194331.59999990463,7773,ATS,C,19
19,test,1,B,mfborder.png,1,z,Tue Mar 24 2026 09:55:30 GMT-0500 (Central Daylight Time),239484.20000004768,CFD-BF-031-020-A.jpg,1000,dash,O,z,597,4,1,45152.60000014305,194331.59999990463,7773,ATS,C,20
20,test,1,B,mfborder.png,1,m,Tue Mar 24 2026 09:55:30 GMT-0500 (Central Daylight Time),241635.5,CFD-BM-021-026-A.jpg,1600,dash,O,m,533,2,1,47303.90000009537,194331.59999990463,7773,ATS,C,21
21,test,1,B,mfborder.png,1,z,Tue Mar 24 2026 09:55:30 GMT-0500 (Central Daylight Time),243634.29999995232,CFD-BF-019-004-HC.jpg,1400,dash,O,z,568,7,1,49302.700000047684,194331.59999990463,7773,ATS,C,22
22,test,1,B,mfborder.png,1,z,Tue Mar 24 2026 09:55:30 GMT-0500 (Central Daylight Time),245564.29999995232,CFD-BF-019-004-HC.jpg,1400,dash,O,z,512,7,1,51232.700000047684,194331.59999990463,7773,ATS,C,23
23,test,1,B,mfborder.png,1,m,Tue Mar 24 2026 09:55:30 GMT-0500 (Central Daylight Time),247864.5,CFD-WM-036-018-A.jpg,1700,dash,O,m,575,9,1,53532.90000009537,194331.59999990463,7773,ATS,C,24
1,prac,1,C,haborder.png,1,z,Tue Mar 24 2026 09:55:30 GMT-0500 (Central Daylight Time),285054.0,CFD-BF-031-020-A.jpg,1900,dash,O,z,951,9,1,3632.9000000953674,281421.09999990463,7773,ATS,C,1
2,prac,1,C,mfborder.png,1,z,Tue Mar 24 2026 09:55:30 GMT-0500 (Central Daylight Time),287803.09999990463,CFD-BF-019-004-HC.jpg,1000,dash,O,z,955,9,1,6382.0,281421.09999990463,7773,ATS,C,2
3,prac,1,C,mfborder.png,1,m,Tue Mar 24 2026 09:55:30 GMT-0500 (Central Daylight Time),290768.0,CFD-BM-043-014-A.jpg,1200,dash,O,m,975,9,1,9346.900000095367,281421.09999990463,7773,ATS,C,3
4,prac,1,C,mfborder.png,1,z,Tue Mar 24 2026 09:55:30 GMT-0500 (Central Daylight Time),294232.59999990463,CFD-WF-013-009-HC.jpg,1600,dash,O,z,1080,9,1,12811.5,281421.09999990463,7773,ATS,C,4
5,prac,1,C,haborder.png,1,m,Tue Mar 24 2026 09:55:30 GMT-0500 (Central Daylight Time),297249.7000000477,CFD-WM-028-005-HC.jpg,1400,solid,O,m,823,9,1,15828.600000143051,281421.09999990463,7773,ATS,C,5
6,prac,1,C,haborder.png,1,m,Tue Mar 24 2026 09:55:30 GMT-0500 (Central Daylight Time),299632.2000000477,CFD-WM-028-005-HC.jpg,1000,dash,O,m,583,9,1,18211.10000014305,281421.09999990463,7773,ATS,C,6
7,prac,1,C,mfborder.png,1,m,Tue Mar 24 2026 09:55:30 GMT-0500 (Central Daylight Time),303847.2999999523,CFD-BM-034-035-HC.jpg,2000,solid,O,m,1417,9,1,22426.200000047684,281421.09999990463,7773,ATS,C,7
8,prac,1,C,haborder.png,1,z,Tue Mar 24 2026 09:55:30 GMT-0500 (Central Daylight Time),307228.59999990463,CFD-WF-037-016-A.jpg,1600,dash,O,z,993,9,1,25807.5,281421.09999990463,7773,ATS,C,8
9,prac,1,C,haborder.png,1,z,Tue Mar 24 2026 09:55:30 GMT-0500 (Central Daylight Time),310779.7000000477,CFD-BF-002-018-A.jpg,1700,solid,O,z,1062,9,1,29358.60000014305,281421.09999990463,7773,ATS,C,9
10,prac,1,C,haborder.png,1,m,Tue Mar 24 2026 09:55:30 GMT-0500 (Central Daylight Time),313911.2999999523,CFD-BM-022-004-HC.jpg,1500,solid,O,m,843,9,1,32490.200000047684,281421.09999990463,7773,ATS,C,10
11,prac,1,C,mfborder.png,1,m,Tue Mar 24 2026 09:55:30 GMT-0500 (Central Daylight Time),317476.0,CFD-WM-036-018-A.jpg,1700,solid,O,m,1078,9,1,36054.90000009537,281421.09999990463,7773,ATS,C,11
11,prac,1,C,mfborder.png,0,z,Tue Mar 24 2026 09:55:30 GMT-0500 (Central Daylight Time),321259.59999990463,CFD-WF-023-013-A.jpg,1500,solid,O,None,1514,9,1,39838.5,281421.09999990463,7773,ATS,C,12
1,test,1,C,mfborder.png,1,m,Tue Mar 24 2026 09:55:30 GMT-0500 (Central Daylight Time),353482.39999985695,CFD-WM-034-040-A.jpg,2000,dash,O,m,1100,5,1,3133.2999999523163,350349.09999990463,7773,ATS,C,1
1,test,1,C,mfborder.png,0,m,Tue Mar 24 2026 09:55:30 GMT-0500 (Central Daylight Time),356014.7999999523,CFD-WM-035-036-HC.jpg,1000,dash,O,None,1517,4,1,5665.700000047684,350349.09999990463,7773,ATS,C,2
2,test,1,C,mfborder.png,1,m,Tue Mar 24 2026 09:55:30 GMT-0500 (Central Daylight Time),358713.0,CFD-WM-034-040-A.jpg,2000,dash,O,m,666,5,1,8363.900000095367,350349.09999990463,7773,ATS,C,3
3,test,1,C,haborder.png,1,m,Tue Mar 24 2026 09:55:30 GMT-0500 (Central Daylight Time),361445.2000000477,CFD-BF-019-004-HC.jpg,1600,solid,O,m,1103,10,1,11096.100000143051,350349.09999990463,7773,ATS,C,4
4,test,1,C,haborder.png,1,z,Tue Mar 24 2026 09:55:30 GMT-0500 (Central Daylight Time),364361.7999999523,CFD-BM-021-026-A.jpg,1700,solid,O,z,1198,9,1,14012.700000047684,350349.09999990463,7773,ATS,C,5
5,test,1,C,haborder.png,1,z,Tue Mar 24 2026 09:55:30 GMT-0500 (Central Daylight Time),367228.0,CFD-BM-043-014-A.jpg,1900,solid,O,z,939,8,1,16878.900000095367,350349.09999990463,7773,ATS,C,6
6,test,1,C,mfborder.png,1,z,Tue Mar 24 2026 09:55:30 GMT-0500 (Central Daylight Time),369975.89999985695,CFD-BF-042-031-HC.jpg,1700,dash,O,z,1017,1,1,19626.799999952316,350349.09999990463,7773,ATS,C,7
7,test,1,C,haborder.png,1,m,Tue Mar 24 2026 09:55:30 GMT-0500 (Central Daylight Time),372860.59999990463,CFD-BF-019-004-HC.jpg,1600,solid,O,m,1266,10,1,22511.5,350349.09999990463,7773,ATS,C,8
7,test,1,C,mfborder.png,0,m,Tue Mar 24 2026 09:55:30 GMT-0500 (Central Daylight Time),375575.59999990463,CFD-BM-022-004-HC.jpg,1200,dash,O,None,1501,6,1,25226.5,350349.09999990463,7773,ATS,C,9
8,test,1,C,haborder.png,1,m,Tue Mar 24 2026 09:55:30 GMT-0500 (Central Daylight Time),378140.7000000477,CFD-WF-001-010-HC.jpg,1500,solid,O,m,1047,11,1,27791.60000014305,350349.09999990463,7773,ATS,C,10
8,test,1,C,mfborder.png,0,z,Tue Mar 24 2026 09:55:30 GMT-0500 (Central Daylight Time),381139.7000000477,CFD-WF-037-016-A.jpg,1500,dash,O,m,1482,3,1,30790.60000014305,350349.09999990463,7773,ATS,C,11
8,test,1,C,mfborder.png,0,m,Tue Mar 24 2026 09:55:30 GMT-0500 (Central Daylight Time),383670.7000000477,CFD-WM-035-036-HC.jpg,1000,dash,O,None,1512,4,1,33321.60000014305,350349.09999990463,7773,ATS,C,12
8,test,1,C,haborder.png,0,z,Tue Mar 24 2026 09:55:30 GMT-0500 (Central Daylight Time),386272.0,CFD-WM-036-018-A.jpg,1400,solid,O,m,1168,7,1,35922.90000009537,350349.09999990463,7773,ATS,C,13
9,test,1,C,mfborder.png,1,z,Tue Mar 24 2026 09:55:30 GMT-0500 (Central Daylight Time),388719.7000000477,CFD-WF-037-016-A.jpg,1500,dash,O,z,925,3,1,38370.60000014305,350349.09999990463,7773,ATS,C,14
9,test,1,C,haborder.png,0,m,Tue Mar 24 2026 09:55:30 GMT-0500 (Central Daylight Time),391252.39999985695,CFD-WF-013-009-HC.jpg,1000,solid,O,None,1513,12,1,40903.299999952316,350349.09999990463,7773,ATS,C,15
10,test,1,C,haborder.png,1,m,Tue Mar 24 2026 09:55:30 GMT-0500 (Central Daylight Time),393701.0,CFD-WF-001-010-HC.jpg,1500,solid,O,m,928,11,1,43351.90000009537,350349.09999990463,7773,ATS,C,16
11,test,1,C,mfborder.png,1,z,Tue Mar 24 2026 09:55:30 GMT-0500 (Central Daylight Time),396151.09999990463,CFD-BF-031-020-A.jpg,1600,dash,O,z,820,2,1,45802.0,350349.09999990463,7773,ATS,C,17
11,test,1,C,haborder.png,0,z,Tue Mar 24 2026 09:55:30 GMT-0500 (Central Daylight Time),398951.0,CFD-BM-043-014-A.jpg,1900,solid,O,m,879,8,1,48601.90000009537,350349.09999990463,7773,ATS,C,18
12,test,1,C,haborder.png,1,z,Tue Mar 24 2026 09:55:30 GMT-0500 (Central Daylight Time),401668.39999985695,CFD-BM-021-026-A.jpg,1700,solid,O,z,983,9,1,51319.299999952316,350349.09999990463,7773,ATS,C,19
13,test,1,C,haborder.png,1,z,Tue Mar 24 2026 09:55:30 GMT-0500 (Central Daylight Time),403997.5,CFD-WM-036-018-A.jpg,1400,solid,O,z,900,7,1,53648.40000009537,350349.09999990463,7773,ATS,C,20
14,test,1,C,mfborder.png,1,z,Tue Mar 24 2026 09:55:30 GMT-0500 (Central Daylight Time),406796.7000000477,CFD-BF-031-020-A.jpg,1600,dash,O,z,1168,2,1,56447.60000014305,350349.09999990463,7773,ATS,C,21
15,test,1,C,mfborder.png,1,z,Tue Mar 24 2026 09:55:30 GMT-0500 (Central Daylight Time),409196.39999985695,CFD-BF-042-031-HC.jpg,1700,dash,O,z,671,1,1,58847.299999952316,350349.09999990463,7773,ATS,C,22
16,test,1,C,haborder.png,1,m,Tue Mar 24 2026 09:55:30 GMT-0500 (Central Daylight Time),410995.0,CFD-WF-013-009-HC.jpg,1000,solid,O,m,773,12,1,60645.90000009537,350349.09999990463,7773,ATS,C,23
17,test,1,C,mfborder.png,1,m,Tue Mar 24 2026 09:55:30 GMT-0500 (Central Daylight Time),413428.5,CFD-BM-022-004-HC.jpg,1200,dash,O,m,1204,6,1,63079.40000009537,350349.09999990463,7773,ATS,C,24
1,test,2,C,mfborder.png,1,m,Tue Mar 24 2026 09:55:30 GMT-0500 (Central Daylight Time),422325.7000000477,CFD-WM-036-018-A.jpg,1200,dash,O,m,1116,6,1,2348.100000143051,419977.59999990463,7773,ATS,C,1
2,test,2,C,haborder.png,1,z,Tue Mar 24 2026 09:55:30 GMT-0500 (Central Daylight Time),425058.39999985695,CFD-WF-037-016-A.jpg,1700,solid,O,z,1016,9,1,5080.799999952316,419977.59999990463,7773,ATS,C,2
3,test,2,C,mfborder.png,1,m,Tue Mar 24 2026 09:55:30 GMT-0500 (Central Daylight Time),427226.7999999523,CFD-WM-036-018-A.jpg,1200,dash,O,m,942,6,1,7249.200000047684,419977.59999990463,7773,ATS,C,3
4,test,2,C,haborder.png,1,z,Tue Mar 24 2026 09:55:30 GMT-0500 (Central Daylight Time),429574.59999990463,CFD-BF-031-020-A.jpg,1400,solid,O,z,919,7,1,9597.0,419977.59999990463,7773,ATS,C,4
5,test,2,C,haborder.png,1,m,Tue Mar 24 2026 09:55:30 GMT-0500 (Central Daylight Time),431839.2000000477,CFD-WM-028-005-HC.jpg,1000,solid,O,m,1245,12,1,11861.600000143051,419977.59999990463,7773,ATS,C,5
6,test,2,C,mfborder.png,1,z,Tue Mar 24 2026 09:55:30 GMT-0500 (Central Daylight Time),434571.89999985695,CFD-BF-019-004-HC.jpg,1500,dash,O,z,1215,3,1,14594.299999952316,419977.59999990463,7773,ATS,C,6
7,test,2,C,mfborder.png,1,m,Tue Mar 24 2026 09:55:30 GMT-0500 (Central Daylight Time),437619.7000000477,CFD-BM-043-014-A.jpg,2000,dash,O,m,1029,5,1,17642.10000014305,419977.59999990463,7773,ATS,C,7
8,test,2,C,haborder.png,1,z,Tue Mar 24 2026 09:55:30 GMT-0500 (Central Daylight Time),440053.89999985695,CFD-BF-031-020-A.jpg,1400,solid,O,z,1002,7,1,20076.299999952316,419977.59999990463,7773,ATS,C,8
9,test,2,C,mfborder.png,1,m,Tue Mar 24 2026 09:55:30 GMT-0500 (Central Daylight Time),442186.2999999523,CFD-BM-034-035-HC.jpg,1000,dash,O,m,1100,4,1,22208.700000047684,419977.59999990463,7773,ATS,C,9
10,test,2,C,haborder.png,1,m,Tue Mar 24 2026 09:55:30 GMT-0500 (Central Daylight Time),444734.89999985695,CFD-BM-022-004-HC.jpg,1600,solid,O,m,918,10,1,24757.299999952316,419977.59999990463,7773,ATS,C,10
11,test,2,C,haborder.png,1,m,Tue Mar 24 2026 09:55:30 GMT-0500 (Central Daylight Time),447134.39999985695,CFD-BM-022-004-HC.jpg,1600,solid,O,m,769,10,1,27156.799999952316,419977.59999990463,7773,ATS,C,11
12,test,2,C,mfborder.png,1,z,Tue Mar 24 2026 09:55:30 GMT-0500 (Central Daylight Time),450118.0,CFD-WF-013-009-HC.jpg,1700,dash,O,z,1254,1,1,30140.400000095367,419977.59999990463,7773,ATS,C,12
13,test,2,C,mfborder.png,1,z,Tue Mar 24 2026 09:55:30 GMT-0500 (Central Daylight Time),452748.59999990463,CFD-WF-013-009-HC.jpg,1700,dash,O,z,904,1,1,32771.0,419977.59999990463,7773,ATS,C,13
14,test,2,C,haborder.png,1,m,Tue Mar 24 2026 09:55:30 GMT-0500 (Central Daylight Time),455098.5,CFD-WM-028-005-HC.jpg,1500,solid,O,m,822,11,1,35120.90000009537,419977.59999990463,7773,ATS,C,14
15,test,2,C,haborder.png,1,m,Tue Mar 24 2026 09:55:30 GMT-0500 (Central Daylight Time),456765.2000000477,CFD-WM-028-005-HC.jpg,1000,solid,O,m,640,12,1,36787.60000014305,419977.59999990463,7773,ATS,C,15
16,test,2,C,mfborder.png,1,z,Tue Mar 24 2026 09:55:30 GMT-0500 (Central Daylight Time),459164.0,CFD-WF-023-013-A.jpg,1600,dash,O,z,778,2,1,39186.40000009537,419977.59999990463,7773,ATS,C,16
16,test,2,C,haborder.png,0,z,Tue Mar 24 2026 09:55:30 GMT-0500 (Central Daylight Time),462596.59999990463,CFD-BF-002-018-A.jpg,1900,solid,O,None,1515,8,1,42619.0,419977.59999990463,7773,ATS,C,17
17,test,2,C,mfborder.png,1,z,Tue Mar 24 2026 09:55:30 GMT-0500 (Central Daylight Time),464961.89999985695,CFD-WF-023-013-A.jpg,1600,dash,O,z,748,2,1,44984.299999952316,419977.59999990463,7773,ATS,C,18
17,test,2,C,mfborder.png,0,m,Tue Mar 24 2026 09:55:30 GMT-0500 (Central Daylight Time),468011.09999990463,CFD-BM-043-014-A.jpg,2000,dash,O,z,1023,5,1,48033.5,419977.59999990463,7773,ATS,C,19
18,test,2,C,haborder.png,1,z,Tue Mar 24 2026 09:55:30 GMT-0500 (Central Daylight Time),470794.09999990463,CFD-BF-002-018-A.jpg,1900,solid,O,z,858,8,1,50816.5,419977.59999990463,7773,ATS,C,20
19,test,2,C,haborder.png,1,z,Tue Mar 24 2026 09:55:30 GMT-0500 (Central Daylight Time),473793.2000000477,CFD-WF-037-016-A.jpg,1700,solid,O,z,1274,9,1,53815.60000014305,419977.59999990463,7773,ATS,C,21
20,test,2,C,mfborder.png,1,m,Tue Mar 24 2026 09:55:30 GMT-0500 (Central Daylight Time),476092.2000000477,CFD-BM-034-035-HC.jpg,1000,dash,O,m,1281,4,1,56114.60000014305,419977.59999990463,7773,ATS,C,22
20,test,2,C,mfborder.png,0,z,Tue Mar 24 2026 09:55:30 GMT-0500 (Central Daylight Time),479123.2999999523,CFD-BF-019-004-HC.jpg,1500,dash,O,None,1515,3,1,59145.700000047684,419977.59999990463,7773,ATS,C,23
21,test,2,C,haborder.png,1,m,Tue Mar 24 2026 09:55:30 GMT-0500 (Central Daylight Time),481857.39999985695,CFD-WM-028-005-HC.jpg,1500,solid,O,m,1207,11,1,61879.799999952316,419977.59999990463,7773,ATS,C,24
1,test,3,C,mfborder.png,1,z,Tue Mar 24 2026 09:55:30 GMT-0500 (Central Daylight Time),489271.5,CFD-BF-031-020-A.jpg,1600,dash,O,z,1276,2,1,2899.9000000953674,486371.59999990463,7773,ATS,C,1
2,test,3,C,mfborder.png,1,m,Tue Mar 24 2026 09:55:30 GMT-0500 (Central Daylight Time),492402.89999985695,CFD-WM-034-040-A.jpg,2000,dash,O,m,1105,5,1,6031.299999952316,486371.59999990463,7773,ATS,C,2
3,test,3,C,haborder.png,1,z,Tue Mar 24 2026 09:55:30 GMT-0500 (Central Daylight Time),495235.7999999523,CFD-BM-021-026-A.jpg,1700,solid,O,z,1104,9,1,8864.200000047684,486371.59999990463,7773,ATS,C,3
4,test,3,C,haborder.png,1,m,Tue Mar 24 2026 09:55:30 GMT-0500 (Central Daylight Time),497236.0,CFD-WF-013-009-HC.jpg,1000,solid,O,m,973,12,1,10864.400000095367,486371.59999990463,7773,ATS,C,4
5,test,3,C,mfborder.png,1,m,Tue Mar 24 2026 09:55:30 GMT-0500 (Central Daylight Time),500467.0,CFD-WM-034-040-A.jpg,2000,dash,O,m,1203,5,1,14095.400000095367,486371.59999990463,7773,ATS,C,5
6,test,3,C,mfborder.png,1,m,Tue Mar 24 2026 09:55:30 GMT-0500 (Central Daylight Time),502750.2000000477,CFD-BM-022-004-HC.jpg,1200,dash,O,m,1054,6,1,16378.600000143051,486371.59999990463,7773,ATS,C,6
7,test,3,C,mfborder.png,1,z,Tue Mar 24 2026 09:55:30 GMT-0500 (Central Daylight Time),505266.7999999523,CFD-BF-042-031-HC.jpg,1700,dash,O,z,789,1,1,18895.200000047684,486371.59999990463,7773,ATS,C,7
8,test,3,C,mfborder.png,1,z,Tue Mar 24 2026 09:55:30 GMT-0500 (Central Daylight Time),507548.89999985695,CFD-WF-037-016-A.jpg,1500,dash,O,z,749,3,1,21177.299999952316,486371.59999990463,7773,ATS,C,8
9,test,3,C,haborder.png,1,m,Tue Mar 24 2026 09:55:30 GMT-0500 (Central Daylight Time),510066.39999985695,CFD-BF-019-004-HC.jpg,1600,solid,O,m,883,10,1,23694.799999952316,486371.59999990463,7773,ATS,C,9
9,test,3,C,mfborder.png,0,m,Tue Mar 24 2026 09:55:30 GMT-0500 (Central Daylight Time),512597.2000000477,CFD-WM-035-036-HC.jpg,1000,dash,O,None,1515,4,1,26225.60000014305,486371.59999990463,7773,ATS,C,10
10,test,3,C,haborder.png,1,m,Tue Mar 24 2026 09:55:30 GMT-0500 (Central Daylight Time),515146.59999990463,CFD-BF-019-004-HC.jpg,1600,solid,O,m,924,10,1,28775.0,486371.59999990463,7773,ATS,C,11
11,test,3,C,haborder.png,1,m,Tue Mar 24 2026 09:55:30 GMT-0500 (Central Daylight Time),517445.7999999523,CFD-WF-001-010-HC.jpg,1500,solid,O,m,779,11,1,31074.200000047684,486371.59999990463,7773,ATS,C,12
12,test,3,C,haborder.png,1,m,Tue Mar 24 2026 09:55:30 GMT-0500 (Central Daylight Time),519660.89999985695,CFD-WF-001-010-HC.jpg,1500,solid,O,m,697,11,1,33289.299999952316,486371.59999990463,7773,ATS,C,13
12,test,3,C,mfborder.png,0,m,Tue Mar 24 2026 09:55:30 GMT-0500 (Central Daylight Time),522179.0,CFD-WM-035-036-HC.jpg,1000,dash,O,None,1501,4,1,35807.40000009537,486371.59999990463,7773,ATS,C,14
12,test,3,C,haborder.png,0,z,Tue Mar 24 2026 09:55:30 GMT-0500 (Central Daylight Time),524793.5999999046,CFD-WM-036-018-A.jpg,1400,solid,O,m,1198,7,1,38422.0,486371.59999990463,7773,ATS,C,15
12,test,3,C,mfborder.png,0,z,Tue Mar 24 2026 09:55:30 GMT-0500 (Central Daylight Time),527825.899999857,CFD-WF-037-016-A.jpg,1500,dash,O,None,1517,3,1,41454.299999952316,486371.59999990463,7773,ATS,C,16
13,test,3,C,haborder.png,1,z,Tue Mar 24 2026 09:55:30 GMT-0500 (Central Daylight Time),530908.2000000477,CFD-BM-043-014-A.jpg,1900,solid,O,z,1155,8,1,44536.60000014305,486371.59999990463,7773,ATS,C,17
14,test,3,C,mfborder.png,1,z,Tue Mar 24 2026 09:55:30 GMT-0500 (Central Daylight Time),533474.7000000477,CFD-BF-042-031-HC.jpg,1700,dash,O,z,848,1,1,47103.10000014305,486371.59999990463,7773,ATS,C,18
15,test,3,C,mfborder.png,1,z,Tue Mar 24 2026 09:55:30 GMT-0500 (Central Daylight Time),536308.5,CFD-BF-031-020-A.jpg,1600,dash,O,z,1215,2,1,49936.90000009537,486371.59999990463,7773,ATS,C,19
16,test,3,C,haborder.png,1,z,Tue Mar 24 2026 09:55:30 GMT-0500 (Central Daylight Time),538854.5999999046,CFD-WM-036-018-A.jpg,1400,solid,O,z,1115,7,1,52483.0,486371.59999990463,7773,ATS,C,20
16,test,3,C,mfborder.png,0,m,Tue Mar 24 2026 09:55:30 GMT-0500 (Central Daylight Time),541587.7999999523,CFD-BM-022-004-HC.jpg,1200,dash,O,None,1514,6,1,55216.200000047684,486371.59999990463,7773,ATS,C,21
17,test,3,C,haborder.png,1,m,Tue Mar 24 2026 09:55:30 GMT-0500 (Central Daylight Time),543738.899999857,CFD-WF-013-009-HC.jpg,1000,solid,O,m,1133,12,1,57367.299999952316,486371.59999990463,7773,ATS,C,22
18,test,3,C,haborder.png,1,z,Tue Mar 24 2026 09:55:30 GMT-0500 (Central Daylight Time),546736.5999999046,CFD-BM-043-014-A.jpg,1900,solid,O,z,1066,8,1,60365.0,486371.59999990463,7773,ATS,C,23
19,test,3,C,haborder.png,1,z,Tue Mar 24 2026 09:55:30 GMT-0500 (Central Daylight Time),549202.5999999046,CFD-BM-021-026-A.jpg,1700,solid,O,z,748,9,1,62831.0,486371.59999990463,7773,ATS,C,24
1,test,4,C,mfborder.png,1,m,Tue Mar 24 2026 09:55:30 GMT-0500 (Central Daylight Time),555949.5,CFD-BM-043-014-A.jpg,2000,dash,O,m,1493,5,1,3515.2000000476837,552434.2999999523,7773,ATS,C,1
2,test,4,C,haborder.png,1,z,Tue Mar 24 2026 09:55:30 GMT-0500 (Central Daylight Time),558198.7999999523,CFD-BF-031-020-A.jpg,1400,solid,O,z,817,7,1,5764.5,552434.2999999523,7773,ATS,C,2
3,test,4,C,mfborder.png,1,z,Tue Mar 24 2026 09:55:30 GMT-0500 (Central Daylight Time),560532.399999857,CFD-WF-023-013-A.jpg,1600,dash,O,z,705,2,1,8098.099999904633,552434.2999999523,7773,ATS,C,3
4,test,4,C,haborder.png,1,m,Tue Mar 24 2026 09:55:30 GMT-0500 (Central Daylight Time),562383.399999857,CFD-WM-028-005-HC.jpg,1000,solid,O,m,820,12,1,9949.099999904633,552434.2999999523,7773,ATS,C,4
5,test,4,C,haborder.png,1,m,Tue Mar 24 2026 09:55:30 GMT-0500 (Central Daylight Time),564666.5,CFD-WM-028-005-HC.jpg,1500,solid,O,m,753,11,1,12232.200000047684,552434.2999999523,7773,ATS,C,5
6,test,4,C,mfborder.png,1,m,Tue Mar 24 2026 09:55:30 GMT-0500 (Central Daylight Time),566846.0999999046,CFD-BM-034-035-HC.jpg,1000,dash,O,m,1154,4,1,14411.799999952316,552434.2999999523,7773,ATS,C,6
7,test,4,C,haborder.png,1,m,Tue Mar 24 2026 09:55:30 GMT-0500 (Central Daylight Time),569095.2999999523,CFD-WM-028-005-HC.jpg,1500,solid,O,m,726,11,1,16661.0,552434.2999999523,7773,ATS,C,7
8,test,4,C,mfborder.png,1,z,Tue Mar 24 2026 09:55:30 GMT-0500 (Central Daylight Time),571545.2999999523,CFD-BF-019-004-HC.jpg,1500,dash,O,z,926,3,1,19111.0,552434.2999999523,7773,ATS,C,8
9,test,4,C,haborder.png,1,z,Tue Mar 24 2026 09:55:30 GMT-0500 (Central Daylight Time),574194.0,CFD-BF-002-018-A.jpg,1900,solid,O,z,724,8,1,21759.700000047684,552434.2999999523,7773,ATS,C,9
10,test,4,C,haborder.png,1,z,Tue Mar 24 2026 09:55:30 GMT-0500 (Central Daylight Time),576628.5,CFD-BF-002-018-A.jpg,1900,solid,O,z,517,8,1,24194.200000047684,552434.2999999523,7773,ATS,C,10
11,test,4,C,haborder.png,1,z,Tue Mar 24 2026 09:55:30 GMT-0500 (Central Daylight Time),578676.7999999523,CFD-BF-031-020-A.jpg,1400,solid,O,z,629,7,1,26242.5,552434.2999999523,7773,ATS,C,11
12,test,4,C,haborder.png,1,m,Tue Mar 24 2026 09:55:30 GMT-0500 (Central Daylight Time),581108.2999999523,CFD-BM-022-004-HC.jpg,1600,solid,O,m,798,10,1,28674.0,552434.2999999523,7773,ATS,C,12
13,test,4,C,haborder.png,1,z,Tue Mar 24 2026 09:55:30 GMT-0500 (Central Daylight Time),583557.5999999046,CFD-WF-037-016-A.jpg,1700,solid,O,z,726,9,1,31123.299999952316,552434.2999999523,7773,ATS,C,13
14,test,4,C,mfborder.png,1,z,Tue Mar 24 2026 09:55:30 GMT-0500 (Central Daylight Time),586157.0999999046,CFD-BF-019-004-HC.jpg,1500,dash,O,z,1071,3,1,33722.799999952316,552434.2999999523,7773,ATS,C,14
15,test,4,C,mfborder.png,1,m,Tue Mar 24 2026 09:55:30 GMT-0500 (Central Daylight Time),588007.399999857,CFD-BM-034-035-HC.jpg,1000,dash,O,m,819,4,1,35573.09999990463,552434.2999999523,7773,ATS,C,15
16,test,4,C,mfborder.png,1,m,Tue Mar 24 2026 09:55:30 GMT-0500 (Central Daylight Time),590170.7000000477,CFD-WM-036-018-A.jpg,1200,dash,O,m,947,6,1,37736.40000009537,552434.2999999523,7773,ATS,C,16
17,test,4,C,mfborder.png,1,m,Tue Mar 24 2026 09:55:30 GMT-0500 (Central Daylight Time),593121.5,CFD-BM-043-014-A.jpg,2000,dash,O,m,925,5,1,40687.200000047684,552434.2999999523,7773,ATS,C,17
18,test,4,C,mfborder.png,1,z,Tue Mar 24 2026 09:55:30 GMT-0500 (Central Daylight Time),595555.5999999046,CFD-WF-023-013-A.jpg,1600,dash,O,z,808,2,1,43121.299999952316,552434.2999999523,7773,ATS,C,18
19,test,4,C,mfborder.png,1,z,Tue Mar 24 2026 09:55:30 GMT-0500 (Central Daylight Time),598203.399999857,CFD-WF-013-009-HC.jpg,1700,dash,O,z,924,1,1,45769.09999990463,552434.2999999523,7773,ATS,C,19
20,test,4,C,mfborder.png,1,z,Tue Mar 24 2026 09:55:30 GMT-0500 (Central Daylight Time),600718.7000000477,CFD-WF-013-009-HC.jpg,1700,dash,O,z,784,1,1,48284.40000009537,552434.2999999523,7773,ATS,C,20
20,test,4,C,mfborder.png,0,m,Tue Mar 24 2026 09:55:30 GMT-0500 (Central Daylight Time),603452.0,CFD-WM-036-018-A.jpg,1200,dash,O,None,1516,6,1,51017.700000047684,552434.2999999523,7773,ATS,C,21
21,test,4,C,haborder.png,1,z,Tue Mar 24 2026 09:55:30 GMT-0500 (Central Daylight Time),606533.0999999046,CFD-WF-037-016-A.jpg,1700,solid,O,z,1360,9,1,54098.799999952316,552434.2999999523,7773,ATS,C,22
22,test,4,C,haborder.png,1,m,Tue Mar 24 2026 09:55:30 GMT-0500 (Central Daylight Time),608766.7999999523,CFD-BM-022-004-HC.jpg,1600,solid,O,m,611,10,1,56332.5,552434.2999999523,7773,ATS,C,23
23,test,4,C,haborder.png,1,m,Tue Mar 24 2026 09:55:30 GMT-0500 (Central Daylight Time),610514.0999999046,CFD-WM-028-005-HC.jpg,1000,solid,O,m,719,12,1,58079.799999952316,552434.2999999523,7773,ATS,C,24
