block_c,block_dur,condition,countdown,datetime,endtime,list,multichar_response,project,response,response_time,session_number,start_end,starttime,subject_id,task,task_vers,trial
,,,,Wed Feb 25 2026 10:50:01 GMT-0600 (Central Standard Time),,,,O,space,451,1,,,7748,WL,C,
prac,,0,,Wed Feb 25 2026 10:50:01 GMT-0600 (Central Standard Time),,NA,b,O,b,8754,1,,,7748,WL,C,1.0
prac,,0,,Wed Feb 25 2026 10:50:01 GMT-0600 (Central Standard Time),,NA,bo,O,o,649,1,,,7748,WL,C,1.0
prac,,0,,Wed Feb 25 2026 10:50:01 GMT-0600 (Central Standard Time),,NA,boo,O,o,180,1,,,7748,WL,C,1.0
prac,,0,,Wed Feb 25 2026 10:50:01 GMT-0600 (Central Standard Time),,NA,boos,O,s,164,1,,,7748,WL,C,1.0
prac,,0,,Wed Feb 25 2026 10:50:01 GMT-0600 (Central Standard Time),,NA,boost,O,t,231,1,,,7748,WL,C,1.0
prac,,0,,Wed Feb 25 2026 10:50:01 GMT-0600 (Central Standard Time),,NA,boostenter,O,enter,16605,1,,,7748,WL,C,1.0
1,1.7980000972747803,learn,58201.99990272522,Wed Feb 25 2026 10:50:01 GMT-0600 (Central Standard Time),174162.0,A,t,O,t,1778,1,1797.5999999940395,172364.40000000596,7748,WL,C,1.0
1,2.2840001583099365,learn,57715.99984169006,Wed Feb 25 2026 10:50:01 GMT-0600 (Central Standard Time),174648.0,A,to,O,o,465,1,2283.5999999940395,172364.40000000596,7748,WL,C,1.0
1,2.5,learn,57500.0,Wed Feb 25 2026 10:50:01 GMT-0600 (Central Standard Time),174864.29999999702,A,tow,O,w,203,1,2499.8999999910593,172364.40000000596,7748,WL,C,1.0
1,3.0490000247955322,learn,56950.99997520447,Wed Feb 25 2026 10:50:01 GMT-0600 (Central Standard Time),175413.60000000894,A,towe,O,e,537,1,3049.2000000029802,172364.40000000596,7748,WL,C,1.0
1,3.315000057220459,learn,56684.99994277954,Wed Feb 25 2026 10:50:01 GMT-0600 (Central Standard Time),175678.70000000298,A,tower,O,r,254,1,3314.2999999970198,172364.40000000596,7748,WL,C,1.0
1,3.7310001850128174,learn,56268.99981498718,Wed Feb 25 2026 10:50:01 GMT-0600 (Central Standard Time),176095.5,A,towerenter,O,enter,404,1,3731.0999999940395,172364.40000000596,7748,WL,C,1.0
1,4.164999961853027,learn,55835.00003814697,Wed Feb 25 2026 10:50:01 GMT-0600 (Central Standard Time),176529.20000000298,A,w,O,w,418,1,433.40000000596046,176095.79999999702,7748,WL,C,2.0
1,4.466000080108643,learn,55533.99991989136,Wed Feb 25 2026 10:50:01 GMT-0600 (Central Standard Time),176830.29999999702,A,wh,O,h,291,1,734.5,176095.79999999702,7748,WL,C,2.0
1,4.682000160217285,learn,55317.999839782715,Wed Feb 25 2026 10:50:01 GMT-0600 (Central Standard Time),177047.10000000894,A,whe,O,e,196,1,951.3000000119209,176095.79999999702,7748,WL,C,2.0
1,4.799000024795532,learn,55200.99997520447,Wed Feb 25 2026 10:50:01 GMT-0600 (Central Standard Time),177164.10000000894,A,whea,O,a,111,1,1068.300000011921,176095.79999999702,7748,WL,C,2.0
1,4.949000120162964,learn,55050.999879837036,Wed Feb 25 2026 10:50:01 GMT-0600 (Central Standard Time),177314.20000000298,A,wheat,O,t,143,1,1218.4000000059605,176095.79999999702,7748,WL,C,2.0
1,5.248000144958496,learn,54751.999855041504,Wed Feb 25 2026 10:50:01 GMT-0600 (Central Standard Time),177612.40000000596,A,wheatenter,O,enter,281,1,1516.6000000089407,176095.79999999702,7748,WL,C,2.0
1,5.863000154495239,learn,54136.99984550476,Wed Feb 25 2026 10:50:01 GMT-0600 (Central Standard Time),178228.29999999702,A,q,O,q,606,1,615.5,177612.79999999702,7748,WL,C,3.0
1,6.397000074386597,learn,53602.9999256134,Wed Feb 25 2026 10:50:01 GMT-0600 (Central Standard Time),178761.60000000894,A,qu,O,u,511,1,1148.800000011921,177612.79999999702,7748,WL,C,3.0
1,7.0959999561309814,learn,52904.00004386902,Wed Feb 25 2026 10:50:01 GMT-0600 (Central Standard Time),179460.60000000894,A,que,O,e,678,1,1847.800000011921,177612.79999999702,7748,WL,C,3.0
1,7.245000123977661,learn,52754.99987602234,Wed Feb 25 2026 10:50:01 GMT-0600 (Central Standard Time),179610.20000000298,A,quee,O,e,143,1,1997.4000000059605,177612.79999999702,7748,WL,C,3.0
1,7.42900013923645,learn,52570.99986076355,Wed Feb 25 2026 10:50:01 GMT-0600 (Central Standard Time),179794.10000000894,A,queen,O,n,170,1,2181.300000011921,177612.79999999702,7748,WL,C,3.0
1,7.713000059127808,learn,52286.99994087219,Wed Feb 25 2026 10:50:01 GMT-0600 (Central Standard Time),180077.60000000894,A,queenenter,O,enter,274,1,2464.800000011921,177612.79999999702,7748,WL,C,3.0
1,8.047000169754028,learn,51952.99983024597,Wed Feb 25 2026 10:50:01 GMT-0600 (Central Standard Time),180411.79999999702,A,s,O,s,318,1,333.8999999910593,180077.90000000596,7748,WL,C,4.0
1,8.195000171661377,learn,51804.99982833862,Wed Feb 25 2026 10:50:01 GMT-0600 (Central Standard Time),180559.90000000596,A,su,O,u,136,1,482.0,180077.90000000596,7748,WL,C,4.0
1,8.480000019073486,learn,51519.999980926514,Wed Feb 25 2026 10:50:01 GMT-0600 (Central Standard Time),180845.20000000298,A,sug,O,g,270,1,767.2999999970198,180077.90000000596,7748,WL,C,4.0
1,8.664000034332275,learn,51335.999965667725,Wed Feb 25 2026 10:50:01 GMT-0600 (Central Standard Time),181028.60000000894,A,suga,O,a,167,1,950.7000000029802,180077.90000000596,7748,WL,C,4.0
1,8.861999988555908,learn,51138.00001144409,Wed Feb 25 2026 10:50:01 GMT-0600 (Central Standard Time),181227.10000000894,A,sugar,O,r,181,1,1149.2000000029802,180077.90000000596,7748,WL,C,4.0
1,10.046000003814697,learn,49953.9999961853,Wed Feb 25 2026 10:50:01 GMT-0600 (Central Standard Time),182411.20000000298,A,sugarenter,O,enter,1163,1,2333.2999999970198,180077.90000000596,7748,WL,C,4.0
1,11.546000003814697,learn,48453.9999961853,Wed Feb 25 2026 10:50:01 GMT-0600 (Central Standard Time),183910.90000000596,A,b,O,b,1481,1,1499.4000000059605,182411.5,7748,WL,C,5.0
1,11.815000057220459,learn,48184.99994277954,Wed Feb 25 2026 10:50:01 GMT-0600 (Central Standard Time),184179.70000000298,A,bo,O,o,264,1,1768.2000000029802,182411.5,7748,WL,C,5.0
1,12.180000066757202,learn,47819.9999332428,Wed Feb 25 2026 10:50:01 GMT-0600 (Central Standard Time),184544.79999999702,A,boy,O,y,343,1,2133.2999999970198,182411.5,7748,WL,C,5.0
1,13.361000061035156,learn,46638.999938964844,Wed Feb 25 2026 10:50:01 GMT-0600 (Central Standard Time),185726.10000000894,A,boyenter,O,enter,1170,1,3314.6000000089407,182411.5,7748,WL,C,5.0
1,14.611000061035156,learn,45388.999938964844,Wed Feb 25 2026 10:50:01 GMT-0600 (Central Standard Time),186975.60000000894,A,c,O,c,1239,1,1249.2000000029802,185726.40000000596,7748,WL,C,6.0
1,14.861000061035156,learn,45138.999938964844,Wed Feb 25 2026 10:50:01 GMT-0600 (Central Standard Time),187226.29999999702,A,ca,O,a,244,1,1499.8999999910593,185726.40000000596,7748,WL,C,6.0
1,15.028000116348267,learn,44971.99988365173,Wed Feb 25 2026 10:50:01 GMT-0600 (Central Standard Time),187392.70000000298,A,cam,O,m,155,1,1666.2999999970198,185726.40000000596,7748,WL,C,6.0
1,15.344000101089478,learn,44655.99989891052,Wed Feb 25 2026 10:50:01 GMT-0600 (Central Standard Time),187708.79999999702,A,camp,O,p,298,1,1982.3999999910593,185726.40000000596,7748,WL,C,6.0
1,15.67799997329712,learn,44322.00002670288,Wed Feb 25 2026 10:50:01 GMT-0600 (Central Standard Time),188042.70000000298,A,campenter,O,enter,312,1,2316.2999999970198,185726.40000000596,7748,WL,C,6.0
1,15.960000038146973,learn,44039.99996185303,Wed Feb 25 2026 10:50:01 GMT-0600 (Central Standard Time),188325.40000000596,A,d,O,d,272,1,282.40000000596046,188043.0,7748,WL,C,7.0
1,16.127000093460083,learn,43872.99990653992,Wed Feb 25 2026 10:50:01 GMT-0600 (Central Standard Time),188492.10000000894,A,do,O,o,145,1,449.1000000089407,188043.0,7748,WL,C,7.0
1,16.24399995803833,learn,43756.00004196167,Wed Feb 25 2026 10:50:01 GMT-0600 (Central Standard Time),188609.0,A,doc,O,c,113,1,566.0,188043.0,7748,WL,C,7.0
1,17.108999967575073,learn,42891.00003242493,Wed Feb 25 2026 10:50:01 GMT-0600 (Central Standard Time),189473.40000000596,A,doct,O,t,857,1,1430.4000000059605,188043.0,7748,WL,C,7.0
1,17.276000022888184,learn,42723.99997711182,Wed Feb 25 2026 10:50:01 GMT-0600 (Central Standard Time),189641.0,A,docto,O,o,163,1,1598.0,188043.0,7748,WL,C,7.0
1,17.427000045776367,learn,42572.99995422363,Wed Feb 25 2026 10:50:01 GMT-0600 (Central Standard Time),189791.5,A,doctor,O,r,141,1,1748.5,188043.0,7748,WL,C,7.0
1,17.763000011444092,learn,42236.99998855591,Wed Feb 25 2026 10:50:01 GMT-0600 (Central Standard Time),190127.5,A,doctorenter,O,enter,325,1,2084.5,188043.0,7748,WL,C,7.0
1,18.042999982833862,learn,41957.00001716614,Wed Feb 25 2026 10:50:01 GMT-0600 (Central Standard Time),190407.70000000298,A,f,O,f,267,1,279.79999999701977,190127.90000000596,7748,WL,C,8.0
1,18.192000150680542,learn,41807.99984931946,Wed Feb 25 2026 10:50:01 GMT-0600 (Central Standard Time),190557.20000000298,A,fl,O,l,141,1,429.29999999701977,190127.90000000596,7748,WL,C,8.0
1,18.3270001411438,learn,41672.9998588562,Wed Feb 25 2026 10:50:01 GMT-0600 (Central Standard Time),190691.5,A,fla,O,a,130,1,563.5999999940395,190127.90000000596,7748,WL,C,8.0
1,18.593000173568726,learn,41406.999826431274,Wed Feb 25 2026 10:50:01 GMT-0600 (Central Standard Time),190957.90000000596,A,flag,O,g,249,1,830.0,190127.90000000596,7748,WL,C,8.0
1,18.960999965667725,learn,41039.000034332275,Wed Feb 25 2026 10:50:01 GMT-0600 (Central Standard Time),191325.60000000894,A,flagenter,O,enter,350,1,1197.7000000029802,190127.90000000596,7748,WL,C,8.0
1,19.259000062942505,learn,40740.999937057495,Wed Feb 25 2026 10:50:01 GMT-0600 (Central Standard Time),191624.40000000596,A,s,O,s,294,1,298.40000000596046,191326.0,7748,WL,C,9.0
1,19.460000038146973,learn,40539.99996185303,Wed Feb 25 2026 10:50:01 GMT-0600 (Central Standard Time),191825.10000000894,A,sh,O,h,190,1,499.1000000089407,191326.0,7748,WL,C,9.0
1,19.743000030517578,learn,40256.99996948242,Wed Feb 25 2026 10:50:01 GMT-0600 (Central Standard Time),192107.79999999702,A,sho,O,o,268,1,781.7999999970198,191326.0,7748,WL,C,9.0
1,19.87600016593933,learn,40123.99983406067,Wed Feb 25 2026 10:50:01 GMT-0600 (Central Standard Time),192241.0,A,shor,O,r,128,1,915.0,191326.0,7748,WL,C,9.0
1,19.993000030517578,learn,40006.99996948242,Wed Feb 25 2026 10:50:01 GMT-0600 (Central Standard Time),192357.5,A,shore,O,e,100,1,1031.5,191326.0,7748,WL,C,9.0
1,20.462000131607056,learn,39537.999868392944,Wed Feb 25 2026 10:50:01 GMT-0600 (Central Standard Time),192826.5,A,shoreenter,O,enter,446,1,1500.5,191326.0,7748,WL,C,9.0
1,20.778000116348267,learn,39221.99988365173,Wed Feb 25 2026 10:50:01 GMT-0600 (Central Standard Time),193143.10000000894,A,b,O,b,298,1,316.30000001192093,192826.79999999702,7748,WL,C,10.0
1,20.927000045776367,learn,39072.99995422363,Wed Feb 25 2026 10:50:01 GMT-0600 (Central Standard Time),193292.20000000298,A,bo,O,o,132,1,465.40000000596046,192826.79999999702,7748,WL,C,10.0
1,21.092000007629395,learn,38907.999992370605,Wed Feb 25 2026 10:50:01 GMT-0600 (Central Standard Time),193456.70000000298,A,bod,O,d,153,1,629.9000000059605,192826.79999999702,7748,WL,C,10.0
1,21.259999990463257,learn,38740.00000953674,Wed Feb 25 2026 10:50:01 GMT-0600 (Central Standard Time),193624.60000000894,A,body,O,y,157,1,797.8000000119209,192826.79999999702,7748,WL,C,10.0
1,22.175000190734863,learn,37824.99980926514,Wed Feb 25 2026 10:50:01 GMT-0600 (Central Standard Time),194540.0,A,bodyenter,O,enter,908,1,1713.2000000029802,192826.79999999702,7748,WL,C,10.0
1,22.858999967575073,learn,37141.00003242493,Wed Feb 25 2026 10:50:01 GMT-0600 (Central Standard Time),195223.70000000298,A,c,O,c,665,1,683.5,194540.20000000298,7748,WL,C,11.0
1,22.975000143051147,learn,37024.99985694885,Wed Feb 25 2026 10:50:01 GMT-0600 (Central Standard Time),195340.0,A,co,O,o,108,1,799.7999999970198,194540.20000000298,7748,WL,C,11.0
1,23.127000093460083,learn,36872.99990653992,Wed Feb 25 2026 10:50:01 GMT-0600 (Central Standard Time),195492.29999999702,A,cor,O,r,147,1,952.0999999940395,194540.20000000298,7748,WL,C,11.0
1,23.34000015258789,learn,36659.99984741211,Wed Feb 25 2026 10:50:01 GMT-0600 (Central Standard Time),195704.79999999702,A,corn,O,n,199,1,1164.5999999940395,194540.20000000298,7748,WL,C,11.0
1,23.64199995994568,learn,36358.00004005432,Wed Feb 25 2026 10:50:01 GMT-0600 (Central Standard Time),196006.60000000894,A,cornenter,O,enter,293,1,1466.4000000059605,194540.20000000298,7748,WL,C,11.0
1,23.97699999809265,learn,36023.00000190735,Wed Feb 25 2026 10:50:01 GMT-0600 (Central Standard Time),196341.60000000894,A,n,O,n,330,1,334.70000000298023,196006.90000000596,7748,WL,C,12.0
1,24.092000007629395,learn,35907.999992370605,Wed Feb 25 2026 10:50:01 GMT-0600 (Central Standard Time),196456.60000000894,A,na,O,a,96,1,449.70000000298023,196006.90000000596,7748,WL,C,12.0
1,24.256999969482422,learn,35743.00003051758,Wed Feb 25 2026 10:50:01 GMT-0600 (Central Standard Time),196622.10000000894,A,nai,O,i,154,1,615.2000000029802,196006.90000000596,7748,WL,C,12.0
1,24.492000102996826,learn,35507.999897003174,Wed Feb 25 2026 10:50:01 GMT-0600 (Central Standard Time),196856.5,A,nail,O,l,221,1,849.5999999940395,196006.90000000596,7748,WL,C,12.0
1,24.77500009536743,learn,35224.99990463257,Wed Feb 25 2026 10:50:01 GMT-0600 (Central Standard Time),197139.60000000894,A,nailenter,O,enter,276,1,1132.7000000029802,196006.90000000596,7748,WL,C,12.0
1,32.47500014305115,learn,27524.999856948853,Wed Feb 25 2026 10:50:01 GMT-0600 (Central Standard Time),204840.0,A,c,O,c,7690,1,7700.0999999940395,197139.90000000596,7748,WL,C,13.0
1,32.687999963760376,learn,27312.000036239624,Wed Feb 25 2026 10:50:01 GMT-0600 (Central Standard Time),205052.60000000894,A,ca,O,a,205,1,7912.70000000298,197139.90000000596,7748,WL,C,13.0
1,33.03800010681152,learn,26961.999893188477,Wed Feb 25 2026 10:50:01 GMT-0600 (Central Standard Time),205402.5,A,cat,O,t,336,1,8262.59999999404,197139.90000000596,7748,WL,C,13.0
1,33.18900012969971,learn,26810.999870300293,Wed Feb 25 2026 10:50:01 GMT-0600 (Central Standard Time),205554.10000000894,A,catt,O,t,138,1,8414.20000000298,197139.90000000596,7748,WL,C,13.0
1,33.37100005149841,learn,26628.999948501587,Wed Feb 25 2026 10:50:01 GMT-0600 (Central Standard Time),205736.20000000298,A,cattl,O,l,161,1,8596.29999999702,197139.90000000596,7748,WL,C,13.0
1,33.455000162124634,learn,26544.999837875366,Wed Feb 25 2026 10:50:01 GMT-0600 (Central Standard Time),205819.5,A,cattle,O,e,78,1,8679.59999999404,197139.90000000596,7748,WL,C,13.0
1,33.6560001373291,learn,26343.9998626709,Wed Feb 25 2026 10:50:01 GMT-0600 (Central Standard Time),206020.70000000298,A,cattleenter,O,enter,195,1,8880.79999999702,197139.90000000596,7748,WL,C,13.0
1,51.64900016784668,learn,8350.99983215332,Wed Feb 25 2026 10:50:01 GMT-0600 (Central Standard Time),224014.0,A,d,O,d,17982,1,17993.09999999404,206020.90000000596,7748,WL,C,14.0
1,52.098999977111816,learn,7901.000022888184,Wed Feb 25 2026 10:50:01 GMT-0600 (Central Standard Time),224464.20000000298,A,do,O,o,439,1,18443.29999999702,206020.90000000596,7748,WL,C,14.0
1,52.29900002479553,learn,7700.999975204468,Wed Feb 25 2026 10:50:01 GMT-0600 (Central Standard Time),224663.79999999702,A,doc,O,c,180,1,18642.89999999106,206020.90000000596,7748,WL,C,14.0
1,52.65000009536743,learn,7349.999904632568,Wed Feb 25 2026 10:50:01 GMT-0600 (Central Standard Time),225014.5,A,doco,O,o,341,1,18993.59999999404,206020.90000000596,7748,WL,C,14.0
1,52.81500005722046,learn,7184.999942779541,Wed Feb 25 2026 10:50:01 GMT-0600 (Central Standard Time),225180.20000000298,A,docor,O,r,152,1,19159.29999999702,206020.90000000596,7748,WL,C,14.0
1,53.199000120162964,learn,6800.999879837036,Wed Feb 25 2026 10:50:01 GMT-0600 (Central Standard Time),225564.29999999702,A,doco,O,backspace,370,1,19543.39999999106,206020.90000000596,7748,WL,C,14.0
1,53.367000102996826,learn,6632.999897003174,Wed Feb 25 2026 10:50:01 GMT-0600 (Central Standard Time),225731.70000000298,A,doc,O,backspace,162,1,19710.79999999702,206020.90000000596,7748,WL,C,14.0
1,53.46500015258789,learn,6534.999847412109,Wed Feb 25 2026 10:50:01 GMT-0600 (Central Standard Time),225830.0,A,doct,O,t,80,1,19809.09999999404,206020.90000000596,7748,WL,C,14.0
1,53.61500000953674,learn,6384.999990463257,Wed Feb 25 2026 10:50:01 GMT-0600 (Central Standard Time),225980.20000000298,A,docto,O,o,142,1,19959.29999999702,206020.90000000596,7748,WL,C,14.0
1,53.73200011253357,learn,6267.999887466431,Wed Feb 25 2026 10:50:01 GMT-0600 (Central Standard Time),226096.90000000596,A,doctor,O,r,105,1,20076.0,206020.90000000596,7748,WL,C,14.0
1,53.98200011253357,learn,6017.999887466431,Wed Feb 25 2026 10:50:01 GMT-0600 (Central Standard Time),226346.90000000596,A,doctorenter,O,enter,229,1,20326.0,206020.90000000596,7748,WL,C,14.0
1,57.83300018310547,learn,2166.9998168945312,Wed Feb 25 2026 10:50:01 GMT-0600 (Central Standard Time),230197.60000000894,A,enter,O,enter,3832,1,3850.4000000059605,226347.20000000298,7748,WL,C,15.0
2,1.1349999904632568,learn,58865.00000953674,Wed Feb 25 2026 10:50:01 GMT-0600 (Central Standard Time),305738.5,A,t,O,t,1131,1,1134.7000000029802,304603.799999997,7748,WL,C,1.0
2,1.5350000858306885,learn,58464.99991416931,Wed Feb 25 2026 10:50:01 GMT-0600 (Central Standard Time),306138.5,A,to,O,o,392,1,1534.7000000029802,304603.799999997,7748,WL,C,1.0
2,1.7680001258850098,learn,58231.99987411499,Wed Feb 25 2026 10:50:01 GMT-0600 (Central Standard Time),306371.40000000596,A,tow,O,w,226,1,1767.6000000089407,304603.799999997,7748,WL,C,1.0
2,2.4509999752044678,learn,57549.00002479553,Wed Feb 25 2026 10:50:01 GMT-0600 (Central Standard Time),307054.700000003,A,towe,O,e,671,1,2450.9000000059605,304603.799999997,7748,WL,C,1.0
2,2.634999990463257,learn,57365.00000953674,Wed Feb 25 2026 10:50:01 GMT-0600 (Central Standard Time),307238.5,A,tower,O,r,165,1,2634.7000000029802,304603.799999997,7748,WL,C,1.0
2,3.0329999923706055,learn,56967.000007629395,Wed Feb 25 2026 10:50:01 GMT-0600 (Central Standard Time),307637.0,A,towerenter,O,enter,390,1,3033.2000000029802,304603.799999997,7748,WL,C,1.0
2,3.384000062942505,learn,56615.999937057495,Wed Feb 25 2026 10:50:01 GMT-0600 (Central Standard Time),307987.799999997,A,w,O,w,336,1,350.59999999403954,307637.200000003,7748,WL,C,2.0
2,3.5850000381469727,learn,56414.99996185303,Wed Feb 25 2026 10:50:01 GMT-0600 (Central Standard Time),308188.5,A,wh,O,h,185,1,551.2999999970198,307637.200000003,7748,WL,C,2.0
2,4.317000150680542,learn,55682.99984931946,Wed Feb 25 2026 10:50:01 GMT-0600 (Central Standard Time),308921.10000000894,A,whe,O,e,710,1,1283.9000000059605,307637.200000003,7748,WL,C,2.0
2,4.4670000076293945,learn,55532.999992370605,Wed Feb 25 2026 10:50:01 GMT-0600 (Central Standard Time),309070.5,A,whea,O,a,138,1,1433.2999999970198,307637.200000003,7748,WL,C,2.0
2,4.667999982833862,learn,55332.00001716614,Wed Feb 25 2026 10:50:01 GMT-0600 (Central Standard Time),309271.200000003,A,wheat,O,t,182,1,1634.0,307637.200000003,7748,WL,C,2.0
2,5.133000135421753,learn,54866.99986457825,Wed Feb 25 2026 10:50:01 GMT-0600 (Central Standard Time),309736.299999997,A,wheatenter,O,enter,450,1,2099.0999999940395,307637.200000003,7748,WL,C,2.0
2,5.733000040054321,learn,54266.99995994568,Wed Feb 25 2026 10:50:01 GMT-0600 (Central Standard Time),310336.799999997,A,q,O,q,589,1,600.2999999970198,309736.5,7748,WL,C,3.0
2,5.9670000076293945,learn,54032.999992370605,Wed Feb 25 2026 10:50:01 GMT-0600 (Central Standard Time),310570.700000003,A,qu,O,u,231,1,834.2000000029802,309736.5,7748,WL,C,3.0
2,6.367000102996826,learn,53632.999897003174,Wed Feb 25 2026 10:50:01 GMT-0600 (Central Standard Time),310970.60000000894,A,que,O,e,395,1,1234.1000000089407,309736.5,7748,WL,C,3.0
2,6.517000198364258,learn,53482.99980163574,Wed Feb 25 2026 10:50:01 GMT-0600 (Central Standard Time),311120.40000000596,A,quee,O,e,131,1,1383.9000000059605,309736.5,7748,WL,C,3.0
2,6.733999967575073,learn,53266.00003242493,Wed Feb 25 2026 10:50:01 GMT-0600 (Central Standard Time),311337.799999997,A,queen,O,n,196,1,1601.2999999970198,309736.5,7748,WL,C,3.0
2,7.016000032424927,learn,52983.99996757507,Wed Feb 25 2026 10:50:01 GMT-0600 (Central Standard Time),311620.0,A,queenenter,O,enter,265,1,1883.5,309736.5,7748,WL,C,3.0
2,7.367000102996826,learn,52632.999897003174,Wed Feb 25 2026 10:50:01 GMT-0600 (Central Standard Time),311970.90000000596,A,h,O,h,329,1,350.70000000298023,311620.200000003,7748,WL,C,4.0
2,7.716000080108643,learn,52283.99991989136,Wed Feb 25 2026 10:50:01 GMT-0600 (Central Standard Time),312319.700000003,A,ho,O,o,329,1,699.5,311620.200000003,7748,WL,C,4.0
2,8.265000104904175,learn,51734.999895095825,Wed Feb 25 2026 10:50:01 GMT-0600 (Central Standard Time),312868.60000000894,A,hom,O,m,541,1,1248.4000000059605,311620.200000003,7748,WL,C,4.0
2,8.466000080108643,learn,51533.99991989136,Wed Feb 25 2026 10:50:01 GMT-0600 (Central Standard Time),313069.10000000894,A,home,O,e,185,1,1448.9000000059605,311620.200000003,7748,WL,C,4.0
2,9.617000102996826,learn,50382.999897003174,Wed Feb 25 2026 10:50:01 GMT-0600 (Central Standard Time),314220.799999997,A,homeenter,O,enter,1147,1,2600.5999999940395,311620.200000003,7748,WL,C,4.0
2,9.966000080108643,learn,50033.99991989136,Wed Feb 25 2026 10:50:01 GMT-0600 (Central Standard Time),314569.299999997,A,s,O,s,328,1,348.19999998807907,314221.10000000894,7748,WL,C,5.0
2,10.083000183105469,learn,49916.99981689453,Wed Feb 25 2026 10:50:01 GMT-0600 (Central Standard Time),314686.90000000596,A,su,O,u,108,1,465.79999999701977,314221.10000000894,7748,WL,C,5.0
2,10.25,learn,49750.0,Wed Feb 25 2026 10:50:01 GMT-0600 (Central Standard Time),314853.60000000894,A,sug,O,g,161,1,632.5,314221.10000000894,7748,WL,C,5.0
2,10.433000087738037,learn,49566.99991226196,Wed Feb 25 2026 10:50:01 GMT-0600 (Central Standard Time),315036.5,A,suga,O,a,168,1,815.3999999910593,314221.10000000894,7748,WL,C,5.0
2,10.582000017166138,learn,49417.99998283386,Wed Feb 25 2026 10:50:01 GMT-0600 (Central Standard Time),315186.0,A,sugar,O,r,145,1,964.8999999910593,314221.10000000894,7748,WL,C,5.0
2,10.848000049591064,learn,49151.999950408936,Wed Feb 25 2026 10:50:01 GMT-0600 (Central Standard Time),315451.799999997,A,sugarenter,O,enter,251,1,1230.699999988079,314221.10000000894,7748,WL,C,5.0
2,11.230000019073486,learn,48769.999980926514,Wed Feb 25 2026 10:50:01 GMT-0600 (Central Standard Time),315833.90000000596,A,b,O,b,368,1,381.79999999701977,315452.10000000894,7748,WL,C,6.0
2,11.348000049591064,learn,48651.999950408936,Wed Feb 25 2026 10:50:01 GMT-0600 (Central Standard Time),315951.299999997,A,bo,O,o,107,1,499.19999998807907,315452.10000000894,7748,WL,C,6.0
2,11.950000047683716,learn,48049.999952316284,Wed Feb 25 2026 10:50:01 GMT-0600 (Central Standard Time),316553.10000000894,A,boy,O,y,597,1,1101.0,315452.10000000894,7748,WL,C,6.0
2,12.21399998664856,learn,47786.00001335144,Wed Feb 25 2026 10:50:01 GMT-0600 (Central Standard Time),316818.0,A,boyenter,O,enter,261,1,1365.8999999910593,315452.10000000894,7748,WL,C,6.0
2,12.531000137329102,learn,47468.9998626709,Wed Feb 25 2026 10:50:01 GMT-0600 (Central Standard Time),317134.5,A,d,O,d,307,1,316.29999999701977,316818.200000003,7748,WL,C,7.0
2,12.664000034332275,learn,47335.999965667725,Wed Feb 25 2026 10:50:01 GMT-0600 (Central Standard Time),317267.200000003,A,do,O,o,126,1,449.0,316818.200000003,7748,WL,C,7.0
2,12.88100004196167,learn,47118.99995803833,Wed Feb 25 2026 10:50:01 GMT-0600 (Central Standard Time),317484.90000000596,A,doc,O,c,200,1,666.7000000029802,316818.200000003,7748,WL,C,7.0
2,13.34600019454956,learn,46653.99980545044,Wed Feb 25 2026 10:50:01 GMT-0600 (Central Standard Time),317949.90000000596,A,doct,O,t,453,1,1131.7000000029802,316818.200000003,7748,WL,C,7.0
2,13.529000043869019,learn,46470.99995613098,Wed Feb 25 2026 10:50:01 GMT-0600 (Central Standard Time),318132.799999997,A,docto,O,o,174,1,1314.5999999940395,316818.200000003,7748,WL,C,7.0
2,13.662000179290771,learn,46337.99982070923,Wed Feb 25 2026 10:50:01 GMT-0600 (Central Standard Time),318266.0,A,doctor,O,r,120,1,1447.7999999970198,316818.200000003,7748,WL,C,7.0
2,13.996999979019165,learn,46003.000020980835,Wed Feb 25 2026 10:50:01 GMT-0600 (Central Standard Time),318600.299999997,A,doctorenter,O,enter,315,1,1782.0999999940395,316818.200000003,7748,WL,C,7.0
2,14.229000091552734,learn,45770.999908447266,Wed Feb 25 2026 10:50:01 GMT-0600 (Central Standard Time),318833.0,A,c,O,c,220,1,232.59999999403954,318600.40000000596,7748,WL,C,8.0
2,14.364000082015991,learn,45635.99991798401,Wed Feb 25 2026 10:50:01 GMT-0600 (Central Standard Time),318967.5,A,ca,O,a,117,1,367.09999999403954,318600.40000000596,7748,WL,C,8.0
2,14.496000051498413,learn,45503.99994850159,Wed Feb 25 2026 10:50:01 GMT-0600 (Central Standard Time),319099.90000000596,A,cam,O,m,117,1,499.5,318600.40000000596,7748,WL,C,8.0
2,14.696000099182129,learn,45303.99990081787,Wed Feb 25 2026 10:50:01 GMT-0600 (Central Standard Time),319299.700000003,A,camp,O,p,185,1,699.2999999970198,318600.40000000596,7748,WL,C,8.0
2,14.979000091552734,learn,45020.999908447266,Wed Feb 25 2026 10:50:01 GMT-0600 (Central Standard Time),319582.299999997,A,campenter,O,enter,265,1,981.8999999910593,318600.40000000596,7748,WL,C,8.0
2,15.246999979019165,learn,44753.000020980835,Wed Feb 25 2026 10:50:01 GMT-0600 (Central Standard Time),319850.60000000894,A,f,O,f,256,1,268.1000000089407,319582.5,7748,WL,C,9.0
2,15.413000106811523,learn,44586.99989318848,Wed Feb 25 2026 10:50:01 GMT-0600 (Central Standard Time),320016.799999997,A,fl,O,l,146,1,434.29999999701977,319582.5,7748,WL,C,9.0
2,15.514000177383423,learn,44485.99982261658,Wed Feb 25 2026 10:50:01 GMT-0600 (Central Standard Time),320117.60000000894,A,fla,O,a,94,1,535.1000000089407,319582.5,7748,WL,C,9.0
2,15.913000106811523,learn,44086.99989318848,Wed Feb 25 2026 10:50:01 GMT-0600 (Central Standard Time),320516.799999997,A,flag,O,g,382,1,934.2999999970198,319582.5,7748,WL,C,9.0
2,16.27900004386902,learn,43720.99995613098,Wed Feb 25 2026 10:50:01 GMT-0600 (Central Standard Time),320882.5,A,flagenter,O,enter,361,1,1300.0,319582.5,7748,WL,C,9.0
2,16.578999996185303,learn,43421.0000038147,Wed Feb 25 2026 10:50:01 GMT-0600 (Central Standard Time),321182.200000003,A,l,O,l,289,1,299.5,320882.700000003,7748,WL,C,10.0
2,16.763000011444092,learn,43236.99998855591,Wed Feb 25 2026 10:50:01 GMT-0600 (Central Standard Time),321366.299999997,A,le,O,e,168,1,483.59999999403954,320882.700000003,7748,WL,C,10.0
2,17.09600019454956,learn,42903.99980545044,Wed Feb 25 2026 10:50:01 GMT-0600 (Central Standard Time),321699.40000000596,A,let,O,t,316,1,816.7000000029802,320882.700000003,7748,WL,C,10.0
2,17.213000059127808,learn,42786.99994087219,Wed Feb 25 2026 10:50:01 GMT-0600 (Central Standard Time),321816.299999997,A,lett,O,t,107,1,933.5999999940395,320882.700000003,7748,WL,C,10.0
2,17.44600009918213,learn,42553.99990081787,Wed Feb 25 2026 10:50:01 GMT-0600 (Central Standard Time),322049.200000003,A,lette,O,e,221,1,1166.5,320882.700000003,7748,WL,C,10.0
2,17.496000051498413,learn,42503.99994850159,Wed Feb 25 2026 10:50:01 GMT-0600 (Central Standard Time),322099.10000000894,A,letter,O,r,35,1,1216.4000000059605,320882.700000003,7748,WL,C,10.0
2,17.978000164031982,learn,42021.99983596802,Wed Feb 25 2026 10:50:01 GMT-0600 (Central Standard Time),322581.299999997,A,letterenter,O,enter,472,1,1698.5999999940395,320882.700000003,7748,WL,C,10.0
2,18.41200017929077,learn,41587.99982070923,Wed Feb 25 2026 10:50:01 GMT-0600 (Central Standard Time),323015.5,A,c,O,c,424,1,434.0,322581.5,7748,WL,C,11.0
2,18.563000202178955,learn,41436.999797821045,Wed Feb 25 2026 10:50:01 GMT-0600 (Central Standard Time),323166.799999997,A,co,O,o,142,1,585.2999999970198,322581.5,7748,WL,C,11.0
2,18.712000131607056,learn,41287.999868392944,Wed Feb 25 2026 10:50:01 GMT-0600 (Central Standard Time),323316.0,A,cor,O,r,143,1,734.5,322581.5,7748,WL,C,11.0
2,18.897000074386597,learn,41102.9999256134,Wed Feb 25 2026 10:50:01 GMT-0600 (Central Standard Time),323500.299999997,A,corn,O,n,167,1,918.7999999970198,322581.5,7748,WL,C,11.0
2,19.146000146865845,learn,40853.999853134155,Wed Feb 25 2026 10:50:01 GMT-0600 (Central Standard Time),323749.60000000894,A,cornenter,O,enter,240,1,1168.1000000089407,322581.5,7748,WL,C,11.0
2,19.41100001335144,learn,40588.99998664856,Wed Feb 25 2026 10:50:01 GMT-0600 (Central Standard Time),324015.0,A,n,O,n,256,1,265.20000000298023,323749.799999997,7748,WL,C,12.0
2,19.513000011444092,learn,40486.99998855591,Wed Feb 25 2026 10:50:01 GMT-0600 (Central Standard Time),324116.200000003,A,na,O,a,87,1,366.40000000596046,323749.799999997,7748,WL,C,12.0
2,19.663000106811523,learn,40336.99989318848,Wed Feb 25 2026 10:50:01 GMT-0600 (Central Standard Time),324266.10000000894,A,nai,O,i,135,1,516.3000000119209,323749.799999997,7748,WL,C,12.0
2,19.894999980926514,learn,40105.000019073486,Wed Feb 25 2026 10:50:01 GMT-0600 (Central Standard Time),324498.60000000894,A,nail,O,l,218,1,748.8000000119209,323749.799999997,7748,WL,C,12.0
2,20.129000186920166,learn,39870.999813079834,Wed Feb 25 2026 10:50:01 GMT-0600 (Central Standard Time),324733.0,A,nailenter,O,enter,222,1,983.2000000029802,323749.799999997,7748,WL,C,12.0
2,20.445000171661377,learn,39554.99982833862,Wed Feb 25 2026 10:50:01 GMT-0600 (Central Standard Time),325048.5,A,c,O,c,301,1,315.29999999701977,324733.200000003,7748,WL,C,13.0
2,20.59500002861023,learn,39404.99997138977,Wed Feb 25 2026 10:50:01 GMT-0600 (Central Standard Time),325198.10000000894,A,ca,O,a,141,1,464.90000000596046,324733.200000003,7748,WL,C,13.0
2,20.894999980926514,learn,39105.000019073486,Wed Feb 25 2026 10:50:01 GMT-0600 (Central Standard Time),325498.5,A,cat,O,t,279,1,765.2999999970198,324733.200000003,7748,WL,C,13.0
2,21.17900013923645,learn,38820.99986076355,Wed Feb 25 2026 10:50:01 GMT-0600 (Central Standard Time),325782.200000003,A,catt,O,t,275,1,1049.0,324733.200000003,7748,WL,C,13.0
2,21.427000045776367,learn,38572.99995422363,Wed Feb 25 2026 10:50:01 GMT-0600 (Central Standard Time),326030.700000003,A,cattl,O,l,229,1,1297.5,324733.200000003,7748,WL,C,13.0
2,21.527000188827515,learn,38472.999811172485,Wed Feb 25 2026 10:50:01 GMT-0600 (Central Standard Time),326130.799999997,A,cattle,O,e,86,1,1397.5999999940395,324733.200000003,7748,WL,C,13.0
2,21.761000156402588,learn,38238.99984359741,Wed Feb 25 2026 10:50:01 GMT-0600 (Central Standard Time),326364.700000003,A,cattleenter,O,enter,218,1,1631.5,324733.200000003,7748,WL,C,13.0
2,22.443000078201294,learn,37556.999921798706,Wed Feb 25 2026 10:50:01 GMT-0600 (Central Standard Time),327046.90000000596,A,s,O,s,673,1,682.0,326364.90000000596,7748,WL,C,14.0
2,22.861999988555908,learn,37138.00001144409,Wed Feb 25 2026 10:50:01 GMT-0600 (Central Standard Time),327465.799999997,A,sh,O,h,414,1,1100.8999999910593,326364.90000000596,7748,WL,C,14.0
2,23.328999996185303,learn,36671.0000038147,Wed Feb 25 2026 10:50:01 GMT-0600 (Central Standard Time),327932.700000003,A,sho,O,o,457,1,1567.7999999970198,326364.90000000596,7748,WL,C,14.0
2,23.66100001335144,learn,36338.99998664856,Wed Feb 25 2026 10:50:01 GMT-0600 (Central Standard Time),328264.5,A,shor,O,r,321,1,1899.5999999940395,326364.90000000596,7748,WL,C,14.0
2,24.02999997138977,learn,35970.00002861023,Wed Feb 25 2026 10:50:01 GMT-0600 (Central Standard Time),328633.40000000596,A,shore,O,e,365,1,2268.5,326364.90000000596,7748,WL,C,14.0
2,24.511000156402588,learn,35488.99984359741,Wed Feb 25 2026 10:50:01 GMT-0600 (Central Standard Time),329114.40000000596,A,shoreenter,O,enter,477,1,2749.5,326364.90000000596,7748,WL,C,14.0
2,24.844000101089478,learn,35155.99989891052,Wed Feb 25 2026 10:50:01 GMT-0600 (Central Standard Time),329447.5,A,b,O,b,324,1,332.8999999910593,329114.60000000894,7748,WL,C,15.0
2,24.9760000705719,learn,35023.9999294281,Wed Feb 25 2026 10:50:01 GMT-0600 (Central Standard Time),329580.0,A,bo,O,o,124,1,465.3999999910593,329114.60000000894,7748,WL,C,15.0
2,25.276000022888184,learn,34723.99997711182,Wed Feb 25 2026 10:50:01 GMT-0600 (Central Standard Time),329879.40000000596,A,bod,O,d,289,1,764.7999999970198,329114.60000000894,7748,WL,C,15.0
2,25.426000118255615,learn,34573.999881744385,Wed Feb 25 2026 10:50:01 GMT-0600 (Central Standard Time),330029.299999997,A,body,O,y,133,1,914.6999999880791,329114.60000000894,7748,WL,C,15.0
2,26.16000008583069,learn,33839.99991416931,Wed Feb 25 2026 10:50:01 GMT-0600 (Central Standard Time),330764.0,A,bodyenter,O,enter,730,1,1649.3999999910593,329114.60000000894,7748,WL,C,15.0
3,1.1649999618530273,learn,58835.00003814697,Wed Feb 25 2026 10:50:01 GMT-0600 (Central Standard Time),400991.200000003,A,w,O,w,1144,1,1164.0999999940395,399827.10000000894,7748,WL,C,1.0
3,1.5309998989105225,learn,58469.00010108948,Wed Feb 25 2026 10:50:01 GMT-0600 (Central Standard Time),401357.5,A,wh,O,h,353,1,1530.3999999910593,399827.10000000894,7748,WL,C,1.0
3,2.114000082015991,learn,57885.99991798401,Wed Feb 25 2026 10:50:01 GMT-0600 (Central Standard Time),401940.700000003,A,whe,O,e,568,1,2113.5999999940395,399827.10000000894,7748,WL,C,1.0
3,2.2820000648498535,learn,57717.99993515015,Wed Feb 25 2026 10:50:01 GMT-0600 (Central Standard Time),402108.40000000596,A,whea,O,a,152,1,2281.2999999970198,399827.10000000894,7748,WL,C,1.0
3,3.0969998836517334,learn,56903.00011634827,Wed Feb 25 2026 10:50:01 GMT-0600 (Central Standard Time),402923.700000003,A,wheat,O,t,806,1,3096.5999999940395,399827.10000000894,7748,WL,C,1.0
3,4.730000019073486,learn,55269.999980926514,Wed Feb 25 2026 10:50:01 GMT-0600 (Central Standard Time),404556.700000003,A,wheatenter,O,enter,1617,1,4729.5999999940395,399827.10000000894,7748,WL,C,1.0
3,5.330999851226807,learn,54669.00014877319,Wed Feb 25 2026 10:50:01 GMT-0600 (Central Standard Time),405157.60000000894,A,t,O,t,583,1,600.7000000029802,404556.90000000596,7748,WL,C,2.0
3,5.5299999713897705,learn,54470.00002861023,Wed Feb 25 2026 10:50:01 GMT-0600 (Central Standard Time),405356.799999997,A,to,O,o,181,1,799.8999999910593,404556.90000000596,7748,WL,C,2.0
3,5.647000074386597,learn,54352.9999256134,Wed Feb 25 2026 10:50:01 GMT-0600 (Central Standard Time),405473.200000003,A,tow,O,w,102,1,916.2999999970198,404556.90000000596,7748,WL,C,2.0
3,6.0959999561309814,learn,53904.00004386902,Wed Feb 25 2026 10:50:01 GMT-0600 (Central Standard Time),405922.799999997,A,towe,O,e,434,1,1365.8999999910593,404556.90000000596,7748,WL,C,2.0
3,6.2809998989105225,learn,53719.00010108948,Wed Feb 25 2026 10:50:01 GMT-0600 (Central Standard Time),406107.200000003,A,tower,O,r,163,1,1550.2999999970198,404556.90000000596,7748,WL,C,2.0
3,6.596999883651733,learn,53403.00011634827,Wed Feb 25 2026 10:50:01 GMT-0600 (Central Standard Time),406422.90000000596,A,towerenter,O,enter,303,1,1866.0,404556.90000000596,7748,WL,C,2.0
3,7.246000051498413,learn,52753.99994850159,Wed Feb 25 2026 10:50:01 GMT-0600 (Central Standard Time),407072.5,A,q,O,q,629,1,649.3999999910593,406423.10000000894,7748,WL,C,3.0
3,7.629999876022339,learn,52370.00012397766,Wed Feb 25 2026 10:50:01 GMT-0600 (Central Standard Time),407456.10000000894,A,qu,O,u,362,1,1033.0,406423.10000000894,7748,WL,C,3.0
3,8.04699993133545,learn,51953.00006866455,Wed Feb 25 2026 10:50:01 GMT-0600 (Central Standard Time),407873.0,A,que,O,e,413,1,1449.8999999910593,406423.10000000894,7748,WL,C,3.0
3,8.19700002670288,learn,51802.99997329712,Wed Feb 25 2026 10:50:01 GMT-0600 (Central Standard Time),408023.799999997,A,quee,O,e,141,1,1600.699999988079,406423.10000000894,7748,WL,C,3.0
3,8.34500002861023,learn,51654.99997138977,Wed Feb 25 2026 10:50:01 GMT-0600 (Central Standard Time),408171.799999997,A,queen,O,n,132,1,1748.699999988079,406423.10000000894,7748,WL,C,3.0
3,8.645999908447266,learn,51354.000091552734,Wed Feb 25 2026 10:50:01 GMT-0600 (Central Standard Time),408472.10000000894,A,queenenter,O,enter,279,1,2049.0,406423.10000000894,7748,WL,C,3.0
3,9.51199984550476,learn,50488.00015449524,Wed Feb 25 2026 10:50:01 GMT-0600 (Central Standard Time),409338.799999997,A,s,O,s,852,1,866.3999999910593,408472.40000000596,7748,WL,C,4.0
3,9.746000051498413,learn,50253.99994850159,Wed Feb 25 2026 10:50:01 GMT-0600 (Central Standard Time),409571.90000000596,A,su,O,u,230,1,1099.5,408472.40000000596,7748,WL,C,4.0
3,10.096999883651733,learn,49903.00011634827,Wed Feb 25 2026 10:50:01 GMT-0600 (Central Standard Time),409923.200000003,A,sug,O,g,331,1,1450.7999999970198,408472.40000000596,7748,WL,C,4.0
3,10.244999885559082,learn,49755.00011444092,Wed Feb 25 2026 10:50:01 GMT-0600 (Central Standard Time),410071.40000000596,A,suga,O,a,127,1,1599.0,408472.40000000596,7748,WL,C,4.0
3,10.428999900817871,learn,49571.00009918213,Wed Feb 25 2026 10:50:01 GMT-0600 (Central Standard Time),410255.90000000596,A,sugar,O,r,162,1,1783.5,408472.40000000596,7748,WL,C,4.0
3,11.01199984550476,learn,48988.00015449524,Wed Feb 25 2026 10:50:01 GMT-0600 (Central Standard Time),410838.10000000894,A,sugarenter,O,enter,573,1,2365.7000000029802,408472.40000000596,7748,WL,C,4.0
3,11.345999956130981,learn,48654.00004386902,Wed Feb 25 2026 10:50:01 GMT-0600 (Central Standard Time),411172.10000000894,A,h,O,h,329,1,333.80000001192093,410838.299999997,7748,WL,C,5.0
3,11.694999933242798,learn,48305.0000667572,Wed Feb 25 2026 10:50:01 GMT-0600 (Central Standard Time),411521.200000003,A,hm,O,m,338,1,682.9000000059605,410838.299999997,7748,WL,C,5.0
3,12.194999933242798,learn,47805.0000667572,Wed Feb 25 2026 10:50:01 GMT-0600 (Central Standard Time),412021.0,A,h,O,backspace,486,1,1182.7000000029802,410838.299999997,7748,WL,C,5.0
3,12.477999925613403,learn,47522.0000743866,Wed Feb 25 2026 10:50:01 GMT-0600 (Central Standard Time),412304.40000000596,A,ho,O,o,273,1,1466.1000000089407,410838.299999997,7748,WL,C,5.0
3,12.711999893188477,learn,47288.00010681152,Wed Feb 25 2026 10:50:01 GMT-0600 (Central Standard Time),412538.0,A,hom,O,m,225,1,1699.7000000029802,410838.299999997,7748,WL,C,5.0
3,12.944999933242798,learn,47055.0000667572,Wed Feb 25 2026 10:50:01 GMT-0600 (Central Standard Time),412771.799999997,A,home,O,e,216,1,1933.5,410838.299999997,7748,WL,C,5.0
3,13.194999933242798,learn,46805.0000667572,Wed Feb 25 2026 10:50:01 GMT-0600 (Central Standard Time),413021.10000000894,A,homeenter,O,enter,232,1,2182.800000011921,410838.299999997,7748,WL,C,5.0
3,13.49399995803833,learn,46506.00004196167,Wed Feb 25 2026 10:50:01 GMT-0600 (Central Standard Time),413320.200000003,A,b,O,b,286,1,298.90000000596046,413021.299999997,7748,WL,C,6.0
3,13.609999895095825,learn,46390.000104904175,Wed Feb 25 2026 10:50:01 GMT-0600 (Central Standard Time),413436.799999997,A,bo,O,o,100,1,415.5,413021.299999997,7748,WL,C,6.0
3,14.527999877929688,learn,45472.00012207031,Wed Feb 25 2026 10:50:01 GMT-0600 (Central Standard Time),414354.0,A,boy,O,y,913,1,1332.7000000029802,413021.299999997,7748,WL,C,6.0
3,14.976999998092651,learn,45023.00000190735,Wed Feb 25 2026 10:50:01 GMT-0600 (Central Standard Time),414803.299999997,A,boyenter,O,enter,443,1,1782.0,413021.299999997,7748,WL,C,6.0
3,15.32699990272522,learn,44673.00009727478,Wed Feb 25 2026 10:50:01 GMT-0600 (Central Standard Time),415153.0,A,d,O,d,337,1,349.3999999910593,414803.60000000894,7748,WL,C,7.0
3,15.427000045776367,learn,44572.99995422363,Wed Feb 25 2026 10:50:01 GMT-0600 (Central Standard Time),415253.10000000894,A,do,O,o,88,1,449.5,414803.60000000894,7748,WL,C,7.0
3,15.578999996185303,learn,44421.0000038147,Wed Feb 25 2026 10:50:01 GMT-0600 (Central Standard Time),415405.5,A,doc,O,c,136,1,601.8999999910593,414803.60000000894,7748,WL,C,7.0
3,15.793999910354614,learn,44206.000089645386,Wed Feb 25 2026 10:50:01 GMT-0600 (Central Standard Time),415620.200000003,A,doct,O,t,199,1,816.5999999940395,414803.60000000894,7748,WL,C,7.0
3,15.92799997329712,learn,44072.00002670288,Wed Feb 25 2026 10:50:01 GMT-0600 (Central Standard Time),415753.90000000596,A,docto,O,o,117,1,950.2999999970198,414803.60000000894,7748,WL,C,7.0
3,15.993000030517578,learn,44006.99996948242,Wed Feb 25 2026 10:50:01 GMT-0600 (Central Standard Time),415819.200000003,A,doctor,O,r,48,1,1015.5999999940395,414803.60000000894,7748,WL,C,7.0
3,16.376999855041504,learn,43623.000144958496,Wed Feb 25 2026 10:50:01 GMT-0600 (Central Standard Time),416203.90000000596,A,doctorenter,O,enter,370,1,1400.2999999970198,414803.60000000894,7748,WL,C,7.0
3,16.97699999809265,learn,43023.00000190735,Wed Feb 25 2026 10:50:01 GMT-0600 (Central Standard Time),416803.200000003,A,c,O,c,595,1,599.0999999940395,416204.10000000894,7748,WL,C,8.0
3,17.09500002861023,learn,42904.99997138977,Wed Feb 25 2026 10:50:01 GMT-0600 (Central Standard Time),416921.10000000894,A,ca,O,a,104,1,717.0,416204.10000000894,7748,WL,C,8.0
3,17.20899987220764,learn,42791.00012779236,Wed Feb 25 2026 10:50:01 GMT-0600 (Central Standard Time),417035.60000000894,A,cam,O,m,108,1,831.5,416204.10000000894,7748,WL,C,8.0
3,17.375999927520752,learn,42624.00007247925,Wed Feb 25 2026 10:50:01 GMT-0600 (Central Standard Time),417202.90000000596,A,camp,O,p,152,1,998.7999999970198,416204.10000000894,7748,WL,C,8.0
3,17.7739999294281,learn,42226.0000705719,Wed Feb 25 2026 10:50:01 GMT-0600 (Central Standard Time),417601.40000000596,A,campenter,O,enter,386,1,1397.2999999970198,416204.10000000894,7748,WL,C,8.0
3,18.22499990463257,learn,41775.00009536743,Wed Feb 25 2026 10:50:01 GMT-0600 (Central Standard Time),418052.60000000894,A,f,O,f,443,1,450.90000000596046,417601.700000003,7748,WL,C,9.0
3,18.342999935150146,learn,41657.00006484985,Wed Feb 25 2026 10:50:01 GMT-0600 (Central Standard Time),418170.0,A,fl,O,l,110,1,568.2999999970198,417601.700000003,7748,WL,C,9.0
3,18.4760000705719,learn,41523.9999294281,Wed Feb 25 2026 10:50:01 GMT-0600 (Central Standard Time),418303.200000003,A,fla,O,a,115,1,701.5,417601.700000003,7748,WL,C,9.0
3,18.756999969482422,learn,41243.00003051758,Wed Feb 25 2026 10:50:01 GMT-0600 (Central Standard Time),418584.200000003,A,flag,O,g,267,1,982.5,417601.700000003,7748,WL,C,9.0
3,19.075000047683716,learn,40924.999952316284,Wed Feb 25 2026 10:50:01 GMT-0600 (Central Standard Time),418902.200000003,A,flagenter,O,enter,311,1,1300.5,417601.700000003,7748,WL,C,9.0
3,19.876999855041504,learn,40123.000144958496,Wed Feb 25 2026 10:50:01 GMT-0600 (Central Standard Time),419703.90000000596,A,l,O,l,782,1,801.4000000059605,418902.5,7748,WL,C,10.0
3,20.024999856948853,learn,39975.00014305115,Wed Feb 25 2026 10:50:01 GMT-0600 (Central Standard Time),419852.5,A,le,O,e,140,1,950.0,418902.5,7748,WL,C,10.0
3,20.361000061035156,learn,39638.999938964844,Wed Feb 25 2026 10:50:01 GMT-0600 (Central Standard Time),420187.799999997,A,let,O,t,329,1,1285.2999999970198,418902.5,7748,WL,C,10.0
3,20.507999897003174,learn,39492.000102996826,Wed Feb 25 2026 10:50:01 GMT-0600 (Central Standard Time),420335.40000000596,A,lett,O,t,136,1,1432.9000000059605,418902.5,7748,WL,C,10.0
3,20.70899987220764,learn,39291.00012779236,Wed Feb 25 2026 10:50:01 GMT-0600 (Central Standard Time),420536.40000000596,A,lette,O,e,189,1,1633.9000000059605,418902.5,7748,WL,C,10.0
3,21.20799994468689,learn,38792.00005531311,Wed Feb 25 2026 10:50:01 GMT-0600 (Central Standard Time),421035.10000000894,A,letter,O,r,493,1,2132.6000000089407,418902.5,7748,WL,C,10.0
3,21.657999992370605,learn,38342.000007629395,Wed Feb 25 2026 10:50:01 GMT-0600 (Central Standard Time),421484.700000003,A,letterenter,O,enter,430,1,2582.2000000029802,418902.5,7748,WL,C,10.0
3,21.990999937057495,learn,38009.000062942505,Wed Feb 25 2026 10:50:01 GMT-0600 (Central Standard Time),421818.10000000894,A,c,O,c,320,1,333.1000000089407,421485.0,7748,WL,C,11.0
3,22.241999864578247,learn,37758.00013542175,Wed Feb 25 2026 10:50:01 GMT-0600 (Central Standard Time),422068.799999997,A,co,O,o,236,1,583.7999999970198,421485.0,7748,WL,C,11.0
3,22.70799994468689,learn,37292.00005531311,Wed Feb 25 2026 10:50:01 GMT-0600 (Central Standard Time),422535.10000000894,A,cor,O,r,457,1,1050.1000000089407,421485.0,7748,WL,C,11.0
3,22.85699987411499,learn,37143.00012588501,Wed Feb 25 2026 10:50:01 GMT-0600 (Central Standard Time),422683.700000003,A,corn,O,n,141,1,1198.7000000029802,421485.0,7748,WL,C,11.0
3,23.19099998474121,learn,36809.00001525879,Wed Feb 25 2026 10:50:01 GMT-0600 (Central Standard Time),423018.5,A,cornenter,O,enter,329,1,1533.5,421485.0,7748,WL,C,11.0
3,23.491999864578247,learn,36508.00013542175,Wed Feb 25 2026 10:50:01 GMT-0600 (Central Standard Time),423318.799999997,A,n,O,n,290,1,300.0,423018.799999997,7748,WL,C,12.0
3,23.60800004005432,learn,36391.99995994568,Wed Feb 25 2026 10:50:01 GMT-0600 (Central Standard Time),423435.10000000894,A,na,O,a,107,1,416.30000001192093,423018.799999997,7748,WL,C,12.0
3,23.789999961853027,learn,36210.00003814697,Wed Feb 25 2026 10:50:01 GMT-0600 (Central Standard Time),423617.0,A,nai,O,i,160,1,598.2000000029802,423018.799999997,7748,WL,C,12.0
3,24.026999950408936,learn,35973.000049591064,Wed Feb 25 2026 10:50:01 GMT-0600 (Central Standard Time),423854.299999997,A,nail,O,l,231,1,835.5,423018.799999997,7748,WL,C,12.0
3,24.289999961853027,learn,35710.00003814697,Wed Feb 25 2026 10:50:01 GMT-0600 (Central Standard Time),424117.40000000596,A,nailenter,O,enter,255,1,1098.6000000089407,423018.799999997,7748,WL,C,12.0
3,24.69000005722046,learn,35309.99994277954,Wed Feb 25 2026 10:50:01 GMT-0600 (Central Standard Time),424517.299999997,A,c,O,c,392,1,399.59999999403954,424117.700000003,7748,WL,C,13.0
3,24.85699987411499,learn,35143.00012588501,Wed Feb 25 2026 10:50:01 GMT-0600 (Central Standard Time),424683.799999997,A,ca,O,a,152,1,566.0999999940395,424117.700000003,7748,WL,C,13.0
3,25.141000032424927,learn,34858.99996757507,Wed Feb 25 2026 10:50:01 GMT-0600 (Central Standard Time),424968.10000000894,A,cat,O,t,273,1,850.4000000059605,424117.700000003,7748,WL,C,13.0
3,25.27300000190735,learn,34726.99999809265,Wed Feb 25 2026 10:50:01 GMT-0600 (Central Standard Time),425099.799999997,A,catt,O,t,124,1,982.0999999940395,424117.700000003,7748,WL,C,13.0
3,25.490000009536743,learn,34509.99999046326,Wed Feb 25 2026 10:50:01 GMT-0600 (Central Standard Time),425316.799999997,A,cattl,O,l,201,1,1199.0999999940395,424117.700000003,7748,WL,C,13.0
3,25.60599994659424,learn,34394.00005340576,Wed Feb 25 2026 10:50:01 GMT-0600 (Central Standard Time),425433.10000000894,A,cattle,O,e,96,1,1315.4000000059605,424117.700000003,7748,WL,C,13.0
3,25.79099988937378,learn,34209.00011062622,Wed Feb 25 2026 10:50:01 GMT-0600 (Central Standard Time),425618.10000000894,A,cattleenter,O,enter,169,1,1500.4000000059605,424117.700000003,7748,WL,C,13.0
3,26.039000034332275,learn,33960.999965667725,Wed Feb 25 2026 10:50:01 GMT-0600 (Central Standard Time),425866.5,A,s,O,s,236,1,248.29999999701977,425618.200000003,7748,WL,C,14.0
3,26.305999994277954,learn,33694.000005722046,Wed Feb 25 2026 10:50:01 GMT-0600 (Central Standard Time),426133.40000000596,A,sh,O,h,247,1,515.2000000029802,425618.200000003,7748,WL,C,14.0
3,26.4229998588562,learn,33577.0001411438,Wed Feb 25 2026 10:50:01 GMT-0600 (Central Standard Time),426250.0,A,sho,O,o,101,1,631.7999999970198,425618.200000003,7748,WL,C,14.0
3,26.58899998664856,learn,33411.00001335144,Wed Feb 25 2026 10:50:01 GMT-0600 (Central Standard Time),426416.700000003,A,shor,O,r,147,1,798.5,425618.200000003,7748,WL,C,14.0
3,26.638000011444092,learn,33361.99998855591,Wed Feb 25 2026 10:50:01 GMT-0600 (Central Standard Time),426465.200000003,A,shore,O,e,42,1,847.0,425618.200000003,7748,WL,C,14.0
3,27.055999994277954,learn,32944.000005722046,Wed Feb 25 2026 10:50:01 GMT-0600 (Central Standard Time),426882.90000000596,A,shoreb,O,b,404,1,1264.7000000029802,425618.200000003,7748,WL,C,14.0
3,27.155999898910522,learn,32844.00010108948,Wed Feb 25 2026 10:50:01 GMT-0600 (Central Standard Time),426982.700000003,A,shorebo,O,o,80,1,1364.5,425618.200000003,7748,WL,C,14.0
3,27.35599994659424,learn,32644.00005340576,Wed Feb 25 2026 10:50:01 GMT-0600 (Central Standard Time),427182.90000000596,A,shorebod,O,d,180,1,1564.7000000029802,425618.200000003,7748,WL,C,14.0
3,27.67199993133545,learn,32328.00006866455,Wed Feb 25 2026 10:50:01 GMT-0600 (Central Standard Time),427499.40000000596,A,shorebo,O,backspace,302,1,1881.2000000029802,425618.200000003,7748,WL,C,14.0
3,27.855000019073486,learn,32144.999980926514,Wed Feb 25 2026 10:50:01 GMT-0600 (Central Standard Time),427682.5,A,shoreb,O,backspace,169,1,2064.2999999970198,425618.200000003,7748,WL,C,14.0
3,28.039999961853027,learn,31960.000038146973,Wed Feb 25 2026 10:50:01 GMT-0600 (Central Standard Time),427866.700000003,A,shore,O,backspace,161,1,2248.5,425618.200000003,7748,WL,C,14.0
3,28.205999851226807,learn,31794.000148773193,Wed Feb 25 2026 10:50:01 GMT-0600 (Central Standard Time),428033.0,A,shor,O,backspace,153,1,2414.7999999970198,425618.200000003,7748,WL,C,14.0
3,28.855000019073486,learn,31144.999980926514,Wed Feb 25 2026 10:50:01 GMT-0600 (Central Standard Time),428682.60000000894,A,shore,O,e,642,1,3064.4000000059605,425618.200000003,7748,WL,C,14.0
3,29.207000017166138,learn,30792.999982833862,Wed Feb 25 2026 10:50:01 GMT-0600 (Central Standard Time),429033.799999997,A,shoreenter,O,enter,331,1,3415.5999999940395,425618.200000003,7748,WL,C,14.0
3,29.48900008201599,learn,30510.99991798401,Wed Feb 25 2026 10:50:01 GMT-0600 (Central Standard Time),429316.299999997,A,b,O,b,277,1,282.19999998807907,429034.10000000894,7748,WL,C,15.0
3,29.63699984550476,learn,30363.00015449524,Wed Feb 25 2026 10:50:01 GMT-0600 (Central Standard Time),429464.299999997,A,bo,O,o,142,1,430.19999998807907,429034.10000000894,7748,WL,C,15.0
3,29.855000019073486,learn,30144.999980926514,Wed Feb 25 2026 10:50:01 GMT-0600 (Central Standard Time),429682.5,A,bod,O,d,204,1,648.3999999910593,429034.10000000894,7748,WL,C,15.0
3,30.020999908447266,learn,29979.000091552734,Wed Feb 25 2026 10:50:01 GMT-0600 (Central Standard Time),429847.799999997,A,body,O,y,147,1,813.6999999880791,429034.10000000894,7748,WL,C,15.0
3,30.621000051498413,learn,29378.999948501587,Wed Feb 25 2026 10:50:01 GMT-0600 (Central Standard Time),430448.0,A,bodyenter,O,enter,580,1,1413.8999999910593,429034.10000000894,7748,WL,C,15.0
4,1.0490000247955322,learn,58950.99997520447,Wed Feb 25 2026 10:50:01 GMT-0600 (Central Standard Time),499793.299999997,A,t,O,t,1030,1,1049.0999999940395,498744.200000003,7748,WL,C,1.0
4,1.6510000228881836,learn,58348.99997711182,Wed Feb 25 2026 10:50:01 GMT-0600 (Central Standard Time),500395.40000000596,A,tw,O,w,576,1,1651.2000000029802,498744.200000003,7748,WL,C,1.0
4,2.249000072479248,learn,57750.99992752075,Wed Feb 25 2026 10:50:01 GMT-0600 (Central Standard Time),500992.5,A,t,O,backspace,585,1,2248.2999999970198,498744.200000003,7748,WL,C,1.0
4,2.565999984741211,learn,57434.00001525879,Wed Feb 25 2026 10:50:01 GMT-0600 (Central Standard Time),501309.5,A,to,O,o,306,1,2565.2999999970198,498744.200000003,7748,WL,C,1.0
4,2.700000047683716,learn,57299.999952316284,Wed Feb 25 2026 10:50:01 GMT-0600 (Central Standard Time),501443.90000000596,A,tow,O,w,117,1,2699.7000000029802,498744.200000003,7748,WL,C,1.0
4,3.1480000019073486,learn,56851.99999809265,Wed Feb 25 2026 10:50:01 GMT-0600 (Central Standard Time),501891.700000003,A,towe,O,e,432,1,3147.5,498744.200000003,7748,WL,C,1.0
4,3.3330001831054688,learn,56666.99981689453,Wed Feb 25 2026 10:50:01 GMT-0600 (Central Standard Time),502077.0,A,tower,O,r,176,1,3332.7999999970198,498744.200000003,7748,WL,C,1.0
4,3.7970001697540283,learn,56202.99983024597,Wed Feb 25 2026 10:50:01 GMT-0600 (Central Standard Time),502541.200000003,A,towerenter,O,enter,448,1,3797.0,498744.200000003,7748,WL,C,1.0
4,4.515000104904175,learn,55484.999895095825,Wed Feb 25 2026 10:50:01 GMT-0600 (Central Standard Time),503259.299999997,A,w,O,w,704,1,717.7999999970198,502541.5,7748,WL,C,2.0
4,4.831000089645386,learn,55168.999910354614,Wed Feb 25 2026 10:50:01 GMT-0600 (Central Standard Time),503575.0,A,wh,O,h,297,1,1033.5,502541.5,7748,WL,C,2.0
4,5.449000120162964,learn,54550.999879837036,Wed Feb 25 2026 10:50:01 GMT-0600 (Central Standard Time),504193.0,A,whe,O,e,605,1,1651.5,502541.5,7748,WL,C,2.0
4,5.616000175476074,learn,54383.999824523926,Wed Feb 25 2026 10:50:01 GMT-0600 (Central Standard Time),504359.40000000596,A,whea,O,a,145,1,1817.9000000059605,502541.5,7748,WL,C,2.0
4,5.731000185012817,learn,54268.99981498718,Wed Feb 25 2026 10:50:01 GMT-0600 (Central Standard Time),504474.90000000596,A,wheat,O,t,100,1,1933.4000000059605,502541.5,7748,WL,C,2.0
4,6.081000089645386,learn,53918.999910354614,Wed Feb 25 2026 10:50:01 GMT-0600 (Central Standard Time),504825.0,A,wheatenter,O,enter,329,1,2283.5,502541.5,7748,WL,C,2.0
4,6.315999984741211,learn,53684.00001525879,Wed Feb 25 2026 10:50:01 GMT-0600 (Central Standard Time),505060.40000000596,A,q,O,q,228,1,235.1000000089407,504825.299999997,7748,WL,C,3.0
4,6.531000137329102,learn,53468.9998626709,Wed Feb 25 2026 10:50:01 GMT-0600 (Central Standard Time),505274.40000000596,A,qu,O,u,198,1,449.1000000089407,504825.299999997,7748,WL,C,3.0
4,6.914999961853027,learn,53085.00003814697,Wed Feb 25 2026 10:50:01 GMT-0600 (Central Standard Time),505659.299999997,A,que,O,e,375,1,834.0,504825.299999997,7748,WL,C,3.0
4,7.082000017166138,learn,52917.99998283386,Wed Feb 25 2026 10:50:01 GMT-0600 (Central Standard Time),505826.0,A,quee,O,e,149,1,1000.7000000029802,504825.299999997,7748,WL,C,3.0
4,7.213000059127808,learn,52786.99994087219,Wed Feb 25 2026 10:50:01 GMT-0600 (Central Standard Time),505957.0,A,queen,O,n,120,1,1131.7000000029802,504825.299999997,7748,WL,C,3.0
4,7.730000019073486,learn,52269.999980926514,Wed Feb 25 2026 10:50:01 GMT-0600 (Central Standard Time),506474.299999997,A,queenenter,O,enter,503,1,1649.0,504825.299999997,7748,WL,C,3.0
4,8.414000034332275,learn,51585.999965667725,Wed Feb 25 2026 10:50:01 GMT-0600 (Central Standard Time),507157.700000003,A,s,O,s,666,1,683.2000000029802,506474.5,7748,WL,C,4.0
4,8.549000024795532,learn,51450.99997520447,Wed Feb 25 2026 10:50:01 GMT-0600 (Central Standard Time),507292.5,A,su,O,u,118,1,818.0,506474.5,7748,WL,C,4.0
4,8.71500015258789,learn,51284.99984741211,Wed Feb 25 2026 10:50:01 GMT-0600 (Central Standard Time),507459.10000000894,A,sug,O,g,160,1,984.6000000089407,506474.5,7748,WL,C,4.0
4,8.930999994277954,learn,51069.000005722046,Wed Feb 25 2026 10:50:01 GMT-0600 (Central Standard Time),507675.299999997,A,suga,O,a,194,1,1200.7999999970198,506474.5,7748,WL,C,4.0
4,9.082000017166138,learn,50917.99998283386,Wed Feb 25 2026 10:50:01 GMT-0600 (Central Standard Time),507825.5,A,sugar,O,r,131,1,1351.0,506474.5,7748,WL,C,4.0
4,9.44700002670288,learn,50552.99997329712,Wed Feb 25 2026 10:50:01 GMT-0600 (Central Standard Time),508190.700000003,A,sugarenter,O,enter,354,1,1716.2000000029802,506474.5,7748,WL,C,4.0
4,9.764000177383423,learn,50235.99982261658,Wed Feb 25 2026 10:50:01 GMT-0600 (Central Standard Time),508507.90000000596,A,h,O,h,312,1,317.0,508190.90000000596,7748,WL,C,5.0
4,10.064000129699707,learn,49935.99987030029,Wed Feb 25 2026 10:50:01 GMT-0600 (Central Standard Time),508808.10000000894,A,ho,O,o,278,1,617.2000000029802,508190.90000000596,7748,WL,C,5.0
4,10.111999988555908,learn,49888.00001144409,Wed Feb 25 2026 10:50:01 GMT-0600 (Central Standard Time),508856.200000003,A,hom,O,m,27,1,665.2999999970198,508190.90000000596,7748,WL,C,5.0
4,10.629000186920166,learn,49370.999813079834,Wed Feb 25 2026 10:50:01 GMT-0600 (Central Standard Time),509373.200000003,A,home,O,e,501,1,1182.2999999970198,508190.90000000596,7748,WL,C,5.0
4,10.897000074386597,learn,49102.9999256134,Wed Feb 25 2026 10:50:01 GMT-0600 (Central Standard Time),509640.700000003,A,homeenter,O,enter,254,1,1449.7999999970198,508190.90000000596,7748,WL,C,5.0
4,11.164000034332275,learn,48835.999965667725,Wed Feb 25 2026 10:50:01 GMT-0600 (Central Standard Time),509908.200000003,A,b,O,b,260,1,267.29999999701977,509640.90000000596,7748,WL,C,6.0
4,11.279000043869019,learn,48720.99995613098,Wed Feb 25 2026 10:50:01 GMT-0600 (Central Standard Time),510022.799999997,A,bo,O,o,104,1,381.8999999910593,509640.90000000596,7748,WL,C,6.0
4,11.828999996185303,learn,48171.0000038147,Wed Feb 25 2026 10:50:01 GMT-0600 (Central Standard Time),510573.40000000596,A,boy,O,y,531,1,932.5,509640.90000000596,7748,WL,C,6.0
4,12.128000020980835,learn,47871.999979019165,Wed Feb 25 2026 10:50:01 GMT-0600 (Central Standard Time),510871.90000000596,A,boyenter,O,enter,287,1,1231.0,509640.90000000596,7748,WL,C,6.0
4,12.42799997329712,learn,47572.00002670288,Wed Feb 25 2026 10:50:01 GMT-0600 (Central Standard Time),511172.200000003,A,d,O,d,283,1,300.0,510872.200000003,7748,WL,C,7.0
4,12.545000076293945,learn,47454.999923706055,Wed Feb 25 2026 10:50:01 GMT-0600 (Central Standard Time),511289.299999997,A,do,O,o,102,1,417.09999999403954,510872.200000003,7748,WL,C,7.0
4,12.896000146865845,learn,47103.999853134155,Wed Feb 25 2026 10:50:01 GMT-0600 (Central Standard Time),511640.40000000596,A,doc,O,c,329,1,768.2000000029802,510872.200000003,7748,WL,C,7.0
4,13.111999988555908,learn,46888.00001144409,Wed Feb 25 2026 10:50:01 GMT-0600 (Central Standard Time),511855.5,A,doct,O,t,203,1,983.2999999970198,510872.200000003,7748,WL,C,7.0
4,13.249000072479248,learn,46750.99992752075,Wed Feb 25 2026 10:50:01 GMT-0600 (Central Standard Time),511992.90000000596,A,docto,O,o,124,1,1120.7000000029802,510872.200000003,7748,WL,C,7.0
4,13.34500002861023,learn,46654.99997138977,Wed Feb 25 2026 10:50:01 GMT-0600 (Central Standard Time),512089.0,A,doctor,O,r,81,1,1216.7999999970198,510872.200000003,7748,WL,C,7.0
4,13.695000171661377,learn,46304.99982833862,Wed Feb 25 2026 10:50:01 GMT-0600 (Central Standard Time),512439.0,A,doctorenter,O,enter,331,1,1566.7999999970198,510872.200000003,7748,WL,C,7.0
4,13.962000131607056,learn,46037.999868392944,Wed Feb 25 2026 10:50:01 GMT-0600 (Central Standard Time),512705.60000000894,A,c,O,c,246,1,266.40000000596046,512439.200000003,7748,WL,C,8.0
4,14.078999996185303,learn,45921.0000038147,Wed Feb 25 2026 10:50:01 GMT-0600 (Central Standard Time),512822.40000000596,A,ca,O,a,104,1,383.20000000298023,512439.200000003,7748,WL,C,8.0
4,14.196000099182129,learn,45803.99990081787,Wed Feb 25 2026 10:50:01 GMT-0600 (Central Standard Time),512939.700000003,A,cam,O,m,102,1,500.5,512439.200000003,7748,WL,C,8.0
4,14.361999988555908,learn,45638.00001144409,Wed Feb 25 2026 10:50:01 GMT-0600 (Central Standard Time),513105.799999997,A,camp,O,p,152,1,666.5999999940395,512439.200000003,7748,WL,C,8.0
4,14.710999965667725,learn,45289.000034332275,Wed Feb 25 2026 10:50:01 GMT-0600 (Central Standard Time),513454.799999997,A,campenter,O,enter,340,1,1015.5999999940395,512439.200000003,7748,WL,C,8.0
4,15.233000040054321,learn,44766.99995994568,Wed Feb 25 2026 10:50:01 GMT-0600 (Central Standard Time),513977.0,A,l,O,l,519,1,522.0999999940395,513454.90000000596,7748,WL,C,9.0
4,15.413000106811523,learn,44586.99989318848,Wed Feb 25 2026 10:50:01 GMT-0600 (Central Standard Time),514156.40000000596,A,le,O,e,164,1,701.5,513454.90000000596,7748,WL,C,9.0
4,15.795000076293945,learn,44204.999923706055,Wed Feb 25 2026 10:50:01 GMT-0600 (Central Standard Time),514538.700000003,A,let,O,t,367,1,1083.7999999970198,513454.90000000596,7748,WL,C,9.0
4,15.92900013923645,learn,44070.99986076355,Wed Feb 25 2026 10:50:01 GMT-0600 (Central Standard Time),514672.5,A,lett,O,t,123,1,1217.5999999940395,513454.90000000596,7748,WL,C,9.0
4,16.27999997138977,learn,43720.00002861023,Wed Feb 25 2026 10:50:01 GMT-0600 (Central Standard Time),515023.5,A,lette,O,e,332,1,1568.5999999940395,513454.90000000596,7748,WL,C,9.0
4,16.32800006866455,learn,43671.99993133545,Wed Feb 25 2026 10:50:01 GMT-0600 (Central Standard Time),515071.700000003,A,letter,O,r,35,1,1616.7999999970198,513454.90000000596,7748,WL,C,9.0
4,16.710999965667725,learn,43289.000034332275,Wed Feb 25 2026 10:50:01 GMT-0600 (Central Standard Time),515455.0,A,letterenter,O,enter,365,1,2000.0999999940395,513454.90000000596,7748,WL,C,9.0
4,16.979000091552734,learn,43020.999908447266,Wed Feb 25 2026 10:50:01 GMT-0600 (Central Standard Time),515722.5,A,c,O,c,245,1,267.09999999403954,515455.40000000596,7748,WL,C,10.0
4,17.128000020980835,learn,42871.999979019165,Wed Feb 25 2026 10:50:01 GMT-0600 (Central Standard Time),515872.0,A,co,O,o,138,1,416.59999999403954,515455.40000000596,7748,WL,C,10.0
4,17.312000036239624,learn,42687.999963760376,Wed Feb 25 2026 10:50:01 GMT-0600 (Central Standard Time),516055.700000003,A,cor,O,r,174,1,600.2999999970198,515455.40000000596,7748,WL,C,10.0
4,17.462000131607056,learn,42537.999868392944,Wed Feb 25 2026 10:50:01 GMT-0600 (Central Standard Time),516205.60000000894,A,corn,O,n,138,1,750.2000000029802,515455.40000000596,7748,WL,C,10.0
4,17.70900011062622,learn,42290.99988937378,Wed Feb 25 2026 10:50:01 GMT-0600 (Central Standard Time),516453.40000000596,A,cornenter,O,enter,230,1,998.0,515455.40000000596,7748,WL,C,10.0
4,17.99399995803833,learn,42006.00004196167,Wed Feb 25 2026 10:50:01 GMT-0600 (Central Standard Time),516738.10000000894,A,n,O,n,271,1,284.5,516453.60000000894,7748,WL,C,11.0
4,18.127000093460083,learn,41872.99990653992,Wed Feb 25 2026 10:50:01 GMT-0600 (Central Standard Time),516870.799999997,A,na,O,a,118,1,417.19999998807907,516453.60000000894,7748,WL,C,11.0
4,18.261000156402588,learn,41738.99984359741,Wed Feb 25 2026 10:50:01 GMT-0600 (Central Standard Time),517004.700000003,A,nai,O,i,126,1,551.0999999940395,516453.60000000894,7748,WL,C,11.0
4,18.47699999809265,learn,41523.00000190735,Wed Feb 25 2026 10:50:01 GMT-0600 (Central Standard Time),517220.90000000596,A,nail,O,l,208,1,767.2999999970198,516453.60000000894,7748,WL,C,11.0
4,18.7260000705719,learn,41273.9999294281,Wed Feb 25 2026 10:50:01 GMT-0600 (Central Standard Time),517469.90000000596,A,nailenter,O,enter,237,1,1016.2999999970198,516453.60000000894,7748,WL,C,11.0
4,19.0770001411438,learn,40922.9998588562,Wed Feb 25 2026 10:50:01 GMT-0600 (Central Standard Time),517820.799999997,A,c,O,c,343,1,350.69999998807907,517470.10000000894,7748,WL,C,12.0
4,19.243000030517578,learn,40756.99996948242,Wed Feb 25 2026 10:50:01 GMT-0600 (Central Standard Time),517987.200000003,A,ca,O,a,148,1,517.0999999940395,517470.10000000894,7748,WL,C,12.0
4,19.358999967575073,learn,40641.00003242493,Wed Feb 25 2026 10:50:01 GMT-0600 (Central Standard Time),518102.5,A,cat,O,t,95,1,632.3999999910593,517470.10000000894,7748,WL,C,12.0
4,19.5770001411438,learn,40422.9998588562,Wed Feb 25 2026 10:50:01 GMT-0600 (Central Standard Time),518320.700000003,A,catt,O,t,200,1,850.5999999940395,517470.10000000894,7748,WL,C,12.0
4,19.794000148773193,learn,40205.99985122681,Wed Feb 25 2026 10:50:01 GMT-0600 (Central Standard Time),518537.5,A,cattl,O,l,211,1,1067.3999999910593,517470.10000000894,7748,WL,C,12.0
4,19.943000078201294,learn,40056.999921798706,Wed Feb 25 2026 10:50:01 GMT-0600 (Central Standard Time),518687.299999997,A,cattle,O,e,137,1,1217.199999988079,517470.10000000894,7748,WL,C,12.0
4,20.192000150680542,learn,39807.99984931946,Wed Feb 25 2026 10:50:01 GMT-0600 (Central Standard Time),518936.299999997,A,cattleenter,O,enter,228,1,1466.199999988079,517470.10000000894,7748,WL,C,12.0
4,20.480000019073486,learn,39519.999980926514,Wed Feb 25 2026 10:50:01 GMT-0600 (Central Standard Time),519223.700000003,A,s,O,s,276,1,287.09999999403954,518936.60000000894,7748,WL,C,13.0
4,20.759000062942505,learn,39240.999937057495,Wed Feb 25 2026 10:50:01 GMT-0600 (Central Standard Time),519502.799999997,A,sh,O,h,259,1,566.1999999880791,518936.60000000894,7748,WL,C,13.0
4,21.276000022888184,learn,38723.99997711182,Wed Feb 25 2026 10:50:01 GMT-0600 (Central Standard Time),520020.299999997,A,sho,O,o,501,1,1083.699999988079,518936.60000000894,7748,WL,C,13.0
4,21.56000018119812,learn,38439.99981880188,Wed Feb 25 2026 10:50:01 GMT-0600 (Central Standard Time),520303.5,A,shor,O,r,265,1,1366.8999999910593,518936.60000000894,7748,WL,C,13.0
4,21.676000118255615,learn,38323.999881744385,Wed Feb 25 2026 10:50:01 GMT-0600 (Central Standard Time),520420.10000000894,A,shore,O,e,95,1,1483.5,518936.60000000894,7748,WL,C,13.0
4,21.993000030517578,learn,38006.99996948242,Wed Feb 25 2026 10:50:01 GMT-0600 (Central Standard Time),520736.90000000596,A,shoreenter,O,enter,296,1,1800.2999999970198,518936.60000000894,7748,WL,C,13.0
4,22.492000102996826,learn,37507.999897003174,Wed Feb 25 2026 10:50:01 GMT-0600 (Central Standard Time),521236.40000000596,A,b,O,b,492,1,499.29999999701977,520737.10000000894,7748,WL,C,14.0
4,22.608999967575073,learn,37391.00003242493,Wed Feb 25 2026 10:50:01 GMT-0600 (Central Standard Time),521353.10000000894,A,bo,O,o,96,1,616.0,520737.10000000894,7748,WL,C,14.0
4,22.80900001525879,learn,37190.99998474121,Wed Feb 25 2026 10:50:01 GMT-0600 (Central Standard Time),521553.299999997,A,bod,O,d,179,1,816.1999999880791,520737.10000000894,7748,WL,C,14.0
4,22.95900011062622,learn,37040.99988937378,Wed Feb 25 2026 10:50:01 GMT-0600 (Central Standard Time),521702.700000003,A,body,O,y,130,1,965.5999999940395,520737.10000000894,7748,WL,C,14.0
4,23.375,learn,36625.0,Wed Feb 25 2026 10:50:01 GMT-0600 (Central Standard Time),522119.299999997,A,bodyenter,O,enter,396,1,1382.199999988079,520737.10000000894,7748,WL,C,14.0
4,27.47699999809265,learn,32523.00000190735,Wed Feb 25 2026 10:50:01 GMT-0600 (Central Standard Time),526220.6000000089,A,c,O,c,4096,1,4101.100000008941,522119.5,7748,WL,C,15.0
4,27.991000175476074,learn,32008.999824523926,Wed Feb 25 2026 10:50:01 GMT-0600 (Central Standard Time),526734.700000003,A,,O,backspace,503,1,4615.20000000298,522119.5,7748,WL,C,15.0
4,29.04100012779236,learn,30958.99987220764,Wed Feb 25 2026 10:50:01 GMT-0600 (Central Standard Time),527784.799999997,A,c,O,c,1045,1,5665.29999999702,522119.5,7748,WL,C,15.0
4,29.223000049591064,learn,30776.999950408936,Wed Feb 25 2026 10:50:01 GMT-0600 (Central Standard Time),527967.200000003,A,ca,O,a,171,1,5847.70000000298,522119.5,7748,WL,C,15.0
4,29.491000175476074,learn,30508.999824523926,Wed Feb 25 2026 10:50:01 GMT-0600 (Central Standard Time),528234.799999997,A,cat,O,t,262,1,6115.29999999702,522119.5,7748,WL,C,15.0
4,29.641000032424927,learn,30358.999967575073,Wed Feb 25 2026 10:50:01 GMT-0600 (Central Standard Time),528385.299999997,A,catt,O,t,128,1,6265.79999999702,522119.5,7748,WL,C,15.0
4,29.807000160217285,learn,30192.999839782715,Wed Feb 25 2026 10:50:01 GMT-0600 (Central Standard Time),528551.299999997,A,cattl,O,l,145,1,6431.79999999702,522119.5,7748,WL,C,15.0
4,32.50699996948242,learn,27493.000030517578,Wed Feb 25 2026 10:50:01 GMT-0600 (Central Standard Time),531251.299999997,A,catt,O,backspace,2694,1,9131.79999999702,522119.5,7748,WL,C,15.0
4,32.77300000190735,learn,27226.99999809265,Wed Feb 25 2026 10:50:01 GMT-0600 (Central Standard Time),531516.700000003,A,cat,O,backspace,255,1,9397.20000000298,522119.5,7748,WL,C,15.0
4,33.00600004196167,learn,26993.99995803833,Wed Feb 25 2026 10:50:01 GMT-0600 (Central Standard Time),531750.200000003,A,ca,O,backspace,217,1,9630.70000000298,522119.5,7748,WL,C,15.0
4,33.18900012969971,learn,26810.999870300293,Wed Feb 25 2026 10:50:01 GMT-0600 (Central Standard Time),531933.200000003,A,c,O,backspace,164,1,9813.70000000298,522119.5,7748,WL,C,15.0
4,33.373000144958496,learn,26626.999855041504,Wed Feb 25 2026 10:50:01 GMT-0600 (Central Standard Time),532117.1000000089,A,,O,backspace,167,1,9997.60000000894,522119.5,7748,WL,C,15.0
4,33.53800010681152,learn,26461.999893188477,Wed Feb 25 2026 10:50:01 GMT-0600 (Central Standard Time),532282.299999997,A,,O,backspace,149,1,10162.79999999702,522119.5,7748,WL,C,15.0
4,38.60300016403198,learn,21396.999835968018,Wed Feb 25 2026 10:50:01 GMT-0600 (Central Standard Time),537347.6000000089,A,c,O,c,5059,1,15228.10000000894,522119.5,7748,WL,C,15.0
4,38.854000091552734,learn,21145.999908447266,Wed Feb 25 2026 10:50:01 GMT-0600 (Central Standard Time),537598.299999997,A,ca,O,a,232,1,15478.79999999702,522119.5,7748,WL,C,15.0
4,39.16900014877319,learn,20830.999851226807,Wed Feb 25 2026 10:50:01 GMT-0600 (Central Standard Time),537914.1000000089,A,cat,O,t,301,1,15794.60000000894,522119.5,7748,WL,C,15.0
4,39.301000118255615,learn,20698.999881744385,Wed Feb 25 2026 10:50:01 GMT-0600 (Central Standard Time),538046.0,A,catt,O,t,121,1,15926.5,522119.5,7748,WL,C,15.0
4,39.45300006866455,learn,20546.99993133545,Wed Feb 25 2026 10:50:01 GMT-0600 (Central Standard Time),538197.400000006,A,cattl,O,l,144,1,16077.90000000596,522119.5,7748,WL,C,15.0
4,39.55200004577637,learn,20447.999954223633,Wed Feb 25 2026 10:50:01 GMT-0600 (Central Standard Time),538296.299999997,A,cattle,O,e,79,1,16176.79999999702,522119.5,7748,WL,C,15.0
4,39.70099997520447,learn,20299.000024795532,Wed Feb 25 2026 10:50:01 GMT-0600 (Central Standard Time),538445.900000006,A,cattleenter,O,enter,141,1,16326.40000000596,522119.5,7748,WL,C,15.0
5,1.1319999694824219,learn,60000.0,Wed Feb 25 2026 10:50:01 GMT-0600 (Central Standard Time),607158.700000003,A,t,O,t,1123,1,1131.9000000059605,606026.799999997,7748,WL,C,1.0
5,1.6649999618530273,learn,60000.0,Wed Feb 25 2026 10:50:01 GMT-0600 (Central Standard Time),607691.200000003,A,to,O,o,517,1,1664.4000000059605,606026.799999997,7748,WL,C,1.0
5,1.8359999656677246,learn,60000.0,Wed Feb 25 2026 10:50:01 GMT-0600 (Central Standard Time),607862.1000000089,A,tow,O,w,154,1,1835.300000011921,606026.799999997,7748,WL,C,1.0
5,2.1489999294281006,learn,60000.0,Wed Feb 25 2026 10:50:01 GMT-0600 (Central Standard Time),608175.400000006,A,towe,O,e,303,1,2148.6000000089407,606026.799999997,7748,WL,C,1.0
5,2.383999824523926,learn,60000.0,Wed Feb 25 2026 10:50:01 GMT-0600 (Central Standard Time),608410.5,A,tower,O,r,212,1,2383.7000000029802,606026.799999997,7748,WL,C,1.0
5,2.700000047683716,learn,60000.0,Wed Feb 25 2026 10:50:01 GMT-0600 (Central Standard Time),608726.0,A,towerenter,O,enter,295,1,2699.2000000029802,606026.799999997,7748,WL,C,1.0
5,2.9649999141693115,learn,60000.0,Wed Feb 25 2026 10:50:01 GMT-0600 (Central Standard Time),608991.6000000089,A,w,O,w,254,1,264.40000000596046,608727.200000003,7748,WL,C,2.0
5,3.2330000400543213,learn,60000.0,Wed Feb 25 2026 10:50:01 GMT-0600 (Central Standard Time),609259.400000006,A,wh,O,h,262,1,532.2000000029802,608727.200000003,7748,WL,C,2.0
5,3.4489998817443848,learn,60000.0,Wed Feb 25 2026 10:50:01 GMT-0600 (Central Standard Time),609475.0,A,whe,O,e,209,1,747.7999999970198,608727.200000003,7748,WL,C,2.0
5,3.5980000495910645,learn,60000.0,Wed Feb 25 2026 10:50:01 GMT-0600 (Central Standard Time),609624.200000003,A,whea,O,a,138,1,897.0,608727.200000003,7748,WL,C,2.0
5,3.746999979019165,learn,60000.0,Wed Feb 25 2026 10:50:01 GMT-0600 (Central Standard Time),609773.700000003,A,wheat,O,t,133,1,1046.5,608727.200000003,7748,WL,C,2.0
5,4.198999881744385,learn,60000.0,Wed Feb 25 2026 10:50:01 GMT-0600 (Central Standard Time),610225.400000006,A,wheatenter,O,enter,432,1,1498.2000000029802,608727.200000003,7748,WL,C,2.0
5,4.5329999923706055,learn,60000.0,Wed Feb 25 2026 10:50:01 GMT-0600 (Central Standard Time),610559.6000000089,A,q,O,q,315,1,333.90000000596046,610225.700000003,7748,WL,C,3.0
5,4.748999834060669,learn,60000.0,Wed Feb 25 2026 10:50:01 GMT-0600 (Central Standard Time),610775.400000006,A,qu,O,u,196,1,549.7000000029802,610225.700000003,7748,WL,C,3.0
5,5.313999891281128,learn,60000.0,Wed Feb 25 2026 10:50:01 GMT-0600 (Central Standard Time),611340.5,A,que,O,e,555,1,1114.7999999970198,610225.700000003,7748,WL,C,3.0
5,5.480999946594238,learn,60000.0,Wed Feb 25 2026 10:50:01 GMT-0600 (Central Standard Time),611507.299999997,A,quee,O,e,159,1,1281.5999999940395,610225.700000003,7748,WL,C,3.0
5,5.613999843597412,learn,60000.0,Wed Feb 25 2026 10:50:01 GMT-0600 (Central Standard Time),611640.5,A,queen,O,n,117,1,1414.7999999970198,610225.700000003,7748,WL,C,3.0
5,5.997999906539917,learn,60000.0,Wed Feb 25 2026 10:50:01 GMT-0600 (Central Standard Time),612024.1000000089,A,queenenter,O,enter,365,1,1798.4000000059605,610225.700000003,7748,WL,C,3.0
5,6.398000001907349,learn,60000.0,Wed Feb 25 2026 10:50:01 GMT-0600 (Central Standard Time),612424.299999997,A,h,O,h,380,1,399.8999999910593,612024.400000006,7748,WL,C,4.0
5,6.629999876022339,learn,60000.0,Wed Feb 25 2026 10:50:01 GMT-0600 (Central Standard Time),612656.5,A,ho,O,o,219,1,632.0999999940395,612024.400000006,7748,WL,C,4.0
5,7.049000024795532,learn,60000.0,Wed Feb 25 2026 10:50:01 GMT-0600 (Central Standard Time),613075.799999997,A,h,O,backspace,415,1,1051.3999999910593,612024.400000006,7748,WL,C,4.0
5,7.2149999141693115,learn,60000.0,Wed Feb 25 2026 10:50:01 GMT-0600 (Central Standard Time),613241.400000006,A,,O,backspace,152,1,1217.0,612024.400000006,7748,WL,C,4.0
5,7.414000034332275,learn,60000.0,Wed Feb 25 2026 10:50:01 GMT-0600 (Central Standard Time),613440.799999997,A,s,O,s,179,1,1416.3999999910593,612024.400000006,7748,WL,C,4.0
5,7.563999891281128,learn,60000.0,Wed Feb 25 2026 10:50:01 GMT-0600 (Central Standard Time),613590.700000003,A,su,O,u,136,1,1566.2999999970198,612024.400000006,7748,WL,C,4.0
5,7.730999946594238,learn,60000.0,Wed Feb 25 2026 10:50:01 GMT-0600 (Central Standard Time),613757.5,A,sug,O,g,155,1,1733.0999999940395,612024.400000006,7748,WL,C,4.0
5,7.863999843597412,learn,60000.0,Wed Feb 25 2026 10:50:01 GMT-0600 (Central Standard Time),613891.0,A,suga,O,a,114,1,1866.5999999940395,612024.400000006,7748,WL,C,4.0
5,7.996999979019165,learn,60000.0,Wed Feb 25 2026 10:50:01 GMT-0600 (Central Standard Time),614023.200000003,A,sugar,O,r,110,1,1998.7999999970198,612024.400000006,7748,WL,C,4.0
5,8.398000001907349,learn,60000.0,Wed Feb 25 2026 10:50:01 GMT-0600 (Central Standard Time),614424.0,A,sugarenter,O,enter,385,1,2399.5999999940395,612024.400000006,7748,WL,C,4.0
5,8.863999843597412,learn,60000.0,Wed Feb 25 2026 10:50:01 GMT-0600 (Central Standard Time),614890.0,A,h,O,h,461,1,465.70000000298023,614424.299999997,7748,WL,C,5.0
5,9.330999851226807,learn,60000.0,Wed Feb 25 2026 10:50:01 GMT-0600 (Central Standard Time),615357.0,A,ho,O,o,449,1,932.7000000029802,614424.299999997,7748,WL,C,5.0
5,9.447999954223633,learn,60000.0,Wed Feb 25 2026 10:50:01 GMT-0600 (Central Standard Time),615474.5,A,hom,O,m,110,1,1050.2000000029802,614424.299999997,7748,WL,C,5.0
5,9.896999835968018,learn,60000.0,Wed Feb 25 2026 10:50:01 GMT-0600 (Central Standard Time),615923.200000003,A,home,O,e,439,1,1498.9000000059605,614424.299999997,7748,WL,C,5.0
5,10.19599986076355,learn,60000.0,Wed Feb 25 2026 10:50:01 GMT-0600 (Central Standard Time),616222.900000006,A,homeenter,O,enter,278,1,1798.6000000089407,614424.299999997,7748,WL,C,5.0
5,10.662999868392944,learn,60000.0,Wed Feb 25 2026 10:50:01 GMT-0600 (Central Standard Time),616689.400000006,A,b,O,b,453,1,466.29999999701977,616223.1000000089,7748,WL,C,6.0
5,10.779000043869019,learn,60000.0,Wed Feb 25 2026 10:50:01 GMT-0600 (Central Standard Time),616805.900000006,A,bo,O,o,96,1,582.7999999970198,616223.1000000089,7748,WL,C,6.0
5,11.26199984550476,learn,60000.0,Wed Feb 25 2026 10:50:01 GMT-0600 (Central Standard Time),617288.700000003,A,boy,O,y,471,1,1065.5999999940395,616223.1000000089,7748,WL,C,6.0
5,11.579999923706055,learn,60000.0,Wed Feb 25 2026 10:50:01 GMT-0600 (Central Standard Time),617606.200000003,A,boyenter,O,enter,297,1,1383.0999999940395,616223.1000000089,7748,WL,C,6.0
5,11.978999853134155,learn,60000.0,Wed Feb 25 2026 10:50:01 GMT-0600 (Central Standard Time),618005.200000003,A,d,O,d,383,1,398.79999999701977,617606.400000006,7748,WL,C,7.0
5,12.044999837875366,learn,60000.0,Wed Feb 25 2026 10:50:01 GMT-0600 (Central Standard Time),618071.700000003,A,do,O,o,54,1,465.29999999701977,617606.400000006,7748,WL,C,7.0
5,12.414999961853027,learn,60000.0,Wed Feb 25 2026 10:50:01 GMT-0600 (Central Standard Time),618441.6000000089,A,doc,O,c,354,1,835.2000000029802,617606.400000006,7748,WL,C,7.0
5,12.628999948501587,learn,60000.0,Wed Feb 25 2026 10:50:01 GMT-0600 (Central Standard Time),618655.799999997,A,doct,O,t,200,1,1049.3999999910593,617606.400000006,7748,WL,C,7.0
5,12.779000043869019,learn,60000.0,Wed Feb 25 2026 10:50:01 GMT-0600 (Central Standard Time),618805.200000003,A,docto,O,o,138,1,1198.7999999970198,617606.400000006,7748,WL,C,7.0
5,12.881999969482422,learn,60000.0,Wed Feb 25 2026 10:50:01 GMT-0600 (Central Standard Time),618908.200000003,A,doctor,O,r,77,1,1301.7999999970198,617606.400000006,7748,WL,C,7.0
5,13.247999906539917,learn,60000.0,Wed Feb 25 2026 10:50:01 GMT-0600 (Central Standard Time),619274.200000003,A,doctorenter,O,enter,360,1,1667.7999999970198,617606.400000006,7748,WL,C,7.0
5,13.628999948501587,learn,60000.0,Wed Feb 25 2026 10:50:01 GMT-0600 (Central Standard Time),619655.6000000089,A,c,O,c,362,1,381.1000000089407,619274.5,7748,WL,C,8.0
5,13.744999885559082,learn,60000.0,Wed Feb 25 2026 10:50:01 GMT-0600 (Central Standard Time),619771.700000003,A,ca,O,a,99,1,497.20000000298023,619274.5,7748,WL,C,8.0
5,13.865000009536743,learn,60000.0,Wed Feb 25 2026 10:50:01 GMT-0600 (Central Standard Time),619891.799999997,A,cam,O,m,106,1,617.2999999970198,619274.5,7748,WL,C,8.0
5,14.013000011444092,learn,60000.0,Wed Feb 25 2026 10:50:01 GMT-0600 (Central Standard Time),620039.900000006,A,camp,O,p,125,1,765.4000000059605,619274.5,7748,WL,C,8.0
5,14.411999940872192,learn,60000.0,Wed Feb 25 2026 10:50:01 GMT-0600 (Central Standard Time),620438.400000006,A,campenter,O,enter,378,1,1163.9000000059605,619274.5,7748,WL,C,8.0
5,14.746000051498413,learn,60000.0,Wed Feb 25 2026 10:50:01 GMT-0600 (Central Standard Time),620772.400000006,A,f,O,f,329,1,333.79999999701977,620438.6000000089,7748,WL,C,9.0
5,14.895999908447266,learn,60000.0,Wed Feb 25 2026 10:50:01 GMT-0600 (Central Standard Time),620922.799999997,A,fl,O,l,141,1,484.19999998807907,620438.6000000089,7748,WL,C,9.0
5,15.060999870300293,learn,60000.0,Wed Feb 25 2026 10:50:01 GMT-0600 (Central Standard Time),621087.400000006,A,fla,O,a,155,1,648.7999999970198,620438.6000000089,7748,WL,C,9.0
5,15.444999933242798,learn,60000.0,Wed Feb 25 2026 10:50:01 GMT-0600 (Central Standard Time),621471.5,A,flag,O,g,362,1,1032.8999999910593,620438.6000000089,7748,WL,C,9.0
5,16.144999980926514,learn,60000.0,Wed Feb 25 2026 10:50:01 GMT-0600 (Central Standard Time),622170.900000006,A,flagenter,O,enter,676,1,1732.2999999970198,620438.6000000089,7748,WL,C,9.0
5,16.51099991798401,learn,60000.0,Wed Feb 25 2026 10:50:01 GMT-0600 (Central Standard Time),622537.299999997,A,l,O,l,353,1,366.09999999403954,622171.200000003,7748,WL,C,10.0
5,16.710999965667725,learn,60000.0,Wed Feb 25 2026 10:50:01 GMT-0600 (Central Standard Time),622737.400000006,A,le,O,e,186,1,566.2000000029802,622171.200000003,7748,WL,C,10.0
5,17.062999963760376,learn,60000.0,Wed Feb 25 2026 10:50:01 GMT-0600 (Central Standard Time),623089.900000006,A,let,O,t,337,1,918.7000000029802,622171.200000003,7748,WL,C,10.0
5,17.210999965667725,learn,60000.0,Wed Feb 25 2026 10:50:01 GMT-0600 (Central Standard Time),623237.900000006,A,lett,O,t,125,1,1066.7000000029802,622171.200000003,7748,WL,C,10.0
5,17.477999925613403,learn,60000.0,Wed Feb 25 2026 10:50:01 GMT-0600 (Central Standard Time),623504.799999997,A,lette,O,e,247,1,1333.5999999940395,622171.200000003,7748,WL,C,10.0
5,17.509999990463257,learn,60000.0,Wed Feb 25 2026 10:50:01 GMT-0600 (Central Standard Time),623536.1000000089,A,letter,O,r,7,1,1364.9000000059605,622171.200000003,7748,WL,C,10.0
5,18.026000022888184,learn,60000.0,Wed Feb 25 2026 10:50:01 GMT-0600 (Central Standard Time),624052.6000000089,A,letterenter,O,enter,509,1,1881.4000000059605,622171.200000003,7748,WL,C,10.0
5,18.32799983024597,learn,60000.0,Wed Feb 25 2026 10:50:01 GMT-0600 (Central Standard Time),624354.1000000089,A,c,O,c,296,1,301.30000001192093,624052.799999997,7748,WL,C,11.0
5,19.210000038146973,learn,60000.0,Wed Feb 25 2026 10:50:01 GMT-0600 (Central Standard Time),625236.400000006,A,co,O,o,862,1,1183.6000000089407,624052.799999997,7748,WL,C,11.0
5,19.64400005340576,learn,60000.0,Wed Feb 25 2026 10:50:01 GMT-0600 (Central Standard Time),625670.1000000089,A,cor,O,r,416,1,1617.300000011921,624052.799999997,7748,WL,C,11.0
5,19.794999837875366,learn,60000.0,Wed Feb 25 2026 10:50:01 GMT-0600 (Central Standard Time),625821.6000000089,A,corn,O,n,132,1,1768.800000011921,624052.799999997,7748,WL,C,11.0
5,20.14299988746643,learn,60000.0,Wed Feb 25 2026 10:50:01 GMT-0600 (Central Standard Time),626169.900000006,A,cornenter,O,enter,322,1,2117.1000000089407,624052.799999997,7748,WL,C,11.0
5,20.444000005722046,learn,60000.0,Wed Feb 25 2026 10:50:01 GMT-0600 (Central Standard Time),626472.200000003,A,n,O,n,291,1,302.20000000298023,626170.0,7748,WL,C,12.0
5,20.575999975204468,learn,60000.0,Wed Feb 25 2026 10:50:01 GMT-0600 (Central Standard Time),626602.799999997,A,na,O,a,127,1,432.79999999701977,626170.0,7748,WL,C,12.0
5,20.743000030517578,learn,60000.0,Wed Feb 25 2026 10:50:01 GMT-0600 (Central Standard Time),626769.299999997,A,nai,O,i,145,1,599.2999999970198,626170.0,7748,WL,C,12.0
5,20.95899987220764,learn,60000.0,Wed Feb 25 2026 10:50:01 GMT-0600 (Central Standard Time),626985.6000000089,A,nail,O,l,200,1,815.6000000089407,626170.0,7748,WL,C,12.0
5,21.227999925613403,learn,60000.0,Wed Feb 25 2026 10:50:01 GMT-0600 (Central Standard Time),627254.5,A,nailenter,O,enter,246,1,1084.5,626170.0,7748,WL,C,12.0
5,21.526000022888184,learn,60000.0,Wed Feb 25 2026 10:50:01 GMT-0600 (Central Standard Time),627552.0,A,c,O,c,286,1,297.20000000298023,627254.799999997,7748,WL,C,13.0
5,21.710999965667725,learn,60000.0,Wed Feb 25 2026 10:50:01 GMT-0600 (Central Standard Time),627737.200000003,A,ca,O,a,161,1,482.40000000596046,627254.799999997,7748,WL,C,13.0
5,21.941999912261963,learn,60000.0,Wed Feb 25 2026 10:50:01 GMT-0600 (Central Standard Time),627968.700000003,A,cat,O,t,216,1,713.9000000059605,627254.799999997,7748,WL,C,13.0
5,22.092999935150146,learn,60000.0,Wed Feb 25 2026 10:50:01 GMT-0600 (Central Standard Time),628119.0,A,catt,O,t,130,1,864.2000000029802,627254.799999997,7748,WL,C,13.0
5,22.241999864578247,learn,60000.0,Wed Feb 25 2026 10:50:01 GMT-0600 (Central Standard Time),628268.6000000089,A,cattl,O,l,137,1,1013.8000000119209,627254.799999997,7748,WL,C,13.0
5,22.375999927520752,learn,60000.0,Wed Feb 25 2026 10:50:01 GMT-0600 (Central Standard Time),628402.5,A,cattle,O,e,127,1,1147.7000000029802,627254.799999997,7748,WL,C,13.0
5,23.14199995994568,learn,60000.0,Wed Feb 25 2026 10:50:01 GMT-0600 (Central Standard Time),629168.6000000089,A,cattleenter,O,enter,743,1,1913.800000011921,627254.799999997,7748,WL,C,13.0
5,24.85800004005432,learn,60000.0,Wed Feb 25 2026 10:50:01 GMT-0600 (Central Standard Time),630884.299999997,A,s,O,s,1708,1,1715.5,629168.799999997,7748,WL,C,14.0
5,25.092000007629395,learn,60000.0,Wed Feb 25 2026 10:50:01 GMT-0600 (Central Standard Time),631117.900000006,A,sh,O,h,216,1,1949.1000000089407,629168.799999997,7748,WL,C,14.0
5,25.27900004386902,learn,60000.0,Wed Feb 25 2026 10:50:01 GMT-0600 (Central Standard Time),631305.799999997,A,sho,O,o,174,1,2137.0,629168.799999997,7748,WL,C,14.0
5,25.539999961853027,learn,60000.0,Wed Feb 25 2026 10:50:01 GMT-0600 (Central Standard Time),631566.799999997,A,shor,O,r,251,1,2398.0,629168.799999997,7748,WL,C,14.0
5,25.675999879837036,learn,60000.0,Wed Feb 25 2026 10:50:01 GMT-0600 (Central Standard Time),631702.200000003,A,shore,O,e,127,1,2533.4000000059605,629168.799999997,7748,WL,C,14.0
5,26.19099998474121,learn,60000.0,Wed Feb 25 2026 10:50:01 GMT-0600 (Central Standard Time),632217.1000000089,A,shoreb,O,b,507,1,3048.300000011921,629168.799999997,7748,WL,C,14.0
5,26.307999849319458,learn,60000.0,Wed Feb 25 2026 10:50:01 GMT-0600 (Central Standard Time),632334.299999997,A,shorebo,O,o,97,1,3165.5,629168.799999997,7748,WL,C,14.0
5,26.840999841690063,learn,60000.0,Wed Feb 25 2026 10:50:01 GMT-0600 (Central Standard Time),632867.799999997,A,shoreb,O,backspace,518,1,3699.0,629168.799999997,7748,WL,C,14.0
5,27.007999897003174,learn,60000.0,Wed Feb 25 2026 10:50:01 GMT-0600 (Central Standard Time),633034.6000000089,A,shore,O,backspace,162,1,3865.800000011921,629168.799999997,7748,WL,C,14.0
5,28.207000017166138,learn,60000.0,Wed Feb 25 2026 10:50:01 GMT-0600 (Central Standard Time),634233.799999997,A,shoreenter,O,enter,1184,1,5065.0,629168.799999997,7748,WL,C,14.0
5,28.924000024795532,learn,60000.0,Wed Feb 25 2026 10:50:01 GMT-0600 (Central Standard Time),634950.0,A,b,O,b,699,1,715.8999999910593,634234.1000000089,7748,WL,C,15.0
5,29.0239999294281,learn,60000.0,Wed Feb 25 2026 10:50:01 GMT-0600 (Central Standard Time),635050.700000003,A,bo,O,o,84,1,816.5999999940395,634234.1000000089,7748,WL,C,15.0
5,29.274999856948853,learn,60000.0,Wed Feb 25 2026 10:50:01 GMT-0600 (Central Standard Time),635301.0,A,bod,O,d,243,1,1066.8999999910593,634234.1000000089,7748,WL,C,15.0
5,29.4229998588562,learn,60000.0,Wed Feb 25 2026 10:50:01 GMT-0600 (Central Standard Time),635449.799999997,A,body,O,y,132,1,1215.699999988079,634234.1000000089,7748,WL,C,15.0
5,29.7739999294281,learn,60000.0,Wed Feb 25 2026 10:50:01 GMT-0600 (Central Standard Time),635800.700000003,A,bodyenter,O,enter,335,1,1566.5999999940395,634234.1000000089,7748,WL,C,15.0
6,3.1659998893737793,distr,56834.00011062622,Wed Feb 25 2026 10:50:01 GMT-0600 (Central Standard Time),712427.400000006,B,s,O,s,3162,1,3166.4000000059605,709261.0,7748,WL,C,1.0
6,3.3469998836517334,distr,56653.00011634827,Wed Feb 25 2026 10:50:01 GMT-0600 (Central Standard Time),712607.900000006,B,sk,O,k,158,1,3346.9000000059605,709261.0,7748,WL,C,1.0
6,3.6649999618530273,distr,56335.00003814697,Wed Feb 25 2026 10:50:01 GMT-0600 (Central Standard Time),712926.200000003,B,sky,O,y,300,1,3665.2000000029802,709261.0,7748,WL,C,1.0
6,3.996000051498413,distr,56003.99994850159,Wed Feb 25 2026 10:50:01 GMT-0600 (Central Standard Time),713257.700000003,B,skyenter,O,enter,316,1,3996.7000000029802,709261.0,7748,WL,C,1.0
6,4.596999883651733,distr,55403.00011634827,Wed Feb 25 2026 10:50:01 GMT-0600 (Central Standard Time),713858.400000006,B,d,O,d,596,1,600.5,713257.900000006,7748,WL,C,2.0
6,4.797999858856201,distr,55202.0001411438,Wed Feb 25 2026 10:50:01 GMT-0600 (Central Standard Time),714059.0,B,do,O,o,186,1,801.0999999940395,713257.900000006,7748,WL,C,2.0
6,5.114000082015991,distr,54885.99991798401,Wed Feb 25 2026 10:50:01 GMT-0600 (Central Standard Time),714375.400000006,B,dol,O,l,297,1,1117.5,713257.900000006,7748,WL,C,2.0
6,5.247999906539917,distr,54752.00009346008,Wed Feb 25 2026 10:50:01 GMT-0600 (Central Standard Time),714509.1000000089,B,doll,O,l,125,1,1251.2000000029802,713257.900000006,7748,WL,C,2.0
6,5.364000082015991,distr,54635.99991798401,Wed Feb 25 2026 10:50:01 GMT-0600 (Central Standard Time),714625.1000000089,B,dolla,O,a,102,1,1367.2000000029802,713257.900000006,7748,WL,C,2.0
6,5.480000019073486,distr,54519.999980926514,Wed Feb 25 2026 10:50:01 GMT-0600 (Central Standard Time),714740.900000006,B,dollar,O,r,99,1,1483.0,713257.900000006,7748,WL,C,2.0
6,5.69599986076355,distr,54304.00013923645,Wed Feb 25 2026 10:50:01 GMT-0600 (Central Standard Time),714957.5,B,dollarenter,O,enter,209,1,1699.5999999940395,713257.900000006,7748,WL,C,2.0
6,6.230000019073486,distr,53769.999980926514,Wed Feb 25 2026 10:50:01 GMT-0600 (Central Standard Time),715491.0,B,v,O,v,526,1,533.2999999970198,714957.700000003,7748,WL,C,3.0
6,6.378999948501587,distr,53621.00005149841,Wed Feb 25 2026 10:50:01 GMT-0600 (Central Standard Time),715640.400000006,B,va,O,a,129,1,682.7000000029802,714957.700000003,7748,WL,C,3.0
6,6.645999908447266,distr,53354.000091552734,Wed Feb 25 2026 10:50:01 GMT-0600 (Central Standard Time),715907.6000000089,B,val,O,l,247,1,949.9000000059605,714957.700000003,7748,WL,C,3.0
6,6.7799999713897705,distr,53220.00002861023,Wed Feb 25 2026 10:50:01 GMT-0600 (Central Standard Time),716041.200000003,B,vall,O,l,120,1,1083.5,714957.700000003,7748,WL,C,3.0
6,6.963000059127808,distr,53036.99994087219,Wed Feb 25 2026 10:50:01 GMT-0600 (Central Standard Time),716224.5,B,valle,O,e,171,1,1266.7999999970198,714957.700000003,7748,WL,C,3.0
6,7.111999988555908,distr,52888.00001144409,Wed Feb 25 2026 10:50:01 GMT-0600 (Central Standard Time),716372.799999997,B,valley,O,y,131,1,1415.0999999940395,714957.700000003,7748,WL,C,3.0
6,7.996999979019165,distr,52003.000020980835,Wed Feb 25 2026 10:50:01 GMT-0600 (Central Standard Time),717258.6000000089,B,valleyenter,O,enter,872,1,2300.9000000059605,714957.700000003,7748,WL,C,3.0
6,9.513000011444092,distr,50486.99998855591,Wed Feb 25 2026 10:50:01 GMT-0600 (Central Standard Time),718774.700000003,B,c,O,c,1497,1,1515.9000000059605,717258.799999997,7748,WL,C,4.0
6,9.661999940872192,distr,50338.00005912781,Wed Feb 25 2026 10:50:01 GMT-0600 (Central Standard Time),718924.200000003,B,ch,O,h,133,1,1665.4000000059605,717258.799999997,7748,WL,C,4.0
6,9.895999908447266,distr,50104.000091552734,Wed Feb 25 2026 10:50:01 GMT-0600 (Central Standard Time),719157.6000000089,B,chr,O,r,216,1,1898.800000011921,717258.799999997,7748,WL,C,4.0
6,9.997999906539917,distr,50002.00009346008,Wed Feb 25 2026 10:50:01 GMT-0600 (Central Standard Time),719259.5,B,chri,O,i,97,1,2000.7000000029802,717258.799999997,7748,WL,C,4.0
6,10.194999933242798,distr,49805.0000667572,Wed Feb 25 2026 10:50:01 GMT-0600 (Central Standard Time),719456.5,B,chris,O,s,185,1,2197.7000000029802,717258.799999997,7748,WL,C,4.0
6,10.361000061035156,distr,49638.999938964844,Wed Feb 25 2026 10:50:01 GMT-0600 (Central Standard Time),719623.1000000089,B,christ,O,t,156,1,2364.300000011921,717258.799999997,7748,WL,C,4.0
6,10.59500002861023,distr,49404.99997138977,Wed Feb 25 2026 10:50:01 GMT-0600 (Central Standard Time),719856.5,B,christm,O,m,227,1,2597.7000000029802,717258.799999997,7748,WL,C,4.0
6,10.779000043869019,distr,49220.99995613098,Wed Feb 25 2026 10:50:01 GMT-0600 (Central Standard Time),720041.0,B,christma,O,a,164,1,2782.2000000029802,717258.799999997,7748,WL,C,4.0
6,11.128000020980835,distr,48871.999979019165,Wed Feb 25 2026 10:50:01 GMT-0600 (Central Standard Time),720389.799999997,B,christmas,O,s,331,1,3131.0,717258.799999997,7748,WL,C,4.0
6,11.57800006866455,distr,48421.99993133545,Wed Feb 25 2026 10:50:01 GMT-0600 (Central Standard Time),720840.299999997,B,christmasenter,O,enter,434,1,3581.5,717258.799999997,7748,WL,C,4.0
6,11.878000020980835,distr,48121.999979019165,Wed Feb 25 2026 10:50:01 GMT-0600 (Central Standard Time),721140.0,B,t,O,t,279,1,299.3999999910593,720840.6000000089,7748,WL,C,5.0
6,12.296000003814697,distr,47703.9999961853,Wed Feb 25 2026 10:50:01 GMT-0600 (Central Standard Time),721557.799999997,B,to,O,o,396,1,717.1999999880791,720840.6000000089,7748,WL,C,5.0
6,12.410000085830688,distr,47589.99991416931,Wed Feb 25 2026 10:50:01 GMT-0600 (Central Standard Time),721672.200000003,B,too,O,o,109,1,831.5999999940395,720840.6000000089,7748,WL,C,5.0
6,12.661999940872192,distr,47338.00005912781,Wed Feb 25 2026 10:50:01 GMT-0600 (Central Standard Time),721923.400000006,B,tool,O,l,238,1,1082.7999999970198,720840.6000000089,7748,WL,C,5.0
6,13.795000076293945,distr,46204.999923706055,Wed Feb 25 2026 10:50:01 GMT-0600 (Central Standard Time),723056.5,B,toolenter,O,enter,1114,1,2215.8999999910593,720840.6000000089,7748,WL,C,5.0
6,15.075999975204468,distr,44924.00002479553,Wed Feb 25 2026 10:50:01 GMT-0600 (Central Standard Time),724338.1000000089,B,m,O,m,1277,1,1281.300000011921,723056.799999997,7748,WL,C,6.0
6,15.259000062942505,distr,44740.999937057495,Wed Feb 25 2026 10:50:01 GMT-0600 (Central Standard Time),724521.299999997,B,mo,O,o,179,1,1464.5,723056.799999997,7748,WL,C,6.0
6,15.378000020980835,distr,44621.999979019165,Wed Feb 25 2026 10:50:01 GMT-0600 (Central Standard Time),724639.5,B,mon,O,n,107,1,1582.7000000029802,723056.799999997,7748,WL,C,6.0
6,15.575999975204468,distr,44424.00002479553,Wed Feb 25 2026 10:50:01 GMT-0600 (Central Standard Time),724838.1000000089,B,mone,O,e,181,1,1781.300000011921,723056.799999997,7748,WL,C,6.0
6,15.694000005722046,distr,44305.999994277954,Wed Feb 25 2026 10:50:01 GMT-0600 (Central Standard Time),724956.1000000089,B,money,O,y,113,1,1899.300000011921,723056.799999997,7748,WL,C,6.0
6,16.408999919891357,distr,43591.00008010864,Wed Feb 25 2026 10:50:01 GMT-0600 (Central Standard Time),725670.700000003,B,moneyenter,O,enter,694,1,2613.9000000059605,723056.799999997,7748,WL,C,6.0
6,19.241999864578247,distr,40758.00013542175,Wed Feb 25 2026 10:50:01 GMT-0600 (Central Standard Time),728504.0,B,w,O,w,2815,1,2833.2000000029802,725670.799999997,7748,WL,C,7.0
6,19.391000032424927,distr,40608.99996757507,Wed Feb 25 2026 10:50:01 GMT-0600 (Central Standard Time),728653.400000006,B,wi,O,i,134,1,2982.6000000089407,725670.799999997,7748,WL,C,7.0
6,19.493000030517578,distr,40506.99996948242,Wed Feb 25 2026 10:50:01 GMT-0600 (Central Standard Time),728755.1000000089,B,win,O,n,90,1,3084.300000011921,725670.799999997,7748,WL,C,7.0
6,19.740999937057495,distr,40259.000062942505,Wed Feb 25 2026 10:50:01 GMT-0600 (Central Standard Time),729003.1000000089,B,wint,O,t,241,1,3332.300000011921,725670.799999997,7748,WL,C,7.0
6,20.042999982833862,distr,39957.00001716614,Wed Feb 25 2026 10:50:01 GMT-0600 (Central Standard Time),729304.799999997,B,winte,O,e,282,1,3634.0,725670.799999997,7748,WL,C,7.0
6,20.141000032424927,distr,39858.99996757507,Wed Feb 25 2026 10:50:01 GMT-0600 (Central Standard Time),729403.1000000089,B,winter,O,r,83,1,3732.300000011921,725670.799999997,7748,WL,C,7.0
6,21.35800004005432,distr,38641.99995994568,Wed Feb 25 2026 10:50:01 GMT-0600 (Central Standard Time),730619.5,B,winterenter,O,enter,1203,1,4948.70000000298,725670.799999997,7748,WL,C,7.0
6,23.473999977111816,distr,36526.00002288818,Wed Feb 25 2026 10:50:01 GMT-0600 (Central Standard Time),732735.5,B,b,O,b,2105,1,2115.7999999970198,730619.700000003,7748,WL,C,8.0
6,23.639999866485596,distr,36360.000133514404,Wed Feb 25 2026 10:50:01 GMT-0600 (Central Standard Time),732901.900000006,B,bu,O,u,155,1,2282.2000000029802,730619.700000003,7748,WL,C,8.0
6,24.056999921798706,distr,35943.000078201294,Wed Feb 25 2026 10:50:01 GMT-0600 (Central Standard Time),733319.1000000089,B,but,O,t,397,1,2699.4000000059605,730619.700000003,7748,WL,C,8.0
6,24.19000005722046,distr,35809.99994277954,Wed Feb 25 2026 10:50:01 GMT-0600 (Central Standard Time),733451.5,B,butt,O,t,123,1,2831.7999999970198,730619.700000003,7748,WL,C,8.0
6,24.58999991416931,distr,35410.00008583069,Wed Feb 25 2026 10:50:01 GMT-0600 (Central Standard Time),733852.400000006,B,butte,O,e,378,1,3232.7000000029802,730619.700000003,7748,WL,C,8.0
6,24.655999898910522,distr,35344.00010108948,Wed Feb 25 2026 10:50:01 GMT-0600 (Central Standard Time),733917.6000000089,B,butter,O,r,46,1,3297.9000000059605,730619.700000003,7748,WL,C,8.0
6,25.889999866485596,distr,34110.000133514404,Wed Feb 25 2026 10:50:01 GMT-0600 (Central Standard Time),735151.900000006,B,butterenter,O,enter,1214,1,4532.20000000298,730619.700000003,7748,WL,C,8.0
6,33.920000076293945,distr,26079.999923706055,Wed Feb 25 2026 10:50:01 GMT-0600 (Central Standard Time),743181.799999997,B,f,O,f,8013,1,8029.699999988079,735152.1000000089,7748,WL,C,9.0
6,34.0550000667572,distr,25944.999933242798,Wed Feb 25 2026 10:50:01 GMT-0600 (Central Standard Time),743316.900000006,B,fo,O,o,125,1,8164.79999999702,735152.1000000089,7748,WL,C,9.0
6,34.454999923706055,distr,25545.000076293945,Wed Feb 25 2026 10:50:01 GMT-0600 (Central Standard Time),743716.700000003,B,for,O,r,376,1,8564.59999999404,735152.1000000089,7748,WL,C,9.0
6,34.58699989318848,distr,25413.000106811523,Wed Feb 25 2026 10:50:01 GMT-0600 (Central Standard Time),743849.299999997,B,fore,O,e,112,1,8697.199999988079,735152.1000000089,7748,WL,C,9.0
6,34.80399990081787,distr,25196.00009918213,Wed Feb 25 2026 10:50:01 GMT-0600 (Central Standard Time),744065.799999997,B,fores,O,s,203,1,8913.699999988079,735152.1000000089,7748,WL,C,9.0
6,34.92199993133545,distr,25078.00006866455,Wed Feb 25 2026 10:50:01 GMT-0600 (Central Standard Time),744184.1000000089,B,forest,O,t,95,1,9032.0,735152.1000000089,7748,WL,C,9.0
6,35.28600001335144,distr,24713.99998664856,Wed Feb 25 2026 10:50:01 GMT-0600 (Central Standard Time),744548.200000003,B,forestenter,O,enter,347,1,9396.09999999404,735152.1000000089,7748,WL,C,9.0
6,39.38499999046326,distr,20615.000009536743,Wed Feb 25 2026 10:50:01 GMT-0600 (Central Standard Time),748646.799999997,B,h,O,h,4080,1,4098.399999991059,744548.400000006,7748,WL,C,10.0
6,39.51900005340576,distr,20480.99994659424,Wed Feb 25 2026 10:50:01 GMT-0600 (Central Standard Time),748780.700000003,B,ha,O,a,124,1,4232.29999999702,744548.400000006,7748,WL,C,10.0
6,39.734999895095825,distr,20265.000104904175,Wed Feb 25 2026 10:50:01 GMT-0600 (Central Standard Time),748997.1000000089,B,hal,O,l,206,1,4448.70000000298,744548.400000006,7748,WL,C,10.0
6,39.88700008392334,distr,20112.99991607666,Wed Feb 25 2026 10:50:01 GMT-0600 (Central Standard Time),749149.0,B,hall,O,l,130,1,4600.5999999940395,744548.400000006,7748,WL,C,10.0
6,40.15700006484985,distr,19842.999935150146,Wed Feb 25 2026 10:50:01 GMT-0600 (Central Standard Time),749419.299999997,B,hallenter,O,enter,246,1,4870.899999991059,744548.400000006,7748,WL,C,10.0
6,42.3510000705719,distr,17648.9999294281,Wed Feb 25 2026 10:50:01 GMT-0600 (Central Standard Time),751612.6000000089,B,m,O,m,2185,1,2192.5,749420.1000000089,7748,WL,C,11.0
6,42.50099992752075,distr,17499.000072479248,Wed Feb 25 2026 10:50:01 GMT-0600 (Central Standard Time),751762.5,B,me,O,e,135,1,2342.3999999910593,749420.1000000089,7748,WL,C,11.0
6,42.61699986457825,distr,17383.000135421753,Wed Feb 25 2026 10:50:01 GMT-0600 (Central Standard Time),751879.299999997,B,mea,O,a,104,1,2459.199999988079,749420.1000000089,7748,WL,C,11.0
6,42.75099992752075,distr,17249.000072479248,Wed Feb 25 2026 10:50:01 GMT-0600 (Central Standard Time),752012.400000006,B,meat,O,t,118,1,2592.2999999970198,749420.1000000089,7748,WL,C,11.0
6,43.068000078201294,distr,16931.999921798706,Wed Feb 25 2026 10:50:01 GMT-0600 (Central Standard Time),752329.6000000089,B,meatenter,O,enter,310,1,2909.5,749420.1000000089,7748,WL,C,11.0
6,44.23300004005432,distr,15766.999959945679,Wed Feb 25 2026 10:50:01 GMT-0600 (Central Standard Time),753495.1000000089,B,enter,O,enter,1155,1,1165.300000011921,752329.799999997,7748,WL,C,12.0
6,44.41799998283386,distr,15582.000017166138,Wed Feb 25 2026 10:50:01 GMT-0600 (Central Standard Time),753679.799999997,B,enter,O,enter,173,1,184.3999999910593,753495.400000006,7748,WL,C,13.0
6,44.6010000705719,distr,15398.9999294281,Wed Feb 25 2026 10:50:01 GMT-0600 (Central Standard Time),753862.799999997,B,enter,O,enter,173,1,182.69999998807907,753680.1000000089,7748,WL,C,14.0
6,45.14999985694885,distr,14850.000143051147,Wed Feb 25 2026 10:50:01 GMT-0600 (Central Standard Time),754411.799999997,B,enter,O,enter,541,1,548.6999999880791,753863.1000000089,7748,WL,C,15.0
7,0.9849998950958252,immed,59015.000104904175,Wed Feb 25 2026 10:50:01 GMT-0600 (Central Standard Time),765210.6000000089,A,t,O,t,978,1,983.8000000119209,764226.799999997,7748,WL,C,1.0
7,1.4159998893737793,immed,58584.00011062622,Wed Feb 25 2026 10:50:01 GMT-0600 (Central Standard Time),765642.1000000089,A,to,O,o,425,1,1415.300000011921,764226.799999997,7748,WL,C,1.0
7,1.6010000705718994,immed,58398.9999294281,Wed Feb 25 2026 10:50:01 GMT-0600 (Central Standard Time),765826.700000003,A,tow,O,w,179,1,1599.9000000059605,764226.799999997,7748,WL,C,1.0
7,1.9159998893737793,immed,58084.00011062622,Wed Feb 25 2026 10:50:01 GMT-0600 (Central Standard Time),766142.200000003,A,towe,O,e,297,1,1915.4000000059605,764226.799999997,7748,WL,C,1.0
7,2.0980000495910645,immed,57901.999950408936,Wed Feb 25 2026 10:50:01 GMT-0600 (Central Standard Time),766324.400000006,A,tower,O,r,174,1,2097.6000000089407,764226.799999997,7748,WL,C,1.0
7,2.4159998893737793,immed,57584.00011062622,Wed Feb 25 2026 10:50:01 GMT-0600 (Central Standard Time),766641.900000006,A,towerenter,O,enter,310,1,2415.1000000089407,764226.799999997,7748,WL,C,1.0
7,2.865000009536743,immed,57134.99999046326,Wed Feb 25 2026 10:50:01 GMT-0600 (Central Standard Time),767091.200000003,A,w,O,w,442,1,449.09999999403954,766642.1000000089,7748,WL,C,2.0
7,3.247999906539917,immed,56752.00009346008,Wed Feb 25 2026 10:50:01 GMT-0600 (Central Standard Time),767474.0,A,wh,O,h,369,1,831.8999999910593,766642.1000000089,7748,WL,C,2.0
7,3.4159998893737793,immed,56584.00011062622,Wed Feb 25 2026 10:50:01 GMT-0600 (Central Standard Time),767642.299999997,A,whe,O,e,163,1,1000.1999999880791,766642.1000000089,7748,WL,C,2.0
7,3.5329999923706055,immed,56467.000007629395,Wed Feb 25 2026 10:50:01 GMT-0600 (Central Standard Time),767758.900000006,A,whea,O,a,97,1,1116.7999999970198,766642.1000000089,7748,WL,C,2.0
