block_c,block_dur,condition,countdown,datetime,endtime,list,multichar_response,project,response,response_time,session_number,start_end,starttime,subject_id,task,task_vers,trial
,,,,Mon Dec 08 2025 09:15:04 GMT-0600 (Central Standard Time),,,,I,space,285,2,,,8064,WL,B,
prac,,0,,Mon Dec 08 2025 09:15:04 GMT-0600 (Central Standard Time),,NA,b,I,b,7739,2,,,8064,WL,B,1.0
prac,,0,,Mon Dec 08 2025 09:15:04 GMT-0600 (Central Standard Time),,NA,bo,I,o,443,2,,,8064,WL,B,1.0
prac,,0,,Mon Dec 08 2025 09:15:04 GMT-0600 (Central Standard Time),,NA,boo,I,o,257,2,,,8064,WL,B,1.0
prac,,0,,Mon Dec 08 2025 09:15:04 GMT-0600 (Central Standard Time),,NA,boos,I,s,375,2,,,8064,WL,B,1.0
prac,,0,,Mon Dec 08 2025 09:15:04 GMT-0600 (Central Standard Time),,NA,boost,I,t,424,2,,,8064,WL,B,1.0
prac,,0,,Mon Dec 08 2025 09:15:04 GMT-0600 (Central Standard Time),,NA,boostenter,I,enter,2766,2,,,8064,WL,B,1.0
1,4.381999969482422,learn,55618.00003051758,Mon Dec 08 2025 09:15:04 GMT-0600 (Central Standard Time),118745.10000002384,A,s,I,s,4360,2,4381.799999952316,114363.30000007153,8064,WL,B,1.0
1,5.131999969482422,learn,54868.00003051758,Mon Dec 08 2025 09:15:04 GMT-0600 (Central Standard Time),119494.90000009537,A,st,I,t,730,2,5131.600000023842,114363.30000007153,8064,WL,B,1.0
1,6.381999969482422,learn,53618.00003051758,Mon Dec 08 2025 09:15:04 GMT-0600 (Central Standard Time),120744.70000004768,A,str,I,r,1237,2,6381.399999976158,114363.30000007153,8064,WL,B,1.0
1,6.8480000495910645,learn,53151.999950408936,Mon Dec 08 2025 09:15:04 GMT-0600 (Central Standard Time),121210.70000004768,A,stre,I,e,460,2,6847.399999976158,114363.30000007153,8064,WL,B,1.0
1,7.081000089645386,learn,52918.999910354614,Mon Dec 08 2025 09:15:04 GMT-0600 (Central Standard Time),121444.10000002384,A,stree,I,e,226,2,7080.799999952316,114363.30000007153,8064,WL,B,1.0
1,7.513999938964844,learn,52486.000061035156,Mon Dec 08 2025 09:15:04 GMT-0600 (Central Standard Time),121877.40000009537,A,street,I,t,424,2,7514.100000023842,114363.30000007153,8064,WL,B,1.0
1,8.314000129699707,learn,51685.99987030029,Mon Dec 08 2025 09:15:04 GMT-0600 (Central Standard Time),122677.20000004768,A,streetenter,I,enter,791,2,8313.899999976158,114363.30000007153,8064,WL,B,1.0
1,8.94700002670288,learn,51052.99997329712,Mon Dec 08 2025 09:15:04 GMT-0600 (Central Standard Time),123310.40000009537,A,g,I,g,623,2,632.8000000715256,122677.60000002384,8064,WL,B,2.0
1,9.27999997138977,learn,50720.00002861023,Mon Dec 08 2025 09:15:04 GMT-0600 (Central Standard Time),123643.30000007153,A,gr,I,r,325,2,965.7000000476837,122677.60000002384,8064,WL,B,2.0
1,9.77999997138977,learn,50220.00002861023,Mon Dec 08 2025 09:15:04 GMT-0600 (Central Standard Time),124143.30000007153,A,gra,I,a,489,2,1465.7000000476837,122677.60000002384,8064,WL,B,2.0
1,10.263000011444092,learn,49736.99998855591,Mon Dec 08 2025 09:15:04 GMT-0600 (Central Standard Time),124626.20000004768,A,gras,I,s,465,2,1948.6000000238419,122677.60000002384,8064,WL,B,2.0
1,10.579999923706055,learn,49420.000076293945,Mon Dec 08 2025 09:15:04 GMT-0600 (Central Standard Time),124943.30000007153,A,grass,I,s,304,2,2265.7000000476837,122677.60000002384,8064,WL,B,2.0
1,11.696000099182129,learn,48303.99990081787,Mon Dec 08 2025 09:15:04 GMT-0600 (Central Standard Time),126059.40000009537,A,grassenter,I,enter,1101,2,3381.8000000715256,122677.60000002384,8064,WL,B,2.0
1,14.229000091552734,learn,45770.999908447266,Mon Dec 08 2025 09:15:04 GMT-0600 (Central Standard Time),128591.80000007153,A,w,I,w,2512,2,2531.8000000715256,126060.0,8064,WL,B,3.0
1,14.578999996185303,learn,45421.0000038147,Mon Dec 08 2025 09:15:04 GMT-0600 (Central Standard Time),128942.0,A,wi,I,i,333,2,2882.0,126060.0,8064,WL,B,3.0
1,14.979000091552734,learn,45020.999908447266,Mon Dec 08 2025 09:15:04 GMT-0600 (Central Standard Time),129341.70000004768,A,win,I,n,390,2,3281.7000000476837,126060.0,8064,WL,B,3.0
1,15.26200008392334,learn,44737.99991607666,Mon Dec 08 2025 09:15:04 GMT-0600 (Central Standard Time),129625.10000002384,A,wind,I,d,271,2,3565.100000023842,126060.0,8064,WL,B,3.0
1,15.745000123977661,learn,44254.99987602234,Mon Dec 08 2025 09:15:04 GMT-0600 (Central Standard Time),130107.90000009537,A,windo,I,o,468,2,4047.9000000953674,126060.0,8064,WL,B,3.0
1,16.045000076293945,learn,43954.999923706055,Mon Dec 08 2025 09:15:04 GMT-0600 (Central Standard Time),130408.30000007153,A,window,I,w,288,2,4348.300000071526,126060.0,8064,WL,B,3.0
1,16.628000020980835,learn,43371.999979019165,Mon Dec 08 2025 09:15:04 GMT-0600 (Central Standard Time),130991.20000004768,A,windowenter,I,enter,565,2,4931.200000047684,126060.0,8064,WL,B,3.0
1,17.394999980926514,learn,42605.000019073486,Mon Dec 08 2025 09:15:04 GMT-0600 (Central Standard Time),131757.60000002384,A,d,I,d,756,2,765.7999999523163,130991.80000007153,8064,WL,B,4.0
1,17.74399995803833,learn,42256.00004196167,Mon Dec 08 2025 09:15:04 GMT-0600 (Central Standard Time),132107.40000009537,A,do,I,o,335,2,1115.6000000238419,130991.80000007153,8064,WL,B,4.0
1,18.07699990272522,learn,41923.00009727478,Mon Dec 08 2025 09:15:04 GMT-0600 (Central Standard Time),132440.5,A,doo,I,o,313,2,1448.6999999284744,130991.80000007153,8064,WL,B,4.0
1,18.677000045776367,learn,41322.99995422363,Mon Dec 08 2025 09:15:04 GMT-0600 (Central Standard Time),133040.5,A,door,I,r,588,2,2048.6999999284744,130991.80000007153,8064,WL,B,4.0
1,19.210999965667725,learn,40789.000034332275,Mon Dec 08 2025 09:15:04 GMT-0600 (Central Standard Time),133573.80000007153,A,doorenter,I,enter,524,2,2582.0,130991.80000007153,8064,WL,B,4.0
1,19.80999994277954,learn,40190.00005722046,Mon Dec 08 2025 09:15:04 GMT-0600 (Central Standard Time),134173.20000004768,A,a,I,a,583,2,599.0,133574.20000004768,8064,WL,B,5.0
1,20.24399995803833,learn,39756.00004196167,Mon Dec 08 2025 09:15:04 GMT-0600 (Central Standard Time),134606.60000002384,A,ar,I,r,415,2,1032.3999999761581,133574.20000004768,8064,WL,B,5.0
1,22.05999994277954,learn,37940.00005722046,Mon Dec 08 2025 09:15:04 GMT-0600 (Central Standard Time),136422.80000007153,A,arm,I,m,1798,2,2848.600000023842,133574.20000004768,8064,WL,B,5.0
1,23.158999919891357,learn,36841.00008010864,Mon Dec 08 2025 09:15:04 GMT-0600 (Central Standard Time),137522.5,A,armenter,I,enter,1085,2,3948.2999999523163,133574.20000004768,8064,WL,B,5.0
1,26.174999952316284,learn,33825.000047683716,Mon Dec 08 2025 09:15:04 GMT-0600 (Central Standard Time),140537.90000009537,A,p,I,p,3009,2,3015.0,137522.90000009537,8064,WL,B,6.0
1,27.27500009536743,learn,32724.99990463257,Mon Dec 08 2025 09:15:04 GMT-0600 (Central Standard Time),141638.0,A,pi,I,i,1082,2,4115.099999904633,137522.90000009537,8064,WL,B,6.0
1,27.575000047683716,learn,32424.999952316284,Mon Dec 08 2025 09:15:04 GMT-0600 (Central Standard Time),141937.5,A,pip,I,p,294,2,4414.599999904633,137522.90000009537,8064,WL,B,6.0
1,28.240999937057495,learn,31759.000062942505,Mon Dec 08 2025 09:15:04 GMT-0600 (Central Standard Time),142604.30000007153,A,pipi,I,i,650,2,5081.399999976158,137522.90000009537,8064,WL,B,6.0
1,28.5239999294281,learn,31476.0000705719,Mon Dec 08 2025 09:15:04 GMT-0600 (Central Standard Time),142887.5,A,pipil,I,l,273,2,5364.599999904633,137522.90000009537,8064,WL,B,6.0
1,29.324000120162964,learn,30675.999879837036,Mon Dec 08 2025 09:15:04 GMT-0600 (Central Standard Time),143687.40000009537,A,pipilenter,I,enter,787,2,6164.5,137522.90000009537,8064,WL,B,6.0
1,29.85700011253357,learn,30142.99988746643,Mon Dec 08 2025 09:15:04 GMT-0600 (Central Standard Time),144220.30000007153,A,p,I,p,525,2,532.6000000238419,143687.70000004768,8064,WL,B,7.0
1,30.207000017166138,learn,29792.999982833862,Mon Dec 08 2025 09:15:04 GMT-0600 (Central Standard Time),144570.30000007153,A,pi,I,i,336,2,882.6000000238419,143687.70000004768,8064,WL,B,7.0
1,30.789999961853027,learn,29210.000038146973,Mon Dec 08 2025 09:15:04 GMT-0600 (Central Standard Time),145153.60000002384,A,pip,I,p,570,2,1465.8999999761581,143687.70000004768,8064,WL,B,7.0
1,31.306999921798706,learn,28693.000078201294,Mon Dec 08 2025 09:15:04 GMT-0600 (Central Standard Time),145670.0,A,pipe,I,e,507,2,1982.2999999523163,143687.70000004768,8064,WL,B,7.0
1,32.52300000190735,learn,27476.99999809265,Mon Dec 08 2025 09:15:04 GMT-0600 (Central Standard Time),146886.20000004768,A,pipeenter,I,enter,1199,2,3198.5,143687.70000004768,8064,WL,B,7.0
1,38.13800001144409,learn,21861.99998855591,Mon Dec 08 2025 09:15:04 GMT-0600 (Central Standard Time),152501.20000004768,A,w,I,w,5598,2,5614.399999976158,146886.80000007153,8064,WL,B,8.0
1,38.520999908447266,learn,21479.000091552734,Mon Dec 08 2025 09:15:04 GMT-0600 (Central Standard Time),152884.0,A,wi,I,i,374,2,5997.199999928474,146886.80000007153,8064,WL,B,8.0
1,38.87100005149841,learn,21128.999948501587,Mon Dec 08 2025 09:15:04 GMT-0600 (Central Standard Time),153233.80000007153,A,wif,I,f,344,2,6347.0,146886.80000007153,8064,WL,B,8.0
1,39.38700008392334,learn,20612.99991607666,Mon Dec 08 2025 09:15:04 GMT-0600 (Central Standard Time),153750.40000009537,A,wifw,I,w,506,2,6863.600000023842,146886.80000007153,8064,WL,B,8.0
1,40.53699994087219,learn,19463.000059127808,Mon Dec 08 2025 09:15:04 GMT-0600 (Central Standard Time),154899.90000009537,A,wifwenter,I,enter,1142,2,8013.100000023842,146886.80000007153,8064,WL,B,8.0
1,45.71900010108948,learn,14280.999898910522,Mon Dec 08 2025 09:15:04 GMT-0600 (Central Standard Time),160081.80000007153,A,a,I,a,5176,2,5181.600000023842,154900.20000004768,8064,WL,B,9.0
1,46.11800003051758,learn,13881.999969482422,Mon Dec 08 2025 09:15:04 GMT-0600 (Central Standard Time),160481.40000009537,A,ar,I,r,378,2,5581.200000047684,154900.20000004768,8064,WL,B,9.0
1,46.83500003814697,learn,13164.999961853027,Mon Dec 08 2025 09:15:04 GMT-0600 (Central Standard Time),161198.0,A,arm,I,m,706,2,6297.799999952316,154900.20000004768,8064,WL,B,9.0
1,47.568000078201294,learn,12431.999921798706,Mon Dec 08 2025 09:15:04 GMT-0600 (Central Standard Time),161931.20000004768,A,armenter,I,enter,718,2,7031.0,154900.20000004768,8064,WL,B,9.0
1,60.013999938964844,learn,-13.99993896484375,Mon Dec 08 2025 09:15:04 GMT-0600 (Central Standard Time),174377.40000009537,A,None,I,None,12440,2,12445.800000071526,161931.60000002384,8064,WL,B,10.0
2,2.0329999923706055,learn,57967.000007629395,Mon Dec 08 2025 09:15:04 GMT-0600 (Central Standard Time),243505.60000002384,A,l,I,l,2020,2,2032.1999999284744,241473.40000009537,8064,WL,B,1.0
2,2.2990000247955322,learn,57700.99997520447,Mon Dec 08 2025 09:15:04 GMT-0600 (Central Standard Time),243772.10000002384,A,la,I,a,259,2,2298.6999999284744,241473.40000009537,8064,WL,B,1.0
2,2.615999937057495,learn,57384.000062942505,Mon Dec 08 2025 09:15:04 GMT-0600 (Central Standard Time),244088.80000007153,A,lak,I,k,296,2,2615.399999976158,241473.40000009537,8064,WL,B,1.0
2,3.0320000648498535,learn,56967.99993515015,Mon Dec 08 2025 09:15:04 GMT-0600 (Central Standard Time),244505.20000004768,A,lake,I,e,396,2,3031.7999999523163,241473.40000009537,8064,WL,B,1.0
2,3.5989999771118164,learn,56401.00002288818,Mon Dec 08 2025 09:15:04 GMT-0600 (Central Standard Time),245071.70000004768,A,lakeenter,I,enter,555,2,3598.2999999523163,241473.40000009537,8064,WL,B,1.0
2,4.299000024795532,learn,55700.99997520447,Mon Dec 08 2025 09:15:04 GMT-0600 (Central Standard Time),245771.5,A,c,I,c,692,2,699.3999999761581,245072.10000002384,8064,WL,B,2.0
2,4.865000009536743,learn,55134.99999046326,Mon Dec 08 2025 09:15:04 GMT-0600 (Central Standard Time),246338.0,A,ci,I,i,553,2,1265.8999999761581,245072.10000002384,8064,WL,B,2.0
2,5.215000152587891,learn,54784.99984741211,Mon Dec 08 2025 09:15:04 GMT-0600 (Central Standard Time),246688.0,A,cit,I,t,331,2,1615.8999999761581,245072.10000002384,8064,WL,B,2.0
2,5.498000144958496,learn,54501.999855041504,Mon Dec 08 2025 09:15:04 GMT-0600 (Central Standard Time),246971.30000007153,A,city,I,y,276,2,1899.2000000476837,245072.10000002384,8064,WL,B,2.0
2,6.365000009536743,learn,53634.99999046326,Mon Dec 08 2025 09:15:04 GMT-0600 (Central Standard Time),247837.5,A,cityenter,I,enter,857,2,2765.399999976158,245072.10000002384,8064,WL,B,2.0
2,7.398000001907349,learn,52601.99999809265,Mon Dec 08 2025 09:15:04 GMT-0600 (Central Standard Time),248870.60000002384,A,s,I,s,1014,2,1032.6999999284744,247837.90000009537,8064,WL,B,3.0
2,7.730999946594238,learn,52269.00005340576,Mon Dec 08 2025 09:15:04 GMT-0600 (Central Standard Time),249203.80000007153,A,sk,I,k,325,2,1365.8999999761581,247837.90000009537,8064,WL,B,3.0
2,8.013999938964844,learn,51986.000061035156,Mon Dec 08 2025 09:15:04 GMT-0600 (Central Standard Time),249487.0,A,ski,I,i,273,2,1649.0999999046326,247837.90000009537,8064,WL,B,3.0
2,8.38100004196167,learn,51618.99995803833,Mon Dec 08 2025 09:15:04 GMT-0600 (Central Standard Time),249853.60000002384,A,skin,I,n,357,2,2015.6999999284744,247837.90000009537,8064,WL,B,3.0
2,9.347000122070312,learn,50652.99987792969,Mon Dec 08 2025 09:15:04 GMT-0600 (Central Standard Time),250820.0,A,skinenter,I,enter,959,2,2982.0999999046326,247837.90000009537,8064,WL,B,3.0
2,10.94700002670288,learn,49052.99997329712,Mon Dec 08 2025 09:15:04 GMT-0600 (Central Standard Time),252419.40000009537,A,p,I,p,1592,2,1599.1000000238419,250820.30000007153,8064,WL,B,4.0
2,11.296000003814697,learn,48703.9999961853,Mon Dec 08 2025 09:15:04 GMT-0600 (Central Standard Time),252769.30000007153,A,pi,I,i,328,2,1949.0,250820.30000007153,8064,WL,B,4.0
2,11.562999963760376,learn,48437.000036239624,Mon Dec 08 2025 09:15:04 GMT-0600 (Central Standard Time),253035.90000009537,A,pip,I,p,259,2,2215.600000023842,250820.30000007153,8064,WL,B,4.0
2,12.146000146865845,learn,47853.999853134155,Mon Dec 08 2025 09:15:04 GMT-0600 (Central Standard Time),253619.40000009537,A,pipe,I,e,568,2,2799.100000023842,250820.30000007153,8064,WL,B,4.0
2,13.146000146865845,learn,46853.999853134155,Mon Dec 08 2025 09:15:04 GMT-0600 (Central Standard Time),254618.70000004768,A,pipeenter,I,enter,993,2,3798.399999976158,250820.30000007153,8064,WL,B,4.0
2,15.062000036239624,learn,44937.999963760376,Mon Dec 08 2025 09:15:04 GMT-0600 (Central Standard Time),256534.80000007153,A,p,I,p,1905,2,1915.7000000476837,254619.10000002384,8064,WL,B,5.0
2,15.529000043869019,learn,44470.99995613098,Mon Dec 08 2025 09:15:04 GMT-0600 (Central Standard Time),257001.40000009537,A,pu,I,u,453,2,2382.3000000715256,254619.10000002384,8064,WL,B,5.0
2,16.028000116348267,learn,43971.99988365173,Mon Dec 08 2025 09:15:04 GMT-0600 (Central Standard Time),257501.30000007153,A,pup,I,p,483,2,2882.2000000476837,254619.10000002384,8064,WL,B,5.0
2,16.361999988555908,learn,43638.00001144409,Mon Dec 08 2025 09:15:04 GMT-0600 (Central Standard Time),257834.60000002384,A,pupi,I,i,319,2,3215.5,254619.10000002384,8064,WL,B,5.0
2,16.878000020980835,learn,43121.999979019165,Mon Dec 08 2025 09:15:04 GMT-0600 (Central Standard Time),258350.90000009537,A,pupil,I,l,498,2,3731.8000000715256,254619.10000002384,8064,WL,B,5.0
2,17.878000020980835,learn,42121.999979019165,Mon Dec 08 2025 09:15:04 GMT-0600 (Central Standard Time),259350.60000002384,A,pupilenter,I,enter,981,2,4731.5,254619.10000002384,8064,WL,B,5.0
2,18.478000164031982,learn,41521.99983596802,Mon Dec 08 2025 09:15:04 GMT-0600 (Central Standard Time),259950.5,A,s,I,s,582,2,599.6999999284744,259350.80000007153,8064,WL,B,6.0
2,18.861000061035156,learn,41138.999938964844,Mon Dec 08 2025 09:15:04 GMT-0600 (Central Standard Time),260333.70000004768,A,st,I,t,374,2,982.8999999761581,259350.80000007153,8064,WL,B,6.0
2,19.194000005722046,learn,40805.999994277954,Mon Dec 08 2025 09:15:04 GMT-0600 (Central Standard Time),260666.90000009537,A,str,I,r,318,2,1316.1000000238419,259350.80000007153,8064,WL,B,6.0
2,19.694000005722046,learn,40305.999994277954,Mon Dec 08 2025 09:15:04 GMT-0600 (Central Standard Time),261166.60000002384,A,stre,I,e,490,2,1815.7999999523163,259350.80000007153,8064,WL,B,6.0
2,19.89400005340576,learn,40105.99994659424,Mon Dec 08 2025 09:15:04 GMT-0600 (Central Standard Time),261366.60000002384,A,stree,I,e,189,2,2015.7999999523163,259350.80000007153,8064,WL,B,6.0
2,20.24399995803833,learn,39756.00004196167,Mon Dec 08 2025 09:15:04 GMT-0600 (Central Standard Time),261716.60000002384,A,street,I,t,334,2,2365.7999999523163,259350.80000007153,8064,WL,B,6.0
2,20.743000030517578,learn,39256.99996948242,Mon Dec 08 2025 09:15:04 GMT-0600 (Central Standard Time),262216.3000000715,A,streetenter,I,enter,480,2,2865.5,259350.80000007153,8064,WL,B,6.0
2,21.22699999809265,learn,38773.00000190735,Mon Dec 08 2025 09:15:04 GMT-0600 (Central Standard Time),262699.7000000477,A,g,I,g,468,2,483.10000002384186,262216.60000002384,8064,WL,B,7.0
2,21.526999950408936,learn,38473.000049591064,Mon Dec 08 2025 09:15:04 GMT-0600 (Central Standard Time),262999.40000009537,A,gr,I,r,288,2,782.8000000715256,262216.60000002384,8064,WL,B,7.0
2,21.97699999809265,learn,38023.00000190735,Mon Dec 08 2025 09:15:04 GMT-0600 (Central Standard Time),263449.3000000715,A,gra,I,a,445,2,1232.7000000476837,262216.60000002384,8064,WL,B,7.0
2,22.360000133514404,learn,37639.999866485596,Mon Dec 08 2025 09:15:04 GMT-0600 (Central Standard Time),263832.5,A,gras,I,s,371,2,1615.8999999761581,262216.60000002384,8064,WL,B,7.0
2,22.625999927520752,learn,37374.00007247925,Mon Dec 08 2025 09:15:04 GMT-0600 (Central Standard Time),264099.0,A,grass,I,s,260,2,1882.3999999761581,262216.60000002384,8064,WL,B,7.0
2,23.55999994277954,learn,36440.00005722046,Mon Dec 08 2025 09:15:04 GMT-0600 (Central Standard Time),265033.10000002384,A,grassenter,I,enter,913,2,2816.5,262216.60000002384,8064,WL,B,7.0
2,25.942000150680542,learn,34057.99984931946,Mon Dec 08 2025 09:15:04 GMT-0600 (Central Standard Time),267414.60000002384,A,c,I,c,2363,2,2381.2999999523163,265033.3000000715,8064,WL,B,8.0
2,26.242000102996826,learn,33757.999897003174,Mon Dec 08 2025 09:15:04 GMT-0600 (Central Standard Time),267714.8000000715,A,ci,I,i,285,2,2681.5,265033.3000000715,8064,WL,B,8.0
2,26.54200005531311,learn,33457.99994468689,Mon Dec 08 2025 09:15:04 GMT-0600 (Central Standard Time),268014.60000002384,A,cit,I,t,282,2,2981.2999999523163,265033.3000000715,8064,WL,B,8.0
2,26.79200005531311,learn,33207.99994468689,Mon Dec 08 2025 09:15:04 GMT-0600 (Central Standard Time),268264.40000009537,A,city,I,y,238,2,3231.100000023842,265033.3000000715,8064,WL,B,8.0
2,27.592000007629395,learn,32407.999992370605,Mon Dec 08 2025 09:15:04 GMT-0600 (Central Standard Time),269064.40000009537,A,cityenter,I,enter,780,2,4031.100000023842,265033.3000000715,8064,WL,B,8.0
2,29.407999992370605,learn,30592.000007629395,Mon Dec 08 2025 09:15:04 GMT-0600 (Central Standard Time),270880.3000000715,A,d,I,d,1796,2,1815.6000000238419,269064.7000000477,8064,WL,B,9.0
2,29.723999977111816,learn,30276.000022888184,Mon Dec 08 2025 09:15:04 GMT-0600 (Central Standard Time),271196.8000000715,A,do,I,o,300,2,2132.100000023842,269064.7000000477,8064,WL,B,9.0
2,30.006999969482422,learn,29993.000030517578,Mon Dec 08 2025 09:15:04 GMT-0600 (Central Standard Time),271480.2000000477,A,doo,I,o,271,2,2415.5,269064.7000000477,8064,WL,B,9.0
2,30.407000064849854,learn,29592.999935150146,Mon Dec 08 2025 09:15:04 GMT-0600 (Central Standard Time),271880.10000002384,A,door,I,r,380,2,2815.399999976158,269064.7000000477,8064,WL,B,9.0
2,30.907000064849854,learn,29092.999935150146,Mon Dec 08 2025 09:15:04 GMT-0600 (Central Standard Time),272380.0,A,doorenter,I,enter,492,2,3315.2999999523163,269064.7000000477,8064,WL,B,9.0
2,31.457000017166138,learn,28542.999982833862,Mon Dec 08 2025 09:15:04 GMT-0600 (Central Standard Time),272929.7000000477,A,s,I,s,544,2,549.3999999761581,272380.3000000715,8064,WL,B,10.0
2,31.822999954223633,learn,28177.000045776367,Mon Dec 08 2025 09:15:04 GMT-0600 (Central Standard Time),273296.3000000715,A,st,I,t,354,2,916.0,272380.3000000715,8064,WL,B,10.0
2,32.140000104904175,learn,27859.999895095825,Mon Dec 08 2025 09:15:04 GMT-0600 (Central Standard Time),273612.8000000715,A,sta,I,a,308,2,1232.5,272380.3000000715,8064,WL,B,10.0
2,32.60599994659424,learn,27394.00005340576,Mon Dec 08 2025 09:15:04 GMT-0600 (Central Standard Time),274079.3000000715,A,stat,I,t,447,2,1699.0,272380.3000000715,8064,WL,B,10.0
2,33.28999996185303,learn,26710.000038146973,Mon Dec 08 2025 09:15:04 GMT-0600 (Central Standard Time),274762.5,A,statenter,I,enter,669,2,2382.1999999284744,272380.3000000715,8064,WL,B,10.0
2,33.723000049591064,learn,26276.999950408936,Mon Dec 08 2025 09:15:04 GMT-0600 (Central Standard Time),275195.60000002384,A,a,I,a,418,2,432.7999999523163,274762.8000000715,8064,WL,B,11.0
2,34.07299995422363,learn,25927.000045776367,Mon Dec 08 2025 09:15:04 GMT-0600 (Central Standard Time),275546.0,A,ar,I,r,337,2,783.1999999284744,274762.8000000715,8064,WL,B,11.0
2,34.82200002670288,learn,25177.99997329712,Mon Dec 08 2025 09:15:04 GMT-0600 (Central Standard Time),276295.3000000715,A,arm,I,m,730,2,1532.5,274762.8000000715,8064,WL,B,11.0
2,35.47200012207031,learn,24527.999877929688,Mon Dec 08 2025 09:15:04 GMT-0600 (Central Standard Time),276945.10000002384,A,armenter,I,enter,644,2,2182.2999999523163,274762.8000000715,8064,WL,B,11.0
2,36.5550000667572,learn,23444.999933242798,Mon Dec 08 2025 09:15:04 GMT-0600 (Central Standard Time),278028.2000000477,A,w,I,w,1068,2,1082.7999999523163,276945.40000009537,8064,WL,B,12.0
2,36.937999963760376,learn,23062.000036239624,Mon Dec 08 2025 09:15:04 GMT-0600 (Central Standard Time),278411.2000000477,A,wi,I,i,368,2,1465.7999999523163,276945.40000009537,8064,WL,B,12.0
2,37.2720000743866,learn,22727.999925613403,Mon Dec 08 2025 09:15:04 GMT-0600 (Central Standard Time),278744.7000000477,A,win,I,n,313,2,1799.2999999523163,276945.40000009537,8064,WL,B,12.0
2,37.705000162124634,learn,22294.999837875366,Mon Dec 08 2025 09:15:04 GMT-0600 (Central Standard Time),279177.8000000715,A,wind,I,d,427,2,2232.399999976158,276945.40000009537,8064,WL,B,12.0
2,38.105000019073486,learn,21894.999980926514,Mon Dec 08 2025 09:15:04 GMT-0600 (Central Standard Time),279577.60000002384,A,windo,I,o,387,2,2632.1999999284744,276945.40000009537,8064,WL,B,12.0
2,38.48800015449524,learn,21511.99984550476,Mon Dec 08 2025 09:15:04 GMT-0600 (Central Standard Time),279960.8000000715,A,window,I,w,371,2,3015.399999976158,276945.40000009537,8064,WL,B,12.0
2,41.519999980926514,learn,18480.000019073486,Mon Dec 08 2025 09:15:04 GMT-0600 (Central Standard Time),282993.2000000477,A,windowenter,I,enter,3028,2,6047.799999952316,276945.40000009537,8064,WL,B,12.0
2,42.104000091552734,learn,17895.999908447266,Mon Dec 08 2025 09:15:04 GMT-0600 (Central Standard Time),283576.5,A,c,I,c,563,2,583.0999999046326,282993.40000009537,8064,WL,B,13.0
2,42.37000012397766,learn,17629.99987602234,Mon Dec 08 2025 09:15:04 GMT-0600 (Central Standard Time),283843.0,A,cl,I,l,260,2,849.5999999046326,282993.40000009537,8064,WL,B,13.0
2,42.687000036239624,learn,17312.999963760376,Mon Dec 08 2025 09:15:04 GMT-0600 (Central Standard Time),284159.5,A,clo,I,o,297,2,1166.0999999046326,282993.40000009537,8064,WL,B,13.0
2,42.97000002861023,learn,17029.99997138977,Mon Dec 08 2025 09:15:04 GMT-0600 (Central Standard Time),284442.8000000715,A,cloc,I,c,276,2,1449.3999999761581,282993.40000009537,8064,WL,B,13.0
2,43.37000012397766,learn,16629.99987602234,Mon Dec 08 2025 09:15:04 GMT-0600 (Central Standard Time),284842.8000000715,A,clock,I,k,385,2,1849.3999999761581,282993.40000009537,8064,WL,B,13.0
2,44.486000061035156,learn,15513.999938964844,Mon Dec 08 2025 09:15:04 GMT-0600 (Central Standard Time),285958.90000009537,A,clockenter,I,enter,1097,2,2965.5,282993.40000009537,8064,WL,B,13.0
2,52.40000009536743,learn,7599.999904632568,Mon Dec 08 2025 09:15:04 GMT-0600 (Central Standard Time),293873.3000000715,A,enter,I,enter,7910,2,7914.200000047684,285959.10000002384,8064,WL,B,14.0
2,54.91600012779236,learn,5083.999872207642,Mon Dec 08 2025 09:15:04 GMT-0600 (Central Standard Time),296389.0,A,enter,I,enter,2498,2,2515.399999976158,293873.60000002384,8064,WL,B,15.0
3,1.0,learn,59000.0,Mon Dec 08 2025 09:15:04 GMT-0600 (Central Standard Time),363967.8000000715,A,c,I,c,988,2,999.1000000238419,362968.7000000477,8064,WL,B,1.0
3,1.4159998893737793,learn,58584.00011062622,Mon Dec 08 2025 09:15:04 GMT-0600 (Central Standard Time),364384.5,A,ca,I,a,404,2,1415.7999999523163,362968.7000000477,8064,WL,B,1.0
3,2.0329999923706055,learn,57967.000007629395,Mon Dec 08 2025 09:15:04 GMT-0600 (Central Standard Time),365000.90000009537,A,cab,I,b,603,2,2032.2000000476837,362968.7000000477,8064,WL,B,1.0
3,2.382999897003174,learn,57617.000102996826,Mon Dec 08 2025 09:15:04 GMT-0600 (Central Standard Time),365350.90000009537,A,cabi,I,i,339,2,2382.2000000476837,362968.7000000477,8064,WL,B,1.0
3,2.681999921798706,learn,57318.000078201294,Mon Dec 08 2025 09:15:04 GMT-0600 (Central Standard Time),365650.60000002384,A,cabin,I,n,285,2,2681.899999976158,362968.7000000477,8064,WL,B,1.0
3,3.9149999618530273,learn,56085.00003814697,Mon Dec 08 2025 09:15:04 GMT-0600 (Central Standard Time),366883.60000002384,A,cabinenter,I,enter,1226,2,3914.899999976158,362968.7000000477,8064,WL,B,1.0
3,4.865000009536743,learn,55134.99999046326,Mon Dec 08 2025 09:15:04 GMT-0600 (Central Standard Time),367833.40000009537,A,f,I,f,929,2,949.5,366883.90000009537,8064,WL,B,2.0
3,5.148000001907349,learn,54851.99999809265,Mon Dec 08 2025 09:15:04 GMT-0600 (Central Standard Time),368116.40000009537,A,fi,I,i,274,2,1232.5,366883.90000009537,8064,WL,B,2.0
3,5.615000009536743,learn,54384.99999046326,Mon Dec 08 2025 09:15:04 GMT-0600 (Central Standard Time),368583.0,A,fir,I,r,456,2,1699.0999999046326,366883.90000009537,8064,WL,B,2.0
3,5.980999946594238,learn,54019.00005340576,Mon Dec 08 2025 09:15:04 GMT-0600 (Central Standard Time),368949.60000002384,A,fire,I,e,357,2,2065.6999999284744,366883.90000009537,8064,WL,B,2.0
3,6.880999803543091,learn,53119.00019645691,Mon Dec 08 2025 09:15:04 GMT-0600 (Central Standard Time),369849.40000009537,A,fireenter,I,enter,895,2,2965.5,366883.90000009537,8064,WL,B,2.0
3,8.330999851226807,learn,51669.00014877319,Mon Dec 08 2025 09:15:04 GMT-0600 (Central Standard Time),371298.90000009537,A,c,I,c,1443,2,1449.3000000715256,369849.60000002384,8064,WL,B,3.0
3,8.77999997138977,learn,51220.00002861023,Mon Dec 08 2025 09:15:04 GMT-0600 (Central Standard Time),371748.8000000715,A,ci,I,i,433,2,1899.2000000476837,369849.60000002384,8064,WL,B,3.0
3,9.129999876022339,learn,50870.00012397766,Mon Dec 08 2025 09:15:04 GMT-0600 (Central Standard Time),372098.60000002384,A,cit,I,t,336,2,2249.0,369849.60000002384,8064,WL,B,3.0
3,9.44700002670288,learn,50552.99997329712,Mon Dec 08 2025 09:15:04 GMT-0600 (Central Standard Time),372415.10000002384,A,city,I,y,306,2,2565.5,369849.60000002384,8064,WL,B,3.0
3,10.19700002670288,learn,49802.99997329712,Mon Dec 08 2025 09:15:04 GMT-0600 (Central Standard Time),373164.90000009537,A,cityenter,I,enter,733,2,3315.3000000715256,369849.60000002384,8064,WL,B,3.0
3,13.44599986076355,learn,46554.00013923645,Mon Dec 08 2025 09:15:04 GMT-0600 (Central Standard Time),376413.8000000715,A,s,I,s,3232,2,3248.600000023842,373165.2000000477,8064,WL,B,4.0
3,13.878999948501587,learn,46121.00005149841,Mon Dec 08 2025 09:15:04 GMT-0600 (Central Standard Time),376847.60000002384,A,st,I,t,422,2,3682.399999976158,373165.2000000477,8064,WL,B,4.0
3,14.178999900817871,learn,45821.00009918213,Mon Dec 08 2025 09:15:04 GMT-0600 (Central Standard Time),377146.90000009537,A,sta,I,a,293,2,3981.7000000476837,373165.2000000477,8064,WL,B,4.0
3,14.562000036239624,learn,45437.999963760376,Mon Dec 08 2025 09:15:04 GMT-0600 (Central Standard Time),377530.2000000477,A,star,I,r,369,2,4365.0,373165.2000000477,8064,WL,B,4.0
3,15.162999868392944,learn,44837.000131607056,Mon Dec 08 2025 09:15:04 GMT-0600 (Central Standard Time),378131.10000002384,A,starenter,I,enter,594,2,4965.899999976158,373165.2000000477,8064,WL,B,4.0
3,15.76199984550476,learn,44238.00015449524,Mon Dec 08 2025 09:15:04 GMT-0600 (Central Standard Time),378730.0,A,c,I,c,586,2,598.6999999284744,378131.3000000715,8064,WL,B,5.0
3,16.161999940872192,learn,43838.00005912781,Mon Dec 08 2025 09:15:04 GMT-0600 (Central Standard Time),379129.8000000715,A,cl,I,l,394,2,998.5,378131.3000000715,8064,WL,B,5.0
3,16.494999885559082,learn,43505.00011444092,Mon Dec 08 2025 09:15:04 GMT-0600 (Central Standard Time),379463.0,A,clo,I,o,323,2,1331.6999999284744,378131.3000000715,8064,WL,B,5.0
3,17.044999837875366,learn,42955.000162124634,Mon Dec 08 2025 09:15:04 GMT-0600 (Central Standard Time),380012.90000009537,A,cloc,I,c,542,2,1881.6000000238419,378131.3000000715,8064,WL,B,5.0
3,17.360999822616577,learn,42639.00017738342,Mon Dec 08 2025 09:15:04 GMT-0600 (Central Standard Time),380329.5,A,clock,I,k,296,2,2198.1999999284744,378131.3000000715,8064,WL,B,5.0
3,18.194999933242798,learn,41805.0000667572,Mon Dec 08 2025 09:15:04 GMT-0600 (Central Standard Time),381163.7000000477,A,clockenter,I,enter,827,2,3032.399999976158,378131.3000000715,8064,WL,B,5.0
3,18.72699999809265,learn,41273.00000190735,Mon Dec 08 2025 09:15:04 GMT-0600 (Central Standard Time),381695.60000002384,A,w,I,w,521,2,531.6000000238419,381164.0,8064,WL,B,6.0
3,19.060999870300293,learn,40939.00012969971,Mon Dec 08 2025 09:15:04 GMT-0600 (Central Standard Time),382028.8000000715,A,wi,I,i,317,2,864.8000000715256,381164.0,8064,WL,B,6.0
3,19.460999965667725,learn,40539.000034332275,Mon Dec 08 2025 09:15:04 GMT-0600 (Central Standard Time),382428.8000000715,A,wif,I,f,383,2,1264.8000000715256,381164.0,8064,WL,B,6.0
3,19.926999807357788,learn,40073.00019264221,Mon Dec 08 2025 09:15:04 GMT-0600 (Central Standard Time),382895.40000009537,A,wife,I,e,455,2,1731.4000000953674,381164.0,8064,WL,B,6.0
3,21.07099986076355,learn,38929.00013923645,Mon Dec 08 2025 09:15:04 GMT-0600 (Central Standard Time),384039.40000009537,A,wifeenter,I,enter,1139,2,2875.4000000953674,381164.0,8064,WL,B,6.0
3,21.792999982833862,learn,38207.00001716614,Mon Dec 08 2025 09:15:04 GMT-0600 (Central Standard Time),384761.40000009537,A,l,I,l,700,2,721.7000000476837,384039.7000000477,8064,WL,B,7.0
3,22.22599983215332,learn,37774.00016784668,Mon Dec 08 2025 09:15:04 GMT-0600 (Central Standard Time),385194.5,A,la,I,a,419,2,1154.7999999523163,384039.7000000477,8064,WL,B,7.0
3,22.508999824523926,learn,37491.000175476074,Mon Dec 08 2025 09:15:04 GMT-0600 (Central Standard Time),385477.7000000477,A,lak,I,k,274,2,1438.0,384039.7000000477,8064,WL,B,7.0
3,22.875999927520752,learn,37124.00007247925,Mon Dec 08 2025 09:15:04 GMT-0600 (Central Standard Time),385844.2000000477,A,lake,I,e,359,2,1804.5,384039.7000000477,8064,WL,B,7.0
3,23.858999967575073,learn,36141.00003242493,Mon Dec 08 2025 09:15:04 GMT-0600 (Central Standard Time),386827.3000000715,A,lakeenter,I,enter,968,2,2787.600000023842,384039.7000000477,8064,WL,B,7.0
3,24.741999864578247,learn,35258.00013542175,Mon Dec 08 2025 09:15:04 GMT-0600 (Central Standard Time),387710.5,A,a,I,a,865,2,883.0,386827.5,8064,WL,B,8.0
3,25.14199995994568,learn,34858.00004005432,Mon Dec 08 2025 09:15:04 GMT-0600 (Central Standard Time),388110.2000000477,A,ar,I,r,390,2,1282.7000000476837,386827.5,8064,WL,B,8.0
3,25.85800004005432,learn,34141.99995994568,Mon Dec 08 2025 09:15:04 GMT-0600 (Central Standard Time),388826.8000000715,A,arm,I,m,702,2,1999.3000000715256,386827.5,8064,WL,B,8.0
3,26.824999809265137,learn,33175.00019073486,Mon Dec 08 2025 09:15:04 GMT-0600 (Central Standard Time),389793.2000000477,A,armenter,I,enter,946,2,2965.7000000476837,386827.5,8064,WL,B,8.0
3,29.29099988937378,learn,30709.00011062622,Mon Dec 08 2025 09:15:04 GMT-0600 (Central Standard Time),392259.0,A,p,I,p,2459,2,2465.5999999046326,389793.40000009537,8064,WL,B,9.0
3,29.69099998474121,learn,30309.00001525879,Mon Dec 08 2025 09:15:04 GMT-0600 (Central Standard Time),392658.8000000715,A,pu,I,u,393,2,2865.399999976158,389793.40000009537,8064,WL,B,9.0
3,30.207000017166138,learn,29792.999982833862,Mon Dec 08 2025 09:15:04 GMT-0600 (Central Standard Time),393175.40000009537,A,pup,I,p,497,2,3382.0,389793.40000009537,8064,WL,B,9.0
3,30.539999961853027,learn,29460.000038146973,Mon Dec 08 2025 09:15:04 GMT-0600 (Central Standard Time),393508.60000002384,A,pupi,I,i,317,2,3715.1999999284744,389793.40000009537,8064,WL,B,9.0
3,30.972999811172485,learn,29027.000188827515,Mon Dec 08 2025 09:15:04 GMT-0600 (Central Standard Time),393941.7000000477,A,pupil,I,l,424,2,4148.299999952316,389793.40000009537,8064,WL,B,9.0
3,31.789999961853027,learn,28210.000038146973,Mon Dec 08 2025 09:15:04 GMT-0600 (Central Standard Time),394758.10000002384,A,pupilenter,I,enter,807,2,4964.699999928474,389793.40000009537,8064,WL,B,9.0
3,32.35599994659424,learn,27644.00005340576,Mon Dec 08 2025 09:15:04 GMT-0600 (Central Standard Time),395324.60000002384,A,p,I,p,559,2,566.2999999523163,394758.3000000715,8064,WL,B,10.0
3,32.6729998588562,learn,27327.0001411438,Mon Dec 08 2025 09:15:04 GMT-0600 (Central Standard Time),395641.10000002384,A,pi,I,i,312,2,882.7999999523163,394758.3000000715,8064,WL,B,10.0
3,33.055999994277954,learn,26944.000005722046,Mon Dec 08 2025 09:15:04 GMT-0600 (Central Standard Time),396024.5,A,pip,I,p,371,2,1266.1999999284744,394758.3000000715,8064,WL,B,10.0
3,33.6729998588562,learn,26327.0001411438,Mon Dec 08 2025 09:15:04 GMT-0600 (Central Standard Time),396641.0,A,pipe,I,e,604,2,1882.6999999284744,394758.3000000715,8064,WL,B,10.0
3,34.48899984359741,learn,25511.000156402588,Mon Dec 08 2025 09:15:04 GMT-0600 (Central Standard Time),397457.60000002384,A,pipeenter,I,enter,803,2,2699.2999999523163,394758.3000000715,8064,WL,B,10.0
3,36.605000019073486,learn,23394.999980926514,Mon Dec 08 2025 09:15:04 GMT-0600 (Central Standard Time),399573.40000009537,A,w,I,w,2099,2,2115.600000023842,397457.8000000715,8064,WL,B,11.0
3,36.954999923706055,learn,23045.000076293945,Mon Dec 08 2025 09:15:04 GMT-0600 (Central Standard Time),399923.3000000715,A,wi,I,i,335,2,2465.5,397457.8000000715,8064,WL,B,11.0
3,37.30499982833862,learn,22695.000171661377,Mon Dec 08 2025 09:15:04 GMT-0600 (Central Standard Time),400273.10000002384,A,win,I,n,345,2,2815.2999999523163,397457.8000000715,8064,WL,B,11.0
3,37.620999813079834,learn,22379.000186920166,Mon Dec 08 2025 09:15:04 GMT-0600 (Central Standard Time),400589.7000000477,A,wind,I,d,307,2,3131.899999976158,397457.8000000715,8064,WL,B,11.0
3,38.00499987602234,learn,21995.00012397766,Mon Dec 08 2025 09:15:04 GMT-0600 (Central Standard Time),400972.90000009537,A,windo,I,o,367,2,3515.100000023842,397457.8000000715,8064,WL,B,11.0
3,38.30499982833862,learn,21695.000171661377,Mon Dec 08 2025 09:15:04 GMT-0600 (Central Standard Time),401272.90000009537,A,window,I,w,288,2,3815.100000023842,397457.8000000715,8064,WL,B,11.0
3,38.90399980545044,learn,21096.00019454956,Mon Dec 08 2025 09:15:04 GMT-0600 (Central Standard Time),401872.60000002384,A,windowenter,I,enter,588,2,4414.799999952316,397457.8000000715,8064,WL,B,11.0
3,39.9210000038147,learn,20078.999996185303,Mon Dec 08 2025 09:15:04 GMT-0600 (Central Standard Time),402889.10000002384,A,g,I,g,996,2,1016.3999999761581,401872.7000000477,8064,WL,B,12.0
3,40.22099995613098,learn,19779.00004386902,Mon Dec 08 2025 09:15:04 GMT-0600 (Central Standard Time),403188.90000009537,A,gr,I,r,280,2,1316.2000000476837,401872.7000000477,8064,WL,B,12.0
3,40.5699999332428,learn,19430.000066757202,Mon Dec 08 2025 09:15:04 GMT-0600 (Central Standard Time),403538.7000000477,A,gra,I,a,335,2,1666.0,401872.7000000477,8064,WL,B,12.0
3,41.08699989318848,learn,18913.000106811523,Mon Dec 08 2025 09:15:04 GMT-0600 (Central Standard Time),404055.3000000715,A,gras,I,s,498,2,2182.600000023842,401872.7000000477,8064,WL,B,12.0
3,41.33699989318848,learn,18663.000106811523,Mon Dec 08 2025 09:15:04 GMT-0600 (Central Standard Time),404305.3000000715,A,grass,I,s,245,2,2432.600000023842,401872.7000000477,8064,WL,B,12.0
3,41.80399990081787,learn,18196.00009918213,Mon Dec 08 2025 09:15:04 GMT-0600 (Central Standard Time),404771.8000000715,A,grassenter,I,enter,451,2,2899.100000023842,401872.7000000477,8064,WL,B,12.0
3,42.33699989318848,learn,17663.000106811523,Mon Dec 08 2025 09:15:04 GMT-0600 (Central Standard Time),405304.90000009537,A,s,I,s,512,2,532.8000000715256,404772.10000002384,8064,WL,B,13.0
3,42.80299997329712,learn,17197.00002670288,Mon Dec 08 2025 09:15:04 GMT-0600 (Central Standard Time),405771.3000000715,A,st,I,t,459,2,999.2000000476837,404772.10000002384,8064,WL,B,13.0
3,43.15299987792969,learn,16847.000122070312,Mon Dec 08 2025 09:15:04 GMT-0600 (Central Standard Time),406121.3000000715,A,str,I,r,337,2,1349.2000000476837,404772.10000002384,8064,WL,B,13.0
3,43.5699999332428,learn,16430.000066757202,Mon Dec 08 2025 09:15:04 GMT-0600 (Central Standard Time),406537.90000009537,A,stre,I,e,403,2,1765.8000000715256,404772.10000002384,8064,WL,B,13.0
3,43.88599991798401,learn,16114.000082015991,Mon Dec 08 2025 09:15:04 GMT-0600 (Central Standard Time),406854.3000000715,A,stree,I,e,307,2,2082.2000000476837,404772.10000002384,8064,WL,B,13.0
3,44.51699995994568,learn,15483.000040054321,Mon Dec 08 2025 09:15:04 GMT-0600 (Central Standard Time),407485.2000000477,A,street,I,t,626,2,2713.100000023842,404772.10000002384,8064,WL,B,13.0
3,47.03499984741211,learn,12965.00015258789,Mon Dec 08 2025 09:15:04 GMT-0600 (Central Standard Time),410003.7000000477,A,streetenter,I,enter,2502,2,5231.600000023842,404772.10000002384,8064,WL,B,13.0
3,48.76799988746643,learn,11232.00011253357,Mon Dec 08 2025 09:15:04 GMT-0600 (Central Standard Time),411736.10000002384,A,d,I,d,1713,2,1732.1999999284744,410003.90000009537,8064,WL,B,14.0
3,49.28499984741211,learn,10715.00015258789,Mon Dec 08 2025 09:15:04 GMT-0600 (Central Standard Time),412252.8000000715,A,do,I,o,508,2,2248.899999976158,410003.90000009537,8064,WL,B,14.0
3,49.550999879837036,learn,10449.000120162964,Mon Dec 08 2025 09:15:04 GMT-0600 (Central Standard Time),412519.3000000715,A,doo,I,o,248,2,2515.399999976158,410003.90000009537,8064,WL,B,14.0
3,49.95099997520447,learn,10049.000024795532,Mon Dec 08 2025 09:15:04 GMT-0600 (Central Standard Time),412919.2000000477,A,door,I,r,381,2,2915.2999999523163,410003.90000009537,8064,WL,B,14.0
3,51.217000007629395,learn,8782.999992370605,Mon Dec 08 2025 09:15:04 GMT-0600 (Central Standard Time),414185.5,A,doorenter,I,enter,1261,2,4181.599999904633,410003.90000009537,8064,WL,B,14.0
3,60.013999938964844,learn,-13.99993896484375,Mon Dec 08 2025 09:15:04 GMT-0600 (Central Standard Time),422982.8000000715,A,None,I,None,8793,2,8797.100000023842,414185.7000000477,8064,WL,B,15.0
4,1.682999849319458,learn,58317.00015068054,Mon Dec 08 2025 09:15:04 GMT-0600 (Central Standard Time),491944.40000009537,A,s,I,s,1673,2,1682.7000000476837,490261.7000000477,8064,WL,B,1.0
4,2.0319998264312744,learn,57968.000173568726,Mon Dec 08 2025 09:15:04 GMT-0600 (Central Standard Time),492294.2000000477,A,sk,I,k,339,2,2032.5,490261.7000000477,8064,WL,B,1.0
4,2.2990000247955322,learn,57700.99997520447,Mon Dec 08 2025 09:15:04 GMT-0600 (Central Standard Time),492560.90000009537,A,ski,I,i,246,2,2299.2000000476837,490261.7000000477,8064,WL,B,1.0
4,2.615999937057495,learn,57384.000062942505,Mon Dec 08 2025 09:15:04 GMT-0600 (Central Standard Time),492877.40000009537,A,skin,I,n,300,2,2615.7000000476837,490261.7000000477,8064,WL,B,1.0
4,3.4819998741149902,learn,56518.00012588501,Mon Dec 08 2025 09:15:04 GMT-0600 (Central Standard Time),493743.8000000715,A,skinenter,I,enter,855,2,3482.100000023842,490261.7000000477,8064,WL,B,1.0
4,4.332000017166138,learn,55667.99998283386,Mon Dec 08 2025 09:15:04 GMT-0600 (Central Standard Time),494593.7000000477,A,f,I,f,837,2,849.7000000476837,493744.0,8064,WL,B,2.0
4,4.615000009536743,learn,55384.99999046326,Mon Dec 08 2025 09:15:04 GMT-0600 (Central Standard Time),494876.8000000715,A,fi,I,i,275,2,1132.8000000715256,493744.0,8064,WL,B,2.0
4,5.047999858856201,learn,54952.0001411438,Mon Dec 08 2025 09:15:04 GMT-0600 (Central Standard Time),495310.0,A,fir,I,r,416,2,1566.0,493744.0,8064,WL,B,2.0
4,5.365000009536743,learn,54634.99999046326,Mon Dec 08 2025 09:15:04 GMT-0600 (Central Standard Time),495626.5,A,fire,I,e,311,2,1882.5,493744.0,8064,WL,B,2.0
4,6.330999851226807,learn,53669.00014877319,Mon Dec 08 2025 09:15:04 GMT-0600 (Central Standard Time),496592.8000000715,A,fireenter,I,enter,954,2,2848.8000000715256,493744.0,8064,WL,B,2.0
4,6.815999984741211,learn,53184.00001525879,Mon Dec 08 2025 09:15:04 GMT-0600 (Central Standard Time),497077.3000000715,A,s,I,s,476,2,484.3000000715256,496593.0,8064,WL,B,3.0
4,7.197999954223633,learn,52802.00004577637,Mon Dec 08 2025 09:15:04 GMT-0600 (Central Standard Time),497459.2000000477,A,st,I,t,367,2,866.2000000476837,496593.0,8064,WL,B,3.0
4,7.5309998989105225,learn,52469.00010108948,Mon Dec 08 2025 09:15:04 GMT-0600 (Central Standard Time),497792.5,A,sta,I,a,313,2,1199.5,496593.0,8064,WL,B,3.0
4,8.263999938964844,learn,51736.000061035156,Mon Dec 08 2025 09:15:04 GMT-0600 (Central Standard Time),498525.8000000715,A,star,I,r,723,2,1932.8000000715256,496593.0,8064,WL,B,3.0
4,8.929999828338623,learn,51070.00017166138,Mon Dec 08 2025 09:15:04 GMT-0600 (Central Standard Time),499192.10000002384,A,starenter,I,enter,647,2,2599.100000023842,496593.0,8064,WL,B,3.0
4,9.496999979019165,learn,50503.000020980835,Mon Dec 08 2025 09:15:04 GMT-0600 (Central Standard Time),499758.60000002384,A,c,I,c,549,2,566.2999999523163,499192.3000000715,8064,WL,B,4.0
4,9.812999963760376,learn,50187.000036239624,Mon Dec 08 2025 09:15:04 GMT-0600 (Central Standard Time),500075.10000002384,A,cl,I,l,301,2,882.7999999523163,499192.3000000715,8064,WL,B,4.0
4,10.096999883651733,learn,49903.00011634827,Mon Dec 08 2025 09:15:04 GMT-0600 (Central Standard Time),500358.5,A,clo,I,o,273,2,1166.1999999284744,499192.3000000715,8064,WL,B,4.0
4,10.845999956130981,learn,49154.00004386902,Mon Dec 08 2025 09:15:04 GMT-0600 (Central Standard Time),501108.10000002384,A,cloc,I,c,742,2,1915.7999999523163,499192.3000000715,8064,WL,B,4.0
4,11.145999908447266,learn,48854.000091552734,Mon Dec 08 2025 09:15:04 GMT-0600 (Central Standard Time),501408.10000002384,A,clock,I,k,280,2,2215.7999999523163,499192.3000000715,8064,WL,B,4.0
4,12.296000003814697,learn,47703.9999961853,Mon Dec 08 2025 09:15:04 GMT-0600 (Central Standard Time),502557.7000000477,A,clockenter,I,enter,1140,2,3365.399999976158,499192.3000000715,8064,WL,B,4.0
4,14.062000036239624,learn,45937.999963760376,Mon Dec 08 2025 09:15:04 GMT-0600 (Central Standard Time),504323.8000000715,A,s,I,s,1751,2,1765.8999999761581,502557.90000009537,8064,WL,B,5.0
4,14.562000036239624,learn,45437.999963760376,Mon Dec 08 2025 09:15:04 GMT-0600 (Central Standard Time),504823.7000000477,A,st,I,t,488,2,2265.7999999523163,502557.90000009537,8064,WL,B,5.0
4,14.92799997329712,learn,45072.00002670288,Mon Dec 08 2025 09:15:04 GMT-0600 (Central Standard Time),505190.10000002384,A,str,I,r,347,2,2632.1999999284744,502557.90000009537,8064,WL,B,5.0
4,15.562000036239624,learn,44437.999963760376,Mon Dec 08 2025 09:15:04 GMT-0600 (Central Standard Time),505823.3000000715,A,stre,I,e,615,2,3265.399999976158,502557.90000009537,8064,WL,B,5.0
4,15.794999837875366,learn,44205.000162124634,Mon Dec 08 2025 09:15:04 GMT-0600 (Central Standard Time),506056.60000002384,A,stree,I,e,213,2,3498.6999999284744,502557.90000009537,8064,WL,B,5.0
4,16.128000020980835,learn,43871.999979019165,Mon Dec 08 2025 09:15:04 GMT-0600 (Central Standard Time),506389.8000000715,A,street,I,t,316,2,3831.899999976158,502557.90000009537,8064,WL,B,5.0
4,16.76099991798401,learn,43239.00008201599,Mon Dec 08 2025 09:15:04 GMT-0600 (Central Standard Time),507023.10000002384,A,streetenter,I,enter,622,2,4465.199999928474,502557.90000009537,8064,WL,B,5.0
4,17.76199984550476,learn,42238.00015449524,Mon Dec 08 2025 09:15:04 GMT-0600 (Central Standard Time),508023.7000000477,A,g,I,g,981,2,1000.2999999523163,507023.40000009537,8064,WL,B,6.0
4,18.14400005340576,learn,41855.99994659424,Mon Dec 08 2025 09:15:04 GMT-0600 (Central Standard Time),508405.90000009537,A,gr,I,r,365,2,1382.5,507023.40000009537,8064,WL,B,6.0
4,18.49399995803833,learn,41506.00004196167,Mon Dec 08 2025 09:15:04 GMT-0600 (Central Standard Time),508755.90000009537,A,gra,I,a,334,2,1732.5,507023.40000009537,8064,WL,B,6.0
4,18.82699990272522,learn,41173.00009727478,Mon Dec 08 2025 09:15:04 GMT-0600 (Central Standard Time),509089.0,A,gras,I,s,329,2,2065.5999999046326,507023.40000009537,8064,WL,B,6.0
4,19.0939998626709,learn,40906.0001373291,Mon Dec 08 2025 09:15:04 GMT-0600 (Central Standard Time),509355.5,A,grass,I,s,259,2,2332.0999999046326,507023.40000009537,8064,WL,B,6.0
4,19.72699999809265,learn,40273.00000190735,Mon Dec 08 2025 09:15:04 GMT-0600 (Central Standard Time),509988.7000000477,A,grassenter,I,enter,617,2,2965.2999999523163,507023.40000009537,8064,WL,B,6.0
4,20.82699990272522,learn,39173.00009727478,Mon Dec 08 2025 09:15:04 GMT-0600 (Central Standard Time),511088.5,A,s,I,s,1088,2,1099.5,509989.0,8064,WL,B,7.0
4,21.32699990272522,learn,38673.00009727478,Mon Dec 08 2025 09:15:04 GMT-0600 (Central Standard Time),511588.2000000477,A,st,I,t,492,2,1599.2000000476837,509989.0,8064,WL,B,7.0
4,21.692999839782715,learn,38307.000160217285,Mon Dec 08 2025 09:15:04 GMT-0600 (Central Standard Time),511954.8000000715,A,sta,I,a,352,2,1965.8000000715256,509989.0,8064,WL,B,7.0
4,22.026000022888184,learn,37973.99997711182,Mon Dec 08 2025 09:15:04 GMT-0600 (Central Standard Time),512287.90000009537,A,star,I,r,322,2,2298.9000000953674,509989.0,8064,WL,B,7.0
4,22.509999990463257,learn,37490.00000953674,Mon Dec 08 2025 09:15:04 GMT-0600 (Central Standard Time),512771.3000000715,A,starenter,I,enter,468,2,2782.3000000715256,509989.0,8064,WL,B,7.0
4,23.342000007629395,learn,36657.999992370605,Mon Dec 08 2025 09:15:04 GMT-0600 (Central Standard Time),513604.10000002384,A,d,I,d,825,2,832.6000000238419,512771.5,8064,WL,B,8.0
4,23.758999824523926,learn,36241.000175476074,Mon Dec 08 2025 09:15:04 GMT-0600 (Central Standard Time),514020.7000000477,A,do,I,o,408,2,1249.2000000476837,512771.5,8064,WL,B,8.0
4,24.026000022888184,learn,35973.99997711182,Mon Dec 08 2025 09:15:04 GMT-0600 (Central Standard Time),514287.3000000715,A,doo,I,o,248,2,1515.8000000715256,512771.5,8064,WL,B,8.0
4,24.375,learn,35625.0,Mon Dec 08 2025 09:15:04 GMT-0600 (Central Standard Time),514637.2000000477,A,door,I,r,341,2,1865.7000000476837,512771.5,8064,WL,B,8.0
4,24.991999864578247,learn,35008.00013542175,Mon Dec 08 2025 09:15:04 GMT-0600 (Central Standard Time),515253.7000000477,A,doorenter,I,enter,607,2,2482.2000000476837,512771.5,8064,WL,B,8.0
4,25.47499990463257,learn,34525.00009536743,Mon Dec 08 2025 09:15:04 GMT-0600 (Central Standard Time),515736.90000009537,A,w,I,w,471,2,483.0,515253.90000009537,8064,WL,B,9.0
4,25.774999856948853,learn,34225.00014305115,Mon Dec 08 2025 09:15:04 GMT-0600 (Central Standard Time),516036.90000009537,A,wi,I,i,292,2,783.0,515253.90000009537,8064,WL,B,9.0
4,26.274999856948853,learn,33725.00014305115,Mon Dec 08 2025 09:15:04 GMT-0600 (Central Standard Time),516536.8000000715,A,wif,I,f,479,2,1282.8999999761581,515253.90000009537,8064,WL,B,9.0
4,26.69099998474121,learn,33309.00001525879,Mon Dec 08 2025 09:15:04 GMT-0600 (Central Standard Time),516953.2000000477,A,wife,I,e,411,2,1699.2999999523163,515253.90000009537,8064,WL,B,9.0
4,27.507999897003174,learn,32492.000102996826,Mon Dec 08 2025 09:15:04 GMT-0600 (Central Standard Time),517769.60000002384,A,wifeenter,I,enter,803,2,2515.6999999284744,515253.90000009537,8064,WL,B,9.0
4,27.907999992370605,learn,32092.000007629395,Mon Dec 08 2025 09:15:04 GMT-0600 (Central Standard Time),518169.5,A,c,I,c,387,2,399.59999990463257,517769.90000009537,8064,WL,B,10.0
4,28.174000024795532,learn,31825.999975204468,Mon Dec 08 2025 09:15:04 GMT-0600 (Central Standard Time),518436.0,A,ci,I,i,250,2,666.0999999046326,517769.90000009537,8064,WL,B,10.0
4,28.473999977111816,learn,31526.000022888184,Mon Dec 08 2025 09:15:04 GMT-0600 (Central Standard Time),518736.0,A,cit,I,t,280,2,966.0999999046326,517769.90000009537,8064,WL,B,10.0
4,28.756999969482422,learn,31243.000030517578,Mon Dec 08 2025 09:15:04 GMT-0600 (Central Standard Time),519019.2000000477,A,city,I,y,268,2,1249.2999999523163,517769.90000009537,8064,WL,B,10.0
4,29.85699987411499,learn,30143.00012588501,Mon Dec 08 2025 09:15:04 GMT-0600 (Central Standard Time),520118.7000000477,A,cityenter,I,enter,1081,2,2348.7999999523163,517769.90000009537,8064,WL,B,10.0
4,38.687999963760376,learn,21312.000036239624,Mon Dec 08 2025 09:15:04 GMT-0600 (Central Standard Time),528949.4000000954,A,p,I,p,8822,2,8830.300000071526,520119.10000002384,8064,WL,B,11.0
4,39.15400004386902,learn,20845.99995613098,Mon Dec 08 2025 09:15:04 GMT-0600 (Central Standard Time),529415.8000000715,A,pu,I,u,447,2,9296.700000047684,520119.10000002384,8064,WL,B,11.0
4,39.7039999961853,learn,20296.000003814697,Mon Dec 08 2025 09:15:04 GMT-0600 (Central Standard Time),529965.9000000954,A,pup,I,p,533,2,9846.800000071526,520119.10000002384,8064,WL,B,11.0
4,40.00399994850159,learn,19996.000051498413,Mon Dec 08 2025 09:15:04 GMT-0600 (Central Standard Time),530265.8000000715,A,pupi,I,i,286,2,10146.700000047684,520119.10000002384,8064,WL,B,11.0
4,40.33699989318848,learn,19663.000106811523,Mon Dec 08 2025 09:15:04 GMT-0600 (Central Standard Time),530599.0,A,pupil,I,l,322,2,10479.899999976158,520119.10000002384,8064,WL,B,11.0
4,41.25399994850159,learn,18746.000051498413,Mon Dec 08 2025 09:15:04 GMT-0600 (Central Standard Time),531515.3000000715,A,pupilenter,I,enter,909,2,11396.200000047684,520119.10000002384,8064,WL,B,11.0
4,41.90299987792969,learn,18097.000122070312,Mon Dec 08 2025 09:15:04 GMT-0600 (Central Standard Time),532165.1000000238,A,p,I,p,633,2,649.6000000238419,531515.5,8064,WL,B,12.0
4,42.187000036239624,learn,17812.999963760376,Mon Dec 08 2025 09:15:04 GMT-0600 (Central Standard Time),532448.3000000715,A,pi,I,i,271,2,932.8000000715256,531515.5,8064,WL,B,12.0
4,42.48799991607666,learn,17512.00008392334,Mon Dec 08 2025 09:15:04 GMT-0600 (Central Standard Time),532749.2000000477,A,pip,I,p,292,2,1233.7000000476837,531515.5,8064,WL,B,12.0
4,43.419999837875366,learn,16580.000162124634,Mon Dec 08 2025 09:15:04 GMT-0600 (Central Standard Time),533681.4000000954,A,pipe,I,e,927,2,2165.9000000953674,531515.5,8064,WL,B,12.0
4,44.819000005722046,learn,15180.999994277954,Mon Dec 08 2025 09:15:04 GMT-0600 (Central Standard Time),535081.0,A,pipeenter,I,enter,1395,2,3565.5,531515.5,8064,WL,B,12.0
4,57.38199996948242,learn,2618.000030517578,Mon Dec 08 2025 09:15:04 GMT-0600 (Central Standard Time),547643.5,A,enter,I,enter,12547,2,12562.199999928474,535081.3000000715,8064,WL,B,13.0
4,57.86500000953674,learn,2134.999990463257,Mon Dec 08 2025 09:15:04 GMT-0600 (Central Standard Time),548126.7000000477,A,enter,I,enter,472,2,483.0,547643.7000000477,8064,WL,B,14.0
4,59.7979998588562,learn,202.00014114379883,Mon Dec 08 2025 09:15:04 GMT-0600 (Central Standard Time),550059.4000000954,A,enter,I,enter,1926,2,1932.5,548126.9000000954,8064,WL,B,15.0
5,0.999000072479248,learn,60000.0,Mon Dec 08 2025 09:15:04 GMT-0600 (Central Standard Time),616755.5,A,c,I,c,986,2,999.6999999284744,615755.8000000715,8064,WL,B,1.0
5,1.6159999370574951,learn,60000.0,Mon Dec 08 2025 09:15:04 GMT-0600 (Central Standard Time),617371.6000000238,A,ca,I,a,608,2,1615.7999999523163,615755.8000000715,8064,WL,B,1.0
5,2.131999969482422,learn,60000.0,Mon Dec 08 2025 09:15:04 GMT-0600 (Central Standard Time),617888.3000000715,A,cab,I,b,497,2,2132.5,615755.8000000715,8064,WL,B,1.0
5,2.4489998817443848,learn,60000.0,Mon Dec 08 2025 09:15:04 GMT-0600 (Central Standard Time),618204.7000000477,A,cabi,I,i,308,2,2448.899999976158,615755.8000000715,8064,WL,B,1.0
5,2.7990000247955322,learn,60000.0,Mon Dec 08 2025 09:15:04 GMT-0600 (Central Standard Time),618554.7000000477,A,cabin,I,n,336,2,2798.899999976158,615755.8000000715,8064,WL,B,1.0
5,3.8320000171661377,learn,60000.0,Mon Dec 08 2025 09:15:04 GMT-0600 (Central Standard Time),619587.8000000715,A,cabinenter,I,enter,1017,2,3832.0,615755.8000000715,8064,WL,B,1.0
5,4.931999921798706,learn,60000.0,Mon Dec 08 2025 09:15:04 GMT-0600 (Central Standard Time),620688.4000000954,A,s,I,s,1081,2,1100.4000000953674,619588.0,8064,WL,B,2.0
5,5.264999866485596,learn,60000.0,Mon Dec 08 2025 09:15:04 GMT-0600 (Central Standard Time),621020.6000000238,A,sk,I,k,316,2,1432.6000000238419,619588.0,8064,WL,B,2.0
5,5.54800009727478,learn,60000.0,Mon Dec 08 2025 09:15:04 GMT-0600 (Central Standard Time),621303.9000000954,A,ski,I,i,264,2,1715.9000000953674,619588.0,8064,WL,B,2.0
5,5.914000034332275,learn,60000.0,Mon Dec 08 2025 09:15:04 GMT-0600 (Central Standard Time),621670.4000000954,A,skin,I,n,349,2,2082.4000000953674,619588.0,8064,WL,B,2.0
5,6.648000001907349,learn,60000.0,Mon Dec 08 2025 09:15:04 GMT-0600 (Central Standard Time),622403.5,A,skinenter,I,enter,718,2,2815.5,619588.0,8064,WL,B,2.0
5,7.397000074386597,learn,60000.0,Mon Dec 08 2025 09:15:04 GMT-0600 (Central Standard Time),623153.2000000477,A,f,I,f,737,2,749.3999999761581,622403.8000000715,8064,WL,B,3.0
5,7.71399998664856,learn,60000.0,Mon Dec 08 2025 09:15:04 GMT-0600 (Central Standard Time),623469.7000000477,A,fi,I,i,307,2,1065.8999999761581,622403.8000000715,8064,WL,B,3.0
5,8.079999923706055,learn,60000.0,Mon Dec 08 2025 09:15:04 GMT-0600 (Central Standard Time),623836.3000000715,A,fir,I,r,359,2,1432.5,622403.8000000715,8064,WL,B,3.0
5,8.44700002670288,learn,60000.0,Mon Dec 08 2025 09:15:04 GMT-0600 (Central Standard Time),624202.9000000954,A,fire,I,e,352,2,1799.1000000238419,622403.8000000715,8064,WL,B,3.0
5,9.463000059127808,learn,60000.0,Mon Dec 08 2025 09:15:04 GMT-0600 (Central Standard Time),625219.4000000954,A,fireenter,I,enter,1001,2,2815.600000023842,622403.8000000715,8064,WL,B,3.0
5,10.86299991607666,learn,60000.0,Mon Dec 08 2025 09:15:04 GMT-0600 (Central Standard Time),626618.8000000715,A,c,I,c,1385,2,1399.2000000476837,625219.6000000238,8064,WL,B,4.0
5,11.178999900817871,learn,60000.0,Mon Dec 08 2025 09:15:04 GMT-0600 (Central Standard Time),626935.2000000477,A,ci,I,i,297,2,1715.6000000238419,625219.6000000238,8064,WL,B,4.0
5,11.529000043869019,learn,60000.0,Mon Dec 08 2025 09:15:04 GMT-0600 (Central Standard Time),627285.2000000477,A,cit,I,t,333,2,2065.600000023842,625219.6000000238,8064,WL,B,4.0
5,11.86299991607666,learn,60000.0,Mon Dec 08 2025 09:15:04 GMT-0600 (Central Standard Time),627618.5,A,city,I,y,327,2,2398.899999976158,625219.6000000238,8064,WL,B,4.0
5,12.961999893188477,learn,60000.0,Mon Dec 08 2025 09:15:04 GMT-0600 (Central Standard Time),628718.3000000715,A,cityenter,I,enter,1082,2,3498.7000000476837,625219.6000000238,8064,WL,B,4.0
5,13.444999933242798,learn,60000.0,Mon Dec 08 2025 09:15:04 GMT-0600 (Central Standard Time),629201.4000000954,A,l,I,l,462,2,482.90000009536743,628718.5,8064,WL,B,5.0
5,13.711999893188477,learn,60000.0,Mon Dec 08 2025 09:15:04 GMT-0600 (Central Standard Time),629468.1000000238,A,la,I,a,251,2,749.6000000238419,628718.5,8064,WL,B,5.0
5,13.994999885559082,learn,60000.0,Mon Dec 08 2025 09:15:04 GMT-0600 (Central Standard Time),629751.2000000477,A,lak,I,k,264,2,1032.7000000476837,628718.5,8064,WL,B,5.0
5,14.361999988555908,learn,60000.0,Mon Dec 08 2025 09:15:04 GMT-0600 (Central Standard Time),630117.8000000715,A,lake,I,e,357,2,1399.3000000715256,628718.5,8064,WL,B,5.0
5,15.111999988555908,learn,60000.0,Mon Dec 08 2025 09:15:04 GMT-0600 (Central Standard Time),630867.5,A,lakeenter,I,enter,735,2,2149.0,628718.5,8064,WL,B,5.0
5,16.32800006866455,learn,60000.0,Mon Dec 08 2025 09:15:04 GMT-0600 (Central Standard Time),632083.7000000477,A,s,I,s,1201,2,1215.8999999761581,630867.8000000715,8064,WL,B,6.0
5,16.710999965667725,learn,60000.0,Mon Dec 08 2025 09:15:04 GMT-0600 (Central Standard Time),632467.1000000238,A,st,I,t,377,2,1599.2999999523163,630867.8000000715,8064,WL,B,6.0
5,17.043999910354614,learn,60000.0,Mon Dec 08 2025 09:15:04 GMT-0600 (Central Standard Time),632800.3000000715,A,str,I,r,321,2,1932.5,630867.8000000715,8064,WL,B,6.0
5,18.64400005340576,learn,60000.0,Mon Dec 08 2025 09:15:04 GMT-0600 (Central Standard Time),634399.7000000477,A,stre,I,e,1588,2,3531.899999976158,630867.8000000715,8064,WL,B,6.0
5,18.877000093460083,learn,60000.0,Mon Dec 08 2025 09:15:04 GMT-0600 (Central Standard Time),634632.9000000954,A,stree,I,e,221,2,3765.100000023842,630867.8000000715,8064,WL,B,6.0
5,19.194000005722046,learn,60000.0,Mon Dec 08 2025 09:15:04 GMT-0600 (Central Standard Time),634949.5,A,street,I,t,300,2,4081.6999999284744,630867.8000000715,8064,WL,B,6.0
5,19.776999950408936,learn,60000.0,Mon Dec 08 2025 09:15:04 GMT-0600 (Central Standard Time),635532.8000000715,A,streetenter,I,enter,575,2,4665.0,630867.8000000715,8064,WL,B,6.0
5,20.30999994277954,learn,60000.0,Mon Dec 08 2025 09:15:04 GMT-0600 (Central Standard Time),636065.7000000477,A,g,I,g,520,2,532.7000000476837,635533.0,8064,WL,B,7.0
5,20.609999895095825,learn,60000.0,Mon Dec 08 2025 09:15:04 GMT-0600 (Central Standard Time),636365.9000000954,A,gr,I,r,283,2,832.9000000953674,635533.0,8064,WL,B,7.0
5,21.05999994277954,learn,60000.0,Mon Dec 08 2025 09:15:04 GMT-0600 (Central Standard Time),636815.8000000715,A,gra,I,a,431,2,1282.8000000715256,635533.0,8064,WL,B,7.0
5,21.425999879837036,learn,60000.0,Mon Dec 08 2025 09:15:04 GMT-0600 (Central Standard Time),637182.1000000238,A,gras,I,s,356,2,1649.1000000238419,635533.0,8064,WL,B,7.0
5,21.675999879837036,learn,60000.0,Mon Dec 08 2025 09:15:04 GMT-0600 (Central Standard Time),637432.0,A,grass,I,s,238,2,1899.0,635533.0,8064,WL,B,7.0
5,22.125999927520752,learn,60000.0,Mon Dec 08 2025 09:15:04 GMT-0600 (Central Standard Time),637882.1000000238,A,grassenter,I,enter,437,2,2349.100000023842,635533.0,8064,WL,B,7.0
5,23.29200005531311,learn,60000.0,Mon Dec 08 2025 09:15:04 GMT-0600 (Central Standard Time),639048.1000000238,A,s,I,s,1154,2,1165.6999999284744,637882.4000000954,8064,WL,B,8.0
5,23.625,learn,60000.0,Mon Dec 08 2025 09:15:04 GMT-0600 (Central Standard Time),639381.4000000954,A,st,I,t,316,2,1499.0,637882.4000000954,8064,WL,B,8.0
5,23.908999919891357,learn,60000.0,Mon Dec 08 2025 09:15:04 GMT-0600 (Central Standard Time),639664.8000000715,A,sta,I,a,263,2,1782.3999999761581,637882.4000000954,8064,WL,B,8.0
5,24.20899987220764,learn,60000.0,Mon Dec 08 2025 09:15:04 GMT-0600 (Central Standard Time),639964.7000000477,A,star,I,r,283,2,2082.2999999523163,637882.4000000954,8064,WL,B,8.0
5,24.691999912261963,learn,60000.0,Mon Dec 08 2025 09:15:04 GMT-0600 (Central Standard Time),640447.9000000954,A,starenter,I,enter,472,2,2565.5,637882.4000000954,8064,WL,B,8.0
5,25.325000047683716,learn,60000.0,Mon Dec 08 2025 09:15:04 GMT-0600 (Central Standard Time),641081.0,A,d,I,d,612,2,632.8999999761581,640448.1000000238,8064,WL,B,9.0
5,25.741999864578247,learn,60000.0,Mon Dec 08 2025 09:15:04 GMT-0600 (Central Standard Time),641497.6000000238,A,do,I,o,403,2,1049.5,640448.1000000238,8064,WL,B,9.0
5,25.991999864578247,learn,60000.0,Mon Dec 08 2025 09:15:04 GMT-0600 (Central Standard Time),641747.7000000477,A,doo,I,o,244,2,1299.6000000238419,640448.1000000238,8064,WL,B,9.0
5,26.342000007629395,learn,60000.0,Mon Dec 08 2025 09:15:04 GMT-0600 (Central Standard Time),642097.7000000477,A,door,I,r,338,2,1649.6000000238419,640448.1000000238,8064,WL,B,9.0
5,27.058000087738037,learn,60000.0,Mon Dec 08 2025 09:15:04 GMT-0600 (Central Standard Time),642813.7000000477,A,doorenter,I,enter,699,2,2365.600000023842,640448.1000000238,8064,WL,B,9.0
5,27.78600001335144,learn,60000.0,Mon Dec 08 2025 09:15:04 GMT-0600 (Central Standard Time),643541.6000000238,A,a,I,a,583,2,727.6999999284744,642813.9000000954,8064,WL,B,10.0
5,27.990999937057495,learn,60000.0,Mon Dec 08 2025 09:15:04 GMT-0600 (Central Standard Time),643747.1000000238,A,ar,I,r,189,2,933.1999999284744,642813.9000000954,8064,WL,B,10.0
5,29.0239999294281,learn,60000.0,Mon Dec 08 2025 09:15:04 GMT-0600 (Central Standard Time),644779.7000000477,A,arm,I,m,1017,2,1965.7999999523163,642813.9000000954,8064,WL,B,10.0
5,29.639999866485596,learn,60000.0,Mon Dec 08 2025 09:15:04 GMT-0600 (Central Standard Time),645396.4000000954,A,armenter,I,enter,608,2,2582.5,642813.9000000954,8064,WL,B,10.0
5,30.27300000190735,learn,60000.0,Mon Dec 08 2025 09:15:04 GMT-0600 (Central Standard Time),646029.4000000954,A,w,I,w,622,2,632.6000000238419,645396.8000000715,8064,WL,B,11.0
5,30.556999921798706,learn,60000.0,Mon Dec 08 2025 09:15:04 GMT-0600 (Central Standard Time),646312.7000000477,A,wi,I,i,270,2,915.8999999761581,645396.8000000715,8064,WL,B,11.0
5,31.35599994659424,learn,60000.0,Mon Dec 08 2025 09:15:04 GMT-0600 (Central Standard Time),647112.3000000715,A,wif,I,f,788,2,1715.5,645396.8000000715,8064,WL,B,11.0
5,31.723000049591064,learn,60000.0,Mon Dec 08 2025 09:15:04 GMT-0600 (Central Standard Time),647479.1000000238,A,wife,I,e,348,2,2082.2999999523163,645396.8000000715,8064,WL,B,11.0
5,32.50600004196167,learn,60000.0,Mon Dec 08 2025 09:15:04 GMT-0600 (Central Standard Time),648261.9000000954,A,wifeenter,I,enter,765,2,2865.100000023842,645396.8000000715,8064,WL,B,11.0
5,34.68899989128113,learn,60000.0,Mon Dec 08 2025 09:15:04 GMT-0600 (Central Standard Time),650444.6000000238,A,w,I,w,2175,2,2182.5,648262.1000000238,8064,WL,B,12.0
5,35.105000019073486,learn,60000.0,Mon Dec 08 2025 09:15:04 GMT-0600 (Central Standard Time),650861.1000000238,A,wi,I,i,407,2,2599.0,648262.1000000238,8064,WL,B,12.0
5,35.40499997138977,learn,60000.0,Mon Dec 08 2025 09:15:04 GMT-0600 (Central Standard Time),651161.1000000238,A,win,I,n,280,2,2899.0,648262.1000000238,8064,WL,B,12.0
5,36.07200002670288,learn,60000.0,Mon Dec 08 2025 09:15:04 GMT-0600 (Central Standard Time),651827.5,A,wind,I,d,651,2,3565.399999976158,648262.1000000238,8064,WL,B,12.0
5,36.37100005149841,learn,60000.0,Mon Dec 08 2025 09:15:04 GMT-0600 (Central Standard Time),652127.4000000954,A,windo,I,o,289,2,3865.3000000715256,648262.1000000238,8064,WL,B,12.0
5,36.6710000038147,learn,60000.0,Mon Dec 08 2025 09:15:04 GMT-0600 (Central Standard Time),652427.4000000954,A,window,I,w,293,2,4165.300000071526,648262.1000000238,8064,WL,B,12.0
5,37.57100009918213,learn,60000.0,Mon Dec 08 2025 09:15:04 GMT-0600 (Central Standard Time),653327.0,A,windowenter,I,enter,889,2,5064.899999976158,648262.1000000238,8064,WL,B,12.0
5,42.236000061035156,learn,60000.0,Mon Dec 08 2025 09:15:04 GMT-0600 (Central Standard Time),657992.3000000715,A,p,I,p,4654,2,4665.0,653327.3000000715,8064,WL,B,13.0
5,42.63499999046326,learn,60000.0,Mon Dec 08 2025 09:15:04 GMT-0600 (Central Standard Time),658392.2000000477,A,pu,I,u,380,2,5064.899999976158,653327.3000000715,8064,WL,B,13.0
5,43.11899995803833,learn,60000.0,Mon Dec 08 2025 09:15:04 GMT-0600 (Central Standard Time),658875.4000000954,A,pup,I,p,468,2,5548.100000023842,653327.3000000715,8064,WL,B,13.0
5,43.41799998283386,learn,60000.0,Mon Dec 08 2025 09:15:04 GMT-0600 (Central Standard Time),659175.2000000477,A,pupi,I,i,281,2,5847.899999976158,653327.3000000715,8064,WL,B,13.0
5,43.80200004577637,learn,60000.0,Mon Dec 08 2025 09:15:04 GMT-0600 (Central Standard Time),659558.5,A,pupil,I,l,373,2,6231.199999928474,653327.3000000715,8064,WL,B,13.0
5,44.55200004577637,learn,60000.0,Mon Dec 08 2025 09:15:04 GMT-0600 (Central Standard Time),660308.4000000954,A,pupilenter,I,enter,742,2,6981.100000023842,653327.3000000715,8064,WL,B,13.0
5,46.03399991989136,learn,60000.0,Mon Dec 08 2025 09:15:04 GMT-0600 (Central Standard Time),661791.2000000477,A,p,I,p,1463,2,1482.5,660308.7000000477,8064,WL,B,14.0
5,46.550999879837036,learn,60000.0,Mon Dec 08 2025 09:15:04 GMT-0600 (Central Standard Time),662307.5,A,pi,I,i,509,2,1998.7999999523163,660308.7000000477,8064,WL,B,14.0
5,48.34999990463257,learn,60000.0,Mon Dec 08 2025 09:15:04 GMT-0600 (Central Standard Time),664106.9000000954,A,pip,I,p,1785,2,3798.2000000476837,660308.7000000477,8064,WL,B,14.0
5,49.11699986457825,learn,60000.0,Mon Dec 08 2025 09:15:04 GMT-0600 (Central Standard Time),664873.5,A,pipe,I,e,762,2,4564.799999952316,660308.7000000477,8064,WL,B,14.0
5,49.61699986457825,learn,60000.0,Mon Dec 08 2025 09:15:04 GMT-0600 (Central Standard Time),665373.4000000954,A,pipeenter,I,enter,483,2,5064.700000047684,660308.7000000477,8064,WL,B,14.0
5,50.11699986457825,learn,60000.0,Mon Dec 08 2025 09:15:04 GMT-0600 (Central Standard Time),665873.3000000715,A,c,I,c,487,2,499.7000000476837,665373.6000000238,8064,WL,B,15.0
5,50.41599988937378,learn,60000.0,Mon Dec 08 2025 09:15:04 GMT-0600 (Central Standard Time),666173.2000000477,A,cl,I,l,283,2,799.6000000238419,665373.6000000238,8064,WL,B,15.0
5,50.700000047683716,learn,60000.0,Mon Dec 08 2025 09:15:04 GMT-0600 (Central Standard Time),666456.4000000954,A,clo,I,o,272,2,1082.8000000715256,665373.6000000238,8064,WL,B,15.0
5,51.01699995994568,learn,60000.0,Mon Dec 08 2025 09:15:04 GMT-0600 (Central Standard Time),666774.1000000238,A,cloc,I,c,308,2,1400.5,665373.6000000238,8064,WL,B,15.0
5,51.39299988746643,learn,60000.0,Mon Dec 08 2025 09:15:04 GMT-0600 (Central Standard Time),667149.8000000715,A,clock,I,k,371,2,1776.2000000476837,665373.6000000238,8064,WL,B,15.0
5,52.66599988937378,learn,60000.0,Mon Dec 08 2025 09:15:04 GMT-0600 (Central Standard Time),668422.3000000715,A,clockenter,I,enter,1262,2,3048.7000000476837,665373.6000000238,8064,WL,B,15.0
6,1.632000207901001,distr,58367.999792099,Mon Dec 08 2025 09:15:04 GMT-0600 (Central Standard Time),740816.4000000954,B,b,I,b,1613,2,1632.8000000715256,739183.6000000238,8064,WL,B,1.0
6,2.3490002155303955,distr,57650.999784469604,Mon Dec 08 2025 09:15:04 GMT-0600 (Central Standard Time),741532.7000000477,B,ba,I,a,699,2,2349.100000023842,739183.6000000238,8064,WL,B,1.0
6,2.8990001678466797,distr,57100.99983215332,Mon Dec 08 2025 09:15:04 GMT-0600 (Central Standard Time),742082.7000000477,B,bab,I,b,536,2,2899.100000023842,739183.6000000238,8064,WL,B,1.0
6,3.2820000648498535,distr,56717.99993515015,Mon Dec 08 2025 09:15:04 GMT-0600 (Central Standard Time),742465.9000000954,B,baby,I,y,370,2,3282.3000000715256,739183.6000000238,8064,WL,B,1.0
6,4.965000152587891,distr,55034.99984741211,Mon Dec 08 2025 09:15:04 GMT-0600 (Central Standard Time),744148.5,B,babyenter,I,enter,1674,2,4964.899999976158,739183.6000000238,8064,WL,B,1.0
6,5.88100004196167,distr,54118.99995803833,Mon Dec 08 2025 09:15:04 GMT-0600 (Central Standard Time),745065.0,B,c,I,c,912,2,916.2999999523163,744148.7000000477,8064,WL,B,2.0
6,6.231000185012817,distr,53768.99981498718,Mon Dec 08 2025 09:15:04 GMT-0600 (Central Standard Time),745414.9000000954,B,co,I,o,339,2,1266.2000000476837,744148.7000000477,8064,WL,B,2.0
6,6.481000185012817,distr,53518.99981498718,Mon Dec 08 2025 09:15:04 GMT-0600 (Central Standard Time),745664.9000000954,B,coi,I,i,246,2,1516.2000000476837,744148.7000000477,8064,WL,B,2.0
6,6.831000089645386,distr,53168.999910354614,Mon Dec 08 2025 09:15:04 GMT-0600 (Central Standard Time),746014.8000000715,B,coin,I,n,340,2,1866.1000000238419,744148.7000000477,8064,WL,B,2.0
6,7.880000114440918,distr,52119.99988555908,Mon Dec 08 2025 09:15:04 GMT-0600 (Central Standard Time),747064.3000000715,B,coinenter,I,enter,1029,2,2915.600000023842,744148.7000000477,8064,WL,B,2.0
6,9.213000059127808,distr,50786.99994087219,Mon Dec 08 2025 09:15:04 GMT-0600 (Central Standard Time),748397.4000000954,B,s,I,s,1316,2,1332.8000000715256,747064.6000000238,8064,WL,B,3.0
6,9.980000019073486,distr,50019.999980926514,Mon Dec 08 2025 09:15:04 GMT-0600 (Central Standard Time),749163.7000000477,B,st,I,t,751,2,2099.100000023842,747064.6000000238,8064,WL,B,3.0
6,10.296000003814697,distr,49703.9999961853,Mon Dec 08 2025 09:15:04 GMT-0600 (Central Standard Time),749480.2000000477,B,sto,I,o,297,2,2415.600000023842,747064.6000000238,8064,WL,B,3.0
6,10.59600019454956,distr,49403.99980545044,Mon Dec 08 2025 09:15:04 GMT-0600 (Central Standard Time),749780.2000000477,B,stor,I,r,292,2,2715.600000023842,747064.6000000238,8064,WL,B,3.0
6,11.229000091552734,distr,48770.999908447266,Mon Dec 08 2025 09:15:04 GMT-0600 (Central Standard Time),750413.3000000715,B,storm,I,m,624,2,3348.7000000476837,747064.6000000238,8064,WL,B,3.0
6,12.479000091552734,distr,47520.999908447266,Mon Dec 08 2025 09:15:04 GMT-0600 (Central Standard Time),751663.0,B,stormenter,I,enter,1231,2,4598.399999976158,747064.6000000238,8064,WL,B,3.0
6,13.01200008392334,distr,46987.99991607666,Mon Dec 08 2025 09:15:04 GMT-0600 (Central Standard Time),752196.2000000477,B,r,I,r,517,2,532.8999999761581,751663.3000000715,8064,WL,B,4.0
6,13.296000003814697,distr,46703.9999961853,Mon Dec 08 2025 09:15:04 GMT-0600 (Central Standard Time),752479.5,B,ro,I,o,264,2,816.1999999284744,751663.3000000715,8064,WL,B,4.0
6,13.995000123977661,distr,46004.99987602234,Mon Dec 08 2025 09:15:04 GMT-0600 (Central Standard Time),753179.0,B,roc,I,c,685,2,1515.6999999284744,751663.3000000715,8064,WL,B,4.0
6,14.328999996185303,distr,45671.0000038147,Mon Dec 08 2025 09:15:04 GMT-0600 (Central Standard Time),753512.4000000954,B,rock,I,k,321,2,1849.1000000238419,751663.3000000715,8064,WL,B,4.0
6,15.728000164031982,distr,44271.99983596802,Mon Dec 08 2025 09:15:04 GMT-0600 (Central Standard Time),754911.9000000954,B,rockenter,I,enter,1380,2,3248.600000023842,751663.3000000715,8064,WL,B,4.0
6,16.34500002861023,distr,43654.99997138977,Mon Dec 08 2025 09:15:04 GMT-0600 (Central Standard Time),755528.5,B,l,I,l,605,2,616.3999999761581,754912.1000000238,8064,WL,B,5.0
6,16.66100001335144,distr,43338.99998664856,Mon Dec 08 2025 09:15:04 GMT-0600 (Central Standard Time),755844.9000000954,B,li,I,i,308,2,932.8000000715256,754912.1000000238,8064,WL,B,5.0
6,17.14400005340576,distr,42855.99994659424,Mon Dec 08 2025 09:15:04 GMT-0600 (Central Standard Time),756328.1000000238,B,lip,I,p,472,2,1416.0,754912.1000000238,8064,WL,B,5.0
6,17.8270001411438,distr,42172.9998588562,Mon Dec 08 2025 09:15:04 GMT-0600 (Central Standard Time),757011.2000000477,B,lipenter,I,enter,676,2,2099.100000023842,754912.1000000238,8064,WL,B,5.0
6,18.544000148773193,distr,41455.99985122681,Mon Dec 08 2025 09:15:04 GMT-0600 (Central Standard Time),757727.7000000477,B,o,I,o,697,2,716.2999999523163,757011.4000000954,8064,WL,B,6.0
6,18.89400005340576,distr,41105.99994659424,Mon Dec 08 2025 09:15:04 GMT-0600 (Central Standard Time),758077.5,B,oc,I,c,341,2,1066.0999999046326,757011.4000000954,8064,WL,B,6.0
6,19.22699999809265,distr,40773.00000190735,Mon Dec 08 2025 09:15:04 GMT-0600 (Central Standard Time),758410.8000000715,B,oce,I,e,319,2,1399.3999999761581,757011.4000000954,8064,WL,B,6.0
6,19.542999982833862,distr,40457.00001716614,Mon Dec 08 2025 09:15:04 GMT-0600 (Central Standard Time),758727.3000000715,B,ocea,I,a,297,2,1715.8999999761581,757011.4000000954,8064,WL,B,6.0
6,19.927000045776367,distr,40072.99995422363,Mon Dec 08 2025 09:15:04 GMT-0600 (Central Standard Time),759110.8000000715,B,ocean,I,n,373,2,2099.399999976158,757011.4000000954,8064,WL,B,6.0
6,21.31000018119812,distr,38689.99981880188,Mon Dec 08 2025 09:15:04 GMT-0600 (Central Standard Time),760493.5,B,oceanenter,I,enter,1366,2,3482.0999999046326,757011.4000000954,8064,WL,B,6.0
6,23.026000022888184,distr,36973.99997711182,Mon Dec 08 2025 09:15:04 GMT-0600 (Central Standard Time),762209.6000000238,B,p,I,p,1702,2,1715.8999999761581,760493.7000000477,8064,WL,B,7.0
6,23.326000213623047,distr,36673.99978637695,Mon Dec 08 2025 09:15:04 GMT-0600 (Central Standard Time),762509.6000000238,B,pa,I,a,282,2,2015.8999999761581,760493.7000000477,8064,WL,B,7.0
6,23.609000205993652,distr,36390.99979400635,Mon Dec 08 2025 09:15:04 GMT-0600 (Central Standard Time),762792.8000000715,B,pal,I,l,263,2,2299.100000023842,760493.7000000477,8064,WL,B,7.0
6,23.892000198364258,distr,36107.99980163574,Mon Dec 08 2025 09:15:04 GMT-0600 (Central Standard Time),763075.9000000954,B,pala,I,a,268,2,2582.2000000476837,760493.7000000477,8064,WL,B,7.0
6,24.259000062942505,distr,35740.999937057495,Mon Dec 08 2025 09:15:04 GMT-0600 (Central Standard Time),763442.5,B,palac,I,c,353,2,2948.7999999523163,760493.7000000477,8064,WL,B,7.0
6,24.575000047683716,distr,35424.999952316284,Mon Dec 08 2025 09:15:04 GMT-0600 (Central Standard Time),763759.1000000238,B,palace,I,e,298,2,3265.399999976158,760493.7000000477,8064,WL,B,7.0
6,25.642000198364258,distr,34357.99980163574,Mon Dec 08 2025 09:15:04 GMT-0600 (Central Standard Time),764825.6000000238,B,palaceenter,I,enter,1061,2,4331.899999976158,760493.7000000477,8064,WL,B,7.0
6,29.674000024795532,distr,30325.999975204468,Mon Dec 08 2025 09:15:04 GMT-0600 (Central Standard Time),768857.6000000238,B,enter,I,enter,4026,2,4031.7999999523163,764825.8000000715,8064,WL,B,8.0
6,29.94000005722046,distr,30059.99994277954,Mon Dec 08 2025 09:15:04 GMT-0600 (Central Standard Time),769124.0,B,enter,I,enter,251,2,266.1999999284744,768857.8000000715,8064,WL,B,9.0
6,30.207000017166138,distr,29792.999982833862,Mon Dec 08 2025 09:15:04 GMT-0600 (Central Standard Time),769390.8000000715,B,enter,I,enter,249,2,266.60000002384186,769124.2000000477,8064,WL,B,10.0
6,30.424000024795532,distr,29575.999975204468,Mon Dec 08 2025 09:15:04 GMT-0600 (Central Standard Time),769607.4000000954,B,enter,I,enter,198,2,216.30000007152557,769391.1000000238,8064,WL,B,11.0
6,30.907000064849854,distr,29092.999935150146,Mon Dec 08 2025 09:15:04 GMT-0600 (Central Standard Time),770090.4000000954,B,enter,I,enter,469,2,482.60000002384186,769607.8000000715,8064,WL,B,12.0
6,31.123000144958496,distr,28876.999855041504,Mon Dec 08 2025 09:15:04 GMT-0600 (Central Standard Time),770307.0,B,enter,I,enter,210,2,216.29999995231628,770090.7000000477,8064,WL,B,13.0
6,31.35700011253357,distr,28642.99988746643,Mon Dec 08 2025 09:15:04 GMT-0600 (Central Standard Time),770540.4000000954,B,enter,I,enter,225,2,233.10000002384186,770307.3000000715,8064,WL,B,14.0
6,31.573000192642212,distr,28426.999807357788,Mon Dec 08 2025 09:15:04 GMT-0600 (Central Standard Time),770757.0,B,enter,I,enter,200,2,216.19999992847443,770540.8000000715,8064,WL,B,15.0
7,9.480000019073486,immed,50519.999980926514,Mon Dec 08 2025 09:15:04 GMT-0600 (Central Standard Time),781653.6000000238,A,s,I,s,9464,2,9480.199999928474,772173.4000000954,8064,WL,B,1.0
7,9.895999908447266,immed,50104.000091552734,Mon Dec 08 2025 09:15:04 GMT-0600 (Central Standard Time),782070.2000000477,A,st,I,t,398,2,9896.799999952316,772173.4000000954,8064,WL,B,1.0
7,10.52999997138977,immed,49470.00002861023,Mon Dec 08 2025 09:15:04 GMT-0600 (Central Standard Time),782703.6000000238,A,str,I,r,614,2,10530.199999928474,772173.4000000954,8064,WL,B,1.0
7,10.962000131607056,immed,49037.999868392944,Mon Dec 08 2025 09:15:04 GMT-0600 (Central Standard Time),783136.4000000954,A,stre,I,e,413,2,10963.0,772173.4000000954,8064,WL,B,1.0
7,11.178999900817871,immed,48821.00009918213,Mon Dec 08 2025 09:15:04 GMT-0600 (Central Standard Time),783353.1000000238,A,stree,I,e,204,2,11179.699999928474,772173.4000000954,8064,WL,B,1.0
7,11.562000036239624,immed,48437.999963760376,Mon Dec 08 2025 09:15:04 GMT-0600 (Central Standard Time),783736.2000000477,A,street,I,t,372,2,11562.799999952316,772173.4000000954,8064,WL,B,1.0
7,12.312000036239624,immed,47687.999963760376,Mon Dec 08 2025 09:15:04 GMT-0600 (Central Standard Time),784485.9000000954,A,streetenter,I,enter,740,2,12312.5,772173.4000000954,8064,WL,B,1.0
7,12.742000102996826,immed,47257.999897003174,Mon Dec 08 2025 09:15:04 GMT-0600 (Central Standard Time),784916.4000000954,A,g,I,g,425,2,430.2000000476837,784486.2000000477,8064,WL,B,2.0
7,12.944999933242798,immed,47055.0000667572,Mon Dec 08 2025 09:15:04 GMT-0600 (Central Standard Time),785119.2000000477,A,gr,I,r,183,2,633.0,784486.2000000477,8064,WL,B,2.0
7,13.212000131607056,immed,46787.999868392944,Mon Dec 08 2025 09:15:04 GMT-0600 (Central Standard Time),785385.7000000477,A,gra,I,a,258,2,899.5,784486.2000000477,8064,WL,B,2.0
7,13.67799997329712,immed,46322.00002670288,Mon Dec 08 2025 09:15:04 GMT-0600 (Central Standard Time),785852.2000000477,A,gras,I,s,459,2,1366.0,784486.2000000477,8064,WL,B,2.0
7,13.977999925613403,immed,46022.0000743866,Mon Dec 08 2025 09:15:04 GMT-0600 (Central Standard Time),786152.0,A,grass,I,s,280,2,1665.7999999523163,784486.2000000477,8064,WL,B,2.0
7,14.545000076293945,immed,45454.999923706055,Mon Dec 08 2025 09:15:04 GMT-0600 (Central Standard Time),786718.7000000477,A,grassenter,I,enter,548,2,2232.5,784486.2000000477,8064,WL,B,2.0
7,16.677000045776367,immed,43322.99995422363,Mon Dec 08 2025 09:15:04 GMT-0600 (Central Standard Time),788851.2000000477,A,d,I,d,2126,2,2132.2000000476837,786719.0,8064,WL,B,3.0
7,17.509999990463257,immed,42490.00000953674,Mon Dec 08 2025 09:15:04 GMT-0600 (Central Standard Time),789684.3000000715,A,do,I,o,825,2,2965.3000000715256,786719.0,8064,WL,B,3.0
7,17.72699999809265,immed,42273.00000190735,Mon Dec 08 2025 09:15:04 GMT-0600 (Central Standard Time),789901.4000000954,A,doo,I,o,208,2,3182.4000000953674,786719.0,8064,WL,B,3.0
7,18.127000093460083,immed,41872.99990653992,Mon Dec 08 2025 09:15:04 GMT-0600 (Central Standard Time),790300.9000000954,A,door,I,r,391,2,3581.9000000953674,786719.0,8064,WL,B,3.0
7,18.80999994277954,immed,41190.00005722046,Mon Dec 08 2025 09:15:04 GMT-0600 (Central Standard Time),790984.0,A,doorenter,I,enter,671,2,4265.0,786719.0,8064,WL,B,3.0
7,19.22699999809265,immed,40773.00000190735,Mon Dec 08 2025 09:15:04 GMT-0600 (Central Standard Time),791400.6000000238,A,s,I,s,404,2,416.39999997615814,790984.2000000477,8064,WL,B,4.0
7,19.55999994277954,immed,40440.00005722046,Mon Dec 08 2025 09:15:04 GMT-0600 (Central Standard Time),791733.8000000715,A,st,I,t,316,2,749.6000000238419,790984.2000000477,8064,WL,B,4.0
7,19.89300012588501,immed,40106.99987411499,Mon Dec 08 2025 09:15:04 GMT-0600 (Central Standard Time),792066.9000000954,A,sta,I,a,319,2,1082.7000000476837,790984.2000000477,8064,WL,B,4.0
7,20.575999975204468,immed,39424.00002479553,Mon Dec 08 2025 09:15:04 GMT-0600 (Central Standard Time),792750.0,A,star,I,r,665,2,1765.7999999523163,790984.2000000477,8064,WL,B,4.0
7,21.441999912261963,immed,38558.00008773804,Mon Dec 08 2025 09:15:04 GMT-0600 (Central Standard Time),793616.5,A,starenter,I,enter,855,2,2632.2999999523163,790984.2000000477,8064,WL,B,4.0
7,23.64199995994568,immed,36358.00004005432,Mon Dec 08 2025 09:15:04 GMT-0600 (Central Standard Time),795815.8000000715,A,a,I,a,2188,2,2199.100000023842,793616.7000000477,8064,WL,B,5.0
7,24.008000135421753,immed,35991.99986457825,Mon Dec 08 2025 09:15:04 GMT-0600 (Central Standard Time),796182.3000000715,A,ar,I,r,349,2,2565.600000023842,793616.7000000477,8064,WL,B,5.0
7,24.924999952316284,immed,35075.000047683716,Mon Dec 08 2025 09:15:04 GMT-0600 (Central Standard Time),797098.7000000477,A,arm,I,m,902,2,3482.0,793616.7000000477,8064,WL,B,5.0
7,26.04100012779236,immed,33958.99987220764,Mon Dec 08 2025 09:15:04 GMT-0600 (Central Standard Time),798214.9000000954,A,armenter,I,enter,1106,2,4598.200000047684,793616.7000000477,8064,WL,B,5.0
7,27.006999969482422,immed,32993.00003051758,Mon Dec 08 2025 09:15:04 GMT-0600 (Central Standard Time),799181.4000000954,A,w,I,w,950,2,966.3000000715256,798215.1000000238,8064,WL,B,6.0
7,27.374000072479248,immed,32625.999927520752,Mon Dec 08 2025 09:15:04 GMT-0600 (Central Standard Time),799548.0,A,wi,I,i,351,2,1332.8999999761581,798215.1000000238,8064,WL,B,6.0
7,27.69099998474121,immed,32309.00001525879,Mon Dec 08 2025 09:15:04 GMT-0600 (Central Standard Time),799864.7000000477,A,win,I,n,296,2,1649.6000000238419,798215.1000000238,8064,WL,B,6.0
7,28.2739999294281,immed,31726.0000705719,Mon Dec 08 2025 09:15:04 GMT-0600 (Central Standard Time),800447.6000000238,A,wind,I,d,564,2,2232.5,798215.1000000238,8064,WL,B,6.0
7,28.5239999294281,immed,31476.0000705719,Mon Dec 08 2025 09:15:04 GMT-0600 (Central Standard Time),800697.6000000238,A,windo,I,o,244,2,2482.5,798215.1000000238,8064,WL,B,6.0
7,28.890000104904175,immed,31109.999895095825,Mon Dec 08 2025 09:15:04 GMT-0600 (Central Standard Time),801064.0,A,window,I,w,355,2,2848.899999976158,798215.1000000238,8064,WL,B,6.0
7,29.756999969482422,immed,30243.000030517578,Mon Dec 08 2025 09:15:04 GMT-0600 (Central Standard Time),801930.6000000238,A,windowenter,I,enter,852,2,3715.5,798215.1000000238,8064,WL,B,6.0
7,31.888999938964844,immed,28111.000061035156,Mon Dec 08 2025 09:15:04 GMT-0600 (Central Standard Time),804063.1000000238,A,c,I,c,2122,2,2132.2999999523163,801930.8000000715,8064,WL,B,7.0
7,32.138999938964844,immed,27861.000061035156,Mon Dec 08 2025 09:15:04 GMT-0600 (Central Standard Time),804313.2000000477,A,ca,I,a,245,2,2382.399999976158,801930.8000000715,8064,WL,B,7.0
7,32.539000034332275,immed,27460.999965667725,Mon Dec 08 2025 09:15:04 GMT-0600 (Central Standard Time),804713.1000000238,A,cab,I,b,395,2,2782.2999999523163,801930.8000000715,8064,WL,B,7.0
7,32.956000089645386,immed,27043.999910354614,Mon Dec 08 2025 09:15:04 GMT-0600 (Central Standard Time),805129.6000000238,A,cabi,I,i,403,2,3198.7999999523163,801930.8000000715,8064,WL,B,7.0
7,33.22200012207031,immed,26777.999877929688,Mon Dec 08 2025 09:15:04 GMT-0600 (Central Standard Time),805395.9000000954,A,cabin,I,n,259,2,3465.100000023842,801930.8000000715,8064,WL,B,7.0
7,34.07200002670288,immed,25927.99997329712,Mon Dec 08 2025 09:15:04 GMT-0600 (Central Standard Time),806245.8000000715,A,cabinenter,I,enter,833,2,4315.0,801930.8000000715,8064,WL,B,7.0
7,35.0550000667572,immed,24944.999933242798,Mon Dec 08 2025 09:15:04 GMT-0600 (Central Standard Time),807228.9000000954,A,p,I,p,975,2,982.8000000715256,806246.1000000238,8064,WL,B,8.0
7,35.65499997138977,immed,24345.00002861023,Mon Dec 08 2025 09:15:04 GMT-0600 (Central Standard Time),807828.6000000238,A,pu,I,u,591,2,1582.5,806246.1000000238,8064,WL,B,8.0
7,36.335999965667725,immed,23664.000034332275,Mon Dec 08 2025 09:15:04 GMT-0600 (Central Standard Time),808509.5,A,pup,I,p,676,2,2263.399999976158,806246.1000000238,8064,WL,B,8.0
7,36.55399990081787,immed,23446.00009918213,Mon Dec 08 2025 09:15:04 GMT-0600 (Central Standard Time),808728.4000000954,A,pupi,I,i,207,2,2482.3000000715256,806246.1000000238,8064,WL,B,8.0
7,36.854000091552734,immed,23145.999908447266,Mon Dec 08 2025 09:15:04 GMT-0600 (Central Standard Time),809028.2000000477,A,pupil,I,l,292,2,2782.100000023842,806246.1000000238,8064,WL,B,8.0
7,37.687000036239624,immed,22312.999963760376,Mon Dec 08 2025 09:15:04 GMT-0600 (Central Standard Time),809861.1000000238,A,pupilenter,I,enter,824,2,3615.0,806246.1000000238,8064,WL,B,8.0
7,38.2039999961853,immed,21796.000003814697,Mon Dec 08 2025 09:15:04 GMT-0600 (Central Standard Time),810377.9000000954,A,p,I,p,503,2,516.5,809861.4000000954,8064,WL,B,9.0
7,38.53699994087219,immed,21463.000059127808,Mon Dec 08 2025 09:15:04 GMT-0600 (Central Standard Time),810711.1000000238,A,pi,I,i,314,2,849.6999999284744,809861.4000000954,8064,WL,B,9.0
7,39.55299997329712,immed,20447.00002670288,Mon Dec 08 2025 09:15:04 GMT-0600 (Central Standard Time),811727.5,A,pip,I,p,997,2,1866.0999999046326,809861.4000000954,8064,WL,B,9.0
7,39.97000002861023,immed,20029.99997138977,Mon Dec 08 2025 09:15:04 GMT-0600 (Central Standard Time),812143.9000000954,A,pipe,I,e,405,2,2282.5,809861.4000000954,8064,WL,B,9.0
7,40.78600001335144,immed,19213.99998664856,Mon Dec 08 2025 09:15:04 GMT-0600 (Central Standard Time),812960.4000000954,A,pipeenter,I,enter,804,2,3099.0,809861.4000000954,8064,WL,B,9.0
7,41.170000076293945,immed,18829.999923706055,Mon Dec 08 2025 09:15:04 GMT-0600 (Central Standard Time),813343.5,A,c,I,c,372,2,382.89999997615814,812960.6000000238,8064,WL,B,10.0
7,41.6029999256134,immed,18397.000074386597,Mon Dec 08 2025 09:15:04 GMT-0600 (Central Standard Time),813776.8000000715,A,cl,I,l,421,2,816.2000000476837,812960.6000000238,8064,WL,B,10.0
7,41.90300011634827,immed,18096.999883651733,Mon Dec 08 2025 09:15:04 GMT-0600 (Central Standard Time),814076.6000000238,A,clo,I,o,284,2,1116.0,812960.6000000238,8064,WL,B,10.0
7,43.21900010108948,immed,16780.999898910522,Mon Dec 08 2025 09:15:04 GMT-0600 (Central Standard Time),815392.9000000954,A,cloc,I,c,1312,2,2432.3000000715256,812960.6000000238,8064,WL,B,10.0
7,43.503000020980835,immed,16496.999979019165,Mon Dec 08 2025 09:15:04 GMT-0600 (Central Standard Time),815677.2000000477,A,clock,I,k,267,2,2716.600000023842,812960.6000000238,8064,WL,B,10.0
7,44.668999910354614,immed,15331.000089645386,Mon Dec 08 2025 09:15:04 GMT-0600 (Central Standard Time),816842.6000000238,A,clockenter,I,enter,1151,2,3882.0,812960.6000000238,8064,WL,B,10.0
7,45.35199999809265,immed,14648.000001907349,Mon Dec 08 2025 09:15:04 GMT-0600 (Central Standard Time),817525.6000000238,A,l,I,l,673,2,682.7999999523163,816842.8000000715,8064,WL,B,11.0
7,46.01800012588501,immed,13981.99987411499,Mon Dec 08 2025 09:15:04 GMT-0600 (Central Standard Time),818192.1000000238,A,la,I,a,655,2,1349.2999999523163,816842.8000000715,8064,WL,B,11.0
7,46.33500003814697,immed,13664.999961853027,Mon Dec 08 2025 09:15:04 GMT-0600 (Central Standard Time),818508.6000000238,A,lak,I,k,308,2,1665.7999999523163,816842.8000000715,8064,WL,B,11.0
7,46.68400001525879,immed,13315.999984741211,Mon Dec 08 2025 09:15:04 GMT-0600 (Central Standard Time),818858.5,A,lake,I,e,335,2,2015.6999999284744,816842.8000000715,8064,WL,B,11.0
7,47.25099992752075,immed,12749.000072479248,Mon Dec 08 2025 09:15:04 GMT-0600 (Central Standard Time),819425.1000000238,A,lakeenter,I,enter,554,2,2582.2999999523163,816842.8000000715,8064,WL,B,11.0
7,47.634000062942505,immed,12365.999937057495,Mon Dec 08 2025 09:15:04 GMT-0600 (Central Standard Time),819808.3000000715,A,c,I,c,371,2,382.89999997615814,819425.4000000954,8064,WL,B,12.0
7,47.96799993515015,immed,12032.000064849854,Mon Dec 08 2025 09:15:04 GMT-0600 (Central Standard Time),820142.1000000238,A,ci,I,i,324,2,716.6999999284744,819425.4000000954,8064,WL,B,12.0
7,48.33400011062622,immed,11665.99988937378,Mon Dec 08 2025 09:15:04 GMT-0600 (Central Standard Time),820507.9000000954,A,cit,I,t,359,2,1082.5,819425.4000000954,8064,WL,B,12.0
7,48.70099997520447,immed,11299.000024795532,Mon Dec 08 2025 09:15:04 GMT-0600 (Central Standard Time),820874.5,A,city,I,y,361,2,1449.0999999046326,819425.4000000954,8064,WL,B,12.0
7,49.617000102996826,immed,10382.999897003174,Mon Dec 08 2025 09:15:04 GMT-0600 (Central Standard Time),821790.9000000954,A,cityenter,I,enter,906,2,2365.5,819425.4000000954,8064,WL,B,12.0
7,50.43300008773804,immed,9566.999912261963,Mon Dec 08 2025 09:15:04 GMT-0600 (Central Standard Time),822607.2000000477,A,f,I,f,806,2,816.1000000238419,821791.1000000238,8064,WL,B,13.0
7,50.73300004005432,immed,9266.999959945679,Mon Dec 08 2025 09:15:04 GMT-0600 (Central Standard Time),822907.1000000238,A,fi,I,i,285,2,1116.0,821791.1000000238,8064,WL,B,13.0
7,51.25,immed,8750.0,Mon Dec 08 2025 09:15:04 GMT-0600 (Central Standard Time),823423.9000000954,A,fir,I,r,497,2,1632.8000000715256,821791.1000000238,8064,WL,B,13.0
7,51.68300008773804,immed,8316.999912261963,Mon Dec 08 2025 09:15:04 GMT-0600 (Central Standard Time),823857.0,A,fire,I,e,421,2,2065.899999976158,821791.1000000238,8064,WL,B,13.0
7,52.848999977111816,immed,7151.000022888184,Mon Dec 08 2025 09:15:04 GMT-0600 (Central Standard Time),825023.4000000954,A,fireenter,I,enter,1148,2,3232.3000000715256,821791.1000000238,8064,WL,B,13.0
7,54.58200001716614,immed,5417.999982833862,Mon Dec 08 2025 09:15:04 GMT-0600 (Central Standard Time),826756.1000000238,A,l,I,l,1717,2,1732.3999999761581,825023.7000000477,8064,WL,B,14.0
7,55.14800000190735,immed,4851.999998092651,Mon Dec 08 2025 09:15:04 GMT-0600 (Central Standard Time),827322.5,A,la,I,a,560,2,2298.7999999523163,825023.7000000477,8064,WL,B,14.0
7,55.44799995422363,immed,4552.000045776367,Mon Dec 08 2025 09:15:04 GMT-0600 (Central Standard Time),827622.4000000954,A,lak,I,k,290,2,2598.7000000476837,825023.7000000477,8064,WL,B,14.0
7,55.83200001716614,immed,4167.999982833862,Mon Dec 08 2025 09:15:04 GMT-0600 (Central Standard Time),828005.7000000477,A,lake,I,e,374,2,2982.0,825023.7000000477,8064,WL,B,14.0
7,57.14800000190735,immed,2851.9999980926514,Mon Dec 08 2025 09:15:04 GMT-0600 (Central Standard Time),829321.9000000954,A,lakeenter,I,enter,1311,2,4298.200000047684,825023.7000000477,8064,WL,B,14.0
7,60.05800008773804,immed,-58.00008773803711,Mon Dec 08 2025 09:15:04 GMT-0600 (Central Standard Time),832232.5,A,None,I,None,2906,2,2910.399999976158,829322.1000000238,8064,WL,B,15.0
