block_c,block_dur,condition,countdown,datetime,endtime,list,multichar_response,project,response,response_time,session_number,start_end,starttime,subject_id,task,task_vers,trial
,,,,Tue Jan 20 2026 15:19:13 GMT-0600 (Central Standard Time),,,,O,space,558,1,,,7730,WL,B,
prac,,0,,Tue Jan 20 2026 15:19:13 GMT-0600 (Central Standard Time),,NA,b,O,b,6437,1,,,7730,WL,B,1.0
prac,,0,,Tue Jan 20 2026 15:19:13 GMT-0600 (Central Standard Time),,NA,bo,O,o,1336,1,,,7730,WL,B,1.0
prac,,0,,Tue Jan 20 2026 15:19:13 GMT-0600 (Central Standard Time),,NA,boo,O,o,172,1,,,7730,WL,B,1.0
prac,,0,,Tue Jan 20 2026 15:19:13 GMT-0600 (Central Standard Time),,NA,boos,O,s,221,1,,,7730,WL,B,1.0
prac,,0,,Tue Jan 20 2026 15:19:13 GMT-0600 (Central Standard Time),,NA,boost,O,t,181,1,,,7730,WL,B,1.0
prac,,0,,Tue Jan 20 2026 15:19:13 GMT-0600 (Central Standard Time),,NA,boostenter,O,enter,1076,1,,,7730,WL,B,1.0
1,1.1480000019073486,learn,58851.99999809265,Tue Jan 20 2026 15:19:13 GMT-0600 (Central Standard Time),184008.20000004768,A,s,O,s,1133,1,1147.3000001907349,182860.89999985695,7730,WL,B,1.0
1,1.3819999694824219,learn,58618.00003051758,Tue Jan 20 2026 15:19:13 GMT-0600 (Central Standard Time),184242.20000004768,A,st,O,t,215,1,1381.3000001907349,182860.89999985695,7730,WL,B,1.0
1,1.6660001277923584,learn,58333.99987220764,Tue Jan 20 2026 15:19:13 GMT-0600 (Central Standard Time),184526.39999985695,A,str,O,r,274,1,1665.5,182860.89999985695,7730,WL,B,1.0
1,2.0820000171661377,learn,57917.99998283386,Tue Jan 20 2026 15:19:13 GMT-0600 (Central Standard Time),184942.20000004768,A,stre,O,e,404,1,2081.300000190735,182860.89999985695,7730,WL,B,1.0
1,2.265000104904175,learn,57734.999895095825,Tue Jan 20 2026 15:19:13 GMT-0600 (Central Standard Time),185125.89999985695,A,stree,O,e,164,1,2265.0,182860.89999985695,7730,WL,B,1.0
1,2.4809999465942383,learn,57519.00005340576,Tue Jan 20 2026 15:19:13 GMT-0600 (Central Standard Time),185341.5,A,street,O,t,205,1,2480.600000143051,182860.89999985695,7730,WL,B,1.0
1,5.913000106811523,learn,54086.99989318848,Tue Jan 20 2026 15:19:13 GMT-0600 (Central Standard Time),188773.89999985695,A,streetenter,O,enter,3422,1,5913.0,182860.89999985695,7730,WL,B,1.0
1,6.895999908447266,learn,53104.000091552734,Tue Jan 20 2026 15:19:13 GMT-0600 (Central Standard Time),189756.5,A,d,O,d,974,1,982.4000000953674,188774.09999990463,7730,WL,B,2.0
1,7.246000051498413,learn,52753.99994850159,Tue Jan 20 2026 15:19:13 GMT-0600 (Central Standard Time),190106.59999990463,A,do,O,o,343,1,1332.5,188774.09999990463,7730,WL,B,2.0
1,7.430000066757202,learn,52569.9999332428,Tue Jan 20 2026 15:19:13 GMT-0600 (Central Standard Time),190290.0,A,doo,O,o,168,1,1515.9000000953674,188774.09999990463,7730,WL,B,2.0
1,7.628999948501587,learn,52371.00005149841,Tue Jan 20 2026 15:19:13 GMT-0600 (Central Standard Time),190489.59999990463,A,door,O,r,193,1,1715.5,188774.09999990463,7730,WL,B,2.0
1,8.329999923706055,learn,51670.000076293945,Tue Jan 20 2026 15:19:13 GMT-0600 (Central Standard Time),191190.09999990463,A,doorenter,O,enter,680,1,2416.0,188774.09999990463,7730,WL,B,2.0
1,9.145999908447266,learn,50854.000091552734,Tue Jan 20 2026 15:19:13 GMT-0600 (Central Standard Time),192006.59999990463,A,c,O,c,807,1,816.2000000476837,191190.39999985695,7730,WL,B,3.0
1,9.26200008392334,learn,50737.99991607666,Tue Jan 20 2026 15:19:13 GMT-0600 (Central Standard Time),192122.39999985695,A,ci,O,i,99,1,932.0,191190.39999985695,7730,WL,B,3.0
1,9.446000099182129,learn,50553.99990081787,Tue Jan 20 2026 15:19:13 GMT-0600 (Central Standard Time),192306.09999990463,A,cit,O,t,176,1,1115.7000000476837,191190.39999985695,7730,WL,B,3.0
1,9.562999963760376,learn,50437.000036239624,Tue Jan 20 2026 15:19:13 GMT-0600 (Central Standard Time),192423.79999995232,A,city,O,y,105,1,1233.4000000953674,191190.39999985695,7730,WL,B,3.0
1,9.930000066757202,learn,50069.9999332428,Tue Jan 20 2026 15:19:13 GMT-0600 (Central Standard Time),192790.70000004768,A,cityenter,O,enter,354,1,1600.3000001907349,191190.39999985695,7730,WL,B,3.0
1,11.660000085830688,learn,48339.99991416931,Tue Jan 20 2026 15:19:13 GMT-0600 (Central Standard Time),194520.59999990463,A,l,O,l,1723,1,1729.5,192791.09999990463,7730,WL,B,4.0
1,11.811000108718872,learn,48188.99989128113,Tue Jan 20 2026 15:19:13 GMT-0600 (Central Standard Time),194672.09999990463,A,la,O,a,141,1,1881.0,192791.09999990463,7730,WL,B,4.0
1,11.962000131607056,learn,48037.999868392944,Tue Jan 20 2026 15:19:13 GMT-0600 (Central Standard Time),194822.0,A,lak,O,k,138,1,2030.9000000953674,192791.09999990463,7730,WL,B,4.0
1,12.09500002861023,learn,47904.99997138977,Tue Jan 20 2026 15:19:13 GMT-0600 (Central Standard Time),194955.0,A,lake,O,e,118,1,2163.9000000953674,192791.09999990463,7730,WL,B,4.0
1,12.279000043869019,learn,47720.99995613098,Tue Jan 20 2026 15:19:13 GMT-0600 (Central Standard Time),195139.0,A,lakeenter,O,enter,178,1,2347.9000000953674,192791.09999990463,7730,WL,B,4.0
1,13.796000003814697,learn,46203.9999961853,Tue Jan 20 2026 15:19:13 GMT-0600 (Central Standard Time),196655.89999985695,A,a,O,a,1507,1,1516.5999999046326,195139.29999995232,7730,WL,B,5.0
1,13.930999994277954,learn,46069.000005722046,Tue Jan 20 2026 15:19:13 GMT-0600 (Central Standard Time),196791.20000004768,A,ar,O,r,124,1,1651.9000000953674,195139.29999995232,7730,WL,B,5.0
1,14.144999980926514,learn,45855.000019073486,Tue Jan 20 2026 15:19:13 GMT-0600 (Central Standard Time),197005.29999995232,A,arm,O,m,196,1,1866.0,195139.29999995232,7730,WL,B,5.0
1,14.444000005722046,learn,45555.999994277954,Tue Jan 20 2026 15:19:13 GMT-0600 (Central Standard Time),197304.70000004768,A,armenter,O,enter,279,1,2165.4000000953674,195139.29999995232,7730,WL,B,5.0
1,15.328999996185303,learn,44671.0000038147,Tue Jan 20 2026 15:19:13 GMT-0600 (Central Standard Time),198189.29999995232,A,w,O,w,867,1,884.2000000476837,197305.09999990463,7730,WL,B,6.0
1,15.447999954223633,learn,44552.00004577637,Tue Jan 20 2026 15:19:13 GMT-0600 (Central Standard Time),198308.0,A,wi,O,i,101,1,1002.9000000953674,197305.09999990463,7730,WL,B,6.0
1,15.627000093460083,learn,44372.99990653992,Tue Jan 20 2026 15:19:13 GMT-0600 (Central Standard Time),198487.70000004768,A,wif,O,f,160,1,1182.6000001430511,197305.09999990463,7730,WL,B,6.0
1,15.82800006866455,learn,44171.99993133545,Tue Jan 20 2026 15:19:13 GMT-0600 (Central Standard Time),198688.39999985695,A,wife,O,e,186,1,1383.2999999523163,197305.09999990463,7730,WL,B,6.0
1,15.95900011062622,learn,44040.99988937378,Tue Jan 20 2026 15:19:13 GMT-0600 (Central Standard Time),198819.79999995232,A,wifeenter,O,enter,113,1,1514.7000000476837,197305.09999990463,7730,WL,B,6.0
1,18.092999935150146,learn,41907.00006484985,Tue Jan 20 2026 15:19:13 GMT-0600 (Central Standard Time),200953.09999990463,A,g,O,g,2111,1,2132.899999856949,198820.20000004768,7730,WL,B,7.0
1,18.29200005531311,learn,41707.99994468689,Tue Jan 20 2026 15:19:13 GMT-0600 (Central Standard Time),201152.39999985695,A,gr,O,r,178,1,2332.199999809265,198820.20000004768,7730,WL,B,7.0
1,18.610000133514404,learn,41389.999866485596,Tue Jan 20 2026 15:19:13 GMT-0600 (Central Standard Time),201470.09999990463,A,gra,O,a,301,1,2649.899999856949,198820.20000004768,7730,WL,B,7.0
1,18.9760000705719,learn,41023.9999294281,Tue Jan 20 2026 15:19:13 GMT-0600 (Central Standard Time),201836.39999985695,A,gras,O,s,350,1,3016.199999809265,198820.20000004768,7730,WL,B,7.0
1,19.158999919891357,learn,40841.00008010864,Tue Jan 20 2026 15:19:13 GMT-0600 (Central Standard Time),202020.0,A,grass,O,s,175,1,3199.7999999523163,198820.20000004768,7730,WL,B,7.0
1,19.342000007629395,learn,40657.999992370605,Tue Jan 20 2026 15:19:13 GMT-0600 (Central Standard Time),202202.89999985695,A,grassenter,O,enter,168,1,3382.699999809265,198820.20000004768,7730,WL,B,7.0
1,24.02300000190735,learn,35976.99999809265,Tue Jan 20 2026 15:19:13 GMT-0600 (Central Standard Time),206883.79999995232,A,l,O,l,4672,1,4680.599999904633,202203.20000004768,7730,WL,B,8.0
1,24.240999937057495,learn,35759.000062942505,Tue Jan 20 2026 15:19:13 GMT-0600 (Central Standard Time),207101.29999995232,A,la,O,a,199,1,4898.099999904633,202203.20000004768,7730,WL,B,8.0
1,24.558000087738037,learn,35441.99991226196,Tue Jan 20 2026 15:19:13 GMT-0600 (Central Standard Time),207418.5,A,lak,O,k,311,1,5215.299999952316,202203.20000004768,7730,WL,B,8.0
1,24.69000005722046,learn,35309.99994277954,Tue Jan 20 2026 15:19:13 GMT-0600 (Central Standard Time),207550.59999990463,A,lake,O,e,122,1,5347.399999856949,202203.20000004768,7730,WL,B,8.0
1,24.92300009727478,learn,35076.99990272522,Tue Jan 20 2026 15:19:13 GMT-0600 (Central Standard Time),207783.39999985695,A,lakeenter,O,enter,222,1,5580.199999809265,202203.20000004768,7730,WL,B,8.0
1,34.704999923706055,learn,25295.000076293945,Tue Jan 20 2026 15:19:13 GMT-0600 (Central Standard Time),217564.89999985695,A,s,O,s,9774,1,9781.299999952316,207783.59999990463,7730,WL,B,9.0
1,35.78800010681152,learn,24211.999893188477,Tue Jan 20 2026 15:19:13 GMT-0600 (Central Standard Time),218648.70000004768,A,sc,O,c,1064,1,10865.100000143051,207783.59999990463,7730,WL,B,9.0
1,35.98699998855591,learn,24013.00001144409,Tue Jan 20 2026 15:19:13 GMT-0600 (Central Standard Time),218847.5,A,sch,O,h,179,1,11063.900000095367,207783.59999990463,7730,WL,B,9.0
1,36.28600001335144,learn,23713.99998664856,Tue Jan 20 2026 15:19:13 GMT-0600 (Central Standard Time),219147.0,A,scho,O,o,286,1,11363.400000095367,207783.59999990463,7730,WL,B,9.0
1,36.47099995613098,learn,23529.00004386902,Tue Jan 20 2026 15:19:13 GMT-0600 (Central Standard Time),219331.0,A,schoo,O,o,181,1,11547.400000095367,207783.59999990463,7730,WL,B,9.0
1,36.687000036239624,learn,23312.999963760376,Tue Jan 20 2026 15:19:13 GMT-0600 (Central Standard Time),219547.5,A,school,O,l,212,1,11763.900000095367,207783.59999990463,7730,WL,B,9.0
1,36.98799991607666,learn,23012.00008392334,Tue Jan 20 2026 15:19:13 GMT-0600 (Central Standard Time),219848.39999985695,A,schoolenter,O,enter,297,1,12064.799999952316,207783.59999990463,7730,WL,B,9.0
1,43.818000078201294,learn,16181.999921798706,Tue Jan 20 2026 15:19:13 GMT-0600 (Central Standard Time),226678.39999985695,A,a,O,a,6821,1,6829.799999952316,219848.59999990463,7730,WL,B,10.0
1,44.03500008583069,learn,15964.999914169312,Tue Jan 20 2026 15:19:13 GMT-0600 (Central Standard Time),226895.09999990463,A,ar,O,r,198,1,7046.5,219848.59999990463,7730,WL,B,10.0
1,44.22000002861023,learn,15779.99997138977,Tue Jan 20 2026 15:19:13 GMT-0600 (Central Standard Time),227080.09999990463,A,arm,O,m,179,1,7231.5,219848.59999990463,7730,WL,B,10.0
1,44.51900005340576,learn,15480.999946594238,Tue Jan 20 2026 15:19:13 GMT-0600 (Central Standard Time),227379.89999985695,A,armenter,O,enter,294,1,7531.299999952316,219848.59999990463,7730,WL,B,10.0
1,56.6470000743866,learn,3352.9999256134033,Tue Jan 20 2026 15:19:13 GMT-0600 (Central Standard Time),239508.09999990463,A,w,O,w,12112,1,12127.899999856949,227380.20000004768,7730,WL,B,11.0
1,56.79800009727478,learn,3201.9999027252197,Tue Jan 20 2026 15:19:13 GMT-0600 (Central Standard Time),239658.70000004768,A,wi,O,i,144,1,12278.5,227380.20000004768,7730,WL,B,11.0
1,56.98099994659424,learn,3019.0000534057617,Tue Jan 20 2026 15:19:13 GMT-0600 (Central Standard Time),239841.79999995232,A,wif,O,f,166,1,12461.599999904633,227380.20000004768,7730,WL,B,11.0
1,57.21499991416931,learn,2785.0000858306885,Tue Jan 20 2026 15:19:13 GMT-0600 (Central Standard Time),240075.59999990463,A,wife,O,e,210,1,12695.399999856949,227380.20000004768,7730,WL,B,11.0
1,57.36199998855591,learn,2638.000011444092,Tue Jan 20 2026 15:19:13 GMT-0600 (Central Standard Time),240223.20000004768,A,wifeenter,O,enter,134,1,12843.0,227380.20000004768,7730,WL,B,11.0
1,60.01300001144409,learn,-13.000011444091797,Tue Jan 20 2026 15:19:13 GMT-0600 (Central Standard Time),242873.89999985695,A,None,O,None,2645,1,2650.399999856949,240223.5,7730,WL,B,12.0
2,1.748000144958496,learn,58251.999855041504,Tue Jan 20 2026 15:19:13 GMT-0600 (Central Standard Time),311051.7000000477,A,f,O,f,1733,1,1748.2000000476837,309303.5,7730,WL,B,1.0
2,1.9650001525878906,learn,58034.99984741211,Tue Jan 20 2026 15:19:13 GMT-0600 (Central Standard Time),311268.2999999523,A,fi,O,i,210,1,1964.7999999523163,309303.5,7730,WL,B,1.0
2,2.0820000171661377,learn,57917.99998283386,Tue Jan 20 2026 15:19:13 GMT-0600 (Central Standard Time),311385.2000000477,A,fir,O,r,102,1,2081.7000000476837,309303.5,7730,WL,B,1.0
2,2.31600022315979,learn,57683.99977684021,Tue Jan 20 2026 15:19:13 GMT-0600 (Central Standard Time),311619.0,A,fire,O,e,217,1,2315.5,309303.5,7730,WL,B,1.0
2,2.564000129699707,learn,57435.99987030029,Tue Jan 20 2026 15:19:13 GMT-0600 (Central Standard Time),311867.5,A,fireenter,O,enter,234,1,2564.0,309303.5,7730,WL,B,1.0
2,3.698000192642212,learn,56301.99980735779,Tue Jan 20 2026 15:19:13 GMT-0600 (Central Standard Time),313001.2000000477,A,s,O,s,1129,1,1133.4000000953674,311867.7999999523,7730,WL,B,2.0
2,3.882000207901001,learn,56117.999792099,Tue Jan 20 2026 15:19:13 GMT-0600 (Central Standard Time),313185.2999999523,A,sk,O,k,180,1,1317.5,311867.7999999523,7730,WL,B,2.0
2,4.082000017166138,learn,55917.99998283386,Tue Jan 20 2026 15:19:13 GMT-0600 (Central Standard Time),313385.5,A,ski,O,i,179,1,1517.7000000476837,311867.7999999523,7730,WL,B,2.0
2,4.2820000648498535,learn,55717.99993515015,Tue Jan 20 2026 15:19:13 GMT-0600 (Central Standard Time),313585.09999990463,A,skin,O,n,187,1,1717.2999999523163,311867.7999999523,7730,WL,B,2.0
2,4.514000177383423,learn,55485.99982261658,Tue Jan 20 2026 15:19:13 GMT-0600 (Central Standard Time),313817.39999985695,A,skinenter,O,enter,227,1,1949.5999999046326,311867.7999999523,7730,WL,B,2.0
2,5.214000225067139,learn,54785.99977493286,Tue Jan 20 2026 15:19:13 GMT-0600 (Central Standard Time),314517.0,A,s,O,s,690,1,699.4000000953674,313817.59999990463,7730,WL,B,3.0
2,5.416000127792358,learn,54583.99987220764,Tue Jan 20 2026 15:19:13 GMT-0600 (Central Standard Time),314719.2000000477,A,st,O,t,192,1,901.6000001430511,313817.59999990463,7730,WL,B,3.0
2,5.648000001907349,learn,54351.99999809265,Tue Jan 20 2026 15:19:13 GMT-0600 (Central Standard Time),314951.09999990463,A,str,O,r,214,1,1133.5,313817.59999990463,7730,WL,B,3.0
2,5.88100004196167,learn,54118.99995803833,Tue Jan 20 2026 15:19:13 GMT-0600 (Central Standard Time),315184.89999985695,A,stre,O,e,213,1,1367.2999999523163,313817.59999990463,7730,WL,B,3.0
2,6.0970001220703125,learn,53902.99987792969,Tue Jan 20 2026 15:19:13 GMT-0600 (Central Standard Time),315400.2000000477,A,stree,O,e,195,1,1582.6000001430511,313817.59999990463,7730,WL,B,3.0
2,6.313000202178955,learn,53686.999797821045,Tue Jan 20 2026 15:19:13 GMT-0600 (Central Standard Time),315616.2999999523,A,street,O,t,202,1,1798.7000000476837,313817.59999990463,7730,WL,B,3.0
2,6.496000051498413,learn,53503.99994850159,Tue Jan 20 2026 15:19:13 GMT-0600 (Central Standard Time),315799.2999999523,A,streetenter,O,enter,173,1,1981.7000000476837,313817.59999990463,7730,WL,B,3.0
2,6.997000217437744,learn,53002.999782562256,Tue Jan 20 2026 15:19:13 GMT-0600 (Central Standard Time),316300.5,A,g,O,g,493,1,500.90000009536743,315799.59999990463,7730,WL,B,4.0
2,7.213000059127808,learn,52786.99994087219,Tue Jan 20 2026 15:19:13 GMT-0600 (Central Standard Time),316516.09999990463,A,gr,O,r,199,1,716.5,315799.59999990463,7730,WL,B,4.0
2,7.413000106811523,learn,52586.99989318848,Tue Jan 20 2026 15:19:13 GMT-0600 (Central Standard Time),316716.5,A,gra,O,a,183,1,916.9000000953674,315799.59999990463,7730,WL,B,4.0
2,7.680000066757202,learn,52319.9999332428,Tue Jan 20 2026 15:19:13 GMT-0600 (Central Standard Time),316982.7999999523,A,gras,O,s,257,1,1183.2000000476837,315799.59999990463,7730,WL,B,4.0
2,7.896000146865845,learn,52103.999853134155,Tue Jan 20 2026 15:19:13 GMT-0600 (Central Standard Time),317199.7000000477,A,grass,O,s,206,1,1400.1000001430511,315799.59999990463,7730,WL,B,4.0
2,8.331000089645386,learn,51668.999910354614,Tue Jan 20 2026 15:19:13 GMT-0600 (Central Standard Time),317634.0,A,grassenter,O,enter,421,1,1834.4000000953674,315799.59999990463,7730,WL,B,4.0
2,8.878000020980835,learn,51121.999979019165,Tue Jan 20 2026 15:19:13 GMT-0600 (Central Standard Time),318181.2999999523,A,d,O,d,529,1,547.0,317634.2999999523,7730,WL,B,5.0
2,9.070000171661377,learn,50929.99982833862,Tue Jan 20 2026 15:19:13 GMT-0600 (Central Standard Time),318373.7999999523,A,do,O,o,182,1,739.5,317634.2999999523,7730,WL,B,5.0
2,9.235000133514404,learn,50764.999866485596,Tue Jan 20 2026 15:19:13 GMT-0600 (Central Standard Time),318538.7000000477,A,doo,O,o,161,1,904.4000000953674,317634.2999999523,7730,WL,B,5.0
2,9.430000066757202,learn,50569.9999332428,Tue Jan 20 2026 15:19:13 GMT-0600 (Central Standard Time),318732.89999985695,A,door,O,r,178,1,1098.5999999046326,317634.2999999523,7730,WL,B,5.0
2,10.045000076293945,learn,49954.999923706055,Tue Jan 20 2026 15:19:13 GMT-0600 (Central Standard Time),319348.59999990463,A,doorl,O,l,600,1,1714.2999999523163,317634.2999999523,7730,WL,B,5.0
2,10.212000131607056,learn,49787.999868392944,Tue Jan 20 2026 15:19:13 GMT-0600 (Central Standard Time),319515.7000000477,A,doorla,O,a,150,1,1881.4000000953674,317634.2999999523,7730,WL,B,5.0
2,10.84500002861023,learn,49154.99997138977,Tue Jan 20 2026 15:19:13 GMT-0600 (Central Standard Time),320148.09999990463,A,doorl,O,backspace,616,1,2513.7999999523163,317634.2999999523,7730,WL,B,5.0
2,11.062000036239624,learn,48937.999963760376,Tue Jan 20 2026 15:19:13 GMT-0600 (Central Standard Time),320365.0,A,door,O,backspace,207,1,2730.7000000476837,317634.2999999523,7730,WL,B,5.0
2,11.745000123977661,learn,48254.99987602234,Tue Jan 20 2026 15:19:13 GMT-0600 (Central Standard Time),321048.09999990463,A,doorenter,O,enter,665,1,3413.7999999523163,317634.2999999523,7730,WL,B,5.0
2,12.76200008392334,learn,47237.99991607666,Tue Jan 20 2026 15:19:13 GMT-0600 (Central Standard Time),322065.2999999523,A,l,O,l,1012,1,1017.0,321048.2999999523,7730,WL,B,6.0
2,13.011000156402588,learn,46988.99984359741,Tue Jan 20 2026 15:19:13 GMT-0600 (Central Standard Time),322314.39999985695,A,la,O,a,234,1,1266.0999999046326,321048.2999999523,7730,WL,B,6.0
2,13.295000076293945,learn,46704.999923706055,Tue Jan 20 2026 15:19:13 GMT-0600 (Central Standard Time),322597.89999985695,A,lak,O,k,271,1,1549.5999999046326,321048.2999999523,7730,WL,B,6.0
2,13.428000211715698,learn,46571.9997882843,Tue Jan 20 2026 15:19:13 GMT-0600 (Central Standard Time),322731.5,A,lake,O,e,114,1,1683.2000000476837,321048.2999999523,7730,WL,B,6.0
2,13.628000020980835,learn,46371.999979019165,Tue Jan 20 2026 15:19:13 GMT-0600 (Central Standard Time),322931.2000000477,A,lakeenter,O,enter,184,1,1882.9000000953674,321048.2999999523,7730,WL,B,6.0
2,14.327000141143799,learn,45672.9998588562,Tue Jan 20 2026 15:19:13 GMT-0600 (Central Standard Time),323630.7000000477,A,p,O,p,680,1,699.2000000476837,322931.5,7730,WL,B,7.0
2,14.544000148773193,learn,45455.99985122681,Tue Jan 20 2026 15:19:13 GMT-0600 (Central Standard Time),323847.7999999523,A,pu,O,u,207,1,916.2999999523163,322931.5,7730,WL,B,7.0
2,14.812000036239624,learn,45187.999963760376,Tue Jan 20 2026 15:19:13 GMT-0600 (Central Standard Time),324114.89999985695,A,pup,O,p,252,1,1183.3999998569489,322931.5,7730,WL,B,7.0
2,15.31000018119812,learn,44689.99981880188,Tue Jan 20 2026 15:19:13 GMT-0600 (Central Standard Time),324613.2000000477,A,pupi,O,i,490,1,1681.7000000476837,322931.5,7730,WL,B,7.0
2,15.561000108718872,learn,44438.99989128113,Tue Jan 20 2026 15:19:13 GMT-0600 (Central Standard Time),324864.0,A,pupil,O,l,241,1,1932.5,322931.5,7730,WL,B,7.0
2,15.861000061035156,learn,44138.999938964844,Tue Jan 20 2026 15:19:13 GMT-0600 (Central Standard Time),325164.09999990463,A,pupilenter,O,enter,283,1,2232.5999999046326,322931.5,7730,WL,B,7.0
2,17.843000173568726,learn,42156.999826431274,Tue Jan 20 2026 15:19:13 GMT-0600 (Central Standard Time),327146.5,A,a,O,a,1967,1,1982.1000001430511,325164.39999985695,7730,WL,B,8.0
2,17.97699999809265,learn,42023.00000190735,Tue Jan 20 2026 15:19:13 GMT-0600 (Central Standard Time),327280.5,A,ar,O,r,111,1,2116.100000143051,325164.39999985695,7730,WL,B,8.0
2,18.159000158309937,learn,41840.99984169006,Tue Jan 20 2026 15:19:13 GMT-0600 (Central Standard Time),327462.7000000477,A,arm,O,m,172,1,2298.300000190735,325164.39999985695,7730,WL,B,8.0
2,18.443000078201294,learn,41556.999921798706,Tue Jan 20 2026 15:19:13 GMT-0600 (Central Standard Time),327746.59999990463,A,armenter,O,enter,263,1,2582.2000000476837,325164.39999985695,7730,WL,B,8.0
2,23.30900001525879,learn,36690.99998474121,Tue Jan 20 2026 15:19:13 GMT-0600 (Central Standard Time),332612.0,A,w,O,w,4849,1,4865.200000047684,327746.7999999523,7730,WL,B,9.0
2,23.442000150680542,learn,36557.99984931946,Tue Jan 20 2026 15:19:13 GMT-0600 (Central Standard Time),332744.89999985695,A,wi,O,i,112,1,4998.099999904633,327746.7999999523,7730,WL,B,9.0
2,23.592000007629395,learn,36407.999992370605,Tue Jan 20 2026 15:19:13 GMT-0600 (Central Standard Time),332895.59999990463,A,wif,O,f,138,1,5148.799999952316,327746.7999999523,7730,WL,B,9.0
2,23.77500009536743,learn,36224.99990463257,Tue Jan 20 2026 15:19:13 GMT-0600 (Central Standard Time),333078.5,A,wife,O,e,164,1,5331.700000047684,327746.7999999523,7730,WL,B,9.0
2,23.925000190734863,learn,36074.99980926514,Tue Jan 20 2026 15:19:13 GMT-0600 (Central Standard Time),333228.2999999523,A,wifeenter,O,enter,141,1,5481.5,327746.7999999523,7730,WL,B,9.0
2,25.707000017166138,learn,34292.99998283386,Tue Jan 20 2026 15:19:13 GMT-0600 (Central Standard Time),335010.7000000477,A,w,O,w,1768,1,1782.3000001907349,333228.39999985695,7730,WL,B,10.0
2,25.841000080108643,learn,34158.99991989136,Tue Jan 20 2026 15:19:13 GMT-0600 (Central Standard Time),335144.09999990463,A,wi,O,i,111,1,1915.7000000476837,333228.39999985695,7730,WL,B,10.0
2,26.04100012779236,learn,33958.99987220764,Tue Jan 20 2026 15:19:13 GMT-0600 (Central Standard Time),335344.2999999523,A,win,O,n,187,1,2115.9000000953674,333228.39999985695,7730,WL,B,10.0
2,26.189000129699707,learn,33810.99987030029,Tue Jan 20 2026 15:19:13 GMT-0600 (Central Standard Time),335492.7999999523,A,wind,O,d,130,1,2264.4000000953674,333228.39999985695,7730,WL,B,10.0
2,26.473000049591064,learn,33526.999950408936,Tue Jan 20 2026 15:19:13 GMT-0600 (Central Standard Time),335776.7000000477,A,windo,O,o,273,1,2548.300000190735,333228.39999985695,7730,WL,B,10.0
2,26.556000232696533,learn,33443.99976730347,Tue Jan 20 2026 15:19:13 GMT-0600 (Central Standard Time),335859.59999990463,A,window,O,w,76,1,2631.2000000476837,333228.39999985695,7730,WL,B,10.0
2,26.790000200271606,learn,33209.99979972839,Tue Jan 20 2026 15:19:13 GMT-0600 (Central Standard Time),336093.59999990463,A,windowenter,O,enter,218,1,2865.2000000476837,333228.39999985695,7730,WL,B,10.0
2,33.05600023269653,learn,26943.999767303467,Tue Jan 20 2026 15:19:13 GMT-0600 (Central Standard Time),342359.09999990463,A,c,O,c,6256,1,6265.299999952316,336093.7999999523,7730,WL,B,11.0
2,33.205000162124634,learn,26794.999837875366,Tue Jan 20 2026 15:19:13 GMT-0600 (Central Standard Time),342508.7999999523,A,ci,O,i,142,1,6415.0,336093.7999999523,7730,WL,B,11.0
2,33.372000217437744,learn,26627.999782562256,Tue Jan 20 2026 15:19:13 GMT-0600 (Central Standard Time),342675.7000000477,A,cit,O,t,158,1,6581.900000095367,336093.7999999523,7730,WL,B,11.0
2,33.47100019454956,learn,26528.99980545044,Tue Jan 20 2026 15:19:13 GMT-0600 (Central Standard Time),342774.2000000477,A,city,O,y,78,1,6680.400000095367,336093.7999999523,7730,WL,B,11.0
2,33.74000000953674,learn,26259.999990463257,Tue Jan 20 2026 15:19:13 GMT-0600 (Central Standard Time),343042.7999999523,A,cityenter,O,enter,260,1,6949.0,336093.7999999523,7730,WL,B,11.0
2,41.91800022125244,learn,18081.99977874756,Tue Jan 20 2026 15:19:13 GMT-0600 (Central Standard Time),351221.59999990463,A,f,O,f,8160,1,8178.5,343043.09999990463,7730,WL,B,12.0
2,42.10199999809265,learn,17898.00000190735,Tue Jan 20 2026 15:19:13 GMT-0600 (Central Standard Time),351405.2000000477,A,fi,O,i,176,1,8362.100000143051,343043.09999990463,7730,WL,B,12.0
2,42.18500018119812,learn,17814.99981880188,Tue Jan 20 2026 15:19:13 GMT-0600 (Central Standard Time),351488.7000000477,A,fir,O,r,80,1,8445.600000143051,343043.09999990463,7730,WL,B,12.0
2,42.354000091552734,learn,17645.999908447266,Tue Jan 20 2026 15:19:13 GMT-0600 (Central Standard Time),351657.0,A,fire,O,e,164,1,8613.900000095367,343043.09999990463,7730,WL,B,12.0
2,42.486000061035156,learn,17513.999938964844,Tue Jan 20 2026 15:19:13 GMT-0600 (Central Standard Time),351789.2000000477,A,fireenter,O,enter,123,1,8746.100000143051,343043.09999990463,7730,WL,B,12.0
2,43.68400001525879,learn,16315.999984741211,Tue Jan 20 2026 15:19:13 GMT-0600 (Central Standard Time),352987.09999990463,A,c,O,c,1183,1,1197.7000000476837,351789.39999985695,7730,WL,B,13.0
2,43.818000078201294,learn,16181.999921798706,Tue Jan 20 2026 15:19:13 GMT-0600 (Central Standard Time),353121.5,A,cl,O,l,130,1,1332.1000001430511,351789.39999985695,7730,WL,B,13.0
2,44.03600001335144,learn,15963.99998664856,Tue Jan 20 2026 15:19:13 GMT-0600 (Central Standard Time),353339.59999990463,A,clo,O,o,212,1,1550.2000000476837,351789.39999985695,7730,WL,B,13.0
2,44.634000062942505,learn,15365.999937057495,Tue Jan 20 2026 15:19:13 GMT-0600 (Central Standard Time),353937.2000000477,A,cloc,O,c,591,1,2147.800000190735,351789.39999985695,7730,WL,B,13.0
2,44.801000118255615,learn,15198.999881744385,Tue Jan 20 2026 15:19:13 GMT-0600 (Central Standard Time),354104.2000000477,A,clock,O,k,148,1,2314.800000190735,351789.39999985695,7730,WL,B,13.0
2,45.03500008583069,learn,14964.999914169312,Tue Jan 20 2026 15:19:13 GMT-0600 (Central Standard Time),354338.2999999523,A,clockenter,O,enter,228,1,2548.9000000953674,351789.39999985695,7730,WL,B,13.0
2,60.01400017738342,learn,-14.000177383422852,Tue Jan 20 2026 15:19:13 GMT-0600 (Central Standard Time),369318.09999990463,A,None,O,None,14976,1,14979.599999904633,354338.5,7730,WL,B,14.0
3,2.1490001678466797,learn,57850.99983215332,Tue Jan 20 2026 15:19:13 GMT-0600 (Central Standard Time),437244.89999985695,A,c,O,c,2137,1,2148.5,435096.39999985695,7730,WL,B,1.0
3,2.3320000171661377,learn,57667.99998283386,Tue Jan 20 2026 15:19:13 GMT-0600 (Central Standard Time),437427.89999985695,A,cl,O,l,164,1,2331.5,435096.39999985695,7730,WL,B,1.0
3,2.5329999923706055,learn,57467.000007629395,Tue Jan 20 2026 15:19:13 GMT-0600 (Central Standard Time),437628.89999985695,A,clo,O,o,191,1,2532.5,435096.39999985695,7730,WL,B,1.0
3,2.680999994277954,learn,57319.000005722046,Tue Jan 20 2026 15:19:13 GMT-0600 (Central Standard Time),437777.0,A,cloc,O,c,133,1,2680.600000143051,435096.39999985695,7730,WL,B,1.0
3,2.7990000247955322,learn,57200.99997520447,Tue Jan 20 2026 15:19:13 GMT-0600 (Central Standard Time),437894.89999985695,A,clock,O,k,106,1,2798.5,435096.39999985695,7730,WL,B,1.0
3,3.065000057220459,learn,56934.99994277954,Tue Jan 20 2026 15:19:13 GMT-0600 (Central Standard Time),438161.5,A,clockenter,O,enter,253,1,3065.100000143051,435096.39999985695,7730,WL,B,1.0
3,3.682000160217285,learn,56317.999839782715,Tue Jan 20 2026 15:19:13 GMT-0600 (Central Standard Time),438777.89999985695,A,f,O,f,604,1,616.1999998092651,438161.7000000477,7730,WL,B,2.0
3,3.865000009536743,learn,56134.99999046326,Tue Jan 20 2026 15:19:13 GMT-0600 (Central Standard Time),438960.7999999523,A,fi,O,i,170,1,799.0999999046326,438161.7000000477,7730,WL,B,2.0
3,3.9639999866485596,learn,56036.00001335144,Tue Jan 20 2026 15:19:13 GMT-0600 (Central Standard Time),439060.2000000477,A,fir,O,r,81,1,898.5,438161.7000000477,7730,WL,B,2.0
3,4.131999969482422,learn,55868.00003051758,Tue Jan 20 2026 15:19:13 GMT-0600 (Central Standard Time),439227.89999985695,A,fire,O,e,161,1,1066.1999998092651,438161.7000000477,7730,WL,B,2.0
3,4.266999959945679,learn,55733.00004005432,Tue Jan 20 2026 15:19:13 GMT-0600 (Central Standard Time),439363.09999990463,A,fireenter,O,enter,127,1,1201.3999998569489,438161.7000000477,7730,WL,B,2.0
3,8.414999961853027,learn,51585.00003814697,Tue Jan 20 2026 15:19:13 GMT-0600 (Central Standard Time),443511.2999999523,A,c,O,c,4129,1,4147.900000095367,439363.39999985695,7730,WL,B,3.0
3,8.562999963760376,learn,51437.000036239624,Tue Jan 20 2026 15:19:13 GMT-0600 (Central Standard Time),443658.89999985695,A,ci,O,i,130,1,4295.5,439363.39999985695,7730,WL,B,3.0
3,8.71500015258789,learn,51284.99984741211,Tue Jan 20 2026 15:19:13 GMT-0600 (Central Standard Time),443811.2999999523,A,cit,O,t,147,1,4447.900000095367,439363.39999985695,7730,WL,B,3.0
3,8.861999988555908,learn,51138.00001144409,Tue Jan 20 2026 15:19:13 GMT-0600 (Central Standard Time),443958.7999999523,A,city,O,y,138,1,4595.400000095367,439363.39999985695,7730,WL,B,3.0
3,9.164000034332275,learn,50835.999965667725,Tue Jan 20 2026 15:19:13 GMT-0600 (Central Standard Time),444259.7999999523,A,cityenter,O,enter,283,1,4896.400000095367,439363.39999985695,7730,WL,B,3.0
3,9.831000089645386,learn,50168.999910354614,Tue Jan 20 2026 15:19:13 GMT-0600 (Central Standard Time),444927.59999990463,A,g,O,g,656,1,667.5999999046326,444260.0,7730,WL,B,4.0
3,10.047000169754028,learn,49952.99983024597,Tue Jan 20 2026 15:19:13 GMT-0600 (Central Standard Time),445142.7999999523,A,gr,O,r,195,1,882.7999999523163,444260.0,7730,WL,B,4.0
3,10.279000043869019,learn,49720.99995613098,Tue Jan 20 2026 15:19:13 GMT-0600 (Central Standard Time),445375.5,A,gra,O,a,213,1,1115.5,444260.0,7730,WL,B,4.0
3,10.562999963760376,learn,49437.000036239624,Tue Jan 20 2026 15:19:13 GMT-0600 (Central Standard Time),445658.7999999523,A,gras,O,s,263,1,1398.7999999523163,444260.0,7730,WL,B,4.0
3,10.746000051498413,learn,49253.99994850159,Tue Jan 20 2026 15:19:13 GMT-0600 (Central Standard Time),445842.39999985695,A,grass,O,s,169,1,1582.3999998569489,444260.0,7730,WL,B,4.0
3,10.92900013923645,learn,49070.99986076355,Tue Jan 20 2026 15:19:13 GMT-0600 (Central Standard Time),446024.89999985695,A,grassenter,O,enter,169,1,1764.8999998569489,444260.0,7730,WL,B,4.0
3,11.462000131607056,learn,48537.999868392944,Tue Jan 20 2026 15:19:13 GMT-0600 (Central Standard Time),446558.2999999523,A,w,O,w,515,1,533.2000000476837,446025.09999990463,7730,WL,B,5.0
3,11.580000162124634,learn,48419.999837875366,Tue Jan 20 2026 15:19:13 GMT-0600 (Central Standard Time),446676.39999985695,A,wi,O,i,101,1,651.2999999523163,446025.09999990463,7730,WL,B,5.0
3,11.795000076293945,learn,48204.999923706055,Tue Jan 20 2026 15:19:13 GMT-0600 (Central Standard Time),446891.5,A,win,O,n,199,1,866.4000000953674,446025.09999990463,7730,WL,B,5.0
3,11.92799997329712,learn,48072.00002670288,Tue Jan 20 2026 15:19:13 GMT-0600 (Central Standard Time),447024.09999990463,A,wind,O,d,118,1,999.0,446025.09999990463,7730,WL,B,5.0
3,12.147000074386597,learn,47852.9999256134,Tue Jan 20 2026 15:19:13 GMT-0600 (Central Standard Time),447242.89999985695,A,windo,O,o,205,1,1217.7999999523163,446025.09999990463,7730,WL,B,5.0
3,12.26200008392334,learn,47737.99991607666,Tue Jan 20 2026 15:19:13 GMT-0600 (Central Standard Time),447358.09999990463,A,window,O,w,104,1,1333.0,446025.09999990463,7730,WL,B,5.0
3,12.495000123977661,learn,47504.99987602234,Tue Jan 20 2026 15:19:13 GMT-0600 (Central Standard Time),447591.5,A,windowenter,O,enter,214,1,1566.4000000953674,446025.09999990463,7730,WL,B,5.0
3,13.795000076293945,learn,46204.999923706055,Tue Jan 20 2026 15:19:13 GMT-0600 (Central Standard Time),448891.59999990463,A,p,O,p,1294,1,1299.7999999523163,447591.7999999523,7730,WL,B,6.0
3,14.046000003814697,learn,45953.9999961853,Tue Jan 20 2026 15:19:13 GMT-0600 (Central Standard Time),449141.89999985695,A,pu,O,u,233,1,1550.0999999046326,447591.7999999523,7730,WL,B,6.0
3,15.261000156402588,learn,44738.99984359741,Tue Jan 20 2026 15:19:13 GMT-0600 (Central Standard Time),450357.09999990463,A,pup,O,p,1198,1,2765.2999999523163,447591.7999999523,7730,WL,B,6.0
3,15.495000123977661,learn,44504.99987602234,Tue Jan 20 2026 15:19:13 GMT-0600 (Central Standard Time),450591.39999985695,A,pupi,O,i,223,1,2999.5999999046326,447591.7999999523,7730,WL,B,6.0
3,15.710999965667725,learn,44289.000034332275,Tue Jan 20 2026 15:19:13 GMT-0600 (Central Standard Time),450806.7000000477,A,pupil,O,l,204,1,3214.9000000953674,447591.7999999523,7730,WL,B,6.0
3,16.011000156402588,learn,43988.99984359741,Tue Jan 20 2026 15:19:13 GMT-0600 (Central Standard Time),451106.7999999523,A,pupilenter,O,enter,295,1,3515.0,447591.7999999523,7730,WL,B,6.0
3,20.294000148773193,learn,39705.99985122681,Tue Jan 20 2026 15:19:13 GMT-0600 (Central Standard Time),455390.0,A,d,O,d,4274,1,4283.0,451107.0,7730,WL,B,7.0
3,20.509000062942505,learn,39490.999937057495,Tue Jan 20 2026 15:19:13 GMT-0600 (Central Standard Time),455605.2999999523,A,do,O,o,207,1,4498.299999952316,451107.0,7730,WL,B,7.0
3,20.676000118255615,learn,39323.999881744385,Tue Jan 20 2026 15:19:13 GMT-0600 (Central Standard Time),455772.5,A,doo,O,o,158,1,4665.5,451107.0,7730,WL,B,7.0
3,20.844000101089478,learn,39155.99989891052,Tue Jan 20 2026 15:19:13 GMT-0600 (Central Standard Time),455940.59999990463,A,door,O,r,152,1,4833.599999904633,451107.0,7730,WL,B,7.0
3,20.99399995803833,learn,39006.00004196167,Tue Jan 20 2026 15:19:13 GMT-0600 (Central Standard Time),456090.0,A,doorenter,O,enter,135,1,4983.0,451107.0,7730,WL,B,7.0
3,27.84000015258789,learn,32159.99984741211,Tue Jan 20 2026 15:19:13 GMT-0600 (Central Standard Time),462936.39999985695,A,c,O,c,6838,1,6846.199999809265,456090.2000000477,7730,WL,B,8.0
3,28.04200005531311,learn,31957.99994468689,Tue Jan 20 2026 15:19:13 GMT-0600 (Central Standard Time),463137.89999985695,A,ci,O,i,188,1,7047.699999809265,456090.2000000477,7730,WL,B,8.0
3,28.207000017166138,learn,31792.999982833862,Tue Jan 20 2026 15:19:13 GMT-0600 (Central Standard Time),463303.09999990463,A,cit,O,t,154,1,7212.899999856949,456090.2000000477,7730,WL,B,8.0
3,28.34000015258789,learn,31659.99984741211,Tue Jan 20 2026 15:19:13 GMT-0600 (Central Standard Time),463436.09999990463,A,city,O,y,125,1,7345.899999856949,456090.2000000477,7730,WL,B,8.0
3,28.611999988555908,learn,31388.00001144409,Tue Jan 20 2026 15:19:13 GMT-0600 (Central Standard Time),463708.2000000477,A,cityenter,O,enter,266,1,7618.0,456090.2000000477,7730,WL,B,8.0
3,31.42200016975403,learn,28577.99983024597,Tue Jan 20 2026 15:19:13 GMT-0600 (Central Standard Time),466518.09999990463,A,l,O,l,2800,1,2809.7000000476837,463708.39999985695,7730,WL,B,9.0
3,31.57200002670288,learn,28427.99997329712,Tue Jan 20 2026 15:19:13 GMT-0600 (Central Standard Time),466668.0,A,la,O,a,132,1,2959.600000143051,463708.39999985695,7730,WL,B,9.0
3,31.73900008201599,learn,28260.99991798401,Tue Jan 20 2026 15:19:13 GMT-0600 (Central Standard Time),466835.59999990463,A,lak,O,k,151,1,3127.2000000476837,463708.39999985695,7730,WL,B,9.0
3,31.83899998664856,learn,28161.00001335144,Tue Jan 20 2026 15:19:13 GMT-0600 (Central Standard Time),466934.7999999523,A,lake,O,e,80,1,3226.4000000953674,463708.39999985695,7730,WL,B,9.0
3,32.04100012779236,learn,27958.99987220764,Tue Jan 20 2026 15:19:13 GMT-0600 (Central Standard Time),467136.7999999523,A,lakeenter,O,enter,182,1,3428.4000000953674,463708.39999985695,7730,WL,B,9.0
3,35.38700008392334,learn,24612.99991607666,Tue Jan 20 2026 15:19:13 GMT-0600 (Central Standard Time),470483.2999999523,A,d,O,d,3341,1,3346.2999999523163,467137.0,7730,WL,B,10.0
3,35.63800001144409,learn,24361.99998855591,Tue Jan 20 2026 15:19:13 GMT-0600 (Central Standard Time),470734.7000000477,A,do,O,o,232,1,3597.7000000476837,467137.0,7730,WL,B,10.0
3,35.8050000667572,learn,24194.999933242798,Tue Jan 20 2026 15:19:13 GMT-0600 (Central Standard Time),470901.0,A,doo,O,o,156,1,3764.0,467137.0,7730,WL,B,10.0
3,35.937999963760376,learn,24062.000036239624,Tue Jan 20 2026 15:19:13 GMT-0600 (Central Standard Time),471034.2999999523,A,door,O,r,130,1,3897.2999999523163,467137.0,7730,WL,B,10.0
3,36.087000131607056,learn,23912.999868392944,Tue Jan 20 2026 15:19:13 GMT-0600 (Central Standard Time),471183.39999985695,A,doorenter,O,enter,127,1,4046.399999856949,467137.0,7730,WL,B,10.0
3,39.24000000953674,learn,20759.999990463257,Tue Jan 20 2026 15:19:13 GMT-0600 (Central Standard Time),474336.2000000477,A,s,O,s,3133,1,3152.600000143051,471183.59999990463,7730,WL,B,11.0
3,39.40400004386902,learn,20595.99995613098,Tue Jan 20 2026 15:19:13 GMT-0600 (Central Standard Time),474500.5,A,sk,O,k,145,1,3316.9000000953674,471183.59999990463,7730,WL,B,11.0
3,39.60300016403198,learn,20396.999835968018,Tue Jan 20 2026 15:19:13 GMT-0600 (Central Standard Time),474699.59999990463,A,ski,O,i,190,1,3516.0,471183.59999990463,7730,WL,B,11.0
3,39.789000034332275,learn,20210.999965667725,Tue Jan 20 2026 15:19:13 GMT-0600 (Central Standard Time),474885.0,A,skin,O,n,179,1,3701.4000000953674,471183.59999990463,7730,WL,B,11.0
3,40.019999980926514,learn,19980.000019073486,Tue Jan 20 2026 15:19:13 GMT-0600 (Central Standard Time),475116.09999990463,A,skinenter,O,enter,225,1,3932.5,471183.59999990463,7730,WL,B,11.0
3,52.81599998474121,learn,7184.000015258789,Tue Jan 20 2026 15:19:13 GMT-0600 (Central Standard Time),487912.2000000477,A,c,O,c,12785,1,12795.900000095367,475116.2999999523,7730,WL,B,12.0
3,53.081000089645386,learn,6918.999910354614,Tue Jan 20 2026 15:19:13 GMT-0600 (Central Standard Time),488178.09999990463,A,ca,O,a,247,1,13061.799999952316,475116.2999999523,7730,WL,B,12.0
3,53.29800009727478,learn,6701.99990272522,Tue Jan 20 2026 15:19:13 GMT-0600 (Central Standard Time),488395.0,A,cab,O,b,212,1,13278.700000047684,475116.2999999523,7730,WL,B,12.0
3,53.48099994659424,learn,6519.000053405762,Tue Jan 20 2026 15:19:13 GMT-0600 (Central Standard Time),488577.7999999523,A,cabi,O,i,177,1,13461.5,475116.2999999523,7730,WL,B,12.0
3,53.66600012779236,learn,6333.999872207642,Tue Jan 20 2026 15:19:13 GMT-0600 (Central Standard Time),488763.0,A,cabin,O,n,180,1,13646.700000047684,475116.2999999523,7730,WL,B,12.0
3,53.89800000190735,learn,6101.999998092651,Tue Jan 20 2026 15:19:13 GMT-0600 (Central Standard Time),488994.5,A,cabinenter,O,enter,216,1,13878.200000047684,475116.2999999523,7730,WL,B,12.0
3,60.01400017738342,learn,-14.000177383422852,Tue Jan 20 2026 15:19:13 GMT-0600 (Central Standard Time),495110.59999990463,A,None,O,None,6112,1,6115.799999952316,488994.7999999523,7730,WL,B,13.0
4,1.7009999752044678,learn,58299.00002479553,Tue Jan 20 2026 15:19:13 GMT-0600 (Central Standard Time),561972.2999999523,A,s,O,s,1686,1,1700.7999999523163,560271.5,7730,WL,B,1.0
4,2.0350000858306885,learn,57964.99991416931,Tue Jan 20 2026 15:19:13 GMT-0600 (Central Standard Time),562305.5999999046,A,st,O,t,318,1,2034.0999999046326,560271.5,7730,WL,B,1.0
4,2.383000135421753,learn,57616.99986457825,Tue Jan 20 2026 15:19:13 GMT-0600 (Central Standard Time),562654.2999999523,A,str,O,r,338,1,2382.7999999523163,560271.5,7730,WL,B,1.0
4,2.7220001220703125,learn,57277.99987792969,Tue Jan 20 2026 15:19:13 GMT-0600 (Central Standard Time),562992.5999999046,A,stre,O,e,331,1,2721.0999999046326,560271.5,7730,WL,B,1.0
4,2.9170000553131104,learn,57082.99994468689,Tue Jan 20 2026 15:19:13 GMT-0600 (Central Standard Time),563188.2000000477,A,stree,O,e,187,1,2916.7000000476837,560271.5,7730,WL,B,1.0
4,3.1670000553131104,learn,56832.99994468689,Tue Jan 20 2026 15:19:13 GMT-0600 (Central Standard Time),563438.2000000477,A,street,O,t,233,1,3166.7000000476837,560271.5,7730,WL,B,1.0
4,3.3340001106262207,learn,56665.99988937378,Tue Jan 20 2026 15:19:13 GMT-0600 (Central Standard Time),563605.0,A,streetenter,O,enter,157,1,3333.5,560271.5,7730,WL,B,1.0
4,4.117000102996826,learn,55882.999897003174,Tue Jan 20 2026 15:19:13 GMT-0600 (Central Standard Time),564388.2000000477,A,g,O,g,767,1,782.9000000953674,563605.2999999523,7730,WL,B,2.0
4,4.317000150680542,learn,55682.99984931946,Tue Jan 20 2026 15:19:13 GMT-0600 (Central Standard Time),564588.0,A,gr,O,r,192,1,982.7000000476837,563605.2999999523,7730,WL,B,2.0
4,4.516000032424927,learn,55483.99996757507,Tue Jan 20 2026 15:19:13 GMT-0600 (Central Standard Time),564787.5,A,gra,O,a,191,1,1182.2000000476837,563605.2999999523,7730,WL,B,2.0
4,4.7829999923706055,learn,55217.000007629395,Tue Jan 20 2026 15:19:13 GMT-0600 (Central Standard Time),565054.5,A,gras,O,s,249,1,1449.2000000476837,563605.2999999523,7730,WL,B,2.0
4,4.949000120162964,learn,55050.999879837036,Tue Jan 20 2026 15:19:13 GMT-0600 (Central Standard Time),565220.0999999046,A,grass,O,s,158,1,1614.7999999523163,563605.2999999523,7730,WL,B,2.0
4,5.216000080108643,learn,54783.99991989136,Tue Jan 20 2026 15:19:13 GMT-0600 (Central Standard Time),565486.7999999523,A,grassenter,O,enter,249,1,1881.5,563605.2999999523,7730,WL,B,2.0
4,5.733000040054321,learn,54266.99995994568,Tue Jan 20 2026 15:19:13 GMT-0600 (Central Standard Time),566003.7999999523,A,d,O,d,501,1,516.7999999523163,565487.0,7730,WL,B,3.0
4,5.916000127792358,learn,54083.99987220764,Tue Jan 20 2026 15:19:13 GMT-0600 (Central Standard Time),566186.899999857,A,do,O,o,174,1,699.8999998569489,565487.0,7730,WL,B,3.0
4,6.1000001430511475,learn,53899.99985694885,Tue Jan 20 2026 15:19:13 GMT-0600 (Central Standard Time),566371.399999857,A,doo,O,o,175,1,884.3999998569489,565487.0,7730,WL,B,3.0
4,6.283999919891357,learn,53716.00008010864,Tue Jan 20 2026 15:19:13 GMT-0600 (Central Standard Time),566554.5,A,door,O,r,170,1,1067.5,565487.0,7730,WL,B,3.0
4,6.466000080108643,learn,53533.99991989136,Tue Jan 20 2026 15:19:13 GMT-0600 (Central Standard Time),566737.0999999046,A,doorenter,O,enter,172,1,1250.0999999046326,565487.0,7730,WL,B,3.0
4,8.414999961853027,learn,51585.00003814697,Tue Jan 20 2026 15:19:13 GMT-0600 (Central Standard Time),568686.5,A,w,O,w,1932,1,1949.1000001430511,566737.399999857,7730,WL,B,4.0
4,8.648000001907349,learn,51351.99999809265,Tue Jan 20 2026 15:19:13 GMT-0600 (Central Standard Time),568919.399999857,A,wi,O,i,220,1,2182.0,566737.399999857,7730,WL,B,4.0
4,8.848999977111816,learn,51151.00002288818,Tue Jan 20 2026 15:19:13 GMT-0600 (Central Standard Time),569119.5,A,win,O,n,179,1,2382.100000143051,566737.399999857,7730,WL,B,4.0
4,9.013999938964844,learn,50986.000061035156,Tue Jan 20 2026 15:19:13 GMT-0600 (Central Standard Time),569285.2000000477,A,wind,O,d,148,1,2547.800000190735,566737.399999857,7730,WL,B,4.0
4,9.21500015258789,learn,50784.99984741211,Tue Jan 20 2026 15:19:13 GMT-0600 (Central Standard Time),569486.399999857,A,windo,O,o,189,1,2749.0,566737.399999857,7730,WL,B,4.0
4,9.381999969482422,learn,50618.00003051758,Tue Jan 20 2026 15:19:13 GMT-0600 (Central Standard Time),569652.7999999523,A,window,O,w,158,1,2915.4000000953674,566737.399999857,7730,WL,B,4.0
4,9.565000057220459,learn,50434.99994277954,Tue Jan 20 2026 15:19:13 GMT-0600 (Central Standard Time),569835.7000000477,A,windowenter,O,enter,175,1,3098.300000190735,566737.399999857,7730,WL,B,4.0
4,10.664000034332275,learn,49335.999965667725,Tue Jan 20 2026 15:19:13 GMT-0600 (Central Standard Time),570934.7999999523,A,l,O,l,1089,1,1098.9000000953674,569835.899999857,7730,WL,B,5.0
4,10.781000137329102,learn,49218.9998626709,Tue Jan 20 2026 15:19:13 GMT-0600 (Central Standard Time),571052.0999999046,A,la,O,a,109,1,1216.2000000476837,569835.899999857,7730,WL,B,5.0
4,10.930999994277954,learn,49069.000005722046,Tue Jan 20 2026 15:19:13 GMT-0600 (Central Standard Time),571202.2000000477,A,lak,O,k,136,1,1366.3000001907349,569835.899999857,7730,WL,B,5.0
4,11.052000045776367,learn,48947.99995422363,Tue Jan 20 2026 15:19:13 GMT-0600 (Central Standard Time),571323.2999999523,A,lake,O,e,106,1,1487.4000000953674,569835.899999857,7730,WL,B,5.0
4,11.263999938964844,learn,48736.000061035156,Tue Jan 20 2026 15:19:13 GMT-0600 (Central Standard Time),571535.0,A,lakeenter,O,enter,202,1,1699.1000001430511,569835.899999857,7730,WL,B,5.0
4,12.647000074386597,learn,47352.9999256134,Tue Jan 20 2026 15:19:13 GMT-0600 (Central Standard Time),572917.5999999046,A,f,O,f,1373,1,1382.2999999523163,571535.2999999523,7730,WL,B,6.0
4,12.814000129699707,learn,47185.99987030029,Tue Jan 20 2026 15:19:13 GMT-0600 (Central Standard Time),573084.899999857,A,fi,O,i,157,1,1549.5999999046326,571535.2999999523,7730,WL,B,6.0
4,12.914999961853027,learn,47085.00003814697,Tue Jan 20 2026 15:19:13 GMT-0600 (Central Standard Time),573186.0999999046,A,fir,O,r,85,1,1650.7999999523163,571535.2999999523,7730,WL,B,6.0
4,13.269000053405762,learn,46730.99994659424,Tue Jan 20 2026 15:19:13 GMT-0600 (Central Standard Time),573540.0,A,fire,O,e,328,1,2004.7000000476837,571535.2999999523,7730,WL,B,6.0
4,13.446000099182129,learn,46553.99990081787,Tue Jan 20 2026 15:19:13 GMT-0600 (Central Standard Time),573717.5,A,fireenter,O,enter,169,1,2182.2000000476837,571535.2999999523,7730,WL,B,6.0
4,18.36299991607666,learn,41637.00008392334,Tue Jan 20 2026 15:19:13 GMT-0600 (Central Standard Time),578634.2999999523,A,s,O,s,4910,1,4916.599999904633,573717.7000000477,7730,WL,B,7.0
4,18.513999938964844,learn,41486.000061035156,Tue Jan 20 2026 15:19:13 GMT-0600 (Central Standard Time),578784.7000000477,A,sk,O,k,137,1,5067.0,573717.7000000477,7730,WL,B,7.0
4,18.712000131607056,learn,41287.999868392944,Tue Jan 20 2026 15:19:13 GMT-0600 (Central Standard Time),578982.899999857,A,ski,O,i,189,1,5265.199999809265,573717.7000000477,7730,WL,B,7.0
4,18.897000074386597,learn,41102.9999256134,Tue Jan 20 2026 15:19:13 GMT-0600 (Central Standard Time),579168.5999999046,A,skin,O,n,163,1,5450.899999856949,573717.7000000477,7730,WL,B,7.0
4,19.130000114440918,learn,40869.99988555908,Tue Jan 20 2026 15:19:13 GMT-0600 (Central Standard Time),579401.0999999046,A,skinenter,O,enter,211,1,5683.399999856949,573717.7000000477,7730,WL,B,7.0
4,19.97699999809265,learn,40023.00000190735,Tue Jan 20 2026 15:19:13 GMT-0600 (Central Standard Time),580248.399999857,A,c,O,c,835,1,847.0999999046326,579401.2999999523,7730,WL,B,8.0
4,20.128999948501587,learn,39871.00005149841,Tue Jan 20 2026 15:19:13 GMT-0600 (Central Standard Time),580400.2999999523,A,ci,O,i,133,1,999.0,579401.2999999523,7730,WL,B,8.0
4,20.27900004386902,learn,39720.99995613098,Tue Jan 20 2026 15:19:13 GMT-0600 (Central Standard Time),580549.5,A,cit,O,t,132,1,1148.2000000476837,579401.2999999523,7730,WL,B,8.0
4,20.394999980926514,learn,39605.000019073486,Tue Jan 20 2026 15:19:13 GMT-0600 (Central Standard Time),580666.2999999523,A,city,O,y,111,1,1265.0,579401.2999999523,7730,WL,B,8.0
4,20.712000131607056,learn,39287.999868392944,Tue Jan 20 2026 15:19:13 GMT-0600 (Central Standard Time),580983.0,A,cityenter,O,enter,298,1,1581.7000000476837,579401.2999999523,7730,WL,B,8.0
4,25.743000030517578,learn,34256.99996948242,Tue Jan 20 2026 15:19:13 GMT-0600 (Central Standard Time),586014.0,A,w,O,w,5012,1,5030.700000047684,580983.2999999523,7730,WL,B,9.0
4,25.89300012588501,learn,34106.99987411499,Tue Jan 20 2026 15:19:13 GMT-0600 (Central Standard Time),586163.5999999046,A,wi,O,i,135,1,5180.299999952316,580983.2999999523,7730,WL,B,9.0
4,26.028000116348267,learn,33971.99988365173,Tue Jan 20 2026 15:19:13 GMT-0600 (Central Standard Time),586298.7999999523,A,wif,O,f,131,1,5315.5,580983.2999999523,7730,WL,B,9.0
4,26.210000038146973,learn,33789.99996185303,Tue Jan 20 2026 15:19:13 GMT-0600 (Central Standard Time),586480.7000000477,A,wife,O,e,167,1,5497.400000095367,580983.2999999523,7730,WL,B,9.0
4,26.342999935150146,learn,33657.00006484985,Tue Jan 20 2026 15:19:13 GMT-0600 (Central Standard Time),586613.7999999523,A,wifeenter,O,enter,124,1,5630.5,580983.2999999523,7730,WL,B,9.0
4,27.04200005531311,learn,32957.99994468689,Tue Jan 20 2026 15:19:13 GMT-0600 (Central Standard Time),587312.5999999046,A,a,O,a,686,1,698.5999999046326,586614.0,7730,WL,B,10.0
4,27.176000118255615,learn,32823.999881744385,Tue Jan 20 2026 15:19:13 GMT-0600 (Central Standard Time),587447.0,A,ar,O,r,124,1,833.0,586614.0,7730,WL,B,10.0
4,27.358999967575073,learn,32641.000032424927,Tue Jan 20 2026 15:19:13 GMT-0600 (Central Standard Time),587629.5,A,arm,O,m,165,1,1015.5,586614.0,7730,WL,B,10.0
4,27.608999967575073,learn,32391.000032424927,Tue Jan 20 2026 15:19:13 GMT-0600 (Central Standard Time),587880.2999999523,A,armenter,O,enter,231,1,1266.2999999523163,586614.0,7730,WL,B,10.0
4,29.10800004005432,learn,30891.99995994568,Tue Jan 20 2026 15:19:13 GMT-0600 (Central Standard Time),589378.899999857,A,c,O,c,1492,1,1498.5,587880.399999857,7730,WL,B,11.0
4,29.558000087738037,learn,30441.999912261963,Tue Jan 20 2026 15:19:13 GMT-0600 (Central Standard Time),589829.5,A,ca,O,a,443,1,1949.1000001430511,587880.399999857,7730,WL,B,11.0
4,29.796000003814697,learn,30203.999996185303,Tue Jan 20 2026 15:19:13 GMT-0600 (Central Standard Time),590066.5999999046,A,cab,O,b,223,1,2186.2000000476837,587880.399999857,7730,WL,B,11.0
4,30.04100012779236,learn,29958.99987220764,Tue Jan 20 2026 15:19:13 GMT-0600 (Central Standard Time),590312.5,A,cabi,O,i,234,1,2432.100000143051,587880.399999857,7730,WL,B,11.0
4,30.2260000705719,learn,29773.9999294281,Tue Jan 20 2026 15:19:13 GMT-0600 (Central Standard Time),590496.899999857,A,cabin,O,n,181,1,2616.5,587880.399999857,7730,WL,B,11.0
4,30.442000150680542,learn,29557.999849319458,Tue Jan 20 2026 15:19:13 GMT-0600 (Central Standard Time),590713.399999857,A,cabinenter,O,enter,210,1,2833.0,587880.399999857,7730,WL,B,11.0
4,35.1560001373291,learn,24843.9998626709,Tue Jan 20 2026 15:19:13 GMT-0600 (Central Standard Time),595426.7000000477,A,s,O,s,4698,1,4713.0,590713.7000000477,7730,WL,B,12.0
4,35.355000019073486,learn,24644.999980926514,Tue Jan 20 2026 15:19:13 GMT-0600 (Central Standard Time),595626.5,A,st,O,t,186,1,4912.799999952316,590713.7000000477,7730,WL,B,12.0
4,35.54100012779236,learn,24458.99987220764,Tue Jan 20 2026 15:19:13 GMT-0600 (Central Standard Time),595812.0999999046,A,sta,O,a,170,1,5098.399999856949,590713.7000000477,7730,WL,B,12.0
4,35.67400002479553,learn,24325.999975204468,Tue Jan 20 2026 15:19:13 GMT-0600 (Central Standard Time),595944.899999857,A,star,O,r,109,1,5231.199999809265,590713.7000000477,7730,WL,B,12.0
4,35.95700001716614,learn,24042.999982833862,Tue Jan 20 2026 15:19:13 GMT-0600 (Central Standard Time),596227.899999857,A,starenter,O,enter,273,1,5514.199999809265,590713.7000000477,7730,WL,B,12.0
4,42.78600001335144,learn,17213.99998664856,Tue Jan 20 2026 15:19:13 GMT-0600 (Central Standard Time),603057.0999999046,A,a,O,a,6815,1,6828.899999856949,596228.2000000477,7730,WL,B,13.0
4,42.98699998855591,learn,17013.00001144409,Tue Jan 20 2026 15:19:13 GMT-0600 (Central Standard Time),603258.5,A,ar,O,r,187,1,7030.299999952316,596228.2000000477,7730,WL,B,13.0
4,43.105000019073486,learn,16894.999980926514,Tue Jan 20 2026 15:19:13 GMT-0600 (Central Standard Time),603376.2000000477,A,arm,O,m,96,1,7148.0,596228.2000000477,7730,WL,B,13.0
4,43.37000012397766,learn,16629.99987602234,Tue Jan 20 2026 15:19:13 GMT-0600 (Central Standard Time),603642.0,A,armenter,O,enter,259,1,7413.799999952316,596228.2000000477,7730,WL,B,13.0
4,46.7720000743866,learn,13227.999925613403,Tue Jan 20 2026 15:19:13 GMT-0600 (Central Standard Time),607043.399999857,A,w,O,w,3389,1,3401.199999809265,603642.2000000477,7730,WL,B,14.0
4,46.88599991798401,learn,13114.000082015991,Tue Jan 20 2026 15:19:13 GMT-0600 (Central Standard Time),607157.7999999523,A,wi,O,i,98,1,3515.5999999046326,603642.2000000477,7730,WL,B,14.0
4,47.03500008583069,learn,12964.999914169312,Tue Jan 20 2026 15:19:13 GMT-0600 (Central Standard Time),607306.5,A,wif,O,f,140,1,3664.2999999523163,603642.2000000477,7730,WL,B,14.0
4,47.20300006866455,learn,12796.99993133545,Tue Jan 20 2026 15:19:13 GMT-0600 (Central Standard Time),607474.5,A,wife,O,e,164,1,3832.2999999523163,603642.2000000477,7730,WL,B,14.0
4,47.301000118255615,learn,12698.999881744385,Tue Jan 20 2026 15:19:13 GMT-0600 (Central Standard Time),607572.2000000477,A,wifeenter,O,enter,88,1,3930.0,603642.2000000477,7730,WL,B,14.0
4,52.91900014877319,learn,7080.999851226807,Tue Jan 20 2026 15:19:13 GMT-0600 (Central Standard Time),613190.2000000477,A,s,O,s,5601,1,5617.700000047684,607572.5,7730,WL,B,15.0
4,53.049999952316284,learn,6950.000047683716,Tue Jan 20 2026 15:19:13 GMT-0600 (Central Standard Time),613321.5999999046,A,sk,O,k,117,1,5749.099999904633,607572.5,7730,WL,B,15.0
4,53.23399996757507,learn,6766.000032424927,Tue Jan 20 2026 15:19:13 GMT-0600 (Central Standard Time),613505.899999857,A,ski,O,i,170,1,5933.399999856949,607572.5,7730,WL,B,15.0
4,53.41799998283386,learn,6582.000017166138,Tue Jan 20 2026 15:19:13 GMT-0600 (Central Standard Time),613689.7000000477,A,skin,O,n,164,1,6117.200000047684,607572.5,7730,WL,B,15.0
4,53.634000062942505,learn,6365.999937057495,Tue Jan 20 2026 15:19:13 GMT-0600 (Central Standard Time),613905.0,A,skinenter,O,enter,202,1,6332.5,607572.5,7730,WL,B,15.0
5,0.8849999904632568,learn,60000.0,Tue Jan 20 2026 15:19:13 GMT-0600 (Central Standard Time),683500.399999857,A,s,O,s,869,1,884.7999999523163,682615.5999999046,7730,WL,B,1.0
5,1.0840001106262207,learn,60000.0,Tue Jan 20 2026 15:19:13 GMT-0600 (Central Standard Time),683699.0999999046,A,st,O,t,194,1,1083.5,682615.5999999046,7730,WL,B,1.0
5,1.317000150680542,learn,60000.0,Tue Jan 20 2026 15:19:13 GMT-0600 (Central Standard Time),683932.0,A,str,O,r,217,1,1316.4000000953674,682615.5999999046,7730,WL,B,1.0
5,1.501000165939331,learn,60000.0,Tue Jan 20 2026 15:19:13 GMT-0600 (Central Standard Time),684115.5,A,stre,O,e,176,1,1499.9000000953674,682615.5999999046,7730,WL,B,1.0
5,1.7350001335144043,learn,60000.0,Tue Jan 20 2026 15:19:13 GMT-0600 (Central Standard Time),684349.7000000477,A,stree,O,e,217,1,1734.1000001430511,682615.5999999046,7730,WL,B,1.0
5,1.9840002059936523,learn,60000.0,Tue Jan 20 2026 15:19:13 GMT-0600 (Central Standard Time),684599.399999857,A,street,O,t,240,1,1983.7999999523163,682615.5999999046,7730,WL,B,1.0
5,2.251000165939331,learn,60000.0,Tue Jan 20 2026 15:19:13 GMT-0600 (Central Standard Time),684866.0,A,streetenter,O,enter,253,1,2250.4000000953674,682615.5999999046,7730,WL,B,1.0
5,2.820000171661377,learn,60000.0,Tue Jan 20 2026 15:19:13 GMT-0600 (Central Standard Time),685434.5999999046,A,g,O,g,546,1,568.2999999523163,684866.2999999523,7730,WL,B,2.0
5,3.001000165939331,learn,60000.0,Tue Jan 20 2026 15:19:13 GMT-0600 (Central Standard Time),685615.7000000477,A,gr,O,r,168,1,749.4000000953674,684866.2999999523,7730,WL,B,2.0
5,3.2170000076293945,learn,60000.0,Tue Jan 20 2026 15:19:13 GMT-0600 (Central Standard Time),685832.2999999523,A,gra,O,a,195,1,966.0,684866.2999999523,7730,WL,B,2.0
5,3.4680001735687256,learn,60000.0,Tue Jan 20 2026 15:19:13 GMT-0600 (Central Standard Time),686082.7000000477,A,gras,O,s,235,1,1216.4000000953674,684866.2999999523,7730,WL,B,2.0
5,3.6510000228881836,learn,60000.0,Tue Jan 20 2026 15:19:13 GMT-0600 (Central Standard Time),686265.7999999523,A,grass,O,s,166,1,1399.5,684866.2999999523,7730,WL,B,2.0
5,3.9190001487731934,learn,60000.0,Tue Jan 20 2026 15:19:13 GMT-0600 (Central Standard Time),686533.399999857,A,grassenter,O,enter,251,1,1667.0999999046326,684866.2999999523,7730,WL,B,2.0
5,4.551000118255615,learn,60000.0,Tue Jan 20 2026 15:19:13 GMT-0600 (Central Standard Time),687166.399999857,A,d,O,d,616,1,632.7999999523163,686533.5999999046,7730,WL,B,3.0
5,4.76800012588501,learn,60000.0,Tue Jan 20 2026 15:19:13 GMT-0600 (Central Standard Time),687382.5,A,do,O,o,196,1,848.9000000953674,686533.5999999046,7730,WL,B,3.0
5,4.934000015258789,learn,60000.0,Tue Jan 20 2026 15:19:13 GMT-0600 (Central Standard Time),687548.899999857,A,doo,O,o,147,1,1015.2999999523163,686533.5999999046,7730,WL,B,3.0
5,5.1000001430511475,learn,60000.0,Tue Jan 20 2026 15:19:13 GMT-0600 (Central Standard Time),687715.0,A,door,O,r,149,1,1181.4000000953674,686533.5999999046,7730,WL,B,3.0
5,5.267000198364258,learn,60000.0,Tue Jan 20 2026 15:19:13 GMT-0600 (Central Standard Time),687882.0,A,doorenter,O,enter,145,1,1348.4000000953674,686533.5999999046,7730,WL,B,3.0
5,5.8500001430511475,learn,60000.0,Tue Jan 20 2026 15:19:13 GMT-0600 (Central Standard Time),688464.7999999523,A,w,O,w,578,1,582.5,687882.2999999523,7730,WL,B,4.0
5,6.067000150680542,learn,60000.0,Tue Jan 20 2026 15:19:13 GMT-0600 (Central Standard Time),688681.7000000477,A,wi,O,i,204,1,799.4000000953674,687882.2999999523,7730,WL,B,4.0
5,6.267000198364258,learn,60000.0,Tue Jan 20 2026 15:19:13 GMT-0600 (Central Standard Time),688881.5999999046,A,win,O,n,186,1,999.2999999523163,687882.2999999523,7730,WL,B,4.0
5,6.449000120162964,learn,60000.0,Tue Jan 20 2026 15:19:13 GMT-0600 (Central Standard Time),689064.399999857,A,wind,O,d,171,1,1182.0999999046326,687882.2999999523,7730,WL,B,4.0
5,6.616000175476074,learn,60000.0,Tue Jan 20 2026 15:19:13 GMT-0600 (Central Standard Time),689231.0999999046,A,windo,O,o,154,1,1348.7999999523163,687882.2999999523,7730,WL,B,4.0
5,6.732000112533569,learn,60000.0,Tue Jan 20 2026 15:19:13 GMT-0600 (Central Standard Time),689347.0999999046,A,window,O,w,100,1,1464.7999999523163,687882.2999999523,7730,WL,B,4.0
5,6.933000087738037,learn,60000.0,Tue Jan 20 2026 15:19:13 GMT-0600 (Central Standard Time),689547.399999857,A,windowenter,O,enter,193,1,1665.0999999046326,687882.2999999523,7730,WL,B,4.0
5,7.699000120162964,learn,60000.0,Tue Jan 20 2026 15:19:13 GMT-0600 (Central Standard Time),690313.899999857,A,w,O,w,759,1,766.1999998092651,689547.7000000477,7730,WL,B,5.0
5,7.934000015258789,learn,60000.0,Tue Jan 20 2026 15:19:13 GMT-0600 (Central Standard Time),690548.5,A,wi,O,i,220,1,1000.7999999523163,689547.7000000477,7730,WL,B,5.0
5,8.217000007629395,learn,60000.0,Tue Jan 20 2026 15:19:13 GMT-0600 (Central Standard Time),690832.0,A,wif,O,f,265,1,1284.2999999523163,689547.7000000477,7730,WL,B,5.0
5,8.433000087738037,learn,60000.0,Tue Jan 20 2026 15:19:13 GMT-0600 (Central Standard Time),691047.5,A,wife,O,e,194,1,1499.7999999523163,689547.7000000477,7730,WL,B,5.0
5,8.599000215530396,learn,60000.0,Tue Jan 20 2026 15:19:13 GMT-0600 (Central Standard Time),691214.0999999046,A,wifeenter,O,enter,158,1,1666.3999998569489,689547.7000000477,7730,WL,B,5.0
5,9.483000040054321,learn,60000.0,Tue Jan 20 2026 15:19:13 GMT-0600 (Central Standard Time),692098.0999999046,A,f,O,f,865,1,883.5999999046326,691214.5,7730,WL,B,6.0
5,9.650000095367432,learn,60000.0,Tue Jan 20 2026 15:19:13 GMT-0600 (Central Standard Time),692264.5,A,fi,O,i,145,1,1050.0,691214.5,7730,WL,B,6.0
5,9.71500015258789,learn,60000.0,Tue Jan 20 2026 15:19:13 GMT-0600 (Central Standard Time),692329.399999857,A,fir,O,r,49,1,1114.8999998569489,691214.5,7730,WL,B,6.0
5,9.884000062942505,learn,60000.0,Tue Jan 20 2026 15:19:13 GMT-0600 (Central Standard Time),692498.7999999523,A,fire,O,e,165,1,1284.2999999523163,691214.5,7730,WL,B,6.0
5,10.04800009727478,learn,60000.0,Tue Jan 20 2026 15:19:13 GMT-0600 (Central Standard Time),692662.899999857,A,fireenter,O,enter,152,1,1448.3999998569489,691214.5,7730,WL,B,6.0
5,10.664000034332275,learn,60000.0,Tue Jan 20 2026 15:19:13 GMT-0600 (Central Standard Time),693279.2999999523,A,c,O,c,596,1,616.0999999046326,692663.2000000477,7730,WL,B,7.0
5,10.765000104904175,learn,60000.0,Tue Jan 20 2026 15:19:13 GMT-0600 (Central Standard Time),693380.0,A,ci,O,i,86,1,716.7999999523163,692663.2000000477,7730,WL,B,7.0
5,10.915000200271606,learn,60000.0,Tue Jan 20 2026 15:19:13 GMT-0600 (Central Standard Time),693530.2999999523,A,cit,O,t,143,1,867.0999999046326,692663.2000000477,7730,WL,B,7.0
5,11.065000057220459,learn,60000.0,Tue Jan 20 2026 15:19:13 GMT-0600 (Central Standard Time),693679.899999857,A,city,O,y,146,1,1016.6999998092651,692663.2000000477,7730,WL,B,7.0
5,11.348000049591064,learn,60000.0,Tue Jan 20 2026 15:19:13 GMT-0600 (Central Standard Time),693963.2000000477,A,cityenter,O,enter,278,1,1300.0,692663.2000000477,7730,WL,B,7.0
5,12.532000064849854,learn,60000.0,Tue Jan 20 2026 15:19:13 GMT-0600 (Central Standard Time),695147.2000000477,A,s,O,s,1169,1,1183.7000000476837,693963.5,7730,WL,B,8.0
5,12.647000074386597,learn,60000.0,Tue Jan 20 2026 15:19:13 GMT-0600 (Central Standard Time),695261.5,A,sk,O,k,95,1,1298.0,693963.5,7730,WL,B,8.0
5,12.813000202178955,learn,60000.0,Tue Jan 20 2026 15:19:13 GMT-0600 (Central Standard Time),695427.7999999523,A,ski,O,i,159,1,1464.2999999523163,693963.5,7730,WL,B,8.0
5,12.980000019073486,learn,60000.0,Tue Jan 20 2026 15:19:13 GMT-0600 (Central Standard Time),695595.2000000477,A,skin,O,n,153,1,1631.7000000476837,693963.5,7730,WL,B,8.0
5,13.21399998664856,learn,60000.0,Tue Jan 20 2026 15:19:13 GMT-0600 (Central Standard Time),695829.0999999046,A,skinenter,O,enter,218,1,1865.5999999046326,693963.5,7730,WL,B,8.0
5,22.877000093460083,learn,60000.0,Tue Jan 20 2026 15:19:13 GMT-0600 (Central Standard Time),705491.899999857,A,p,O,p,9656,1,9662.599999904633,695829.2999999523,7730,WL,B,9.0
5,23.146000146865845,learn,60000.0,Tue Jan 20 2026 15:19:13 GMT-0600 (Central Standard Time),705761.0,A,pu,O,u,249,1,9931.700000047684,695829.2999999523,7730,WL,B,9.0
5,23.478000164031982,learn,60000.0,Tue Jan 20 2026 15:19:13 GMT-0600 (Central Standard Time),706092.5,A,pup,O,p,313,1,10263.200000047684,695829.2999999523,7730,WL,B,9.0
5,24.24500012397766,learn,60000.0,Tue Jan 20 2026 15:19:13 GMT-0600 (Central Standard Time),706859.899999857,A,pupi,O,i,753,1,11030.599999904633,695829.2999999523,7730,WL,B,9.0
5,24.461000204086304,learn,60000.0,Tue Jan 20 2026 15:19:13 GMT-0600 (Central Standard Time),707075.5,A,pupil,O,l,206,1,11246.200000047684,695829.2999999523,7730,WL,B,9.0
5,24.711000204086304,learn,60000.0,Tue Jan 20 2026 15:19:13 GMT-0600 (Central Standard Time),707325.7000000477,A,pupilenter,O,enter,233,1,11496.400000095367,695829.2999999523,7730,WL,B,9.0
5,27.47699999809265,learn,60000.0,Tue Jan 20 2026 15:19:13 GMT-0600 (Central Standard Time),710092.0999999046,A,c,O,c,2751,1,2766.2999999523163,707325.7999999523,7730,WL,B,10.0
5,27.62600016593933,learn,60000.0,Tue Jan 20 2026 15:19:13 GMT-0600 (Central Standard Time),710241.2000000477,A,cl,O,l,138,1,2915.4000000953674,707325.7999999523,7730,WL,B,10.0
5,27.80900001525879,learn,60000.0,Tue Jan 20 2026 15:19:13 GMT-0600 (Central Standard Time),710423.5,A,clo,O,o,171,1,3097.7000000476837,707325.7999999523,7730,WL,B,10.0
5,27.960000038146973,learn,60000.0,Tue Jan 20 2026 15:19:13 GMT-0600 (Central Standard Time),710574.899999857,A,cloc,O,c,139,1,3249.0999999046326,707325.7999999523,7730,WL,B,10.0
5,28.05900001525879,learn,60000.0,Tue Jan 20 2026 15:19:13 GMT-0600 (Central Standard Time),710674.0,A,clock,O,k,94,1,3348.2000000476837,707325.7999999523,7730,WL,B,10.0
5,28.31000018119812,learn,60000.0,Tue Jan 20 2026 15:19:13 GMT-0600 (Central Standard Time),710925.0,A,clockenter,O,enter,234,1,3599.2000000476837,707325.7999999523,7730,WL,B,10.0
5,33.074000120162964,learn,60000.0,Tue Jan 20 2026 15:19:13 GMT-0600 (Central Standard Time),715688.7000000477,A,c,O,c,4751,1,4763.5,710925.2000000477,7730,WL,B,11.0
5,33.21000003814697,learn,60000.0,Tue Jan 20 2026 15:19:13 GMT-0600 (Central Standard Time),715824.5,A,ci,O,i,125,1,4899.299999952316,710925.2000000477,7730,WL,B,11.0
5,33.37400007247925,learn,60000.0,Tue Jan 20 2026 15:19:13 GMT-0600 (Central Standard Time),715988.899999857,A,cit,O,t,147,1,5063.699999809265,710925.2000000477,7730,WL,B,11.0
5,33.47500014305115,learn,60000.0,Tue Jan 20 2026 15:19:13 GMT-0600 (Central Standard Time),716090.0,A,city,O,y,87,1,5164.799999952316,710925.2000000477,7730,WL,B,11.0
5,33.741000175476074,learn,60000.0,Tue Jan 20 2026 15:19:13 GMT-0600 (Central Standard Time),716355.5,A,cityenter,O,enter,248,1,5430.299999952316,710925.2000000477,7730,WL,B,11.0
5,38.605000019073486,learn,60000.0,Tue Jan 20 2026 15:19:13 GMT-0600 (Central Standard Time),721220.5,A,a,O,a,4856,1,4864.900000095367,716355.5999999046,7730,WL,B,12.0
5,38.74000000953674,learn,60000.0,Tue Jan 20 2026 15:19:13 GMT-0600 (Central Standard Time),721355.0999999046,A,ar,O,r,120,1,4999.5,716355.5999999046,7730,WL,B,12.0
5,38.93900012969971,learn,60000.0,Tue Jan 20 2026 15:19:13 GMT-0600 (Central Standard Time),721554.2000000477,A,arm,O,m,192,1,5198.600000143051,716355.5999999046,7730,WL,B,12.0
5,39.205000162124634,learn,60000.0,Tue Jan 20 2026 15:19:13 GMT-0600 (Central Standard Time),721819.7999999523,A,armenter,O,enter,246,1,5464.200000047684,716355.5999999046,7730,WL,B,12.0
5,46.086000204086304,learn,60000.0,Tue Jan 20 2026 15:19:13 GMT-0600 (Central Standard Time),728701.899999857,A,l,O,l,6872,1,6881.799999952316,721820.0999999046,7730,WL,B,13.0
5,46.23699998855591,learn,60000.0,Tue Jan 20 2026 15:19:13 GMT-0600 (Central Standard Time),728852.2000000477,A,la,O,a,133,1,7032.100000143051,721820.0999999046,7730,WL,B,13.0
5,46.47000002861023,learn,60000.0,Tue Jan 20 2026 15:19:13 GMT-0600 (Central Standard Time),729085.2000000477,A,lak,O,k,212,1,7265.100000143051,721820.0999999046,7730,WL,B,13.0
5,46.586000204086304,learn,60000.0,Tue Jan 20 2026 15:19:13 GMT-0600 (Central Standard Time),729201.2000000477,A,lake,O,e,109,1,7381.100000143051,721820.0999999046,7730,WL,B,13.0
5,46.736000061035156,learn,60000.0,Tue Jan 20 2026 15:19:13 GMT-0600 (Central Standard Time),729351.7000000477,A,lakeenter,O,enter,132,1,7531.600000143051,721820.0999999046,7730,WL,B,13.0
5,49.61800003051758,learn,60000.0,Tue Jan 20 2026 15:19:13 GMT-0600 (Central Standard Time),732233.5,A,f,O,f,2869,1,2881.600000143051,729351.899999857,7730,WL,B,14.0
5,49.75200009346008,learn,60000.0,Tue Jan 20 2026 15:19:13 GMT-0600 (Central Standard Time),732367.7000000477,A,fi,O,i,120,1,3015.800000190735,729351.899999857,7730,WL,B,14.0
5,49.85199999809265,learn,60000.0,Tue Jan 20 2026 15:19:13 GMT-0600 (Central Standard Time),732467.5,A,fir,O,r,91,1,3115.600000143051,729351.899999857,7730,WL,B,14.0
5,50.03500008583069,learn,60000.0,Tue Jan 20 2026 15:19:13 GMT-0600 (Central Standard Time),732650.399999857,A,fire,O,e,168,1,3298.5,729351.899999857,7730,WL,B,14.0
5,50.13499999046326,learn,60000.0,Tue Jan 20 2026 15:19:13 GMT-0600 (Central Standard Time),732749.899999857,A,fireenter,O,enter,81,1,3398.0,729351.899999857,7730,WL,B,14.0
5,72.02900004386902,learn,60000.0,Tue Jan 20 2026 15:19:13 GMT-0600 (Central Standard Time),754644.0,A,c,O,c,21877,1,21893.799999952316,732750.2000000477,7730,WL,B,15.0
6,2.433000087738037,distr,57566.99991226196,Tue Jan 20 2026 15:19:13 GMT-0600 (Central Standard Time),833218.7000000477,B,b,O,b,2419,1,2432.600000143051,830786.0999999046,7730,WL,B,1.0
6,2.6489999294281006,distr,57351.0000705719,Tue Jan 20 2026 15:19:13 GMT-0600 (Central Standard Time),833434.7000000477,B,ba,O,a,207,1,2648.600000143051,830786.0999999046,7730,WL,B,1.0
6,2.883000135421753,distr,57116.99986457825,Tue Jan 20 2026 15:19:13 GMT-0600 (Central Standard Time),833668.5,B,bab,O,b,224,1,2882.4000000953674,830786.0999999046,7730,WL,B,1.0
6,3.0490000247955322,distr,56950.99997520447,Tue Jan 20 2026 15:19:13 GMT-0600 (Central Standard Time),833834.399999857,B,baby,O,y,151,1,3048.2999999523163,830786.0999999046,7730,WL,B,1.0
6,3.365000009536743,distr,56634.99999046326,Tue Jan 20 2026 15:19:13 GMT-0600 (Central Standard Time),834150.5,B,babyenter,O,enter,305,1,3364.4000000953674,830786.0999999046,7730,WL,B,1.0
6,4.08299994468689,distr,55917.00005531311,Tue Jan 20 2026 15:19:13 GMT-0600 (Central Standard Time),834868.7000000477,B,o,O,o,702,1,717.9000000953674,834150.7999999523,7730,WL,B,2.0
6,4.216000080108643,distr,55783.99991989136,Tue Jan 20 2026 15:19:13 GMT-0600 (Central Standard Time),835001.5999999046,B,oc,O,c,119,1,850.7999999523163,834150.7999999523,7730,WL,B,2.0
6,4.449000120162964,distr,55550.999879837036,Tue Jan 20 2026 15:19:13 GMT-0600 (Central Standard Time),835234.5999999046,B,oce,O,e,219,1,1083.7999999523163,834150.7999999523,7730,WL,B,2.0
6,4.651000022888184,distr,55348.99997711182,Tue Jan 20 2026 15:19:13 GMT-0600 (Central Standard Time),835436.899999857,B,ocea,O,a,179,1,1286.0999999046326,834150.7999999523,7730,WL,B,2.0
6,4.765000104904175,distr,55234.999895095825,Tue Jan 20 2026 15:19:13 GMT-0600 (Central Standard Time),835550.2999999523,B,ocean,O,n,92,1,1399.5,834150.7999999523,7730,WL,B,2.0
6,4.982000112533569,distr,55017.99988746643,Tue Jan 20 2026 15:19:13 GMT-0600 (Central Standard Time),835768.0,B,oceanenter,O,enter,206,1,1617.2000000476837,834150.7999999523,7730,WL,B,2.0
6,7.296999931335449,distr,52703.00006866455,Tue Jan 20 2026 15:19:13 GMT-0600 (Central Standard Time),838083.0999999046,B,d,O,d,2309,1,2314.899999856949,835768.2000000477,7730,WL,B,3.0
6,7.497999906539917,distr,52502.00009346008,Tue Jan 20 2026 15:19:13 GMT-0600 (Central Standard Time),838283.7999999523,B,dr,O,r,185,1,2515.5999999046326,835768.2000000477,7730,WL,B,3.0
6,7.647000074386597,distr,52352.9999256134,Tue Jan 20 2026 15:19:13 GMT-0600 (Central Standard Time),838433.2000000477,B,dre,O,e,136,1,2665.0,835768.2000000477,7730,WL,B,3.0
6,7.831000089645386,distr,52168.999910354614,Tue Jan 20 2026 15:19:13 GMT-0600 (Central Standard Time),838617.5,B,dres,O,s,170,1,2849.2999999523163,835768.2000000477,7730,WL,B,3.0
6,8.02999997138977,distr,51970.00002861023,Tue Jan 20 2026 15:19:13 GMT-0600 (Central Standard Time),838816.5999999046,B,dress,O,s,179,1,3048.399999856949,835768.2000000477,7730,WL,B,3.0
6,8.181999921798706,distr,51818.000078201294,Tue Jan 20 2026 15:19:13 GMT-0600 (Central Standard Time),838967.7000000477,B,dressenter,O,enter,139,1,3199.5,835768.2000000477,7730,WL,B,3.0
6,8.581000089645386,distr,51418.999910354614,Tue Jan 20 2026 15:19:13 GMT-0600 (Central Standard Time),839367.399999857,B,c,O,c,381,1,399.5,838967.899999857,7730,WL,B,4.0
6,8.947999954223633,distr,51052.00004577637,Tue Jan 20 2026 15:19:13 GMT-0600 (Central Standard Time),839734.0,B,ce,O,e,347,1,766.1000001430511,838967.899999857,7730,WL,B,4.0
6,9.314000129699707,distr,50685.99987030029,Tue Jan 20 2026 15:19:13 GMT-0600 (Central Standard Time),840100.0999999046,B,cel,O,l,358,1,1132.2000000476837,838967.899999857,7730,WL,B,4.0
6,9.496999979019165,distr,50503.000020980835,Tue Jan 20 2026 15:19:13 GMT-0600 (Central Standard Time),840283.2000000477,B,cell,O,l,176,1,1315.3000001907349,838967.899999857,7730,WL,B,4.0
6,9.730999946594238,distr,50269.00005340576,Tue Jan 20 2026 15:19:13 GMT-0600 (Central Standard Time),840517.0,B,cellenter,O,enter,216,1,1549.1000001430511,838967.899999857,7730,WL,B,4.0
6,11.446000099182129,distr,48553.99990081787,Tue Jan 20 2026 15:19:13 GMT-0600 (Central Standard Time),842232.399999857,B,a,O,a,1696,1,1715.2999999523163,840517.0999999046,7730,WL,B,5.0
6,11.631999969482422,distr,48368.00003051758,Tue Jan 20 2026 15:19:13 GMT-0600 (Central Standard Time),842417.7000000477,B,ar,O,r,171,1,1900.6000001430511,840517.0999999046,7730,WL,B,5.0
6,11.796000003814697,distr,48203.9999961853,Tue Jan 20 2026 15:19:13 GMT-0600 (Central Standard Time),842582.5,B,arm,O,m,154,1,2065.4000000953674,840517.0999999046,7730,WL,B,5.0
6,12.095999956130981,distr,47904.00004386902,Tue Jan 20 2026 15:19:13 GMT-0600 (Central Standard Time),842882.399999857,B,army,O,y,296,1,2365.2999999523163,840517.0999999046,7730,WL,B,5.0
6,12.446000099182129,distr,47553.99990081787,Tue Jan 20 2026 15:19:13 GMT-0600 (Central Standard Time),843231.899999857,B,armyenter,O,enter,339,1,2714.7999999523163,840517.0999999046,7730,WL,B,5.0
6,13.229000091552734,distr,46770.999908447266,Tue Jan 20 2026 15:19:13 GMT-0600 (Central Standard Time),844015.0,B,b,O,b,765,1,782.9000000953674,843232.0999999046,7730,WL,B,6.0
6,13.413000106811523,distr,46586.99989318848,Tue Jan 20 2026 15:19:13 GMT-0600 (Central Standard Time),844199.5999999046,B,bu,O,u,164,1,967.5,843232.0999999046,7730,WL,B,6.0
6,13.595999956130981,distr,46404.00004386902,Tue Jan 20 2026 15:19:13 GMT-0600 (Central Standard Time),844382.2000000477,B,bui,O,i,172,1,1150.1000001430511,843232.0999999046,7730,WL,B,6.0
6,13.812000036239624,distr,46187.999963760376,Tue Jan 20 2026 15:19:13 GMT-0600 (Central Standard Time),844598.2999999523,B,buil,O,l,205,1,1366.2000000476837,843232.0999999046,7730,WL,B,6.0
6,14.130000114440918,distr,45869.99988555908,Tue Jan 20 2026 15:19:13 GMT-0600 (Central Standard Time),844915.899999857,B,build,O,d,302,1,1683.7999999523163,843232.0999999046,7730,WL,B,6.0
6,14.279000043869019,distr,45720.99995613098,Tue Jan 20 2026 15:19:13 GMT-0600 (Central Standard Time),845065.0,B,buildi,O,i,128,1,1832.9000000953674,843232.0999999046,7730,WL,B,6.0
6,14.46399998664856,distr,45536.00001335144,Tue Jan 20 2026 15:19:13 GMT-0600 (Central Standard Time),845250.0,B,buildin,O,n,181,1,2017.9000000953674,843232.0999999046,7730,WL,B,6.0
6,14.528000116348267,distr,45471.99988365173,Tue Jan 20 2026 15:19:13 GMT-0600 (Central Standard Time),845314.399999857,B,building,O,g,49,1,2082.2999999523163,843232.0999999046,7730,WL,B,6.0
6,14.727999925613403,distr,45272.0000743866,Tue Jan 20 2026 15:19:13 GMT-0600 (Central Standard Time),845514.2000000477,B,buildingenter,O,enter,187,1,2282.100000143051,843232.0999999046,7730,WL,B,6.0
6,33.33999991416931,distr,26660.00008583069,Tue Jan 20 2026 15:19:13 GMT-0600 (Central Standard Time),864126.0,B,d,O,d,18602,1,18611.5,845514.5,7730,WL,B,7.0
6,33.5550000667572,distr,26444.999933242798,Tue Jan 20 2026 15:19:13 GMT-0600 (Central Standard Time),864341.2999999523,B,dr,O,r,204,1,18826.799999952316,845514.5,7730,WL,B,7.0
6,33.706000089645386,distr,26293.999910354614,Tue Jan 20 2026 15:19:13 GMT-0600 (Central Standard Time),864492.2000000477,B,dre,O,e,130,1,18977.700000047684,845514.5,7730,WL,B,7.0
6,33.956000089645386,distr,26043.999910354614,Tue Jan 20 2026 15:19:13 GMT-0600 (Central Standard Time),864741.7000000477,B,dres,O,s,238,1,19227.200000047684,845514.5,7730,WL,B,7.0
6,34.138999938964844,distr,25861.000061035156,Tue Jan 20 2026 15:19:13 GMT-0600 (Central Standard Time),864925.5999999046,B,dress,O,s,176,1,19411.099999904633,845514.5,7730,WL,B,7.0
6,34.305999994277954,distr,25694.000005722046,Tue Jan 20 2026 15:19:13 GMT-0600 (Central Standard Time),865091.899999857,B,dressenter,O,enter,159,1,19577.39999985695,845514.5,7730,WL,B,7.0
6,45.568000078201294,distr,14431.999921798706,Tue Jan 20 2026 15:19:13 GMT-0600 (Central Standard Time),876354.5999999046,B,a,O,a,11248,1,11262.399999856949,865092.2000000477,7730,WL,B,8.0
6,45.76800012588501,distr,14231.99987411499,Tue Jan 20 2026 15:19:13 GMT-0600 (Central Standard Time),876554.399999857,B,ar,O,r,193,1,11462.199999809265,865092.2000000477,7730,WL,B,8.0
6,45.918999910354614,distr,14081.000089645386,Tue Jan 20 2026 15:19:13 GMT-0600 (Central Standard Time),876705.0,B,arm,O,m,129,1,11612.799999952316,865092.2000000477,7730,WL,B,8.0
6,46.25800013542175,distr,13741.999864578247,Tue Jan 20 2026 15:19:13 GMT-0600 (Central Standard Time),877044.5,B,army,O,y,315,1,11952.299999952316,865092.2000000477,7730,WL,B,8.0
6,46.5699999332428,distr,13430.000066757202,Tue Jan 20 2026 15:19:13 GMT-0600 (Central Standard Time),877356.0,B,armyenter,O,enter,294,1,12263.799999952316,865092.2000000477,7730,WL,B,8.0
6,60.013999938964844,distr,-13.99993896484375,Tue Jan 20 2026 15:19:13 GMT-0600 (Central Standard Time),890800.399999857,B,None,O,None,13440,1,13444.199999809265,877356.2000000477,7730,WL,B,9.0
7,20.526000022888184,immed,39473.99997711182,Tue Jan 20 2026 15:19:13 GMT-0600 (Central Standard Time),913442.5,A,g,O,g,20508,1,20525.60000014305,892916.899999857,7730,WL,B,1.0
7,20.76099991798401,immed,39239.00008201599,Tue Jan 20 2026 15:19:13 GMT-0600 (Central Standard Time),913677.5999999046,A,gr,O,r,223,1,20760.700000047684,892916.899999857,7730,WL,B,1.0
7,21.209999799728394,immed,38790.00020027161,Tue Jan 20 2026 15:19:13 GMT-0600 (Central Standard Time),914127.0999999046,A,gra,O,a,438,1,21210.200000047684,892916.899999857,7730,WL,B,1.0
7,21.492999792099,immed,38507.000207901,Tue Jan 20 2026 15:19:13 GMT-0600 (Central Standard Time),914410.0,A,gras,O,s,278,1,21493.10000014305,892916.899999857,7730,WL,B,1.0
7,21.675999879837036,immed,38324.000120162964,Tue Jan 20 2026 15:19:13 GMT-0600 (Central Standard Time),914592.7999999523,A,grass,O,s,170,1,21675.900000095367,892916.899999857,7730,WL,B,1.0
7,21.908999919891357,immed,38091.00008010864,Tue Jan 20 2026 15:19:13 GMT-0600 (Central Standard Time),914826.0,A,grassenter,O,enter,215,1,21909.10000014305,892916.899999857,7730,WL,B,1.0
7,22.825999975204468,immed,37174.00002479553,Tue Jan 20 2026 15:19:13 GMT-0600 (Central Standard Time),915742.2999999523,A,d,O,d,897,1,916.0,914826.2999999523,7730,WL,B,2.0
7,22.992999792099,immed,37007.000207901,Tue Jan 20 2026 15:19:13 GMT-0600 (Central Standard Time),915909.5999999046,A,do,O,o,151,1,1083.2999999523163,914826.2999999523,7730,WL,B,2.0
7,23.408999919891357,immed,36591.00008010864,Tue Jan 20 2026 15:19:13 GMT-0600 (Central Standard Time),916325.2999999523,A,doo,O,o,406,1,1499.0,914826.2999999523,7730,WL,B,2.0
7,23.675999879837036,immed,36324.000120162964,Tue Jan 20 2026 15:19:13 GMT-0600 (Central Standard Time),916592.2000000477,A,door,O,r,247,1,1765.9000000953674,914826.2999999523,7730,WL,B,2.0
7,23.89199995994568,immed,36108.00004005432,Tue Jan 20 2026 15:19:13 GMT-0600 (Central Standard Time),916808.899999857,A,doorenter,O,enter,212,1,1982.5999999046326,914826.2999999523,7730,WL,B,2.0
7,24.507999897003174,immed,35492.000102996826,Tue Jan 20 2026 15:19:13 GMT-0600 (Central Standard Time),917424.5,A,w,O,w,610,1,615.4000000953674,916809.0999999046,7730,WL,B,3.0
7,24.64199995994568,immed,35358.00004005432,Tue Jan 20 2026 15:19:13 GMT-0600 (Central Standard Time),917558.2000000477,A,wi,O,i,115,1,749.1000001430511,916809.0999999046,7730,WL,B,3.0
7,24.858999967575073,immed,35141.00003242493,Tue Jan 20 2026 15:19:13 GMT-0600 (Central Standard Time),917775.2999999523,A,win,O,n,196,1,966.2000000476837,916809.0999999046,7730,WL,B,3.0
7,25.640999794006348,immed,34359.00020599365,Tue Jan 20 2026 15:19:13 GMT-0600 (Central Standard Time),918557.899999857,A,wind,O,d,772,1,1748.7999999523163,916809.0999999046,7730,WL,B,3.0
7,25.79199981689453,immed,34208.00018310547,Tue Jan 20 2026 15:19:13 GMT-0600 (Central Standard Time),918708.5999999046,A,windo,O,o,143,1,1899.5,916809.0999999046,7730,WL,B,3.0
7,25.925999879837036,immed,34074.000120162964,Tue Jan 20 2026 15:19:13 GMT-0600 (Central Standard Time),918842.5999999046,A,window,O,w,120,1,2033.5,916809.0999999046,7730,WL,B,3.0
7,26.107999801635742,immed,33892.00019836426,Tue Jan 20 2026 15:19:13 GMT-0600 (Central Standard Time),919024.7999999523,A,windowenter,O,enter,169,1,2215.7000000476837,916809.0999999046,7730,WL,B,3.0
7,58.58200001716614,immed,1417.9999828338623,Tue Jan 20 2026 15:19:13 GMT-0600 (Central Standard Time),951498.2000000477,A,w,O,w,32459,1,32473.200000047684,919025.0,7730,WL,B,4.0
7,58.728999853134155,immed,1271.0001468658447,Tue Jan 20 2026 15:19:13 GMT-0600 (Central Standard Time),951645.7999999523,A,wi,O,i,129,1,32620.799999952316,919025.0,7730,WL,B,4.0
7,58.88099980354309,immed,1119.0001964569092,Tue Jan 20 2026 15:19:13 GMT-0600 (Central Standard Time),951797.7000000477,A,wif,O,f,135,1,32772.700000047684,919025.0,7730,WL,B,4.0
7,59.04699993133545,immed,953.0000686645508,Tue Jan 20 2026 15:19:13 GMT-0600 (Central Standard Time),951964.0,A,wife,O,e,148,1,32939.0,919025.0,7730,WL,B,4.0
7,59.21399998664856,immed,786.0000133514404,Tue Jan 20 2026 15:19:13 GMT-0600 (Central Standard Time),952130.5,A,wifeenter,O,enter,145,1,33105.5,919025.0,7730,WL,B,4.0
7,60.013999938964844,immed,-13.99993896484375,Tue Jan 20 2026 15:19:13 GMT-0600 (Central Standard Time),952931.0,A,None,O,None,796,1,800.2999999523163,952130.7000000477,7730,WL,B,5.0
