acc_sum,block,block_c,change,condition,correct,correct_response,datetime,endtime,face,project,response,response_time,row_sel,session_number,start_end,starttime,subject_id,task,task_vers,trial
0,prac,1,,1-Back,,,Fri Aug 08 2025 13:24:23 GMT-0500 (Central Daylight Time),,097_m_f_n_a.png,O,space,10629,1,1,,,7183,NNB,B,0
1,prac,1,0.0,1-Back,1,m,Fri Aug 08 2025 13:24:23 GMT-0500 (Central Daylight Time),125404.40000009537,152_y_f_n_a.png,O,m,782,2,1,1623.5,123780.90000009537,7183,NNB,B,1
1,prac,1,1.0,1-Back,0,z,Fri Aug 08 2025 13:24:23 GMT-0500 (Central Daylight Time),127737.29999995232,152_y_f_n_a.png,O,m,1548,3,1,2323.5,125413.79999995232,7183,NNB,B,2
2,prac,1,0.0,1-Back,1,m,Fri Aug 08 2025 13:24:23 GMT-0500 (Central Daylight Time),129702.60000014305,176_o_m_n_a.png,O,m,1082,4,1,1957.5,127745.10000014305,7183,NNB,B,3
3,prac,1,0.0,1-Back,1,m,Fri Aug 08 2025 13:24:23 GMT-0500 (Central Daylight Time),131700.20000004768,126_m_m_n_a.png,O,m,1218,5,1,1985.9000000953674,129714.29999995232,7183,NNB,B,4
4,prac,1,1.0,1-Back,1,z,Fri Aug 08 2025 13:24:23 GMT-0500 (Central Daylight Time),133148.70000004768,126_m_m_n_a.png,O,z,660,6,1,1440.5,131708.20000004768,7183,NNB,B,5
5,prac,1,0.0,1-Back,1,m,Fri Aug 08 2025 13:24:23 GMT-0500 (Central Daylight Time),134750.0,086_o_f_n_a.png,O,m,827,7,1,1592.7000000476837,133157.29999995232,7183,NNB,B,6
6,prac,1,0.0,1-Back,1,m,Fri Aug 08 2025 13:24:23 GMT-0500 (Central Daylight Time),136348.20000004768,178_m_m_n_a.png,O,m,715,8,1,1589.2999999523163,134758.90000009537,7183,NNB,B,7
7,prac,1,0.0,1-Back,1,m,Fri Aug 08 2025 13:24:23 GMT-0500 (Central Daylight Time),137797.79999995232,097_m_f_n_a.png,O,m,667,9,1,1439.0999999046326,136358.70000004768,7183,NNB,B,8
8,prac,1,1.0,1-Back,1,z,Fri Aug 08 2025 13:24:23 GMT-0500 (Central Daylight Time),139249.90000009537,097_m_f_n_a.png,O,z,666,10,1,1442.2999999523163,137807.60000014305,7183,NNB,B,9
9,prac,1,0.0,1-Back,1,m,Fri Aug 08 2025 13:24:23 GMT-0500 (Central Daylight Time),140649.20000004768,176_o_m_n_a.png,O,m,618,11,1,1392.5999999046326,139256.60000014305,7183,NNB,B,10
10,prac,1,0.0,1-Back,1,m,Fri Aug 08 2025 13:24:23 GMT-0500 (Central Daylight Time),142199.10000014305,173_y_f_n_a.png,O,m,696,12,1,1539.8000001907349,140659.29999995232,7183,NNB,B,11
0,test,1,0.0,1-Back,,,Fri Aug 08 2025 13:24:23 GMT-0500 (Central Daylight Time),142199.10000014305,152_y_f_n_a.png,O,space,7524,1,1,1539.8000001907349,140659.29999995232,7183,NNB,B,0
1,test,1,0.0,1-Back,1,m,Fri Aug 08 2025 13:24:23 GMT-0500 (Central Daylight Time),184333.60000014305,029_m_f_n_a.png,O,m,833,2,1,1842.9000000953674,182490.70000004768,7183,NNB,B,1
2,test,1,0.0,1-Back,1,m,Fri Aug 08 2025 13:24:23 GMT-0500 (Central Daylight Time),185966.0,173_y_f_n_a.png,O,m,603,3,1,1625.0,184341.0,7183,NNB,B,2
3,test,1,1.0,1-Back,1,z,Fri Aug 08 2025 13:24:23 GMT-0500 (Central Daylight Time),187582.20000004768,173_y_f_n_a.png,O,z,595,4,1,1609.4000000953674,185972.79999995232,7183,NNB,B,3
4,test,1,0.0,1-Back,1,m,Fri Aug 08 2025 13:24:23 GMT-0500 (Central Daylight Time),189264.79999995232,029_m_f_n_a.png,O,m,650,5,1,1674.1999998092651,187590.60000014305,7183,NNB,B,4
4,test,1,0.0,1-Back,0,m,Fri Aug 08 2025 13:24:23 GMT-0500 (Central Daylight Time),191197.29999995232,176_o_m_n_a.png,O,z,912,6,1,1926.0999999046326,189271.20000004768,7183,NNB,B,5
5,test,1,1.0,1-Back,1,z,Fri Aug 08 2025 13:24:23 GMT-0500 (Central Daylight Time),192916.20000004768,176_o_m_n_a.png,O,z,692,7,1,1710.4000000953674,191205.79999995232,7183,NNB,B,6
6,test,1,0.0,1-Back,1,m,Fri Aug 08 2025 13:24:23 GMT-0500 (Central Daylight Time),194796.0,126_m_m_n_a.png,O,m,853,8,1,1873.0999999046326,192922.90000009537,7183,NNB,B,7
7,test,1,0.0,1-Back,1,m,Fri Aug 08 2025 13:24:23 GMT-0500 (Central Daylight Time),196712.70000004768,086_o_f_n_a.png,O,m,882,9,1,1909.5,194803.20000004768,7183,NNB,B,8
8,test,1,0.0,1-Back,1,m,Fri Aug 08 2025 13:24:23 GMT-0500 (Central Daylight Time),198428.60000014305,126_m_m_n_a.png,O,m,698,10,1,1709.5,196719.10000014305,7183,NNB,B,9
9,test,1,0.0,1-Back,1,m,Fri Aug 08 2025 13:24:23 GMT-0500 (Central Daylight Time),200128.60000014305,153_y_m_n_a.png,O,m,676,11,1,1692.9000000953674,198435.70000004768,7183,NNB,B,10
10,test,1,1.0,1-Back,1,z,Fri Aug 08 2025 13:24:23 GMT-0500 (Central Daylight Time),201893.70000004768,153_y_m_n_a.png,O,z,746,12,1,1757.7000000476837,200136.0,7183,NNB,B,11
11,test,1,0.0,1-Back,1,m,Fri Aug 08 2025 13:24:23 GMT-0500 (Central Daylight Time),203628.0,110_o_f_n_a.png,O,m,717,13,1,1727.5,201900.5,7183,NNB,B,12
11,test,1,1.0,1-Back,0,z,Fri Aug 08 2025 13:24:23 GMT-0500 (Central Daylight Time),205159.29999995232,110_o_f_n_a.png,O,m,502,14,1,1522.5,203636.79999995232,7183,NNB,B,13
12,test,1,0.0,1-Back,1,m,Fri Aug 08 2025 13:24:23 GMT-0500 (Central Daylight Time),207059.5,013_y_m_n_a.png,O,m,879,15,1,1893.5,205166.0,7183,NNB,B,14
13,test,1,0.0,1-Back,1,m,Fri Aug 08 2025 13:24:23 GMT-0500 (Central Daylight Time),208991.90000009537,097_m_f_n_a.png,O,m,901,16,1,1924.0,207067.90000009537,7183,NNB,B,15
14,test,1,0.0,1-Back,1,m,Fri Aug 08 2025 13:24:23 GMT-0500 (Central Daylight Time),210875.5,065_o_m_n_a.png,O,m,857,17,1,1877.0,208998.5,7183,NNB,B,16
15,test,1,0.0,1-Back,1,m,Fri Aug 08 2025 13:24:23 GMT-0500 (Central Daylight Time),212974.90000009537,097_m_f_n_a.png,O,m,1080,18,1,2092.100000143051,210882.79999995232,7183,NNB,B,17
0,test,2,0.0,1-Back,,,Fri Aug 08 2025 13:24:23 GMT-0500 (Central Daylight Time),212974.90000009537,126_m_m_n_a.png,O,space,2148,1,1,2092.100000143051,210882.79999995232,7183,NNB,B,0
1,test,2,0.0,1-Back,1,m,Fri Aug 08 2025 13:24:23 GMT-0500 (Central Daylight Time),218839.0,029_m_f_n_a.png,O,m,679,2,1,1690.7999999523163,217148.20000004768,7183,NNB,B,1
2,test,2,1.0,1-Back,1,z,Fri Aug 08 2025 13:24:23 GMT-0500 (Central Daylight Time),220804.79999995232,029_m_f_n_a.png,O,z,936,3,1,1957.0,218847.79999995232,7183,NNB,B,2
3,test,2,0.0,1-Back,1,m,Fri Aug 08 2025 13:24:23 GMT-0500 (Central Daylight Time),222603.90000009537,126_m_m_n_a.png,O,m,781,4,1,1792.7000000476837,220811.20000004768,7183,NNB,B,3
4,test,2,0.0,1-Back,1,m,Fri Aug 08 2025 13:24:23 GMT-0500 (Central Daylight Time),224537.10000014305,153_y_m_n_a.png,O,m,909,5,1,1925.9000000953674,222611.20000004768,7183,NNB,B,4
5,test,2,0.0,1-Back,1,m,Fri Aug 08 2025 13:24:23 GMT-0500 (Central Daylight Time),226236.70000004768,152_y_f_n_a.png,O,m,673,6,1,1691.2000000476837,224545.5,7183,NNB,B,5
6,test,2,1.0,1-Back,1,z,Fri Aug 08 2025 13:24:23 GMT-0500 (Central Daylight Time),227954.29999995232,152_y_f_n_a.png,O,z,695,7,1,1712.0999999046326,226242.20000004768,7183,NNB,B,6
7,test,2,0.0,1-Back,1,m,Fri Aug 08 2025 13:24:23 GMT-0500 (Central Daylight Time),229633.60000014305,153_y_m_n_a.png,O,m,663,8,1,1671.4000000953674,227962.20000004768,7183,NNB,B,7
8,test,2,0.0,1-Back,1,m,Fri Aug 08 2025 13:24:23 GMT-0500 (Central Daylight Time),231285.5,110_o_f_n_a.png,O,m,630,9,1,1647.0,229638.5,7183,NNB,B,8
9,test,2,0.0,1-Back,1,m,Fri Aug 08 2025 13:24:23 GMT-0500 (Central Daylight Time),232933.40000009537,178_m_m_n_a.png,O,m,629,10,1,1640.0,231293.40000009537,7183,NNB,B,9
10,test,2,1.0,1-Back,1,z,Fri Aug 08 2025 13:24:23 GMT-0500 (Central Daylight Time),234700.90000009537,178_m_m_n_a.png,O,z,736,11,1,1759.9000000953674,232941.0,7183,NNB,B,10
11,test,2,0.0,1-Back,1,m,Fri Aug 08 2025 13:24:23 GMT-0500 (Central Daylight Time),236382.20000004768,110_o_f_n_a.png,O,m,658,12,1,1674.0,234708.20000004768,7183,NNB,B,11
12,test,2,0.0,1-Back,1,m,Fri Aug 08 2025 13:24:23 GMT-0500 (Central Daylight Time),238633.10000014305,086_o_f_n_a.png,O,m,1218,13,1,2245.0,236388.10000014305,7183,NNB,B,12
13,test,2,0.0,1-Back,1,m,Fri Aug 08 2025 13:24:23 GMT-0500 (Central Daylight Time),240365.90000009537,176_o_m_n_a.png,O,m,715,14,1,1726.4000000953674,238639.5,7183,NNB,B,13
14,test,2,0.0,1-Back,1,m,Fri Aug 08 2025 13:24:23 GMT-0500 (Central Daylight Time),242014.0,065_o_m_n_a.png,O,m,629,15,1,1640.3999998569489,240373.60000014305,7183,NNB,B,14
15,test,2,1.0,1-Back,1,z,Fri Aug 08 2025 13:24:23 GMT-0500 (Central Daylight Time),243681.90000009537,065_o_m_n_a.png,O,z,635,16,1,1660.2999999523163,242021.60000014305,7183,NNB,B,15
16,test,2,0.0,1-Back,1,m,Fri Aug 08 2025 13:24:23 GMT-0500 (Central Daylight Time),245263.90000009537,013_y_m_n_a.png,O,m,551,17,1,1574.9000000953674,243689.0,7183,NNB,B,16
17,test,2,1.0,1-Back,1,z,Fri Aug 08 2025 13:24:23 GMT-0500 (Central Daylight Time),247113.0,013_y_m_n_a.png,O,z,823,18,1,1841.5999999046326,245271.40000009537,7183,NNB,B,17
0,test,3,1.0,1-Back,,,Fri Aug 08 2025 13:24:23 GMT-0500 (Central Daylight Time),247113.0,173_y_f_n_a.png,O,space,1872,1,1,1841.5999999046326,245271.40000009537,7183,NNB,B,0
1,test,3,0.0,1-Back,1,m,Fri Aug 08 2025 13:24:23 GMT-0500 (Central Daylight Time),252713.90000009537,065_o_m_n_a.png,O,m,584,1,1,1611.2000000476837,251102.70000004768,7183,NNB,B,1
2,test,3,1.0,1-Back,1,z,Fri Aug 08 2025 13:24:23 GMT-0500 (Central Daylight Time),254576.70000004768,065_o_m_n_a.png,O,z,840,1,1,1856.0999999046326,252720.60000014305,7183,NNB,B,2
3,test,3,0.0,1-Back,1,m,Fri Aug 08 2025 13:24:23 GMT-0500 (Central Daylight Time),256227.20000004768,097_m_f_n_a.png,O,m,624,1,1,1643.5999999046326,254583.60000014305,7183,NNB,B,3
4,test,3,1.0,1-Back,1,z,Fri Aug 08 2025 13:24:23 GMT-0500 (Central Daylight Time),257810.5,097_m_f_n_a.png,O,z,566,1,1,1575.5999999046326,256234.90000009537,7183,NNB,B,4
5,test,3,0.0,1-Back,1,m,Fri Aug 08 2025 13:24:23 GMT-0500 (Central Daylight Time),259442.29999995232,110_o_f_n_a.png,O,m,606,1,1,1623.5999999046326,257818.70000004768,7183,NNB,B,5
6,test,3,0.0,1-Back,1,m,Fri Aug 08 2025 13:24:23 GMT-0500 (Central Daylight Time),261175.79999995232,153_y_m_n_a.png,O,m,710,1,1,1725.8999998569489,259449.90000009537,7183,NNB,B,6
7,test,3,0.0,1-Back,1,m,Fri Aug 08 2025 13:24:23 GMT-0500 (Central Daylight Time),262940.7999999523,110_o_f_n_a.png,O,m,747,1,1,1756.5999999046326,261184.20000004768,7183,NNB,B,7
8,test,3,0.0,1-Back,1,m,Fri Aug 08 2025 13:24:23 GMT-0500 (Central Daylight Time),264574.0,013_y_m_n_a.png,O,m,604,1,1,1625.7000000476837,262948.2999999523,7183,NNB,B,8
9,test,3,1.0,1-Back,1,z,Fri Aug 08 2025 13:24:23 GMT-0500 (Central Daylight Time),266206.60000014305,013_y_m_n_a.png,O,z,603,1,1,1626.1000001430511,264580.5,7183,NNB,B,9
10,test,3,0.0,1-Back,1,m,Fri Aug 08 2025 13:24:23 GMT-0500 (Central Daylight Time),268006.60000014305,029_m_f_n_a.png,O,m,769,1,1,1792.9000000953674,266213.7000000477,7183,NNB,B,10
11,test,3,0.0,1-Back,1,m,Fri Aug 08 2025 13:24:23 GMT-0500 (Central Daylight Time),269688.5,152_y_f_n_a.png,O,m,649,1,1,1674.5999999046326,268013.90000009537,7183,NNB,B,11
12,test,3,1.0,1-Back,1,z,Fri Aug 08 2025 13:24:23 GMT-0500 (Central Daylight Time),271405.0,152_y_f_n_a.png,O,z,685,1,1,1710.2000000476837,269694.7999999523,7183,NNB,B,12
13,test,3,0.0,1-Back,1,m,Fri Aug 08 2025 13:24:23 GMT-0500 (Central Daylight Time),273104.2999999523,029_m_f_n_a.png,O,m,675,1,1,1692.5,271411.7999999523,7183,NNB,B,13
14,test,3,0.0,1-Back,1,m,Fri Aug 08 2025 13:24:23 GMT-0500 (Central Daylight Time),274838.2999999523,126_m_m_n_a.png,O,m,712,1,1,1728.1999998092651,273110.10000014305,7183,NNB,B,14
15,test,3,1.0,1-Back,1,z,Fri Aug 08 2025 13:24:23 GMT-0500 (Central Daylight Time),276505.60000014305,126_m_m_n_a.png,O,z,637,1,1,1659.6000001430511,274846.0,7183,NNB,B,15
16,test,3,0.0,1-Back,1,m,Fri Aug 08 2025 13:24:23 GMT-0500 (Central Daylight Time),278219.0,086_o_f_n_a.png,O,m,689,1,1,1706.0999999046326,276512.90000009537,7183,NNB,B,16
17,test,3,1.0,1-Back,1,z,Fri Aug 08 2025 13:24:23 GMT-0500 (Central Daylight Time),279802.7999999523,086_o_f_n_a.png,O,z,558,1,1,1577.0,278225.7999999523,7183,NNB,B,17
0,test,4,1.0,1-Back,,,Fri Aug 08 2025 13:24:23 GMT-0500 (Central Daylight Time),279802.7999999523,097_m_f_n_a.png,O,space,2174,1,1,1577.0,278225.7999999523,7183,NNB,B,0
1,test,4,0.0,1-Back,1,m,Fri Aug 08 2025 13:24:23 GMT-0500 (Central Daylight Time),285734.90000009537,065_o_m_n_a.png,O,m,620,2,1,1643.0,284091.90000009537,7183,NNB,B,1
2,test,4,0.0,1-Back,1,m,Fri Aug 08 2025 13:24:23 GMT-0500 (Central Daylight Time),287615.60000014305,097_m_f_n_a.png,O,m,849,3,1,1874.4000000953674,285741.2000000477,7183,NNB,B,2
3,test,4,0.0,1-Back,1,m,Fri Aug 08 2025 13:24:23 GMT-0500 (Central Daylight Time),289182.60000014305,110_o_f_n_a.png,O,m,537,4,1,1564.0,287618.60000014305,7183,NNB,B,3
4,test,4,1.0,1-Back,1,z,Fri Aug 08 2025 13:24:23 GMT-0500 (Central Daylight Time),290866.10000014305,110_o_f_n_a.png,O,z,650,5,1,1677.6000001430511,289188.5,7183,NNB,B,4
5,test,4,0.0,1-Back,1,m,Fri Aug 08 2025 13:24:23 GMT-0500 (Central Daylight Time),292416.0,152_y_f_n_a.png,O,m,518,6,1,1543.0999999046326,290872.90000009537,7183,NNB,B,5
6,test,4,0.0,1-Back,1,m,Fri Aug 08 2025 13:24:23 GMT-0500 (Central Daylight Time),294215.2999999523,153_y_m_n_a.png,O,m,772,7,1,1792.5,292422.7999999523,7183,NNB,B,6
7,test,4,1.0,1-Back,1,z,Fri Aug 08 2025 13:24:23 GMT-0500 (Central Daylight Time),295797.2999999523,153_y_m_n_a.png,O,z,555,8,1,1576.8999998569489,294220.40000009537,7183,NNB,B,7
8,test,4,0.0,1-Back,1,m,Fri Aug 08 2025 13:24:23 GMT-0500 (Central Daylight Time),297481.2999999523,152_y_f_n_a.png,O,m,659,9,1,1676.7999999523163,295804.5,7183,NNB,B,8
9,test,4,0.0,1-Back,1,m,Fri Aug 08 2025 13:24:23 GMT-0500 (Central Daylight Time),299180.2000000477,178_m_m_n_a.png,O,m,672,10,1,1692.7000000476837,297487.5,7183,NNB,B,9
10,test,4,1.0,1-Back,1,z,Fri Aug 08 2025 13:24:23 GMT-0500 (Central Daylight Time),300730.10000014305,178_m_m_n_a.png,O,z,530,11,1,1542.8000001907349,299187.2999999523,7183,NNB,B,10
11,test,4,0.0,1-Back,1,m,Fri Aug 08 2025 13:24:23 GMT-0500 (Central Daylight Time),302311.5,086_o_f_n_a.png,O,m,560,12,1,1574.8999998569489,300736.60000014305,7183,NNB,B,11
12,test,4,0.0,1-Back,1,m,Fri Aug 08 2025 13:24:23 GMT-0500 (Central Daylight Time),304010.2999999523,176_o_m_n_a.png,O,m,673,13,1,1692.0999999046326,302318.2000000477,7183,NNB,B,12
13,test,4,0.0,1-Back,1,m,Fri Aug 08 2025 13:24:23 GMT-0500 (Central Daylight Time),305660.90000009537,086_o_f_n_a.png,O,m,631,14,1,1643.5,304017.40000009537,7183,NNB,B,13
14,test,4,0.0,1-Back,1,m,Fri Aug 08 2025 13:24:23 GMT-0500 (Central Daylight Time),307442.7999999523,173_y_f_n_a.png,O,m,758,15,1,1774.5999999046326,305668.2000000477,7183,NNB,B,14
15,test,4,1.0,1-Back,1,z,Fri Aug 08 2025 13:24:23 GMT-0500 (Central Daylight Time),308992.7999999523,173_y_f_n_a.png,O,z,518,16,1,1543.3999998569489,307449.40000009537,7183,NNB,B,15
16,test,4,0.0,1-Back,1,m,Fri Aug 08 2025 13:24:23 GMT-0500 (Central Daylight Time),310609.2999999523,029_m_f_n_a.png,O,m,592,17,1,1611.5,308997.7999999523,7183,NNB,B,16
17,test,4,1.0,1-Back,1,z,Fri Aug 08 2025 13:24:23 GMT-0500 (Central Daylight Time),312193.10000014305,029_m_f_n_a.png,O,z,553,18,1,1576.5,310616.60000014305,7183,NNB,B,17
0,test,5,1.0,1-Back,,,Fri Aug 08 2025 13:24:23 GMT-0500 (Central Daylight Time),312193.10000014305,176_o_m_n_a.png,O,space,1592,1,1,1576.5,310616.60000014305,7183,NNB,B,0
1,test,5,1.0,1-Back,1,z,Fri Aug 08 2025 13:24:23 GMT-0500 (Central Daylight Time),317507.2999999523,176_o_m_n_a.png,O,z,674,2,1,1692.8999998569489,315814.40000009537,7183,NNB,B,1
2,test,5,0.0,1-Back,1,m,Fri Aug 08 2025 13:24:23 GMT-0500 (Central Daylight Time),319040.2000000477,152_y_f_n_a.png,O,m,500,3,1,1525.5,317514.7000000477,7183,NNB,B,2
3,test,5,0.0,1-Back,1,m,Fri Aug 08 2025 13:24:23 GMT-0500 (Central Daylight Time),320738.0,153_y_m_n_a.png,O,m,674,4,1,1691.0999999046326,319046.90000009537,7183,NNB,B,3
4,test,5,0.0,1-Back,1,m,Fri Aug 08 2025 13:24:23 GMT-0500 (Central Daylight Time),322587.90000009537,152_y_f_n_a.png,O,m,820,5,1,1843.2999999523163,320744.60000014305,7183,NNB,B,4
5,test,5,0.0,1-Back,1,m,Fri Aug 08 2025 13:24:23 GMT-0500 (Central Daylight Time),324221.60000014305,126_m_m_n_a.png,O,m,605,6,1,1627.9000000953674,322593.7000000477,7183,NNB,B,5
6,test,5,1.0,1-Back,1,z,Fri Aug 08 2025 13:24:23 GMT-0500 (Central Daylight Time),325822.5,126_m_m_n_a.png,O,z,565,7,1,1593.7999999523163,324228.7000000477,7183,NNB,B,6
7,test,5,0.0,1-Back,1,m,Fri Aug 08 2025 13:24:23 GMT-0500 (Central Daylight Time),327520.2999999523,173_y_f_n_a.png,O,m,676,8,1,1690.8999998569489,325829.40000009537,7183,NNB,B,7
8,test,5,0.0,1-Back,1,m,Fri Aug 08 2025 13:24:23 GMT-0500 (Central Daylight Time),329187.90000009537,013_y_m_n_a.png,O,m,640,9,1,1660.1000001430511,327527.7999999523,7183,NNB,B,8
9,test,5,0.0,1-Back,1,m,Fri Aug 08 2025 13:24:23 GMT-0500 (Central Daylight Time),331336.2000000477,173_y_f_n_a.png,O,m,1118,10,1,2141.5,329194.7000000477,7183,NNB,B,9
10,test,5,0.0,1-Back,1,m,Fri Aug 08 2025 13:24:23 GMT-0500 (Central Daylight Time),332935.60000014305,086_o_f_n_a.png,O,m,578,11,1,1591.7000000476837,331343.90000009537,7183,NNB,B,10
11,test,5,1.0,1-Back,1,z,Fri Aug 08 2025 13:24:23 GMT-0500 (Central Daylight Time),334620.60000014305,086_o_f_n_a.png,O,z,667,12,1,1678.3000001907349,332942.2999999523,7183,NNB,B,11
12,test,5,0.0,1-Back,1,m,Fri Aug 08 2025 13:24:23 GMT-0500 (Central Daylight Time),336235.10000014305,065_o_m_n_a.png,O,m,599,13,1,1607.8000001907349,334627.2999999523,7183,NNB,B,12
13,test,5,0.0,1-Back,1,m,Fri Aug 08 2025 13:24:23 GMT-0500 (Central Daylight Time),337851.10000014305,097_m_f_n_a.png,O,m,590,14,1,1612.5,336238.60000014305,7183,NNB,B,13
14,test,5,1.0,1-Back,1,z,Fri Aug 08 2025 13:24:23 GMT-0500 (Central Daylight Time),339651.7000000477,097_m_f_n_a.png,O,z,783,15,1,1793.0,337858.7000000477,7183,NNB,B,14
15,test,5,0.0,1-Back,1,m,Fri Aug 08 2025 13:24:23 GMT-0500 (Central Daylight Time),341416.2999999523,065_o_m_n_a.png,O,m,744,16,1,1757.3999998569489,339658.90000009537,7183,NNB,B,15
16,test,5,0.0,1-Back,1,m,Fri Aug 08 2025 13:24:23 GMT-0500 (Central Daylight Time),343382.40000009537,029_m_f_n_a.png,O,m,945,17,1,1960.1000001430511,341422.2999999523,7183,NNB,B,16
17,test,5,0.0,1-Back,1,m,Fri Aug 08 2025 13:24:23 GMT-0500 (Central Daylight Time),345082.7000000477,178_m_m_n_a.png,O,m,683,18,1,1692.2999999523163,343390.40000009537,7183,NNB,B,17
0,prac,1,0.0,2-Back,,,Fri Aug 08 2025 13:24:23 GMT-0500 (Central Daylight Time),345082.7000000477,013_y_m_n_a.png,O,space,8738,1,1,1692.2999999523163,343390.40000009537,7183,NNB,B,0
0,prac,1,0.0,2-Back,,,Fri Aug 08 2025 13:24:23 GMT-0500 (Central Daylight Time),345082.7000000477,029_m_f_n_a.png,O,space,8738,2,1,1692.2999999523163,343390.40000009537,7183,NNB,B,0
1,prac,1,1.0,2-Back,1,m,Fri Aug 08 2025 13:24:23 GMT-0500 (Central Daylight Time),479440.0,065_o_m_n_a.png,O,m,1000,3,1,1858.8999998569489,477581.10000014305,7183,NNB,B,1
1,prac,1,0.0,2-Back,0,m,Fri Aug 08 2025 13:24:23 GMT-0500 (Central Daylight Time),482323.5,086_o_f_n_a.png,O,None,2013,4,1,2875.7000000476837,479447.7999999523,7183,NNB,B,2
1,prac,1,0.0,2-Back,0,z,Fri Aug 08 2025 13:24:23 GMT-0500 (Central Daylight Time),484322.0,065_o_m_n_a.png,O,m,1223,5,1,1990.0,482332.0,7183,NNB,B,3
2,prac,1,1.0,2-Back,1,z,Fri Aug 08 2025 13:24:23 GMT-0500 (Central Daylight Time),485953.7999999523,086_o_f_n_a.png,O,z,847,6,1,1622.8999998569489,484330.90000009537,7183,NNB,B,4
3,prac,1,0.0,2-Back,1,m,Fri Aug 08 2025 13:24:23 GMT-0500 (Central Daylight Time),487871.0,178_m_m_n_a.png,O,m,1045,7,1,1907.2000000476837,485963.7999999523,7183,NNB,B,5
4,prac,1,0.0,2-Back,1,m,Fri Aug 08 2025 13:24:23 GMT-0500 (Central Daylight Time),489620.7000000477,176_o_m_n_a.png,O,m,876,8,1,1740.7000000476837,487880.0,7183,NNB,B,6
5,prac,1,0.0,2-Back,1,m,Fri Aug 08 2025 13:24:23 GMT-0500 (Central Daylight Time),491320.5,173_y_f_n_a.png,O,m,822,9,1,1690.7999999523163,489629.7000000477,7183,NNB,B,7
6,prac,1,1.0,2-Back,1,z,Fri Aug 08 2025 13:24:23 GMT-0500 (Central Daylight Time),493103.40000009537,176_o_m_n_a.png,O,z,993,10,1,1774.4000000953674,491329.0,7183,NNB,B,8
7,prac,1,0.0,2-Back,1,m,Fri Aug 08 2025 13:24:23 GMT-0500 (Central Daylight Time),494901.7000000477,152_y_f_n_a.png,O,m,950,11,1,1790.5,493111.2000000477,7183,NNB,B,9
7,prac,1,0.0,2-Back,0,m,Fri Aug 08 2025 13:24:23 GMT-0500 (Central Daylight Time),496634.5,178_m_m_n_a.png,O,z,963,12,1,1724.2999999523163,494910.2000000477,7183,NNB,B,10
0,test,1,0.0,2-Back,,,Fri Aug 08 2025 13:24:23 GMT-0500 (Central Daylight Time),496634.5,153_y_m_n_a.png,O,space,7699,1,1,1724.2999999523163,494910.2000000477,7183,NNB,B,0
0,test,1,0.0,2-Back,,,Fri Aug 08 2025 13:24:23 GMT-0500 (Central Daylight Time),496634.5,153_y_m_n_a.png,O,space,7699,2,1,1724.2999999523163,494910.2000000477,7183,NNB,B,0
1,test,1,0.0,2-Back,1,m,Fri Aug 08 2025 13:24:23 GMT-0500 (Central Daylight Time),522174.7999999523,086_o_f_n_a.png,O,m,1095,3,1,2113.399999856949,520061.40000009537,7183,NNB,B,1
2,test,1,0.0,2-Back,1,m,Fri Aug 08 2025 13:24:23 GMT-0500 (Central Daylight Time),524555.4000000954,126_m_m_n_a.png,O,m,1363,4,1,2377.5,522177.90000009537,7183,NNB,B,2
2,test,1,1.0,2-Back,0,z,Fri Aug 08 2025 13:24:23 GMT-0500 (Central Daylight Time),527488.0,086_o_f_n_a.png,O,m,1908,5,1,2928.399999856949,524559.600000143,7183,NNB,B,3
3,test,1,0.0,2-Back,1,m,Fri Aug 08 2025 13:24:23 GMT-0500 (Central Daylight Time),529270.4000000954,152_y_f_n_a.png,O,m,759,6,1,1780.0,527490.4000000954,7183,NNB,B,4
4,test,1,0.0,2-Back,1,m,Fri Aug 08 2025 13:24:23 GMT-0500 (Central Daylight Time),531553.4000000954,126_m_m_n_a.png,O,m,1257,7,1,2280.5,529272.9000000954,7183,NNB,B,5
5,test,1,1.0,2-Back,1,z,Fri Aug 08 2025 13:24:23 GMT-0500 (Central Daylight Time),533102.7999999523,152_y_f_n_a.png,O,z,517,8,1,1546.0,531556.7999999523,7183,NNB,B,6
6,test,1,0.0,2-Back,1,m,Fri Aug 08 2025 13:24:23 GMT-0500 (Central Daylight Time),535036.9000000954,013_y_m_n_a.png,O,m,905,9,1,1928.9000000953674,533108.0,7183,NNB,B,7
7,test,1,0.0,2-Back,1,m,Fri Aug 08 2025 13:24:23 GMT-0500 (Central Daylight Time),537035.0,110_o_f_n_a.png,O,m,981,10,1,1994.3999998569489,535040.600000143,7183,NNB,B,8
8,test,1,1.0,2-Back,1,z,Fri Aug 08 2025 13:24:23 GMT-0500 (Central Daylight Time),538900.9000000954,013_y_m_n_a.png,O,z,837,11,1,1863.2999999523163,537037.600000143,7183,NNB,B,9
9,test,1,0.0,2-Back,1,m,Fri Aug 08 2025 13:24:23 GMT-0500 (Central Daylight Time),540750.4000000954,029_m_f_n_a.png,O,m,818,12,1,1846.6000001430511,538903.7999999523,7183,NNB,B,10
10,test,1,0.0,2-Back,1,m,Fri Aug 08 2025 13:24:23 GMT-0500 (Central Daylight Time),543633.0,029_m_f_n_a.png,O,m,1865,13,1,2878.7000000476837,540754.2999999523,7183,NNB,B,11
11,test,1,0.0,2-Back,1,m,Fri Aug 08 2025 13:24:23 GMT-0500 (Central Daylight Time),545815.2999999523,065_o_m_n_a.png,O,m,1151,14,1,2179.2999999523163,543636.0,7183,NNB,B,12
12,test,1,0.0,2-Back,1,m,Fri Aug 08 2025 13:24:23 GMT-0500 (Central Daylight Time),548364.7999999523,110_o_f_n_a.png,O,m,1528,15,1,2546.5999999046326,545818.2000000477,7183,NNB,B,13
13,test,1,1.0,2-Back,1,z,Fri Aug 08 2025 13:24:23 GMT-0500 (Central Daylight Time),550197.2000000477,065_o_m_n_a.png,O,z,811,16,1,1825.5,548371.7000000477,7183,NNB,B,14
14,test,1,0.0,2-Back,1,m,Fri Aug 08 2025 13:24:23 GMT-0500 (Central Daylight Time),551930.100000143,097_m_f_n_a.png,O,m,705,17,1,1728.8000001907349,550201.2999999523,7183,NNB,B,15
15,test,1,0.0,2-Back,1,m,Fri Aug 08 2025 13:24:23 GMT-0500 (Central Daylight Time),554164.0,178_m_m_n_a.png,O,m,1206,18,1,2230.7000000476837,551933.2999999523,7183,NNB,B,16
0,test,2,0.0,2-Back,,,Fri Aug 08 2025 13:24:23 GMT-0500 (Central Daylight Time),554164.0,178_m_m_n_a.png,O,space,1860,1,1,2230.7000000476837,551933.2999999523,7183,NNB,B,0
0,test,2,0.0,2-Back,,,Fri Aug 08 2025 13:24:23 GMT-0500 (Central Daylight Time),554164.0,173_y_f_n_a.png,O,space,1860,2,1,2230.7000000476837,551933.2999999523,7183,NNB,B,0
0,test,2,1.0,2-Back,0,z,Fri Aug 08 2025 13:24:23 GMT-0500 (Central Daylight Time),562760.2000000477,178_m_m_n_a.png,O,m,551,3,1,1580.2000000476837,561180.0,7183,NNB,B,1
1,test,2,0.0,2-Back,1,m,Fri Aug 08 2025 13:24:23 GMT-0500 (Central Daylight Time),565425.7999999523,097_m_f_n_a.png,O,m,1640,4,1,2662.0,562763.7999999523,7183,NNB,B,2
1,test,2,0.0,2-Back,0,m,Fri Aug 08 2025 13:24:23 GMT-0500 (Central Daylight Time),567259.5,173_y_f_n_a.png,O,z,807,5,1,1830.5999999046326,565428.9000000954,7183,NNB,B,3
2,test,2,0.0,2-Back,1,m,Fri Aug 08 2025 13:24:23 GMT-0500 (Central Daylight Time),569091.2999999523,065_o_m_n_a.png,O,m,814,6,1,1829.0999999046326,567262.2000000477,7183,NNB,B,4
3,test,2,0.0,2-Back,1,m,Fri Aug 08 2025 13:24:23 GMT-0500 (Central Daylight Time),570924.4000000954,152_y_f_n_a.png,O,m,813,7,1,1829.7999999523163,569094.600000143,7183,NNB,B,5
4,test,2,1.0,2-Back,1,z,Fri Aug 08 2025 13:24:23 GMT-0500 (Central Daylight Time),572607.5,065_o_m_n_a.png,O,z,659,8,1,1679.5,570928.0,7183,NNB,B,6
5,test,2,0.0,2-Back,1,m,Fri Aug 08 2025 13:24:23 GMT-0500 (Central Daylight Time),574523.600000143,013_y_m_n_a.png,O,m,897,9,1,1913.3000001907349,572610.2999999523,7183,NNB,B,7
5,test,2,0.0,2-Back,0,m,Fri Aug 08 2025 13:24:23 GMT-0500 (Central Daylight Time),577555.2999999523,013_y_m_n_a.png,O,None,2016,10,1,3027.5999999046326,574527.7000000477,7183,NNB,B,8
6,test,2,0.0,2-Back,1,m,Fri Aug 08 2025 13:24:23 GMT-0500 (Central Daylight Time),579422.2000000477,029_m_f_n_a.png,O,m,844,11,1,1863.9000000953674,577558.2999999523,7183,NNB,B,9
6,test,2,0.0,2-Back,0,m,Fri Aug 08 2025 13:24:23 GMT-0500 (Central Daylight Time),581187.600000143,173_y_f_n_a.png,O,z,738,12,1,1762.3000001907349,579425.2999999523,7183,NNB,B,10
7,test,2,1.0,2-Back,1,z,Fri Aug 08 2025 13:24:23 GMT-0500 (Central Daylight Time),583087.9000000954,029_m_f_n_a.png,O,z,876,13,1,1896.7000000476837,581191.2000000477,7183,NNB,B,11
8,test,2,0.0,2-Back,1,m,Fri Aug 08 2025 13:24:23 GMT-0500 (Central Daylight Time),584919.7000000477,176_o_m_n_a.png,O,m,801,14,1,1827.2999999523163,583092.4000000954,7183,NNB,B,12
8,test,2,0.0,2-Back,0,m,Fri Aug 08 2025 13:24:23 GMT-0500 (Central Daylight Time),587303.0,176_o_m_n_a.png,O,z,1361,15,1,2380.2000000476837,584922.7999999523,7183,NNB,B,13
9,test,2,0.0,2-Back,1,m,Fri Aug 08 2025 13:24:23 GMT-0500 (Central Daylight Time),589218.2000000477,110_o_f_n_a.png,O,m,889,16,1,1912.5,587305.7000000477,7183,NNB,B,14
10,test,2,0.0,2-Back,1,m,Fri Aug 08 2025 13:24:23 GMT-0500 (Central Daylight Time),591217.2999999523,126_m_m_n_a.png,O,m,974,17,1,1996.5,589220.7999999523,7183,NNB,B,15
11,test,2,1.0,2-Back,1,z,Fri Aug 08 2025 13:24:23 GMT-0500 (Central Daylight Time),592836.100000143,110_o_f_n_a.png,O,z,597,18,1,1616.3000001907349,591219.7999999523,7183,NNB,B,16
0,test,3,1.0,2-Back,,,Fri Aug 08 2025 13:24:23 GMT-0500 (Central Daylight Time),592836.100000143,153_y_m_n_a.png,O,space,1741,1,1,1616.3000001907349,591219.7999999523,7183,NNB,B,0
0,test,3,1.0,2-Back,,,Fri Aug 08 2025 13:24:23 GMT-0500 (Central Daylight Time),592836.100000143,153_y_m_n_a.png,O,space,1741,2,1,1616.3000001907349,591219.7999999523,7183,NNB,B,0
1,test,3,0.0,2-Back,1,m,Fri Aug 08 2025 13:24:23 GMT-0500 (Central Daylight Time),602048.600000143,110_o_f_n_a.png,O,m,1292,3,1,2313.4000000953674,599735.2000000477,7183,NNB,B,1
2,test,3,0.0,2-Back,1,m,Fri Aug 08 2025 13:24:23 GMT-0500 (Central Daylight Time),603914.4000000954,178_m_m_n_a.png,O,m,849,4,1,1862.2999999523163,602052.100000143,7183,NNB,B,2
3,test,3,1.0,2-Back,1,z,Fri Aug 08 2025 13:24:23 GMT-0500 (Central Daylight Time),605680.5,110_o_f_n_a.png,O,z,744,5,1,1762.7000000476837,603917.7999999523,7183,NNB,B,3
4,test,3,0.0,2-Back,1,m,Fri Aug 08 2025 13:24:23 GMT-0500 (Central Daylight Time),607597.2999999523,013_y_m_n_a.png,O,m,888,6,1,1913.3999998569489,605683.9000000954,7183,NNB,B,4
4,test,3,0.0,2-Back,0,m,Fri Aug 08 2025 13:24:23 GMT-0500 (Central Daylight Time),609578.5,178_m_m_n_a.png,O,z,964,7,1,1975.7000000476837,607602.7999999523,7183,NNB,B,5
5,test,3,1.0,2-Back,1,z,Fri Aug 08 2025 13:24:23 GMT-0500 (Central Daylight Time),611911.100000143,013_y_m_n_a.png,O,z,1301,8,1,2330.100000143051,609581.0,7183,NNB,B,6
6,test,3,0.0,2-Back,1,m,Fri Aug 08 2025 13:24:23 GMT-0500 (Central Daylight Time),613826.9000000954,173_y_f_n_a.png,O,m,896,9,1,1912.5,611914.4000000954,7183,NNB,B,7
7,test,3,0.0,2-Back,1,m,Fri Aug 08 2025 13:24:23 GMT-0500 (Central Daylight Time),615677.600000143,126_m_m_n_a.png,O,m,828,10,1,1846.8000001907349,613830.7999999523,7183,NNB,B,8
8,test,3,1.0,2-Back,1,z,Fri Aug 08 2025 13:24:23 GMT-0500 (Central Daylight Time),617459.4000000954,173_y_f_n_a.png,O,z,761,11,1,1778.0,615681.4000000954,7183,NNB,B,9
9,test,3,1.0,2-Back,1,z,Fri Aug 08 2025 13:24:23 GMT-0500 (Central Daylight Time),619425.7000000477,126_m_m_n_a.png,O,z,950,12,1,1963.2000000476837,617462.5,7183,NNB,B,10
10,test,3,0.0,2-Back,1,m,Fri Aug 08 2025 13:24:23 GMT-0500 (Central Daylight Time),621224.600000143,110_o_f_n_a.png,O,m,773,13,1,1796.5,619428.100000143,7183,NNB,B,11
11,test,3,0.0,2-Back,1,m,Fri Aug 08 2025 13:24:23 GMT-0500 (Central Daylight Time),623140.5,097_m_f_n_a.png,O,m,895,14,1,1913.2999999523163,621227.2000000477,7183,NNB,B,12
12,test,3,0.0,2-Back,1,m,Fri Aug 08 2025 13:24:23 GMT-0500 (Central Daylight Time),625206.7000000477,065_o_m_n_a.png,O,m,1044,15,1,2063.9000000953674,623142.7999999523,7183,NNB,B,13
13,test,3,1.0,2-Back,1,z,Fri Aug 08 2025 13:24:23 GMT-0500 (Central Daylight Time),627123.9000000954,097_m_f_n_a.png,O,z,898,16,1,1912.4000000953674,625211.5,7183,NNB,B,14
14,test,3,0.0,2-Back,1,m,Fri Aug 08 2025 13:24:23 GMT-0500 (Central Daylight Time),629172.600000143,086_o_f_n_a.png,O,m,1030,17,1,2045.3000001907349,627127.2999999523,7183,NNB,B,15
15,test,3,0.0,2-Back,1,m,Fri Aug 08 2025 13:24:23 GMT-0500 (Central Daylight Time),631822.0,086_o_f_n_a.png,O,m,1619,18,1,2646.2999999523163,629175.7000000477,7183,NNB,B,16
0,test,4,0.0,2-Back,,,Fri Aug 08 2025 13:24:23 GMT-0500 (Central Daylight Time),631822.0,176_o_m_n_a.png,O,space,2433,1,1,2646.2999999523163,629175.7000000477,7183,NNB,B,0
0,test,4,0.0,2-Back,,,Fri Aug 08 2025 13:24:23 GMT-0500 (Central Daylight Time),631822.0,152_y_f_n_a.png,O,space,2433,2,1,2646.2999999523163,629175.7000000477,7183,NNB,B,0
0,test,4,1.0,2-Back,0,z,Fri Aug 08 2025 13:24:23 GMT-0500 (Central Daylight Time),641034.9000000954,176_o_m_n_a.png,O,m,530,3,1,1546.7000000476837,639488.2000000477,7183,NNB,B,1
1,test,4,1.0,2-Back,1,z,Fri Aug 08 2025 13:24:23 GMT-0500 (Central Daylight Time),642784.4000000954,152_y_f_n_a.png,O,z,725,4,1,1747.0,641037.4000000954,7183,NNB,B,2
2,test,4,0.0,2-Back,1,m,Fri Aug 08 2025 13:24:23 GMT-0500 (Central Daylight Time),644467.4000000954,110_o_f_n_a.png,O,m,655,5,1,1680.4000000953674,642787.0,7183,NNB,B,3
2,test,4,0.0,2-Back,0,m,Fri Aug 08 2025 13:24:23 GMT-0500 (Central Daylight Time),647333.0,110_o_f_n_a.png,O,z,1845,6,1,2863.0,644470.0,7183,NNB,B,4
3,test,4,0.0,2-Back,1,m,Fri Aug 08 2025 13:24:23 GMT-0500 (Central Daylight Time),649066.5,029_m_f_n_a.png,O,m,715,7,1,1731.0999999046326,647335.4000000954,7183,NNB,B,5
4,test,4,0.0,2-Back,1,m,Fri Aug 08 2025 13:24:23 GMT-0500 (Central Daylight Time),650832.2000000477,013_y_m_n_a.png,O,m,741,8,1,1763.5,649068.7000000477,7183,NNB,B,6
5,test,4,1.0,2-Back,1,z,Fri Aug 08 2025 13:24:23 GMT-0500 (Central Daylight Time),652615.100000143,029_m_f_n_a.png,O,z,760,9,1,1780.4000000953674,650834.7000000477,7183,NNB,B,7
6,test,4,0.0,2-Back,1,m,Fri Aug 08 2025 13:24:23 GMT-0500 (Central Daylight Time),654380.5,126_m_m_n_a.png,O,m,737,10,1,1763.0,652617.5,7183,NNB,B,8
7,test,4,0.0,2-Back,1,m,Fri Aug 08 2025 13:24:23 GMT-0500 (Central Daylight Time),656313.4000000954,013_y_m_n_a.png,O,m,916,11,1,1930.0,654383.4000000954,7183,NNB,B,9
8,test,4,0.0,2-Back,1,m,Fri Aug 08 2025 13:24:23 GMT-0500 (Central Daylight Time),658330.4000000954,086_o_f_n_a.png,O,m,1000,12,1,2014.2999999523163,656316.100000143,7183,NNB,B,10
9,test,4,0.0,2-Back,1,m,Fri Aug 08 2025 13:24:23 GMT-0500 (Central Daylight Time),660162.2000000477,153_y_m_n_a.png,O,m,807,13,1,1828.5999999046326,658333.600000143,7183,NNB,B,11
10,test,4,1.0,2-Back,1,z,Fri Aug 08 2025 13:24:23 GMT-0500 (Central Daylight Time),661845.9000000954,086_o_f_n_a.png,O,z,653,14,1,1681.1000001430511,660164.7999999523,7183,NNB,B,12
11,test,4,1.0,2-Back,1,z,Fri Aug 08 2025 13:24:23 GMT-0500 (Central Daylight Time),663794.7000000477,153_y_m_n_a.png,O,z,923,15,1,1944.4000000953674,661850.2999999523,7183,NNB,B,13
12,test,4,0.0,2-Back,1,m,Fri Aug 08 2025 13:24:23 GMT-0500 (Central Daylight Time),665594.0,178_m_m_n_a.png,O,m,781,16,1,1796.7000000476837,663797.2999999523,7183,NNB,B,14
13,test,4,0.0,2-Back,1,m,Fri Aug 08 2025 13:24:23 GMT-0500 (Central Daylight Time),667576.5,097_m_f_n_a.png,O,m,958,17,1,1978.7999999523163,665597.7000000477,7183,NNB,B,15
14,test,4,1.0,2-Back,1,z,Fri Aug 08 2025 13:24:23 GMT-0500 (Central Daylight Time),669425.9000000954,178_m_m_n_a.png,O,z,832,18,1,1846.7000000476837,667579.2000000477,7183,NNB,B,16
0,test,5,1.0,2-Back,,,Fri Aug 08 2025 13:24:23 GMT-0500 (Central Daylight Time),669425.9000000954,153_y_m_n_a.png,O,space,1687,1,1,1846.7000000476837,667579.2000000477,7183,NNB,B,0
0,test,5,1.0,2-Back,,,Fri Aug 08 2025 13:24:23 GMT-0500 (Central Daylight Time),669425.9000000954,097_m_f_n_a.png,O,space,1687,2,1,1846.7000000476837,667579.2000000477,7183,NNB,B,0
0,test,5,1.0,2-Back,0,z,Fri Aug 08 2025 13:24:23 GMT-0500 (Central Daylight Time),677923.2999999523,153_y_m_n_a.png,O,m,739,3,1,1762.3999998569489,676160.9000000954,7183,NNB,B,1
1,test,5,1.0,2-Back,1,z,Fri Aug 08 2025 13:24:23 GMT-0500 (Central Daylight Time),679706.2000000477,097_m_f_n_a.png,O,z,757,4,1,1778.2999999523163,677927.9000000954,7183,NNB,B,2
2,test,5,0.0,2-Back,1,m,Fri Aug 08 2025 13:24:23 GMT-0500 (Central Daylight Time),681455.2000000477,086_o_f_n_a.png,O,m,718,5,1,1745.7000000476837,679709.5,7183,NNB,B,3
2,test,5,0.0,2-Back,0,m,Fri Aug 08 2025 13:24:23 GMT-0500 (Central Daylight Time),683338.7000000477,153_y_m_n_a.png,O,z,856,6,1,1880.5,681458.2000000477,7183,NNB,B,4
3,test,5,0.0,2-Back,1,m,Fri Aug 08 2025 13:24:23 GMT-0500 (Central Daylight Time),685021.0,173_y_f_n_a.png,O,m,662,7,1,1678.7000000476837,683342.2999999523,7183,NNB,B,5
3,test,5,0.0,2-Back,0,m,Fri Aug 08 2025 13:24:23 GMT-0500 (Central Daylight Time),686770.4000000954,086_o_f_n_a.png,O,z,722,8,1,1745.1000001430511,685025.2999999523,7183,NNB,B,6
4,test,5,1.0,2-Back,1,z,Fri Aug 08 2025 13:24:23 GMT-0500 (Central Daylight Time),688720.100000143,173_y_f_n_a.png,O,z,918,9,1,1946.7000000476837,686773.4000000954,7183,NNB,B,7
5,test,5,0.0,2-Back,1,m,Fri Aug 08 2025 13:24:23 GMT-0500 (Central Daylight Time),690403.4000000954,065_o_m_n_a.png,O,m,655,10,1,1679.5,688723.9000000954,7183,NNB,B,8
6,test,5,0.0,2-Back,1,m,Fri Aug 08 2025 13:24:23 GMT-0500 (Central Daylight Time),692235.2000000477,029_m_f_n_a.png,O,m,813,11,1,1829.2999999523163,690405.9000000954,7183,NNB,B,9
7,test,5,0.0,2-Back,1,m,Fri Aug 08 2025 13:24:23 GMT-0500 (Central Daylight Time),694017.7999999523,126_m_m_n_a.png,O,m,765,12,1,1779.8999998569489,692237.9000000954,7183,NNB,B,10
7,test,5,0.0,2-Back,0,m,Fri Aug 08 2025 13:24:23 GMT-0500 (Central Daylight Time),695967.2999999523,065_o_m_n_a.png,O,z,916,13,1,1946.1999998092651,694021.100000143,7183,NNB,B,11
8,test,5,1.0,2-Back,1,z,Fri Aug 08 2025 13:24:23 GMT-0500 (Central Daylight Time),697851.2000000477,126_m_m_n_a.png,O,z,862,14,1,1881.5,695969.7000000477,7183,NNB,B,12
9,test,5,0.0,2-Back,1,m,Fri Aug 08 2025 13:24:23 GMT-0500 (Central Daylight Time),699566.100000143,152_y_f_n_a.png,O,m,685,15,1,1712.2000000476837,697853.9000000954,7183,NNB,B,13
10,test,5,0.0,2-Back,1,m,Fri Aug 08 2025 13:24:23 GMT-0500 (Central Daylight Time),701349.2000000477,176_o_m_n_a.png,O,m,762,16,1,1780.2000000476837,699569.0,7183,NNB,B,14
11,test,5,0.0,2-Back,1,m,Fri Aug 08 2025 13:24:23 GMT-0500 (Central Daylight Time),703131.7999999523,029_m_f_n_a.png,O,m,755,17,1,1779.7999999523163,701352.0,7183,NNB,B,15
12,test,5,1.0,2-Back,1,z,Fri Aug 08 2025 13:24:23 GMT-0500 (Central Daylight Time),704665.5,176_o_m_n_a.png,O,z,501,18,1,1530.5999999046326,703134.9000000954,7183,NNB,B,16
