acc_sum,block,block_c,change,condition,correct,correct_response,datetime,endtime,face,project,response,response_time,row_sel,session_number,start_end,starttime,subject_id,task,task_vers,trial
0,prac,1,,1-Back,,,Mon Aug 11 2025 17:52:28 GMT-0500 (Central Daylight Time),,097_m_f_n_a.png,O,space,5358,1,1,,,7190,NNB,B,0
1,prac,1,0.0,1-Back,1.0,m,Mon Aug 11 2025 17:52:28 GMT-0500 (Central Daylight Time),212693.09999999404,152_y_f_n_a.png,O,m,994,2,1,1854.699999988079,210838.40000000596,7190,NNB,B,1
1,prac,1,1.0,1-Back,0.0,z,Mon Aug 11 2025 17:52:28 GMT-0500 (Central Daylight Time),215476.29999998212,152_y_f_n_a.png,O,None,2005,3,1,2773.7999999821186,212702.5,7190,NNB,B,2
1,prac,1,0.0,1-Back,0.0,m,Mon Aug 11 2025 17:52:28 GMT-0500 (Central Daylight Time),218357.0,176_o_m_n_a.png,O,None,2013,4,1,2873.0,215484.0,7190,NNB,B,3
2,prac,1,0.0,1-Back,1.0,m,Mon Aug 11 2025 17:52:28 GMT-0500 (Central Daylight Time),220239.59999999404,126_m_m_n_a.png,O,m,1091,5,1,1872.300000011921,218367.29999998212,7190,NNB,B,4
2,prac,1,1.0,1-Back,0.0,z,Mon Aug 11 2025 17:52:28 GMT-0500 (Central Daylight Time),221892.0,126_m_m_n_a.png,O,m,859,6,1,1644.0999999940395,220247.90000000596,7190,NNB,B,5
3,prac,1,0.0,1-Back,1.0,m,Mon Aug 11 2025 17:52:28 GMT-0500 (Central Daylight Time),223837.69999998808,086_o_f_n_a.png,O,m,1156,7,1,1936.5,221901.19999998808,7190,NNB,B,6
4,prac,1,0.0,1-Back,1.0,m,Mon Aug 11 2025 17:52:28 GMT-0500 (Central Daylight Time),225637.90000000596,178_m_m_n_a.png,O,m,925,8,1,1792.800000011921,223845.09999999404,7190,NNB,B,7
5,prac,1,0.0,1-Back,1.0,m,Mon Aug 11 2025 17:52:28 GMT-0500 (Central Daylight Time),227155.0,097_m_f_n_a.png,O,m,732,9,1,1508.5999999940395,225646.40000000596,7190,NNB,B,8
6,prac,1,1.0,1-Back,1.0,z,Mon Aug 11 2025 17:52:28 GMT-0500 (Central Daylight Time),228388.5,097_m_f_n_a.png,O,z,453,10,1,1224.2000000178814,227164.29999998212,7190,NNB,B,9
7,prac,1,0.0,1-Back,1.0,m,Mon Aug 11 2025 17:52:28 GMT-0500 (Central Daylight Time),229821.09999999404,176_o_m_n_a.png,O,m,643,11,1,1422.0999999940395,228399.0,7190,NNB,B,10
7,prac,1,0.0,1-Back,0.0,m,Mon Aug 11 2025 17:52:28 GMT-0500 (Central Daylight Time),231286.5,173_y_f_n_a.png,O,z,589,12,1,1456.2000000178814,229830.29999998212,7190,NNB,B,11
0,test,1,0.0,1-Back,,,Mon Aug 11 2025 17:52:28 GMT-0500 (Central Daylight Time),231286.5,152_y_f_n_a.png,O,space,8224,1,1,1456.2000000178814,229830.29999998212,7190,NNB,B,0
1,test,1,0.0,1-Back,1.0,m,Mon Aug 11 2025 17:52:28 GMT-0500 (Central Daylight Time),249248.09999999404,029_m_f_n_a.png,O,m,469,2,1,1490.0,247758.09999999404,7190,NNB,B,1
2,test,1,0.0,1-Back,1.0,m,Mon Aug 11 2025 17:52:28 GMT-0500 (Central Daylight Time),250812.90000000596,173_y_f_n_a.png,O,m,547,3,1,1557.300000011921,249255.59999999404,7190,NNB,B,2
3,test,1,1.0,1-Back,1.0,z,Mon Aug 11 2025 17:52:28 GMT-0500 (Central Daylight Time),252295.90000000596,173_y_f_n_a.png,O,z,458,4,1,1475.0,250820.90000000596,7190,NNB,B,3
4,test,1,0.0,1-Back,1.0,m,Mon Aug 11 2025 17:52:28 GMT-0500 (Central Daylight Time),253729.90000000596,029_m_f_n_a.png,O,m,400,5,1,1431.5,252298.40000000596,7190,NNB,B,4
5,test,1,0.0,1-Back,1.0,m,Mon Aug 11 2025 17:52:28 GMT-0500 (Central Daylight Time),255277.29999998212,176_o_m_n_a.png,O,m,528,6,1,1539.2999999821186,253738.0,7190,NNB,B,5
6,test,1,1.0,1-Back,1.0,z,Mon Aug 11 2025 17:52:28 GMT-0500 (Central Daylight Time),256793.90000000596,176_o_m_n_a.png,O,z,489,7,1,1508.0,255285.90000000596,7190,NNB,B,6
7,test,1,0.0,1-Back,1.0,m,Mon Aug 11 2025 17:52:28 GMT-0500 (Central Daylight Time),258412.0,126_m_m_n_a.png,O,m,584,8,1,1609.7000000178814,256802.29999998212,7190,NNB,B,7
8,test,1,0.0,1-Back,1.0,m,Mon Aug 11 2025 17:52:28 GMT-0500 (Central Daylight Time),259960.29999998212,086_o_f_n_a.png,O,m,519,9,1,1541.5,258418.79999998212,7190,NNB,B,8
9,test,1,0.0,1-Back,1.0,m,Mon Aug 11 2025 17:52:28 GMT-0500 (Central Daylight Time),261476.59999999404,126_m_m_n_a.png,O,m,491,10,1,1510.199999988079,259966.40000000596,7190,NNB,B,9
10,test,1,0.0,1-Back,1.0,m,Mon Aug 11 2025 17:52:28 GMT-0500 (Central Daylight Time),263208.90000000596,153_y_m_n_a.png,O,m,700,11,1,1724.6000000238419,261484.29999998212,7190,NNB,B,10
11,test,1,1.0,1-Back,1.0,z,Mon Aug 11 2025 17:52:28 GMT-0500 (Central Daylight Time),264876.09999999404,153_y_m_n_a.png,O,z,637,12,1,1664.0,263212.09999999404,7190,NNB,B,11
12,test,1,0.0,1-Back,1.0,m,Mon Aug 11 2025 17:52:28 GMT-0500 (Central Daylight Time),266375.1999999881,110_o_f_n_a.png,O,m,469,13,1,1490.7999999821186,264884.40000000596,7190,NNB,B,12
13,test,1,1.0,1-Back,1.0,z,Mon Aug 11 2025 17:52:28 GMT-0500 (Central Daylight Time),268324.40000000596,110_o_f_n_a.png,O,z,924,14,1,1946.6000000238419,266377.7999999821,7190,NNB,B,13
14,test,1,0.0,1-Back,1.0,m,Mon Aug 11 2025 17:52:28 GMT-0500 (Central Daylight Time),270139.7999999821,013_y_m_n_a.png,O,m,790,15,1,1807.0999999940395,268332.6999999881,7190,NNB,B,14
15,test,1,0.0,1-Back,1.0,m,Mon Aug 11 2025 17:52:28 GMT-0500 (Central Daylight Time),271690.09999999404,097_m_f_n_a.png,O,m,520,16,1,1544.0,270146.09999999404,7190,NNB,B,15
16,test,1,0.0,1-Back,1.0,m,Mon Aug 11 2025 17:52:28 GMT-0500 (Central Daylight Time),273475.1999999881,065_o_m_n_a.png,O,m,752,17,1,1781.9000000059605,271693.2999999821,7190,NNB,B,16
17,test,1,0.0,1-Back,1.0,m,Mon Aug 11 2025 17:52:28 GMT-0500 (Central Daylight Time),275254.2999999821,097_m_f_n_a.png,O,m,761,18,1,1771.5999999940395,273482.6999999881,7190,NNB,B,17
0,test,2,0.0,1-Back,,,Mon Aug 11 2025 17:52:28 GMT-0500 (Central Daylight Time),275254.2999999821,126_m_m_n_a.png,O,space,1778,1,1,1771.5999999940395,273482.6999999881,7190,NNB,B,0
1,test,2,0.0,1-Back,1.0,m,Mon Aug 11 2025 17:52:28 GMT-0500 (Central Daylight Time),280652.7999999821,029_m_f_n_a.png,O,m,579,2,1,1593.0999999940395,279059.6999999881,7190,NNB,B,1
2,test,2,1.0,1-Back,1.0,z,Mon Aug 11 2025 17:52:28 GMT-0500 (Central Daylight Time),282053.2999999821,029_m_f_n_a.png,O,z,385,3,1,1392.199999988079,280661.09999999404,7190,NNB,B,2
3,test,2,0.0,1-Back,1.0,m,Mon Aug 11 2025 17:52:28 GMT-0500 (Central Daylight Time),283652.90000000596,126_m_m_n_a.png,O,m,583,4,1,1590.7000000178814,282062.1999999881,7190,NNB,B,3
4,test,2,0.0,1-Back,1.0,m,Mon Aug 11 2025 17:52:28 GMT-0500 (Central Daylight Time),285236.59999999404,153_y_m_n_a.png,O,m,568,5,1,1575.0999999940395,283661.5,7190,NNB,B,4
5,test,2,0.0,1-Back,1.0,m,Mon Aug 11 2025 17:52:28 GMT-0500 (Central Daylight Time),286801.5,152_y_f_n_a.png,O,m,541,6,1,1558.5,285243.0,7190,NNB,B,5
6,test,2,1.0,1-Back,1.0,z,Mon Aug 11 2025 17:52:28 GMT-0500 (Central Daylight Time),288268.1999999881,152_y_f_n_a.png,O,z,434,7,1,1460.199999988079,286808.0,7190,NNB,B,6
7,test,2,0.0,1-Back,1.0,m,Mon Aug 11 2025 17:52:28 GMT-0500 (Central Daylight Time),289767.40000000596,153_y_m_n_a.png,O,m,470,8,1,1490.4000000059605,288277.0,7190,NNB,B,7
8,test,2,0.0,1-Back,1.0,m,Mon Aug 11 2025 17:52:28 GMT-0500 (Central Daylight Time),291351.2999999821,110_o_f_n_a.png,O,m,562,9,1,1576.8999999761581,289774.40000000596,7190,NNB,B,8
9,test,2,0.0,1-Back,1.0,m,Mon Aug 11 2025 17:52:28 GMT-0500 (Central Daylight Time),292950.2999999821,178_m_m_n_a.png,O,m,581,10,1,1593.5,291356.7999999821,7190,NNB,B,9
10,test,2,1.0,1-Back,1.0,z,Mon Aug 11 2025 17:52:28 GMT-0500 (Central Daylight Time),294615.59999999404,178_m_m_n_a.png,O,z,636,11,1,1658.300000011921,292957.2999999821,7190,NNB,B,10
11,test,2,0.0,1-Back,1.0,m,Mon Aug 11 2025 17:52:28 GMT-0500 (Central Daylight Time),296182.40000000596,110_o_f_n_a.png,O,m,545,12,1,1559.0,294623.40000000596,7190,NNB,B,11
12,test,2,0.0,1-Back,1.0,m,Mon Aug 11 2025 17:52:28 GMT-0500 (Central Daylight Time),297898.7999999821,086_o_f_n_a.png,O,m,685,13,1,1709.0999999940395,296189.6999999881,7190,NNB,B,12
13,test,2,0.0,1-Back,1.0,m,Mon Aug 11 2025 17:52:28 GMT-0500 (Central Daylight Time),299532.2999999821,176_o_m_n_a.png,O,m,608,14,1,1625.699999988079,297906.59999999404,7190,NNB,B,13
14,test,2,0.0,1-Back,1.0,m,Mon Aug 11 2025 17:52:28 GMT-0500 (Central Daylight Time),301180.6999999881,065_o_m_n_a.png,O,m,630,15,1,1640.2999999821186,299540.40000000596,7190,NNB,B,14
15,test,2,1.0,1-Back,1.0,z,Mon Aug 11 2025 17:52:28 GMT-0500 (Central Daylight Time),302648.09999999404,065_o_m_n_a.png,O,z,445,16,1,1459.0,301189.09999999404,7190,NNB,B,15
16,test,2,0.0,1-Back,1.0,m,Mon Aug 11 2025 17:52:28 GMT-0500 (Central Daylight Time),304162.90000000596,013_y_m_n_a.png,O,m,484,17,1,1507.0,302655.90000000596,7190,NNB,B,16
17,test,2,1.0,1-Back,1.0,z,Mon Aug 11 2025 17:52:28 GMT-0500 (Central Daylight Time),305894.59999999404,013_y_m_n_a.png,O,z,711,18,1,1724.0999999940395,304170.5,7190,NNB,B,17
0,test,3,1.0,1-Back,,,Mon Aug 11 2025 17:52:28 GMT-0500 (Central Daylight Time),305894.59999999404,173_y_f_n_a.png,O,space,1186,1,1,1724.0999999940395,304170.5,7190,NNB,B,0
1,test,3,0.0,1-Back,1.0,m,Mon Aug 11 2025 17:52:28 GMT-0500 (Central Daylight Time),310794.7999999821,065_o_m_n_a.png,O,m,575,1,1,1590.699999988079,309204.09999999404,7190,NNB,B,1
2,test,3,1.0,1-Back,1.0,z,Mon Aug 11 2025 17:52:28 GMT-0500 (Central Daylight Time),312228.09999999404,065_o_m_n_a.png,O,z,407,1,1,1425.9000000059605,310802.1999999881,7190,NNB,B,2
3,test,3,0.0,1-Back,1.0,m,Mon Aug 11 2025 17:52:28 GMT-0500 (Central Daylight Time),313744.0,097_m_f_n_a.png,O,m,486,1,1,1508.0,312236.0,7190,NNB,B,3
4,test,3,1.0,1-Back,1.0,z,Mon Aug 11 2025 17:52:28 GMT-0500 (Central Daylight Time),315359.5,097_m_f_n_a.png,O,z,594,1,1,1609.0999999940395,313750.40000000596,7190,NNB,B,4
5,test,3,0.0,1-Back,1.0,m,Mon Aug 11 2025 17:52:28 GMT-0500 (Central Daylight Time),316976.5,110_o_f_n_a.png,O,m,593,1,1,1609.0,315367.5,7190,NNB,B,5
6,test,3,0.0,1-Back,1.0,m,Mon Aug 11 2025 17:52:28 GMT-0500 (Central Daylight Time),318775.40000000596,153_y_m_n_a.png,O,m,769,1,1,1792.0,316983.40000000596,7190,NNB,B,6
7,test,3,0.0,1-Back,1.0,m,Mon Aug 11 2025 17:52:28 GMT-0500 (Central Daylight Time),320291.40000000596,110_o_f_n_a.png,O,m,490,1,1,1508.2000000178814,318783.1999999881,7190,NNB,B,7
8,test,3,0.0,1-Back,1.0,m,Mon Aug 11 2025 17:52:28 GMT-0500 (Central Daylight Time),321906.59999999404,013_y_m_n_a.png,O,m,585,1,1,1608.5,320298.09999999404,7190,NNB,B,8
8,test,3,1.0,1-Back,0.0,z,Mon Aug 11 2025 17:52:28 GMT-0500 (Central Daylight Time),323389.90000000596,013_y_m_n_a.png,O,m,451,1,1,1476.6000000238419,321913.2999999821,7190,NNB,B,9
9,test,3,0.0,1-Back,1.0,m,Mon Aug 11 2025 17:52:28 GMT-0500 (Central Daylight Time),325405.5,029_m_f_n_a.png,O,m,995,1,1,2008.800000011921,323396.6999999881,7190,NNB,B,10
10,test,3,0.0,1-Back,1.0,m,Mon Aug 11 2025 17:52:28 GMT-0500 (Central Daylight Time),327338.5,152_y_f_n_a.png,O,m,907,1,1,1928.0,325410.5,7190,NNB,B,11
11,test,3,1.0,1-Back,1.0,z,Mon Aug 11 2025 17:52:28 GMT-0500 (Central Daylight Time),328971.40000000596,152_y_f_n_a.png,O,z,599,1,1,1625.800000011921,327345.59999999404,7190,NNB,B,12
12,test,3,0.0,1-Back,1.0,m,Mon Aug 11 2025 17:52:28 GMT-0500 (Central Daylight Time),330670.7999999821,029_m_f_n_a.png,O,m,678,1,1,1696.699999988079,328974.09999999404,7190,NNB,B,13
13,test,3,0.0,1-Back,1.0,m,Mon Aug 11 2025 17:52:28 GMT-0500 (Central Daylight Time),332620.40000000596,126_m_m_n_a.png,O,m,915,1,1,1944.300000011921,330676.09999999404,7190,NNB,B,14
14,test,3,1.0,1-Back,1.0,z,Mon Aug 11 2025 17:52:28 GMT-0500 (Central Daylight Time),334254.90000000596,126_m_m_n_a.png,O,z,603,1,1,1628.5,332626.40000000596,7190,NNB,B,15
15,test,3,0.0,1-Back,1.0,m,Mon Aug 11 2025 17:52:28 GMT-0500 (Central Daylight Time),335952.90000000596,086_o_f_n_a.png,O,m,668,1,1,1691.9000000059605,334261.0,7190,NNB,B,16
16,test,3,1.0,1-Back,1.0,z,Mon Aug 11 2025 17:52:28 GMT-0500 (Central Daylight Time),337452.40000000596,086_o_f_n_a.png,O,z,465,1,1,1493.1000000238419,335959.2999999821,7190,NNB,B,17
0,test,4,1.0,1-Back,,,Mon Aug 11 2025 17:52:28 GMT-0500 (Central Daylight Time),337452.40000000596,097_m_f_n_a.png,O,space,1134,1,1,1493.1000000238419,335959.2999999821,7190,NNB,B,0
1,test,4,0.0,1-Back,1.0,m,Mon Aug 11 2025 17:52:28 GMT-0500 (Central Daylight Time),342166.6999999881,065_o_m_n_a.png,O,m,442,2,1,1457.7999999821186,340708.90000000596,7190,NNB,B,1
2,test,4,0.0,1-Back,1.0,m,Mon Aug 11 2025 17:52:28 GMT-0500 (Central Daylight Time),343717.40000000596,097_m_f_n_a.png,O,m,516,3,1,1547.1000000238419,342170.2999999821,7190,NNB,B,2
3,test,4,0.0,1-Back,1.0,m,Mon Aug 11 2025 17:52:28 GMT-0500 (Central Daylight Time),345251.09999999404,110_o_f_n_a.png,O,m,510,4,1,1527.0,343724.09999999404,7190,NNB,B,3
4,test,4,1.0,1-Back,1.0,z,Mon Aug 11 2025 17:52:28 GMT-0500 (Central Daylight Time),346666.40000000596,110_o_f_n_a.png,O,z,384,5,1,1407.1000000238419,345259.2999999821,7190,NNB,B,4
5,test,4,0.0,1-Back,1.0,m,Mon Aug 11 2025 17:52:28 GMT-0500 (Central Daylight Time),348147.59999999404,152_y_f_n_a.png,O,m,455,6,1,1474.300000011921,346673.2999999821,7190,NNB,B,5
6,test,4,0.0,1-Back,1.0,m,Mon Aug 11 2025 17:52:28 GMT-0500 (Central Daylight Time),349648.1999999881,153_y_m_n_a.png,O,m,477,7,1,1494.7999999821186,348153.40000000596,7190,NNB,B,6
7,test,4,1.0,1-Back,1.0,z,Mon Aug 11 2025 17:52:28 GMT-0500 (Central Daylight Time),351280.6999999881,153_y_m_n_a.png,O,z,607,8,1,1626.2999999821186,349654.40000000596,7190,NNB,B,7
8,test,4,0.0,1-Back,1.0,m,Mon Aug 11 2025 17:52:28 GMT-0500 (Central Daylight Time),352780.59999999404,152_y_f_n_a.png,O,m,474,9,1,1492.9000000059605,351287.6999999881,7190,NNB,B,8
9,test,4,0.0,1-Back,1.0,m,Mon Aug 11 2025 17:52:28 GMT-0500 (Central Daylight Time),354297.2999999821,178_m_m_n_a.png,O,m,495,10,1,1508.5,352788.7999999821,7190,NNB,B,9
9,test,4,1.0,1-Back,0.0,z,Mon Aug 11 2025 17:52:28 GMT-0500 (Central Daylight Time),355862.5,178_m_m_n_a.png,O,m,543,11,1,1558.5,354304.0,7190,NNB,B,10
10,test,4,0.0,1-Back,1.0,m,Mon Aug 11 2025 17:52:28 GMT-0500 (Central Daylight Time),357494.7999999821,086_o_f_n_a.png,O,m,611,12,1,1625.699999988079,355869.09999999404,7190,NNB,B,11
11,test,4,0.0,1-Back,1.0,m,Mon Aug 11 2025 17:52:28 GMT-0500 (Central Daylight Time),359245.59999999404,176_o_m_n_a.png,O,m,729,13,1,1743.9000000059605,357501.6999999881,7190,NNB,B,12
12,test,4,0.0,1-Back,1.0,m,Mon Aug 11 2025 17:52:28 GMT-0500 (Central Daylight Time),360829.7999999821,086_o_f_n_a.png,O,m,568,14,1,1575.8999999761581,359253.90000000596,7190,NNB,B,13
13,test,4,0.0,1-Back,1.0,m,Mon Aug 11 2025 17:52:28 GMT-0500 (Central Daylight Time),362477.5,173_y_f_n_a.png,O,m,621,15,1,1642.9000000059605,360834.59999999404,7190,NNB,B,14
14,test,4,1.0,1-Back,1.0,z,Mon Aug 11 2025 17:52:28 GMT-0500 (Central Daylight Time),363928.1999999881,173_y_f_n_a.png,O,z,428,16,1,1445.0,362483.1999999881,7190,NNB,B,15
15,test,4,0.0,1-Back,1.0,m,Mon Aug 11 2025 17:52:28 GMT-0500 (Central Daylight Time),365425.90000000596,029_m_f_n_a.png,O,m,467,17,1,1489.1000000238419,363936.7999999821,7190,NNB,B,16
16,test,4,1.0,1-Back,1.0,z,Mon Aug 11 2025 17:52:28 GMT-0500 (Central Daylight Time),366860.1999999881,029_m_f_n_a.png,O,z,402,18,1,1428.0,365432.1999999881,7190,NNB,B,17
0,test,5,1.0,1-Back,,,Mon Aug 11 2025 17:52:28 GMT-0500 (Central Daylight Time),366860.1999999881,176_o_m_n_a.png,O,space,1022,1,1,1428.0,365432.1999999881,7190,NNB,B,0
1,test,5,1.0,1-Back,1.0,z,Mon Aug 11 2025 17:52:28 GMT-0500 (Central Daylight Time),371874.40000000596,176_o_m_n_a.png,O,z,939,2,1,1959.2000000178814,369915.1999999881,7190,NNB,B,1
2,test,5,0.0,1-Back,1.0,m,Mon Aug 11 2025 17:52:28 GMT-0500 (Central Daylight Time),373373.90000000596,152_y_f_n_a.png,O,m,478,3,1,1492.4000000059605,371881.5,7190,NNB,B,2
3,test,5,0.0,1-Back,1.0,m,Mon Aug 11 2025 17:52:28 GMT-0500 (Central Daylight Time),374924.6999999881,153_y_m_n_a.png,O,m,518,4,1,1543.2999999821186,373381.40000000596,7190,NNB,B,3
4,test,5,0.0,1-Back,1.0,m,Mon Aug 11 2025 17:52:28 GMT-0500 (Central Daylight Time),376540.09999999404,152_y_f_n_a.png,O,m,590,5,1,1606.5,374933.59999999404,7190,NNB,B,4
5,test,5,0.0,1-Back,1.0,m,Mon Aug 11 2025 17:52:28 GMT-0500 (Central Daylight Time),378288.90000000596,126_m_m_n_a.png,O,m,727,6,1,1740.0,376548.90000000596,7190,NNB,B,5
6,test,5,1.0,1-Back,1.0,z,Mon Aug 11 2025 17:52:28 GMT-0500 (Central Daylight Time),379738.2999999821,126_m_m_n_a.png,O,z,419,7,1,1442.699999988079,378295.59999999404,7190,NNB,B,6
7,test,5,0.0,1-Back,1.0,m,Mon Aug 11 2025 17:52:28 GMT-0500 (Central Daylight Time),381220.7999999821,173_y_f_n_a.png,O,m,463,8,1,1475.7999999821186,379745.0,7190,NNB,B,7
8,test,5,0.0,1-Back,1.0,m,Mon Aug 11 2025 17:52:28 GMT-0500 (Central Daylight Time),382836.5,013_y_m_n_a.png,O,m,586,9,1,1607.5,381229.0,7190,NNB,B,8
8,test,5,0.0,1-Back,0.0,m,Mon Aug 11 2025 17:52:28 GMT-0500 (Central Daylight Time),384754.5,173_y_f_n_a.png,O,z,892,10,1,1915.5999999940395,382838.90000000596,7190,NNB,B,9
9,test,5,0.0,1-Back,1.0,m,Mon Aug 11 2025 17:52:28 GMT-0500 (Central Daylight Time),386385.90000000596,086_o_f_n_a.png,O,m,600,11,1,1623.5,384762.40000000596,7190,NNB,B,10
10,test,5,1.0,1-Back,1.0,z,Mon Aug 11 2025 17:52:28 GMT-0500 (Central Daylight Time),387868.7999999821,086_o_f_n_a.png,O,z,463,12,1,1480.0,386388.7999999821,7190,NNB,B,11
11,test,5,0.0,1-Back,1.0,m,Mon Aug 11 2025 17:52:28 GMT-0500 (Central Daylight Time),389352.7999999821,065_o_m_n_a.png,O,m,452,13,1,1475.8999999761581,387876.90000000596,7190,NNB,B,12
11,test,5,0.0,1-Back,0.0,m,Mon Aug 11 2025 17:52:28 GMT-0500 (Central Daylight Time),390884.5,097_m_f_n_a.png,O,z,505,14,1,1524.7000000178814,389359.7999999821,7190,NNB,B,13
11,test,5,1.0,1-Back,0.0,z,Mon Aug 11 2025 17:52:28 GMT-0500 (Central Daylight Time),393333.7999999821,097_m_f_n_a.png,O,m,1420,15,1,2442.399999976158,390891.40000000596,7190,NNB,B,14
12,test,5,0.0,1-Back,1.0,m,Mon Aug 11 2025 17:52:28 GMT-0500 (Central Daylight Time),395033.09999999404,065_o_m_n_a.png,O,m,674,16,1,1692.199999988079,393340.90000000596,7190,NNB,B,15
13,test,5,0.0,1-Back,1.0,m,Mon Aug 11 2025 17:52:28 GMT-0500 (Central Daylight Time),396766.1999999881,029_m_f_n_a.png,O,m,703,17,1,1729.2999999821186,395036.90000000596,7190,NNB,B,16
14,test,5,0.0,1-Back,1.0,m,Mon Aug 11 2025 17:52:28 GMT-0500 (Central Daylight Time),398565.5,178_m_m_n_a.png,O,m,771,18,1,1791.9000000059605,396773.59999999404,7190,NNB,B,17
0,prac,1,0.0,2-Back,,,Mon Aug 11 2025 17:52:28 GMT-0500 (Central Daylight Time),398565.5,013_y_m_n_a.png,O,space,7423,1,1,1791.9000000059605,396773.59999999404,7190,NNB,B,0
0,prac,1,0.0,2-Back,,,Mon Aug 11 2025 17:52:28 GMT-0500 (Central Daylight Time),398565.5,029_m_f_n_a.png,O,space,7423,2,1,1791.9000000059605,396773.59999999404,7190,NNB,B,0
1,prac,1,1.0,2-Back,1.0,m,Mon Aug 11 2025 17:52:28 GMT-0500 (Central Daylight Time),503215.59999999404,065_o_m_n_a.png,O,m,1425,3,1,2291.300000011921,500924.2999999821,7190,NNB,B,1
2,prac,1,0.0,2-Back,1.0,m,Mon Aug 11 2025 17:52:28 GMT-0500 (Central Daylight Time),505681.5,086_o_f_n_a.png,O,m,1581,4,1,2457.0,503224.5,7190,NNB,B,2
3,prac,1,0.0,2-Back,1.0,z,Mon Aug 11 2025 17:52:28 GMT-0500 (Central Daylight Time),507915.0,065_o_m_n_a.png,O,z,1456,5,1,2225.5,505689.5,7190,NNB,B,3
4,prac,1,1.0,2-Back,1.0,z,Mon Aug 11 2025 17:52:28 GMT-0500 (Central Daylight Time),509847.90000000596,086_o_f_n_a.png,O,z,1142,6,1,1924.5,507923.40000000596,7190,NNB,B,4
5,prac,1,0.0,2-Back,1.0,m,Mon Aug 11 2025 17:52:28 GMT-0500 (Central Daylight Time),511612.7999999821,178_m_m_n_a.png,O,m,891,7,1,1759.699999988079,509853.09999999404,7190,NNB,B,5
6,prac,1,0.0,2-Back,1.0,m,Mon Aug 11 2025 17:52:28 GMT-0500 (Central Daylight Time),513228.90000000596,176_o_m_n_a.png,O,m,742,8,1,1607.6000000238419,511621.2999999821,7190,NNB,B,6
7,prac,1,0.0,2-Back,1.0,m,Mon Aug 11 2025 17:52:28 GMT-0500 (Central Daylight Time),515061.7999999821,173_y_f_n_a.png,O,m,966,9,1,1824.5,513237.2999999821,7190,NNB,B,7
8,prac,1,1.0,2-Back,1.0,z,Mon Aug 11 2025 17:52:28 GMT-0500 (Central Daylight Time),517044.09999999404,176_o_m_n_a.png,O,z,1197,10,1,1975.0999999940395,515069.0,7190,NNB,B,8
9,prac,1,0.0,2-Back,1.0,m,Mon Aug 11 2025 17:52:28 GMT-0500 (Central Daylight Time),518876.7999999821,152_y_f_n_a.png,O,m,966,11,1,1824.5,517052.2999999821,7190,NNB,B,9
9,prac,1,0.0,2-Back,0.0,m,Mon Aug 11 2025 17:52:28 GMT-0500 (Central Daylight Time),520860.5,178_m_m_n_a.png,O,z,1196,12,1,1975.800000011921,518884.6999999881,7190,NNB,B,10
0,test,1,0.0,2-Back,,,Mon Aug 11 2025 17:52:28 GMT-0500 (Central Daylight Time),520860.5,153_y_m_n_a.png,O,space,6549,1,1,1975.800000011921,518884.6999999881,7190,NNB,B,0
0,test,1,0.0,2-Back,,,Mon Aug 11 2025 17:52:28 GMT-0500 (Central Daylight Time),520860.5,153_y_m_n_a.png,O,space,6549,2,1,1975.800000011921,518884.6999999881,7190,NNB,B,0
0,test,1,0.0,2-Back,0.0,m,Mon Aug 11 2025 17:52:28 GMT-0500 (Central Daylight Time),541020.2999999821,086_o_f_n_a.png,O,None,2014,3,1,3024.199999988079,537996.099999994,7190,NNB,B,1
0,test,1,0.0,2-Back,0.0,m,Mon Aug 11 2025 17:52:28 GMT-0500 (Central Daylight Time),544054.0,126_m_m_n_a.png,O,None,2017,4,1,3027.5,541026.5,7190,NNB,B,2
1,test,1,1.0,2-Back,1.0,z,Mon Aug 11 2025 17:52:28 GMT-0500 (Central Daylight Time),546035.7999999821,086_o_f_n_a.png,O,z,951,5,1,1974.3999999761581,544061.400000006,7190,NNB,B,3
2,test,1,0.0,2-Back,1.0,m,Mon Aug 11 2025 17:52:28 GMT-0500 (Central Daylight Time),548018.599999994,152_y_f_n_a.png,O,m,955,6,1,1976.4000000059605,546042.1999999881,7190,NNB,B,4
2,test,1,0.0,2-Back,0.0,m,Mon Aug 11 2025 17:52:28 GMT-0500 (Central Daylight Time),549935.0,126_m_m_n_a.png,O,z,894,7,1,1908.800000011921,548026.1999999881,7190,NNB,B,5
2,test,1,1.0,2-Back,0.0,z,Mon Aug 11 2025 17:52:28 GMT-0500 (Central Daylight Time),552967.6999999881,152_y_f_n_a.png,O,None,2017,8,1,3024.9000000059605,549942.7999999821,7190,NNB,B,6
2,test,1,0.0,2-Back,0.0,m,Mon Aug 11 2025 17:52:28 GMT-0500 (Central Daylight Time),555983.6999999881,013_y_m_n_a.png,O,None,2001,9,1,3009.5999999940395,552974.099999994,7190,NNB,B,7
3,test,1,0.0,2-Back,1.0,m,Mon Aug 11 2025 17:52:28 GMT-0500 (Central Daylight Time),557932.1999999881,110_o_f_n_a.png,O,m,916,10,1,1945.4000000059605,555986.7999999821,7190,NNB,B,8
4,test,1,1.0,2-Back,1.0,z,Mon Aug 11 2025 17:52:28 GMT-0500 (Central Daylight Time),559665.7999999821,013_y_m_n_a.png,O,z,699,11,1,1726.7999999821186,557939.0,7190,NNB,B,9
5,test,1,0.0,2-Back,1.0,m,Mon Aug 11 2025 17:52:28 GMT-0500 (Central Daylight Time),561765.6999999881,029_m_f_n_a.png,O,m,1082,12,1,2092.2999999821186,559673.400000006,7190,NNB,B,10
6,test,1,0.0,2-Back,1.0,m,Mon Aug 11 2025 17:52:28 GMT-0500 (Central Daylight Time),564047.2999999821,029_m_f_n_a.png,O,m,1261,13,1,2275.699999988079,561771.599999994,7190,NNB,B,11
7,test,1,0.0,2-Back,1.0,m,Mon Aug 11 2025 17:52:28 GMT-0500 (Central Daylight Time),565963.0,065_o_m_n_a.png,O,m,890,14,1,1911.7000000178814,564051.2999999821,7190,NNB,B,12
8,test,1,0.0,2-Back,1.0,m,Mon Aug 11 2025 17:52:28 GMT-0500 (Central Daylight Time),567811.7999999821,110_o_f_n_a.png,O,m,824,15,1,1840.7999999821186,565971.0,7190,NNB,B,13
9,test,1,1.0,2-Back,1.0,z,Mon Aug 11 2025 17:52:28 GMT-0500 (Central Daylight Time),569660.6999999881,065_o_m_n_a.png,O,z,829,16,1,1841.0999999940395,567819.599999994,7190,NNB,B,14
10,test,1,0.0,2-Back,1.0,m,Mon Aug 11 2025 17:52:28 GMT-0500 (Central Daylight Time),571810.900000006,097_m_f_n_a.png,O,m,1124,17,1,2143.600000023842,569667.2999999821,7190,NNB,B,15
10,test,1,0.0,2-Back,0.0,m,Mon Aug 11 2025 17:52:28 GMT-0500 (Central Daylight Time),574143.599999994,178_m_m_n_a.png,O,z,1301,18,1,2326.0,571817.599999994,7190,NNB,B,16
0,test,2,0.0,2-Back,,,Mon Aug 11 2025 17:52:28 GMT-0500 (Central Daylight Time),574143.599999994,178_m_m_n_a.png,O,space,1483,1,1,2326.0,571817.599999994,7190,NNB,B,0
0,test,2,0.0,2-Back,,,Mon Aug 11 2025 17:52:28 GMT-0500 (Central Daylight Time),574143.599999994,173_y_f_n_a.png,O,space,1483,2,1,2326.0,571817.599999994,7190,NNB,B,0
1,test,2,1.0,2-Back,1.0,z,Mon Aug 11 2025 17:52:28 GMT-0500 (Central Daylight Time),582791.400000006,178_m_m_n_a.png,O,z,1003,3,1,2024.800000011921,580766.599999994,7190,NNB,B,1
2,test,2,0.0,2-Back,1.0,m,Mon Aug 11 2025 17:52:28 GMT-0500 (Central Daylight Time),584790.099999994,097_m_f_n_a.png,O,m,971,4,1,1990.699999988079,582799.400000006,7190,NNB,B,2
2,test,2,0.0,2-Back,0.0,m,Mon Aug 11 2025 17:52:28 GMT-0500 (Central Daylight Time),586374.0,173_y_f_n_a.png,O,z,554,5,1,1574.9000000059605,584799.099999994,7190,NNB,B,3
3,test,2,0.0,2-Back,1.0,m,Mon Aug 11 2025 17:52:28 GMT-0500 (Central Daylight Time),588873.1999999881,065_o_m_n_a.png,O,m,1467,6,1,2491.5999999940395,586381.599999994,7190,NNB,B,4
4,test,2,0.0,2-Back,1.0,m,Mon Aug 11 2025 17:52:28 GMT-0500 (Central Daylight Time),590704.6999999881,152_y_f_n_a.png,O,m,799,7,1,1824.7999999821186,588879.900000006,7190,NNB,B,5
5,test,2,1.0,2-Back,1.0,z,Mon Aug 11 2025 17:52:28 GMT-0500 (Central Daylight Time),592505.900000006,065_o_m_n_a.png,O,z,777,8,1,1793.6000000238419,590712.2999999821,7190,NNB,B,6
6,test,2,0.0,2-Back,1.0,m,Mon Aug 11 2025 17:52:28 GMT-0500 (Central Daylight Time),594869.7999999821,013_y_m_n_a.png,O,m,1345,9,1,2357.5999999940395,592512.1999999881,7190,NNB,B,7
7,test,2,0.0,2-Back,1.0,m,Mon Aug 11 2025 17:52:28 GMT-0500 (Central Daylight Time),597319.2999999821,013_y_m_n_a.png,O,m,1418,10,1,2444.0,594875.2999999821,7190,NNB,B,8
8,test,2,0.0,2-Back,1.0,m,Mon Aug 11 2025 17:52:28 GMT-0500 (Central Daylight Time),600068.599999994,029_m_f_n_a.png,O,m,1731,11,1,2741.0,597327.599999994,7190,NNB,B,9
8,test,2,0.0,2-Back,0.0,m,Mon Aug 11 2025 17:52:28 GMT-0500 (Central Daylight Time),602085.6999999881,173_y_f_n_a.png,O,z,1000,12,1,2005.7999999821186,600079.900000006,7190,NNB,B,10
9,test,2,1.0,2-Back,1.0,z,Mon Aug 11 2025 17:52:28 GMT-0500 (Central Daylight Time),604467.2999999821,029_m_f_n_a.png,O,z,1359,13,1,2375.0,602092.2999999821,7190,NNB,B,11
10,test,2,0.0,2-Back,1.0,m,Mon Aug 11 2025 17:52:28 GMT-0500 (Central Daylight Time),607483.099999994,176_o_m_n_a.png,O,m,1992,14,1,3010.300000011921,604472.7999999821,7190,NNB,B,12
11,test,2,0.0,2-Back,1.0,m,Mon Aug 11 2025 17:52:28 GMT-0500 (Central Daylight Time),609933.400000006,176_o_m_n_a.png,O,m,1419,15,1,2443.800000011921,607489.599999994,7190,NNB,B,13
12,test,2,0.0,2-Back,1.0,m,Mon Aug 11 2025 17:52:28 GMT-0500 (Central Daylight Time),611682.0,110_o_f_n_a.png,O,m,717,16,1,1742.7000000178814,609939.2999999821,7190,NNB,B,14
13,test,2,0.0,2-Back,1.0,m,Mon Aug 11 2025 17:52:28 GMT-0500 (Central Daylight Time),614230.6999999881,126_m_m_n_a.png,O,m,1527,17,1,2540.5999999940395,611690.099999994,7190,NNB,B,15
14,test,2,1.0,2-Back,1.0,z,Mon Aug 11 2025 17:52:28 GMT-0500 (Central Daylight Time),616597.599999994,110_o_f_n_a.png,O,z,1346,18,1,2360.5,614237.099999994,7190,NNB,B,16
0,test,3,1.0,2-Back,,,Mon Aug 11 2025 17:52:28 GMT-0500 (Central Daylight Time),616597.599999994,153_y_m_n_a.png,O,space,1267,1,1,2360.5,614237.099999994,7190,NNB,B,0
0,test,3,1.0,2-Back,,,Mon Aug 11 2025 17:52:28 GMT-0500 (Central Daylight Time),616597.599999994,153_y_m_n_a.png,O,space,1267,2,1,2360.5,614237.099999994,7190,NNB,B,0
1,test,3,0.0,2-Back,1.0,m,Mon Aug 11 2025 17:52:28 GMT-0500 (Central Daylight Time),625144.0,110_o_f_n_a.png,O,m,1111,3,1,2122.7000000178814,623021.2999999821,7190,NNB,B,1
2,test,3,0.0,2-Back,1.0,m,Mon Aug 11 2025 17:52:28 GMT-0500 (Central Daylight Time),627175.0,178_m_m_n_a.png,O,m,1001,4,1,2024.5999999940395,625150.400000006,7190,NNB,B,2
3,test,3,1.0,2-Back,1.0,z,Mon Aug 11 2025 17:52:28 GMT-0500 (Central Daylight Time),629158.599999994,110_o_f_n_a.png,O,z,960,5,1,1980.0,627178.599999994,7190,NNB,B,3
4,test,3,0.0,2-Back,1.0,m,Mon Aug 11 2025 17:52:28 GMT-0500 (Central Daylight Time),631091.599999994,013_y_m_n_a.png,O,m,898,6,1,1927.0999999940395,629164.5,7190,NNB,B,4
4,test,3,0.0,2-Back,0.0,m,Mon Aug 11 2025 17:52:28 GMT-0500 (Central Daylight Time),632924.6999999881,178_m_m_n_a.png,O,z,804,7,1,1824.5,631100.1999999881,7190,NNB,B,5
5,test,3,1.0,2-Back,1.0,z,Mon Aug 11 2025 17:52:28 GMT-0500 (Central Daylight Time),635223.1999999881,013_y_m_n_a.png,O,z,1266,8,1,2291.0999999940395,632932.099999994,7190,NNB,B,6
6,test,3,0.0,2-Back,1.0,m,Mon Aug 11 2025 17:52:28 GMT-0500 (Central Daylight Time),638023.7999999821,173_y_f_n_a.png,O,m,1778,9,1,2791.5,635232.2999999821,7190,NNB,B,7
7,test,3,0.0,2-Back,1.0,m,Mon Aug 11 2025 17:52:28 GMT-0500 (Central Daylight Time),640005.900000006,126_m_m_n_a.png,O,m,953,10,1,1978.0,638027.900000006,7190,NNB,B,8
8,test,3,1.0,2-Back,1.0,z,Mon Aug 11 2025 17:52:28 GMT-0500 (Central Daylight Time),641939.400000006,173_y_f_n_a.png,O,z,901,11,1,1924.1000000238419,640015.2999999821,7190,NNB,B,9
9,test,3,1.0,2-Back,1.0,z,Mon Aug 11 2025 17:52:28 GMT-0500 (Central Daylight Time),644203.099999994,126_m_m_n_a.png,O,z,1237,12,1,2259.300000011921,641943.7999999821,7190,NNB,B,10
10,test,3,0.0,2-Back,1.0,m,Mon Aug 11 2025 17:52:28 GMT-0500 (Central Daylight Time),646489.599999994,110_o_f_n_a.png,O,m,1254,13,1,2279.699999988079,644209.900000006,7190,NNB,B,11
11,test,3,0.0,2-Back,1.0,m,Mon Aug 11 2025 17:52:28 GMT-0500 (Central Daylight Time),648203.1999999881,097_m_f_n_a.png,O,m,686,14,1,1705.7999999821186,646497.400000006,7190,NNB,B,12
12,test,3,0.0,2-Back,1.0,m,Mon Aug 11 2025 17:52:28 GMT-0500 (Central Daylight Time),650286.7999999821,065_o_m_n_a.png,O,m,1065,15,1,2075.0999999940395,648211.6999999881,7190,NNB,B,13
13,test,3,1.0,2-Back,1.0,z,Mon Aug 11 2025 17:52:28 GMT-0500 (Central Daylight Time),652385.6999999881,097_m_f_n_a.png,O,z,1069,16,1,2090.9000000059605,650294.7999999821,7190,NNB,B,14
14,test,3,0.0,2-Back,1.0,m,Mon Aug 11 2025 17:52:28 GMT-0500 (Central Daylight Time),654251.400000006,086_o_f_n_a.png,O,m,834,17,1,1856.6000000238419,652394.7999999821,7190,NNB,B,15
15,test,3,0.0,2-Back,1.0,m,Mon Aug 11 2025 17:52:28 GMT-0500 (Central Daylight Time),656600.6999999881,086_o_f_n_a.png,O,m,1318,18,1,2343.5999999940395,654257.099999994,7190,NNB,B,16
0,test,4,0.0,2-Back,,,Mon Aug 11 2025 17:52:28 GMT-0500 (Central Daylight Time),656600.6999999881,176_o_m_n_a.png,O,space,1375,1,1,2343.5999999940395,654257.099999994,7190,NNB,B,0
0,test,4,0.0,2-Back,,,Mon Aug 11 2025 17:52:28 GMT-0500 (Central Daylight Time),656600.6999999881,152_y_f_n_a.png,O,space,1375,2,1,2343.5999999940395,654257.099999994,7190,NNB,B,0
1,test,4,1.0,2-Back,1.0,z,Mon Aug 11 2025 17:52:28 GMT-0500 (Central Daylight Time),665630.900000006,176_o_m_n_a.png,O,z,1403,3,1,2422.800000011921,663208.099999994,7190,NNB,B,1
2,test,4,1.0,2-Back,1.0,z,Mon Aug 11 2025 17:52:28 GMT-0500 (Central Daylight Time),668261.900000006,152_y_f_n_a.png,O,z,1601,4,1,2624.2000000178814,665637.6999999881,7190,NNB,B,2
3,test,4,0.0,2-Back,1.0,m,Mon Aug 11 2025 17:52:28 GMT-0500 (Central Daylight Time),670195.400000006,110_o_f_n_a.png,O,m,915,5,1,1929.300000011921,668266.099999994,7190,NNB,B,3
4,test,4,0.0,2-Back,1.0,m,Mon Aug 11 2025 17:52:28 GMT-0500 (Central Daylight Time),672211.599999994,110_o_f_n_a.png,O,m,997,6,1,2010.5999999940395,670201.0,7190,NNB,B,4
5,test,4,0.0,2-Back,1.0,m,Mon Aug 11 2025 17:52:28 GMT-0500 (Central Daylight Time),674095.400000006,029_m_f_n_a.png,O,m,854,7,1,1880.300000011921,672215.099999994,7190,NNB,B,5
6,test,4,0.0,2-Back,1.0,m,Mon Aug 11 2025 17:52:28 GMT-0500 (Central Daylight Time),675926.599999994,013_y_m_n_a.png,O,m,810,8,1,1824.0,674102.599999994,7190,NNB,B,6
7,test,4,1.0,2-Back,1.0,z,Mon Aug 11 2025 17:52:28 GMT-0500 (Central Daylight Time),678210.5,029_m_f_n_a.png,O,z,1255,9,1,2277.300000011921,675933.1999999881,7190,NNB,B,7
8,test,4,0.0,2-Back,1.0,m,Mon Aug 11 2025 17:52:28 GMT-0500 (Central Daylight Time),680190.5,126_m_m_n_a.png,O,m,958,10,1,1973.4000000059605,678217.099999994,7190,NNB,B,8
8,test,4,0.0,2-Back,0.0,m,Mon Aug 11 2025 17:52:28 GMT-0500 (Central Daylight Time),681873.2999999821,013_y_m_n_a.png,O,z,658,11,1,1673.5999999940395,680199.6999999881,7190,NNB,B,9
9,test,4,0.0,2-Back,1.0,m,Mon Aug 11 2025 17:52:28 GMT-0500 (Central Daylight Time),683991.599999994,086_o_f_n_a.png,O,m,1093,12,1,2109.5999999940395,681882.0,7190,NNB,B,10
10,test,4,0.0,2-Back,1.0,m,Mon Aug 11 2025 17:52:28 GMT-0500 (Central Daylight Time),685740.7999999821,153_y_m_n_a.png,O,m,720,13,1,1743.0999999940395,683997.6999999881,7190,NNB,B,11
11,test,4,1.0,2-Back,1.0,z,Mon Aug 11 2025 17:52:28 GMT-0500 (Central Daylight Time),687857.099999994,086_o_f_n_a.png,O,z,1092,14,1,2109.199999988079,685747.900000006,7190,NNB,B,12
12,test,4,1.0,2-Back,1.0,z,Mon Aug 11 2025 17:52:28 GMT-0500 (Central Daylight Time),689989.5,153_y_m_n_a.png,O,z,1111,15,1,2127.0,687862.5,7190,NNB,B,13
13,test,4,0.0,2-Back,1.0,m,Mon Aug 11 2025 17:52:28 GMT-0500 (Central Daylight Time),691790.099999994,178_m_m_n_a.png,O,m,770,16,1,1794.199999988079,689995.900000006,7190,NNB,B,14
14,test,4,0.0,2-Back,1.0,m,Mon Aug 11 2025 17:52:28 GMT-0500 (Central Daylight Time),693740.1999999881,097_m_f_n_a.png,O,m,923,17,1,1943.5,691796.6999999881,7190,NNB,B,15
15,test,4,1.0,2-Back,1.0,z,Mon Aug 11 2025 17:52:28 GMT-0500 (Central Daylight Time),695737.7999999821,178_m_m_n_a.png,O,z,974,18,1,1991.3999999761581,693746.400000006,7190,NNB,B,16
0,test,5,1.0,2-Back,,,Mon Aug 11 2025 17:52:28 GMT-0500 (Central Daylight Time),695737.7999999821,153_y_m_n_a.png,O,space,1425,1,1,1991.3999999761581,693746.400000006,7190,NNB,B,0
0,test,5,1.0,2-Back,,,Mon Aug 11 2025 17:52:28 GMT-0500 (Central Daylight Time),695737.7999999821,097_m_f_n_a.png,O,space,1425,2,1,1991.3999999761581,693746.400000006,7190,NNB,B,0
1,test,5,1.0,2-Back,1.0,z,Mon Aug 11 2025 17:52:28 GMT-0500 (Central Daylight Time),704186.0,153_y_m_n_a.png,O,z,933,3,1,1959.2000000178814,702226.7999999821,7190,NNB,B,1
2,test,5,1.0,2-Back,1.0,z,Mon Aug 11 2025 17:52:28 GMT-0500 (Central Daylight Time),706201.6999999881,097_m_f_n_a.png,O,z,984,4,1,2007.5,704194.1999999881,7190,NNB,B,2
3,test,5,0.0,2-Back,1.0,m,Mon Aug 11 2025 17:52:28 GMT-0500 (Central Daylight Time),707986.0,086_o_f_n_a.png,O,m,759,5,1,1779.2000000178814,706206.7999999821,7190,NNB,B,3
4,test,5,0.0,2-Back,1.0,m,Mon Aug 11 2025 17:52:28 GMT-0500 (Central Daylight Time),710017.0,153_y_m_n_a.png,O,m,1000,6,1,2026.9000000059605,707990.099999994,7190,NNB,B,4
5,test,5,0.0,2-Back,1.0,m,Mon Aug 11 2025 17:52:28 GMT-0500 (Central Daylight Time),711883.5,173_y_f_n_a.png,O,m,837,7,1,1860.4000000059605,710023.099999994,7190,NNB,B,5
5,test,5,0.0,2-Back,0.0,m,Mon Aug 11 2025 17:52:28 GMT-0500 (Central Daylight Time),713815.0,086_o_f_n_a.png,O,z,910,8,1,1924.4000000059605,711890.599999994,7190,NNB,B,6
5,test,5,1.0,2-Back,0.0,z,Mon Aug 11 2025 17:52:28 GMT-0500 (Central Daylight Time),716281.6999999881,173_y_f_n_a.png,O,m,1435,9,1,2459.4000000059605,713822.2999999821,7190,NNB,B,7
6,test,5,0.0,2-Back,1.0,m,Mon Aug 11 2025 17:52:28 GMT-0500 (Central Daylight Time),717980.5,065_o_m_n_a.png,O,m,670,10,1,1692.4000000059605,716288.099999994,7190,NNB,B,8
7,test,5,0.0,2-Back,1.0,m,Mon Aug 11 2025 17:52:28 GMT-0500 (Central Daylight Time),719948.0,029_m_f_n_a.png,O,m,934,11,1,1960.2000000178814,717987.7999999821,7190,NNB,B,9
8,test,5,0.0,2-Back,1.0,m,Mon Aug 11 2025 17:52:28 GMT-0500 (Central Daylight Time),721732.599999994,126_m_m_n_a.png,O,m,759,12,1,1778.0999999940395,719954.5,7190,NNB,B,10
8,test,5,0.0,2-Back,0.0,m,Mon Aug 11 2025 17:52:28 GMT-0500 (Central Daylight Time),723896.7999999821,065_o_m_n_a.png,O,z,1144,13,1,2156.7999999821186,721740.0,7190,NNB,B,11
9,test,5,1.0,2-Back,1.0,z,Mon Aug 11 2025 17:52:28 GMT-0500 (Central Daylight Time),726795.6999999881,126_m_m_n_a.png,O,z,1868,14,1,2892.199999988079,723903.5,7190,NNB,B,12
10,test,5,0.0,2-Back,1.0,m,Mon Aug 11 2025 17:52:28 GMT-0500 (Central Daylight Time),729011.2999999821,152_y_f_n_a.png,O,m,1184,15,1,2208.2999999821186,726803.0,7190,NNB,B,13
11,test,5,0.0,2-Back,1.0,m,Mon Aug 11 2025 17:52:28 GMT-0500 (Central Daylight Time),730777.099999994,176_o_m_n_a.png,O,m,743,16,1,1759.0999999940395,729018.0,7190,NNB,B,14
12,test,5,0.0,2-Back,1.0,m,Mon Aug 11 2025 17:52:28 GMT-0500 (Central Daylight Time),732526.2999999821,029_m_f_n_a.png,O,m,720,17,1,1741.5,730784.7999999821,7190,NNB,B,15
13,test,5,1.0,2-Back,1.0,z,Mon Aug 11 2025 17:52:28 GMT-0500 (Central Daylight Time),734443.400000006,176_o_m_n_a.png,O,z,889,18,1,1908.6000000238419,732534.7999999821,7190,NNB,B,16
