acc_sum,block,block_c,change,condition,correct,correct_response,datetime,endtime,face,project,response,response_time,row_sel,session_number,start_end,starttime,subject_id,task,task_vers,trial
0,prac,1,,1-Back,,,Mon Dec 15 2025 17:34:36 GMT-0600 (Central Standard Time),,097_m_f_n_a.png,I,space,5249,1,3,,,8052,NNB,B,0
1,prac,1,0.0,1-Back,1.0,m,Mon Dec 15 2025 17:34:36 GMT-0600 (Central Standard Time),105328.80000001192,152_y_f_n_a.png,I,m,1117,2,3,1971.6000000238419,103357.19999998808,8052,NNB,B,1
2,prac,1,1.0,1-Back,1.0,z,Mon Dec 15 2025 17:34:36 GMT-0600 (Central Standard Time),106794.80000001192,152_y_f_n_a.png,I,z,680,3,3,1456.800000011921,105338.0,8052,NNB,B,2
3,prac,1,0.0,1-Back,1.0,m,Mon Dec 15 2025 17:34:36 GMT-0600 (Central Standard Time),108327.80000001192,176_o_m_n_a.png,I,m,657,4,3,1523.7000000476837,106804.09999996424,8052,NNB,B,3
3,prac,1,0.0,1-Back,0.0,m,Mon Dec 15 2025 17:34:36 GMT-0600 (Central Standard Time),109743.89999997616,126_m_m_n_a.png,I,z,635,5,3,1408.800000011921,108335.09999996424,8052,NNB,B,4
3,prac,1,1.0,1-Back,0.0,z,Mon Dec 15 2025 17:34:36 GMT-0600 (Central Standard Time),111327.80000001192,126_m_m_n_a.png,I,m,793,6,3,1574.9000000357628,109752.89999997616,8052,NNB,B,5
3,prac,1,0.0,1-Back,0.0,m,Mon Dec 15 2025 17:34:36 GMT-0600 (Central Standard Time),113159.5,086_o_f_n_a.png,I,z,1040,7,3,1822.4000000357628,111337.09999996424,8052,NNB,B,6
3,prac,1,0.0,1-Back,0.0,m,Mon Dec 15 2025 17:34:36 GMT-0600 (Central Standard Time),114975.19999998808,178_m_m_n_a.png,I,z,943,8,3,1806.800000011921,113168.39999997616,8052,NNB,B,7
3,prac,1,0.0,1-Back,0.0,m,Mon Dec 15 2025 17:34:36 GMT-0600 (Central Standard Time),117757.69999998808,097_m_f_n_a.png,I,None,2007,9,3,2773.0,114984.69999998808,8052,NNB,B,8
3,prac,1,1.0,1-Back,0.0,z,Mon Dec 15 2025 17:34:36 GMT-0600 (Central Standard Time),120540.5,097_m_f_n_a.png,I,None,2009,10,3,2775.600000023842,117764.89999997616,8052,NNB,B,9
4,prac,1,0.0,1-Back,1.0,m,Mon Dec 15 2025 17:34:36 GMT-0600 (Central Standard Time),122506.59999996424,176_o_m_n_a.png,I,m,1180,11,3,1957.0,120549.59999996424,8052,NNB,B,10
5,prac,1,0.0,1-Back,1.0,m,Mon Dec 15 2025 17:34:36 GMT-0600 (Central Standard Time),124122.69999998808,173_y_f_n_a.png,I,m,761,12,3,1607.1000000238419,122515.59999996424,8052,NNB,B,11
0,prac,2,0.0,1-Back,,,Mon Dec 15 2025 17:34:36 GMT-0600 (Central Standard Time),124122.69999998808,097_m_f_n_a.png,I,a,2963,1,3,1607.1000000238419,122515.59999996424,8052,NNB,B,0
1,prac,2,0.0,1-Back,1.0,m,Mon Dec 15 2025 17:34:36 GMT-0600 (Central Standard Time),132036.89999997616,152_y_f_n_a.png,I,m,1042,2,3,1890.800000011921,130146.09999996424,8052,NNB,B,1
2,prac,2,1.0,1-Back,1.0,z,Mon Dec 15 2025 17:34:36 GMT-0600 (Central Standard Time),133602.89999997616,152_y_f_n_a.png,I,z,781,3,3,1559.3999999761581,132043.5,8052,NNB,B,2
3,prac,2,0.0,1-Back,1.0,m,Mon Dec 15 2025 17:34:36 GMT-0600 (Central Standard Time),135103.89999997616,176_o_m_n_a.png,I,m,710,4,3,1492.199999988079,133611.69999998808,8052,NNB,B,3
4,prac,2,0.0,1-Back,1.0,m,Mon Dec 15 2025 17:34:36 GMT-0600 (Central Standard Time),136835.30000001192,126_m_m_n_a.png,I,m,867,5,3,1724.7000000476837,135110.59999996424,8052,NNB,B,4
5,prac,2,1.0,1-Back,1.0,z,Mon Dec 15 2025 17:34:36 GMT-0600 (Central Standard Time),138334.89999997616,126_m_m_n_a.png,I,z,710,6,3,1492.800000011921,136842.09999996424,8052,NNB,B,5
6,prac,2,0.0,1-Back,1.0,m,Mon Dec 15 2025 17:34:36 GMT-0600 (Central Standard Time),139984.5,086_o_f_n_a.png,I,m,763,7,3,1641.5,138343.0,8052,NNB,B,6
7,prac,2,0.0,1-Back,1.0,m,Mon Dec 15 2025 17:34:36 GMT-0600 (Central Standard Time),141467.39999997616,178_m_m_n_a.png,I,m,624,8,3,1474.0,139993.39999997616,8052,NNB,B,7
8,prac,2,0.0,1-Back,1.0,m,Mon Dec 15 2025 17:34:36 GMT-0600 (Central Standard Time),143016.80000001192,097_m_f_n_a.png,I,m,765,9,3,1540.300000011921,141476.5,8052,NNB,B,8
9,prac,2,1.0,1-Back,1.0,z,Mon Dec 15 2025 17:34:36 GMT-0600 (Central Standard Time),144449.59999996424,097_m_f_n_a.png,I,z,650,10,3,1425.8999999761581,143023.69999998808,8052,NNB,B,9
10,prac,2,0.0,1-Back,1.0,m,Mon Dec 15 2025 17:34:36 GMT-0600 (Central Standard Time),145866.09999996424,176_o_m_n_a.png,I,m,633,11,3,1409.0999999642372,144457.0,8052,NNB,B,10
11,prac,2,0.0,1-Back,1.0,m,Mon Dec 15 2025 17:34:36 GMT-0600 (Central Standard Time),147399.5,173_y_f_n_a.png,I,m,673,12,3,1524.699999988079,145874.80000001192,8052,NNB,B,11
0,test,1,0.0,1-Back,,,Mon Dec 15 2025 17:34:36 GMT-0600 (Central Standard Time),147399.5,152_y_f_n_a.png,I,space,6315,1,3,1524.699999988079,145874.80000001192,8052,NNB,B,0
1,test,1,0.0,1-Back,1.0,m,Mon Dec 15 2025 17:34:36 GMT-0600 (Central Standard Time),164926.39999997616,029_m_f_n_a.png,I,m,820,2,3,1843.800000011921,163082.59999996424,8052,NNB,B,1
2,test,1,0.0,1-Back,1.0,m,Mon Dec 15 2025 17:34:36 GMT-0600 (Central Standard Time),166659.5,173_y_f_n_a.png,I,m,707,3,3,1726.199999988079,164933.30000001192,8052,NNB,B,2
3,test,1,1.0,1-Back,1.0,z,Mon Dec 15 2025 17:34:36 GMT-0600 (Central Standard Time),168275.5,173_y_f_n_a.png,I,z,590,4,3,1612.4000000357628,166663.09999996424,8052,NNB,B,3
4,test,1,0.0,1-Back,1.0,m,Mon Dec 15 2025 17:34:36 GMT-0600 (Central Standard Time),169941.80000001192,029_m_f_n_a.png,I,m,637,5,3,1660.1000000238419,168281.69999998808,8052,NNB,B,4
5,test,1,0.0,1-Back,1.0,m,Mon Dec 15 2025 17:34:36 GMT-0600 (Central Standard Time),171624.5,176_o_m_n_a.png,I,m,651,6,3,1677.9000000357628,169946.59999996424,8052,NNB,B,5
6,test,1,1.0,1-Back,1.0,z,Mon Dec 15 2025 17:34:36 GMT-0600 (Central Standard Time),173123.89999997616,176_o_m_n_a.png,I,z,473,7,3,1493.699999988079,171630.19999998808,8052,NNB,B,6
7,test,1,0.0,1-Back,1.0,m,Mon Dec 15 2025 17:34:36 GMT-0600 (Central Standard Time),174708.0,126_m_m_n_a.png,I,m,556,8,3,1579.0,173129.0,8052,NNB,B,7
7,test,1,0.0,1-Back,0.0,m,Mon Dec 15 2025 17:34:36 GMT-0600 (Central Standard Time),176306.19999998808,086_o_f_n_a.png,I,z,583,9,3,1593.8999999761581,174712.30000001192,8052,NNB,B,8
8,test,1,0.0,1-Back,1.0,m,Mon Dec 15 2025 17:34:36 GMT-0600 (Central Standard Time),178022.5,126_m_m_n_a.png,I,m,695,10,3,1711.6000000238419,176310.89999997616,8052,NNB,B,9
9,test,1,0.0,1-Back,1.0,m,Mon Dec 15 2025 17:34:36 GMT-0600 (Central Standard Time),179672.09999996424,153_y_m_n_a.png,I,m,627,11,3,1644.5,178027.59999996424,8052,NNB,B,10
10,test,1,1.0,1-Back,1.0,z,Mon Dec 15 2025 17:34:36 GMT-0600 (Central Standard Time),181454.89999997616,153_y_m_n_a.png,I,z,762,12,3,1778.199999988079,179676.69999998808,8052,NNB,B,11
11,test,1,0.0,1-Back,1.0,m,Mon Dec 15 2025 17:34:36 GMT-0600 (Central Standard Time),183104.5,110_o_f_n_a.png,I,m,619,13,3,1644.199999988079,181460.30000001192,8052,NNB,B,12
12,test,1,1.0,1-Back,1.0,z,Mon Dec 15 2025 17:34:36 GMT-0600 (Central Standard Time),184704.59999996424,110_o_f_n_a.png,I,z,577,14,3,1596.2999999523163,183108.30000001192,8052,NNB,B,13
13,test,1,0.0,1-Back,1.0,m,Mon Dec 15 2025 17:34:36 GMT-0600 (Central Standard Time),186219.80000001192,013_y_m_n_a.png,I,m,498,15,3,1509.4000000357628,184710.39999997616,8052,NNB,B,14
13,test,1,0.0,1-Back,0.0,m,Mon Dec 15 2025 17:34:36 GMT-0600 (Central Standard Time),187752.5,097_m_f_n_a.png,I,z,509,16,3,1528.800000011921,186223.69999998808,8052,NNB,B,15
14,test,1,0.0,1-Back,1.0,m,Mon Dec 15 2025 17:34:36 GMT-0600 (Central Standard Time),189902.0,065_o_m_n_a.png,I,m,1121,17,3,2145.199999988079,187756.80000001192,8052,NNB,B,16
15,test,1,0.0,1-Back,1.0,m,Mon Dec 15 2025 17:34:36 GMT-0600 (Central Standard Time),191585.30000001192,097_m_f_n_a.png,I,m,659,18,3,1676.300000011921,189909.0,8052,NNB,B,17
0,test,2,0.0,1-Back,,,Mon Dec 15 2025 17:34:36 GMT-0600 (Central Standard Time),191585.30000001192,126_m_m_n_a.png,I,space,2832,1,3,1676.300000011921,189909.0,8052,NNB,B,0
1,test,2,0.0,1-Back,1.0,m,Mon Dec 15 2025 17:34:36 GMT-0600 (Central Standard Time),198232.69999998808,029_m_f_n_a.png,I,m,750,2,3,1776.300000011921,196456.39999997616,8052,NNB,B,1
2,test,2,1.0,1-Back,1.0,z,Mon Dec 15 2025 17:34:36 GMT-0600 (Central Standard Time),199849.19999998808,029_m_f_n_a.png,I,z,593,3,3,1612.6000000238419,198236.59999996424,8052,NNB,B,2
3,test,2,0.0,1-Back,1.0,m,Mon Dec 15 2025 17:34:36 GMT-0600 (Central Standard Time),201531.80000001192,126_m_m_n_a.png,I,m,664,4,3,1677.4000000357628,199854.39999997616,8052,NNB,B,3
4,test,2,0.0,1-Back,1.0,m,Mon Dec 15 2025 17:34:36 GMT-0600 (Central Standard Time),203264.30000001192,153_y_m_n_a.png,I,m,710,5,3,1728.9000000357628,201535.39999997616,8052,NNB,B,4
5,test,2,0.0,1-Back,1.0,m,Mon Dec 15 2025 17:34:36 GMT-0600 (Central Standard Time),204914.30000001192,152_y_f_n_a.png,I,m,624,6,3,1644.9000000357628,203269.39999997616,8052,NNB,B,5
6,test,2,1.0,1-Back,1.0,z,Mon Dec 15 2025 17:34:36 GMT-0600 (Central Standard Time),206530.30000001192,152_y_f_n_a.png,I,z,591,7,3,1610.0,204920.30000001192,8052,NNB,B,6
7,test,2,0.0,1-Back,1.0,m,Mon Dec 15 2025 17:34:36 GMT-0600 (Central Standard Time),208246.30000001192,153_y_m_n_a.png,I,m,687,8,3,1710.5,206535.80000001192,8052,NNB,B,7
8,test,2,0.0,1-Back,1.0,m,Mon Dec 15 2025 17:34:36 GMT-0600 (Central Standard Time),210045.80000001192,110_o_f_n_a.png,I,m,779,9,3,1795.800000011921,208250.0,8052,NNB,B,8
9,test,2,0.0,1-Back,1.0,m,Mon Dec 15 2025 17:34:36 GMT-0600 (Central Standard Time),211795.19999998808,178_m_m_n_a.png,I,m,724,10,3,1744.1000000238419,210051.09999996424,8052,NNB,B,9
10,test,2,1.0,1-Back,1.0,z,Mon Dec 15 2025 17:34:36 GMT-0600 (Central Standard Time),213391.0,178_m_m_n_a.png,I,z,579,11,3,1590.1000000238419,211800.89999997616,8052,NNB,B,10
11,test,2,0.0,1-Back,1.0,m,Mon Dec 15 2025 17:34:36 GMT-0600 (Central Standard Time),215027.69999998808,110_o_f_n_a.png,I,m,614,12,3,1630.6000000238419,213397.09999996424,8052,NNB,B,11
12,test,2,0.0,1-Back,1.0,m,Mon Dec 15 2025 17:34:36 GMT-0600 (Central Standard Time),216643.39999997616,086_o_f_n_a.png,I,m,598,13,3,1612.199999988079,215031.19999998808,8052,NNB,B,12
13,test,2,0.0,1-Back,1.0,m,Mon Dec 15 2025 17:34:36 GMT-0600 (Central Standard Time),218359.89999997616,176_o_m_n_a.png,I,m,694,14,3,1711.800000011921,216648.09999996424,8052,NNB,B,13
14,test,2,0.0,1-Back,1.0,m,Mon Dec 15 2025 17:34:36 GMT-0600 (Central Standard Time),220092.69999998808,065_o_m_n_a.png,I,m,706,15,3,1727.3999999761581,218365.30000001192,8052,NNB,B,14
15,test,2,1.0,1-Back,1.0,z,Mon Dec 15 2025 17:34:36 GMT-0600 (Central Standard Time),221608.80000001192,065_o_m_n_a.png,I,z,484,16,3,1512.1000000238419,220096.69999998808,8052,NNB,B,15
16,test,2,0.0,1-Back,1.0,m,Mon Dec 15 2025 17:34:36 GMT-0600 (Central Standard Time),223124.80000001192,013_y_m_n_a.png,I,m,487,17,3,1510.800000011921,221614.0,8052,NNB,B,16
17,test,2,1.0,1-Back,1.0,z,Mon Dec 15 2025 17:34:36 GMT-0600 (Central Standard Time),224890.89999997616,013_y_m_n_a.png,I,z,740,18,3,1761.800000011921,223129.09999996424,8052,NNB,B,17
0,test,3,1.0,1-Back,,,Mon Dec 15 2025 17:34:36 GMT-0600 (Central Standard Time),224890.89999997616,173_y_f_n_a.png,I,space,2055,1,3,1761.800000011921,223129.09999996424,8052,NNB,B,0
1,test,3,0.0,1-Back,1.0,m,Mon Dec 15 2025 17:34:36 GMT-0600 (Central Standard Time),230706.0,065_o_m_n_a.png,I,m,625,1,3,1644.300000011921,229061.69999998808,8052,NNB,B,1
2,test,3,1.0,1-Back,1.0,z,Mon Dec 15 2025 17:34:36 GMT-0600 (Central Standard Time),232205.5,065_o_m_n_a.png,I,z,470,1,3,1494.9000000357628,230710.59999996424,8052,NNB,B,2
3,test,3,0.0,1-Back,1.0,m,Mon Dec 15 2025 17:34:36 GMT-0600 (Central Standard Time),233855.0,097_m_f_n_a.png,I,m,620,1,3,1644.4000000357628,232210.59999996424,8052,NNB,B,3
4,test,3,1.0,1-Back,1.0,z,Mon Dec 15 2025 17:34:36 GMT-0600 (Central Standard Time),235337.59999996424,097_m_f_n_a.png,I,z,451,1,3,1478.5,233859.09999996424,8052,NNB,B,4
5,test,3,0.0,1-Back,1.0,m,Mon Dec 15 2025 17:34:36 GMT-0600 (Central Standard Time),237030.69999998808,110_o_f_n_a.png,I,m,529,1,3,1688.300000011921,235342.39999997616,8052,NNB,B,5
6,test,3,0.0,1-Back,1.0,m,Mon Dec 15 2025 17:34:36 GMT-0600 (Central Standard Time),238653.39999997616,153_y_m_n_a.png,I,m,587,1,3,1616.300000011921,237037.09999996424,8052,NNB,B,6
7,test,3,0.0,1-Back,1.0,m,Mon Dec 15 2025 17:34:36 GMT-0600 (Central Standard Time),240236.30000001192,110_o_f_n_a.png,I,m,563,1,3,1577.0,238659.30000001192,8052,NNB,B,7
8,test,3,0.0,1-Back,1.0,m,Mon Dec 15 2025 17:34:36 GMT-0600 (Central Standard Time),241885.80000001192,013_y_m_n_a.png,I,m,629,1,3,1643.300000011921,240242.5,8052,NNB,B,8
9,test,3,1.0,1-Back,1.0,z,Mon Dec 15 2025 17:34:36 GMT-0600 (Central Standard Time),243468.80000001192,013_y_m_n_a.png,I,z,555,1,3,1577.800000011921,241891.0,8052,NNB,B,9
10,test,3,0.0,1-Back,1.0,m,Mon Dec 15 2025 17:34:36 GMT-0600 (Central Standard Time),245001.39999997616,029_m_f_n_a.png,I,m,516,1,3,1528.8999999761581,243472.5,8052,NNB,B,10
11,test,3,0.0,1-Back,1.0,m,Mon Dec 15 2025 17:34:36 GMT-0600 (Central Standard Time),246850.80000001192,152_y_f_n_a.png,I,m,823,1,3,1843.9000000357628,245006.89999997616,8052,NNB,B,11
12,test,3,1.0,1-Back,1.0,z,Mon Dec 15 2025 17:34:36 GMT-0600 (Central Standard Time),248333.80000001192,152_y_f_n_a.png,I,z,453,1,3,1477.300000011921,246856.5,8052,NNB,B,12
13,test,3,0.0,1-Back,1.0,m,Mon Dec 15 2025 17:34:36 GMT-0600 (Central Standard Time),249933.30000001192,029_m_f_n_a.png,I,m,580,1,3,1594.800000011921,248338.5,8052,NNB,B,13
14,test,3,0.0,1-Back,1.0,m,Mon Dec 15 2025 17:34:36 GMT-0600 (Central Standard Time),251649.5,126_m_m_n_a.png,I,m,691,1,3,1710.6000000238419,249938.89999997616,8052,NNB,B,14
15,test,3,1.0,1-Back,1.0,z,Mon Dec 15 2025 17:34:36 GMT-0600 (Central Standard Time),253082.30000001192,126_m_m_n_a.png,I,z,416,1,3,1427.0,251655.30000001192,8052,NNB,B,15
16,test,3,0.0,1-Back,1.0,m,Mon Dec 15 2025 17:34:36 GMT-0600 (Central Standard Time),254715.19999998808,086_o_f_n_a.png,I,m,607,1,3,1628.6000000238419,253086.59999996424,8052,NNB,B,16
17,test,3,1.0,1-Back,1.0,z,Mon Dec 15 2025 17:34:36 GMT-0600 (Central Standard Time),256264.59999996424,086_o_f_n_a.png,I,z,517,1,3,1543.5999999642372,254721.0,8052,NNB,B,17
0,test,4,1.0,1-Back,,,Mon Dec 15 2025 17:34:36 GMT-0600 (Central Standard Time),256264.59999996424,097_m_f_n_a.png,I,space,1649,1,3,1543.5999999642372,254721.0,8052,NNB,B,0
1,test,4,0.0,1-Back,1.0,m,Mon Dec 15 2025 17:34:36 GMT-0600 (Central Standard Time),261663.0,065_o_m_n_a.png,I,m,620,2,3,1643.6000000238419,260019.39999997616,8052,NNB,B,1
2,test,4,0.0,1-Back,1.0,m,Mon Dec 15 2025 17:34:36 GMT-0600 (Central Standard Time),263162.09999996424,097_m_f_n_a.png,I,m,482,3,3,1493.0,261669.09999996424,8052,NNB,B,2
3,test,4,0.0,1-Back,1.0,m,Mon Dec 15 2025 17:34:36 GMT-0600 (Central Standard Time),264745.1999999881,110_o_f_n_a.png,I,m,559,4,3,1579.6000000238419,263165.59999996424,8052,NNB,B,3
4,test,4,1.0,1-Back,1.0,z,Mon Dec 15 2025 17:34:36 GMT-0600 (Central Standard Time),266294.8000000119,110_o_f_n_a.png,I,z,528,5,3,1545.9000000357628,264748.89999997616,8052,NNB,B,4
5,test,4,0.0,1-Back,1.0,m,Mon Dec 15 2025 17:34:36 GMT-0600 (Central Standard Time),267994.1999999881,152_y_f_n_a.png,I,m,675,6,3,1693.5,266300.6999999881,8052,NNB,B,5
6,test,4,0.0,1-Back,1.0,m,Mon Dec 15 2025 17:34:36 GMT-0600 (Central Standard Time),269544.0,153_y_m_n_a.png,I,m,526,7,3,1545.699999988079,267998.3000000119,8052,NNB,B,6
7,test,4,1.0,1-Back,1.0,z,Mon Dec 15 2025 17:34:36 GMT-0600 (Central Standard Time),271077.0,153_y_m_n_a.png,I,z,505,8,3,1527.4000000357628,269549.59999996424,8052,NNB,B,7
8,test,4,0.0,1-Back,1.0,m,Mon Dec 15 2025 17:34:36 GMT-0600 (Central Standard Time),272692.8000000119,152_y_f_n_a.png,I,m,588,9,3,1612.1000000238419,271080.6999999881,8052,NNB,B,8
9,test,4,0.0,1-Back,1.0,m,Mon Dec 15 2025 17:34:36 GMT-0600 (Central Standard Time),274442.39999997616,178_m_m_n_a.png,I,m,725,10,3,1745.0,272697.39999997616,8052,NNB,B,9
10,test,4,1.0,1-Back,1.0,z,Mon Dec 15 2025 17:34:36 GMT-0600 (Central Standard Time),276058.3000000119,178_m_m_n_a.png,I,z,598,11,3,1611.5,274446.8000000119,8052,NNB,B,10
11,test,4,0.0,1-Back,1.0,m,Mon Dec 15 2025 17:34:36 GMT-0600 (Central Standard Time),277691.09999996424,086_o_f_n_a.png,I,m,606,12,3,1627.0,276064.09999996424,8052,NNB,B,11
12,test,4,0.0,1-Back,1.0,m,Mon Dec 15 2025 17:34:36 GMT-0600 (Central Standard Time),279290.6999999881,176_o_m_n_a.png,I,m,574,13,3,1594.8999999761581,277695.8000000119,8052,NNB,B,12
13,test,4,0.0,1-Back,1.0,m,Mon Dec 15 2025 17:34:36 GMT-0600 (Central Standard Time),280790.5,086_o_f_n_a.png,I,m,471,14,3,1495.0,279295.5,8052,NNB,B,13
14,test,4,0.0,1-Back,1.0,m,Mon Dec 15 2025 17:34:36 GMT-0600 (Central Standard Time),282389.59999996424,173_y_f_n_a.png,I,m,579,15,3,1594.5999999642372,280795.0,8052,NNB,B,14
15,test,4,1.0,1-Back,1.0,z,Mon Dec 15 2025 17:34:36 GMT-0600 (Central Standard Time),284052.3000000119,173_y_f_n_a.png,I,z,645,16,3,1659.0,282393.3000000119,8052,NNB,B,15
16,test,4,0.0,1-Back,1.0,m,Mon Dec 15 2025 17:34:36 GMT-0600 (Central Standard Time),285688.59999996424,029_m_f_n_a.png,I,m,601,17,3,1630.5999999642372,284058.0,8052,NNB,B,16
17,test,4,1.0,1-Back,1.0,z,Mon Dec 15 2025 17:34:36 GMT-0600 (Central Standard Time),287271.89999997616,029_m_f_n_a.png,I,z,560,18,3,1578.5,285693.39999997616,8052,NNB,B,17
0,test,5,1.0,1-Back,,,Mon Dec 15 2025 17:34:36 GMT-0600 (Central Standard Time),287271.89999997616,176_o_m_n_a.png,I,space,1690,1,3,1578.5,285693.39999997616,8052,NNB,B,0
1,test,5,1.0,1-Back,1.0,z,Mon Dec 15 2025 17:34:36 GMT-0600 (Central Standard Time),292719.8000000119,176_o_m_n_a.png,I,z,702,2,3,1726.1000000238419,290993.6999999881,8052,NNB,B,1
2,test,5,0.0,1-Back,1.0,m,Mon Dec 15 2025 17:34:36 GMT-0600 (Central Standard Time),294152.8000000119,152_y_f_n_a.png,I,m,400,3,3,1427.300000011921,292725.5,8052,NNB,B,2
3,test,5,0.0,1-Back,1.0,m,Mon Dec 15 2025 17:34:36 GMT-0600 (Central Standard Time),295702.39999997616,153_y_m_n_a.png,I,m,520,4,3,1545.199999988079,294157.1999999881,8052,NNB,B,3
4,test,5,0.0,1-Back,1.0,m,Mon Dec 15 2025 17:34:36 GMT-0600 (Central Standard Time),297201.8000000119,152_y_f_n_a.png,I,m,483,5,3,1495.800000011921,295706.0,8052,NNB,B,4
5,test,5,0.0,1-Back,1.0,m,Mon Dec 15 2025 17:34:36 GMT-0600 (Central Standard Time),298818.3000000119,126_m_m_n_a.png,I,m,583,6,3,1612.300000011921,297206.0,8052,NNB,B,5
6,test,5,1.0,1-Back,1.0,z,Mon Dec 15 2025 17:34:36 GMT-0600 (Central Standard Time),300250.89999997616,126_m_m_n_a.png,I,z,416,7,3,1428.5,298822.39999997616,8052,NNB,B,6
7,test,5,0.0,1-Back,1.0,m,Mon Dec 15 2025 17:34:36 GMT-0600 (Central Standard Time),301800.59999996424,173_y_f_n_a.png,I,m,517,8,3,1545.3999999761581,300255.1999999881,8052,NNB,B,7
7,test,5,0.0,1-Back,0.0,m,Mon Dec 15 2025 17:34:36 GMT-0600 (Central Standard Time),303250.0,013_y_m_n_a.png,I,z,417,9,3,1444.800000011921,301805.1999999881,8052,NNB,B,8
8,test,5,0.0,1-Back,1.0,m,Mon Dec 15 2025 17:34:36 GMT-0600 (Central Standard Time),304899.3000000119,173_y_f_n_a.png,I,m,632,10,3,1645.7000000476837,303253.59999996424,8052,NNB,B,9
9,test,5,0.0,1-Back,1.0,m,Mon Dec 15 2025 17:34:36 GMT-0600 (Central Standard Time),306482.1999999881,086_o_f_n_a.png,I,m,550,11,3,1576.8999999761581,304905.3000000119,8052,NNB,B,10
10,test,5,1.0,1-Back,1.0,z,Mon Dec 15 2025 17:34:36 GMT-0600 (Central Standard Time),308081.8000000119,086_o_f_n_a.png,I,z,461,12,3,1594.7000000476837,306487.09999996424,8052,NNB,B,11
11,test,5,0.0,1-Back,1.0,m,Mon Dec 15 2025 17:34:36 GMT-0600 (Central Standard Time),309681.3000000119,065_o_m_n_a.png,I,m,576,13,3,1596.0,308085.3000000119,8052,NNB,B,12
12,test,5,0.0,1-Back,1.0,m,Mon Dec 15 2025 17:34:36 GMT-0600 (Central Standard Time),311197.3000000119,097_m_f_n_a.png,I,m,496,14,3,1511.800000011921,309685.5,8052,NNB,B,13
13,test,5,1.0,1-Back,1.0,z,Mon Dec 15 2025 17:34:36 GMT-0600 (Central Standard Time),312597.1999999881,097_m_f_n_a.png,I,z,380,15,3,1395.1000000238419,311202.09999996424,8052,NNB,B,14
14,test,5,0.0,1-Back,1.0,m,Mon Dec 15 2025 17:34:36 GMT-0600 (Central Standard Time),314147.0,065_o_m_n_a.png,I,m,524,16,3,1545.300000011921,312601.6999999881,8052,NNB,B,15
15,test,5,0.0,1-Back,1.0,m,Mon Dec 15 2025 17:34:36 GMT-0600 (Central Standard Time),315662.6999999881,029_m_f_n_a.png,I,m,486,17,3,1511.699999988079,314151.0,8052,NNB,B,16
16,test,5,0.0,1-Back,1.0,m,Mon Dec 15 2025 17:34:36 GMT-0600 (Central Standard Time),317178.8000000119,178_m_m_n_a.png,I,m,491,18,3,1511.5,315667.3000000119,8052,NNB,B,17
0,prac,1,0.0,2-Back,,,Mon Dec 15 2025 17:34:36 GMT-0600 (Central Standard Time),317178.8000000119,013_y_m_n_a.png,I,space,3934,1,3,1511.5,315667.3000000119,8052,NNB,B,0
0,prac,1,0.0,2-Back,,,Mon Dec 15 2025 17:34:36 GMT-0600 (Central Standard Time),317178.8000000119,029_m_f_n_a.png,I,space,3934,2,3,1511.5,315667.3000000119,8052,NNB,B,0
1,prac,1,1.0,2-Back,1.0,m,Mon Dec 15 2025 17:34:36 GMT-0600 (Central Standard Time),405934.1999999881,065_o_m_n_a.png,I,m,929,3,3,1792.800000011921,404141.39999997616,8052,NNB,B,1
2,prac,1,0.0,2-Back,1.0,m,Mon Dec 15 2025 17:34:36 GMT-0600 (Central Standard Time),407517.39999997616,086_o_f_n_a.png,I,m,699,4,3,1575.5999999642372,405941.8000000119,8052,NNB,B,2
3,prac,1,0.0,2-Back,1.0,z,Mon Dec 15 2025 17:34:36 GMT-0600 (Central Standard Time),408800.59999996424,065_o_m_n_a.png,I,z,493,5,3,1275.8999999761581,407524.6999999881,8052,NNB,B,3
4,prac,1,1.0,2-Back,1.0,z,Mon Dec 15 2025 17:34:36 GMT-0600 (Central Standard Time),410616.3000000119,086_o_f_n_a.png,I,z,1040,6,3,1806.6000000238419,408809.6999999881,8052,NNB,B,4
5,prac,1,0.0,2-Back,1.0,m,Mon Dec 15 2025 17:34:36 GMT-0600 (Central Standard Time),412166.3000000119,178_m_m_n_a.png,I,m,689,7,3,1543.5,410622.8000000119,8052,NNB,B,5
6,prac,1,0.0,2-Back,1.0,m,Mon Dec 15 2025 17:34:36 GMT-0600 (Central Standard Time),413749.09999996424,176_o_m_n_a.png,I,m,712,8,3,1573.199999988079,412175.89999997616,8052,NNB,B,6
7,prac,1,0.0,2-Back,1.0,m,Mon Dec 15 2025 17:34:36 GMT-0600 (Central Standard Time),415281.1999999881,173_y_f_n_a.png,I,m,671,9,3,1524.8999999761581,413756.3000000119,8052,NNB,B,7
8,prac,1,1.0,2-Back,1.0,z,Mon Dec 15 2025 17:34:36 GMT-0600 (Central Standard Time),417081.09999996424,176_o_m_n_a.png,I,z,1015,10,3,1791.0,415290.09999996424,8052,NNB,B,8
9,prac,1,0.0,2-Back,1.0,m,Mon Dec 15 2025 17:34:36 GMT-0600 (Central Standard Time),418747.1999999881,152_y_f_n_a.png,I,m,810,11,3,1658.3999999761581,417088.8000000119,8052,NNB,B,9
10,prac,1,0.0,2-Back,1.0,m,Mon Dec 15 2025 17:34:36 GMT-0600 (Central Standard Time),420446.8000000119,178_m_m_n_a.png,I,m,911,12,3,1692.1000000238419,418754.6999999881,8052,NNB,B,10
0,test,1,0.0,2-Back,,,Mon Dec 15 2025 17:34:36 GMT-0600 (Central Standard Time),420446.8000000119,153_y_m_n_a.png,I,space,8716,1,3,1692.1000000238419,418754.6999999881,8052,NNB,B,0
0,test,1,0.0,2-Back,,,Mon Dec 15 2025 17:34:36 GMT-0600 (Central Standard Time),420446.8000000119,153_y_m_n_a.png,I,space,8716,2,3,1692.1000000238419,418754.6999999881,8052,NNB,B,0
1,test,1,0.0,2-Back,1.0,m,Mon Dec 15 2025 17:34:36 GMT-0600 (Central Standard Time),442606.5,086_o_f_n_a.png,I,m,662,3,3,1678.300000011921,440928.1999999881,8052,NNB,B,1
2,test,1,0.0,2-Back,1.0,m,Mon Dec 15 2025 17:34:36 GMT-0600 (Central Standard Time),444289.09999996424,126_m_m_n_a.png,I,m,659,4,3,1678.3999999761581,442610.6999999881,8052,NNB,B,2
3,test,1,1.0,2-Back,1.0,z,Mon Dec 15 2025 17:34:36 GMT-0600 (Central Standard Time),445738.6999999881,086_o_f_n_a.png,I,z,424,5,3,1445.699999988079,444293.0,8052,NNB,B,3
4,test,1,0.0,2-Back,1.0,m,Mon Dec 15 2025 17:34:36 GMT-0600 (Central Standard Time),447438.39999997616,152_y_f_n_a.png,I,m,679,6,3,1695.3999999761581,445743.0,8052,NNB,B,4
4,test,1,0.0,2-Back,0.0,m,Mon Dec 15 2025 17:34:36 GMT-0600 (Central Standard Time),449371.1999999881,126_m_m_n_a.png,I,z,907,7,3,1929.300000011921,447441.89999997616,8052,NNB,B,5
5,test,1,1.0,2-Back,1.0,z,Mon Dec 15 2025 17:34:36 GMT-0600 (Central Standard Time),451037.1999999881,152_y_f_n_a.png,I,z,646,8,3,1660.1000000238419,449377.09999996424,8052,NNB,B,6
6,test,1,0.0,2-Back,1.0,m,Mon Dec 15 2025 17:34:36 GMT-0600 (Central Standard Time),452769.6999999881,013_y_m_n_a.png,I,m,701,9,3,1728.800000011921,451040.89999997616,8052,NNB,B,7
7,test,1,0.0,2-Back,1.0,m,Mon Dec 15 2025 17:34:36 GMT-0600 (Central Standard Time),454419.5,110_o_f_n_a.png,I,m,631,10,3,1645.9000000357628,452773.59999996424,8052,NNB,B,8
8,test,1,1.0,2-Back,1.0,z,Mon Dec 15 2025 17:34:36 GMT-0600 (Central Standard Time),455918.89999997616,013_y_m_n_a.png,I,z,478,11,3,1495.199999988079,454423.6999999881,8052,NNB,B,9
9,test,1,0.0,2-Back,1.0,m,Mon Dec 15 2025 17:34:36 GMT-0600 (Central Standard Time),457734.8000000119,029_m_f_n_a.png,I,m,786,12,3,1811.0,455923.8000000119,8052,NNB,B,10
10,test,1,0.0,2-Back,1.0,m,Mon Dec 15 2025 17:34:36 GMT-0600 (Central Standard Time),459817.8000000119,029_m_f_n_a.png,I,m,1050,13,3,2078.400000035763,457739.39999997616,8052,NNB,B,11
11,test,1,0.0,2-Back,1.0,m,Mon Dec 15 2025 17:34:36 GMT-0600 (Central Standard Time),461550.3000000119,065_o_m_n_a.png,I,m,712,14,3,1728.7000000476837,459821.59999996424,8052,NNB,B,12
12,test,1,0.0,2-Back,1.0,m,Mon Dec 15 2025 17:34:36 GMT-0600 (Central Standard Time),463333.3000000119,110_o_f_n_a.png,I,m,763,15,3,1778.5,461554.8000000119,8052,NNB,B,13
13,test,1,1.0,2-Back,1.0,z,Mon Dec 15 2025 17:34:36 GMT-0600 (Central Standard Time),465049.5,065_o_m_n_a.png,I,z,692,16,3,1711.4000000357628,463338.09999996424,8052,NNB,B,14
14,test,1,0.0,2-Back,1.0,m,Mon Dec 15 2025 17:34:36 GMT-0600 (Central Standard Time),466715.3000000119,097_m_f_n_a.png,I,m,648,17,3,1661.9000000357628,465053.39999997616,8052,NNB,B,15
15,test,1,0.0,2-Back,1.0,m,Mon Dec 15 2025 17:34:36 GMT-0600 (Central Standard Time),468481.59999996424,178_m_m_n_a.png,I,m,734,18,3,1762.2999999523163,466719.3000000119,8052,NNB,B,16
0,test,2,0.0,2-Back,,,Mon Dec 15 2025 17:34:36 GMT-0600 (Central Standard Time),468481.59999996424,178_m_m_n_a.png,I,space,3240,1,3,1762.2999999523163,466719.3000000119,8052,NNB,B,0
0,test,2,0.0,2-Back,,,Mon Dec 15 2025 17:34:36 GMT-0600 (Central Standard Time),468481.59999996424,173_y_f_n_a.png,I,space,3240,2,3,1762.2999999523163,466719.3000000119,8052,NNB,B,0
1,test,2,1.0,2-Back,1.0,z,Mon Dec 15 2025 17:34:36 GMT-0600 (Central Standard Time),478428.39999997616,178_m_m_n_a.png,I,z,539,3,3,1562.199999988079,476866.1999999881,8052,NNB,B,1
2,test,2,0.0,2-Back,1.0,m,Mon Dec 15 2025 17:34:36 GMT-0600 (Central Standard Time),480044.59999996424,097_m_f_n_a.png,I,m,597,4,3,1612.3999999761581,478432.1999999881,8052,NNB,B,2
3,test,2,0.0,2-Back,1.0,m,Mon Dec 15 2025 17:34:36 GMT-0600 (Central Standard Time),481860.6999999881,173_y_f_n_a.png,I,m,797,5,3,1811.699999988079,480049.0,8052,NNB,B,3
4,test,2,0.0,2-Back,1.0,m,Mon Dec 15 2025 17:34:36 GMT-0600 (Central Standard Time),483510.3000000119,065_o_m_n_a.png,I,m,629,6,3,1644.7000000476837,481865.59999996424,8052,NNB,B,4
5,test,2,0.0,2-Back,1.0,m,Mon Dec 15 2025 17:34:36 GMT-0600 (Central Standard Time),485176.09999996424,152_y_f_n_a.png,I,m,634,7,3,1659.699999988079,483516.39999997616,8052,NNB,B,5
6,test,2,1.0,2-Back,1.0,z,Mon Dec 15 2025 17:34:36 GMT-0600 (Central Standard Time),486759.39999997616,065_o_m_n_a.png,I,z,553,8,3,1578.3999999761581,485181.0,8052,NNB,B,6
7,test,2,0.0,2-Back,1.0,m,Mon Dec 15 2025 17:34:36 GMT-0600 (Central Standard Time),488325.3000000119,013_y_m_n_a.png,I,m,546,9,3,1561.9000000357628,486763.39999997616,8052,NNB,B,7
8,test,2,0.0,2-Back,1.0,m,Mon Dec 15 2025 17:34:36 GMT-0600 (Central Standard Time),490658.09999996424,013_y_m_n_a.png,I,m,1300,10,3,2329.099999964237,488329.0,8052,NNB,B,8
9,test,2,0.0,2-Back,1.0,m,Mon Dec 15 2025 17:34:36 GMT-0600 (Central Standard Time),492407.89999997616,029_m_f_n_a.png,I,m,720,11,3,1744.5999999642372,490663.3000000119,8052,NNB,B,9
9,test,2,0.0,2-Back,0.0,m,Mon Dec 15 2025 17:34:36 GMT-0600 (Central Standard Time),494057.0,173_y_f_n_a.png,I,z,625,12,3,1644.9000000357628,492412.09999996424,8052,NNB,B,10
10,test,2,1.0,2-Back,1.0,z,Mon Dec 15 2025 17:34:36 GMT-0600 (Central Standard Time),495889.8000000119,029_m_f_n_a.png,I,z,816,13,3,1828.2000000476837,494061.59999996424,8052,NNB,B,11
11,test,2,0.0,2-Back,1.0,m,Mon Dec 15 2025 17:34:36 GMT-0600 (Central Standard Time),497639.0,176_o_m_n_a.png,I,m,727,14,3,1744.300000011921,495894.6999999881,8052,NNB,B,12
12,test,2,0.0,2-Back,1.0,m,Mon Dec 15 2025 17:34:36 GMT-0600 (Central Standard Time),499488.8000000119,176_o_m_n_a.png,I,m,817,15,3,1845.6000000238419,497643.1999999881,8052,NNB,B,13
13,test,2,0.0,2-Back,1.0,m,Mon Dec 15 2025 17:34:36 GMT-0600 (Central Standard Time),501387.89999997616,110_o_f_n_a.png,I,m,881,16,3,1892.5,499495.39999997616,8052,NNB,B,14
14,test,2,0.0,2-Back,1.0,m,Mon Dec 15 2025 17:34:36 GMT-0600 (Central Standard Time),503087.5,126_m_m_n_a.png,I,m,669,17,3,1695.5,501392.0,8052,NNB,B,15
15,test,2,1.0,2-Back,1.0,z,Mon Dec 15 2025 17:34:36 GMT-0600 (Central Standard Time),504720.39999997616,110_o_f_n_a.png,I,z,602,18,3,1629.5,503090.89999997616,8052,NNB,B,16
0,test,3,1.0,2-Back,,,Mon Dec 15 2025 17:34:36 GMT-0600 (Central Standard Time),504720.39999997616,153_y_m_n_a.png,I,space,3425,1,3,1629.5,503090.89999997616,8052,NNB,B,0
0,test,3,1.0,2-Back,,,Mon Dec 15 2025 17:34:36 GMT-0600 (Central Standard Time),504720.39999997616,153_y_m_n_a.png,I,space,3425,2,3,1629.5,503090.89999997616,8052,NNB,B,0
1,test,3,0.0,2-Back,1.0,m,Mon Dec 15 2025 17:34:36 GMT-0600 (Central Standard Time),514884.8000000119,110_o_f_n_a.png,I,m,581,3,3,1590.9000000357628,513293.89999997616,8052,NNB,B,1
2,test,3,0.0,2-Back,1.0,m,Mon Dec 15 2025 17:34:36 GMT-0600 (Central Standard Time),516516.3000000119,178_m_m_n_a.png,I,m,614,4,3,1626.9000000357628,514889.39999997616,8052,NNB,B,2
3,test,3,1.0,2-Back,1.0,z,Mon Dec 15 2025 17:34:36 GMT-0600 (Central Standard Time),517983.09999996424,110_o_f_n_a.png,I,z,445,5,3,1462.699999988079,516520.39999997616,8052,NNB,B,3
4,test,3,0.0,2-Back,1.0,m,Mon Dec 15 2025 17:34:36 GMT-0600 (Central Standard Time),519894.59999996424,013_y_m_n_a.png,I,m,748,6,3,1907.699999988079,517986.89999997616,8052,NNB,B,4
5,test,3,0.0,2-Back,1.0,m,Mon Dec 15 2025 17:34:36 GMT-0600 (Central Standard Time),521998.1999999881,178_m_m_n_a.png,I,m,1070,7,3,2099.100000023842,519899.09999996424,8052,NNB,B,5
6,test,3,1.0,2-Back,1.0,z,Mon Dec 15 2025 17:34:36 GMT-0600 (Central Standard Time),523564.39999997616,013_y_m_n_a.png,I,z,539,8,3,1561.3999999761581,522003.0,8052,NNB,B,6
7,test,3,0.0,2-Back,1.0,m,Mon Dec 15 2025 17:34:36 GMT-0600 (Central Standard Time),525314.3000000119,173_y_f_n_a.png,I,m,733,9,3,1745.7000000476837,523568.59999996424,8052,NNB,B,7
8,test,3,0.0,2-Back,1.0,m,Mon Dec 15 2025 17:34:36 GMT-0600 (Central Standard Time),527230.0999999642,126_m_m_n_a.png,I,m,888,10,3,1911.5999999642372,525318.5,8052,NNB,B,8
8,test,3,1.0,2-Back,0.0,z,Mon Dec 15 2025 17:34:36 GMT-0600 (Central Standard Time),529296.0,173_y_f_n_a.png,I,m,1044,11,3,2061.400000035763,527234.5999999642,8052,NNB,B,9
9,test,3,1.0,2-Back,1.0,z,Mon Dec 15 2025 17:34:36 GMT-0600 (Central Standard Time),531595.3000000119,126_m_m_n_a.png,I,z,1274,12,3,2293.600000023842,529301.6999999881,8052,NNB,B,10
10,test,3,0.0,2-Back,1.0,m,Mon Dec 15 2025 17:34:36 GMT-0600 (Central Standard Time),533329.0999999642,110_o_f_n_a.png,I,m,710,13,3,1729.0,531600.0999999642,8052,NNB,B,11
11,test,3,0.0,2-Back,1.0,m,Mon Dec 15 2025 17:34:36 GMT-0600 (Central Standard Time),535043.8999999762,097_m_f_n_a.png,I,m,688,14,3,1710.199999988079,533333.6999999881,8052,NNB,B,12
12,test,3,0.0,2-Back,1.0,m,Mon Dec 15 2025 17:34:36 GMT-0600 (Central Standard Time),536643.3000000119,065_o_m_n_a.png,I,m,581,15,3,1595.2000000476837,535048.0999999642,8052,NNB,B,13
13,test,3,1.0,2-Back,1.0,z,Mon Dec 15 2025 17:34:36 GMT-0600 (Central Standard Time),538109.8999999762,097_m_f_n_a.png,I,z,445,16,3,1462.199999988079,536647.6999999881,8052,NNB,B,14
14,test,3,0.0,2-Back,1.0,m,Mon Dec 15 2025 17:34:36 GMT-0600 (Central Standard Time),539876.0999999642,086_o_f_n_a.png,I,m,748,17,3,1761.7999999523163,538114.3000000119,8052,NNB,B,15
15,test,3,0.0,2-Back,1.0,m,Mon Dec 15 2025 17:34:36 GMT-0600 (Central Standard Time),541725.1999999881,086_o_f_n_a.png,I,m,829,18,3,1844.5,539880.6999999881,8052,NNB,B,16
0,test,4,0.0,2-Back,,,Mon Dec 15 2025 17:34:36 GMT-0600 (Central Standard Time),541725.1999999881,176_o_m_n_a.png,I,space,3708,1,3,1844.5,539880.6999999881,8052,NNB,B,0
0,test,4,0.0,2-Back,,,Mon Dec 15 2025 17:34:36 GMT-0600 (Central Standard Time),541725.1999999881,152_y_f_n_a.png,I,space,3708,2,3,1844.5,539880.6999999881,8052,NNB,B,0
1,test,4,1.0,2-Back,1.0,z,Mon Dec 15 2025 17:34:36 GMT-0600 (Central Standard Time),552272.0,176_o_m_n_a.png,I,z,586,3,3,1611.699999988079,550660.3000000119,8052,NNB,B,1
2,test,4,1.0,2-Back,1.0,z,Mon Dec 15 2025 17:34:36 GMT-0600 (Central Standard Time),553754.6999999881,152_y_f_n_a.png,I,z,456,4,3,1478.0,552276.6999999881,8052,NNB,B,2
3,test,4,0.0,2-Back,1.0,m,Mon Dec 15 2025 17:34:36 GMT-0600 (Central Standard Time),555337.8000000119,110_o_f_n_a.png,I,m,559,5,3,1579.6000000238419,553758.1999999881,8052,NNB,B,3
4,test,4,0.0,2-Back,1.0,m,Mon Dec 15 2025 17:34:36 GMT-0600 (Central Standard Time),556954.0,110_o_f_n_a.png,I,m,592,6,3,1612.699999988079,555341.3000000119,8052,NNB,B,4
5,test,4,0.0,2-Back,1.0,m,Mon Dec 15 2025 17:34:36 GMT-0600 (Central Standard Time),558753.3000000119,029_m_f_n_a.png,I,m,776,7,3,1795.800000011921,556957.5,8052,NNB,B,5
6,test,4,0.0,2-Back,1.0,m,Mon Dec 15 2025 17:34:36 GMT-0600 (Central Standard Time),560452.8000000119,013_y_m_n_a.png,I,m,672,8,3,1695.5,558757.3000000119,8052,NNB,B,6
7,test,4,1.0,2-Back,1.0,z,Mon Dec 15 2025 17:34:36 GMT-0600 (Central Standard Time),562068.8999999762,029_m_f_n_a.png,I,z,588,9,3,1611.699999988079,560457.1999999881,8052,NNB,B,7
8,test,4,0.0,2-Back,1.0,m,Mon Dec 15 2025 17:34:36 GMT-0600 (Central Standard Time),563818.1999999881,126_m_m_n_a.png,I,m,717,10,3,1745.1000000238419,562073.0999999642,8052,NNB,B,8
9,test,4,0.0,2-Back,1.0,m,Mon Dec 15 2025 17:34:36 GMT-0600 (Central Standard Time),565834.1999999881,013_y_m_n_a.png,I,m,998,11,3,2011.300000011921,563822.8999999762,8052,NNB,B,9
10,test,4,0.0,2-Back,1.0,m,Mon Dec 15 2025 17:34:36 GMT-0600 (Central Standard Time),567817.1999999881,086_o_f_n_a.png,I,m,886,12,3,1978.8999999761581,565838.3000000119,8052,NNB,B,10
11,test,4,0.0,2-Back,1.0,m,Mon Dec 15 2025 17:34:36 GMT-0600 (Central Standard Time),569550.0,153_y_m_n_a.png,I,m,712,13,3,1728.699999988079,567821.3000000119,8052,NNB,B,11
12,test,4,1.0,2-Back,1.0,z,Mon Dec 15 2025 17:34:36 GMT-0600 (Central Standard Time),571382.8000000119,086_o_f_n_a.png,I,z,802,14,3,1828.800000011921,569554.0,8052,NNB,B,12
13,test,4,1.0,2-Back,1.0,z,Mon Dec 15 2025 17:34:36 GMT-0600 (Central Standard Time),573248.6999999881,153_y_m_n_a.png,I,z,843,15,3,1862.0,571386.6999999881,8052,NNB,B,13
14,test,4,0.0,2-Back,1.0,m,Mon Dec 15 2025 17:34:36 GMT-0600 (Central Standard Time),574965.0,178_m_m_n_a.png,I,m,688,16,3,1710.5,573254.5,8052,NNB,B,14
15,test,4,0.0,2-Back,1.0,m,Mon Dec 15 2025 17:34:36 GMT-0600 (Central Standard Time),576747.5,097_m_f_n_a.png,I,m,757,17,3,1778.800000011921,574968.6999999881,8052,NNB,B,15
16,test,4,1.0,2-Back,1.0,z,Mon Dec 15 2025 17:34:36 GMT-0600 (Central Standard Time),578330.3999999762,178_m_m_n_a.png,I,z,558,18,3,1579.300000011921,576751.0999999642,8052,NNB,B,16
0,test,5,1.0,2-Back,,,Mon Dec 15 2025 17:34:36 GMT-0600 (Central Standard Time),578330.3999999762,153_y_m_n_a.png,I,space,3615,1,3,1579.300000011921,576751.0999999642,8052,NNB,B,0
0,test,5,1.0,2-Back,,,Mon Dec 15 2025 17:34:36 GMT-0600 (Central Standard Time),578330.3999999762,097_m_f_n_a.png,I,space,3615,2,3,1579.300000011921,576751.0999999642,8052,NNB,B,0
1,test,5,1.0,2-Back,1.0,z,Mon Dec 15 2025 17:34:36 GMT-0600 (Central Standard Time),588543.8999999762,153_y_m_n_a.png,I,z,519,3,3,1544.8999999761581,586999.0,8052,NNB,B,1
2,test,5,1.0,2-Back,1.0,z,Mon Dec 15 2025 17:34:36 GMT-0600 (Central Standard Time),589976.8999999762,097_m_f_n_a.png,I,z,400,4,3,1428.800000011921,588548.0999999642,8052,NNB,B,2
3,test,5,0.0,2-Back,1.0,m,Mon Dec 15 2025 17:34:36 GMT-0600 (Central Standard Time),591626.3000000119,086_o_f_n_a.png,I,m,624,5,3,1645.1000000238419,589981.1999999881,8052,NNB,B,3
4,test,5,0.0,2-Back,1.0,m,Mon Dec 15 2025 17:34:36 GMT-0600 (Central Standard Time),593625.8000000119,153_y_m_n_a.png,I,m,983,6,3,1996.1000000238419,591629.6999999881,8052,NNB,B,4
5,test,5,0.0,2-Back,1.0,m,Mon Dec 15 2025 17:34:36 GMT-0600 (Central Standard Time),595241.5999999642,173_y_f_n_a.png,I,m,591,7,3,1611.699999988079,593629.8999999762,8052,NNB,B,5
6,test,5,0.0,2-Back,1.0,m,Mon Dec 15 2025 17:34:36 GMT-0600 (Central Standard Time),596974.8000000119,086_o_f_n_a.png,I,m,711,8,3,1729.1000000238419,595245.6999999881,8052,NNB,B,6
7,test,5,1.0,2-Back,1.0,z,Mon Dec 15 2025 17:34:36 GMT-0600 (Central Standard Time),598557.5,173_y_f_n_a.png,I,z,563,9,3,1579.4000000357628,596978.0999999642,8052,NNB,B,7
8,test,5,0.0,2-Back,1.0,m,Mon Dec 15 2025 17:34:36 GMT-0600 (Central Standard Time),600223.6999999881,065_o_m_n_a.png,I,m,644,10,3,1662.300000011921,598561.3999999762,8052,NNB,B,8
9,test,5,0.0,2-Back,1.0,m,Mon Dec 15 2025 17:34:36 GMT-0600 (Central Standard Time),601939.8999999762,029_m_f_n_a.png,I,m,698,11,3,1711.8999999761581,600228.0,8052,NNB,B,9
10,test,5,0.0,2-Back,1.0,m,Mon Dec 15 2025 17:34:36 GMT-0600 (Central Standard Time),603572.8000000119,126_m_m_n_a.png,I,m,613,12,3,1628.5,601944.3000000119,8052,NNB,B,10
11,test,5,0.0,2-Back,1.0,m,Mon Dec 15 2025 17:34:36 GMT-0600 (Central Standard Time),605322.0,065_o_m_n_a.png,I,m,724,13,3,1745.0,603577.0,8052,NNB,B,11
12,test,5,1.0,2-Back,1.0,z,Mon Dec 15 2025 17:34:36 GMT-0600 (Central Standard Time),607221.3999999762,126_m_m_n_a.png,I,z,879,14,3,1895.0,605326.3999999762,8052,NNB,B,12
13,test,5,0.0,2-Back,1.0,m,Mon Dec 15 2025 17:34:36 GMT-0600 (Central Standard Time),608887.8000000119,152_y_f_n_a.png,I,m,636,15,3,1662.9000000357628,607224.8999999762,8052,NNB,B,13
14,test,5,0.0,2-Back,1.0,m,Mon Dec 15 2025 17:34:36 GMT-0600 (Central Standard Time),610554.0,176_o_m_n_a.png,I,m,650,16,3,1661.6000000238419,608892.3999999762,8052,NNB,B,14
15,test,5,0.0,2-Back,1.0,m,Mon Dec 15 2025 17:34:36 GMT-0600 (Central Standard Time),612219.8999999762,029_m_f_n_a.png,I,m,647,17,3,1662.3999999761581,610557.5,8052,NNB,B,15
16,test,5,1.0,2-Back,1.0,z,Mon Dec 15 2025 17:34:36 GMT-0600 (Central Standard Time),614050.3000000119,176_o_m_n_a.png,I,z,813,18,3,1826.1000000238419,612224.1999999881,8052,NNB,B,16
