acc_sum,block,block_c,change,condition,correct,correct_response,datetime,endtime,face,project,response,response_time,row_sel,session_number,start_end,starttime,subject_id,task,task_vers,trial
0,prac,1,,1-Back,,,Wed Aug 20 2025 17:55:30 GMT-0500 (Central Daylight Time),,093_m_f_n_a.png,I,space,6424,1,2,,,8052,NNB,C,0
1,prac,1,0.0,1-Back,1.0,m,Wed Aug 20 2025 17:55:30 GMT-0500 (Central Daylight Time),165105.5,098_y_f_n_a.png,I,m,778,2,2,1655.3999999761581,163450.10000002384,8052,NNB,C,1
2,prac,1,1.0,1-Back,1.0,z,Wed Aug 20 2025 17:55:30 GMT-0500 (Central Daylight Time),166688.29999995232,098_y_f_n_a.png,I,z,805,3,2,1575.1999999284744,165113.10000002384,8052,NNB,C,2
3,prac,1,0.0,1-Back,1.0,m,Wed Aug 20 2025 17:55:30 GMT-0500 (Central Daylight Time),168371.20000004768,059_o_m_n_a.png,I,m,790,4,2,1674.2000000476837,166697.0,8052,NNB,C,3
4,prac,1,0.0,1-Back,1.0,m,Wed Aug 20 2025 17:55:30 GMT-0500 (Central Daylight Time),170003.70000004768,092_m_m_n_a.png,I,m,740,5,2,1623.8000000715256,168379.89999997616,8052,NNB,C,4
5,prac,1,1.0,1-Back,1.0,z,Wed Aug 20 2025 17:55:30 GMT-0500 (Central Daylight Time),171403.5,092_m_m_n_a.png,I,z,611,6,2,1392.2000000476837,170011.29999995232,8052,NNB,C,5
6,prac,1,0.0,1-Back,1.0,m,Wed Aug 20 2025 17:55:30 GMT-0500 (Central Daylight Time),172953.10000002384,130_o_f_n_a.png,I,m,640,7,2,1541.8999999761581,171411.20000004768,8052,NNB,C,6
7,prac,1,0.0,1-Back,1.0,m,Wed Aug 20 2025 17:55:30 GMT-0500 (Central Daylight Time),174352.39999997616,082_m_m_n_a.png,I,m,517,8,2,1389.8999999761581,172962.5,8052,NNB,C,7
8,prac,1,0.0,1-Back,1.0,m,Wed Aug 20 2025 17:55:30 GMT-0500 (Central Daylight Time),175752.20000004768,093_m_f_n_a.png,I,m,614,9,2,1391.8000000715256,174360.39999997616,8052,NNB,C,8
9,prac,1,1.0,1-Back,1.0,z,Wed Aug 20 2025 17:55:30 GMT-0500 (Central Daylight Time),177168.5,093_m_f_n_a.png,I,z,632,10,2,1408.7000000476837,175759.79999995232,8052,NNB,C,9
10,prac,1,0.0,1-Back,1.0,m,Wed Aug 20 2025 17:55:30 GMT-0500 (Central Daylight Time),178518.0,059_o_m_n_a.png,I,m,566,11,2,1340.5,177177.5,8052,NNB,C,10
10,prac,1,0.0,1-Back,0.0,m,Wed Aug 20 2025 17:55:30 GMT-0500 (Central Daylight Time),179934.10000002384,028_y_f_n_a.png,I,z,530,12,2,1406.3999999761581,178527.70000004768,8052,NNB,C,11
0,test,1,0.0,1-Back,,,Wed Aug 20 2025 17:55:30 GMT-0500 (Central Daylight Time),179934.10000002384,098_y_f_n_a.png,I,space,5572,1,2,1406.3999999761581,178527.70000004768,8052,NNB,C,0
1,test,1,0.0,1-Back,1.0,m,Wed Aug 20 2025 17:55:30 GMT-0500 (Central Daylight Time),200012.0,006_m_f_n_a.png,I,m,779,2,2,1794.6000000238419,198217.39999997616,8052,NNB,C,1
2,test,1,0.0,1-Back,1.0,m,Wed Aug 20 2025 17:55:30 GMT-0500 (Central Daylight Time),201777.29999995232,028_y_f_n_a.png,I,m,747,3,2,1760.1999999284744,200017.10000002384,8052,NNB,C,2
3,test,1,1.0,1-Back,1.0,z,Wed Aug 20 2025 17:55:30 GMT-0500 (Central Daylight Time),203343.60000002384,028_y_f_n_a.png,I,z,549,4,2,1561.1000000238419,201782.5,8052,NNB,C,3
4,test,1,0.0,1-Back,1.0,m,Wed Aug 20 2025 17:55:30 GMT-0500 (Central Daylight Time),205093.0,006_m_f_n_a.png,I,m,728,5,2,1744.1000000238419,203348.89999997616,8052,NNB,C,4
5,test,1,0.0,1-Back,1.0,m,Wed Aug 20 2025 17:55:30 GMT-0500 (Central Daylight Time),206575.60000002384,059_o_m_n_a.png,I,m,465,6,2,1477.1000000238419,205098.5,8052,NNB,C,5
6,test,1,1.0,1-Back,1.0,z,Wed Aug 20 2025 17:55:30 GMT-0500 (Central Daylight Time),208060.0,059_o_m_n_a.png,I,z,455,7,2,1479.5,206580.5,8052,NNB,C,6
7,test,1,0.0,1-Back,1.0,m,Wed Aug 20 2025 17:55:30 GMT-0500 (Central Daylight Time),209791.5,092_m_m_n_a.png,I,m,708,8,2,1726.0,208065.5,8052,NNB,C,7
8,test,1,0.0,1-Back,1.0,m,Wed Aug 20 2025 17:55:30 GMT-0500 (Central Daylight Time),211557.5,130_o_f_n_a.png,I,m,736,9,2,1760.5,209797.0,8052,NNB,C,8
9,test,1,0.0,1-Back,1.0,m,Wed Aug 20 2025 17:55:30 GMT-0500 (Central Daylight Time),213040.10000002384,092_m_m_n_a.png,I,m,465,10,2,1477.1000000238419,211563.0,8052,NNB,C,9
10,test,1,0.0,1-Back,1.0,m,Wed Aug 20 2025 17:55:30 GMT-0500 (Central Daylight Time),214623.10000002384,057_y_m_n_a.png,I,m,566,11,2,1577.8000000715256,213045.29999995232,8052,NNB,C,10
11,test,1,1.0,1-Back,1.0,z,Wed Aug 20 2025 17:55:30 GMT-0500 (Central Daylight Time),216106.10000002384,057_y_m_n_a.png,I,z,454,12,2,1477.3999999761581,214628.70000004768,8052,NNB,C,11
12,test,1,0.0,1-Back,1.0,m,Wed Aug 20 2025 17:55:30 GMT-0500 (Central Daylight Time),217622.29999995232,030_o_f_n_a.png,I,m,484,13,2,1511.3999999761581,216110.89999997616,8052,NNB,C,12
13,test,1,1.0,1-Back,1.0,z,Wed Aug 20 2025 17:55:30 GMT-0500 (Central Daylight Time),219288.20000004768,030_o_f_n_a.png,I,z,649,14,2,1660.1000000238419,217628.10000002384,8052,NNB,C,13
14,test,1,0.0,1-Back,1.0,m,Wed Aug 20 2025 17:55:30 GMT-0500 (Central Daylight Time),220854.5,031_y_m_n_a.png,I,m,534,15,2,1561.6000000238419,219292.89999997616,8052,NNB,C,14
15,test,1,0.0,1-Back,1.0,m,Wed Aug 20 2025 17:55:30 GMT-0500 (Central Daylight Time),222370.79999995232,093_m_f_n_a.png,I,m,497,16,2,1510.8999999761581,220859.89999997616,8052,NNB,C,15
16,test,1,0.0,1-Back,1.0,m,Wed Aug 20 2025 17:55:30 GMT-0500 (Central Daylight Time),223870.39999997616,146_o_m_n_a.png,I,m,468,17,2,1494.3999999761581,222376.0,8052,NNB,C,16
17,test,1,0.0,1-Back,1.0,m,Wed Aug 20 2025 17:55:30 GMT-0500 (Central Daylight Time),225520.0,093_m_f_n_a.png,I,m,633,18,2,1643.7999999523163,223876.20000004768,8052,NNB,C,17
0,test,2,0.0,1-Back,,,Wed Aug 20 2025 17:55:30 GMT-0500 (Central Daylight Time),225520.0,092_m_m_n_a.png,I,space,2207,1,2,1643.7999999523163,223876.20000004768,8052,NNB,C,0
1,test,2,0.0,1-Back,1.0,m,Wed Aug 20 2025 17:55:30 GMT-0500 (Central Daylight Time),231351.20000004768,006_m_f_n_a.png,I,m,567,2,2,1594.3000000715256,229756.89999997616,8052,NNB,C,1
2,test,2,1.0,1-Back,1.0,z,Wed Aug 20 2025 17:55:30 GMT-0500 (Central Daylight Time),233017.60000002384,006_m_f_n_a.png,I,z,647,3,2,1661.3000000715256,231356.29999995232,8052,NNB,C,2
3,test,2,0.0,1-Back,1.0,m,Wed Aug 20 2025 17:55:30 GMT-0500 (Central Daylight Time),234617.0,092_m_m_n_a.png,I,m,581,4,2,1593.7999999523163,233023.20000004768,8052,NNB,C,3
4,test,2,0.0,1-Back,1.0,m,Wed Aug 20 2025 17:55:30 GMT-0500 (Central Daylight Time),236216.39999997616,057_y_m_n_a.png,I,m,573,5,2,1593.7999999523163,234622.60000002384,8052,NNB,C,4
5,test,2,0.0,1-Back,1.0,m,Wed Aug 20 2025 17:55:30 GMT-0500 (Central Daylight Time),237732.5,098_y_f_n_a.png,I,m,495,6,2,1511.2000000476837,236221.29999995232,8052,NNB,C,5
6,test,2,1.0,1-Back,1.0,z,Wed Aug 20 2025 17:55:30 GMT-0500 (Central Daylight Time),239165.39999997616,098_y_f_n_a.png,I,z,410,7,2,1427.7999999523163,237737.60000002384,8052,NNB,C,6
7,test,2,0.0,1-Back,1.0,m,Wed Aug 20 2025 17:55:30 GMT-0500 (Central Daylight Time),240698.5,057_y_m_n_a.png,I,m,513,8,2,1528.0,239170.5,8052,NNB,C,7
8,test,2,0.0,1-Back,1.0,m,Wed Aug 20 2025 17:55:30 GMT-0500 (Central Daylight Time),242197.89999997616,030_o_f_n_a.png,I,m,468,9,2,1494.3999999761581,240703.5,8052,NNB,C,8
9,test,2,0.0,1-Back,1.0,m,Wed Aug 20 2025 17:55:30 GMT-0500 (Central Daylight Time),243630.5,082_m_m_n_a.png,I,m,408,10,2,1427.7000000476837,242202.79999995232,8052,NNB,C,9
10,test,2,1.0,1-Back,1.0,z,Wed Aug 20 2025 17:55:30 GMT-0500 (Central Daylight Time),244996.60000002384,082_m_m_n_a.png,I,z,343,11,2,1360.8999999761581,243635.70000004768,8052,NNB,C,10
11,test,2,0.0,1-Back,1.0,m,Wed Aug 20 2025 17:55:30 GMT-0500 (Central Daylight Time),246479.89999997616,030_o_f_n_a.png,I,m,466,12,2,1477.7999999523163,245002.10000002384,8052,NNB,C,11
12,test,2,0.0,1-Back,1.0,m,Wed Aug 20 2025 17:55:30 GMT-0500 (Central Daylight Time),248029.29999995232,130_o_f_n_a.png,I,m,518,13,2,1543.8999999761581,246485.39999997616,8052,NNB,C,12
13,test,2,0.0,1-Back,1.0,m,Wed Aug 20 2025 17:55:30 GMT-0500 (Central Daylight Time),249512.39999997616,059_o_m_n_a.png,I,m,457,14,2,1477.6999999284744,248034.70000004768,8052,NNB,C,13
14,test,2,0.0,1-Back,1.0,m,Wed Aug 20 2025 17:55:30 GMT-0500 (Central Daylight Time),251061.89999997616,146_o_m_n_a.png,I,m,525,15,2,1543.8999999761581,249518.0,8052,NNB,C,14
15,test,2,1.0,1-Back,1.0,z,Wed Aug 20 2025 17:55:30 GMT-0500 (Central Daylight Time),252644.39999997616,146_o_m_n_a.png,I,z,560,16,2,1577.1000000238419,251067.29999995232,8052,NNB,C,15
16,test,2,0.0,1-Back,1.0,m,Wed Aug 20 2025 17:55:30 GMT-0500 (Central Daylight Time),254160.70000004768,031_y_m_n_a.png,I,m,491,17,2,1510.6000000238419,252650.10000002384,8052,NNB,C,16
17,test,2,1.0,1-Back,1.0,z,Wed Aug 20 2025 17:55:30 GMT-0500 (Central Daylight Time),255577.10000002384,031_y_m_n_a.png,I,z,390,18,2,1411.0,254166.10000002384,8052,NNB,C,17
0,test,3,1.0,1-Back,,,Wed Aug 20 2025 17:55:30 GMT-0500 (Central Daylight Time),255577.10000002384,028_y_f_n_a.png,I,space,2861,1,2,1411.0,254166.10000002384,8052,NNB,C,0
1,test,3,0.0,1-Back,1.0,m,Wed Aug 20 2025 17:55:30 GMT-0500 (Central Daylight Time),262175.60000002384,146_o_m_n_a.png,I,m,600,1,2,1610.2000000476837,260565.39999997616,8052,NNB,C,1
2,test,3,1.0,1-Back,1.0,z,Wed Aug 20 2025 17:55:30 GMT-0500 (Central Daylight Time),263607.89999997616,146_o_m_n_a.png,I,z,416,1,2,1427.5,262180.39999997616,8052,NNB,C,2
3,test,3,0.0,1-Back,1.0,m,Wed Aug 20 2025 17:55:30 GMT-0500 (Central Daylight Time),265007.39999997616,093_m_f_n_a.png,I,m,374,1,2,1393.7999999523163,263613.60000002384,8052,NNB,C,3
4,test,3,1.0,1-Back,1.0,z,Wed Aug 20 2025 17:55:30 GMT-0500 (Central Daylight Time),266406.89999997616,093_m_f_n_a.png,I,z,367,1,2,1394.1999999284744,265012.7000000477,8052,NNB,C,4
5,test,3,0.0,1-Back,1.0,m,Wed Aug 20 2025 17:55:30 GMT-0500 (Central Daylight Time),267956.60000002384,030_o_f_n_a.png,I,m,520,1,2,1544.5,266412.10000002384,8052,NNB,C,5
6,test,3,0.0,1-Back,1.0,m,Wed Aug 20 2025 17:55:30 GMT-0500 (Central Daylight Time),269372.7000000477,057_y_m_n_a.png,I,m,394,1,2,1411.0,267961.7000000477,8052,NNB,C,6
7,test,3,0.0,1-Back,1.0,m,Wed Aug 20 2025 17:55:30 GMT-0500 (Central Daylight Time),270755.39999997616,030_o_f_n_a.png,I,m,360,1,2,1377.1999999284744,269378.2000000477,8052,NNB,C,7
8,test,3,0.0,1-Back,1.0,m,Wed Aug 20 2025 17:55:30 GMT-0500 (Central Daylight Time),272205.10000002384,031_y_m_n_a.png,I,m,427,1,2,1444.2000000476837,270760.89999997616,8052,NNB,C,8
9,test,3,1.0,1-Back,1.0,z,Wed Aug 20 2025 17:55:30 GMT-0500 (Central Daylight Time),273654.5,031_y_m_n_a.png,I,z,425,1,2,1444.3999999761581,272210.10000002384,8052,NNB,C,9
10,test,3,0.0,1-Back,1.0,m,Wed Aug 20 2025 17:55:30 GMT-0500 (Central Daylight Time),275087.5,006_m_f_n_a.png,I,m,400,1,2,1427.0,273660.5,8052,NNB,C,10
11,test,3,0.0,1-Back,1.0,m,Wed Aug 20 2025 17:55:30 GMT-0500 (Central Daylight Time),276520.39999997616,098_y_f_n_a.png,I,m,406,1,2,1427.8999999761581,275092.5,8052,NNB,C,11
12,test,3,1.0,1-Back,1.0,z,Wed Aug 20 2025 17:55:30 GMT-0500 (Central Daylight Time),277886.7999999523,098_y_f_n_a.png,I,z,343,1,2,1361.0999999046326,276525.7000000477,8052,NNB,C,12
13,test,3,0.0,1-Back,1.0,m,Wed Aug 20 2025 17:55:30 GMT-0500 (Central Daylight Time),279286.2000000477,006_m_f_n_a.png,I,m,368,1,2,1394.2000000476837,277892.0,8052,NNB,C,13
14,test,3,0.0,1-Back,1.0,m,Wed Aug 20 2025 17:55:30 GMT-0500 (Central Daylight Time),280769.0,092_m_m_n_a.png,I,m,457,1,2,1477.3999999761581,279291.60000002384,8052,NNB,C,14
14,test,3,1.0,1-Back,0.0,z,Wed Aug 20 2025 17:55:30 GMT-0500 (Central Daylight Time),282152.0,092_m_m_n_a.png,I,m,358,1,2,1377.7999999523163,280774.2000000477,8052,NNB,C,15
15,test,3,0.0,1-Back,1.0,m,Wed Aug 20 2025 17:55:30 GMT-0500 (Central Daylight Time),283818.10000002384,130_o_f_n_a.png,I,m,646,1,2,1660.5,282157.60000002384,8052,NNB,C,16
16,test,3,1.0,1-Back,1.0,z,Wed Aug 20 2025 17:55:30 GMT-0500 (Central Daylight Time),285251.0,130_o_f_n_a.png,I,z,405,1,2,1427.7999999523163,283823.2000000477,8052,NNB,C,17
0,test,4,1.0,1-Back,,,Wed Aug 20 2025 17:55:30 GMT-0500 (Central Daylight Time),285251.0,093_m_f_n_a.png,I,space,1875,1,2,1427.7999999523163,283823.2000000477,8052,NNB,C,0
1,test,4,0.0,1-Back,1.0,m,Wed Aug 20 2025 17:55:30 GMT-0500 (Central Daylight Time),291015.89999997616,146_o_m_n_a.png,I,m,733,2,2,1760.8999999761581,289255.0,8052,NNB,C,1
2,test,4,0.0,1-Back,1.0,m,Wed Aug 20 2025 17:55:30 GMT-0500 (Central Daylight Time),292415.5,093_m_f_n_a.png,I,m,382,3,2,1394.5,291021.0,8052,NNB,C,2
3,test,4,0.0,1-Back,1.0,m,Wed Aug 20 2025 17:55:30 GMT-0500 (Central Daylight Time),294131.5,030_o_f_n_a.png,I,m,687,4,2,1711.1000000238419,292420.39999997616,8052,NNB,C,3
4,test,4,1.0,1-Back,1.0,z,Wed Aug 20 2025 17:55:30 GMT-0500 (Central Daylight Time),295514.60000002384,030_o_f_n_a.png,I,z,364,5,2,1377.3000000715256,294137.2999999523,8052,NNB,C,4
5,test,4,0.0,1-Back,1.0,m,Wed Aug 20 2025 17:55:30 GMT-0500 (Central Daylight Time),296980.7999999523,098_y_f_n_a.png,I,m,444,6,2,1460.5999999046326,295520.2000000477,8052,NNB,C,5
6,test,4,0.0,1-Back,1.0,m,Wed Aug 20 2025 17:55:30 GMT-0500 (Central Daylight Time),298496.89999997616,057_y_m_n_a.png,I,m,498,7,2,1510.5,296986.39999997616,8052,NNB,C,6
7,test,4,1.0,1-Back,1.0,z,Wed Aug 20 2025 17:55:30 GMT-0500 (Central Daylight Time),299896.5,057_y_m_n_a.png,I,z,374,8,2,1395.0,298501.5,8052,NNB,C,7
8,test,4,0.0,1-Back,1.0,m,Wed Aug 20 2025 17:55:30 GMT-0500 (Central Daylight Time),301395.7999999523,098_y_f_n_a.png,I,m,471,9,2,1494.0999999046326,299901.7000000477,8052,NNB,C,8
9,test,4,0.0,1-Back,1.0,m,Wed Aug 20 2025 17:55:30 GMT-0500 (Central Daylight Time),302895.5,082_m_m_n_a.png,I,m,483,10,2,1494.2999999523163,301401.2000000477,8052,NNB,C,9
10,test,4,1.0,1-Back,1.0,z,Wed Aug 20 2025 17:55:30 GMT-0500 (Central Daylight Time),304344.89999997616,082_m_m_n_a.png,I,z,431,11,2,1443.5,302901.39999997616,8052,NNB,C,10
11,test,4,0.0,1-Back,1.0,m,Wed Aug 20 2025 17:55:30 GMT-0500 (Central Daylight Time),305844.39999997616,130_o_f_n_a.png,I,m,469,12,2,1494.3999999761581,304350.0,8052,NNB,C,11
12,test,4,0.0,1-Back,1.0,m,Wed Aug 20 2025 17:55:30 GMT-0500 (Central Daylight Time),307378.0,059_o_m_n_a.png,I,m,514,13,2,1528.0,305850.0,8052,NNB,C,12
12,test,4,0.0,1-Back,0.0,m,Wed Aug 20 2025 17:55:30 GMT-0500 (Central Daylight Time),308928.2000000477,130_o_f_n_a.png,I,z,526,14,2,1544.2000000476837,307384.0,8052,NNB,C,13
13,test,4,0.0,1-Back,1.0,m,Wed Aug 20 2025 17:55:30 GMT-0500 (Central Daylight Time),310426.2000000477,028_y_f_n_a.png,I,m,471,15,2,1492.6000000238419,308933.60000002384,8052,NNB,C,14
14,test,4,1.0,1-Back,1.0,z,Wed Aug 20 2025 17:55:30 GMT-0500 (Central Daylight Time),311792.5,028_y_f_n_a.png,I,z,348,16,2,1360.5,310432.0,8052,NNB,C,15
15,test,4,0.0,1-Back,1.0,m,Wed Aug 20 2025 17:55:30 GMT-0500 (Central Daylight Time),313325.5,006_m_f_n_a.png,I,m,501,17,2,1527.8999999761581,311797.60000002384,8052,NNB,C,16
16,test,4,1.0,1-Back,1.0,z,Wed Aug 20 2025 17:55:30 GMT-0500 (Central Daylight Time),314725.0,006_m_f_n_a.png,I,z,370,18,2,1394.5,313330.5,8052,NNB,C,17
0,test,5,1.0,1-Back,,,Wed Aug 20 2025 17:55:30 GMT-0500 (Central Daylight Time),314725.0,059_o_m_n_a.png,I,space,2218,1,2,1394.5,313330.5,8052,NNB,C,0
1,test,5,1.0,1-Back,1.0,z,Wed Aug 20 2025 17:55:30 GMT-0500 (Central Daylight Time),320773.5,059_o_m_n_a.png,I,z,776,2,2,1794.1000000238419,318979.39999997616,8052,NNB,C,1
2,test,5,0.0,1-Back,1.0,m,Wed Aug 20 2025 17:55:30 GMT-0500 (Central Daylight Time),322322.60000002384,098_y_f_n_a.png,I,m,529,3,2,1543.2000000476837,320779.39999997616,8052,NNB,C,2
3,test,5,0.0,1-Back,1.0,m,Wed Aug 20 2025 17:55:30 GMT-0500 (Central Daylight Time),323805.60000002384,057_y_m_n_a.png,I,m,452,4,2,1477.2000000476837,322328.39999997616,8052,NNB,C,3
4,test,5,0.0,1-Back,1.0,m,Wed Aug 20 2025 17:55:30 GMT-0500 (Central Daylight Time),325354.89999997616,098_y_f_n_a.png,I,m,522,5,2,1543.3999999761581,323811.5,8052,NNB,C,4
5,test,5,0.0,1-Back,1.0,m,Wed Aug 20 2025 17:55:30 GMT-0500 (Central Daylight Time),326871.39999997616,092_m_m_n_a.png,I,m,492,6,2,1510.6000000238419,325360.7999999523,8052,NNB,C,5
6,test,5,1.0,1-Back,1.0,z,Wed Aug 20 2025 17:55:30 GMT-0500 (Central Daylight Time),328304.2000000477,092_m_m_n_a.png,I,z,407,7,2,1427.8000000715256,326876.39999997616,8052,NNB,C,6
7,test,5,0.0,1-Back,1.0,m,Wed Aug 20 2025 17:55:30 GMT-0500 (Central Daylight Time),329803.60000002384,028_y_f_n_a.png,I,m,478,8,2,1493.8000000715256,328309.7999999523,8052,NNB,C,7
8,test,5,0.0,1-Back,1.0,m,Wed Aug 20 2025 17:55:30 GMT-0500 (Central Daylight Time),331286.60000002384,031_y_m_n_a.png,I,m,450,9,2,1477.8999999761581,329808.7000000477,8052,NNB,C,8
9,test,5,0.0,1-Back,1.0,m,Wed Aug 20 2025 17:55:30 GMT-0500 (Central Daylight Time),332785.60000002384,028_y_f_n_a.png,I,m,479,10,2,1493.6000000238419,331292.0,8052,NNB,C,9
10,test,5,0.0,1-Back,1.0,m,Wed Aug 20 2025 17:55:30 GMT-0500 (Central Daylight Time),334236.7999999523,130_o_f_n_a.png,I,m,428,11,2,1446.5,332790.2999999523,8052,NNB,C,10
11,test,5,1.0,1-Back,1.0,z,Wed Aug 20 2025 17:55:30 GMT-0500 (Central Daylight Time),335768.7000000477,130_o_f_n_a.png,I,z,516,12,2,1526.8000000715256,334241.89999997616,8052,NNB,C,11
12,test,5,0.0,1-Back,1.0,m,Wed Aug 20 2025 17:55:30 GMT-0500 (Central Daylight Time),337217.89999997616,146_o_m_n_a.png,I,m,422,13,2,1444.5,335773.39999997616,8052,NNB,C,12
13,test,5,0.0,1-Back,1.0,m,Wed Aug 20 2025 17:55:30 GMT-0500 (Central Daylight Time),338600.7000000477,093_m_f_n_a.png,I,m,365,14,2,1378.3000000715256,337222.39999997616,8052,NNB,C,13
14,test,5,1.0,1-Back,1.0,z,Wed Aug 20 2025 17:55:30 GMT-0500 (Central Daylight Time),340002.0,093_m_f_n_a.png,I,z,381,15,2,1396.8999999761581,338605.10000002384,8052,NNB,C,14
15,test,5,0.0,1-Back,1.0,m,Wed Aug 20 2025 17:55:30 GMT-0500 (Central Daylight Time),341483.39999997616,146_o_m_n_a.png,I,m,454,16,2,1476.7999999523163,340006.60000002384,8052,NNB,C,15
16,test,5,0.0,1-Back,1.0,m,Wed Aug 20 2025 17:55:30 GMT-0500 (Central Daylight Time),342932.7999999523,006_m_f_n_a.png,I,m,419,17,2,1444.5,341488.2999999523,8052,NNB,C,16
17,test,5,0.0,1-Back,1.0,m,Wed Aug 20 2025 17:55:30 GMT-0500 (Central Daylight Time),344349.2000000477,082_m_m_n_a.png,I,m,393,18,2,1411.5,342937.7000000477,8052,NNB,C,17
0,prac,1,0.0,2-Back,,,Wed Aug 20 2025 17:55:30 GMT-0500 (Central Daylight Time),344349.2000000477,031_y_m_n_a.png,I,space,5948,1,2,1411.5,342937.7000000477,8052,NNB,C,0
0,prac,1,0.0,2-Back,,,Wed Aug 20 2025 17:55:30 GMT-0500 (Central Daylight Time),344349.2000000477,006_m_f_n_a.png,I,space,5948,2,2,1411.5,342937.7000000477,8052,NNB,C,0
1,prac,1,1.0,2-Back,1.0,m,Wed Aug 20 2025 17:55:30 GMT-0500 (Central Daylight Time),438653.10000002384,146_o_m_n_a.png,I,m,1020,3,2,1924.3000000715256,436728.7999999523,8052,NNB,C,1
2,prac,1,0.0,2-Back,1.0,m,Wed Aug 20 2025 17:55:30 GMT-0500 (Central Daylight Time),440235.7999999523,130_o_f_n_a.png,I,m,672,4,2,1575.2999999523163,438660.5,8052,NNB,C,2
3,prac,1,0.0,2-Back,1.0,z,Wed Aug 20 2025 17:55:30 GMT-0500 (Central Daylight Time),441652.10000002384,146_o_m_n_a.png,I,z,635,5,2,1408.1000000238419,440244.0,8052,NNB,C,3
4,prac,1,1.0,2-Back,1.0,z,Wed Aug 20 2025 17:55:30 GMT-0500 (Central Daylight Time),443301.5,130_o_f_n_a.png,I,z,868,6,2,1642.5,441659.0,8052,NNB,C,4
5,prac,1,0.0,2-Back,1.0,m,Wed Aug 20 2025 17:55:30 GMT-0500 (Central Daylight Time),444718.7999999523,082_m_m_n_a.png,I,m,625,7,2,1409.3999999761581,443309.39999997616,8052,NNB,C,5
6,prac,1,0.0,2-Back,1.0,m,Wed Aug 20 2025 17:55:30 GMT-0500 (Central Daylight Time),446217.10000002384,059_o_m_n_a.png,I,m,607,8,2,1490.6000000238419,444726.5,8052,NNB,C,6
7,prac,1,0.0,2-Back,1.0,m,Wed Aug 20 2025 17:55:30 GMT-0500 (Central Daylight Time),447650.2999999523,028_y_f_n_a.png,I,m,554,9,2,1426.2999999523163,446224.0,8052,NNB,C,7
8,prac,1,1.0,2-Back,1.0,z,Wed Aug 20 2025 17:55:30 GMT-0500 (Central Daylight Time),448866.2999999523,059_o_m_n_a.png,I,z,429,10,2,1207.6999999284744,447658.60000002384,8052,NNB,C,8
9,prac,1,0.0,2-Back,1.0,m,Wed Aug 20 2025 17:55:30 GMT-0500 (Central Daylight Time),450466.0,098_y_f_n_a.png,I,m,717,11,2,1592.5,448873.5,8052,NNB,C,9
10,prac,1,0.0,2-Back,1.0,m,Wed Aug 20 2025 17:55:30 GMT-0500 (Central Daylight Time),451982.10000002384,082_m_m_n_a.png,I,m,724,12,2,1508.1000000238419,450474.0,8052,NNB,C,10
0,test,1,0.0,2-Back,,,Wed Aug 20 2025 17:55:30 GMT-0500 (Central Daylight Time),451982.10000002384,057_y_m_n_a.png,I,space,7738,1,2,1508.1000000238419,450474.0,8052,NNB,C,0
0,test,1,0.0,2-Back,,,Wed Aug 20 2025 17:55:30 GMT-0500 (Central Daylight Time),451982.10000002384,057_y_m_n_a.png,I,space,7738,2,2,1508.1000000238419,450474.0,8052,NNB,C,0
1,test,1,0.0,2-Back,1.0,m,Wed Aug 20 2025 17:55:30 GMT-0500 (Central Daylight Time),472891.7999999523,130_o_f_n_a.png,I,m,561,3,2,1576.5,471315.2999999523,8052,NNB,C,1
2,test,1,0.0,2-Back,1.0,m,Wed Aug 20 2025 17:55:30 GMT-0500 (Central Daylight Time),474558.0,092_m_m_n_a.png,I,m,634,4,2,1660.7999999523163,472897.2000000477,8052,NNB,C,2
3,test,1,1.0,2-Back,1.0,z,Wed Aug 20 2025 17:55:30 GMT-0500 (Central Daylight Time),476007.7999999523,130_o_f_n_a.png,I,z,432,5,2,1445.0,474562.7999999523,8052,NNB,C,3
4,test,1,0.0,2-Back,1.0,m,Wed Aug 20 2025 17:55:30 GMT-0500 (Central Daylight Time),477690.7000000477,098_y_f_n_a.png,I,m,663,6,2,1677.9000000953674,476012.7999999523,8052,NNB,C,4
4,test,1,0.0,2-Back,0.0,m,Wed Aug 20 2025 17:55:30 GMT-0500 (Central Daylight Time),479306.7999999523,092_m_m_n_a.png,I,z,597,7,2,1611.1999999284744,477695.60000002384,8052,NNB,C,5
5,test,1,1.0,2-Back,1.0,z,Wed Aug 20 2025 17:55:30 GMT-0500 (Central Daylight Time),480972.7999999523,098_y_f_n_a.png,I,z,635,8,2,1660.8999999761581,479311.89999997616,8052,NNB,C,6
6,test,1,0.0,2-Back,1.0,m,Wed Aug 20 2025 17:55:30 GMT-0500 (Central Daylight Time),482772.5,031_y_m_n_a.png,I,m,769,9,2,1794.7999999523163,480977.7000000477,8052,NNB,C,7
7,test,1,0.0,2-Back,1.0,m,Wed Aug 20 2025 17:55:30 GMT-0500 (Central Daylight Time),484471.7999999523,030_o_f_n_a.png,I,m,674,10,2,1694.5999999046326,482777.2000000477,8052,NNB,C,8
8,test,1,1.0,2-Back,1.0,z,Wed Aug 20 2025 17:55:30 GMT-0500 (Central Daylight Time),486038.0,031_y_m_n_a.png,I,z,535,11,2,1561.3999999761581,484476.60000002384,8052,NNB,C,9
9,test,1,0.0,2-Back,1.0,m,Wed Aug 20 2025 17:55:30 GMT-0500 (Central Daylight Time),487704.2000000477,006_m_f_n_a.png,I,m,640,12,2,1661.3000000715256,486042.89999997616,8052,NNB,C,10
10,test,1,0.0,2-Back,1.0,m,Wed Aug 20 2025 17:55:30 GMT-0500 (Central Daylight Time),489470.10000002384,006_m_f_n_a.png,I,m,734,13,2,1760.7000000476837,487709.39999997616,8052,NNB,C,11
10,test,1,0.0,2-Back,0.0,m,Wed Aug 20 2025 17:55:30 GMT-0500 (Central Daylight Time),491053.2000000477,146_o_m_n_a.png,I,z,560,14,2,1577.9000000953674,489475.2999999523,8052,NNB,C,12
11,test,1,0.0,2-Back,1.0,m,Wed Aug 20 2025 17:55:30 GMT-0500 (Central Daylight Time),492602.7000000477,030_o_f_n_a.png,I,m,521,15,2,1544.3000000715256,491058.39999997616,8052,NNB,C,13
12,test,1,1.0,2-Back,1.0,z,Wed Aug 20 2025 17:55:30 GMT-0500 (Central Daylight Time),494052.2999999523,146_o_m_n_a.png,I,z,428,16,2,1444.7999999523163,492607.5,8052,NNB,C,14
13,test,1,0.0,2-Back,1.0,m,Wed Aug 20 2025 17:55:30 GMT-0500 (Central Daylight Time),495768.2000000477,093_m_f_n_a.png,I,m,691,17,2,1711.3000000715256,494056.89999997616,8052,NNB,C,15
14,test,1,0.0,2-Back,1.0,m,Wed Aug 20 2025 17:55:30 GMT-0500 (Central Daylight Time),497517.7999999523,082_m_m_n_a.png,I,m,719,18,2,1744.1999999284744,495773.60000002384,8052,NNB,C,16
0,test,2,0.0,2-Back,,,Wed Aug 20 2025 17:55:30 GMT-0500 (Central Daylight Time),497517.7999999523,082_m_m_n_a.png,I,space,1722,1,2,1744.1999999284744,495773.60000002384,8052,NNB,C,0
0,test,2,0.0,2-Back,,,Wed Aug 20 2025 17:55:30 GMT-0500 (Central Daylight Time),497517.7999999523,028_y_f_n_a.png,I,space,1722,2,2,1744.1999999284744,495773.60000002384,8052,NNB,C,0
1,test,2,1.0,2-Back,1.0,z,Wed Aug 20 2025 17:55:30 GMT-0500 (Central Daylight Time),506064.7999999523,082_m_m_n_a.png,I,z,632,3,2,1644.0,504420.7999999523,8052,NNB,C,1
2,test,2,0.0,2-Back,1.0,m,Wed Aug 20 2025 17:55:30 GMT-0500 (Central Daylight Time),507631.2000000477,093_m_f_n_a.png,I,m,533,4,2,1561.9000000953674,506069.2999999523,8052,NNB,C,2
3,test,2,0.0,2-Back,1.0,m,Wed Aug 20 2025 17:55:30 GMT-0500 (Central Daylight Time),509247.39999997616,028_y_f_n_a.png,I,m,584,5,2,1611.1999999284744,507636.2000000477,8052,NNB,C,3
4,test,2,0.0,2-Back,1.0,m,Wed Aug 20 2025 17:55:30 GMT-0500 (Central Daylight Time),510947.0,146_o_m_n_a.png,I,m,672,6,2,1694.7000000476837,509252.2999999523,8052,NNB,C,4
5,test,2,0.0,2-Back,1.0,m,Wed Aug 20 2025 17:55:30 GMT-0500 (Central Daylight Time),512713.0,098_y_f_n_a.png,I,m,748,7,2,1760.8999999761581,510952.10000002384,8052,NNB,C,5
6,test,2,1.0,2-Back,1.0,z,Wed Aug 20 2025 17:55:30 GMT-0500 (Central Daylight Time),514545.7000000477,146_o_m_n_a.png,I,z,805,8,2,1827.6000000238419,512718.10000002384,8052,NNB,C,6
7,test,2,0.0,2-Back,1.0,m,Wed Aug 20 2025 17:55:30 GMT-0500 (Central Daylight Time),516511.60000002384,031_y_m_n_a.png,I,m,949,9,2,1960.8000000715256,514550.7999999523,8052,NNB,C,7
8,test,2,0.0,2-Back,1.0,m,Wed Aug 20 2025 17:55:30 GMT-0500 (Central Daylight Time),518379.39999997616,031_y_m_n_a.png,I,m,838,10,2,1862.6999999284744,516516.7000000477,8052,NNB,C,8
9,test,2,0.0,2-Back,1.0,m,Wed Aug 20 2025 17:55:30 GMT-0500 (Central Daylight Time),520194.2000000477,006_m_f_n_a.png,I,m,788,11,2,1809.8000000715256,518384.39999997616,8052,NNB,C,9
10,test,2,0.0,2-Back,1.0,m,Wed Aug 20 2025 17:55:30 GMT-0500 (Central Daylight Time),521876.5,028_y_f_n_a.png,I,m,654,12,2,1677.0,520199.5,8052,NNB,C,10
11,test,2,1.0,2-Back,1.0,z,Wed Aug 20 2025 17:55:30 GMT-0500 (Central Daylight Time),523509.7000000477,006_m_f_n_a.png,I,z,610,13,2,1628.5,521881.2000000477,8052,NNB,C,11
12,test,2,0.0,2-Back,1.0,m,Wed Aug 20 2025 17:55:30 GMT-0500 (Central Daylight Time),525175.6000000238,059_o_m_n_a.png,I,m,649,14,2,1661.1000000238419,523514.5,8052,NNB,C,12
12,test,2,0.0,2-Back,0.0,m,Wed Aug 20 2025 17:55:30 GMT-0500 (Central Daylight Time),527041.7999999523,059_o_m_n_a.png,I,z,838,15,2,1861.5,525180.2999999523,8052,NNB,C,13
13,test,2,0.0,2-Back,1.0,m,Wed Aug 20 2025 17:55:30 GMT-0500 (Central Daylight Time),528708.0,030_o_f_n_a.png,I,m,645,16,2,1660.8999999761581,527047.1000000238,8052,NNB,C,14
14,test,2,0.0,2-Back,1.0,m,Wed Aug 20 2025 17:55:30 GMT-0500 (Central Daylight Time),530324.2000000477,092_m_m_n_a.png,I,m,587,17,2,1611.5,528712.7000000477,8052,NNB,C,15
15,test,2,1.0,2-Back,1.0,z,Wed Aug 20 2025 17:55:30 GMT-0500 (Central Daylight Time),531807.7999999523,030_o_f_n_a.png,I,z,458,18,2,1478.6999999284744,530329.1000000238,8052,NNB,C,16
0,test,3,1.0,2-Back,,,Wed Aug 20 2025 17:55:30 GMT-0500 (Central Daylight Time),531807.7999999523,057_y_m_n_a.png,I,space,6855,1,2,1478.6999999284744,530329.1000000238,8052,NNB,C,0
0,test,3,1.0,2-Back,,,Wed Aug 20 2025 17:55:30 GMT-0500 (Central Daylight Time),531807.7999999523,057_y_m_n_a.png,I,space,6855,2,2,1478.6999999284744,530329.1000000238,8052,NNB,C,0
1,test,3,0.0,2-Back,1.0,m,Wed Aug 20 2025 17:55:30 GMT-0500 (Central Daylight Time),545636.0,030_o_f_n_a.png,I,m,770,3,2,1794.6000000238419,543841.3999999762,8052,NNB,C,1
2,test,3,0.0,2-Back,1.0,m,Wed Aug 20 2025 17:55:30 GMT-0500 (Central Daylight Time),547302.1000000238,082_m_m_n_a.png,I,m,642,4,2,1661.6000000238419,545640.5,8052,NNB,C,2
3,test,3,1.0,2-Back,1.0,z,Wed Aug 20 2025 17:55:30 GMT-0500 (Central Daylight Time),548734.7000000477,030_o_f_n_a.png,I,z,400,5,2,1428.0,547306.7000000477,8052,NNB,C,3
4,test,3,0.0,2-Back,1.0,m,Wed Aug 20 2025 17:55:30 GMT-0500 (Central Daylight Time),550384.3999999762,031_y_m_n_a.png,I,m,624,6,2,1645.0,548739.3999999762,8052,NNB,C,4
5,test,3,0.0,2-Back,1.0,m,Wed Aug 20 2025 17:55:30 GMT-0500 (Central Daylight Time),552283.8999999762,082_m_m_n_a.png,I,m,870,7,2,1894.7999999523163,550389.1000000238,8052,NNB,C,5
6,test,3,1.0,2-Back,1.0,z,Wed Aug 20 2025 17:55:30 GMT-0500 (Central Daylight Time),553966.6000000238,031_y_m_n_a.png,I,z,650,8,2,1677.8999999761581,552288.7000000477,8052,NNB,C,6
7,test,3,0.0,2-Back,1.0,m,Wed Aug 20 2025 17:55:30 GMT-0500 (Central Daylight Time),555682.7000000477,028_y_f_n_a.png,I,m,688,9,2,1710.9000000953674,553971.7999999523,8052,NNB,C,7
7,test,3,0.0,2-Back,0.0,m,Wed Aug 20 2025 17:55:30 GMT-0500 (Central Daylight Time),557215.5,092_m_m_n_a.png,I,z,516,10,2,1528.1000000238419,555687.3999999762,8052,NNB,C,8
7,test,3,1.0,2-Back,0.0,z,Wed Aug 20 2025 17:55:30 GMT-0500 (Central Daylight Time),559015.2000000477,028_y_f_n_a.png,I,m,783,11,2,1794.5,557220.7000000477,8052,NNB,C,9
8,test,3,1.0,2-Back,1.0,z,Wed Aug 20 2025 17:55:30 GMT-0500 (Central Daylight Time),560864.2999999523,092_m_m_n_a.png,I,z,830,12,2,1843.3999999761581,559020.8999999762,8052,NNB,C,10
9,test,3,0.0,2-Back,1.0,m,Wed Aug 20 2025 17:55:30 GMT-0500 (Central Daylight Time),562597.3999999762,030_o_f_n_a.png,I,m,710,13,2,1728.3999999761581,560869.0,8052,NNB,C,11
10,test,3,0.0,2-Back,1.0,m,Wed Aug 20 2025 17:55:30 GMT-0500 (Central Daylight Time),564163.5,093_m_f_n_a.png,I,m,546,14,2,1561.1000000238419,562602.3999999762,8052,NNB,C,12
11,test,3,0.0,2-Back,1.0,m,Wed Aug 20 2025 17:55:30 GMT-0500 (Central Daylight Time),565829.6000000238,146_o_m_n_a.png,I,m,635,15,2,1661.3000000715256,564168.2999999523,8052,NNB,C,13
12,test,3,1.0,2-Back,1.0,z,Wed Aug 20 2025 17:55:30 GMT-0500 (Central Daylight Time),567245.8999999762,093_m_f_n_a.png,I,z,385,16,2,1411.3999999761581,565834.5,8052,NNB,C,14
13,test,3,0.0,2-Back,1.0,m,Wed Aug 20 2025 17:55:30 GMT-0500 (Central Daylight Time),569079.3999999762,130_o_f_n_a.png,I,m,688,17,2,1828.5,567250.8999999762,8052,NNB,C,15
14,test,3,0.0,2-Back,1.0,m,Wed Aug 20 2025 17:55:30 GMT-0500 (Central Daylight Time),570594.7000000477,130_o_f_n_a.png,I,m,496,18,2,1510.0,569084.7000000477,8052,NNB,C,16
0,test,4,0.0,2-Back,,,Wed Aug 20 2025 17:55:30 GMT-0500 (Central Daylight Time),570594.7000000477,059_o_m_n_a.png,I,space,4108,1,2,1510.0,569084.7000000477,8052,NNB,C,0
0,test,4,0.0,2-Back,,,Wed Aug 20 2025 17:55:30 GMT-0500 (Central Daylight Time),570594.7000000477,098_y_f_n_a.png,I,space,4108,2,2,1510.0,569084.7000000477,8052,NNB,C,0
1,test,4,1.0,2-Back,1.0,z,Wed Aug 20 2025 17:55:30 GMT-0500 (Central Daylight Time),581724.6000000238,059_o_m_n_a.png,I,z,736,3,2,1761.1000000238419,579963.5,8052,NNB,C,1
2,test,4,1.0,2-Back,1.0,z,Wed Aug 20 2025 17:55:30 GMT-0500 (Central Daylight Time),583207.5,098_y_f_n_a.png,I,z,451,4,2,1477.8999999761581,581729.6000000238,8052,NNB,C,2
3,test,4,0.0,2-Back,1.0,m,Wed Aug 20 2025 17:55:30 GMT-0500 (Central Daylight Time),584840.2000000477,030_o_f_n_a.png,I,m,616,5,2,1628.1000000238419,583212.1000000238,8052,NNB,C,3
4,test,4,0.0,2-Back,1.0,m,Wed Aug 20 2025 17:55:30 GMT-0500 (Central Daylight Time),586372.7999999523,030_o_f_n_a.png,I,m,510,6,2,1527.2999999523163,584845.5,8052,NNB,C,4
5,test,4,0.0,2-Back,1.0,m,Wed Aug 20 2025 17:55:30 GMT-0500 (Central Daylight Time),588089.8999999762,006_m_f_n_a.png,I,m,697,7,2,1712.1000000238419,586377.7999999523,8052,NNB,C,5
6,test,4,0.0,2-Back,1.0,m,Wed Aug 20 2025 17:55:30 GMT-0500 (Central Daylight Time),589706.6000000238,031_y_m_n_a.png,I,m,589,8,2,1611.0,588095.6000000238,8052,NNB,C,6
7,test,4,1.0,2-Back,1.0,z,Wed Aug 20 2025 17:55:30 GMT-0500 (Central Daylight Time),591121.7000000477,006_m_f_n_a.png,I,z,396,9,2,1409.8000000715256,589711.8999999762,8052,NNB,C,7
8,test,4,0.0,2-Back,1.0,m,Wed Aug 20 2025 17:55:30 GMT-0500 (Central Daylight Time),592738.5,092_m_m_n_a.png,I,m,589,10,2,1611.2999999523163,591127.2000000477,8052,NNB,C,8
9,test,4,0.0,2-Back,1.0,m,Wed Aug 20 2025 17:55:30 GMT-0500 (Central Daylight Time),594304.0,031_y_m_n_a.png,I,m,550,11,2,1560.6000000238419,592743.3999999762,8052,NNB,C,9
10,test,4,0.0,2-Back,1.0,m,Wed Aug 20 2025 17:55:30 GMT-0500 (Central Daylight Time),595853.6000000238,130_o_f_n_a.png,I,m,518,12,2,1545.3999999761581,594308.2000000477,8052,NNB,C,10
11,test,4,0.0,2-Back,1.0,m,Wed Aug 20 2025 17:55:30 GMT-0500 (Central Daylight Time),597669.7000000477,057_y_m_n_a.png,I,m,793,13,2,1811.2000000476837,595858.5,8052,NNB,C,11
12,test,4,1.0,2-Back,1.0,z,Wed Aug 20 2025 17:55:30 GMT-0500 (Central Daylight Time),599319.1000000238,130_o_f_n_a.png,I,z,625,14,2,1644.8000000715256,597674.2999999523,8052,NNB,C,12
12,test,4,1.0,2-Back,0.0,z,Wed Aug 20 2025 17:55:30 GMT-0500 (Central Daylight Time),600835.2999999523,057_y_m_n_a.png,I,m,496,15,2,1511.5999999046326,599323.7000000477,8052,NNB,C,13
13,test,4,0.0,2-Back,1.0,m,Wed Aug 20 2025 17:55:30 GMT-0500 (Central Daylight Time),602534.7999999523,082_m_m_n_a.png,I,m,675,16,2,1695.5,600839.2999999523,8052,NNB,C,14
14,test,4,0.0,2-Back,1.0,m,Wed Aug 20 2025 17:55:30 GMT-0500 (Central Daylight Time),604100.8999999762,093_m_f_n_a.png,I,m,544,17,2,1562.5,602538.3999999762,8052,NNB,C,15
15,test,4,1.0,2-Back,1.0,z,Wed Aug 20 2025 17:55:30 GMT-0500 (Central Daylight Time),605733.7999999523,082_m_m_n_a.png,I,z,602,18,2,1629.0999999046326,604104.7000000477,8052,NNB,C,16
0,test,5,1.0,2-Back,,,Wed Aug 20 2025 17:55:30 GMT-0500 (Central Daylight Time),605733.7999999523,057_y_m_n_a.png,I,space,2449,1,2,1629.0999999046326,604104.7000000477,8052,NNB,C,0
0,test,5,1.0,2-Back,,,Wed Aug 20 2025 17:55:30 GMT-0500 (Central Daylight Time),605733.7999999523,093_m_f_n_a.png,I,space,2449,2,2,1629.0999999046326,604104.7000000477,8052,NNB,C,0
1,test,5,1.0,2-Back,1.0,z,Wed Aug 20 2025 17:55:30 GMT-0500 (Central Daylight Time),614830.8999999762,057_y_m_n_a.png,I,z,559,3,2,1578.6000000238419,613252.2999999523,8052,NNB,C,1
2,test,5,1.0,2-Back,1.0,z,Wed Aug 20 2025 17:55:30 GMT-0500 (Central Daylight Time),616333.7999999523,093_m_f_n_a.png,I,z,469,4,2,1498.8999999761581,614834.8999999762,8052,NNB,C,2
3,test,5,0.0,2-Back,1.0,m,Wed Aug 20 2025 17:55:30 GMT-0500 (Central Daylight Time),618146.5,130_o_f_n_a.png,I,m,788,5,2,1808.8999999761581,616337.6000000238,8052,NNB,C,3
4,test,5,0.0,2-Back,1.0,m,Wed Aug 20 2025 17:55:30 GMT-0500 (Central Daylight Time),619862.7000000477,057_y_m_n_a.png,I,m,692,6,2,1712.2000000476837,618150.5,8052,NNB,C,4
5,test,5,0.0,2-Back,1.0,m,Wed Aug 20 2025 17:55:30 GMT-0500 (Central Daylight Time),621628.6000000238,028_y_f_n_a.png,I,m,744,7,2,1762.8000000715256,619865.7999999523,8052,NNB,C,5
6,test,5,0.0,2-Back,1.0,m,Wed Aug 20 2025 17:55:30 GMT-0500 (Central Daylight Time),623211.6000000238,130_o_f_n_a.png,I,m,554,8,2,1579.2000000476837,621632.3999999762,8052,NNB,C,6
7,test,5,1.0,2-Back,1.0,z,Wed Aug 20 2025 17:55:30 GMT-0500 (Central Daylight Time),624811.1000000238,028_y_f_n_a.png,I,z,572,9,2,1594.8000000715256,623216.2999999523,8052,NNB,C,7
8,test,5,0.0,2-Back,1.0,m,Wed Aug 20 2025 17:55:30 GMT-0500 (Central Daylight Time),626394.2000000477,146_o_m_n_a.png,I,m,556,10,2,1579.4000000953674,624814.7999999523,8052,NNB,C,8
9,test,5,0.0,2-Back,1.0,m,Wed Aug 20 2025 17:55:30 GMT-0500 (Central Daylight Time),628043.3999999762,006_m_f_n_a.png,I,m,621,11,2,1644.7999999523163,626398.6000000238,8052,NNB,C,9
10,test,5,0.0,2-Back,1.0,m,Wed Aug 20 2025 17:55:30 GMT-0500 (Central Daylight Time),629759.5,092_m_m_n_a.png,I,m,684,12,2,1712.1000000238419,628047.3999999762,8052,NNB,C,10
11,test,5,0.0,2-Back,1.0,m,Wed Aug 20 2025 17:55:30 GMT-0500 (Central Daylight Time),631409.0,146_o_m_n_a.png,I,m,632,13,2,1646.2000000476837,629762.7999999523,8052,NNB,C,11
12,test,5,1.0,2-Back,1.0,z,Wed Aug 20 2025 17:55:30 GMT-0500 (Central Daylight Time),633075.2999999523,092_m_m_n_a.png,I,z,645,14,2,1662.7999999523163,631412.5,8052,NNB,C,12
13,test,5,0.0,2-Back,1.0,m,Wed Aug 20 2025 17:55:30 GMT-0500 (Central Daylight Time),634691.5,098_y_f_n_a.png,I,m,595,15,2,1612.2999999523163,633079.2000000477,8052,NNB,C,13
14,test,5,0.0,2-Back,1.0,m,Wed Aug 20 2025 17:55:30 GMT-0500 (Central Daylight Time),636340.7999999523,059_o_m_n_a.png,I,m,627,16,2,1645.6999999284744,634695.1000000238,8052,NNB,C,14
15,test,5,0.0,2-Back,1.0,m,Wed Aug 20 2025 17:55:30 GMT-0500 (Central Daylight Time),637857.0,006_m_f_n_a.png,I,m,491,17,2,1512.2999999523163,636344.7000000477,8052,NNB,C,15
16,test,5,1.0,2-Back,1.0,z,Wed Aug 20 2025 17:55:30 GMT-0500 (Central Daylight Time),639306.5,059_o_m_n_a.png,I,z,429,18,2,1445.6000000238419,637860.8999999762,8052,NNB,C,16
