Number,acc_sum,block,block_c,block_cond,con_img,correct,correct_response,datetime,endtime,jitter,project,response,response_time,row_sel,session_number,start_end,starttime,subject_id,task,task_vers,trial
3,1,prac,1,A,circle.png,1,z,Fri Mar 27 2026 10:12:09 GMT-0500 (Central Daylight Time),125171.0,1200,I,z,1486,3,1,3476.300000011921,121694.69999998808,8104,NTS,C,1
1,2,prac,1,A,circle.png,1,z,Fri Mar 27 2026 10:12:09 GMT-0500 (Central Daylight Time),127703.5,1000,I,z,739,1,1,2527.0999999940395,125176.40000000596,8104,NTS,C,2
9,3,prac,1,A,circle.png,1,m,Fri Mar 27 2026 10:12:09 GMT-0500 (Central Daylight Time),130502.5,1500,I,m,500,8,1,2793.800000011921,127708.69999998808,8104,NTS,C,3
8,4,prac,1,A,circle.png,1,m,Fri Mar 27 2026 10:12:09 GMT-0500 (Central Daylight Time),133385.09999999404,1600,I,m,490,7,1,2877.0,130508.09999999404,8104,NTS,C,4
4,5,prac,1,A,circle.png,1,z,Fri Mar 27 2026 10:12:09 GMT-0500 (Central Daylight Time),136134.09999999404,1400,I,z,559,4,1,2742.300000011921,133391.79999998212,8104,NTS,C,5
6,6,prac,1,A,circle.png,1,m,Fri Mar 27 2026 10:12:09 GMT-0500 (Central Daylight Time),139433.19999998808,1900,I,m,605,5,1,3293.699999988079,136139.5,8104,NTS,C,6
7,7,prac,1,A,circle.png,1,m,Fri Mar 27 2026 10:12:09 GMT-0500 (Central Daylight Time),142465.40000000596,1700,I,m,539,6,1,3027.100000023842,139438.29999998212,8104,NTS,C,7
1,8,prac,1,A,circle.png,1,z,Fri Mar 27 2026 10:12:09 GMT-0500 (Central Daylight Time),144914.79999998212,1000,I,z,621,1,1,2444.5999999940395,142470.19999998808,8104,NTS,C,8
9,9,prac,1,A,circle.png,1,m,Fri Mar 27 2026 10:12:09 GMT-0500 (Central Daylight Time),147747.19999998808,1500,I,m,546,8,1,2827.0999999940395,144920.09999999404,8104,NTS,C,9
4,10,prac,1,A,circle.png,1,z,Fri Mar 27 2026 10:12:09 GMT-0500 (Central Daylight Time),150496.29999998212,1400,I,z,550,4,1,2744.0999999940395,147752.19999998808,8104,NTS,C,10
3,11,prac,1,A,circle.png,1,z,Fri Mar 27 2026 10:12:09 GMT-0500 (Central Daylight Time),153112.40000000596,1200,I,z,632,3,1,2610.9000000059605,150501.5,8104,NTS,C,11
2,12,prac,1,A,circle.png,1,z,Fri Mar 27 2026 10:12:09 GMT-0500 (Central Daylight Time),156577.5,2000,I,z,672,2,1,3459.9000000059605,153117.59999999404,8104,NTS,C,12
8,1,prac,1,B,triangle.png,1,m,Fri Mar 27 2026 10:12:09 GMT-0500 (Central Daylight Time),230454.79999998212,1200,I,m,1050,7,1,3044.199999988079,227410.59999999404,8104,NTS,C,1
6,2,prac,1,B,triangle.png,1,m,Fri Mar 27 2026 10:12:09 GMT-0500 (Central Daylight Time),232803.79999998212,1000,I,m,553,5,1,2341.899999976158,230461.90000000596,8104,NTS,C,2
9,3,prac,1,B,triangle.png,1,z,Fri Mar 27 2026 10:12:09 GMT-0500 (Central Daylight Time),235669.79999998212,1400,I,z,677,8,1,2860.699999988079,232809.09999999404,8104,NTS,C,3
9,4,prac,1,B,triangle.png,1,z,Fri Mar 27 2026 10:12:09 GMT-0500 (Central Daylight Time),238618.79999998212,1400,I,z,762,8,1,2944.0999999940395,235674.69999998808,8104,NTS,C,4
2,4,prac,1,B,triangle.png,0,m,Fri Mar 27 2026 10:12:09 GMT-0500 (Central Daylight Time),241834.5,1700,I,z,721,2,1,3210.5,238624.0,8104,NTS,C,5
7,5,prac,1,B,triangle.png,1,z,Fri Mar 27 2026 10:12:09 GMT-0500 (Central Daylight Time),245583.19999998808,2000,I,z,957,6,1,3743.5999999940395,241839.59999999404,8104,NTS,C,6
4,6,prac,1,B,triangle.png,1,m,Fri Mar 27 2026 10:12:09 GMT-0500 (Central Daylight Time),248915.69999998808,1500,I,m,1044,4,1,3327.5999999940395,245588.09999999404,8104,NTS,C,7
3,7,prac,1,B,triangle.png,1,z,Fri Mar 27 2026 10:12:09 GMT-0500 (Central Daylight Time),252097.90000000596,1600,I,z,788,3,1,3177.2000000178814,248920.69999998808,8104,NTS,C,8
1,8,prac,1,B,triangle.png,1,z,Fri Mar 27 2026 10:12:09 GMT-0500 (Central Daylight Time),255546.90000000596,1900,I,z,762,1,1,3444.0,252102.90000000596,8104,NTS,C,9
8,9,prac,1,B,triangle.png,1,m,Fri Mar 27 2026 10:12:09 GMT-0500 (Central Daylight Time),258046.0,1200,I,m,509,7,1,2494.4000000059605,255551.59999999404,8104,NTS,C,10
7,10,prac,1,B,triangle.png,1,z,Fri Mar 27 2026 10:12:09 GMT-0500 (Central Daylight Time),261778.0,2000,I,z,938,6,1,3727.0999999940395,258050.90000000596,8104,NTS,C,11
4,11,prac,1,B,triangle.png,1,m,Fri Mar 27 2026 10:12:09 GMT-0500 (Central Daylight Time),264777.2999999821,1500,I,m,714,4,1,2994.199999988079,261783.09999999404,8104,NTS,C,12
6,1,test,1,A,circle.png,1,m,Fri Mar 27 2026 10:12:09 GMT-0500 (Central Daylight Time),294118.0,1900,I,m,1326,5,1,3244.7000000178814,290873.2999999821,8104,NTS,C,1
8,2,test,1,A,circle.png,1,m,Fri Mar 27 2026 10:12:09 GMT-0500 (Central Daylight Time),296350.2999999821,1600,I,m,601,7,1,2227.0999999940395,294123.1999999881,8104,NTS,C,2
9,3,test,1,A,circle.png,1,m,Fri Mar 27 2026 10:12:09 GMT-0500 (Central Daylight Time),298450.1999999881,1500,I,m,574,8,1,2096.0999999940395,296354.09999999404,8104,NTS,C,3
8,4,test,1,A,circle.png,1,m,Fri Mar 27 2026 10:12:09 GMT-0500 (Central Daylight Time),300715.59999999404,1600,I,m,637,7,1,2261.699999988079,298453.90000000596,8104,NTS,C,4
7,5,test,1,A,circle.png,1,m,Fri Mar 27 2026 10:12:09 GMT-0500 (Central Daylight Time),303015.40000000596,1700,I,m,567,6,1,2296.0,300719.40000000596,8104,NTS,C,5
4,6,test,1,A,circle.png,1,z,Fri Mar 27 2026 10:12:09 GMT-0500 (Central Daylight Time),304981.09999999404,1400,I,z,545,4,1,1962.199999988079,303018.90000000596,8104,NTS,C,6
1,7,test,1,A,circle.png,1,z,Fri Mar 27 2026 10:12:09 GMT-0500 (Central Daylight Time),306547.2999999821,1000,I,z,539,1,1,1562.3999999761581,304984.90000000596,8104,NTS,C,7
2,8,test,1,A,circle.png,1,z,Fri Mar 27 2026 10:12:09 GMT-0500 (Central Daylight Time),309213.09999999404,2000,I,z,644,2,1,2662.5,306550.59999999404,8104,NTS,C,8
6,9,test,1,A,circle.png,1,m,Fri Mar 27 2026 10:12:09 GMT-0500 (Central Daylight Time),311779.1999999881,1900,I,m,647,5,1,2562.4000000059605,309216.7999999821,8104,NTS,C,9
9,10,test,1,A,circle.png,1,m,Fri Mar 27 2026 10:12:09 GMT-0500 (Central Daylight Time),313895.0,1500,I,m,591,8,1,2112.300000011921,311782.6999999881,8104,NTS,C,10
6,11,test,1,A,circle.png,1,m,Fri Mar 27 2026 10:12:09 GMT-0500 (Central Daylight Time),316394.1999999881,1900,I,m,580,5,1,2495.5999999940395,313898.59999999404,8104,NTS,C,11
7,12,test,1,A,circle.png,1,m,Fri Mar 27 2026 10:12:09 GMT-0500 (Central Daylight Time),318660.40000000596,1700,I,m,536,6,1,2262.300000011921,316398.09999999404,8104,NTS,C,12
8,13,test,1,A,circle.png,1,m,Fri Mar 27 2026 10:12:09 GMT-0500 (Central Daylight Time),320792.59999999404,1600,I,m,515,7,1,2128.5,318664.09999999404,8104,NTS,C,13
3,14,test,1,A,circle.png,1,z,Fri Mar 27 2026 10:12:09 GMT-0500 (Central Daylight Time),322575.6999999881,1200,I,z,559,3,1,1779.0999999940395,320796.59999999404,8104,NTS,C,14
4,15,test,1,A,circle.png,1,z,Fri Mar 27 2026 10:12:09 GMT-0500 (Central Daylight Time),324558.2999999821,1400,I,z,551,4,1,1978.5,322579.7999999821,8104,NTS,C,15
4,16,test,1,A,circle.png,1,z,Fri Mar 27 2026 10:12:09 GMT-0500 (Central Daylight Time),326524.40000000596,1400,I,z,538,4,1,1962.800000011921,324561.59999999404,8104,NTS,C,16
1,17,test,1,A,circle.png,1,z,Fri Mar 27 2026 10:12:09 GMT-0500 (Central Daylight Time),328024.0,1000,I,z,475,1,1,1495.300000011921,326528.6999999881,8104,NTS,C,17
6,18,test,1,A,circle.png,1,m,Fri Mar 27 2026 10:12:09 GMT-0500 (Central Daylight Time),330523.2999999821,1900,I,m,580,5,1,2495.7999999821186,328027.5,8104,NTS,C,18
4,19,test,1,A,circle.png,1,z,Fri Mar 27 2026 10:12:09 GMT-0500 (Central Daylight Time),332555.7999999821,1400,I,z,574,4,1,2029.0999999940395,330526.6999999881,8104,NTS,C,19
3,20,test,1,A,circle.png,1,z,Fri Mar 27 2026 10:12:09 GMT-0500 (Central Daylight Time),334321.7999999821,1200,I,z,541,3,1,1762.5,332559.2999999821,8104,NTS,C,20
2,21,test,1,A,circle.png,1,z,Fri Mar 27 2026 10:12:09 GMT-0500 (Central Daylight Time),336922.1999999881,2000,I,z,581,2,1,2596.5999999940395,334325.59999999404,8104,NTS,C,21
3,22,test,1,A,circle.png,1,z,Fri Mar 27 2026 10:12:09 GMT-0500 (Central Daylight Time),338753.6999999881,1200,I,z,615,3,1,1827.4000000059605,336926.2999999821,8104,NTS,C,22
9,23,test,1,A,circle.png,1,m,Fri Mar 27 2026 10:12:09 GMT-0500 (Central Daylight Time),340803.5,1500,I,m,522,8,1,2046.5,338757.0,8104,NTS,C,23
7,24,test,1,A,circle.png,1,m,Fri Mar 27 2026 10:12:09 GMT-0500 (Central Daylight Time),343069.1999999881,1700,I,m,543,6,1,2262.0999999940395,340807.09999999404,8104,NTS,C,24
3,1,test,1,B,triangle.png,1,z,Fri Mar 27 2026 10:12:09 GMT-0500 (Central Daylight Time),379941.2999999821,2000,I,z,675,11,1,2762.899999976158,377178.40000000596,8104,NTS,C,1
7,2,test,1,B,triangle.png,1,z,Fri Mar 27 2026 10:12:09 GMT-0500 (Central Daylight Time),382273.7999999821,1600,I,z,707,14,1,2328.2999999821186,379945.5,8104,NTS,C,2
3,3,test,1,B,triangle.png,1,z,Fri Mar 27 2026 10:12:09 GMT-0500 (Central Daylight Time),384372.90000000596,1600,I,z,471,3,1,2095.300000011921,382277.59999999404,8104,NTS,C,3
4,4,test,1,B,triangle.png,1,m,Fri Mar 27 2026 10:12:09 GMT-0500 (Central Daylight Time),386589.09999999404,1500,I,m,695,4,1,2212.0999999940395,384377.0,8104,NTS,C,4
7,5,test,1,B,triangle.png,1,z,Fri Mar 27 2026 10:12:09 GMT-0500 (Central Daylight Time),388988.0,1600,I,z,772,14,1,2395.2000000178814,386592.7999999821,8104,NTS,C,5
8,6,test,1,B,triangle.png,1,m,Fri Mar 27 2026 10:12:09 GMT-0500 (Central Daylight Time),391504.09999999404,1700,I,m,783,15,1,2512.699999988079,388991.40000000596,8104,NTS,C,6
3,7,test,1,B,triangle.png,1,z,Fri Mar 27 2026 10:12:09 GMT-0500 (Central Daylight Time),393604.5,1600,I,z,471,3,1,2096.5999999940395,391507.90000000596,8104,NTS,C,7
1,8,test,1,B,triangle.png,1,z,Fri Mar 27 2026 10:12:09 GMT-0500 (Central Daylight Time),395586.1999999881,1400,I,z,557,9,1,1978.0,393608.1999999881,8104,NTS,C,8
2,9,test,1,B,triangle.png,1,m,Fri Mar 27 2026 10:12:09 GMT-0500 (Central Daylight Time),397552.1999999881,1200,I,m,741,10,1,1962.4000000059605,395589.7999999821,8104,NTS,C,9
9,10,test,1,B,triangle.png,1,z,Fri Mar 27 2026 10:12:09 GMT-0500 (Central Daylight Time),400501.59999999404,1900,I,z,1028,16,1,2945.699999988079,397555.90000000596,8104,NTS,C,10
6,11,test,1,B,triangle.png,1,m,Fri Mar 27 2026 10:12:09 GMT-0500 (Central Daylight Time),402828.5,1500,I,m,809,13,1,2323.2000000178814,400505.2999999821,8104,NTS,C,11
8,12,test,1,B,triangle.png,1,m,Fri Mar 27 2026 10:12:09 GMT-0500 (Central Daylight Time),404616.7999999821,1200,I,m,558,7,1,1784.0,402832.7999999821,8104,NTS,C,12
9,13,test,1,B,triangle.png,1,z,Fri Mar 27 2026 10:12:09 GMT-0500 (Central Daylight Time),406816.09999999404,1400,I,z,767,8,1,2195.199999988079,404620.90000000596,8104,NTS,C,13
8,14,test,1,B,triangle.png,1,m,Fri Mar 27 2026 10:12:09 GMT-0500 (Central Daylight Time),409148.59999999404,1700,I,m,604,15,1,2329.0,406819.59999999404,8104,NTS,C,14
1,15,test,1,B,triangle.png,1,z,Fri Mar 27 2026 10:12:09 GMT-0500 (Central Daylight Time),411647.90000000596,1900,I,z,576,1,1,2495.5,409152.40000000596,8104,NTS,C,15
2,16,test,1,B,triangle.png,1,m,Fri Mar 27 2026 10:12:09 GMT-0500 (Central Daylight Time),413580.59999999404,1200,I,m,704,10,1,1929.0999999940395,411651.5,8104,NTS,C,16
7,17,test,1,B,triangle.png,1,z,Fri Mar 27 2026 10:12:09 GMT-0500 (Central Daylight Time),416446.2999999821,2000,I,z,844,6,1,2861.899999976158,413584.40000000596,8104,NTS,C,17
4,18,test,1,B,triangle.png,1,m,Fri Mar 27 2026 10:12:09 GMT-0500 (Central Daylight Time),418729.0,1500,I,m,758,4,1,2279.0999999940395,416449.90000000596,8104,NTS,C,18
4,19,test,1,B,triangle.png,1,m,Fri Mar 27 2026 10:12:09 GMT-0500 (Central Daylight Time),420228.1999999881,1000,I,m,478,12,1,1495.4000000059605,418732.7999999821,8104,NTS,C,19
2,20,test,1,B,triangle.png,1,m,Fri Mar 27 2026 10:12:09 GMT-0500 (Central Daylight Time),422778.59999999404,1700,I,m,831,2,1,2547.0,420231.59999999404,8104,NTS,C,20
6,21,test,1,B,triangle.png,1,m,Fri Mar 27 2026 10:12:09 GMT-0500 (Central Daylight Time),424427.09999999404,1000,I,m,623,5,1,1643.5999999940395,422783.5,8104,NTS,C,21
9,22,test,1,B,triangle.png,1,z,Fri Mar 27 2026 10:12:09 GMT-0500 (Central Daylight Time),426559.6999999881,1400,I,z,710,8,1,2128.699999988079,424431.0,8104,NTS,C,22
1,23,test,1,B,triangle.png,1,z,Fri Mar 27 2026 10:12:09 GMT-0500 (Central Daylight Time),428776.6999999881,1400,I,z,784,9,1,2213.2999999821186,426563.40000000596,8104,NTS,C,23
9,24,test,1,B,triangle.png,1,z,Fri Mar 27 2026 10:12:09 GMT-0500 (Central Daylight Time),431524.90000000596,1900,I,z,829,16,1,2744.4000000059605,428780.5,8104,NTS,C,24
8,1,prac,1,C,triangle.png,1,m,Fri Mar 27 2026 10:12:09 GMT-0500 (Central Daylight Time),491073.09999999404,1400,I,m,1139,7,1,3327.4000000059605,487745.6999999881,8104,NTS,C,1
6,1,prac,1,C,circle.png,0,m,Fri Mar 27 2026 10:12:09 GMT-0500 (Central Daylight Time),495371.5,2000,I,None,1516,5,1,4292.9000000059605,491078.59999999404,8104,NTS,C,2
8,1,prac,1,C,triangle.png,0,m,Fri Mar 27 2026 10:12:09 GMT-0500 (Central Daylight Time),499070.59999999404,1400,I,None,1516,7,1,3694.300000011921,495376.2999999821,8104,NTS,C,3
4,1,prac,1,C,circle.png,0,z,Fri Mar 27 2026 10:12:09 GMT-0500 (Central Daylight Time),502369.40000000596,1000,I,None,1516,4,1,3294.0,499075.40000000596,8104,NTS,C,4
2,1,prac,1,C,triangle.png,0,m,Fri Mar 27 2026 10:12:09 GMT-0500 (Central Daylight Time),506269.1999999881,1600,I,None,1516,2,1,3894.7999999821186,502374.40000000596,8104,NTS,C,5
1,2,prac,1,C,circle.png,1,z,Fri Mar 27 2026 10:12:09 GMT-0500 (Central Daylight Time),509567.09999999404,1700,I,z,800,1,1,3292.9000000059605,506274.1999999881,8104,NTS,C,6
9,2,prac,1,C,circle.png,0,m,Fri Mar 27 2026 10:12:09 GMT-0500 (Central Daylight Time),513765.7999999821,1900,I,None,1516,8,1,4193.5999999940395,509572.1999999881,8104,NTS,C,7
3,3,prac,1,C,triangle.png,1,z,Fri Mar 27 2026 10:12:09 GMT-0500 (Central Daylight Time),517514.40000000596,1500,I,z,1454,3,1,3743.5,513770.90000000596,8104,NTS,C,8
7,3,prac,1,C,triangle.png,0,z,Fri Mar 27 2026 10:12:09 GMT-0500 (Central Daylight Time),520756.6999999881,1200,I,m,1253,6,1,3238.0,517518.6999999881,8104,NTS,C,9
3,4,prac,1,C,triangle.png,1,z,Fri Mar 27 2026 10:12:09 GMT-0500 (Central Daylight Time),524229.1999999881,1500,I,z,1176,3,1,3466.7999999821186,520762.40000000596,8104,NTS,C,10
7,5,prac,1,C,triangle.png,1,z,Fri Mar 27 2026 10:12:09 GMT-0500 (Central Daylight Time),527644.7999999821,1200,I,z,1419,6,1,3410.5999999940395,524234.1999999881,8104,NTS,C,11
2,5,prac,1,C,triangle.png,0,m,Fri Mar 27 2026 10:12:09 GMT-0500 (Central Daylight Time),531060.2999999821,1600,I,z,1019,2,1,3410.899999976158,527649.400000006,8104,NTS,C,12
4,1,prac,2,C,circle.png,1,z,Fri Mar 27 2026 10:12:09 GMT-0500 (Central Daylight Time),544656.2999999821,1000,I,z,1273,4,1,3061.2999999821186,541595.0,8104,NTS,C,1
7,1,prac,2,C,triangle.png,0,z,Fri Mar 27 2026 10:12:09 GMT-0500 (Central Daylight Time),548155.0,1200,I,None,1516,6,1,3493.2000000178814,544661.7999999821,8104,NTS,C,2
9,1,prac,2,C,circle.png,0,m,Fri Mar 27 2026 10:12:09 GMT-0500 (Central Daylight Time),552353.7999999821,1900,I,None,1516,8,1,4193.899999976158,548159.900000006,8104,NTS,C,3
8,1,prac,2,C,triangle.png,0,m,Fri Mar 27 2026 10:12:09 GMT-0500 (Central Daylight Time),555402.7999999821,1400,I,z,863,7,1,3043.399999976158,552359.400000006,8104,NTS,C,4
1,1,prac,2,C,circle.png,0,z,Fri Mar 27 2026 10:12:09 GMT-0500 (Central Daylight Time),558651.6999999881,1700,I,m,762,1,1,3244.0999999940395,555407.599999994,8104,NTS,C,5
2,1,prac,2,C,triangle.png,0,m,Fri Mar 27 2026 10:12:09 GMT-0500 (Central Daylight Time),562283.900000006,1600,I,z,1236,2,1,3627.5,558656.400000006,8104,NTS,C,6
3,2,prac,2,C,triangle.png,1,z,Fri Mar 27 2026 10:12:09 GMT-0500 (Central Daylight Time),565649.599999994,1500,I,z,1072,3,1,3360.4000000059605,562289.1999999881,8104,NTS,C,7
6,3,prac,2,C,circle.png,1,m,Fri Mar 27 2026 10:12:09 GMT-0500 (Central Daylight Time),569365.0,2000,I,m,823,5,1,3710.7000000178814,565654.2999999821,8104,NTS,C,8
9,4,prac,2,C,circle.png,1,m,Fri Mar 27 2026 10:12:09 GMT-0500 (Central Daylight Time),573247.400000006,1900,I,m,1192,8,1,3877.7000000178814,569369.6999999881,8104,NTS,C,9
3,5,prac,2,C,triangle.png,1,z,Fri Mar 27 2026 10:12:09 GMT-0500 (Central Daylight Time),576346.1999999881,1500,I,z,805,3,1,3093.9000000059605,573252.2999999821,8104,NTS,C,10
8,5,prac,2,C,triangle.png,0,m,Fri Mar 27 2026 10:12:09 GMT-0500 (Central Daylight Time),580045.0,1400,I,None,1516,7,1,3693.9000000059605,576351.099999994,8104,NTS,C,11
2,5,prac,2,C,triangle.png,0,m,Fri Mar 27 2026 10:12:09 GMT-0500 (Central Daylight Time),583110.6999999881,1600,I,z,676,2,1,3061.0999999940395,580049.599999994,8104,NTS,C,12
6,1,test,1,C,triangle.png,1,m,Fri Mar 27 2026 10:12:09 GMT-0500 (Central Daylight Time),605970.2999999821,1000,I,m,798,13,1,1812.8999999761581,604157.400000006,8104,NTS,C,1
6,2,test,1,C,circle.png,1,m,Fri Mar 27 2026 10:12:09 GMT-0500 (Central Daylight Time),609302.5,1900,I,m,1401,21,1,3327.9000000059605,605974.599999994,8104,NTS,C,2
3,3,test,1,C,circle.png,1,z,Fri Mar 27 2026 10:12:09 GMT-0500 (Central Daylight Time),611835.099999994,1600,I,z,906,19,1,2529.0,609306.099999994,8104,NTS,C,3
1,4,test,1,C,circle.png,1,z,Fri Mar 27 2026 10:12:09 GMT-0500 (Central Daylight Time),613568.099999994,1000,I,z,709,1,1,1729.300000011921,611838.7999999821,8104,NTS,C,4
7,5,test,1,C,triangle.png,1,z,Fri Mar 27 2026 10:12:09 GMT-0500 (Central Daylight Time),616700.2999999821,1700,I,z,1412,22,1,3127.7999999821186,613572.5,8104,NTS,C,5
2,6,test,1,C,circle.png,1,z,Fri Mar 27 2026 10:12:09 GMT-0500 (Central Daylight Time),619216.1999999881,1700,I,z,792,18,1,2512.0,616704.1999999881,8104,NTS,C,6
1,7,test,1,C,triangle.png,1,z,Fri Mar 27 2026 10:12:09 GMT-0500 (Central Daylight Time),622581.7999999821,1900,I,z,1443,17,1,3360.7999999821186,619221.0,8104,NTS,C,7
8,8,test,1,C,triangle.png,1,m,Fri Mar 27 2026 10:12:09 GMT-0500 (Central Daylight Time),625280.900000006,1600,I,m,1075,7,1,2695.100000023842,622585.7999999821,8104,NTS,C,8
3,9,test,1,C,circle.png,1,z,Fri Mar 27 2026 10:12:09 GMT-0500 (Central Daylight Time),627713.2999999821,1600,I,z,815,11,1,2428.699999988079,625284.599999994,8104,NTS,C,9
4,10,test,1,C,circle.png,1,z,Fri Mar 27 2026 10:12:09 GMT-0500 (Central Daylight Time),629896.1999999881,1400,I,z,750,4,1,2179.2999999821186,627716.900000006,8104,NTS,C,10
9,11,test,1,C,circle.png,1,m,Fri Mar 27 2026 10:12:09 GMT-0500 (Central Daylight Time),632078.900000006,1500,I,m,661,8,1,2178.800000011921,629900.099999994,8104,NTS,C,11
2,12,test,1,C,circle.png,1,z,Fri Mar 27 2026 10:12:09 GMT-0500 (Central Daylight Time),634561.1999999881,1700,I,z,758,10,1,2478.4000000059605,632082.7999999821,8104,NTS,C,12
8,13,test,1,C,triangle.png,1,m,Fri Mar 27 2026 10:12:09 GMT-0500 (Central Daylight Time),637260.5,1600,I,m,1072,23,1,2695.5999999940395,634564.900000006,8104,NTS,C,13
4,14,test,1,C,triangle.png,1,m,Fri Mar 27 2026 10:12:09 GMT-0500 (Central Daylight Time),639560.0,1500,I,m,775,12,1,2295.9000000059605,637264.099999994,8104,NTS,C,14
9,15,test,1,C,triangle.png,1,z,Fri Mar 27 2026 10:12:09 GMT-0500 (Central Daylight Time),641808.900000006,1400,I,z,831,16,1,2245.100000023842,639563.7999999821,8104,NTS,C,15
6,15,test,1,C,circle.png,0,m,Fri Mar 27 2026 10:12:09 GMT-0500 (Central Daylight Time),644642.5,1900,I,z,915,5,1,2829.800000011921,641812.6999999881,8104,NTS,C,16
9,16,test,1,C,circle.png,1,m,Fri Mar 27 2026 10:12:09 GMT-0500 (Central Daylight Time),646924.099999994,1500,I,m,754,24,1,2277.5999999940395,644646.5,8104,NTS,C,17
4,16,test,1,C,triangle.png,0,m,Fri Mar 27 2026 10:12:09 GMT-0500 (Central Daylight Time),649573.099999994,1500,I,z,1128,20,1,2645.0999999940395,646928.0,8104,NTS,C,18
1,17,test,1,C,triangle.png,1,z,Fri Mar 27 2026 10:12:09 GMT-0500 (Central Daylight Time),652255.6999999881,1900,I,z,760,9,1,2679.0999999940395,649576.599999994,8104,NTS,C,19
7,18,test,1,C,circle.png,1,m,Fri Mar 27 2026 10:12:09 GMT-0500 (Central Daylight Time),655304.599999994,2000,I,m,1016,14,1,3045.0999999940395,652259.5,8104,NTS,C,20
3,19,test,1,C,triangle.png,1,z,Fri Mar 27 2026 10:12:09 GMT-0500 (Central Daylight Time),657537.1999999881,1200,I,z,1016,3,1,2228.5999999940395,655308.599999994,8104,NTS,C,21
7,20,test,1,C,triangle.png,1,z,Fri Mar 27 2026 10:12:09 GMT-0500 (Central Daylight Time),660103.2999999821,1700,I,z,834,6,1,2562.7999999821186,657540.5,8104,NTS,C,22
8,21,test,1,C,circle.png,1,m,Fri Mar 27 2026 10:12:09 GMT-0500 (Central Daylight Time),662196.099999994,1200,I,m,876,15,1,2088.800000011921,660107.2999999821,8104,NTS,C,23
2,21,test,1,C,triangle.png,0,m,Fri Mar 27 2026 10:12:09 GMT-0500 (Central Daylight Time),664985.0,2000,I,z,783,2,1,2784.0999999940395,662200.900000006,8104,NTS,C,24
9,0,test,2,C,triangle.png,0,z,Fri Mar 27 2026 10:12:09 GMT-0500 (Central Daylight Time),681613.2999999821,1400,I,m,712,16,1,2129.5999999940395,679483.6999999881,8104,NTS,C,1
7,1,test,2,C,triangle.png,1,z,Fri Mar 27 2026 10:12:09 GMT-0500 (Central Daylight Time),684046.0,1700,I,z,702,6,1,2428.0999999940395,681617.900000006,8104,NTS,C,2
8,2,test,2,C,triangle.png,1,m,Fri Mar 27 2026 10:12:09 GMT-0500 (Central Daylight Time),686662.5,1600,I,m,958,7,1,2612.7000000178814,684049.7999999821,8104,NTS,C,3
4,2,test,2,C,triangle.png,0,m,Fri Mar 27 2026 10:12:09 GMT-0500 (Central Daylight Time),688877.5,1500,I,z,687,12,1,2211.0999999940395,686666.400000006,8104,NTS,C,4
4,2,test,2,C,circle.png,0,z,Fri Mar 27 2026 10:12:09 GMT-0500 (Central Daylight Time),691376.6999999881,1400,I,m,1074,4,1,2495.5,688881.1999999881,8104,NTS,C,5
7,3,test,2,C,circle.png,1,m,Fri Mar 27 2026 10:12:09 GMT-0500 (Central Daylight Time),694092.5,2000,I,m,687,22,1,2711.5999999940395,691380.900000006,8104,NTS,C,6
6,4,test,2,C,triangle.png,1,m,Fri Mar 27 2026 10:12:09 GMT-0500 (Central Daylight Time),696158.5,1000,I,m,1043,21,1,2061.800000011921,694096.6999999881,8104,NTS,C,7
9,5,test,2,C,triangle.png,1,z,Fri Mar 27 2026 10:12:09 GMT-0500 (Central Daylight Time),698374.7999999821,1400,I,z,785,24,1,2212.2999999821186,696162.5,8104,NTS,C,8
1,6,test,2,C,triangle.png,1,z,Fri Mar 27 2026 10:12:09 GMT-0500 (Central Daylight Time),701107.0,1900,I,z,812,17,1,2728.5999999940395,698378.400000006,8104,NTS,C,9
6,7,test,2,C,circle.png,1,m,Fri Mar 27 2026 10:12:09 GMT-0500 (Central Daylight Time),703839.599999994,1900,I,m,800,5,1,2729.0,701110.599999994,8104,NTS,C,10
8,8,test,2,C,circle.png,1,m,Fri Mar 27 2026 10:12:09 GMT-0500 (Central Daylight Time),705822.400000006,1200,I,m,753,15,1,1979.0,703843.400000006,8104,NTS,C,11
6,9,test,2,C,triangle.png,1,m,Fri Mar 27 2026 10:12:09 GMT-0500 (Central Daylight Time),708321.2999999821,1000,I,m,1473,13,1,2495.199999988079,705826.099999994,8104,NTS,C,12
2,10,test,2,C,circle.png,1,z,Fri Mar 27 2026 10:12:09 GMT-0500 (Central Daylight Time),710904.1999999881,1700,I,z,859,18,1,2579.4000000059605,708324.7999999821,8104,NTS,C,13
1,10,test,2,C,triangle.png,0,z,Fri Mar 27 2026 10:12:09 GMT-0500 (Central Daylight Time),713769.6999999881,1900,I,m,941,9,1,2861.699999988079,710908.0,8104,NTS,C,14
8,11,test,2,C,circle.png,1,m,Fri Mar 27 2026 10:12:09 GMT-0500 (Central Daylight Time),715952.400000006,1200,I,m,957,23,1,2178.7000000178814,713773.6999999881,8104,NTS,C,15
3,11,test,2,C,triangle.png,0,z,Fri Mar 27 2026 10:12:09 GMT-0500 (Central Daylight Time),718685.1999999881,1200,I,None,1516,3,1,2728.699999988079,715956.5,8104,NTS,C,16
3,12,test,2,C,circle.png,1,z,Fri Mar 27 2026 10:12:09 GMT-0500 (Central Daylight Time),721584.0,1600,I,z,1267,19,1,2895.0999999940395,718688.900000006,8104,NTS,C,17
2,13,test,2,C,triangle.png,1,m,Fri Mar 27 2026 10:12:09 GMT-0500 (Central Daylight Time),724666.400000006,2000,I,m,1065,2,1,3078.600000023842,721587.7999999821,8104,NTS,C,18
1,14,test,2,C,circle.png,1,z,Fri Mar 27 2026 10:12:09 GMT-0500 (Central Daylight Time),726432.400000006,1000,I,z,741,1,1,1762.0,724670.400000006,8104,NTS,C,19
4,15,test,2,C,triangle.png,1,m,Fri Mar 27 2026 10:12:09 GMT-0500 (Central Daylight Time),729098.0,1500,I,m,1148,20,1,2661.5,726436.5,8104,NTS,C,20
9,16,test,2,C,circle.png,1,m,Fri Mar 27 2026 10:12:09 GMT-0500 (Central Daylight Time),731964.1999999881,1500,I,m,1338,8,1,2862.4000000059605,729101.7999999821,8104,NTS,C,21
2,17,test,2,C,circle.png,1,z,Fri Mar 27 2026 10:12:09 GMT-0500 (Central Daylight Time),734330.5,1700,I,z,640,10,1,2362.5,731968.0,8104,NTS,C,22
7,18,test,2,C,circle.png,1,m,Fri Mar 27 2026 10:12:09 GMT-0500 (Central Daylight Time),737112.2999999821,2000,I,m,766,14,1,2777.7999999821186,734334.5,8104,NTS,C,23
3,19,test,2,C,circle.png,1,z,Fri Mar 27 2026 10:12:09 GMT-0500 (Central Daylight Time),739395.0,1600,I,z,656,11,1,2278.5999999940395,737116.400000006,8104,NTS,C,24
3,1,test,3,C,triangle.png,1,z,Fri Mar 27 2026 10:12:09 GMT-0500 (Central Daylight Time),746842.7999999821,1200,I,z,981,19,1,2196.0999999940395,744646.6999999881,8104,NTS,C,1
3,2,test,3,C,circle.png,1,z,Fri Mar 27 2026 10:12:09 GMT-0500 (Central Daylight Time),749542.0,1600,I,z,1070,11,1,2694.0,746848.0,8104,NTS,C,2
4,2,test,3,C,circle.png,0,z,Fri Mar 27 2026 10:12:09 GMT-0500 (Central Daylight Time),751757.900000006,1400,I,m,786,4,1,2212.0,749545.900000006,8104,NTS,C,3
8,3,test,3,C,triangle.png,1,m,Fri Mar 27 2026 10:12:09 GMT-0500 (Central Daylight Time),754057.0,1600,I,m,682,23,1,2295.0999999940395,751761.900000006,8104,NTS,C,4
8,4,test,3,C,circle.png,1,m,Fri Mar 27 2026 10:12:09 GMT-0500 (Central Daylight Time),756601.7999999821,1200,I,m,1181,15,1,2541.0999999940395,754060.6999999881,8104,NTS,C,5
4,5,test,3,C,circle.png,1,z,Fri Mar 27 2026 10:12:09 GMT-0500 (Central Daylight Time),759322.099999994,1400,I,z,1290,20,1,2716.4000000059605,756605.6999999881,8104,NTS,C,6
2,6,test,3,C,triangle.png,1,m,Fri Mar 27 2026 10:12:09 GMT-0500 (Central Daylight Time),762704.599999994,2000,I,m,1349,2,1,3378.9000000059605,759325.6999999881,8104,NTS,C,7
6,7,test,3,C,circle.png,1,m,Fri Mar 27 2026 10:12:09 GMT-0500 (Central Daylight Time),765387.0,1900,I,m,764,21,1,2678.5999999940395,762708.400000006,8104,NTS,C,8
2,8,test,3,C,circle.png,1,z,Fri Mar 27 2026 10:12:09 GMT-0500 (Central Daylight Time),767686.099999994,1700,I,z,569,10,1,2295.5,765390.599999994,8104,NTS,C,9
1,9,test,3,C,circle.png,1,z,Fri Mar 27 2026 10:12:09 GMT-0500 (Central Daylight Time),769318.900000006,1000,I,z,601,1,1,1628.9000000059605,767690.0,8104,NTS,C,10
6,10,test,3,C,triangle.png,1,m,Fri Mar 27 2026 10:12:09 GMT-0500 (Central Daylight Time),771535.0,1000,I,m,1192,13,1,2212.0,769323.0,8104,NTS,C,11
6,11,test,3,C,circle.png,1,m,Fri Mar 27 2026 10:12:09 GMT-0500 (Central Daylight Time),774500.6999999881,1900,I,m,1038,5,1,2962.0,771538.6999999881,8104,NTS,C,12
9,12,test,3,C,circle.png,1,m,Fri Mar 27 2026 10:12:09 GMT-0500 (Central Daylight Time),776633.400000006,1500,I,m,607,24,1,2128.5,774504.900000006,8104,NTS,C,13
3,13,test,3,C,triangle.png,1,z,Fri Mar 27 2026 10:12:09 GMT-0500 (Central Daylight Time),778949.400000006,1200,I,z,1087,3,1,2312.4000000059605,776637.0,8104,NTS,C,14
9,13,test,3,C,triangle.png,0,z,Fri Mar 27 2026 10:12:09 GMT-0500 (Central Daylight Time),781398.6999999881,1400,I,m,1018,16,1,2445.2999999821186,778953.400000006,8104,NTS,C,15
1,14,test,3,C,triangle.png,1,z,Fri Mar 27 2026 10:12:09 GMT-0500 (Central Daylight Time),784114.1999999881,1900,I,z,798,9,1,2711.699999988079,781402.5,8104,NTS,C,16
2,14,test,3,C,triangle.png,0,m,Fri Mar 27 2026 10:12:09 GMT-0500 (Central Daylight Time),787329.900000006,2000,I,z,1190,18,1,3212.0,784117.900000006,8104,NTS,C,17
1,15,test,3,C,circle.png,1,z,Fri Mar 27 2026 10:12:09 GMT-0500 (Central Daylight Time),789229.599999994,1000,I,z,869,17,1,1895.699999988079,787333.900000006,8104,NTS,C,18
7,16,test,3,C,triangle.png,1,z,Fri Mar 27 2026 10:12:09 GMT-0500 (Central Daylight Time),792295.099999994,1700,I,z,1335,22,1,3061.5999999940395,789233.5,8104,NTS,C,19
8,17,test,3,C,triangle.png,1,m,Fri Mar 27 2026 10:12:09 GMT-0500 (Central Daylight Time),794694.2999999821,1600,I,m,769,7,1,2395.2999999821186,792299.0,8104,NTS,C,20
4,18,test,3,C,triangle.png,1,m,Fri Mar 27 2026 10:12:09 GMT-0500 (Central Daylight Time),796994.099999994,1500,I,m,774,12,1,2296.0,794698.099999994,8104,NTS,C,21
9,19,test,3,C,circle.png,1,m,Fri Mar 27 2026 10:12:09 GMT-0500 (Central Daylight Time),799476.1999999881,1500,I,m,962,8,1,2478.5999999940395,796997.599999994,8104,NTS,C,22
7,19,test,3,C,triangle.png,0,z,Fri Mar 27 2026 10:12:09 GMT-0500 (Central Daylight Time),802276.5,1700,I,m,1079,6,1,2796.0999999940395,799480.400000006,8104,NTS,C,23
7,20,test,3,C,circle.png,1,m,Fri Mar 27 2026 10:12:09 GMT-0500 (Central Daylight Time),805074.400000006,2000,I,m,773,14,1,2793.800000011921,802280.599999994,8104,NTS,C,24
4,1,test,4,C,triangle.png,1,m,Fri Mar 27 2026 10:12:09 GMT-0500 (Central Daylight Time),813938.1999999881,1500,I,m,865,12,1,2378.7999999821186,811559.400000006,8104,NTS,C,1
7,2,test,4,C,circle.png,1,m,Fri Mar 27 2026 10:12:09 GMT-0500 (Central Daylight Time),816837.599999994,2000,I,m,870,14,1,2894.199999988079,813943.400000006,8104,NTS,C,2
1,3,test,4,C,circle.png,1,z,Fri Mar 27 2026 10:12:09 GMT-0500 (Central Daylight Time),818603.599999994,1000,I,z,738,1,1,1762.199999988079,816841.400000006,8104,NTS,C,3
6,4,test,4,C,circle.png,1,m,Fri Mar 27 2026 10:12:09 GMT-0500 (Central Daylight Time),821369.599999994,1900,I,m,841,5,1,2761.800000011921,818607.7999999821,8104,NTS,C,4
7,5,test,4,C,triangle.png,1,z,Fri Mar 27 2026 10:12:09 GMT-0500 (Central Daylight Time),824185.099999994,1700,I,z,1091,22,1,2811.699999988079,821373.400000006,8104,NTS,C,5
4,6,test,4,C,circle.png,1,z,Fri Mar 27 2026 10:12:09 GMT-0500 (Central Daylight Time),826735.5,1400,I,z,1126,4,1,2546.5999999940395,824188.900000006,8104,NTS,C,6
8,7,test,4,C,triangle.png,1,m,Fri Mar 27 2026 10:12:09 GMT-0500 (Central Daylight Time),829333.400000006,1600,I,m,969,23,1,2593.7000000178814,826739.6999999881,8104,NTS,C,7
6,8,test,4,C,circle.png,1,m,Fri Mar 27 2026 10:12:09 GMT-0500 (Central Daylight Time),832165.900000006,1900,I,m,902,21,1,2827.9000000059605,829338.0,8104,NTS,C,8
4,9,test,4,C,circle.png,1,z,Fri Mar 27 2026 10:12:09 GMT-0500 (Central Daylight Time),834448.7999999821,1400,I,z,850,20,1,2279.0,832169.7999999821,8104,NTS,C,9
8,10,test,4,C,circle.png,1,m,Fri Mar 27 2026 10:12:09 GMT-0500 (Central Daylight Time),836364.7999999821,1200,I,m,696,15,1,1912.2999999821186,834452.5,8104,NTS,C,10
9,11,test,4,C,circle.png,1,m,Fri Mar 27 2026 10:12:09 GMT-0500 (Central Daylight Time),838614.0,1500,I,m,728,8,1,2245.5,836368.5,8104,NTS,C,11
3,12,test,4,C,triangle.png,1,z,Fri Mar 27 2026 10:12:09 GMT-0500 (Central Daylight Time),841096.5,1200,I,z,1257,19,1,2478.7000000178814,838617.7999999821,8104,NTS,C,12
2,12,test,4,C,triangle.png,0,m,Fri Mar 27 2026 10:12:09 GMT-0500 (Central Daylight Time),844078.900000006,2000,I,z,960,18,1,2978.4000000059605,841100.5,8104,NTS,C,13
2,13,test,4,C,circle.png,1,z,Fri Mar 27 2026 10:12:09 GMT-0500 (Central Daylight Time),846494.900000006,1700,I,z,693,10,1,2412.2000000178814,844082.6999999881,8104,NTS,C,14
1,13,test,4,C,triangle.png,0,z,Fri Mar 27 2026 10:12:09 GMT-0500 (Central Daylight Time),849927.2999999821,1900,I,None,1516,9,1,3428.5,846498.7999999821,8104,NTS,C,15
3,13,test,4,C,circle.png,0,z,Fri Mar 27 2026 10:12:09 GMT-0500 (Central Daylight Time),852776.2999999821,1600,I,m,1233,11,1,2845.199999988079,849931.099999994,8104,NTS,C,16
3,14,test,4,C,triangle.png,1,z,Fri Mar 27 2026 10:12:09 GMT-0500 (Central Daylight Time),855108.900000006,1200,I,z,1104,3,1,2329.100000023842,852779.7999999821,8104,NTS,C,17
9,15,test,4,C,triangle.png,1,z,Fri Mar 27 2026 10:12:09 GMT-0500 (Central Daylight Time),857642.400000006,1400,I,z,1115,16,1,2529.800000011921,855112.599999994,8104,NTS,C,18
6,16,test,4,C,triangle.png,1,m,Fri Mar 27 2026 10:12:09 GMT-0500 (Central Daylight Time),859307.599999994,1000,I,m,647,13,1,1661.300000011921,857646.2999999821,8104,NTS,C,19
1,17,test,4,C,circle.png,1,z,Fri Mar 27 2026 10:12:09 GMT-0500 (Central Daylight Time),861056.900000006,1000,I,z,733,17,1,1745.800000011921,859311.099999994,8104,NTS,C,20
9,18,test,4,C,circle.png,1,m,Fri Mar 27 2026 10:12:09 GMT-0500 (Central Daylight Time),863356.1999999881,1500,I,m,771,24,1,2295.5,861060.6999999881,8104,NTS,C,21
7,19,test,4,C,triangle.png,1,z,Fri Mar 27 2026 10:12:09 GMT-0500 (Central Daylight Time),866188.7999999821,1700,I,z,1103,6,1,2828.699999988079,863360.099999994,8104,NTS,C,22
8,20,test,4,C,triangle.png,1,m,Fri Mar 27 2026 10:12:09 GMT-0500 (Central Daylight Time),868654.599999994,1600,I,m,836,7,1,2461.9000000059605,866192.6999999881,8104,NTS,C,23
2,21,test,4,C,triangle.png,1,m,Fri Mar 27 2026 10:12:09 GMT-0500 (Central Daylight Time),871520.400000006,2000,I,m,841,2,1,2861.800000011921,868658.599999994,8104,NTS,C,24
