acc_sum,block,block_c,change,condition,correct,correct_response,datetime,endtime,face,project,response,response_time,row_sel,session_number,start_end,starttime,subject_id,task,task_vers,trial
0,prac,1,,1-Back,,,Fri Mar 27 2026 15:47:07 GMT-0400 (Eastern Daylight Time),,124_o_f_d_a.png,I,space,11578,1,1,,,1,VNB,A,0
1,prac,1,0.0,1-Back,1.0,m,Fri Mar 27 2026 15:47:07 GMT-0400 (Eastern Daylight Time),133511.10000002384,071_y_f_n_a.png,I,m,1056,2,1,1869.5,131641.60000002384,1,VNB,A,1
2,prac,1,0.0,1-Back,1.0,m,Fri Mar 27 2026 15:47:07 GMT-0400 (Eastern Daylight Time),135277.60000002384,165_m_m_h_a.png,I,m,935,3,1,1753.3000000715256,133524.29999995232,1,VNB,A,2
3,prac,1,0.0,1-Back,1.0,m,Fri Mar 27 2026 15:47:07 GMT-0400 (Eastern Daylight Time),137010.89999997616,109_y_m_d_a.png,I,m,891,4,1,1722.7000000476837,135288.19999992847,1,VNB,A,3
4,prac,1,0.0,1-Back,1.0,m,Fri Mar 27 2026 15:47:07 GMT-0400 (Eastern Daylight Time),138927.60000002384,124_o_f_n_a.png,I,m,1042,5,1,1907.1000000238419,137020.5,1,VNB,A,4
5,prac,1,1.0,1-Back,1.0,z,Fri Mar 27 2026 15:47:07 GMT-0400 (Eastern Daylight Time),140577.60000002384,109_y_m_n_a.png,I,z,804,6,1,1638.3000000715256,138939.29999995232,1,VNB,A,5
6,prac,1,0.0,1-Back,1.0,m,Fri Mar 27 2026 15:47:07 GMT-0400 (Eastern Daylight Time),142210.79999995232,039_o_m_h_a.png,I,m,801,7,1,1623.1000000238419,140587.69999992847,1,VNB,A,6
7,prac,1,0.0,1-Back,1.0,m,Fri Mar 27 2026 15:47:07 GMT-0400 (Eastern Daylight Time),143794.10000002384,139_m_f_d_a.png,I,m,749,8,1,1573.0,142221.10000002384,1,VNB,A,7
8,prac,1,1.0,1-Back,1.0,z,Fri Mar 27 2026 15:47:07 GMT-0400 (Eastern Daylight Time),145460.89999997616,071_y_f_d_a.png,I,z,832,9,1,1657.8999999761581,143803.0,1,VNB,A,8
9,prac,1,0.0,1-Back,1.0,m,Fri Mar 27 2026 15:47:07 GMT-0400 (Eastern Daylight Time),146994.19999992847,165_m_m_n_a.png,I,m,692,10,1,1517.6999999284744,145476.5,1,VNB,A,9
9,prac,1,0.0,1-Back,0.0,m,Fri Mar 27 2026 15:47:07 GMT-0400 (Eastern Daylight Time),148627.29999995232,124_o_f_h_a.png,I,z,771,11,1,1620.1999999284744,147007.10000002384,1,VNB,A,10
10,prac,1,0.0,1-Back,1.0,m,Fri Mar 27 2026 15:47:07 GMT-0400 (Eastern Daylight Time),150394.19999992847,109_y_m_d_a.png,I,m,983,12,1,1757.0,148637.19999992847,1,VNB,A,11
0,test,1,0.0,1-Back,,,Fri Mar 27 2026 15:47:07 GMT-0400 (Eastern Daylight Time),150394.19999992847,071_y_f_d_a.png,I,space,18717,1,1,1757.0,148637.19999992847,1,VNB,A,0
1,test,1,0.0,1-Back,1.0,m,Fri Mar 27 2026 15:47:07 GMT-0400 (Eastern Daylight Time),179244.19999992847,139_m_f_n_a.png,I,m,709,2,1,1726.0999999046326,177518.10000002384,1,VNB,A,1
2,test,1,0.0,1-Back,1.0,m,Fri Mar 27 2026 15:47:07 GMT-0400 (Eastern Daylight Time),180944.0,039_o_m_h_a.png,I,m,672,3,1,1691.3000000715256,179252.69999992847,1,VNB,A,2
3,test,1,1.0,1-Back,1.0,z,Fri Mar 27 2026 15:47:07 GMT-0400 (Eastern Daylight Time),182644.0,165_m_m_h_a.png,I,z,668,4,1,1689.0,180955.0,1,VNB,A,3
4,test,1,0.0,1-Back,1.0,m,Fri Mar 27 2026 15:47:07 GMT-0400 (Eastern Daylight Time),184194.10000002384,124_o_f_n_a.png,I,m,520,5,1,1543.2000000476837,182650.89999997616,1,VNB,A,4
5,test,1,0.0,1-Back,1.0,m,Fri Mar 27 2026 15:47:07 GMT-0400 (Eastern Daylight Time),185994.0,109_y_m_d_a.png,I,m,779,6,1,1791.8999999761581,184202.10000002384,1,VNB,A,5
6,test,1,1.0,1-Back,1.0,z,Fri Mar 27 2026 15:47:07 GMT-0400 (Eastern Daylight Time),187627.29999995232,139_m_f_d_a.png,I,z,610,7,1,1625.1000000238419,186002.19999992847,1,VNB,A,6
7,test,1,0.0,1-Back,1.0,m,Fri Mar 27 2026 15:47:07 GMT-0400 (Eastern Daylight Time),189460.29999995232,071_y_f_h_a.png,I,m,801,8,1,1824.7999999523163,187635.5,1,VNB,A,7
8,test,1,0.0,1-Back,1.0,m,Fri Mar 27 2026 15:47:07 GMT-0400 (Eastern Daylight Time),191343.89999997616,039_o_m_n_a.png,I,m,855,9,1,1879.3999999761581,189464.5,1,VNB,A,8
9,test,1,0.0,1-Back,1.0,m,Fri Mar 27 2026 15:47:07 GMT-0400 (Eastern Daylight Time),193094.0,109_y_m_h_a.png,I,m,733,10,1,1742.1000000238419,191351.89999997616,1,VNB,A,9
10,test,1,0.0,1-Back,1.0,m,Fri Mar 27 2026 15:47:07 GMT-0400 (Eastern Daylight Time),194827.29999995232,039_o_m_d_a.png,I,m,710,11,1,1725.0,193102.29999995232,1,VNB,A,10
11,test,1,1.0,1-Back,1.0,z,Fri Mar 27 2026 15:47:07 GMT-0400 (Eastern Daylight Time),196777.19999992847,124_o_f_d_a.png,I,z,930,12,1,1939.3999999761581,194837.79999995232,1,VNB,A,11
12,test,1,0.0,1-Back,1.0,m,Fri Mar 27 2026 15:47:07 GMT-0400 (Eastern Daylight Time),198743.89999997616,165_m_m_n_a.png,I,m,946,13,1,1958.7999999523163,196785.10000002384,1,VNB,A,12
12,test,1,1.0,1-Back,0.0,z,Fri Mar 27 2026 15:47:07 GMT-0400 (Eastern Daylight Time),200827.10000002384,071_y_f_n_a.png,I,m,1060,14,1,2075.4000000953674,198751.69999992847,1,VNB,A,13
12,test,1,0.0,1-Back,0.0,m,Fri Mar 27 2026 15:47:07 GMT-0400 (Eastern Daylight Time),202527.29999995232,139_m_f_h_a.png,I,z,672,15,1,1693.1000000238419,200834.19999992847,1,VNB,A,14
13,test,1,0.0,1-Back,1.0,m,Fri Mar 27 2026 15:47:07 GMT-0400 (Eastern Daylight Time),204277.19999992847,165_m_m_d_a.png,I,m,716,16,1,1742.2999999523163,202534.89999997616,1,VNB,A,15
14,test,1,0.0,1-Back,1.0,m,Fri Mar 27 2026 15:47:07 GMT-0400 (Eastern Daylight Time),205993.89999997616,109_y_m_n_a.png,I,m,695,17,1,1708.6000000238419,204285.29999995232,1,VNB,A,16
14,test,1,0.0,1-Back,0.0,m,Fri Mar 27 2026 15:47:07 GMT-0400 (Eastern Daylight Time),207744.0,124_o_f_h_a.png,I,z,723,18,1,1741.7000000476837,206002.29999995232,1,VNB,A,17
0,test,2,0.0,1-Back,,,Fri Mar 27 2026 15:47:07 GMT-0400 (Eastern Daylight Time),207744.0,109_y_m_n_a.png,I,space,1636,1,1,1741.7000000476837,206002.29999995232,1,VNB,A,0
1,test,2,0.0,1-Back,1.0,m,Fri Mar 27 2026 15:47:07 GMT-0400 (Eastern Daylight Time),213744.0,071_y_f_h_a.png,I,m,1305,2,1,2322.100000023842,211421.89999997616,1,VNB,A,1
2,test,2,1.0,1-Back,1.0,m,Fri Mar 27 2026 15:47:07 GMT-0400 (Eastern Daylight Time),215844.0,039_o_m_n_a.png,I,m,1068,3,1,2091.5,213752.5,1,VNB,A,2
3,test,2,0.0,1-Back,1.0,m,Fri Mar 27 2026 15:47:07 GMT-0400 (Eastern Daylight Time),217577.29999995232,139_m_f_d_a.png,I,m,712,4,1,1725.1000000238419,215852.19999992847,1,VNB,A,3
4,test,2,0.0,1-Back,1.0,z,Fri Mar 27 2026 15:47:07 GMT-0400 (Eastern Daylight Time),219177.19999992847,165_m_m_d_a.png,I,z,579,5,1,1592.0,217585.19999992847,1,VNB,A,4
5,test,2,0.0,1-Back,1.0,m,Fri Mar 27 2026 15:47:07 GMT-0400 (Eastern Daylight Time),220944.0,109_y_m_h_a.png,I,m,738,6,1,1758.8999999761581,219185.10000002384,1,VNB,A,5
6,test,2,1.0,1-Back,1.0,z,Fri Mar 27 2026 15:47:07 GMT-0400 (Eastern Daylight Time),222594.0,124_o_f_h_a.png,I,z,620,7,1,1642.8000000715256,220951.19999992847,1,VNB,A,6
7,test,2,0.0,1-Back,1.0,m,Fri Mar 27 2026 15:47:07 GMT-0400 (Eastern Daylight Time),224660.60000002384,139_m_f_n_a.png,I,m,1034,8,1,2059.3000000715256,222601.29999995232,1,VNB,A,7
8,test,2,0.0,1-Back,1.0,m,Fri Mar 27 2026 15:47:07 GMT-0400 (Eastern Daylight Time),226711.39999997616,071_y_f_d_a.png,I,m,1031,9,1,2043.0,224668.39999997616,1,VNB,A,8
9,test,2,0.0,1-Back,1.0,m,Fri Mar 27 2026 15:47:07 GMT-0400 (Eastern Daylight Time),228660.60000002384,165_m_m_n_a.png,I,m,918,10,1,1941.4000000953674,226719.19999992847,1,VNB,A,9
10,test,2,1.0,1-Back,1.0,m,Fri Mar 27 2026 15:47:07 GMT-0400 (Eastern Daylight Time),230677.19999992847,139_m_f_h_a.png,I,m,984,11,1,2005.1999999284744,228672.0,1,VNB,A,10
11,test,2,0.0,1-Back,1.0,z,Fri Mar 27 2026 15:47:07 GMT-0400 (Eastern Daylight Time),232377.10000002384,039_o_m_h_a.png,I,z,678,12,1,1691.8000000715256,230685.29999995232,1,VNB,A,11
12,test,2,0.0,1-Back,1.0,m,Fri Mar 27 2026 15:47:07 GMT-0400 (Eastern Daylight Time),234010.60000002384,109_y_m_d_a.png,I,m,610,13,1,1624.6000000238419,232386.0,1,VNB,A,12
12,test,2,0.0,1-Back,0.0,m,Fri Mar 27 2026 15:47:07 GMT-0400 (Eastern Daylight Time),235960.29999995232,124_o_f_n_a.png,I,z,930,14,1,1941.2999999523163,234019.0,1,VNB,A,13
13,test,2,0.0,1-Back,1.0,z,Fri Mar 27 2026 15:47:07 GMT-0400 (Eastern Daylight Time),238060.5,071_y_f_n_a.png,I,z,1075,15,1,2092.399999976158,235968.10000002384,1,VNB,A,14
14,test,2,1.0,1-Back,1.0,m,Fri Mar 27 2026 15:47:07 GMT-0400 (Eastern Daylight Time),239727.19999992847,165_m_m_h_a.png,I,m,639,16,1,1658.5999999046326,238068.60000002384,1,VNB,A,15
14,test,2,0.0,1-Back,0.0,m,Fri Mar 27 2026 15:47:07 GMT-0400 (Eastern Daylight Time),241593.89999997616,124_o_f_d_a.png,I,z,845,17,1,1858.2999999523163,239735.60000002384,1,VNB,A,16
15,test,2,1.0,1-Back,1.0,z,Fri Mar 27 2026 15:47:07 GMT-0400 (Eastern Daylight Time),243343.89999997616,039_o_m_d_a.png,I,z,722,18,1,1741.8999999761581,241602.0,1,VNB,A,17
0,test,3,1.0,1-Back,,,Fri Mar 27 2026 15:47:07 GMT-0400 (Eastern Daylight Time),243343.89999997616,124_o_f_h_a.png,I,space,2476,1,1,1741.8999999761581,241602.0,1,VNB,A,0
1,test,3,0.0,1-Back,1.0,m,Fri Mar 27 2026 15:47:07 GMT-0400 (Eastern Daylight Time),249794.0,139_m_f_d_a.png,I,m,853,2,1,1870.6000000238419,247923.39999997616,1,VNB,A,1
2,test,3,1.0,1-Back,1.0,m,Fri Mar 27 2026 15:47:07 GMT-0400 (Eastern Daylight Time),251893.89999997616,165_m_m_n_a.png,I,m,1067,3,1,2092.0,249801.89999997616,1,VNB,A,2
2,test,3,0.0,1-Back,0.0,z,Fri Mar 27 2026 15:47:07 GMT-0400 (Eastern Daylight Time),253743.89999997616,124_o_f_n_a.png,I,m,822,4,1,1843.2000000476837,251900.69999992847,1,VNB,A,3
3,test,3,1.0,1-Back,1.0,m,Fri Mar 27 2026 15:47:07 GMT-0400 (Eastern Daylight Time),255894.0,039_o_m_d_a.png,I,m,1117,5,1,2141.7000000476837,253752.29999995232,1,VNB,A,4
3,test,3,0.0,1-Back,0.0,m,Fri Mar 27 2026 15:47:07 GMT-0400 (Eastern Daylight Time),257727.19999992847,071_y_f_h_a.png,I,z,806,6,1,1824.7999999523163,255902.39999997616,1,VNB,A,5
4,test,3,0.0,1-Back,1.0,z,Fri Mar 27 2026 15:47:07 GMT-0400 (Eastern Daylight Time),259310.5,109_y_m_h_a.png,I,z,557,7,1,1575.5,257735.0,1,VNB,A,6
5,test,3,0.0,1-Back,1.0,m,Fri Mar 27 2026 15:47:07 GMT-0400 (Eastern Daylight Time),260843.79999995232,139_m_f_n_a.png,I,m,509,8,1,1524.7999999523163,259319.0,1,VNB,A,7
6,test,3,0.0,1-Back,1.0,m,Fri Mar 27 2026 15:47:07 GMT-0400 (Eastern Daylight Time),262793.7999999523,071_y_f_d_a.png,I,m,929,9,1,1942.6999999284744,260851.10000002384,1,VNB,A,8
7,test,3,1.0,1-Back,1.0,m,Fri Mar 27 2026 15:47:07 GMT-0400 (Eastern Daylight Time),264543.89999997616,039_o_m_n_a.png,I,m,722,10,1,1742.7999999523163,262801.10000002384,1,VNB,A,9
7,test,3,0.0,1-Back,0.0,m,Fri Mar 27 2026 15:47:07 GMT-0400 (Eastern Daylight Time),266210.5,165_m_m_h_a.png,I,z,636,11,1,1659.8999999761581,264550.60000002384,1,VNB,A,10
7,test,3,0.0,1-Back,0.0,z,Fri Mar 27 2026 15:47:07 GMT-0400 (Eastern Daylight Time),268060.5,139_m_f_h_a.png,I,m,826,12,1,1841.8000000715256,266218.6999999285,1,VNB,A,11
8,test,3,1.0,1-Back,1.0,m,Fri Mar 27 2026 15:47:07 GMT-0400 (Eastern Daylight Time),269827.1999999285,124_o_f_d_a.png,I,m,736,13,1,1757.0999999046326,268070.10000002384,1,VNB,A,12
9,test,3,0.0,1-Back,1.0,z,Fri Mar 27 2026 15:47:07 GMT-0400 (Eastern Daylight Time),271543.5,165_m_m_d_a.png,I,z,696,14,1,1708.5,269835.0,1,VNB,A,13
10,test,3,0.0,1-Back,1.0,m,Fri Mar 27 2026 15:47:07 GMT-0400 (Eastern Daylight Time),273343.6999999285,109_y_m_n_a.png,I,m,773,15,1,1793.0,271550.6999999285,1,VNB,A,14
11,test,3,1.0,1-Back,1.0,m,Fri Mar 27 2026 15:47:07 GMT-0400 (Eastern Daylight Time),275310.5,039_o_m_h_a.png,I,m,940,16,1,1957.8999999761581,273352.60000002384,1,VNB,A,15
12,test,3,0.0,1-Back,1.0,m,Fri Mar 27 2026 15:47:07 GMT-0400 (Eastern Daylight Time),277077.2999999523,109_y_m_d_a.png,I,m,734,17,1,1759.6999999284744,275317.60000002384,1,VNB,A,16
12,test,3,1.0,1-Back,0.0,m,Fri Mar 27 2026 15:47:07 GMT-0400 (Eastern Daylight Time),279160.5,071_y_f_n_a.png,I,z,1063,18,1,2072.899999976158,277087.60000002384,1,VNB,A,17
0,test,4,1.0,1-Back,,,Fri Mar 27 2026 15:47:07 GMT-0400 (Eastern Daylight Time),279160.5,165_m_m_d_a.png,I,space,3059,1,1,2072.899999976158,277087.60000002384,1,VNB,A,0
1,test,4,0.0,1-Back,1.0,z,Fri Mar 27 2026 15:47:07 GMT-0400 (Eastern Daylight Time),286460.39999997616,039_o_m_d_a.png,I,z,1192,2,1,2208.7999999523163,284251.60000002384,1,VNB,A,1
2,test,4,0.0,1-Back,1.0,m,Fri Mar 27 2026 15:47:07 GMT-0400 (Eastern Daylight Time),288126.6999999285,109_y_m_h_a.png,I,m,638,3,1,1657.6999999284744,286469.0,1,VNB,A,2
3,test,4,0.0,1-Back,1.0,m,Fri Mar 27 2026 15:47:07 GMT-0400 (Eastern Daylight Time),289826.6999999285,139_m_f_n_a.png,I,m,668,4,1,1693.5999999046326,288133.10000002384,1,VNB,A,3
3,test,4,1.0,1-Back,0.0,m,Fri Mar 27 2026 15:47:07 GMT-0400 (Eastern Daylight Time),291793.2999999523,124_o_f_h_a.png,I,z,936,5,1,1960.5,289832.7999999523,1,VNB,A,4
4,test,4,0.0,1-Back,1.0,m,Fri Mar 27 2026 15:47:07 GMT-0400 (Eastern Daylight Time),293343.39999997616,165_m_m_n_a.png,I,m,521,6,1,1545.6000000238419,291797.7999999523,1,VNB,A,5
5,test,4,0.0,1-Back,1.0,m,Fri Mar 27 2026 15:47:07 GMT-0400 (Eastern Daylight Time),295177.10000002384,109_y_m_d_a.png,I,m,813,7,1,1829.3000000715256,293347.7999999523,1,VNB,A,6
6,test,4,1.0,1-Back,1.0,z,Fri Mar 27 2026 15:47:07 GMT-0400 (Eastern Daylight Time),296893.7999999523,071_y_f_d_a.png,I,z,692,8,1,1709.0,295184.7999999523,1,VNB,A,7
7,test,4,0.0,1-Back,1.0,m,Fri Mar 27 2026 15:47:07 GMT-0400 (Eastern Daylight Time),298577.10000002384,139_m_f_h_a.png,I,m,654,9,1,1672.9000000953674,296904.1999999285,1,VNB,A,8
8,test,4,0.0,1-Back,1.0,z,Fri Mar 27 2026 15:47:07 GMT-0400 (Eastern Daylight Time),300243.6999999285,039_o_m_h_a.png,I,z,634,10,1,1658.6999999284744,298585.0,1,VNB,A,9
9,test,4,1.0,1-Back,1.0,m,Fri Mar 27 2026 15:47:07 GMT-0400 (Eastern Daylight Time),301893.7999999523,124_o_f_n_a.png,I,m,616,11,1,1642.1000000238419,300251.6999999285,1,VNB,A,10
10,test,4,0.0,1-Back,1.0,m,Fri Mar 27 2026 15:47:07 GMT-0400 (Eastern Daylight Time),303510.1999999285,139_m_f_d_a.png,I,m,598,12,1,1606.0,301904.1999999285,1,VNB,A,11
10,test,4,0.0,1-Back,0.0,m,Fri Mar 27 2026 15:47:07 GMT-0400 (Eastern Daylight Time),305343.7999999523,071_y_f_n_a.png,I,z,805,13,1,1824.8999999761581,303518.89999997616,1,VNB,A,12
11,test,4,0.0,1-Back,1.0,m,Fri Mar 27 2026 15:47:07 GMT-0400 (Eastern Daylight Time),306960.5,124_o_f_d_a.png,I,m,589,14,1,1608.7000000476837,305351.7999999523,1,VNB,A,13
12,test,4,0.0,1-Back,1.0,m,Fri Mar 27 2026 15:47:07 GMT-0400 (Eastern Daylight Time),308712.39999997616,071_y_f_h_a.png,I,m,731,15,1,1744.2999999523163,306968.10000002384,1,VNB,A,14
13,test,4,1.0,1-Back,1.0,z,Fri Mar 27 2026 15:47:07 GMT-0400 (Eastern Daylight Time),310293.89999997616,165_m_m_h_a.png,I,z,566,16,1,1574.5,308719.39999997616,1,VNB,A,15
14,test,4,0.0,1-Back,1.0,m,Fri Mar 27 2026 15:47:07 GMT-0400 (Eastern Daylight Time),311877.0,039_o_m_n_a.png,I,m,550,17,1,1572.1000000238419,310304.89999997616,1,VNB,A,16
15,test,4,1.0,1-Back,1.0,z,Fri Mar 27 2026 15:47:07 GMT-0400 (Eastern Daylight Time),313477.1999999285,109_y_m_n_a.png,I,z,567,18,1,1593.0999999046326,311884.10000002384,1,VNB,A,17
0,test,5,1.0,1-Back,,,Fri Mar 27 2026 15:47:07 GMT-0400 (Eastern Daylight Time),313477.1999999285,039_o_m_n_a.png,I,space,4112,1,1,1593.0999999046326,311884.10000002384,1,VNB,A,0
1,test,5,1.0,1-Back,1.0,m,Fri Mar 27 2026 15:47:07 GMT-0400 (Eastern Daylight Time),321227.1999999285,124_o_f_h_a.png,I,m,593,2,1,1608.8999999761581,319618.2999999523,1,VNB,A,1
2,test,5,0.0,1-Back,1.0,m,Fri Mar 27 2026 15:47:07 GMT-0400 (Eastern Daylight Time),322877.0,109_y_m_d_a.png,I,m,625,3,1,1641.5,321235.5,1,VNB,A,2
3,test,5,0.0,1-Back,1.0,z,Fri Mar 27 2026 15:47:07 GMT-0400 (Eastern Daylight Time),324443.7999999523,039_o_m_d_a.png,I,z,543,4,1,1558.6000000238419,322885.1999999285,1,VNB,A,3
4,test,5,0.0,1-Back,1.0,m,Fri Mar 27 2026 15:47:07 GMT-0400 (Eastern Daylight Time),325960.39999997616,139_m_f_h_a.png,I,m,496,5,1,1508.3999999761581,324452.0,1,VNB,A,4
5,test,5,0.0,1-Back,1.0,m,Fri Mar 27 2026 15:47:07 GMT-0400 (Eastern Daylight Time),327777.0,071_y_f_n_a.png,I,m,788,6,1,1808.6000000238419,325968.39999997616,1,VNB,A,5
5,test,5,1.0,1-Back,0.0,z,Fri Mar 27 2026 15:47:07 GMT-0400 (Eastern Daylight Time),329393.6999999285,124_o_f_n_a.png,I,m,587,7,1,1608.7999999523163,327784.89999997616,1,VNB,A,6
6,test,5,0.0,1-Back,1.0,m,Fri Mar 27 2026 15:47:07 GMT-0400 (Eastern Daylight Time),331060.39999997616,139_m_f_d_a.png,I,m,634,8,1,1657.2000000476837,329403.1999999285,1,VNB,A,7
7,test,5,0.0,1-Back,1.0,m,Fri Mar 27 2026 15:47:07 GMT-0400 (Eastern Daylight Time),332677.0,109_y_m_h_a.png,I,m,583,9,1,1609.6000000238419,331067.39999997616,1,VNB,A,8
8,test,5,0.0,1-Back,1.0,m,Fri Mar 27 2026 15:47:07 GMT-0400 (Eastern Daylight Time),334210.39999997616,071_y_f_d_a.png,I,m,503,10,1,1525.2000000476837,332685.1999999285,1,VNB,A,9
9,test,5,0.0,1-Back,1.0,m,Fri Mar 27 2026 15:47:07 GMT-0400 (Eastern Daylight Time),336010.39999997616,165_m_m_n_a.png,I,m,778,11,1,1789.8999999761581,334220.5,1,VNB,A,10
9,test,5,1.0,1-Back,0.0,z,Fri Mar 27 2026 15:47:07 GMT-0400 (Eastern Daylight Time),337543.5,139_m_f_n_a.png,I,m,513,12,1,1526.0,336017.5,1,VNB,A,11
10,test,5,0.0,1-Back,1.0,m,Fri Mar 27 2026 15:47:07 GMT-0400 (Eastern Daylight Time),339143.39999997616,039_o_m_h_a.png,I,m,581,13,1,1591.7999999523163,337551.60000002384,1,VNB,A,12
11,test,5,0.0,1-Back,1.0,z,Fri Mar 27 2026 15:47:07 GMT-0400 (Eastern Daylight Time),340693.89999997616,165_m_m_h_a.png,I,z,533,14,1,1543.1000000238419,339150.7999999523,1,VNB,A,13
12,test,5,1.0,1-Back,1.0,m,Fri Mar 27 2026 15:47:07 GMT-0400 (Eastern Daylight Time),342177.10000002384,124_o_f_d_a.png,I,m,454,15,1,1476.5,340700.60000002384,1,VNB,A,14
13,test,5,0.0,1-Back,1.0,m,Fri Mar 27 2026 15:47:07 GMT-0400 (Eastern Daylight Time),343727.0,109_y_m_n_a.png,I,m,523,16,1,1542.6000000238419,342184.39999997616,1,VNB,A,15
14,test,5,0.0,1-Back,1.0,m,Fri Mar 27 2026 15:47:07 GMT-0400 (Eastern Daylight Time),345277.0,071_y_f_h_a.png,I,m,525,17,1,1542.3000000715256,343734.6999999285,1,VNB,A,16
14,test,5,0.0,1-Back,0.0,m,Fri Mar 27 2026 15:47:07 GMT-0400 (Eastern Daylight Time),346993.6999999285,165_m_m_d_a.png,I,z,687,18,1,1709.5999999046326,345284.10000002384,1,VNB,A,17
0,prac,1,0.0,2-Back,,,Fri Mar 27 2026 15:47:07 GMT-0400 (Eastern Daylight Time),346993.6999999285,139_m_f_n_a.png,I,space,20934,1,1,1709.5999999046326,345284.10000002384,1,VNB,A,0
0,prac,1,0.0,2-Back,,,Fri Mar 27 2026 15:47:07 GMT-0400 (Eastern Daylight Time),346993.6999999285,124_o_f_h_a.png,I,space,20934,2,1,1709.5999999046326,345284.10000002384,1,VNB,A,0
1,prac,1,0.0,2-Back,1.0,m,Fri Mar 27 2026 15:47:07 GMT-0400 (Eastern Daylight Time),506477.1999999285,039_o_m_d_a.png,I,m,1419,3,1,2241.0,504236.1999999285,1,VNB,A,1
2,prac,1,1.0,2-Back,1.0,z,Fri Mar 27 2026 15:47:07 GMT-0400 (Eastern Daylight Time),508426.89999997616,165_m_m_h_a.png,I,z,1122,4,1,1939.8999999761581,506487.0,1,VNB,A,2
2,prac,1,0.0,2-Back,0.0,m,Fri Mar 27 2026 15:47:07 GMT-0400 (Eastern Daylight Time),510676.89999997616,071_y_f_n_a.png,I,z,1424,5,1,2235.0,508441.89999997616,1,VNB,A,3
3,prac,1,1.0,2-Back,1.0,z,Fri Mar 27 2026 15:47:07 GMT-0400 (Eastern Daylight Time),512793.60000002384,039_o_m_h_a.png,I,z,1290,6,1,2106.9000000953674,510686.6999999285,1,VNB,A,4
4,prac,1,1.0,2-Back,1.0,z,Fri Mar 27 2026 15:47:07 GMT-0400 (Eastern Daylight Time),514960.1999999285,109_y_m_n_a.png,I,z,1321,7,1,2154.7999999523163,512805.39999997616,1,VNB,A,5
5,prac,1,0.0,2-Back,1.0,m,Fri Mar 27 2026 15:47:07 GMT-0400 (Eastern Daylight Time),516910.39999997616,139_m_f_d_a.png,I,m,1117,8,1,1939.6000000238419,514970.7999999523,1,VNB,A,6
5,prac,1,0.0,2-Back,0.0,m,Fri Mar 27 2026 15:47:07 GMT-0400 (Eastern Daylight Time),518926.89999997616,124_o_f_d_a.png,I,z,1140,9,1,2006.6000000238419,516920.2999999523,1,VNB,A,7
6,prac,1,0.0,2-Back,1.0,m,Fri Mar 27 2026 15:47:07 GMT-0400 (Eastern Daylight Time),520910.1999999285,165_m_m_h_a.png,I,m,1195,10,1,1973.0999999046326,518937.10000002384,1,VNB,A,8
7,prac,1,1.0,2-Back,1.0,z,Fri Mar 27 2026 15:47:07 GMT-0400 (Eastern Daylight Time),522676.89999997616,071_y_f_d_a.png,I,z,941,11,1,1755.8999999761581,520921.0,1,VNB,A,9
8,prac,1,0.0,2-Back,1.0,m,Fri Mar 27 2026 15:47:07 GMT-0400 (Eastern Daylight Time),524860.1999999285,039_o_m_n_a.png,I,m,1358,12,1,2173.899999976158,522686.2999999523,1,VNB,A,10
0,test,1,0.0,2-Back,,,Fri Mar 27 2026 15:47:07 GMT-0400 (Eastern Daylight Time),524860.1999999285,109_y_m_h_a.png,I,space,20771,1,1,2173.899999976158,522686.2999999523,1,VNB,A,0
0,test,1,0.0,2-Back,,,Fri Mar 27 2026 15:47:07 GMT-0400 (Eastern Daylight Time),524860.1999999285,124_o_f_n_a.png,I,space,20771,2,1,2173.899999976158,522686.2999999523,1,VNB,A,0
1,test,1,0.0,2-Back,1.0,z,Fri Mar 27 2026 15:47:07 GMT-0400 (Eastern Daylight Time),559660.2999999523,039_o_m_h_a.png,I,z,1042,3,1,2060.2999999523163,557600.0,1,VNB,A,1
2,test,1,0.0,2-Back,1.0,m,Fri Mar 27 2026 15:47:07 GMT-0400 (Eastern Daylight Time),561643.3999999762,139_m_f_d_a.png,I,m,960,4,1,1974.6000000238419,559668.7999999523,1,VNB,A,2
3,test,1,1.0,2-Back,1.0,m,Fri Mar 27 2026 15:47:07 GMT-0400 (Eastern Daylight Time),563393.5,109_y_m_n_a.png,I,m,720,5,1,1741.6000000238419,561651.8999999762,1,VNB,A,3
3,test,1,0.0,2-Back,0.0,z,Fri Mar 27 2026 15:47:07 GMT-0400 (Eastern Daylight Time),565276.7999999523,071_y_f_d_a.png,I,m,859,6,1,1875.6000000238419,563401.1999999285,1,VNB,A,4
4,test,1,0.0,2-Back,1.0,m,Fri Mar 27 2026 15:47:07 GMT-0400 (Eastern Daylight Time),567026.7999999523,165_m_m_h_a.png,I,m,719,7,1,1738.3999999761581,565288.3999999762,1,VNB,A,5
4,test,1,1.0,2-Back,0.0,m,Fri Mar 27 2026 15:47:07 GMT-0400 (Eastern Daylight Time),568743.2999999523,071_y_f_n_a.png,I,z,697,8,1,1708.1999999284744,567035.1000000238,1,VNB,A,6
4,test,1,0.0,2-Back,0.0,z,Fri Mar 27 2026 15:47:07 GMT-0400 (Eastern Daylight Time),570260.1000000238,124_o_f_h_a.png,I,m,485,9,1,1509.2000000476837,568750.8999999762,1,VNB,A,7
4,test,1,0.0,2-Back,0.0,m,Fri Mar 27 2026 15:47:07 GMT-0400 (Eastern Daylight Time),573293.7999999523,039_o_m_d_a.png,I,None,2016,10,1,3027.0,570266.7999999523,1,VNB,A,8
4,test,1,1.0,2-Back,0.0,m,Fri Mar 27 2026 15:47:07 GMT-0400 (Eastern Daylight Time),576326.7999999523,165_m_m_d_a.png,I,None,2017,11,1,3026.399999976158,573300.3999999762,1,VNB,A,9
5,test,1,0.0,2-Back,1.0,m,Fri Mar 27 2026 15:47:07 GMT-0400 (Eastern Daylight Time),579243.2999999523,139_m_f_n_a.png,I,m,1893,12,1,2910.6999999284744,576332.6000000238,1,VNB,A,10
6,test,1,0.0,2-Back,1.0,m,Fri Mar 27 2026 15:47:07 GMT-0400 (Eastern Daylight Time),580576.6000000238,071_y_f_h_a.png,I,m,304,13,1,1323.8000000715256,579252.7999999523,1,VNB,A,11
6,test,1,0.0,2-Back,0.0,z,Fri Mar 27 2026 15:47:07 GMT-0400 (Eastern Daylight Time),582060.1000000238,165_m_m_n_a.png,I,m,459,14,1,1476.3000000715256,580583.7999999523,1,VNB,A,12
7,test,1,0.0,2-Back,1.0,m,Fri Mar 27 2026 15:47:07 GMT-0400 (Eastern Daylight Time),584876.6999999285,109_y_m_d_a.png,I,m,1792,15,1,2804.2999999523163,582072.3999999762,1,VNB,A,13
8,test,1,1.0,2-Back,1.0,m,Fri Mar 27 2026 15:47:07 GMT-0400 (Eastern Daylight Time),587676.6999999285,139_m_f_h_a.png,I,m,1775,16,1,2792.399999976158,584884.2999999523,1,VNB,A,14
8,test,1,0.0,2-Back,0.0,z,Fri Mar 27 2026 15:47:07 GMT-0400 (Eastern Daylight Time),590110.0,124_o_f_d_a.png,I,m,1407,17,1,2425.5,587684.5,1,VNB,A,15
9,test,1,0.0,2-Back,1.0,m,Fri Mar 27 2026 15:47:07 GMT-0400 (Eastern Daylight Time),591659.8999999762,039_o_m_n_a.png,I,m,526,18,1,1542.8999999761581,590117.0,1,VNB,A,16
0,test,2,0.0,2-Back,,,Fri Mar 27 2026 15:47:07 GMT-0400 (Eastern Daylight Time),591659.8999999762,165_m_m_h_a.png,I,space,2416,1,1,1542.8999999761581,590117.0,1,VNB,A,0
0,test,2,0.0,2-Back,,,Fri Mar 27 2026 15:47:07 GMT-0400 (Eastern Daylight Time),591659.8999999762,071_y_f_n_a.png,I,space,2416,2,1,1542.8999999761581,590117.0,1,VNB,A,0
0,test,2,1.0,2-Back,0.0,z,Fri Mar 27 2026 15:47:07 GMT-0400 (Eastern Daylight Time),600994.1999999285,124_o_f_h_a.png,I,m,754,3,1,1779.6999999284744,599214.5,1,VNB,A,1
1,test,2,0.0,2-Back,1.0,m,Fri Mar 27 2026 15:47:07 GMT-0400 (Eastern Daylight Time),603776.6999999285,039_o_m_d_a.png,I,m,1755,4,1,2775.399999976158,601001.2999999523,1,VNB,A,2
1,test,2,0.0,2-Back,0.0,m,Fri Mar 27 2026 15:47:07 GMT-0400 (Eastern Daylight Time),606810.2999999523,139_m_f_d_a.png,I,None,2016,5,1,3025.2999999523163,603785.0,1,VNB,A,3
2,test,2,0.0,2-Back,1.0,m,Fri Mar 27 2026 15:47:07 GMT-0400 (Eastern Daylight Time),608726.5,109_y_m_h_a.png,I,m,898,6,1,1909.3999999761581,606817.1000000238,1,VNB,A,4
3,test,2,0.0,2-Back,1.0,m,Fri Mar 27 2026 15:47:07 GMT-0400 (Eastern Daylight Time),610343.1000000238,124_o_f_n_a.png,I,m,597,7,1,1608.6000000238419,608734.5,1,VNB,A,5
4,test,2,1.0,2-Back,1.0,z,Fri Mar 27 2026 15:47:07 GMT-0400 (Eastern Daylight Time),611860.0,039_o_m_h_a.png,I,z,485,8,1,1509.3999999761581,610350.6000000238,1,VNB,A,6
4,test,2,0.0,2-Back,0.0,m,Fri Mar 27 2026 15:47:07 GMT-0400 (Eastern Daylight Time),614893.3999999762,071_y_f_d_a.png,I,None,2016,9,1,3025.2000000476837,611868.1999999285,1,VNB,A,7
5,test,2,0.0,2-Back,1.0,m,Fri Mar 27 2026 15:47:07 GMT-0400 (Eastern Daylight Time),617593.2999999523,109_y_m_d_a.png,I,m,1678,10,1,2689.899999976158,614903.3999999762,1,VNB,A,8
6,test,2,0.0,2-Back,1.0,m,Fri Mar 27 2026 15:47:07 GMT-0400 (Eastern Daylight Time),619126.3999999762,165_m_m_n_a.png,I,m,514,11,1,1525.3999999761581,617601.0,1,VNB,A,9
7,test,2,0.0,2-Back,1.0,m,Fri Mar 27 2026 15:47:07 GMT-0400 (Eastern Daylight Time),621093.2999999523,139_m_f_h_a.png,I,m,934,12,1,1959.2999999523163,619134.0,1,VNB,A,10
7,test,2,1.0,2-Back,0.0,z,Fri Mar 27 2026 15:47:07 GMT-0400 (Eastern Daylight Time),622860.0,039_o_m_n_a.png,I,m,743,13,1,1760.1000000238419,621099.8999999762,1,VNB,A,11
8,test,2,0.0,2-Back,1.0,m,Fri Mar 27 2026 15:47:07 GMT-0400 (Eastern Daylight Time),624560.0,124_o_f_d_a.png,I,m,672,14,1,1692.5,622867.5,1,VNB,A,12
9,test,2,0.0,2-Back,1.0,m,Fri Mar 27 2026 15:47:07 GMT-0400 (Eastern Daylight Time),626276.6000000238,071_y_f_h_a.png,I,m,684,15,1,1708.8000000715256,624567.7999999523,1,VNB,A,13
9,test,2,0.0,2-Back,0.0,z,Fri Mar 27 2026 15:47:07 GMT-0400 (Eastern Daylight Time),628176.6000000238,165_m_m_d_a.png,I,m,871,16,1,1892.7000000476837,626283.8999999762,1,VNB,A,14
10,test,2,0.0,2-Back,1.0,m,Fri Mar 27 2026 15:47:07 GMT-0400 (Eastern Daylight Time),630093.2999999523,109_y_m_n_a.png,I,m,891,17,1,1908.5,628184.7999999523,1,VNB,A,15
10,test,2,1.0,2-Back,0.0,m,Fri Mar 27 2026 15:47:07 GMT-0400 (Eastern Daylight Time),633126.7999999523,139_m_f_n_a.png,I,None,2017,18,1,3023.100000023842,630103.6999999285,1,VNB,A,16
0,test,3,1.0,2-Back,,,Fri Mar 27 2026 15:47:07 GMT-0400 (Eastern Daylight Time),633126.7999999523,039_o_m_n_a.png,I,space,2069,1,1,3023.100000023842,630103.6999999285,1,VNB,A,0
0,test,3,1.0,2-Back,,,Fri Mar 27 2026 15:47:07 GMT-0400 (Eastern Daylight Time),633126.7999999523,124_o_f_d_a.png,I,space,2069,2,1,3023.100000023842,630103.6999999285,1,VNB,A,0
1,test,3,0.0,2-Back,1.0,m,Fri Mar 27 2026 15:47:07 GMT-0400 (Eastern Daylight Time),641943.1000000238,071_y_f_h_a.png,I,m,664,3,1,1676.0,640267.1000000238,1,VNB,A,1
1,test,3,0.0,2-Back,0.0,z,Fri Mar 27 2026 15:47:07 GMT-0400 (Eastern Daylight Time),644976.6999999285,139_m_f_d_a.png,I,None,2017,4,1,3026.6999999284744,641950.0,1,VNB,A,2
1,test,3,1.0,2-Back,0.0,m,Fri Mar 27 2026 15:47:07 GMT-0400 (Eastern Daylight Time),648010.0,109_y_m_n_a.png,I,None,2016,5,1,3023.0,644987.0,1,VNB,A,3
1,test,3,0.0,2-Back,0.0,m,Fri Mar 27 2026 15:47:07 GMT-0400 (Eastern Daylight Time),651043.3999999762,039_o_m_h_a.png,I,None,2016,6,1,3026.7000000476837,648016.6999999285,1,VNB,A,4
1,test,3,0.0,2-Back,0.0,z,Fri Mar 27 2026 15:47:07 GMT-0400 (Eastern Daylight Time),654076.6999999285,071_y_f_n_a.png,I,None,2017,7,1,3026.2999999523163,651050.3999999762,1,VNB,A,5
1,test,3,1.0,2-Back,0.0,m,Fri Mar 27 2026 15:47:07 GMT-0400 (Eastern Daylight Time),657110.0,165_m_m_d_a.png,I,None,2017,8,1,3025.399999976158,654084.6000000238,1,VNB,A,6
1,test,3,0.0,2-Back,0.0,m,Fri Mar 27 2026 15:47:07 GMT-0400 (Eastern Daylight Time),660143.1999999285,109_y_m_d_a.png,I,None,2017,9,1,3024.0999999046326,657119.1000000238,1,VNB,A,7
2,test,3,0.0,2-Back,1.0,m,Fri Mar 27 2026 15:47:07 GMT-0400 (Eastern Daylight Time),662276.6000000238,124_o_f_h_a.png,I,m,1100,10,1,2126.0,660150.6000000238,1,VNB,A,8
2,test,3,1.0,2-Back,0.0,m,Fri Mar 27 2026 15:47:07 GMT-0400 (Eastern Daylight Time),665310.1000000238,139_m_f_n_a.png,I,None,2016,11,1,3025.4000000953674,662284.6999999285,1,VNB,A,9
2,test,3,1.0,2-Back,0.0,z,Fri Mar 27 2026 15:47:07 GMT-0400 (Eastern Daylight Time),666976.5,165_m_m_h_a.png,I,m,638,12,1,1659.5,665317.0,1,VNB,A,10
2,test,3,0.0,2-Back,0.0,m,Fri Mar 27 2026 15:47:07 GMT-0400 (Eastern Daylight Time),668826.6000000238,071_y_f_d_a.png,I,z,828,13,1,1839.1000000238419,666987.5,1,VNB,A,11
3,test,3,0.0,2-Back,1.0,m,Fri Mar 27 2026 15:47:07 GMT-0400 (Eastern Daylight Time),670193.1999999285,124_o_f_n_a.png,I,m,337,14,1,1358.2999999523163,668834.8999999762,1,VNB,A,12
4,test,3,0.0,2-Back,1.0,z,Fri Mar 27 2026 15:47:07 GMT-0400 (Eastern Daylight Time),671559.7999999523,039_o_m_d_a.png,I,z,347,15,1,1358.6999999284744,670201.1000000238,1,VNB,A,13
5,test,3,1.0,2-Back,1.0,m,Fri Mar 27 2026 15:47:07 GMT-0400 (Eastern Daylight Time),673143.1999999285,139_m_f_h_a.png,I,m,564,16,1,1575.1999999284744,671568.0,1,VNB,A,14
6,test,3,0.0,2-Back,1.0,m,Fri Mar 27 2026 15:47:07 GMT-0400 (Eastern Daylight Time),674860.0,165_m_m_n_a.png,I,m,693,17,1,1709.0,673151.0,1,VNB,A,15
6,test,3,0.0,2-Back,0.0,z,Fri Mar 27 2026 15:47:07 GMT-0400 (Eastern Daylight Time),676576.6000000238,109_y_m_h_a.png,I,m,688,18,1,1707.4000000953674,674869.1999999285,1,VNB,A,16
0,test,4,0.0,2-Back,,,Fri Mar 27 2026 15:47:07 GMT-0400 (Eastern Daylight Time),676576.6000000238,139_m_f_n_a.png,I,space,2851,1,1,1707.4000000953674,674869.1999999285,1,VNB,A,0
0,test,4,0.0,2-Back,,,Fri Mar 27 2026 15:47:07 GMT-0400 (Eastern Daylight Time),676576.6000000238,039_o_m_n_a.png,I,space,2851,2,1,1707.4000000953674,674869.1999999285,1,VNB,A,0
0,test,4,1.0,2-Back,0.0,m,Fri Mar 27 2026 15:47:07 GMT-0400 (Eastern Daylight Time),687576.8999999762,109_y_m_h_a.png,I,None,2015,3,1,3025.399999976158,684551.5,1,VNB,A,1
0,test,4,1.0,2-Back,0.0,m,Fri Mar 27 2026 15:47:07 GMT-0400 (Eastern Daylight Time),690610.0,124_o_f_d_a.png,I,None,2017,4,1,3026.100000023842,687583.8999999762,1,VNB,A,2
0,test,4,0.0,2-Back,0.0,z,Fri Mar 27 2026 15:47:07 GMT-0400 (Eastern Daylight Time),692242.7999999523,039_o_m_h_a.png,I,m,601,5,1,1626.0,690616.7999999523,1,VNB,A,3
1,test,4,0.0,2-Back,1.0,m,Fri Mar 27 2026 15:47:07 GMT-0400 (Eastern Daylight Time),694143.1999999285,165_m_m_n_a.png,I,m,873,6,1,1896.1999999284744,692247.0,1,VNB,A,4
2,test,4,0.0,2-Back,1.0,m,Fri Mar 27 2026 15:47:07 GMT-0400 (Eastern Daylight Time),695693.1999999285,139_m_f_d_a.png,I,m,525,7,1,1541.5999999046326,694151.6000000238,1,VNB,A,5
2,test,4,0.0,2-Back,0.0,z,Fri Mar 27 2026 15:47:07 GMT-0400 (Eastern Daylight Time),697143.1999999285,071_y_f_n_a.png,I,m,431,8,1,1439.7999999523163,695703.3999999762,1,VNB,A,6
2,test,4,1.0,2-Back,0.0,m,Fri Mar 27 2026 15:47:07 GMT-0400 (Eastern Daylight Time),699443.1999999285,124_o_f_h_a.png,I,z,1268,9,1,2293.2999999523163,697149.8999999762,1,VNB,A,7
3,test,4,0.0,2-Back,1.0,m,Fri Mar 27 2026 15:47:07 GMT-0400 (Eastern Daylight Time),700976.5,165_m_m_h_a.png,I,m,505,10,1,1525.8999999761581,699450.6000000238,1,VNB,A,8
3,test,4,0.0,2-Back,0.0,m,Fri Mar 27 2026 15:47:07 GMT-0400 (Eastern Daylight Time),702626.6000000238,071_y_f_d_a.png,I,z,619,11,1,1641.7000000476837,700984.8999999762,1,VNB,A,9
4,test,4,0.0,2-Back,1.0,m,Fri Mar 27 2026 15:47:07 GMT-0400 (Eastern Daylight Time),704109.8999999762,109_y_m_n_a.png,I,m,458,12,1,1476.7999999523163,702633.1000000238,1,VNB,A,10
4,test,4,0.0,2-Back,0.0,z,Fri Mar 27 2026 15:47:07 GMT-0400 (Eastern Daylight Time),705876.3999999762,039_o_m_d_a.png,I,m,734,13,1,1755.3999999761581,704121.0,1,VNB,A,11
5,test,4,1.0,2-Back,1.0,m,Fri Mar 27 2026 15:47:07 GMT-0400 (Eastern Daylight Time),707526.3999999762,139_m_f_h_a.png,I,m,631,14,1,1642.0,705884.3999999762,1,VNB,A,12
6,test,4,1.0,2-Back,1.0,m,Fri Mar 27 2026 15:47:07 GMT-0400 (Eastern Daylight Time),709393.1999999285,071_y_f_h_a.png,I,m,838,15,1,1858.2999999523163,707534.8999999762,1,VNB,A,13
7,test,4,0.0,2-Back,1.0,m,Fri Mar 27 2026 15:47:07 GMT-0400 (Eastern Daylight Time),710959.7999999523,124_o_f_n_a.png,I,m,539,16,1,1558.7999999523163,709401.0,1,VNB,A,14
7,test,4,0.0,2-Back,0.0,m,Fri Mar 27 2026 15:47:07 GMT-0400 (Eastern Daylight Time),712609.7999999523,109_y_m_d_a.png,I,z,620,17,1,1641.1000000238419,710968.6999999285,1,VNB,A,15
8,test,4,1.0,2-Back,1.0,m,Fri Mar 27 2026 15:47:07 GMT-0400 (Eastern Daylight Time),714226.6000000238,165_m_m_d_a.png,I,m,586,18,1,1609.0,712617.6000000238,1,VNB,A,16
0,test,5,1.0,2-Back,,,Fri Mar 27 2026 15:47:07 GMT-0400 (Eastern Daylight Time),714226.6000000238,071_y_f_d_a.png,I,space,1185,1,1,1609.0,712617.6000000238,1,VNB,A,0
0,test,5,1.0,2-Back,,,Fri Mar 27 2026 15:47:07 GMT-0400 (Eastern Daylight Time),714226.6000000238,124_o_f_h_a.png,I,space,1185,2,1,1609.0,712617.6000000238,1,VNB,A,0
0,test,5,1.0,2-Back,0.0,z,Fri Mar 27 2026 15:47:07 GMT-0400 (Eastern Daylight Time),722426.3999999762,039_o_m_d_a.png,I,m,861,3,1,1875.1000000238419,720551.2999999523,1,VNB,A,1
0,test,5,1.0,2-Back,0.0,m,Fri Mar 27 2026 15:47:07 GMT-0400 (Eastern Daylight Time),724310.6000000238,139_m_f_n_a.png,I,z,866,4,1,1877.1000000238419,722433.5,1,VNB,A,2
1,test,5,0.0,2-Back,1.0,m,Fri Mar 27 2026 15:47:07 GMT-0400 (Eastern Daylight Time),725826.5,165_m_m_h_a.png,I,m,486,5,1,1508.5,724318.0,1,VNB,A,3
2,test,5,0.0,2-Back,1.0,z,Fri Mar 27 2026 15:47:07 GMT-0400 (Eastern Daylight Time),727276.5,071_y_f_n_a.png,I,z,425,6,1,1443.0,725833.5,1,VNB,A,4
3,test,5,0.0,2-Back,1.0,m,Fri Mar 27 2026 15:47:07 GMT-0400 (Eastern Daylight Time),728909.7999999523,124_o_f_d_a.png,I,m,607,7,1,1625.5,727284.2999999523,1,VNB,A,5
3,test,5,0.0,2-Back,0.0,m,Fri Mar 27 2026 15:47:07 GMT-0400 (Eastern Daylight Time),730793.1999999285,039_o_m_h_a.png,I,z,863,8,1,1872.5,728920.6999999285,1,VNB,A,6
3,test,5,1.0,2-Back,0.0,z,Fri Mar 27 2026 15:47:07 GMT-0400 (Eastern Daylight Time),733193.1000000238,139_m_f_d_a.png,I,m,1379,9,1,2391.8000000715256,730801.2999999523,1,VNB,A,7
3,test,5,0.0,2-Back,0.0,m,Fri Mar 27 2026 15:47:07 GMT-0400 (Eastern Daylight Time),736227.1000000238,109_y_m_n_a.png,I,None,2016,10,1,3025.8000000715256,733201.2999999523,1,VNB,A,8
3,test,5,0.0,2-Back,0.0,m,Fri Mar 27 2026 15:47:07 GMT-0400 (Eastern Daylight Time),737726.5,165_m_m_n_a.png,I,z,475,11,1,1491.3999999761581,736235.1000000238,1,VNB,A,9
4,test,5,0.0,2-Back,1.0,m,Fri Mar 27 2026 15:47:07 GMT-0400 (Eastern Daylight Time),739109.5,071_y_f_h_a.png,I,m,365,12,1,1375.3000000715256,737734.1999999285,1,VNB,A,10
4,test,5,0.0,2-Back,0.0,m,Fri Mar 27 2026 15:47:07 GMT-0400 (Eastern Daylight Time),741076.5,109_y_m_d_a.png,I,z,934,13,1,1959.8000000715256,739116.6999999285,1,VNB,A,11
5,test,5,1.0,2-Back,1.0,z,Fri Mar 27 2026 15:47:07 GMT-0400 (Eastern Daylight Time),743209.7999999523,139_m_f_h_a.png,I,z,1111,14,1,2125.600000023842,741084.1999999285,1,VNB,A,12
6,test,5,0.0,2-Back,1.0,m,Fri Mar 27 2026 15:47:07 GMT-0400 (Eastern Daylight Time),744626.3999999762,039_o_m_n_a.png,I,m,387,15,1,1408.0,743218.3999999762,1,VNB,A,13
6,test,5,0.0,2-Back,0.0,m,Fri Mar 27 2026 15:47:07 GMT-0400 (Eastern Daylight Time),746142.6999999285,165_m_m_d_a.png,I,z,489,16,1,1506.3999999761581,744636.2999999523,1,VNB,A,14
6,test,5,0.0,2-Back,0.0,z,Fri Mar 27 2026 15:47:07 GMT-0400 (Eastern Daylight Time),747525.8999999762,124_o_f_n_a.png,I,m,365,17,1,1379.1000000238419,746146.7999999523,1,VNB,A,15
6,test,5,1.0,2-Back,0.0,m,Fri Mar 27 2026 15:47:07 GMT-0400 (Eastern Daylight Time),749275.7999999523,109_y_m_h_a.png,I,z,725,18,1,1745.8999999761581,747529.8999999762,1,VNB,A,16
