acc_sum,block,block_c,change,condition,correct,correct_response,datetime,endtime,face,project,response,response_time,row_sel,session_number,start_end,starttime,subject_id,task,task_vers,trial
0,prac,1,,1-Back,,,Tue Apr 21 2026 13:03:12 GMT-0500 (Central Daylight Time),,124_o_f_d_a.png,I,space,2395,1,,,,1,VNB,A,0
1,prac,1,0.0,1-Back,1.0,m,Tue Apr 21 2026 13:03:12 GMT-0500 (Central Daylight Time),70650.19999998808,071_y_f_n_a.png,I,m,904,2,,1707.0,68943.19999998808,1,VNB,A,1
2,prac,1,0.0,1-Back,1.0,m,Tue Apr 21 2026 13:03:12 GMT-0500 (Central Daylight Time),72099.69999998808,165_m_m_h_a.png,I,m,638,3,,1442.8999999910593,70656.79999999702,1,VNB,A,2
3,prac,1,0.0,1-Back,1.0,m,Tue Apr 21 2026 13:03:12 GMT-0500 (Central Daylight Time),73635.59999999404,109_y_m_d_a.png,I,m,712,4,,1529.4000000059605,72106.19999998808,1,VNB,A,3
4,prac,1,0.0,1-Back,1.0,m,Tue Apr 21 2026 13:03:12 GMT-0500 (Central Daylight Time),75698.29999999702,124_o_f_n_a.png,I,m,1233,5,,2056.9000000059605,73641.39999999106,1,VNB,A,4
5,prac,1,1.0,1-Back,1.0,z,Tue Apr 21 2026 13:03:12 GMT-0500 (Central Daylight Time),77797.89999999106,109_y_m_n_a.png,I,z,1290,6,,2093.3999999910593,75704.5,1,VNB,A,5
6,prac,1,0.0,1-Back,1.0,m,Tue Apr 21 2026 13:03:12 GMT-0500 (Central Daylight Time),79247.0,039_o_m_h_a.png,I,m,627,7,,1443.4000000059605,77803.59999999404,1,VNB,A,6
7,prac,1,0.0,1-Back,1.0,m,Tue Apr 21 2026 13:03:12 GMT-0500 (Central Daylight Time),81246.39999999106,139_m_f_d_a.png,I,m,1195,8,,1992.8999999910593,79253.5,1,VNB,A,7
8,prac,1,1.0,1-Back,1.0,z,Tue Apr 21 2026 13:03:12 GMT-0500 (Central Daylight Time),82996.09999999404,071_y_f_d_a.png,I,z,941,9,,1743.5,81252.59999999404,1,VNB,A,8
9,prac,1,0.0,1-Back,1.0,m,Tue Apr 21 2026 13:03:12 GMT-0500 (Central Daylight Time),84629.69999998808,165_m_m_n_a.png,I,m,838,10,,1627.2999999970198,83002.39999999106,1,VNB,A,9
10,prac,1,0.0,1-Back,1.0,m,Tue Apr 21 2026 13:03:12 GMT-0500 (Central Daylight Time),86295.09999999404,124_o_f_h_a.png,I,m,842,11,,1658.9000000059605,84636.19999998808,1,VNB,A,10
11,prac,1,0.0,1-Back,1.0,m,Tue Apr 21 2026 13:03:12 GMT-0500 (Central Daylight Time),87777.69999998808,109_y_m_d_a.png,I,m,708,12,,1476.0999999940395,86301.59999999404,1,VNB,A,11
0,test,1,0.0,1-Back,,,Tue Apr 21 2026 13:03:12 GMT-0500 (Central Daylight Time),87777.69999998808,071_y_f_d_a.png,I,space,966,1,,1476.0999999940395,86301.59999999404,1,VNB,A,0
1,test,1,0.0,1-Back,1.0,m,Tue Apr 21 2026 13:03:12 GMT-0500 (Central Daylight Time),94809.0,139_m_f_n_a.png,I,m,750,2,,1777.7000000029802,93031.29999999702,1,VNB,A,1
2,test,1,0.0,1-Back,1.0,m,Tue Apr 21 2026 13:03:12 GMT-0500 (Central Daylight Time),96641.59999999404,039_o_m_h_a.png,I,m,800,3,,1828.0,94813.59999999404,1,VNB,A,2
3,test,1,1.0,1-Back,1.0,z,Tue Apr 21 2026 13:03:12 GMT-0500 (Central Daylight Time),98391.09999999404,165_m_m_h_a.png,I,z,720,4,,1744.5999999940395,96646.5,1,VNB,A,3
4,test,1,0.0,1-Back,1.0,m,Tue Apr 21 2026 13:03:12 GMT-0500 (Central Daylight Time),100024.19999998808,124_o_f_n_a.png,I,m,602,5,,1628.7999999970198,98395.39999999106,1,VNB,A,4
5,test,1,0.0,1-Back,1.0,m,Tue Apr 21 2026 13:03:12 GMT-0500 (Central Daylight Time),102090.0,109_y_m_d_a.png,I,m,1041,6,,2061.800000011921,100028.19999998808,1,VNB,A,5
6,test,1,1.0,1-Back,1.0,z,Tue Apr 21 2026 13:03:12 GMT-0500 (Central Daylight Time),104007.0,139_m_f_d_a.png,I,z,895,7,,1912.5,102094.5,1,VNB,A,6
7,test,1,0.0,1-Back,1.0,m,Tue Apr 21 2026 13:03:12 GMT-0500 (Central Daylight Time),105772.29999999702,071_y_f_h_a.png,I,m,747,8,,1761.2000000029802,104011.09999999404,1,VNB,A,7
8,test,1,0.0,1-Back,1.0,m,Tue Apr 21 2026 13:03:12 GMT-0500 (Central Daylight Time),107421.79999999702,039_o_m_n_a.png,I,m,622,9,,1645.2000000029802,105776.59999999404,1,VNB,A,8
9,test,1,0.0,1-Back,1.0,m,Tue Apr 21 2026 13:03:12 GMT-0500 (Central Daylight Time),109088.0,109_y_m_h_a.png,I,m,635,10,,1661.800000011921,107426.19999998808,1,VNB,A,9
10,test,1,0.0,1-Back,1.0,m,Tue Apr 21 2026 13:03:12 GMT-0500 (Central Daylight Time),110687.39999999106,039_o_m_d_a.png,I,m,578,11,,1595.0999999940395,109092.29999999702,1,VNB,A,10
11,test,1,1.0,1-Back,1.0,z,Tue Apr 21 2026 13:03:12 GMT-0500 (Central Daylight Time),112387.09999999404,124_o_f_d_a.png,I,z,674,12,,1695.5999999940395,110691.5,1,VNB,A,11
12,test,1,0.0,1-Back,1.0,m,Tue Apr 21 2026 13:03:12 GMT-0500 (Central Daylight Time),114252.89999999106,165_m_m_n_a.png,I,m,847,13,,1862.2999999970198,112390.59999999404,1,VNB,A,12
13,test,1,1.0,1-Back,1.0,z,Tue Apr 21 2026 13:03:12 GMT-0500 (Central Daylight Time),116252.19999998808,071_y_f_n_a.png,I,z,972,14,,1994.699999988079,114257.5,1,VNB,A,13
14,test,1,0.0,1-Back,1.0,m,Tue Apr 21 2026 13:03:12 GMT-0500 (Central Daylight Time),118168.29999999702,139_m_f_h_a.png,I,m,893,15,,1912.0,116256.29999999702,1,VNB,A,14
15,test,1,0.0,1-Back,1.0,m,Tue Apr 21 2026 13:03:12 GMT-0500 (Central Daylight Time),119784.5,165_m_m_d_a.png,I,m,585,16,,1611.800000011921,118172.69999998808,1,VNB,A,15
16,test,1,0.0,1-Back,1.0,m,Tue Apr 21 2026 13:03:12 GMT-0500 (Central Daylight Time),121550.79999999702,109_y_m_n_a.png,I,m,610,17,,1762.0,119788.79999999702,1,VNB,A,16
17,test,1,0.0,1-Back,1.0,m,Tue Apr 21 2026 13:03:12 GMT-0500 (Central Daylight Time),123200.09999999404,124_o_f_h_a.png,I,m,617,18,,1645.5999999940395,121554.5,1,VNB,A,17
0,test,2,0.0,1-Back,,,Tue Apr 21 2026 13:03:12 GMT-0500 (Central Daylight Time),123200.09999999404,109_y_m_n_a.png,I,space,1033,1,,1645.5999999940395,121554.5,1,VNB,A,0
1,test,2,0.0,1-Back,1.0,m,Tue Apr 21 2026 13:03:12 GMT-0500 (Central Daylight Time),127881.89999999106,071_y_f_h_a.png,I,m,591,2,,1611.7000000029802,126270.19999998808,1,VNB,A,1
2,test,2,1.0,1-Back,1.0,m,Tue Apr 21 2026 13:03:12 GMT-0500 (Central Daylight Time),129381.39999999106,039_o_m_n_a.png,I,m,479,3,,1495.2000000029802,127886.19999998808,1,VNB,A,2
3,test,2,0.0,1-Back,1.0,m,Tue Apr 21 2026 13:03:12 GMT-0500 (Central Daylight Time),131264.19999998808,139_m_f_d_a.png,I,m,860,4,,1878.3999999910593,129385.79999999702,1,VNB,A,3
4,test,2,0.0,1-Back,1.0,z,Tue Apr 21 2026 13:03:12 GMT-0500 (Central Daylight Time),133113.59999999404,165_m_m_d_a.png,I,z,817,5,,1845.5,131268.09999999404,1,VNB,A,4
5,test,2,0.0,1-Back,1.0,m,Tue Apr 21 2026 13:03:12 GMT-0500 (Central Daylight Time),135029.89999999106,109_y_m_h_a.png,I,m,896,6,,1912.0,133117.89999999106,1,VNB,A,5
5,test,2,1.0,1-Back,0.0,z,Tue Apr 21 2026 13:03:12 GMT-0500 (Central Daylight Time),136578.89999999106,124_o_f_h_a.png,I,m,532,7,,1545.3999999910593,135033.5,1,VNB,A,6
6,test,2,0.0,1-Back,1.0,m,Tue Apr 21 2026 13:03:12 GMT-0500 (Central Daylight Time),138295.29999999702,139_m_f_n_a.png,I,m,685,8,,1712.0,136583.29999999702,1,VNB,A,7
6,test,2,0.0,1-Back,0.0,m,Tue Apr 21 2026 13:03:12 GMT-0500 (Central Daylight Time),140044.79999999702,071_y_f_d_a.png,I,z,722,9,,1745.2999999970198,138299.5,1,VNB,A,8
7,test,2,0.0,1-Back,1.0,m,Tue Apr 21 2026 13:03:12 GMT-0500 (Central Daylight Time),142510.29999999702,165_m_m_n_a.png,I,m,1444,10,,2461.2000000029802,140049.09999999404,1,VNB,A,9
8,test,2,1.0,1-Back,1.0,m,Tue Apr 21 2026 13:03:12 GMT-0500 (Central Daylight Time),144210.0,139_m_f_h_a.png,I,m,674,11,,1695.5,142514.5,1,VNB,A,10
9,test,2,0.0,1-Back,1.0,z,Tue Apr 21 2026 13:03:12 GMT-0500 (Central Daylight Time),145909.59999999404,039_o_m_h_a.png,I,z,679,12,,1695.5,144214.09999999404,1,VNB,A,11
10,test,2,0.0,1-Back,1.0,m,Tue Apr 21 2026 13:03:12 GMT-0500 (Central Daylight Time),147459.0,109_y_m_d_a.png,I,m,522,13,,1545.2000000029802,145913.79999999702,1,VNB,A,12
11,test,2,0.0,1-Back,1.0,m,Tue Apr 21 2026 13:03:12 GMT-0500 (Central Daylight Time),149458.19999998808,124_o_f_n_a.png,I,m,982,14,,1994.2999999970198,147463.89999999106,1,VNB,A,13
12,test,2,0.0,1-Back,1.0,z,Tue Apr 21 2026 13:03:12 GMT-0500 (Central Daylight Time),151224.69999998808,071_y_f_n_a.png,I,z,735,15,,1762.5999999940395,149462.09999999404,1,VNB,A,14
13,test,2,1.0,1-Back,1.0,m,Tue Apr 21 2026 13:03:12 GMT-0500 (Central Daylight Time),152940.79999999702,165_m_m_h_a.png,I,m,689,16,,1712.1000000089407,151228.69999998808,1,VNB,A,15
14,test,2,0.0,1-Back,1.0,m,Tue Apr 21 2026 13:03:12 GMT-0500 (Central Daylight Time),154506.79999999702,124_o_f_d_a.png,I,m,549,17,,1561.9000000059605,152944.89999999106,1,VNB,A,16
15,test,2,1.0,1-Back,1.0,z,Tue Apr 21 2026 13:03:12 GMT-0500 (Central Daylight Time),156289.79999999702,039_o_m_d_a.png,I,z,759,18,,1778.9000000059605,154510.89999999106,1,VNB,A,17
0,test,3,1.0,1-Back,,,Tue Apr 21 2026 13:03:12 GMT-0500 (Central Daylight Time),156289.79999999702,124_o_f_h_a.png,I,space,736,1,,1778.9000000059605,154510.89999999106,1,VNB,A,0
1,test,3,0.0,1-Back,1.0,m,Tue Apr 21 2026 13:03:12 GMT-0500 (Central Daylight Time),161154.79999999702,139_m_f_d_a.png,I,m,1040,2,,2061.7999999970198,159093.0,1,VNB,A,1
2,test,3,1.0,1-Back,1.0,m,Tue Apr 21 2026 13:03:12 GMT-0500 (Central Daylight Time),163170.59999999404,165_m_m_n_a.png,I,m,997,3,,2011.5999999940395,161159.0,1,VNB,A,2
3,test,3,0.0,1-Back,1.0,z,Tue Apr 21 2026 13:03:12 GMT-0500 (Central Daylight Time),164970.19999998808,124_o_f_n_a.png,I,z,782,4,,1795.5999999940395,163174.59999999404,1,VNB,A,3
4,test,3,1.0,1-Back,1.0,m,Tue Apr 21 2026 13:03:12 GMT-0500 (Central Daylight Time),166536.69999998808,039_o_m_d_a.png,I,m,543,5,,1562.699999988079,164974.0,1,VNB,A,4
5,test,3,0.0,1-Back,1.0,m,Tue Apr 21 2026 13:03:12 GMT-0500 (Central Daylight Time),168170.09999999404,071_y_f_h_a.png,I,m,608,6,,1629.2999999970198,166540.79999999702,1,VNB,A,5
6,test,3,0.0,1-Back,1.0,z,Tue Apr 21 2026 13:03:12 GMT-0500 (Central Daylight Time),169869.39999999106,109_y_m_h_a.png,I,z,680,7,,1694.2999999970198,168175.09999999404,1,VNB,A,6
7,test,3,0.0,1-Back,1.0,m,Tue Apr 21 2026 13:03:12 GMT-0500 (Central Daylight Time),171434.89999999106,139_m_f_n_a.png,I,m,549,8,,1562.2000000029802,169872.69999998808,1,VNB,A,7
8,test,3,0.0,1-Back,1.0,m,Tue Apr 21 2026 13:03:12 GMT-0500 (Central Daylight Time),173151.0,071_y_f_d_a.png,I,m,694,9,,1713.0,171438.0,1,VNB,A,8
9,test,3,1.0,1-Back,1.0,m,Tue Apr 21 2026 13:03:12 GMT-0500 (Central Daylight Time),174834.09999999404,039_o_m_n_a.png,I,m,658,10,,1679.5999999940395,173154.5,1,VNB,A,9
10,test,3,0.0,1-Back,1.0,m,Tue Apr 21 2026 13:03:12 GMT-0500 (Central Daylight Time),176516.69999998808,165_m_m_h_a.png,I,m,663,11,,1678.5,174838.19999998808,1,VNB,A,10
11,test,3,0.0,1-Back,1.0,z,Tue Apr 21 2026 13:03:12 GMT-0500 (Central Daylight Time),178283.79999999702,139_m_f_h_a.png,I,z,749,12,,1762.2999999970198,176521.5,1,VNB,A,11
12,test,3,1.0,1-Back,1.0,m,Tue Apr 21 2026 13:03:12 GMT-0500 (Central Daylight Time),179966.79999999702,124_o_f_d_a.png,I,m,654,13,,1678.9000000059605,178287.89999999106,1,VNB,A,12
13,test,3,0.0,1-Back,1.0,z,Tue Apr 21 2026 13:03:12 GMT-0500 (Central Daylight Time),182848.0,165_m_m_d_a.png,I,z,1852,14,,2877.2000000029802,179970.79999999702,1,VNB,A,13
14,test,3,0.0,1-Back,1.0,m,Tue Apr 21 2026 13:03:12 GMT-0500 (Central Daylight Time),184464.39999999106,109_y_m_n_a.png,I,m,584,15,,1612.2999999970198,182852.09999999404,1,VNB,A,14
15,test,3,1.0,1-Back,1.0,m,Tue Apr 21 2026 13:03:12 GMT-0500 (Central Daylight Time),186164.79999999702,039_o_m_h_a.png,I,m,681,16,,1696.2000000029802,184468.59999999404,1,VNB,A,15
16,test,3,0.0,1-Back,1.0,m,Tue Apr 21 2026 13:03:12 GMT-0500 (Central Daylight Time),188113.29999999702,109_y_m_d_a.png,I,m,926,17,,1943.6000000089407,186169.69999998808,1,VNB,A,16
17,test,3,1.0,1-Back,1.0,m,Tue Apr 21 2026 13:03:12 GMT-0500 (Central Daylight Time),189695.69999998808,071_y_f_n_a.png,I,m,551,18,,1578.2999999970198,188117.39999999106,1,VNB,A,17
0,test,4,1.0,1-Back,,,Tue Apr 21 2026 13:03:12 GMT-0500 (Central Daylight Time),189695.69999998808,165_m_m_d_a.png,I,space,1402,1,,1578.2999999970198,188117.39999999106,1,VNB,A,0
0,test,4,0.0,1-Back,0.0,z,Tue Apr 21 2026 13:03:12 GMT-0500 (Central Daylight Time),195610.59999999404,039_o_m_d_a.png,I,m,1465,2,,2478.2999999970198,193132.29999999702,1,VNB,A,1
0,test,4,0.0,1-Back,0.0,m,Tue Apr 21 2026 13:03:12 GMT-0500 (Central Daylight Time),197393.59999999404,109_y_m_h_a.png,I,z,758,3,,1778.7000000029802,195614.89999999106,1,VNB,A,2
1,test,4,0.0,1-Back,1.0,m,Tue Apr 21 2026 13:03:12 GMT-0500 (Central Daylight Time),199793.09999999404,139_m_f_n_a.png,I,m,1367,4,,2395.2999999970198,197397.79999999702,1,VNB,A,3
2,test,4,1.0,1-Back,1.0,m,Tue Apr 21 2026 13:03:12 GMT-0500 (Central Daylight Time),201458.89999999106,124_o_f_h_a.png,I,m,640,5,,1661.7000000029802,199797.19999998808,1,VNB,A,4
3,test,4,0.0,1-Back,1.0,m,Tue Apr 21 2026 13:03:12 GMT-0500 (Central Daylight Time),203042.0,165_m_m_n_a.png,I,m,551,6,,1579.2000000029802,201462.79999999702,1,VNB,A,5
4,test,4,0.0,1-Back,1.0,m,Tue Apr 21 2026 13:03:12 GMT-0500 (Central Daylight Time),204741.29999999702,109_y_m_d_a.png,I,m,679,7,,1695.2999999970198,203046.0,1,VNB,A,6
5,test,4,1.0,1-Back,1.0,z,Tue Apr 21 2026 13:03:12 GMT-0500 (Central Daylight Time),206473.89999999106,071_y_f_d_a.png,I,z,716,8,,1728.3999999910593,204745.5,1,VNB,A,7
6,test,4,0.0,1-Back,1.0,m,Tue Apr 21 2026 13:03:12 GMT-0500 (Central Daylight Time),208290.09999999404,139_m_f_h_a.png,I,m,799,9,,1812.7999999970198,206477.29999999702,1,VNB,A,8
7,test,4,0.0,1-Back,1.0,z,Tue Apr 21 2026 13:03:12 GMT-0500 (Central Daylight Time),209989.59999999404,039_o_m_h_a.png,I,z,680,10,,1695.2999999970198,208294.29999999702,1,VNB,A,9
8,test,4,1.0,1-Back,1.0,m,Tue Apr 21 2026 13:03:12 GMT-0500 (Central Daylight Time),211555.59999999404,124_o_f_n_a.png,I,m,540,11,,1561.7999999970198,209993.79999999702,1,VNB,A,10
9,test,4,0.0,1-Back,1.0,m,Tue Apr 21 2026 13:03:12 GMT-0500 (Central Daylight Time),213438.5,139_m_f_d_a.png,I,m,862,12,,1877.7000000029802,211560.79999999702,1,VNB,A,11
10,test,4,0.0,1-Back,1.0,m,Tue Apr 21 2026 13:03:12 GMT-0500 (Central Daylight Time),215107.79999999702,071_y_f_n_a.png,I,m,653,13,,1663.4000000059605,213444.39999999106,1,VNB,A,12
11,test,4,0.0,1-Back,1.0,m,Tue Apr 21 2026 13:03:12 GMT-0500 (Central Daylight Time),216787.5,124_o_f_d_a.png,I,m,665,14,,1674.7000000029802,215112.79999999702,1,VNB,A,13
12,test,4,0.0,1-Back,1.0,m,Tue Apr 21 2026 13:03:12 GMT-0500 (Central Daylight Time),218553.5,071_y_f_h_a.png,I,m,734,15,,1762.0,216791.5,1,VNB,A,14
13,test,4,1.0,1-Back,1.0,z,Tue Apr 21 2026 13:03:12 GMT-0500 (Central Daylight Time),220302.79999999702,165_m_m_h_a.png,I,z,728,16,,1745.2000000029802,218557.59999999404,1,VNB,A,15
14,test,4,0.0,1-Back,1.0,m,Tue Apr 21 2026 13:03:12 GMT-0500 (Central Daylight Time),221985.89999999106,039_o_m_n_a.png,I,m,651,17,,1679.5999999940395,220306.29999999702,1,VNB,A,16
15,test,4,1.0,1-Back,1.0,z,Tue Apr 21 2026 13:03:12 GMT-0500 (Central Daylight Time),223718.69999998808,109_y_m_n_a.png,I,z,711,18,,1728.5,221990.19999998808,1,VNB,A,17
0,test,5,1.0,1-Back,,,Tue Apr 21 2026 13:03:12 GMT-0500 (Central Daylight Time),223718.69999998808,039_o_m_n_a.png,I,space,707,1,,1728.5,221990.19999998808,1,VNB,A,0
1,test,5,1.0,1-Back,1.0,m,Tue Apr 21 2026 13:03:12 GMT-0500 (Central Daylight Time),228266.89999999106,124_o_f_h_a.png,I,m,798,2,,1811.5999999940395,226455.29999999702,1,VNB,A,1
1,test,5,0.0,1-Back,0.0,m,Tue Apr 21 2026 13:03:12 GMT-0500 (Central Daylight Time),229916.69999998808,109_y_m_d_a.png,I,z,622,3,,1646.2999999970198,228270.39999999106,1,VNB,A,2
2,test,5,0.0,1-Back,1.0,z,Tue Apr 21 2026 13:03:12 GMT-0500 (Central Daylight Time),231716.19999998808,039_o_m_d_a.png,I,z,772,4,,1795.5999999940395,229920.59999999404,1,VNB,A,3
3,test,5,0.0,1-Back,1.0,m,Tue Apr 21 2026 13:03:12 GMT-0500 (Central Daylight Time),233298.59999999404,139_m_f_h_a.png,I,m,565,5,,1578.5,231720.09999999404,1,VNB,A,4
4,test,5,0.0,1-Back,1.0,m,Tue Apr 21 2026 13:03:12 GMT-0500 (Central Daylight Time),234948.0,071_y_f_n_a.png,I,m,622,6,,1645.4000000059605,233302.59999999404,1,VNB,A,5
4,test,5,1.0,1-Back,0.0,z,Tue Apr 21 2026 13:03:12 GMT-0500 (Central Daylight Time),237697.19999998808,124_o_f_n_a.png,I,m,1716,7,,2745.0999999940395,234952.09999999404,1,VNB,A,6
5,test,5,0.0,1-Back,1.0,m,Tue Apr 21 2026 13:03:12 GMT-0500 (Central Daylight Time),239496.59999999404,139_m_f_d_a.png,I,m,674,8,,1795.5,237701.09999999404,1,VNB,A,7
6,test,5,0.0,1-Back,1.0,m,Tue Apr 21 2026 13:03:12 GMT-0500 (Central Daylight Time),241212.69999998808,109_y_m_h_a.png,I,m,688,9,,1711.8999999910593,239500.79999999702,1,VNB,A,8
7,test,5,0.0,1-Back,1.0,m,Tue Apr 21 2026 13:03:12 GMT-0500 (Central Daylight Time),242862.19999998808,071_y_f_d_a.png,I,m,629,10,,1645.2999999970198,241216.89999999106,1,VNB,A,9
8,test,5,0.0,1-Back,1.0,m,Tue Apr 21 2026 13:03:12 GMT-0500 (Central Daylight Time),244545.09999999404,165_m_m_n_a.png,I,m,650,11,,1679.2000000029802,242865.89999999106,1,VNB,A,10
9,test,5,1.0,1-Back,1.0,z,Tue Apr 21 2026 13:03:12 GMT-0500 (Central Daylight Time),246261.19999998808,139_m_f_n_a.png,I,z,687,12,,1711.2999999970198,244549.89999999106,1,VNB,A,11
10,test,5,0.0,1-Back,1.0,m,Tue Apr 21 2026 13:03:12 GMT-0500 (Central Daylight Time),247910.5,039_o_m_h_a.png,I,m,627,13,,1645.0,246265.5,1,VNB,A,12
11,test,5,0.0,1-Back,1.0,z,Tue Apr 21 2026 13:03:12 GMT-0500 (Central Daylight Time),249743.59999999404,165_m_m_h_a.png,I,z,802,14,,1829.0999999940395,247914.5,1,VNB,A,13
12,test,5,1.0,1-Back,1.0,m,Tue Apr 21 2026 13:03:12 GMT-0500 (Central Daylight Time),251409.69999998808,124_o_f_d_a.png,I,m,649,15,,1661.8999999910593,249747.79999999702,1,VNB,A,14
13,test,5,0.0,1-Back,1.0,m,Tue Apr 21 2026 13:03:12 GMT-0500 (Central Daylight Time),252993.69999998808,109_y_m_n_a.png,I,m,551,16,,1579.7999999970198,251413.89999999106,1,VNB,A,15
14,test,5,0.0,1-Back,1.0,m,Tue Apr 21 2026 13:03:12 GMT-0500 (Central Daylight Time),254675.29999999702,071_y_f_h_a.png,I,m,655,17,,1677.2000000029802,252998.09999999404,1,VNB,A,16
15,test,5,0.0,1-Back,1.0,m,Tue Apr 21 2026 13:03:12 GMT-0500 (Central Daylight Time),256624.59999999404,165_m_m_d_a.png,I,m,926,18,,1944.9000000059605,254679.69999998808,1,VNB,A,17
0,prac,1,0.0,2-Back,,,Tue Apr 21 2026 13:03:12 GMT-0500 (Central Daylight Time),256624.59999999404,139_m_f_n_a.png,I,space,2016,1,,1944.9000000059605,254679.69999998808,1,VNB,A,0
0,prac,1,0.0,2-Back,,,Tue Apr 21 2026 13:03:12 GMT-0500 (Central Daylight Time),256624.59999999404,124_o_f_h_a.png,I,space,2016,2,,1944.9000000059605,254679.69999998808,1,VNB,A,0
1,prac,1,0.0,2-Back,1.0,m,Tue Apr 21 2026 13:03:12 GMT-0500 (Central Daylight Time),317189.5,039_o_m_d_a.png,I,m,1021,3,,1825.5,315364.0,1,VNB,A,1
1,prac,1,1.0,2-Back,0.0,z,Tue Apr 21 2026 13:03:12 GMT-0500 (Central Daylight Time),320005.09999999404,165_m_m_h_a.png,I,None,2015,4,,2808.4000000059605,317196.6999999881,1,VNB,A,2
2,prac,1,0.0,2-Back,1.0,m,Tue Apr 21 2026 13:03:12 GMT-0500 (Central Daylight Time),321904.5,071_y_f_n_a.png,I,m,1091,5,,1892.300000011921,320012.1999999881,1,VNB,A,3
2,prac,1,1.0,2-Back,0.0,z,Tue Apr 21 2026 13:03:12 GMT-0500 (Central Daylight Time),323504.0,039_o_m_h_a.png,I,m,785,6,,1593.1000000089407,321910.89999999106,1,VNB,A,4
2,prac,1,1.0,2-Back,0.0,z,Tue Apr 21 2026 13:03:12 GMT-0500 (Central Daylight Time),325570.09999999404,109_y_m_n_a.png,I,m,1259,7,,2058.7999999970198,323511.299999997,1,VNB,A,5
2,prac,1,0.0,2-Back,0.0,m,Tue Apr 21 2026 13:03:12 GMT-0500 (Central Daylight Time),327253.09999999404,139_m_f_d_a.png,I,z,880,8,,1676.5,325576.59999999404,1,VNB,A,6
3,prac,1,0.0,2-Back,1.0,m,Tue Apr 21 2026 13:03:12 GMT-0500 (Central Daylight Time),329085.6999999881,124_o_f_d_a.png,I,m,990,9,,1825.8999999910593,327259.799999997,1,VNB,A,7
4,prac,1,0.0,2-Back,1.0,m,Tue Apr 21 2026 13:03:12 GMT-0500 (Central Daylight Time),331001.89999999106,165_m_m_h_a.png,I,m,1141,10,,1909.7000000029802,329092.1999999881,1,VNB,A,8
4,prac,1,1.0,2-Back,0.0,z,Tue Apr 21 2026 13:03:12 GMT-0500 (Central Daylight Time),332568.0,071_y_f_d_a.png,I,m,760,11,,1559.2000000029802,331008.799999997,1,VNB,A,9
5,prac,1,0.0,2-Back,1.0,m,Tue Apr 21 2026 13:03:12 GMT-0500 (Central Daylight Time),334767.1999999881,039_o_m_n_a.png,I,m,1387,12,,2193.3999999910593,332573.799999997,1,VNB,A,10
0,test,1,0.0,2-Back,,,Tue Apr 21 2026 13:03:12 GMT-0500 (Central Daylight Time),334767.1999999881,109_y_m_h_a.png,I,space,555,1,,2193.3999999910593,332573.799999997,1,VNB,A,0
0,test,1,0.0,2-Back,,,Tue Apr 21 2026 13:03:12 GMT-0500 (Central Daylight Time),334767.1999999881,124_o_f_n_a.png,I,space,555,2,,2193.3999999910593,332573.799999997,1,VNB,A,0
1,test,1,0.0,2-Back,1.0,z,Tue Apr 21 2026 13:03:12 GMT-0500 (Central Daylight Time),345363.59999999404,039_o_m_h_a.png,I,z,1439,3,,2461.2000000029802,342902.39999999106,1,VNB,A,1
1,test,1,0.0,2-Back,0.0,m,Tue Apr 21 2026 13:03:12 GMT-0500 (Central Daylight Time),348396.5,139_m_f_d_a.png,I,None,2015,4,,3028.300000011921,345368.1999999881,1,VNB,A,2
2,test,1,1.0,2-Back,1.0,m,Tue Apr 21 2026 13:03:12 GMT-0500 (Central Daylight Time),350428.799999997,109_y_m_n_a.png,I,m,1005,5,,2027.7999999970198,348401.0,1,VNB,A,3
2,test,1,0.0,2-Back,0.0,z,Tue Apr 21 2026 13:03:12 GMT-0500 (Central Daylight Time),352095.0,071_y_f_d_a.png,I,m,637,6,,1662.800000011921,350432.1999999881,1,VNB,A,4
3,test,1,0.0,2-Back,1.0,m,Tue Apr 21 2026 13:03:12 GMT-0500 (Central Daylight Time),353794.6999999881,165_m_m_h_a.png,I,m,683,7,,1695.5999999940395,352099.09999999404,1,VNB,A,5
4,test,1,1.0,2-Back,1.0,m,Tue Apr 21 2026 13:03:12 GMT-0500 (Central Daylight Time),355727.299999997,071_y_f_n_a.png,I,m,903,8,,1928.9000000059605,353798.39999999106,1,VNB,A,6
4,test,1,0.0,2-Back,0.0,z,Tue Apr 21 2026 13:03:12 GMT-0500 (Central Daylight Time),357627.6999999881,124_o_f_h_a.png,I,m,882,9,,1896.0,355731.6999999881,1,VNB,A,7
5,test,1,0.0,2-Back,1.0,m,Tue Apr 21 2026 13:03:12 GMT-0500 (Central Daylight Time),359342.89999999106,039_o_m_d_a.png,I,m,695,10,,1710.5,357632.39999999106,1,VNB,A,8
6,test,1,1.0,2-Back,1.0,m,Tue Apr 21 2026 13:03:12 GMT-0500 (Central Daylight Time),360977.09999999404,165_m_m_d_a.png,I,m,611,11,,1630.2000000029802,359346.89999999106,1,VNB,A,9
7,test,1,0.0,2-Back,1.0,m,Tue Apr 21 2026 13:03:12 GMT-0500 (Central Daylight Time),362891.39999999106,139_m_f_n_a.png,I,m,898,12,,1909.7999999970198,360981.59999999404,1,VNB,A,10
8,test,1,0.0,2-Back,1.0,m,Tue Apr 21 2026 13:03:12 GMT-0500 (Central Daylight Time),364691.1999999881,071_y_f_h_a.png,I,m,774,13,,1795.8999999910593,362895.299999997,1,VNB,A,11
9,test,1,0.0,2-Back,1.0,z,Tue Apr 21 2026 13:03:12 GMT-0500 (Central Daylight Time),366457.299999997,165_m_m_n_a.png,I,z,734,14,,1761.9000000059605,364695.39999999106,1,VNB,A,12
10,test,1,0.0,2-Back,1.0,m,Tue Apr 21 2026 13:03:12 GMT-0500 (Central Daylight Time),368473.299999997,109_y_m_d_a.png,I,m,992,15,,2012.4000000059605,366460.89999999106,1,VNB,A,13
11,test,1,1.0,2-Back,1.0,m,Tue Apr 21 2026 13:03:12 GMT-0500 (Central Daylight Time),370806.0,139_m_f_h_a.png,I,m,1303,16,,2328.7000000029802,368477.299999997,1,VNB,A,14
12,test,1,0.0,2-Back,1.0,z,Tue Apr 21 2026 13:03:12 GMT-0500 (Central Daylight Time),372905.09999999404,124_o_f_d_a.png,I,z,1076,17,,2095.2999999970198,370809.799999997,1,VNB,A,15
12,test,1,0.0,2-Back,0.0,m,Tue Apr 21 2026 13:03:12 GMT-0500 (Central Daylight Time),374654.799999997,039_o_m_n_a.png,I,z,728,18,,1746.0,372908.799999997,1,VNB,A,16
0,test,2,0.0,2-Back,,,Tue Apr 21 2026 13:03:12 GMT-0500 (Central Daylight Time),374654.799999997,165_m_m_h_a.png,I,space,795,1,,1746.0,372908.799999997,1,VNB,A,0
0,test,2,0.0,2-Back,,,Tue Apr 21 2026 13:03:12 GMT-0500 (Central Daylight Time),374654.799999997,071_y_f_n_a.png,I,space,795,2,,1746.0,372908.799999997,1,VNB,A,0
0,test,2,1.0,2-Back,0.0,z,Tue Apr 21 2026 13:03:12 GMT-0500 (Central Daylight Time),383402.09999999404,124_o_f_h_a.png,I,m,1833,3,,2861.5999999940395,380540.5,1,VNB,A,1
1,test,2,0.0,2-Back,1.0,m,Tue Apr 21 2026 13:03:12 GMT-0500 (Central Daylight Time),385218.0,039_o_m_d_a.png,I,m,792,4,,1812.2000000029802,383405.799999997,1,VNB,A,2
2,test,2,0.0,2-Back,1.0,m,Tue Apr 21 2026 13:03:12 GMT-0500 (Central Daylight Time),387134.299999997,139_m_f_d_a.png,I,m,886,5,,1912.2999999970198,385222.0,1,VNB,A,3
3,test,2,0.0,2-Back,1.0,m,Tue Apr 21 2026 13:03:12 GMT-0500 (Central Daylight Time),389433.1999999881,109_y_m_h_a.png,I,m,1266,6,,2295.0,387138.1999999881,1,VNB,A,4
4,test,2,0.0,2-Back,1.0,m,Tue Apr 21 2026 13:03:12 GMT-0500 (Central Daylight Time),391199.299999997,124_o_f_n_a.png,I,m,744,7,,1761.9000000059605,389437.39999999106,1,VNB,A,5
5,test,2,1.0,2-Back,1.0,z,Tue Apr 21 2026 13:03:12 GMT-0500 (Central Daylight Time),392815.5,039_o_m_h_a.png,I,z,586,8,,1612.0,391203.5,1,VNB,A,6
5,test,2,0.0,2-Back,0.0,m,Tue Apr 21 2026 13:03:12 GMT-0500 (Central Daylight Time),395264.799999997,071_y_f_d_a.png,I,z,1426,9,,2444.9000000059605,392819.89999999106,1,VNB,A,7
6,test,2,0.0,2-Back,1.0,m,Tue Apr 21 2026 13:03:12 GMT-0500 (Central Daylight Time),397164.39999999106,109_y_m_d_a.png,I,m,871,10,,1895.3999999910593,395269.0,1,VNB,A,8
7,test,2,0.0,2-Back,1.0,m,Tue Apr 21 2026 13:03:12 GMT-0500 (Central Daylight Time),399863.5,165_m_m_n_a.png,I,m,1669,11,,2695.2000000029802,397168.299999997,1,VNB,A,9
8,test,2,0.0,2-Back,1.0,m,Tue Apr 21 2026 13:03:12 GMT-0500 (Central Daylight Time),401679.39999999106,139_m_f_h_a.png,I,m,794,12,,1811.2999999970198,399868.09999999404,1,VNB,A,10
8,test,2,1.0,2-Back,0.0,z,Tue Apr 21 2026 13:03:12 GMT-0500 (Central Daylight Time),403692.5,039_o_m_n_a.png,I,m,996,13,,2008.9000000059605,401683.59999999404,1,VNB,A,11
9,test,2,0.0,2-Back,1.0,m,Tue Apr 21 2026 13:03:12 GMT-0500 (Central Daylight Time),405361.59999999404,124_o_f_d_a.png,I,m,634,14,,1664.4000000059605,403697.1999999881,1,VNB,A,12
10,test,2,0.0,2-Back,1.0,m,Tue Apr 21 2026 13:03:12 GMT-0500 (Central Daylight Time),407294.1999999881,071_y_f_h_a.png,I,m,912,15,,1928.5999999940395,405365.59999999404,1,VNB,A,13
11,test,2,0.0,2-Back,1.0,z,Tue Apr 21 2026 13:03:12 GMT-0500 (Central Daylight Time),409360.299999997,165_m_m_d_a.png,I,z,1035,16,,2062.0,407298.299999997,1,VNB,A,14
12,test,2,0.0,2-Back,1.0,m,Tue Apr 21 2026 13:03:12 GMT-0500 (Central Daylight Time),411093.299999997,109_y_m_n_a.png,I,m,713,17,,1729.1000000089407,409364.1999999881,1,VNB,A,15
13,test,2,1.0,2-Back,1.0,m,Tue Apr 21 2026 13:03:12 GMT-0500 (Central Daylight Time),413409.1999999881,139_m_f_n_a.png,I,m,1292,18,,2312.0,411097.1999999881,1,VNB,A,16
0,test,3,1.0,2-Back,,,Tue Apr 21 2026 13:03:12 GMT-0500 (Central Daylight Time),413409.1999999881,039_o_m_n_a.png,I,space,752,1,,2312.0,411097.1999999881,1,VNB,A,0
0,test,3,1.0,2-Back,,,Tue Apr 21 2026 13:03:12 GMT-0500 (Central Daylight Time),413409.1999999881,124_o_f_d_a.png,I,space,752,2,,2312.0,411097.1999999881,1,VNB,A,0
1,test,3,0.0,2-Back,1.0,m,Tue Apr 21 2026 13:03:12 GMT-0500 (Central Daylight Time),421040.09999999404,071_y_f_h_a.png,I,m,785,3,,1810.9000000059605,419229.1999999881,1,VNB,A,1
2,test,3,0.0,2-Back,1.0,z,Tue Apr 21 2026 13:03:12 GMT-0500 (Central Daylight Time),423455.799999997,139_m_f_d_a.png,I,z,1392,4,,2411.6000000089407,421044.1999999881,1,VNB,A,2
3,test,3,1.0,2-Back,1.0,m,Tue Apr 21 2026 13:03:12 GMT-0500 (Central Daylight Time),425005.59999999404,109_y_m_n_a.png,I,m,529,5,,1545.7000000029802,423459.89999999106,1,VNB,A,3
4,test,3,0.0,2-Back,1.0,m,Tue Apr 21 2026 13:03:12 GMT-0500 (Central Daylight Time),426888.39999999106,039_o_m_h_a.png,I,m,860,6,,1878.5999999940395,425009.799999997,1,VNB,A,4
5,test,3,0.0,2-Back,1.0,z,Tue Apr 21 2026 13:03:12 GMT-0500 (Central Daylight Time),429054.09999999404,071_y_f_n_a.png,I,z,1144,7,,2161.4000000059605,426892.6999999881,1,VNB,A,5
6,test,3,1.0,2-Back,1.0,m,Tue Apr 21 2026 13:03:12 GMT-0500 (Central Daylight Time),431503.5,165_m_m_d_a.png,I,m,1427,8,,2445.5,429058.0,1,VNB,A,6
7,test,3,0.0,2-Back,1.0,m,Tue Apr 21 2026 13:03:12 GMT-0500 (Central Daylight Time),433436.299999997,109_y_m_d_a.png,I,m,914,9,,1929.0,431507.299999997,1,VNB,A,7
8,test,3,0.0,2-Back,1.0,m,Tue Apr 21 2026 13:03:12 GMT-0500 (Central Daylight Time),435719.0,124_o_f_h_a.png,I,m,1261,10,,2278.7000000029802,433440.299999997,1,VNB,A,8
9,test,3,1.0,2-Back,1.0,m,Tue Apr 21 2026 13:03:12 GMT-0500 (Central Daylight Time),437634.5,139_m_f_n_a.png,I,m,897,11,,1910.5,435724.0,1,VNB,A,9
10,test,3,1.0,2-Back,1.0,z,Tue Apr 21 2026 13:03:12 GMT-0500 (Central Daylight Time),439334.59999999404,165_m_m_h_a.png,I,z,678,12,,1696.2000000029802,437638.39999999106,1,VNB,A,10
11,test,3,0.0,2-Back,1.0,m,Tue Apr 21 2026 13:03:12 GMT-0500 (Central Daylight Time),441766.799999997,071_y_f_d_a.png,I,m,1403,13,,2428.6000000089407,439338.1999999881,1,VNB,A,11
12,test,3,0.0,2-Back,1.0,m,Tue Apr 21 2026 13:03:12 GMT-0500 (Central Daylight Time),443866.299999997,124_o_f_n_a.png,I,m,1075,14,,2095.1000000089407,441771.1999999881,1,VNB,A,12
13,test,3,0.0,2-Back,1.0,z,Tue Apr 21 2026 13:03:12 GMT-0500 (Central Daylight Time),445732.39999999106,039_o_m_d_a.png,I,z,840,15,,1861.8999999910593,443870.5,1,VNB,A,13
14,test,3,1.0,2-Back,1.0,m,Tue Apr 21 2026 13:03:12 GMT-0500 (Central Daylight Time),447598.299999997,139_m_f_h_a.png,I,m,837,16,,1861.6000000089407,445736.6999999881,1,VNB,A,14
15,test,3,0.0,2-Back,1.0,m,Tue Apr 21 2026 13:03:12 GMT-0500 (Central Daylight Time),450064.1999999881,165_m_m_n_a.png,I,m,1435,17,,2462.0999999940395,447602.09999999404,1,VNB,A,15
16,test,3,0.0,2-Back,1.0,z,Tue Apr 21 2026 13:03:12 GMT-0500 (Central Daylight Time),451630.299999997,109_y_m_h_a.png,I,z,537,18,,1561.9000000059605,450068.39999999106,1,VNB,A,16
0,test,4,0.0,2-Back,,,Tue Apr 21 2026 13:03:12 GMT-0500 (Central Daylight Time),451630.299999997,139_m_f_n_a.png,I,space,658,1,,1561.9000000059605,450068.39999999106,1,VNB,A,0
0,test,4,0.0,2-Back,,,Tue Apr 21 2026 13:03:12 GMT-0500 (Central Daylight Time),451630.299999997,039_o_m_n_a.png,I,space,658,2,,1561.9000000059605,450068.39999999106,1,VNB,A,0
1,test,4,1.0,2-Back,1.0,m,Tue Apr 21 2026 13:03:12 GMT-0500 (Central Daylight Time),459678.0,109_y_m_h_a.png,I,m,1287,3,,2312.1000000089407,457365.89999999106,1,VNB,A,1
2,test,4,1.0,2-Back,1.0,m,Tue Apr 21 2026 13:03:12 GMT-0500 (Central Daylight Time),461610.799999997,124_o_f_d_a.png,I,m,907,4,,1928.7999999970198,459682.0,1,VNB,A,2
3,test,4,0.0,2-Back,1.0,z,Tue Apr 21 2026 13:03:12 GMT-0500 (Central Daylight Time),463193.5,039_o_m_h_a.png,I,z,559,5,,1578.7000000029802,461614.799999997,1,VNB,A,3
4,test,4,0.0,2-Back,1.0,m,Tue Apr 21 2026 13:03:12 GMT-0500 (Central Daylight Time),465242.59999999404,165_m_m_n_a.png,I,m,1032,6,,2045.0,463197.59999999404,1,VNB,A,4
5,test,4,0.0,2-Back,1.0,m,Tue Apr 21 2026 13:03:12 GMT-0500 (Central Daylight Time),467342.0,139_m_f_d_a.png,I,m,1069,7,,2095.800000011921,465246.1999999881,1,VNB,A,5
6,test,4,0.0,2-Back,1.0,z,Tue Apr 21 2026 13:03:12 GMT-0500 (Central Daylight Time),469124.89999999106,071_y_f_n_a.png,I,z,762,8,,1778.5999999940395,467346.299999997,1,VNB,A,6
7,test,4,1.0,2-Back,1.0,m,Tue Apr 21 2026 13:03:12 GMT-0500 (Central Daylight Time),470874.59999999404,124_o_f_h_a.png,I,m,733,9,,1745.5,469129.09999999404,1,VNB,A,7
8,test,4,0.0,2-Back,1.0,m,Tue Apr 21 2026 13:03:12 GMT-0500 (Central Daylight Time),473223.59999999404,165_m_m_h_a.png,I,m,1327,10,,2345.2999999970198,470878.299999997,1,VNB,A,8
9,test,4,0.0,2-Back,1.0,m,Tue Apr 21 2026 13:03:12 GMT-0500 (Central Daylight Time),475139.6999999881,071_y_f_d_a.png,I,m,784,11,,1912.2999999970198,473227.39999999106,1,VNB,A,9
10,test,4,0.0,2-Back,1.0,m,Tue Apr 21 2026 13:03:12 GMT-0500 (Central Daylight Time),476789.09999999404,109_y_m_n_a.png,I,m,622,12,,1645.4000000059605,475143.6999999881,1,VNB,A,10
11,test,4,0.0,2-Back,1.0,z,Tue Apr 21 2026 13:03:12 GMT-0500 (Central Daylight Time),478755.5,039_o_m_d_a.png,I,z,940,13,,1962.800000011921,476792.6999999881,1,VNB,A,11
12,test,4,1.0,2-Back,1.0,m,Tue Apr 21 2026 13:03:12 GMT-0500 (Central Daylight Time),480621.5,139_m_f_h_a.png,I,m,837,14,,1862.4000000059605,478759.09999999404,1,VNB,A,12
12,test,4,1.0,2-Back,0.0,m,Tue Apr 21 2026 13:03:12 GMT-0500 (Central Daylight Time),482954.09999999404,071_y_f_h_a.png,I,z,1300,15,,2329.0,480625.09999999404,1,VNB,A,13
13,test,4,0.0,2-Back,1.0,m,Tue Apr 21 2026 13:03:12 GMT-0500 (Central Daylight Time),484803.59999999404,124_o_f_n_a.png,I,m,823,16,,1845.4000000059605,482958.1999999881,1,VNB,A,14
14,test,4,0.0,2-Back,1.0,m,Tue Apr 21 2026 13:03:12 GMT-0500 (Central Daylight Time),486353.0,109_y_m_d_a.png,I,m,517,17,,1545.4000000059605,484807.59999999404,1,VNB,A,15
14,test,4,1.0,2-Back,0.0,m,Tue Apr 21 2026 13:03:12 GMT-0500 (Central Daylight Time),488185.59999999404,165_m_m_d_a.png,I,z,809,18,,1828.7000000029802,486356.89999999106,1,VNB,A,16
0,test,5,1.0,2-Back,,,Tue Apr 21 2026 13:03:12 GMT-0500 (Central Daylight Time),488185.59999999404,071_y_f_d_a.png,I,space,712,1,,1828.7000000029802,486356.89999999106,1,VNB,A,0
0,test,5,1.0,2-Back,,,Tue Apr 21 2026 13:03:12 GMT-0500 (Central Daylight Time),488185.59999999404,124_o_f_h_a.png,I,space,712,2,,1828.7000000029802,486356.89999999106,1,VNB,A,0
1,test,5,1.0,2-Back,1.0,z,Tue Apr 21 2026 13:03:12 GMT-0500 (Central Daylight Time),496816.299999997,039_o_m_d_a.png,I,z,1810,3,,2827.5,493988.799999997,1,VNB,A,1
2,test,5,1.0,2-Back,1.0,m,Tue Apr 21 2026 13:03:12 GMT-0500 (Central Daylight Time),498749.1999999881,139_m_f_n_a.png,I,m,905,4,,1928.2999999970198,496820.89999999106,1,VNB,A,2
2,test,5,0.0,2-Back,0.0,m,Tue Apr 21 2026 13:03:12 GMT-0500 (Central Daylight Time),500531.89999999106,165_m_m_h_a.png,I,z,764,5,,1778.3999999910593,498753.5,1,VNB,A,3
2,test,5,0.0,2-Back,0.0,z,Tue Apr 21 2026 13:03:12 GMT-0500 (Central Daylight Time),502348.0,071_y_f_n_a.png,I,m,789,6,,1812.0,500536.0,1,VNB,A,4
3,test,5,0.0,2-Back,1.0,m,Tue Apr 21 2026 13:03:12 GMT-0500 (Central Daylight Time),504014.09999999404,124_o_f_d_a.png,I,m,644,7,,1662.0,502352.09999999404,1,VNB,A,5
4,test,5,0.0,2-Back,1.0,m,Tue Apr 21 2026 13:03:12 GMT-0500 (Central Daylight Time),505730.299999997,039_o_m_h_a.png,I,m,683,8,,1712.2999999970198,504018.0,1,VNB,A,6
5,test,5,1.0,2-Back,1.0,z,Tue Apr 21 2026 13:03:12 GMT-0500 (Central Daylight Time),507479.799999997,139_m_f_d_a.png,I,z,719,9,,1745.6000000089407,505734.1999999881,1,VNB,A,7
6,test,5,0.0,2-Back,1.0,m,Tue Apr 21 2026 13:03:12 GMT-0500 (Central Daylight Time),509029.299999997,109_y_m_n_a.png,I,m,530,10,,1545.5,507483.799999997,1,VNB,A,8
7,test,5,0.0,2-Back,1.0,m,Tue Apr 21 2026 13:03:12 GMT-0500 (Central Daylight Time),511095.09999999404,165_m_m_n_a.png,I,m,1036,11,,2062.2999999970198,509032.799999997,1,VNB,A,9
8,test,5,0.0,2-Back,1.0,m,Tue Apr 21 2026 13:03:12 GMT-0500 (Central Daylight Time),512794.799999997,071_y_f_h_a.png,I,m,667,12,,1695.7000000029802,511099.09999999404,1,VNB,A,10
9,test,5,0.0,2-Back,1.0,m,Tue Apr 21 2026 13:03:12 GMT-0500 (Central Daylight Time),514610.5,109_y_m_d_a.png,I,m,799,13,,1811.800000011921,512798.6999999881,1,VNB,A,11
10,test,5,1.0,2-Back,1.0,z,Tue Apr 21 2026 13:03:12 GMT-0500 (Central Daylight Time),516260.39999999106,139_m_f_h_a.png,I,z,630,14,,1646.2000000029802,514614.1999999881,1,VNB,A,12
11,test,5,0.0,2-Back,1.0,m,Tue Apr 21 2026 13:03:12 GMT-0500 (Central Daylight Time),517644.09999999404,039_o_m_n_a.png,I,m,365,15,,1380.2000000029802,516263.89999999106,1,VNB,A,13
12,test,5,0.0,2-Back,1.0,m,Tue Apr 21 2026 13:03:12 GMT-0500 (Central Daylight Time),519342.59999999404,165_m_m_d_a.png,I,m,670,16,,1694.7000000029802,517647.89999999106,1,VNB,A,14
13,test,5,0.0,2-Back,1.0,z,Tue Apr 21 2026 13:03:12 GMT-0500 (Central Daylight Time),521523.39999999106,124_o_f_n_a.png,I,z,1164,17,,2176.8999999910593,519346.5,1,VNB,A,15
14,test,5,1.0,2-Back,1.0,m,Tue Apr 21 2026 13:03:12 GMT-0500 (Central Daylight Time),523224.6999999881,109_y_m_h_a.png,I,m,667,18,,1696.8999999910593,521527.799999997,1,VNB,A,16
