acc_sum,block,block_c,block_cond,con_img,correct,correct_response,datetime,endtime,face,jitter,line,project,response,response_time,row_sel,session_number,start_end,starttime,subject_id,task,task_vers,trial
1,prac,1,A,haborder.png,1,z,Wed Mar 11 2026 14:41:59 GMT-0500 (Central Daylight Time),60251.5,CFD-BM-005-010-A.jpg,1600,solid,O,z,968,2,1,3363.2000000029802,56888.29999999702,7770,ATS,A,1
2,prac,1,A,haborder.png,1,z,Wed Mar 11 2026 14:41:59 GMT-0500 (Central Daylight Time),63717.10000000894,CFD-WM-013-015-A.jpg,1900,solid,O,z,777,8,1,6828.800000011921,56888.29999999702,7770,ATS,A,2
3,prac,1,A,haborder.png,1,m,Wed Mar 11 2026 14:41:59 GMT-0500 (Central Daylight Time),66866.29999999702,CFD-BM-029-026-HC.jpg,1500,solid,O,m,850,3,1,9978.0,56888.29999999702,7770,ATS,A,3
4,prac,1,A,haborder.png,1,m,Wed Mar 11 2026 14:41:59 GMT-0500 (Central Daylight Time),70417.40000000596,CFD-BF-028-020-HC.jpg,2000,solid,O,m,750,5,1,13529.10000000894,56888.29999999702,7770,ATS,A,4
5,prac,1,A,haborder.png,1,m,Wed Mar 11 2026 14:41:59 GMT-0500 (Central Daylight Time),73713.70000000298,CFD-BM-017-052-HC.jpg,1700,solid,O,m,814,1,1,16825.40000000596,56888.29999999702,7770,ATS,A,5
6,prac,1,A,haborder.png,1,z,Wed Mar 11 2026 14:41:59 GMT-0500 (Central Daylight Time),76196.60000000894,CFD-WF-019-015-A.jpg,1000,solid,O,z,702,12,1,19308.30000001192,56888.29999999702,7770,ATS,A,6
7,prac,1,A,haborder.png,1,m,Wed Mar 11 2026 14:41:59 GMT-0500 (Central Daylight Time),79495.20000000298,CFD-WM-006-013-HC.jpg,1700,solid,O,m,808,9,1,22606.90000000596,56888.29999999702,7770,ATS,A,7
8,prac,1,A,haborder.png,1,m,Wed Mar 11 2026 14:41:59 GMT-0500 (Central Daylight Time),82660.60000000894,CFD-WF-017-016-HC.jpg,1500,solid,O,m,870,11,1,25772.30000001192,56888.29999999702,7770,ATS,A,8
9,prac,1,A,haborder.png,1,z,Wed Mar 11 2026 14:41:59 GMT-0500 (Central Daylight Time),85743.79999999702,CFD-WF-003-014-A.jpg,1600,solid,O,z,683,10,1,28855.5,56888.29999999702,7770,ATS,A,9
10,prac,1,A,haborder.png,1,m,Wed Mar 11 2026 14:41:59 GMT-0500 (Central Daylight Time),89258.60000000894,CFD-WM-004-005-HC.jpg,1400,solid,O,m,1329,7,1,32370.30000001192,56888.29999999702,7770,ATS,A,10
11,prac,1,A,haborder.png,1,z,Wed Mar 11 2026 14:41:59 GMT-0500 (Central Daylight Time),91808.29999999702,CFD-BF-023-013-A.jpg,1000,solid,O,z,774,4,1,34920.0,56888.29999999702,7770,ATS,A,11
12,prac,1,A,haborder.png,1,z,Wed Mar 11 2026 14:41:59 GMT-0500 (Central Daylight Time),94657.60000000894,CFD-BF-039-039-A.jpg,1200,solid,O,z,857,6,1,37769.30000001192,56888.29999999702,7770,ATS,A,12
0,prac,1,B,mfborder.png,0,z,Wed Mar 11 2026 14:41:59 GMT-0500 (Central Daylight Time),123881.70000000298,CFD-WF-017-016-HC.jpg,1000,dash,O,None,1517,12,1,3299.7000000029802,120582.0,7770,ATS,A,1
0,prac,1,B,mfborder.png,0,z,Wed Mar 11 2026 14:41:59 GMT-0500 (Central Daylight Time),127680.0,CFD-WF-003-014-A.jpg,1500,dash,O,None,1515,11,1,7098.0,120582.0,7770,ATS,A,2
1,prac,1,B,mfborder.png,1,m,Wed Mar 11 2026 14:41:59 GMT-0500 (Central Daylight Time),131495.60000000894,CFD-BM-029-026-HC.jpg,1700,dash,O,m,1317,1,1,10913.60000000894,120582.0,7770,ATS,A,3
1,prac,1,B,mfborder.png,0,m,Wed Mar 11 2026 14:41:59 GMT-0500 (Central Daylight Time),134627.70000000298,CFD-WM-006-013-HC.jpg,1600,dash,O,z,746,10,1,14045.70000000298,120582.0,7770,ATS,A,4
1,prac,1,B,mfborder.png,0,z,Wed Mar 11 2026 14:41:59 GMT-0500 (Central Daylight Time),138310.5,CFD-BF-028-020-HC.jpg,1400,dash,O,None,1517,7,1,17728.5,120582.0,7770,ATS,A,5
2,prac,1,B,mfborder.png,1,m,Wed Mar 11 2026 14:41:59 GMT-0500 (Central Daylight Time),141741.70000000298,CFD-WM-013-015-A.jpg,1700,dash,O,m,944,9,1,21159.70000000298,120582.0,7770,ATS,A,6
3,prac,1,B,mfborder.png,1,m,Wed Mar 11 2026 14:41:59 GMT-0500 (Central Daylight Time),144942.0,CFD-WM-019-013-A.jpg,1200,dash,O,m,1202,6,1,24360.0,120582.0,7770,ATS,A,7
4,prac,1,B,mfborder.png,1,m,Wed Mar 11 2026 14:41:59 GMT-0500 (Central Daylight Time),148307.79999999702,CFD-BM-005-010-A.jpg,2000,dash,O,m,593,5,1,27725.79999999702,120582.0,7770,ATS,A,8
5,prac,1,B,mfborder.png,1,m,Wed Mar 11 2026 14:41:59 GMT-0500 (Central Daylight Time),151290.90000000596,CFD-BM-010-019-A.jpg,1600,dash,O,m,615,2,1,30708.90000000596,120582.0,7770,ATS,A,9
6,prac,1,B,mfborder.png,1,z,Wed Mar 11 2026 14:41:59 GMT-0500 (Central Daylight Time),154071.79999999702,CFD-BF-010-005-HC.jpg,1500,dash,O,z,490,3,1,33489.79999999702,120582.0,7770,ATS,A,10
7,prac,1,B,mfborder.png,1,z,Wed Mar 11 2026 14:41:59 GMT-0500 (Central Daylight Time),157087.60000000894,CFD-BF-023-013-A.jpg,1000,dash,O,z,1233,4,1,36505.60000000894,120582.0,7770,ATS,A,11
8,prac,1,B,mfborder.png,1,z,Wed Mar 11 2026 14:41:59 GMT-0500 (Central Daylight Time),160287.60000000894,CFD-WF-002-008-HC.jpg,1900,dash,O,z,501,8,1,39705.60000000894,120582.0,7770,ATS,A,12
1,test,1,A,haborder.png,1,z,Wed Mar 11 2026 14:41:59 GMT-0500 (Central Daylight Time),182695.40000000596,CFD-WF-019-015-A.jpg,1000,solid,O,z,744,12,1,1765.7000000029802,180929.70000000298,7770,ATS,A,1
2,test,1,A,haborder.png,1,z,Wed Mar 11 2026 14:41:59 GMT-0500 (Central Daylight Time),185077.40000000596,CFD-BM-005-010-A.jpg,1600,solid,O,z,752,2,1,4147.70000000298,180929.70000000298,7770,ATS,A,2
3,test,1,A,haborder.png,1,z,Wed Mar 11 2026 14:41:59 GMT-0500 (Central Daylight Time),186711.5,CFD-BF-023-013-A.jpg,1000,solid,O,z,601,4,1,5781.79999999702,180929.70000000298,7770,ATS,A,3
4,test,1,A,haborder.png,1,z,Wed Mar 11 2026 14:41:59 GMT-0500 (Central Daylight Time),189326.10000000894,CFD-WM-013-015-A.jpg,1900,solid,O,z,693,8,1,8396.40000000596,180929.70000000298,7770,ATS,A,4
5,test,1,A,haborder.png,1,m,Wed Mar 11 2026 14:41:59 GMT-0500 (Central Daylight Time),191559.40000000596,CFD-BM-029-026-HC.jpg,1500,solid,O,m,701,3,1,10629.70000000298,180929.70000000298,7770,ATS,A,5
6,test,1,A,haborder.png,1,m,Wed Mar 11 2026 14:41:59 GMT-0500 (Central Daylight Time),193925.60000000894,CFD-BM-017-052-HC.jpg,1700,solid,O,m,645,1,1,12995.90000000596,180929.70000000298,7770,ATS,A,6
7,test,1,A,haborder.png,1,m,Wed Mar 11 2026 14:41:59 GMT-0500 (Central Daylight Time),196307.70000000298,CFD-WM-006-013-HC.jpg,1700,solid,O,m,655,9,1,15378.0,180929.70000000298,7770,ATS,A,7
8,test,1,A,haborder.png,1,m,Wed Mar 11 2026 14:41:59 GMT-0500 (Central Daylight Time),198940.5,CFD-BM-017-052-HC.jpg,1700,solid,O,m,913,1,1,18010.79999999702,180929.70000000298,7770,ATS,A,8
9,test,1,A,haborder.png,1,m,Wed Mar 11 2026 14:41:59 GMT-0500 (Central Daylight Time),201172.20000000298,CFD-BM-029-026-HC.jpg,1500,solid,O,m,712,3,1,20242.5,180929.70000000298,7770,ATS,A,9
10,test,1,A,haborder.png,1,m,Wed Mar 11 2026 14:41:59 GMT-0500 (Central Daylight Time),203688.70000000298,CFD-WF-017-016-HC.jpg,1500,solid,O,m,983,11,1,22759.0,180929.70000000298,7770,ATS,A,10
11,test,1,A,haborder.png,1,m,Wed Mar 11 2026 14:41:59 GMT-0500 (Central Daylight Time),205888.10000000894,CFD-WM-004-005-HC.jpg,1400,solid,O,m,776,7,1,24958.40000000596,180929.70000000298,7770,ATS,A,11
12,test,1,A,haborder.png,1,m,Wed Mar 11 2026 14:41:59 GMT-0500 (Central Daylight Time),208670.79999999702,CFD-BF-028-020-HC.jpg,2000,solid,O,m,753,5,1,27741.09999999404,180929.70000000298,7770,ATS,A,12
13,test,1,A,haborder.png,1,z,Wed Mar 11 2026 14:41:59 GMT-0500 (Central Daylight Time),210335.90000000596,CFD-WF-019-015-A.jpg,1000,solid,O,z,642,12,1,29406.20000000298,180929.70000000298,7770,ATS,A,13
14,test,1,A,haborder.png,1,m,Wed Mar 11 2026 14:41:59 GMT-0500 (Central Daylight Time),212902.60000000894,CFD-WM-006-013-HC.jpg,1700,solid,O,m,843,9,1,31972.90000000596,180929.70000000298,7770,ATS,A,14
15,test,1,A,haborder.png,1,z,Wed Mar 11 2026 14:41:59 GMT-0500 (Central Daylight Time),215652.40000000596,CFD-WF-003-014-A.jpg,1600,solid,O,z,1122,10,1,34722.70000000298,180929.70000000298,7770,ATS,A,15
16,test,1,A,haborder.png,1,z,Wed Mar 11 2026 14:41:59 GMT-0500 (Central Daylight Time),218468.0,CFD-WM-013-015-A.jpg,1900,solid,O,z,889,8,1,37538.29999999702,180929.70000000298,7770,ATS,A,16
17,test,1,A,haborder.png,1,z,Wed Mar 11 2026 14:41:59 GMT-0500 (Central Daylight Time),220416.60000000894,CFD-BF-023-013-A.jpg,1000,solid,O,z,925,4,1,39486.90000000596,180929.70000000298,7770,ATS,A,17
18,test,1,A,haborder.png,1,m,Wed Mar 11 2026 14:41:59 GMT-0500 (Central Daylight Time),222866.90000000596,CFD-WM-004-005-HC.jpg,1400,solid,O,m,1032,7,1,41937.20000000298,180929.70000000298,7770,ATS,A,18
19,test,1,A,haborder.png,1,z,Wed Mar 11 2026 14:41:59 GMT-0500 (Central Daylight Time),225581.90000000596,CFD-BM-005-010-A.jpg,1600,solid,O,z,1095,2,1,44652.20000000298,180929.70000000298,7770,ATS,A,19
20,test,1,A,haborder.png,1,z,Wed Mar 11 2026 14:41:59 GMT-0500 (Central Daylight Time),227564.29999999702,CFD-BF-039-039-A.jpg,1200,solid,O,z,755,6,1,46634.59999999404,180929.70000000298,7770,ATS,A,20
21,test,1,A,haborder.png,1,z,Wed Mar 11 2026 14:41:59 GMT-0500 (Central Daylight Time),229431.10000000894,CFD-BF-039-039-A.jpg,1200,solid,O,z,636,6,1,48501.40000000596,180929.70000000298,7770,ATS,A,21
22,test,1,A,haborder.png,1,z,Wed Mar 11 2026 14:41:59 GMT-0500 (Central Daylight Time),231747.60000000894,CFD-WF-003-014-A.jpg,1600,solid,O,z,699,10,1,50817.90000000596,180929.70000000298,7770,ATS,A,22
23,test,1,A,haborder.png,1,m,Wed Mar 11 2026 14:41:59 GMT-0500 (Central Daylight Time),234502.29999999702,CFD-BF-028-020-HC.jpg,2000,solid,O,m,724,5,1,53572.59999999404,180929.70000000298,7770,ATS,A,23
24,test,1,A,haborder.png,1,m,Wed Mar 11 2026 14:41:59 GMT-0500 (Central Daylight Time),236728.0,CFD-WF-017-016-HC.jpg,1500,solid,O,m,708,11,1,55798.29999999702,180929.70000000298,7770,ATS,A,24
1,test,1,B,mfborder.png,1,m,Wed Mar 11 2026 14:41:59 GMT-0500 (Central Daylight Time),255738.29999999702,CFD-BM-029-026-HC.jpg,1700,dash,O,m,630,1,1,2347.3999999910593,253390.90000000596,7770,ATS,A,1
2,test,1,B,mfborder.png,1,m,Wed Mar 11 2026 14:41:59 GMT-0500 (Central Daylight Time),257572.79999999702,CFD-WM-019-013-A.jpg,1200,dash,O,m,601,6,1,4181.899999991059,253390.90000000596,7770,ATS,A,2
3,test,1,B,mfborder.png,1,m,Wed Mar 11 2026 14:41:59 GMT-0500 (Central Daylight Time),259804.60000000894,CFD-BM-010-019-A.jpg,1600,dash,O,m,605,2,1,6413.70000000298,253390.90000000596,7770,ATS,A,3
4,test,1,B,mfborder.png,1,m,Wed Mar 11 2026 14:41:59 GMT-0500 (Central Daylight Time),262103.70000000298,CFD-WM-006-013-HC.jpg,1600,dash,O,m,668,10,1,8712.79999999702,253390.90000000596,7770,ATS,A,4
5,test,1,B,mfborder.png,1,m,Wed Mar 11 2026 14:41:59 GMT-0500 (Central Daylight Time),264703.40000000596,CFD-BM-005-010-A.jpg,2000,dash,O,m,577,5,1,11312.5,253390.90000000596,7770,ATS,A,5
6,test,1,B,mfborder.png,1,z,Wed Mar 11 2026 14:41:59 GMT-0500 (Central Daylight Time),266718.299999997,CFD-BF-028-020-HC.jpg,1400,dash,O,z,593,7,1,13327.39999999106,253390.90000000596,7770,ATS,A,6
7,test,1,B,mfborder.png,1,m,Wed Mar 11 2026 14:41:59 GMT-0500 (Central Daylight Time),268967.799999997,CFD-WM-006-013-HC.jpg,1600,dash,O,m,626,10,1,15576.89999999106,253390.90000000596,7770,ATS,A,7
8,test,1,B,mfborder.png,1,m,Wed Mar 11 2026 14:41:59 GMT-0500 (Central Daylight Time),271350.200000003,CFD-WM-013-015-A.jpg,1700,dash,O,m,652,9,1,17959.29999999702,253390.90000000596,7770,ATS,A,8
9,test,1,B,mfborder.png,1,z,Wed Mar 11 2026 14:41:59 GMT-0500 (Central Daylight Time),272884.60000000894,CFD-WF-017-016-HC.jpg,1000,dash,O,z,514,12,1,19493.70000000298,253390.90000000596,7770,ATS,A,9
10,test,1,B,mfborder.png,1,z,Wed Mar 11 2026 14:41:59 GMT-0500 (Central Daylight Time),275015.799999997,CFD-BF-010-005-HC.jpg,1500,dash,O,z,600,3,1,21624.89999999106,253390.90000000596,7770,ATS,A,10
11,test,1,B,mfborder.png,1,z,Wed Mar 11 2026 14:41:59 GMT-0500 (Central Daylight Time),276998.90000000596,CFD-WF-003-014-A.jpg,1500,dash,O,z,460,11,1,23608.0,253390.90000000596,7770,ATS,A,11
12,test,1,B,mfborder.png,1,z,Wed Mar 11 2026 14:41:59 GMT-0500 (Central Daylight Time),278598.0,CFD-BF-023-013-A.jpg,1000,dash,O,z,577,4,1,25207.09999999404,253390.90000000596,7770,ATS,A,12
13,test,1,B,mfborder.png,1,m,Wed Mar 11 2026 14:41:59 GMT-0500 (Central Daylight Time),281348.10000000894,CFD-WM-013-015-A.jpg,1700,dash,O,m,1031,9,1,27957.20000000298,253390.90000000596,7770,ATS,A,13
14,test,1,B,mfborder.png,1,z,Wed Mar 11 2026 14:41:59 GMT-0500 (Central Daylight Time),283163.40000000596,CFD-BF-023-013-A.jpg,1000,dash,O,z,789,4,1,29772.5,253390.90000000596,7770,ATS,A,14
15,test,1,B,mfborder.png,1,z,Wed Mar 11 2026 14:41:59 GMT-0500 (Central Daylight Time),285330.10000000894,CFD-WF-003-014-A.jpg,1500,dash,O,z,642,11,1,31939.20000000298,253390.90000000596,7770,ATS,A,15
16,test,1,B,mfborder.png,1,z,Wed Mar 11 2026 14:41:59 GMT-0500 (Central Daylight Time),287394.90000000596,CFD-BF-028-020-HC.jpg,1400,dash,O,z,647,7,1,34004.0,253390.90000000596,7770,ATS,A,16
17,test,1,B,mfborder.png,1,z,Wed Mar 11 2026 14:41:59 GMT-0500 (Central Daylight Time),289928.60000000894,CFD-WF-002-008-HC.jpg,1900,dash,O,z,601,8,1,36537.70000000298,253390.90000000596,7770,ATS,A,17
18,test,1,B,mfborder.png,1,z,Wed Mar 11 2026 14:41:59 GMT-0500 (Central Daylight Time),292094.299999997,CFD-BF-010-005-HC.jpg,1500,dash,O,z,636,3,1,38703.39999999106,253390.90000000596,7770,ATS,A,18
19,test,1,B,mfborder.png,1,z,Wed Mar 11 2026 14:41:59 GMT-0500 (Central Daylight Time),293693.5,CFD-WF-017-016-HC.jpg,1000,dash,O,z,570,12,1,40302.59999999404,253390.90000000596,7770,ATS,A,19
20,test,1,B,mfborder.png,1,m,Wed Mar 11 2026 14:41:59 GMT-0500 (Central Daylight Time),295959.299999997,CFD-BM-010-019-A.jpg,1600,dash,O,m,643,2,1,42568.39999999106,253390.90000000596,7770,ATS,A,20
21,test,1,B,mfborder.png,1,m,Wed Mar 11 2026 14:41:59 GMT-0500 (Central Daylight Time),298242.200000003,CFD-BM-029-026-HC.jpg,1700,dash,O,m,557,1,1,44851.29999999702,253390.90000000596,7770,ATS,A,21
22,test,1,B,mfborder.png,1,z,Wed Mar 11 2026 14:41:59 GMT-0500 (Central Daylight Time),300725.0,CFD-WF-002-008-HC.jpg,1900,dash,O,z,555,8,1,47334.09999999404,253390.90000000596,7770,ATS,A,22
23,test,1,B,mfborder.png,1,m,Wed Mar 11 2026 14:41:59 GMT-0500 (Central Daylight Time),303390.200000003,CFD-BM-005-010-A.jpg,2000,dash,O,m,644,5,1,49999.29999999702,253390.90000000596,7770,ATS,A,23
24,test,1,B,mfborder.png,1,m,Wed Mar 11 2026 14:41:59 GMT-0500 (Central Daylight Time),305323.299999997,CFD-WM-019-013-A.jpg,1200,dash,O,m,706,6,1,51932.39999999106,253390.90000000596,7770,ATS,A,24
0,prac,1,C,mfborder.png,0,z,Wed Mar 11 2026 14:41:59 GMT-0500 (Central Daylight Time),351591.700000003,CFD-WF-019-015-A.jpg,1500,solid,O,None,1501,2,1,3781.2999999970198,347810.40000000596,7770,ATS,A,1
1,prac,1,C,mfborder.png,1,m,Wed Mar 11 2026 14:41:59 GMT-0500 (Central Daylight Time),354991.60000000894,CFD-WM-013-015-A.jpg,1700,solid,O,m,917,6,1,7181.20000000298,347810.40000000596,7770,ATS,A,2
2,prac,1,C,haborder.png,1,z,Wed Mar 11 2026 14:41:59 GMT-0500 (Central Daylight Time),358472.799999997,CFD-BF-023-013-A.jpg,1900,dash,O,z,806,7,1,10662.39999999106,347810.40000000596,7770,ATS,A,3
2,prac,1,C,haborder.png,0,m,Wed Mar 11 2026 14:41:59 GMT-0500 (Central Daylight Time),360905.40000000596,CFD-WM-004-005-HC.jpg,1000,dash,O,z,649,11,1,13095.0,347810.40000000596,7770,ATS,A,4
3,prac,1,C,haborder.png,1,m,Wed Mar 11 2026 14:41:59 GMT-0500 (Central Daylight Time),364036.799999997,CFD-WM-004-005-HC.jpg,1400,solid,O,m,943,12,1,16226.39999999106,347810.40000000596,7770,ATS,A,5
4,prac,1,C,haborder.png,1,z,Wed Mar 11 2026 14:41:59 GMT-0500 (Central Daylight Time),367536.60000000894,CFD-BF-039-039-A.jpg,1700,solid,O,z,1016,8,1,19726.20000000298,347810.40000000596,7770,ATS,A,6
5,prac,1,C,mfborder.png,1,m,Wed Mar 11 2026 14:41:59 GMT-0500 (Central Daylight Time),370787.0,CFD-BM-005-010-A.jpg,1200,dash,O,m,1264,5,1,22976.59999999404,347810.40000000596,7770,ATS,A,7
6,prac,1,C,mfborder.png,1,m,Wed Mar 11 2026 14:41:59 GMT-0500 (Central Daylight Time),374384.40000000596,CFD-BM-017-052-HC.jpg,2000,solid,O,m,807,4,1,26574.0,347810.40000000596,7770,ATS,A,8
7,prac,1,C,mfborder.png,1,z,Wed Mar 11 2026 14:41:59 GMT-0500 (Central Daylight Time),377234.10000000894,CFD-BF-028-020-HC.jpg,1000,dash,O,z,1065,3,1,29423.70000000298,347810.40000000596,7770,ATS,A,9
7,prac,1,C,haborder.png,0,z,Wed Mar 11 2026 14:41:59 GMT-0500 (Central Daylight Time),381132.700000003,CFD-WF-003-014-A.jpg,1600,dash,O,None,1516,9,1,33322.29999999702,347810.40000000596,7770,ATS,A,10
7,prac,1,C,mfborder.png,0,z,Wed Mar 11 2026 14:41:59 GMT-0500 (Central Daylight Time),385016.299999997,CFD-WF-017-016-HC.jpg,1600,dash,O,None,1516,1,1,37205.89999999106,347810.40000000596,7770,ATS,A,11
8,prac,1,C,haborder.png,1,m,Wed Mar 11 2026 14:41:59 GMT-0500 (Central Daylight Time),387947.10000000894,CFD-BM-029-026-HC.jpg,1500,solid,O,m,638,10,1,40136.70000000298,347810.40000000596,7770,ATS,A,12
1,prac,2,C,haborder.png,1,z,Wed Mar 11 2026 14:41:59 GMT-0500 (Central Daylight Time),393412.700000003,CFD-BF-039-039-A.jpg,1700,solid,O,z,912,8,1,45602.29999999702,347810.40000000596,7770,ATS,A,1
2,prac,2,C,mfborder.png,1,m,Wed Mar 11 2026 14:41:59 GMT-0500 (Central Daylight Time),396261.0,CFD-BM-005-010-A.jpg,1200,dash,O,m,859,5,1,48450.59999999404,347810.40000000596,7770,ATS,A,2
2,prac,2,C,mfborder.png,0,z,Wed Mar 11 2026 14:41:59 GMT-0500 (Central Daylight Time),398776.700000003,CFD-BF-028-020-HC.jpg,1000,dash,O,m,724,3,1,50966.29999999702,347810.40000000596,7770,ATS,A,3
2,prac,2,C,haborder.png,0,z,Wed Mar 11 2026 14:41:59 GMT-0500 (Central Daylight Time),402793.10000000894,CFD-BF-023-013-A.jpg,1900,dash,O,m,1348,7,1,54982.70000000298,347810.40000000596,7770,ATS,A,4
3,prac,2,C,mfborder.png,1,z,Wed Mar 11 2026 14:41:59 GMT-0500 (Central Daylight Time),405907.60000000894,CFD-WF-019-015-A.jpg,1500,solid,O,z,829,2,1,58097.20000000298,347810.40000000596,7770,ATS,A,5
4,prac,2,C,mfborder.png,1,z,Wed Mar 11 2026 14:41:59 GMT-0500 (Central Daylight Time),409374.700000003,CFD-WF-017-016-HC.jpg,1600,dash,O,z,1068,1,1,61564.29999999702,347810.40000000596,7770,ATS,A,6
4,prac,2,C,mfborder.png,0,m,Wed Mar 11 2026 14:41:59 GMT-0500 (Central Daylight Time),412856.40000000596,CFD-WM-013-015-A.jpg,1700,solid,O,z,991,6,1,65046.0,347810.40000000596,7770,ATS,A,7
5,prac,2,C,mfborder.png,1,m,Wed Mar 11 2026 14:41:59 GMT-0500 (Central Daylight Time),416387.60000000894,CFD-BM-017-052-HC.jpg,2000,solid,O,m,735,4,1,68577.20000000298,347810.40000000596,7770,ATS,A,8
6,prac,2,C,haborder.png,1,m,Wed Mar 11 2026 14:41:59 GMT-0500 (Central Daylight Time),419438.200000003,CFD-WM-004-005-HC.jpg,1400,solid,O,m,853,12,1,71627.79999999702,347810.40000000596,7770,ATS,A,9
7,prac,2,C,haborder.png,1,m,Wed Mar 11 2026 14:41:59 GMT-0500 (Central Daylight Time),421992.60000000894,CFD-WM-004-005-HC.jpg,1000,dash,O,m,779,11,1,74182.20000000298,347810.40000000596,7770,ATS,A,10
8,prac,2,C,haborder.png,1,z,Wed Mar 11 2026 14:41:59 GMT-0500 (Central Daylight Time),425268.200000003,CFD-WF-003-014-A.jpg,1600,dash,O,z,894,9,1,77457.79999999702,347810.40000000596,7770,ATS,A,11
9,prac,2,C,haborder.png,1,m,Wed Mar 11 2026 14:41:59 GMT-0500 (Central Daylight Time),428684.799999997,CFD-BM-029-026-HC.jpg,1500,solid,O,m,1120,10,1,80874.39999999106,347810.40000000596,7770,ATS,A,12
1,test,1,C,mfborder.png,1,m,Wed Mar 11 2026 14:41:59 GMT-0500 (Central Daylight Time),440463.700000003,CFD-WM-006-013-HC.jpg,1000,dash,O,m,834,4,1,1866.2000000029802,438597.5,7770,ATS,A,1
1,test,1,C,haborder.png,0,z,Wed Mar 11 2026 14:41:59 GMT-0500 (Central Daylight Time),443346.5,CFD-WM-013-015-A.jpg,1400,solid,O,m,1457,7,1,4749.0,438597.5,7770,ATS,A,2
2,test,1,C,haborder.png,1,m,Wed Mar 11 2026 14:41:59 GMT-0500 (Central Daylight Time),446412.0,CFD-BF-028-020-HC.jpg,1600,solid,O,m,1446,10,1,7814.5,438597.5,7770,ATS,A,3
3,test,1,C,mfborder.png,1,m,Wed Mar 11 2026 14:41:59 GMT-0500 (Central Daylight Time),449928.0,CFD-WM-019-013-A.jpg,2000,dash,O,m,1493,5,1,11330.5,438597.5,7770,ATS,A,4
3,test,1,C,haborder.png,0,z,Wed Mar 11 2026 14:41:59 GMT-0500 (Central Daylight Time),452592.700000003,CFD-BM-005-010-A.jpg,1900,solid,O,m,741,8,1,13995.20000000298,438597.5,7770,ATS,A,5
4,test,1,C,haborder.png,1,z,Wed Mar 11 2026 14:41:59 GMT-0500 (Central Daylight Time),455125.700000003,CFD-BM-010-019-A.jpg,1700,solid,O,z,811,9,1,16528.20000000298,438597.5,7770,ATS,A,6
5,test,1,C,mfborder.png,1,m,Wed Mar 11 2026 14:41:59 GMT-0500 (Central Daylight Time),457041.10000000894,CFD-WM-006-013-HC.jpg,1000,dash,O,m,891,4,1,18443.60000000894,438597.5,7770,ATS,A,7
5,test,1,C,mfborder.png,0,z,Wed Mar 11 2026 14:41:59 GMT-0500 (Central Daylight Time),459974.40000000596,CFD-BF-010-005-HC.jpg,1700,dash,O,m,1211,1,1,21376.90000000596,438597.5,7770,ATS,A,8
6,test,1,C,haborder.png,1,m,Wed Mar 11 2026 14:41:59 GMT-0500 (Central Daylight Time),462106.700000003,CFD-WF-017-016-HC.jpg,1000,solid,O,m,1114,12,1,23509.20000000298,438597.5,7770,ATS,A,9
7,test,1,C,haborder.png,1,m,Wed Mar 11 2026 14:41:59 GMT-0500 (Central Daylight Time),464440.0,CFD-WF-002-008-HC.jpg,1500,solid,O,m,802,11,1,25842.5,438597.5,7770,ATS,A,10
8,test,1,C,mfborder.png,1,m,Wed Mar 11 2026 14:41:59 GMT-0500 (Central Daylight Time),466773.299999997,CFD-BM-029-026-HC.jpg,1200,dash,O,m,1105,6,1,28175.79999999702,438597.5,7770,ATS,A,11
9,test,1,C,mfborder.png,1,z,Wed Mar 11 2026 14:41:59 GMT-0500 (Central Daylight Time),468871.5,CFD-WF-003-014-A.jpg,1500,dash,O,z,568,3,1,30274.0,438597.5,7770,ATS,A,12
10,test,1,C,haborder.png,1,z,Wed Mar 11 2026 14:41:59 GMT-0500 (Central Daylight Time),471836.299999997,CFD-BM-005-010-A.jpg,1900,solid,O,z,1045,8,1,33238.79999999702,438597.5,7770,ATS,A,13
11,test,1,C,haborder.png,1,m,Wed Mar 11 2026 14:41:59 GMT-0500 (Central Daylight Time),474235.299999997,CFD-BF-028-020-HC.jpg,1600,solid,O,m,781,10,1,35637.79999999702,438597.5,7770,ATS,A,14
12,test,1,C,mfborder.png,1,m,Wed Mar 11 2026 14:41:59 GMT-0500 (Central Daylight Time),477168.5,CFD-WM-019-013-A.jpg,2000,dash,O,m,908,5,1,38571.0,438597.5,7770,ATS,A,15
13,test,1,C,mfborder.png,1,z,Wed Mar 11 2026 14:41:59 GMT-0500 (Central Daylight Time),479967.299999997,CFD-BF-010-005-HC.jpg,1700,dash,O,z,1067,1,1,41369.79999999702,438597.5,7770,ATS,A,16
14,test,1,C,haborder.png,1,m,Wed Mar 11 2026 14:41:59 GMT-0500 (Central Daylight Time),482833.90000000596,CFD-WF-002-008-HC.jpg,1500,solid,O,m,1341,11,1,44236.40000000596,438597.5,7770,ATS,A,17
15,test,1,C,mfborder.png,1,z,Wed Mar 11 2026 14:41:59 GMT-0500 (Central Daylight Time),485415.60000000894,CFD-BF-023-013-A.jpg,1600,dash,O,z,960,2,1,46818.10000000894,438597.5,7770,ATS,A,18
16,test,1,C,mfborder.png,1,z,Wed Mar 11 2026 14:41:59 GMT-0500 (Central Daylight Time),487598.200000003,CFD-BF-023-013-A.jpg,1600,dash,O,z,561,2,1,49000.70000000298,438597.5,7770,ATS,A,19
17,test,1,C,mfborder.png,1,m,Wed Mar 11 2026 14:41:59 GMT-0500 (Central Daylight Time),489648.10000000894,CFD-BM-029-026-HC.jpg,1200,dash,O,m,826,6,1,51050.60000000894,438597.5,7770,ATS,A,20
18,test,1,C,haborder.png,1,z,Wed Mar 11 2026 14:41:59 GMT-0500 (Central Daylight Time),492213.60000000894,CFD-BM-010-019-A.jpg,1700,solid,O,z,837,9,1,53616.10000000894,438597.5,7770,ATS,A,21
19,test,1,C,haborder.png,1,z,Wed Mar 11 2026 14:41:59 GMT-0500 (Central Daylight Time),494447.10000000894,CFD-WM-013-015-A.jpg,1400,solid,O,z,804,7,1,55849.60000000894,438597.5,7770,ATS,A,22
20,test,1,C,mfborder.png,1,z,Wed Mar 11 2026 14:41:59 GMT-0500 (Central Daylight Time),496679.0,CFD-WF-003-014-A.jpg,1500,dash,O,z,702,3,1,58081.5,438597.5,7770,ATS,A,23
21,test,1,C,haborder.png,1,m,Wed Mar 11 2026 14:41:59 GMT-0500 (Central Daylight Time),498745.0,CFD-WF-017-016-HC.jpg,1000,solid,O,m,1042,12,1,60147.5,438597.5,7770,ATS,A,24
1,test,2,C,haborder.png,1,m,Wed Mar 11 2026 14:41:59 GMT-0500 (Central Daylight Time),502376.90000000596,CFD-WM-004-005-HC.jpg,1000,solid,O,m,858,12,1,1882.2000000029802,500494.700000003,7770,ATS,A,1
2,test,2,C,mfborder.png,1,z,Wed Mar 11 2026 14:41:59 GMT-0500 (Central Daylight Time),504809.799999997,CFD-WF-019-015-A.jpg,1600,dash,O,z,799,2,1,4315.0999999940395,500494.700000003,7770,ATS,A,2
3,test,2,C,mfborder.png,1,z,Wed Mar 11 2026 14:41:59 GMT-0500 (Central Daylight Time),507459.10000000894,CFD-WF-017-016-HC.jpg,1700,dash,O,z,933,1,1,6964.4000000059605,500494.700000003,7770,ATS,A,3
4,test,2,C,mfborder.png,1,m,Wed Mar 11 2026 14:41:59 GMT-0500 (Central Daylight Time),509258.10000000894,CFD-BM-017-052-HC.jpg,1000,dash,O,m,774,4,1,8763.40000000596,500494.700000003,7770,ATS,A,4
4,test,2,C,haborder.png,0,z,Wed Mar 11 2026 14:41:59 GMT-0500 (Central Daylight Time),512107.200000003,CFD-WF-003-014-A.jpg,1700,solid,O,m,1130,9,1,11612.5,500494.700000003,7770,ATS,A,5
5,test,2,C,mfborder.png,1,z,Wed Mar 11 2026 14:41:59 GMT-0500 (Central Daylight Time),514807.200000003,CFD-BF-028-020-HC.jpg,1500,dash,O,z,1170,3,1,14312.5,500494.700000003,7770,ATS,A,6
6,test,2,C,mfborder.png,1,m,Wed Mar 11 2026 14:41:59 GMT-0500 (Central Daylight Time),516724.40000000596,CFD-WM-013-015-A.jpg,1200,dash,O,m,691,6,1,16229.70000000298,500494.700000003,7770,ATS,A,7
7,test,2,C,haborder.png,1,m,Wed Mar 11 2026 14:41:59 GMT-0500 (Central Daylight Time),519088.799999997,CFD-BM-029-026-HC.jpg,1600,solid,O,m,733,10,1,18594.09999999404,500494.700000003,7770,ATS,A,8
8,test,2,C,haborder.png,1,z,Wed Mar 11 2026 14:41:59 GMT-0500 (Central Daylight Time),521671.0,CFD-BF-039-039-A.jpg,1900,solid,O,z,652,8,1,21176.29999999702,500494.700000003,7770,ATS,A,9
9,test,2,C,haborder.png,1,m,Wed Mar 11 2026 14:41:59 GMT-0500 (Central Daylight Time),523454.0,CFD-WM-004-005-HC.jpg,1000,solid,O,m,762,12,1,22959.29999999702,500494.700000003,7770,ATS,A,10
10,test,2,C,haborder.png,1,z,Wed Mar 11 2026 14:41:59 GMT-0500 (Central Daylight Time),525519.799999997,CFD-BF-023-013-A.jpg,1400,solid,O,z,642,7,1,25025.09999999404,500494.700000003,7770,ATS,A,11
11,test,2,C,haborder.png,1,m,Wed Mar 11 2026 14:41:59 GMT-0500 (Central Daylight Time),527902.799999997,CFD-BM-029-026-HC.jpg,1600,solid,O,m,753,10,1,27408.09999999404,500494.700000003,7770,ATS,A,12
12,test,2,C,mfborder.png,1,z,Wed Mar 11 2026 14:41:59 GMT-0500 (Central Daylight Time),530001.0,CFD-BF-028-020-HC.jpg,1500,dash,O,z,575,3,1,29506.29999999702,500494.700000003,7770,ATS,A,13
13,test,2,C,mfborder.png,1,m,Wed Mar 11 2026 14:41:59 GMT-0500 (Central Daylight Time),532784.200000003,CFD-BM-005-010-A.jpg,2000,dash,O,m,759,5,1,32289.5,500494.700000003,7770,ATS,A,14
13,test,2,C,haborder.png,0,z,Wed Mar 11 2026 14:41:59 GMT-0500 (Central Daylight Time),535666.799999997,CFD-BF-023-013-A.jpg,1400,solid,O,m,1455,7,1,35172.09999999404,500494.700000003,7770,ATS,A,15
14,test,2,C,mfborder.png,1,m,Wed Mar 11 2026 14:41:59 GMT-0500 (Central Daylight Time),537749.6000000089,CFD-BM-017-052-HC.jpg,1000,dash,O,m,1062,4,1,37254.90000000596,500494.700000003,7770,ATS,A,16
15,test,2,C,mfborder.png,1,m,Wed Mar 11 2026 14:41:59 GMT-0500 (Central Daylight Time),540965.700000003,CFD-BM-005-010-A.jpg,2000,dash,O,m,1195,5,1,40471.0,500494.700000003,7770,ATS,A,17
16,test,2,C,mfborder.png,1,z,Wed Mar 11 2026 14:41:59 GMT-0500 (Central Daylight Time),543297.5,CFD-WF-019-015-A.jpg,1600,dash,O,z,699,2,1,42802.79999999702,500494.700000003,7770,ATS,A,18
17,test,2,C,haborder.png,1,z,Wed Mar 11 2026 14:41:59 GMT-0500 (Central Daylight Time),545664.400000006,CFD-WF-003-014-A.jpg,1700,solid,O,z,635,9,1,45169.70000000298,500494.700000003,7770,ATS,A,19
18,test,2,C,mfborder.png,1,m,Wed Mar 11 2026 14:41:59 GMT-0500 (Central Daylight Time),548195.6000000089,CFD-WM-013-015-A.jpg,1200,dash,O,m,1305,6,1,47700.90000000596,500494.700000003,7770,ATS,A,20
19,test,2,C,haborder.png,1,m,Wed Mar 11 2026 14:41:59 GMT-0500 (Central Daylight Time),550428.1000000089,CFD-WM-004-005-HC.jpg,1500,solid,O,m,712,11,1,49933.40000000596,500494.700000003,7770,ATS,A,21
19,test,2,C,haborder.png,0,z,Wed Mar 11 2026 14:41:59 GMT-0500 (Central Daylight Time),553862.0,CFD-BF-039-039-A.jpg,1900,solid,O,None,1517,8,1,53367.29999999702,500494.700000003,7770,ATS,A,22
20,test,2,C,mfborder.png,1,z,Wed Mar 11 2026 14:41:59 GMT-0500 (Central Daylight Time),556577.1000000089,CFD-WF-017-016-HC.jpg,1700,dash,O,z,991,1,1,56082.40000000596,500494.700000003,7770,ATS,A,23
21,test,2,C,haborder.png,1,m,Wed Mar 11 2026 14:41:59 GMT-0500 (Central Daylight Time),558959.400000006,CFD-WM-004-005-HC.jpg,1500,solid,O,m,851,11,1,58464.70000000298,500494.700000003,7770,ATS,A,24
0,test,3,C,mfborder.png,0,m,Wed Mar 11 2026 14:41:59 GMT-0500 (Central Daylight Time),564374.400000006,CFD-WM-019-013-A.jpg,2000,dash,O,z,743,5,1,2764.4000000059605,561610.0,7770,ATS,A,1
1,test,3,C,mfborder.png,1,m,Wed Mar 11 2026 14:41:59 GMT-0500 (Central Daylight Time),567006.6000000089,CFD-BM-029-026-HC.jpg,1200,dash,O,m,1411,6,1,5396.600000008941,561610.0,7770,ATS,A,2
2,test,3,C,haborder.png,1,z,Wed Mar 11 2026 14:41:59 GMT-0500 (Central Daylight Time),569639.5,CFD-BM-010-019-A.jpg,1700,solid,O,z,910,9,1,8029.5,561610.0,7770,ATS,A,3
3,test,3,C,mfborder.png,1,z,Wed Mar 11 2026 14:41:59 GMT-0500 (Central Daylight Time),572037.900000006,CFD-WF-003-014-A.jpg,1500,dash,O,z,877,3,1,10427.90000000596,561610.0,7770,ATS,A,4
4,test,3,C,haborder.png,1,m,Wed Mar 11 2026 14:41:59 GMT-0500 (Central Daylight Time),574320.400000006,CFD-WF-002-008-HC.jpg,1500,solid,O,m,757,11,1,12710.40000000596,561610.0,7770,ATS,A,5
5,test,3,C,haborder.png,1,z,Wed Mar 11 2026 14:41:59 GMT-0500 (Central Daylight Time),576903.0,CFD-BM-010-019-A.jpg,1700,solid,O,z,860,9,1,15293.0,561610.0,7770,ATS,A,6
6,test,3,C,mfborder.png,1,z,Wed Mar 11 2026 14:41:59 GMT-0500 (Central Daylight Time),579335.1000000089,CFD-BF-023-013-A.jpg,1600,dash,O,z,809,2,1,17725.10000000894,561610.0,7770,ATS,A,7
6,test,3,C,haborder.png,0,z,Wed Mar 11 2026 14:41:59 GMT-0500 (Central Daylight Time),581851.400000006,CFD-WM-013-015-A.jpg,1400,solid,O,m,1088,7,1,20241.40000000596,561610.0,7770,ATS,A,8
7,test,3,C,haborder.png,1,m,Wed Mar 11 2026 14:41:59 GMT-0500 (Central Daylight Time),584085.0,CFD-WF-017-016-HC.jpg,1000,solid,O,m,1205,12,1,22475.0,561610.0,7770,ATS,A,9
8,test,3,C,haborder.png,1,z,Wed Mar 11 2026 14:41:59 GMT-0500 (Central Daylight Time),586285.200000003,CFD-WM-013-015-A.jpg,1400,solid,O,z,772,7,1,24675.20000000298,561610.0,7770,ATS,A,10
9,test,3,C,haborder.png,1,m,Wed Mar 11 2026 14:41:59 GMT-0500 (Central Daylight Time),587999.700000003,CFD-WF-017-016-HC.jpg,1000,solid,O,m,688,12,1,26389.70000000298,561610.0,7770,ATS,A,11
10,test,3,C,mfborder.png,1,z,Wed Mar 11 2026 14:41:59 GMT-0500 (Central Daylight Time),590366.700000003,CFD-BF-023-013-A.jpg,1600,dash,O,z,745,2,1,28756.70000000298,561610.0,7770,ATS,A,12
11,test,3,C,haborder.png,1,m,Wed Mar 11 2026 14:41:59 GMT-0500 (Central Daylight Time),593047.299999997,CFD-WF-002-008-HC.jpg,1500,solid,O,m,1150,11,1,31437.29999999702,561610.0,7770,ATS,A,13
12,test,3,C,haborder.png,1,z,Wed Mar 11 2026 14:41:59 GMT-0500 (Central Daylight Time),595864.5,CFD-BM-005-010-A.jpg,1900,solid,O,z,892,8,1,34254.5,561610.0,7770,ATS,A,14
13,test,3,C,mfborder.png,1,m,Wed Mar 11 2026 14:41:59 GMT-0500 (Central Daylight Time),598013.6000000089,CFD-BM-029-026-HC.jpg,1200,dash,O,m,928,6,1,36403.60000000894,561610.0,7770,ATS,A,15
14,test,3,C,mfborder.png,1,m,Wed Mar 11 2026 14:41:59 GMT-0500 (Central Daylight Time),599729.6000000089,CFD-WM-006-013-HC.jpg,1000,dash,O,m,699,4,1,38119.60000000894,561610.0,7770,ATS,A,16
15,test,3,C,mfborder.png,1,m,Wed Mar 11 2026 14:41:59 GMT-0500 (Central Daylight Time),601412.900000006,CFD-WM-006-013-HC.jpg,1000,dash,O,m,656,4,1,39802.90000000596,561610.0,7770,ATS,A,17
16,test,3,C,mfborder.png,1,z,Wed Mar 11 2026 14:41:59 GMT-0500 (Central Daylight Time),604127.799999997,CFD-BF-010-005-HC.jpg,1700,dash,O,z,992,1,1,42517.79999999702,561610.0,7770,ATS,A,18
17,test,3,C,mfborder.png,1,m,Wed Mar 11 2026 14:41:59 GMT-0500 (Central Daylight Time),607060.0,CFD-WM-019-013-A.jpg,2000,dash,O,m,912,5,1,45450.0,561610.0,7770,ATS,A,19
18,test,3,C,mfborder.png,1,z,Wed Mar 11 2026 14:41:59 GMT-0500 (Central Daylight Time),609226.6000000089,CFD-WF-003-014-A.jpg,1500,dash,O,z,639,3,1,47616.60000000894,561610.0,7770,ATS,A,20
19,test,3,C,haborder.png,1,z,Wed Mar 11 2026 14:41:59 GMT-0500 (Central Daylight Time),611876.299999997,CFD-BM-005-010-A.jpg,1900,solid,O,z,722,8,1,50266.29999999702,561610.0,7770,ATS,A,21
20,test,3,C,haborder.png,1,m,Wed Mar 11 2026 14:41:59 GMT-0500 (Central Daylight Time),614608.299999997,CFD-BF-028-020-HC.jpg,1600,solid,O,m,1101,10,1,52998.29999999702,561610.0,7770,ATS,A,22
21,test,3,C,haborder.png,1,m,Wed Mar 11 2026 14:41:59 GMT-0500 (Central Daylight Time),616741.1000000089,CFD-BF-028-020-HC.jpg,1600,solid,O,m,503,10,1,55131.10000000894,561610.0,7770,ATS,A,23
22,test,3,C,mfborder.png,1,z,Wed Mar 11 2026 14:41:59 GMT-0500 (Central Daylight Time),619373.799999997,CFD-BF-010-005-HC.jpg,1700,dash,O,z,905,1,1,57763.79999999702,561610.0,7770,ATS,A,24
0,test,4,C,mfborder.png,0,m,Wed Mar 11 2026 14:41:59 GMT-0500 (Central Daylight Time),623005.700000003,CFD-WM-013-015-A.jpg,1200,dash,O,z,779,6,1,1998.7000000029802,621007.0,7770,ATS,A,1
1,test,4,C,haborder.png,1,m,Wed Mar 11 2026 14:41:59 GMT-0500 (Central Daylight Time),625722.299999997,CFD-BM-029-026-HC.jpg,1600,solid,O,m,1085,10,1,4715.29999999702,621007.0,7770,ATS,A,2
2,test,4,C,haborder.png,1,m,Wed Mar 11 2026 14:41:59 GMT-0500 (Central Daylight Time),627337.299999997,CFD-WM-004-005-HC.jpg,1000,solid,O,m,600,12,1,6330.29999999702,621007.0,7770,ATS,A,3
2,test,4,C,mfborder.png,0,m,Wed Mar 11 2026 14:41:59 GMT-0500 (Central Daylight Time),628954.6000000089,CFD-BM-017-052-HC.jpg,1000,dash,O,z,592,4,1,7947.600000008941,621007.0,7770,ATS,A,4
3,test,4,C,haborder.png,1,m,Wed Mar 11 2026 14:41:59 GMT-0500 (Central Daylight Time),630686.700000003,CFD-WM-004-005-HC.jpg,1000,solid,O,m,712,12,1,9679.70000000298,621007.0,7770,ATS,A,5
4,test,4,C,haborder.png,1,m,Wed Mar 11 2026 14:41:59 GMT-0500 (Central Daylight Time),632901.900000006,CFD-WM-004-005-HC.jpg,1500,solid,O,m,694,11,1,11894.90000000596,621007.0,7770,ATS,A,6
5,test,4,C,haborder.png,1,z,Wed Mar 11 2026 14:41:59 GMT-0500 (Central Daylight Time),635619.0,CFD-BF-039-039-A.jpg,1900,solid,O,z,783,8,1,14612.0,621007.0,7770,ATS,A,7
6,test,4,C,mfborder.png,1,z,Wed Mar 11 2026 14:41:59 GMT-0500 (Central Daylight Time),638666.0,CFD-WF-017-016-HC.jpg,1700,dash,O,z,1322,1,1,17659.0,621007.0,7770,ATS,A,8
7,test,4,C,haborder.png,1,m,Wed Mar 11 2026 14:41:59 GMT-0500 (Central Daylight Time),641049.200000003,CFD-BM-029-026-HC.jpg,1600,solid,O,m,766,10,1,20042.20000000298,621007.0,7770,ATS,A,9
8,test,4,C,mfborder.png,1,m,Wed Mar 11 2026 14:41:59 GMT-0500 (Central Daylight Time),644115.900000006,CFD-BM-005-010-A.jpg,2000,dash,O,m,1033,5,1,23108.90000000596,621007.0,7770,ATS,A,10
9,test,4,C,mfborder.png,1,z,Wed Mar 11 2026 14:41:59 GMT-0500 (Central Daylight Time),646514.700000003,CFD-WF-019-015-A.jpg,1600,dash,O,z,782,2,1,25507.70000000298,621007.0,7770,ATS,A,11
10,test,4,C,mfborder.png,1,m,Wed Mar 11 2026 14:41:59 GMT-0500 (Central Daylight Time),648664.200000003,CFD-WM-013-015-A.jpg,1200,dash,O,m,917,6,1,27657.20000000298,621007.0,7770,ATS,A,12
11,test,4,C,mfborder.png,1,z,Wed Mar 11 2026 14:41:59 GMT-0500 (Central Daylight Time),650913.400000006,CFD-BF-028-020-HC.jpg,1500,dash,O,z,716,3,1,29906.40000000596,621007.0,7770,ATS,A,13
12,test,4,C,haborder.png,1,z,Wed Mar 11 2026 14:41:59 GMT-0500 (Central Daylight Time),653462.900000006,CFD-WF-003-014-A.jpg,1700,solid,O,z,828,9,1,32455.90000000596,621007.0,7770,ATS,A,14
13,test,4,C,mfborder.png,1,m,Wed Mar 11 2026 14:41:59 GMT-0500 (Central Daylight Time),655628.799999997,CFD-BM-017-052-HC.jpg,1000,dash,O,m,1139,4,1,34621.79999999702,621007.0,7770,ATS,A,15
14,test,4,C,haborder.png,1,z,Wed Mar 11 2026 14:41:59 GMT-0500 (Central Daylight Time),658017.5,CFD-BF-023-013-A.jpg,1400,solid,O,z,964,7,1,37010.5,621007.0,7770,ATS,A,16
15,test,4,C,mfborder.png,1,m,Wed Mar 11 2026 14:41:59 GMT-0500 (Central Daylight Time),661093.700000003,CFD-BM-005-010-A.jpg,2000,dash,O,m,1054,5,1,40086.70000000298,621007.0,7770,ATS,A,17
16,test,4,C,mfborder.png,1,z,Wed Mar 11 2026 14:41:59 GMT-0500 (Central Daylight Time),663659.799999997,CFD-WF-017-016-HC.jpg,1700,dash,O,z,850,1,1,42652.79999999702,621007.0,7770,ATS,A,18
16,test,4,C,haborder.png,0,z,Wed Mar 11 2026 14:41:59 GMT-0500 (Central Daylight Time),666725.0,CFD-BF-039-039-A.jpg,1900,solid,O,m,1146,8,1,45718.0,621007.0,7770,ATS,A,19
17,test,4,C,haborder.png,1,z,Wed Mar 11 2026 14:41:59 GMT-0500 (Central Daylight Time),669607.400000006,CFD-BF-023-013-A.jpg,1400,solid,O,z,1460,7,1,48600.40000000596,621007.0,7770,ATS,A,20
18,test,4,C,mfborder.png,1,z,Wed Mar 11 2026 14:41:59 GMT-0500 (Central Daylight Time),672289.799999997,CFD-WF-019-015-A.jpg,1600,dash,O,z,1058,2,1,51282.79999999702,621007.0,7770,ATS,A,21
19,test,4,C,mfborder.png,1,z,Wed Mar 11 2026 14:41:59 GMT-0500 (Central Daylight Time),675039.299999997,CFD-BF-028-020-HC.jpg,1500,dash,O,z,1218,3,1,54032.29999999702,621007.0,7770,ATS,A,22
19,test,4,C,haborder.png,0,z,Wed Mar 11 2026 14:41:59 GMT-0500 (Central Daylight Time),677837.700000003,CFD-WF-003-014-A.jpg,1700,solid,O,m,1077,9,1,56830.70000000298,621007.0,7770,ATS,A,23
20,test,4,C,haborder.png,1,m,Wed Mar 11 2026 14:41:59 GMT-0500 (Central Daylight Time),680004.0,CFD-WM-004-005-HC.jpg,1500,solid,O,m,638,11,1,58997.0,621007.0,7770,ATS,A,24
