acc_sum,block,block_c,change,condition,correct,correct_response,datetime,endtime,face,project,response,response_time,row_sel,session_number,start_end,starttime,subject_id,task,task_vers,trial
0,prac,1,,1-Back,,,Wed May 07 2025 10:31:38 GMT-0400 (Eastern Daylight Time),,050_m_f_n_a.png,I,space,11902,1,1,,,9017,NNB,A,0
0,prac,1,0.0,1-Back,0,m,Wed May 07 2025 10:31:38 GMT-0400 (Eastern Daylight Time),149000.30000019073,063_y_f_n_a.png,I,z,1292,2,1,2118.0,146882.30000019073,9017,NNB,A,1
0,prac,1,1.0,1-Back,0,z,Wed May 07 2025 10:31:38 GMT-0400 (Eastern Daylight Time),151350.89999961853,063_y_f_n_a.png,I,m,1569,3,1,2339.8999996185303,149011.0,9017,NNB,A,2
0,prac,1,0.0,1-Back,0,m,Wed May 07 2025 10:31:38 GMT-0400 (Eastern Daylight Time),154184.19999980927,053_o_m_n_a.png,I,None,2006,4,1,2816.199999809265,151368.0,9017,NNB,A,3
1,prac,1,0.0,1-Back,1,m,Wed May 07 2025 10:31:38 GMT-0400 (Eastern Daylight Time),156434.30000019073,058_m_m_n_a.png,I,m,1421,5,1,2236.699999809265,154197.60000038147,9017,NNB,A,4
2,prac,1,1.0,1-Back,1,z,Wed May 07 2025 10:31:38 GMT-0400 (Eastern Daylight Time),158266.89999961853,058_m_m_n_a.png,I,z,1051,6,1,1818.5,156448.39999961853,9017,NNB,A,5
3,prac,1,0.0,1-Back,1,m,Wed May 07 2025 10:31:38 GMT-0400 (Eastern Daylight Time),160351.0,047_o_f_n_a.png,I,m,1205,7,1,2068.1000003814697,158282.89999961853,9017,NNB,A,6
3,prac,1,0.0,1-Back,0,m,Wed May 07 2025 10:31:38 GMT-0400 (Eastern Daylight Time),162317.39999961853,045_m_m_n_a.png,I,z,1144,8,1,1953.0999994277954,160364.30000019073,9017,NNB,A,7
4,prac,1,0.0,1-Back,1,m,Wed May 07 2025 10:31:38 GMT-0400 (Eastern Daylight Time),164167.60000038147,050_m_f_n_a.png,I,m,1057,9,1,1836.6000003814697,162331.0,9017,NNB,A,8
5,prac,1,1.0,1-Back,1,z,Wed May 07 2025 10:31:38 GMT-0400 (Eastern Daylight Time),165967.5,050_m_f_n_a.png,I,z,1012,10,1,1783.3000001907349,164184.19999980927,9017,NNB,A,9
6,prac,1,0.0,1-Back,1,m,Wed May 07 2025 10:31:38 GMT-0400 (Eastern Daylight Time),168051.10000038147,053_o_m_n_a.png,I,m,1295,11,1,2069.300000190735,165981.80000019073,9017,NNB,A,10
6,prac,1,0.0,1-Back,0,m,Wed May 07 2025 10:31:38 GMT-0400 (Eastern Daylight Time),169867.60000038147,010_y_f_n_a.png,I,z,940,12,1,1799.7000007629395,168067.89999961853,9017,NNB,A,11
0,prac,2,0.0,1-Back,,,Wed May 07 2025 10:31:38 GMT-0400 (Eastern Daylight Time),169867.60000038147,050_m_f_n_a.png,I,a,9000,1,1,1799.7000007629395,168067.89999961853,9017,NNB,A,0
0,prac,2,0.0,1-Back,0,m,Wed May 07 2025 10:31:38 GMT-0400 (Eastern Daylight Time),183717.39999961853,063_y_f_n_a.png,I,z,1009,2,1,1786.0,181931.39999961853,9017,NNB,A,1
0,prac,2,1.0,1-Back,0,z,Wed May 07 2025 10:31:38 GMT-0400 (Eastern Daylight Time),186017.60000038147,063_y_f_n_a.png,I,m,1502,3,1,2283.2000007629395,183734.39999961853,9017,NNB,A,2
0,prac,2,0.0,1-Back,0,m,Wed May 07 2025 10:31:38 GMT-0400 (Eastern Daylight Time),188467.39999961853,053_o_m_n_a.png,I,z,1661,4,1,2436.0999994277954,186031.30000019073,9017,NNB,A,3
0,prac,2,0.0,1-Back,0,m,Wed May 07 2025 10:31:38 GMT-0400 (Eastern Daylight Time),191250.60000038147,058_m_m_n_a.png,I,None,2003,5,1,2769.9000005722046,188480.69999980927,9017,NNB,A,4
1,prac,2,1.0,1-Back,1,z,Wed May 07 2025 10:31:38 GMT-0400 (Eastern Daylight Time),193784.19999980927,058_m_m_n_a.png,I,z,1748,6,1,2519.699999809265,191264.5,9017,NNB,A,5
2,prac,2,0.0,1-Back,1,m,Wed May 07 2025 10:31:38 GMT-0400 (Eastern Daylight Time),195517.60000038147,047_o_f_n_a.png,I,m,951,7,1,1719.7000007629395,193797.89999961853,9017,NNB,A,6
2,prac,2,0.0,1-Back,0,m,Wed May 07 2025 10:31:38 GMT-0400 (Eastern Daylight Time),197450.69999980927,045_m_m_n_a.png,I,z,1142,8,1,1917.8999996185303,195532.80000019073,9017,NNB,A,7
3,prac,2,0.0,1-Back,1,m,Wed May 07 2025 10:31:38 GMT-0400 (Eastern Daylight Time),199584.10000038147,050_m_f_n_a.png,I,m,1341,9,1,2120.5,197463.60000038147,9017,NNB,A,8
4,prac,2,1.0,1-Back,1,z,Wed May 07 2025 10:31:38 GMT-0400 (Eastern Daylight Time),201367.5,050_m_f_n_a.png,I,z,998,10,1,1769.3999996185303,199598.10000038147,9017,NNB,A,9
5,prac,2,0.0,1-Back,1,m,Wed May 07 2025 10:31:38 GMT-0400 (Eastern Daylight Time),203317.19999980927,053_o_m_n_a.png,I,m,1156,11,1,1933.0,201384.19999980927,9017,NNB,A,10
6,prac,2,0.0,1-Back,1,m,Wed May 07 2025 10:31:38 GMT-0400 (Eastern Daylight Time),205434.10000038147,010_y_f_n_a.png,I,m,1323,12,1,2104.6000003814697,203329.5,9017,NNB,A,11
0,prac,3,0.0,1-Back,,,Wed May 07 2025 10:31:38 GMT-0400 (Eastern Daylight Time),205434.10000038147,050_m_f_n_a.png,I,a,8259,1,1,2104.6000003814697,203329.5,9017,NNB,A,0
1,prac,3,0.0,1-Back,1,m,Wed May 07 2025 10:31:38 GMT-0400 (Eastern Daylight Time),218750.89999961853,063_y_f_n_a.png,I,m,1203,2,1,1981.7999992370605,216769.10000038147,9017,NNB,A,1
2,prac,3,1.0,1-Back,1,z,Wed May 07 2025 10:31:38 GMT-0400 (Eastern Daylight Time),220584.10000038147,063_y_f_n_a.png,I,z,1048,3,1,1819.7000007629395,218764.39999961853,9017,NNB,A,2
3,prac,3,0.0,1-Back,1,m,Wed May 07 2025 10:31:38 GMT-0400 (Eastern Daylight Time),222234.10000038147,053_o_m_n_a.png,I,m,862,4,1,1636.7000007629395,220597.39999961853,9017,NNB,A,3
4,prac,3,0.0,1-Back,1,m,Wed May 07 2025 10:31:38 GMT-0400 (Eastern Daylight Time),224150.89999961853,058_m_m_n_a.png,I,m,1133,5,1,1903.2999992370605,222247.60000038147,9017,NNB,A,4
5,prac,3,1.0,1-Back,1,z,Wed May 07 2025 10:31:38 GMT-0400 (Eastern Daylight Time),225750.80000019073,058_m_m_n_a.png,I,z,808,6,1,1586.8000001907349,224164.0,9017,NNB,A,5
6,prac,3,0.0,1-Back,1,m,Wed May 07 2025 10:31:38 GMT-0400 (Eastern Daylight Time),227484.10000038147,047_o_f_n_a.png,I,m,952,7,1,1720.0,225764.10000038147,9017,NNB,A,6
7,prac,3,0.0,1-Back,1,m,Wed May 07 2025 10:31:38 GMT-0400 (Eastern Daylight Time),229417.30000019073,045_m_m_n_a.png,I,m,1146,8,1,1919.1999998092651,227498.10000038147,9017,NNB,A,7
8,prac,3,0.0,1-Back,1,m,Wed May 07 2025 10:31:38 GMT-0400 (Eastern Daylight Time),231067.39999961853,050_m_f_n_a.png,I,m,862,9,1,1636.5,229430.89999961853,9017,NNB,A,8
9,prac,3,1.0,1-Back,1,z,Wed May 07 2025 10:31:38 GMT-0400 (Eastern Daylight Time),232584.0,050_m_f_n_a.png,I,z,728,10,1,1499.6999998092651,231084.30000019073,9017,NNB,A,9
10,prac,3,0.0,1-Back,1,m,Wed May 07 2025 10:31:38 GMT-0400 (Eastern Daylight Time),234867.5,053_o_m_n_a.png,I,m,1486,11,1,2269.3999996185303,232598.10000038147,9017,NNB,A,10
11,prac,3,0.0,1-Back,1,m,Wed May 07 2025 10:31:38 GMT-0400 (Eastern Daylight Time),236867.5,010_y_f_n_a.png,I,m,1204,12,1,1986.6000003814697,234880.89999961853,9017,NNB,A,11
0,test,1,0.0,1-Back,,,Wed May 07 2025 10:31:38 GMT-0400 (Eastern Daylight Time),236867.5,063_y_f_n_a.png,I,space,9956,1,1,1986.6000003814697,234880.89999961853,9017,NNB,A,0
1,test,1,0.0,1-Back,1,m,Wed May 07 2025 10:31:38 GMT-0400 (Eastern Daylight Time),258317.39999961853,043_m_f_n_a.png,I,m,757,2,1,1771.5999994277954,256545.80000019073,9017,NNB,A,1
2,test,1,0.0,1-Back,1,m,Wed May 07 2025 10:31:38 GMT-0400 (Eastern Daylight Time),260533.69999980927,010_y_f_n_a.png,I,m,1199,3,1,2204.199999809265,258329.5,9017,NNB,A,2
3,test,1,1.0,1-Back,1,z,Wed May 07 2025 10:31:38 GMT-0400 (Eastern Daylight Time),262300.60000038147,010_y_f_n_a.png,I,z,733,4,1,1756.3000001907349,260544.30000019073,9017,NNB,A,3
4,test,1,0.0,1-Back,1,m,Wed May 07 2025 10:31:38 GMT-0400 (Eastern Daylight Time),264267.30000019073,043_m_f_n_a.png,I,m,934,5,1,1954.5,262312.80000019073,9017,NNB,A,4
5,test,1,0.0,1-Back,1,m,Wed May 07 2025 10:31:38 GMT-0400 (Eastern Daylight Time),266333.89999961853,053_o_m_n_a.png,I,m,1040,6,1,2054.2999992370605,264279.60000038147,9017,NNB,A,5
6,test,1,1.0,1-Back,1,z,Wed May 07 2025 10:31:38 GMT-0400 (Eastern Daylight Time),268233.89999961853,053_o_m_n_a.png,I,z,869,7,1,1886.8999996185303,266347.0,9017,NNB,A,6
7,test,1,0.0,1-Back,1,m,Wed May 07 2025 10:31:38 GMT-0400 (Eastern Daylight Time),270083.19999980927,058_m_m_n_a.png,I,m,800,8,1,1833.0999994277954,268250.10000038147,9017,NNB,A,7
8,test,1,0.0,1-Back,1,m,Wed May 07 2025 10:31:38 GMT-0400 (Eastern Daylight Time),272034.0,047_o_f_n_a.png,I,m,927,9,1,1939.1000003814697,270094.89999961853,9017,NNB,A,8
9,test,1,0.0,1-Back,1,m,Wed May 07 2025 10:31:38 GMT-0400 (Eastern Daylight Time),274183.89999961853,058_m_m_n_a.png,I,m,1121,10,1,2137.0999994277954,272046.80000019073,9017,NNB,A,9
10,test,1,0.0,1-Back,1,m,Wed May 07 2025 10:31:38 GMT-0400 (Eastern Daylight Time),276083.80000019073,041_y_m_n_a.png,I,m,875,11,1,1887.1999998092651,274196.60000038147,9017,NNB,A,10
11,test,1,1.0,1-Back,1,z,Wed May 07 2025 10:31:38 GMT-0400 (Eastern Daylight Time),277800.5,041_y_m_n_a.png,I,z,687,12,1,1702.1999998092651,276098.30000019073,9017,NNB,A,11
12,test,1,0.0,1-Back,1,m,Wed May 07 2025 10:31:38 GMT-0400 (Eastern Daylight Time),279717.19999980927,044_o_f_n_a.png,I,m,883,13,1,1902.1999998092651,277815.0,9017,NNB,A,12
12,test,1,1.0,1-Back,0,z,Wed May 07 2025 10:31:38 GMT-0400 (Eastern Daylight Time),281950.60000038147,044_o_f_n_a.png,I,m,1206,14,1,2219.7000007629395,279730.89999961853,9017,NNB,A,13
13,test,1,0.0,1-Back,1,m,Wed May 07 2025 10:31:38 GMT-0400 (Eastern Daylight Time),284033.89999961853,008_y_m_n_a.png,I,m,1061,15,1,2070.7999992370605,281963.10000038147,9017,NNB,A,14
14,test,1,0.0,1-Back,1,m,Wed May 07 2025 10:31:38 GMT-0400 (Eastern Daylight Time),285850.69999980927,050_m_f_n_a.png,I,m,785,16,1,1805.1999998092651,284045.5,9017,NNB,A,15
15,test,1,0.0,1-Back,1,m,Wed May 07 2025 10:31:38 GMT-0400 (Eastern Daylight Time),287817.19999980927,046_o_m_n_a.png,I,m,945,17,1,1954.1999998092651,285863.0,9017,NNB,A,16
16,test,1,0.0,1-Back,1,m,Wed May 07 2025 10:31:38 GMT-0400 (Eastern Daylight Time),289750.5,050_m_f_n_a.png,I,m,906,18,1,1921.3000001907349,287829.19999980927,9017,NNB,A,17
0,test,2,0.0,1-Back,,,Wed May 07 2025 10:31:38 GMT-0400 (Eastern Daylight Time),289750.5,058_m_m_n_a.png,I,space,5341,1,1,1921.3000001907349,287829.19999980927,9017,NNB,A,0
1,test,2,0.0,1-Back,1,m,Wed May 07 2025 10:31:38 GMT-0400 (Eastern Daylight Time),299066.89999961853,043_m_f_n_a.png,I,m,918,2,1,1935.1999998092651,297131.69999980927,9017,NNB,A,1
2,test,2,1.0,1-Back,1,z,Wed May 07 2025 10:31:38 GMT-0400 (Eastern Daylight Time),300617.30000019073,043_m_f_n_a.png,I,z,528,3,1,1540.6999998092651,299076.60000038147,9017,NNB,A,2
3,test,2,0.0,1-Back,1,m,Wed May 07 2025 10:31:38 GMT-0400 (Eastern Daylight Time),302400.69999980927,058_m_m_n_a.png,I,m,754,4,1,1769.5999994277954,300631.10000038147,9017,NNB,A,3
4,test,2,0.0,1-Back,1,m,Wed May 07 2025 10:31:38 GMT-0400 (Eastern Daylight Time),304467.39999961853,041_y_m_n_a.png,I,m,1042,5,1,2053.699999809265,302413.69999980927,9017,NNB,A,4
5,test,2,0.0,1-Back,1,m,Wed May 07 2025 10:31:38 GMT-0400 (Eastern Daylight Time),306367.10000038147,063_y_f_n_a.png,I,m,881,6,1,1886.6000003814697,304480.5,9017,NNB,A,5
6,test,2,1.0,1-Back,1,z,Wed May 07 2025 10:31:38 GMT-0400 (Eastern Daylight Time),308084.0,063_y_f_n_a.png,I,z,683,7,1,1705.3000001907349,306378.69999980927,9017,NNB,A,6
7,test,2,0.0,1-Back,1,m,Wed May 07 2025 10:31:38 GMT-0400 (Eastern Daylight Time),309783.69999980927,041_y_m_n_a.png,I,m,679,8,1,1686.6999998092651,308097.0,9017,NNB,A,7
8,test,2,0.0,1-Back,1,m,Wed May 07 2025 10:31:38 GMT-0400 (Eastern Daylight Time),311750.60000038147,044_o_f_n_a.png,I,m,938,9,1,1954.5,309796.10000038147,9017,NNB,A,8
9,test,2,0.0,1-Back,1,m,Wed May 07 2025 10:31:38 GMT-0400 (Eastern Daylight Time),313467.19999980927,045_m_m_n_a.png,I,m,693,10,1,1704.3999996185303,311762.80000019073,9017,NNB,A,9
10,test,2,1.0,1-Back,1,z,Wed May 07 2025 10:31:38 GMT-0400 (Eastern Daylight Time),315233.89999961853,045_m_m_n_a.png,I,z,744,11,1,1753.6999998092651,313480.19999980927,9017,NNB,A,10
11,test,2,0.0,1-Back,1,m,Wed May 07 2025 10:31:38 GMT-0400 (Eastern Daylight Time),316833.80000019073,044_o_f_n_a.png,I,m,577,12,1,1586.8000001907349,315247.0,9017,NNB,A,11
12,test,2,0.0,1-Back,1,m,Wed May 07 2025 10:31:38 GMT-0400 (Eastern Daylight Time),318750.10000038147,047_o_f_n_a.png,I,m,896,13,1,1904.5,316845.60000038147,9017,NNB,A,12
13,test,2,0.0,1-Back,1,m,Wed May 07 2025 10:31:38 GMT-0400 (Eastern Daylight Time),320551.39999961853,053_o_m_n_a.png,I,m,780,14,1,1790.2999992370605,318761.10000038147,9017,NNB,A,13
14,test,2,0.0,1-Back,1,m,Wed May 07 2025 10:31:38 GMT-0400 (Eastern Daylight Time),322333.60000038147,046_o_m_n_a.png,I,m,765,15,1,1769.8000001907349,320563.80000019073,9017,NNB,A,14
15,test,2,1.0,1-Back,1,z,Wed May 07 2025 10:31:38 GMT-0400 (Eastern Daylight Time),324333.89999961853,046_o_m_n_a.png,I,z,981,16,1,1988.8999996185303,322345.0,9017,NNB,A,15
16,test,2,0.0,1-Back,1,m,Wed May 07 2025 10:31:38 GMT-0400 (Eastern Daylight Time),326167.30000019073,008_y_m_n_a.png,I,m,805,17,1,1820.0,324347.30000019073,9017,NNB,A,16
17,test,2,1.0,1-Back,1,z,Wed May 07 2025 10:31:38 GMT-0400 (Eastern Daylight Time),328183.80000019073,008_y_m_n_a.png,I,z,988,18,1,2004.0,326179.80000019073,9017,NNB,A,17
0,test,3,1.0,1-Back,,,Wed May 07 2025 10:31:38 GMT-0400 (Eastern Daylight Time),328183.80000019073,010_y_f_n_a.png,I,space,2396,1,1,2004.0,326179.80000019073,9017,NNB,A,0
1,test,3,0.0,1-Back,1,m,Wed May 07 2025 10:31:38 GMT-0400 (Eastern Daylight Time),334633.89999961853,046_o_m_n_a.png,I,m,920,2,1,1937.7999992370605,332696.10000038147,9017,NNB,A,1
2,test,3,1.0,1-Back,1,z,Wed May 07 2025 10:31:38 GMT-0400 (Eastern Daylight Time),336717.0,046_o_m_n_a.png,I,z,1057,3,1,2070.699999809265,334646.30000019073,9017,NNB,A,2
3,test,3,0.0,1-Back,1,m,Wed May 07 2025 10:31:38 GMT-0400 (Eastern Daylight Time),338450.5,050_m_f_n_a.png,I,m,703,4,1,1721.1999998092651,336729.30000019073,9017,NNB,A,3
4,test,3,1.0,1-Back,1,z,Wed May 07 2025 10:31:38 GMT-0400 (Eastern Daylight Time),340283.80000019073,050_m_f_n_a.png,I,z,801,5,1,1820.8000001907349,338463.0,9017,NNB,A,4
5,test,3,0.0,1-Back,1,m,Wed May 07 2025 10:31:38 GMT-0400 (Eastern Daylight Time),342050.60000038147,044_o_f_n_a.png,I,m,743,6,1,1755.2000007629395,340295.39999961853,9017,NNB,A,5
6,test,3,0.0,1-Back,1,m,Wed May 07 2025 10:31:38 GMT-0400 (Eastern Daylight Time),344033.69999980927,041_y_m_n_a.png,I,m,961,7,1,1971.5999994277954,342062.10000038147,9017,NNB,A,6
7,test,3,0.0,1-Back,1,m,Wed May 07 2025 10:31:38 GMT-0400 (Eastern Daylight Time),346283.89999961853,044_o_f_n_a.png,I,m,1217,8,1,2237.8999996185303,344046.0,9017,NNB,A,7
8,test,3,0.0,1-Back,1,m,Wed May 07 2025 10:31:38 GMT-0400 (Eastern Daylight Time),347967.30000019073,008_y_m_n_a.png,I,m,655,9,1,1671.1999998092651,346296.10000038147,9017,NNB,A,8
9,test,3,1.0,1-Back,1,z,Wed May 07 2025 10:31:38 GMT-0400 (Eastern Daylight Time),349550.39999961853,008_y_m_n_a.png,I,z,556,10,1,1570.5999994277954,347979.80000019073,9017,NNB,A,9
10,test,3,0.0,1-Back,1,m,Wed May 07 2025 10:31:38 GMT-0400 (Eastern Daylight Time),351300.5,043_m_f_n_a.png,I,m,725,11,1,1738.1999998092651,349562.30000019073,9017,NNB,A,10
11,test,3,0.0,1-Back,1,m,Wed May 07 2025 10:31:38 GMT-0400 (Eastern Daylight Time),353250.60000038147,063_y_f_n_a.png,I,m,927,12,1,1938.1000003814697,351312.5,9017,NNB,A,11
12,test,3,1.0,1-Back,1,z,Wed May 07 2025 10:31:38 GMT-0400 (Eastern Daylight Time),354867.0,063_y_f_n_a.png,I,z,585,13,1,1604.0,353263.0,9017,NNB,A,12
13,test,3,0.0,1-Back,1,m,Wed May 07 2025 10:31:38 GMT-0400 (Eastern Daylight Time),356650.5,043_m_f_n_a.png,I,m,760,14,1,1769.8000001907349,354880.69999980927,9017,NNB,A,13
14,test,3,0.0,1-Back,1,m,Wed May 07 2025 10:31:38 GMT-0400 (Eastern Daylight Time),358550.19999980927,058_m_m_n_a.png,I,m,881,15,1,1887.0,356663.19999980927,9017,NNB,A,14
15,test,3,1.0,1-Back,1,z,Wed May 07 2025 10:31:38 GMT-0400 (Eastern Daylight Time),360317.0,058_m_m_n_a.png,I,z,741,16,1,1754.3999996185303,358562.60000038147,9017,NNB,A,15
16,test,3,0.0,1-Back,1,m,Wed May 07 2025 10:31:38 GMT-0400 (Eastern Daylight Time),362050.5,047_o_f_n_a.png,I,m,710,17,1,1720.0,360330.5,9017,NNB,A,16
17,test,3,1.0,1-Back,1,z,Wed May 07 2025 10:31:38 GMT-0400 (Eastern Daylight Time),364117.10000038147,047_o_f_n_a.png,I,z,1033,18,1,2054.4000005722046,362062.69999980927,9017,NNB,A,17
0,test,4,1.0,1-Back,,,Wed May 07 2025 10:31:38 GMT-0400 (Eastern Daylight Time),364117.10000038147,050_m_f_n_a.png,I,space,1894,1,1,2054.4000005722046,362062.69999980927,9017,NNB,A,0
1,test,4,0.0,1-Back,1,m,Wed May 07 2025 10:31:38 GMT-0400 (Eastern Daylight Time),369933.89999961853,046_o_m_n_a.png,I,m,873,2,1,1887.1999998092651,368046.69999980927,9017,NNB,A,1
2,test,4,0.0,1-Back,1,m,Wed May 07 2025 10:31:38 GMT-0400 (Eastern Daylight Time),371950.19999980927,050_m_f_n_a.png,I,m,997,3,1,2003.8999996185303,369946.30000019073,9017,NNB,A,2
3,test,4,0.0,1-Back,1,m,Wed May 07 2025 10:31:38 GMT-0400 (Eastern Daylight Time),373550.19999980927,044_o_f_n_a.png,I,m,581,4,1,1588.1999998092651,371962.0,9017,NNB,A,3
4,test,4,1.0,1-Back,1,z,Wed May 07 2025 10:31:38 GMT-0400 (Eastern Daylight Time),375217.0,044_o_f_n_a.png,I,z,637,5,1,1654.1000003814697,373562.89999961853,9017,NNB,A,4
5,test,4,0.0,1-Back,1,m,Wed May 07 2025 10:31:38 GMT-0400 (Eastern Daylight Time),376817.19999980927,063_y_f_n_a.png,I,m,578,6,1,1587.8000001907349,375229.39999961853,9017,NNB,A,5
6,test,4,0.0,1-Back,1,m,Wed May 07 2025 10:31:38 GMT-0400 (Eastern Daylight Time),378533.80000019073,041_y_m_n_a.png,I,m,690,7,1,1704.1999998092651,376829.60000038147,9017,NNB,A,6
7,test,4,1.0,1-Back,1,z,Wed May 07 2025 10:31:38 GMT-0400 (Eastern Daylight Time),380350.39999961853,041_y_m_n_a.png,I,z,773,8,1,1800.0,378550.39999961853,9017,NNB,A,7
8,test,4,0.0,1-Back,1,m,Wed May 07 2025 10:31:38 GMT-0400 (Eastern Daylight Time),382233.80000019073,063_y_f_n_a.png,I,m,861,9,1,1868.6999998092651,380365.10000038147,9017,NNB,A,8
9,test,4,0.0,1-Back,1,m,Wed May 07 2025 10:31:38 GMT-0400 (Eastern Daylight Time),383900.60000038147,045_m_m_n_a.png,I,m,642,10,1,1654.3000001907349,382246.30000019073,9017,NNB,A,9
10,test,4,1.0,1-Back,1,z,Wed May 07 2025 10:31:38 GMT-0400 (Eastern Daylight Time),385950.19999980927,045_m_m_n_a.png,I,z,1031,11,1,2036.6999998092651,383913.5,9017,NNB,A,10
11,test,4,0.0,1-Back,1,m,Wed May 07 2025 10:31:38 GMT-0400 (Eastern Daylight Time),387766.89999961853,047_o_f_n_a.png,I,m,797,12,1,1804.8999996185303,385962.0,9017,NNB,A,11
12,test,4,0.0,1-Back,1,m,Wed May 07 2025 10:31:38 GMT-0400 (Eastern Daylight Time),389450.0,053_o_m_n_a.png,I,m,651,13,1,1670.8000001907349,387779.19999980927,9017,NNB,A,12
13,test,4,0.0,1-Back,1,m,Wed May 07 2025 10:31:38 GMT-0400 (Eastern Daylight Time),391150.5,047_o_f_n_a.png,I,m,673,14,1,1691.1000003814697,389459.39999961853,9017,NNB,A,13
14,test,4,0.0,1-Back,1,m,Wed May 07 2025 10:31:38 GMT-0400 (Eastern Daylight Time),392817.0,010_y_f_n_a.png,I,m,637,15,1,1654.1000003814697,391162.89999961853,9017,NNB,A,14
15,test,4,1.0,1-Back,1,z,Wed May 07 2025 10:31:38 GMT-0400 (Eastern Daylight Time),394333.89999961853,010_y_f_n_a.png,I,z,490,16,1,1504.8999996185303,392829.0,9017,NNB,A,15
16,test,4,0.0,1-Back,1,m,Wed May 07 2025 10:31:38 GMT-0400 (Eastern Daylight Time),395950.10000038147,043_m_f_n_a.png,I,m,598,17,1,1603.3000001907349,394346.80000019073,9017,NNB,A,16
17,test,4,1.0,1-Back,1,z,Wed May 07 2025 10:31:38 GMT-0400 (Eastern Daylight Time),397717.10000038147,043_m_f_n_a.png,I,z,741,18,1,1754.7000007629395,395962.39999961853,9017,NNB,A,17
0,test,5,1.0,1-Back,,,Wed May 07 2025 10:31:38 GMT-0400 (Eastern Daylight Time),397717.10000038147,053_o_m_n_a.png,I,space,9070,1,1,1754.7000007629395,395962.39999961853,9017,NNB,A,0
1,test,5,1.0,1-Back,1,z,Wed May 07 2025 10:31:38 GMT-0400 (Eastern Daylight Time),410850.5,053_o_m_n_a.png,I,z,1010,2,1,2021.0,408829.5,9017,NNB,A,1
2,test,5,0.0,1-Back,1,m,Wed May 07 2025 10:31:38 GMT-0400 (Eastern Daylight Time),412700.5,063_y_f_n_a.png,I,m,816,3,1,1837.3999996185303,410863.10000038147,9017,NNB,A,2
3,test,5,0.0,1-Back,1,m,Wed May 07 2025 10:31:38 GMT-0400 (Eastern Daylight Time),414433.80000019073,041_y_m_n_a.png,I,m,711,4,1,1720.4000005722046,412713.39999961853,9017,NNB,A,3
4,test,5,0.0,1-Back,1,m,Wed May 07 2025 10:31:38 GMT-0400 (Eastern Daylight Time),416283.5,063_y_f_n_a.png,I,m,826,5,1,1836.3999996185303,414447.10000038147,9017,NNB,A,4
5,test,5,0.0,1-Back,1,m,Wed May 07 2025 10:31:38 GMT-0400 (Eastern Daylight Time),417917.19999980927,058_m_m_n_a.png,I,m,608,6,1,1620.0,416297.19999980927,9017,NNB,A,5
6,test,5,1.0,1-Back,1,z,Wed May 07 2025 10:31:38 GMT-0400 (Eastern Daylight Time),419566.69999980927,058_m_m_n_a.png,I,z,630,7,1,1637.0,417929.69999980927,9017,NNB,A,6
7,test,5,0.0,1-Back,1,m,Wed May 07 2025 10:31:38 GMT-0400 (Eastern Daylight Time),421333.69999980927,010_y_f_n_a.png,I,m,740,8,1,1754.3000001907349,419579.39999961853,9017,NNB,A,7
8,test,5,0.0,1-Back,1,m,Wed May 07 2025 10:31:38 GMT-0400 (Eastern Daylight Time),423133.60000038147,008_y_m_n_a.png,I,m,781,9,1,1787.4000005722046,421346.19999980927,9017,NNB,A,8
9,test,5,0.0,1-Back,1,m,Wed May 07 2025 10:31:38 GMT-0400 (Eastern Daylight Time),424717.10000038147,010_y_f_n_a.png,I,m,558,10,1,1571.8000001907349,423145.30000019073,9017,NNB,A,9
10,test,5,0.0,1-Back,1,m,Wed May 07 2025 10:31:38 GMT-0400 (Eastern Daylight Time),426400.10000038147,047_o_f_n_a.png,I,m,654,11,1,1670.8000001907349,424729.30000019073,9017,NNB,A,10
11,test,5,1.0,1-Back,1,z,Wed May 07 2025 10:31:38 GMT-0400 (Eastern Daylight Time),427933.69999980927,047_o_f_n_a.png,I,z,507,12,1,1521.0999994277954,426412.60000038147,9017,NNB,A,11
12,test,5,0.0,1-Back,1,m,Wed May 07 2025 10:31:38 GMT-0400 (Eastern Daylight Time),429583.80000019073,046_o_m_n_a.png,I,m,622,13,1,1638.1000003814697,427945.69999980927,9017,NNB,A,12
13,test,5,0.0,1-Back,1,m,Wed May 07 2025 10:31:38 GMT-0400 (Eastern Daylight Time),431133.80000019073,050_m_f_n_a.png,I,m,508,14,1,1523.5,429610.30000019073,9017,NNB,A,13
14,test,5,1.0,1-Back,1,z,Wed May 07 2025 10:31:38 GMT-0400 (Eastern Daylight Time),432866.89999961853,050_m_f_n_a.png,I,z,702,15,1,1721.3999996185303,431145.5,9017,NNB,A,14
15,test,5,0.0,1-Back,1,m,Wed May 07 2025 10:31:38 GMT-0400 (Eastern Daylight Time),434467.0,046_o_m_n_a.png,I,m,576,16,1,1587.0,432880.0,9017,NNB,A,15
16,test,5,0.0,1-Back,1,m,Wed May 07 2025 10:31:38 GMT-0400 (Eastern Daylight Time),436283.69999980927,043_m_f_n_a.png,I,m,792,17,1,1804.1999998092651,434479.5,9017,NNB,A,16
17,test,5,0.0,1-Back,1,m,Wed May 07 2025 10:31:38 GMT-0400 (Eastern Daylight Time),437883.69999980927,045_m_m_n_a.png,I,m,567,18,1,1588.1999998092651,436295.5,9017,NNB,A,17
0,prac,1,0.0,2-Back,,,Wed May 07 2025 10:31:38 GMT-0400 (Eastern Daylight Time),437883.69999980927,008_y_m_n_a.png,I,space,15164,1,1,1588.1999998092651,436295.5,9017,NNB,A,0
0,prac,1,0.0,2-Back,,,Wed May 07 2025 10:31:38 GMT-0400 (Eastern Daylight Time),437883.69999980927,043_m_f_n_a.png,I,space,15164,2,1,1588.1999998092651,436295.5,9017,NNB,A,0
0,prac,1,1.0,2-Back,0,m,Wed May 07 2025 10:31:38 GMT-0400 (Eastern Daylight Time),590650.1999998093,046_o_m_n_a.png,I,z,1421,3,1,2269.5,588380.6999998093,9017,NNB,A,1
1,prac,1,0.0,2-Back,1,m,Wed May 07 2025 10:31:38 GMT-0400 (Eastern Daylight Time),592732.8000001907,047_o_f_n_a.png,I,m,1067,4,1,2065.199999809265,590667.6000003815,9017,NNB,A,2
2,prac,1,0.0,2-Back,1,z,Wed May 07 2025 10:31:38 GMT-0400 (Eastern Daylight Time),594683.1999998093,046_o_m_n_a.png,I,z,1171,5,1,1938.8999996185303,592744.3000001907,9017,NNB,A,3
3,prac,1,1.0,2-Back,1,z,Wed May 07 2025 10:31:38 GMT-0400 (Eastern Daylight Time),596666.1999998093,047_o_f_n_a.png,I,z,1196,6,1,1970.0999994277954,594696.1000003815,9017,NNB,A,4
4,prac,1,0.0,2-Back,1,m,Wed May 07 2025 10:31:38 GMT-0400 (Eastern Daylight Time),598833.3999996185,045_m_m_n_a.png,I,m,1291,7,1,2154.8999996185303,596678.5,9017,NNB,A,5
5,prac,1,0.0,2-Back,1,m,Wed May 07 2025 10:31:38 GMT-0400 (Eastern Daylight Time),600783.5,053_o_m_n_a.png,I,m,1000,8,1,1936.3999996185303,598847.1000003815,9017,NNB,A,6
6,prac,1,0.0,2-Back,1,m,Wed May 07 2025 10:31:38 GMT-0400 (Eastern Daylight Time),604383.6000003815,010_y_f_n_a.png,I,m,1590,9,1,3584.7000007629395,600798.8999996185,9017,NNB,A,7
7,prac,1,1.0,2-Back,1,z,Wed May 07 2025 10:31:38 GMT-0400 (Eastern Daylight Time),606466.8000001907,053_o_m_n_a.png,I,z,1294,10,1,2068.300000190735,604398.5,9017,NNB,A,8
7,prac,1,0.0,2-Back,0,m,Wed May 07 2025 10:31:38 GMT-0400 (Eastern Daylight Time),609133.3000001907,063_y_f_n_a.png,I,z,1794,11,1,2652.699999809265,606480.6000003815,9017,NNB,A,9
8,prac,1,0.0,2-Back,1,m,Wed May 07 2025 10:31:38 GMT-0400 (Eastern Daylight Time),611550.1999998093,045_m_m_n_a.png,I,m,1592,12,1,2402.0,609148.1999998093,9017,NNB,A,10
0,test,1,0.0,2-Back,,,Wed May 07 2025 10:31:38 GMT-0400 (Eastern Daylight Time),611550.1999998093,041_y_m_n_a.png,I,space,11183,1,1,2402.0,609148.1999998093,9017,NNB,A,0
0,test,1,0.0,2-Back,,,Wed May 07 2025 10:31:38 GMT-0400 (Eastern Daylight Time),611550.1999998093,041_y_m_n_a.png,I,space,11183,2,1,2402.0,609148.1999998093,9017,NNB,A,0
1,test,1,0.0,2-Back,1,m,Wed May 07 2025 10:31:38 GMT-0400 (Eastern Daylight Time),639916.6000003815,047_o_f_n_a.png,I,m,1657,3,1,2670.7000007629395,637245.8999996185,9017,NNB,A,1
2,test,1,0.0,2-Back,1,m,Wed May 07 2025 10:31:38 GMT-0400 (Eastern Daylight Time),642166.6999998093,058_m_m_n_a.png,I,m,1231,4,1,2237.8999996185303,639928.8000001907,9017,NNB,A,2
3,test,1,1.0,2-Back,1,z,Wed May 07 2025 10:31:38 GMT-0400 (Eastern Daylight Time),644466.6999998093,047_o_f_n_a.png,I,z,1276,5,1,2286.5999994277954,642180.1000003815,9017,NNB,A,3
4,test,1,0.0,2-Back,1,m,Wed May 07 2025 10:31:38 GMT-0400 (Eastern Daylight Time),646950.0,063_y_f_n_a.png,I,m,1456,6,1,2470.699999809265,644479.3000001907,9017,NNB,A,4
5,test,1,0.0,2-Back,1,m,Wed May 07 2025 10:31:38 GMT-0400 (Eastern Daylight Time),649333.5,058_m_m_n_a.png,I,m,1348,7,1,2370.8999996185303,646962.6000003815,9017,NNB,A,5
6,test,1,1.0,2-Back,1,z,Wed May 07 2025 10:31:38 GMT-0400 (Eastern Daylight Time),651983.3000001907,063_y_f_n_a.png,I,z,1629,8,1,2635.199999809265,649348.1000003815,9017,NNB,A,6
7,test,1,0.0,2-Back,1,m,Wed May 07 2025 10:31:38 GMT-0400 (Eastern Daylight Time),654316.6999998093,008_y_m_n_a.png,I,m,1308,9,1,2321.300000190735,651995.3999996185,9017,NNB,A,7
7,test,1,0.0,2-Back,0,m,Wed May 07 2025 10:31:38 GMT-0400 (Eastern Daylight Time),657083.3000001907,044_o_f_n_a.png,I,z,1742,10,1,2753.9000005722046,654329.3999996185,9017,NNB,A,8
8,test,1,1.0,2-Back,1,z,Wed May 07 2025 10:31:38 GMT-0400 (Eastern Daylight Time),659366.8000001907,008_y_m_n_a.png,I,z,1255,11,1,2271.0,657095.8000001907,9017,NNB,A,9
9,test,1,0.0,2-Back,1,m,Wed May 07 2025 10:31:38 GMT-0400 (Eastern Daylight Time),661449.3999996185,043_m_f_n_a.png,I,m,1059,12,1,2069.7999992370605,659379.6000003815,9017,NNB,A,10
10,test,1,0.0,2-Back,1,m,Wed May 07 2025 10:31:38 GMT-0400 (Eastern Daylight Time),664333.3000001907,043_m_f_n_a.png,I,m,1858,13,1,2871.0,661462.3000001907,9017,NNB,A,11
11,test,1,0.0,2-Back,1,m,Wed May 07 2025 10:31:38 GMT-0400 (Eastern Daylight Time),666583.3000001907,046_o_m_n_a.png,I,m,1221,14,1,2235.5,664347.8000001907,9017,NNB,A,12
12,test,1,0.0,2-Back,1,m,Wed May 07 2025 10:31:38 GMT-0400 (Eastern Daylight Time),669016.6000003815,044_o_f_n_a.png,I,m,1411,15,1,2420.2000007629395,666596.3999996185,9017,NNB,A,13
13,test,1,1.0,2-Back,1,z,Wed May 07 2025 10:31:38 GMT-0400 (Eastern Daylight Time),671316.0,046_o_m_n_a.png,I,z,1282,16,1,2285.699999809265,669030.3000001907,9017,NNB,A,14
14,test,1,0.0,2-Back,1,m,Wed May 07 2025 10:31:38 GMT-0400 (Eastern Daylight Time),673500.0,050_m_f_n_a.png,I,m,1150,17,1,2172.8999996185303,671327.1000003815,9017,NNB,A,15
14,test,1,0.0,2-Back,0,m,Wed May 07 2025 10:31:38 GMT-0400 (Eastern Daylight Time),676533.5,045_m_m_n_a.png,I,None,2015,18,1,3020.6000003814697,673512.8999996185,9017,NNB,A,16
0,test,2,0.0,2-Back,,,Wed May 07 2025 10:31:38 GMT-0400 (Eastern Daylight Time),676533.5,045_m_m_n_a.png,I,space,3053,1,1,3020.6000003814697,673512.8999996185,9017,NNB,A,0
0,test,2,0.0,2-Back,,,Wed May 07 2025 10:31:38 GMT-0400 (Eastern Daylight Time),676533.5,010_y_f_n_a.png,I,space,3053,2,1,3020.6000003814697,673512.8999996185,9017,NNB,A,0
1,test,2,1.0,2-Back,1,z,Wed May 07 2025 10:31:38 GMT-0400 (Eastern Daylight Time),686416.6999998093,045_m_m_n_a.png,I,z,653,3,1,1671.0999994277954,684745.6000003815,9017,NNB,A,1
2,test,2,0.0,2-Back,1,m,Wed May 07 2025 10:31:38 GMT-0400 (Eastern Daylight Time),688266.5,050_m_f_n_a.png,I,m,828,4,1,1836.5,686430.0,9017,NNB,A,2
3,test,2,0.0,2-Back,1,m,Wed May 07 2025 10:31:38 GMT-0400 (Eastern Daylight Time),690866.8000001907,010_y_f_n_a.png,I,m,1576,5,1,2587.9000005722046,688278.8999996185,9017,NNB,A,3
3,test,2,0.0,2-Back,0,m,Wed May 07 2025 10:31:38 GMT-0400 (Eastern Daylight Time),692900.0,046_o_m_n_a.png,I,z,1009,6,1,2020.5,690879.5,9017,NNB,A,4
4,test,2,0.0,2-Back,1,m,Wed May 07 2025 10:31:38 GMT-0400 (Eastern Daylight Time),695266.6999998093,063_y_f_n_a.png,I,m,1342,7,1,2353.0999994277954,692913.6000003815,9017,NNB,A,5
4,test,2,1.0,2-Back,0,z,Wed May 07 2025 10:31:38 GMT-0400 (Eastern Daylight Time),697566.5,046_o_m_n_a.png,I,m,1280,8,1,2286.5,695280.0,9017,NNB,A,6
4,test,2,0.0,2-Back,0,m,Wed May 07 2025 10:31:38 GMT-0400 (Eastern Daylight Time),699783.1999998093,008_y_m_n_a.png,I,z,1172,9,1,2199.3999996185303,697583.8000001907,9017,NNB,A,7
5,test,2,0.0,2-Back,1,m,Wed May 07 2025 10:31:38 GMT-0400 (Eastern Daylight Time),702249.8000001907,008_y_m_n_a.png,I,m,1435,10,1,2453.9000005722046,699795.8999996185,9017,NNB,A,8
6,test,2,0.0,2-Back,1,m,Wed May 07 2025 10:31:38 GMT-0400 (Eastern Daylight Time),704899.8999996185,043_m_f_n_a.png,I,m,1616,11,1,2635.699999809265,702264.1999998093,9017,NNB,A,9
7,test,2,0.0,2-Back,1,m,Wed May 07 2025 10:31:38 GMT-0400 (Eastern Daylight Time),706916.6999998093,010_y_f_n_a.png,I,m,974,12,1,1999.5999994277954,704917.1000003815,9017,NNB,A,10
8,test,2,1.0,2-Back,1,z,Wed May 07 2025 10:31:38 GMT-0400 (Eastern Daylight Time),709066.6999998093,043_m_f_n_a.png,I,z,1101,13,1,2134.0999994277954,706932.6000003815,9017,NNB,A,11
9,test,2,0.0,2-Back,1,m,Wed May 07 2025 10:31:38 GMT-0400 (Eastern Daylight Time),711116.5,053_o_m_n_a.png,I,m,1025,14,1,2036.1999998092651,709080.3000001907,9017,NNB,A,12
10,test,2,0.0,2-Back,1,m,Wed May 07 2025 10:31:38 GMT-0400 (Eastern Daylight Time),714083.3000001907,053_o_m_n_a.png,I,m,1942,15,1,2954.699999809265,711128.6000003815,9017,NNB,A,13
11,test,2,0.0,2-Back,1,m,Wed May 07 2025 10:31:38 GMT-0400 (Eastern Daylight Time),716199.8999996185,044_o_f_n_a.png,I,m,1095,16,1,2102.5,714097.3999996185,9017,NNB,A,14
12,test,2,0.0,2-Back,1,m,Wed May 07 2025 10:31:38 GMT-0400 (Eastern Daylight Time),718233.5,058_m_m_n_a.png,I,m,1011,17,1,2020.8000001907349,716212.6999998093,9017,NNB,A,15
13,test,2,1.0,2-Back,1,z,Wed May 07 2025 10:31:38 GMT-0400 (Eastern Daylight Time),720066.6000003815,044_o_f_n_a.png,I,z,801,18,1,1820.0,718246.6000003815,9017,NNB,A,16
0,test,3,1.0,2-Back,,,Wed May 07 2025 10:31:38 GMT-0400 (Eastern Daylight Time),720066.6000003815,041_y_m_n_a.png,I,space,1657,1,1,1820.0,718246.6000003815,9017,NNB,A,0
0,test,3,1.0,2-Back,,,Wed May 07 2025 10:31:38 GMT-0400 (Eastern Daylight Time),720066.6000003815,041_y_m_n_a.png,I,space,1657,2,1,1820.0,718246.6000003815,9017,NNB,A,0
1,test,3,0.0,2-Back,1,m,Wed May 07 2025 10:31:38 GMT-0400 (Eastern Daylight Time),728900.5,044_o_f_n_a.png,I,m,1041,3,1,2053.8999996185303,726846.6000003815,9017,NNB,A,1
2,test,3,0.0,2-Back,1,m,Wed May 07 2025 10:31:38 GMT-0400 (Eastern Daylight Time),730916.6000003815,045_m_m_n_a.png,I,m,990,4,1,2006.2000007629395,728910.3999996185,9017,NNB,A,2
3,test,3,1.0,2-Back,1,z,Wed May 07 2025 10:31:38 GMT-0400 (Eastern Daylight Time),733599.8999996185,044_o_f_n_a.png,I,z,1662,5,1,2670.5,730929.3999996185,9017,NNB,A,3
3,test,3,0.0,2-Back,0,m,Wed May 07 2025 10:31:38 GMT-0400 (Eastern Daylight Time),735433.3000001907,008_y_m_n_a.png,I,z,802,6,1,1819.6000003814697,733613.6999998093,9017,NNB,A,4
4,test,3,0.0,2-Back,1,m,Wed May 07 2025 10:31:38 GMT-0400 (Eastern Daylight Time),737650.0,045_m_m_n_a.png,I,m,1193,7,1,2202.6000003814697,735447.3999996185,9017,NNB,A,5
5,test,3,1.0,2-Back,1,z,Wed May 07 2025 10:31:38 GMT-0400 (Eastern Daylight Time),740133.0,008_y_m_n_a.png,I,z,1448,8,1,2466.800000190735,737666.1999998093,9017,NNB,A,6
6,test,3,0.0,2-Back,1,m,Wed May 07 2025 10:31:38 GMT-0400 (Eastern Daylight Time),742233.3999996185,010_y_f_n_a.png,I,m,1052,9,1,2084.5,740148.8999996185,9017,NNB,A,7
7,test,3,0.0,2-Back,1,m,Wed May 07 2025 10:31:38 GMT-0400 (Eastern Daylight Time),744466.5,058_m_m_n_a.png,I,m,1201,10,1,2220.5,742246.0,9017,NNB,A,8
8,test,3,1.0,2-Back,1,z,Wed May 07 2025 10:31:38 GMT-0400 (Eastern Daylight Time),746716.6000003815,010_y_f_n_a.png,I,z,1224,11,1,2237.2000007629395,744479.3999996185,9017,NNB,A,9
8,test,3,1.0,2-Back,0,z,Wed May 07 2025 10:31:38 GMT-0400 (Eastern Daylight Time),749383.1000003815,058_m_m_n_a.png,I,m,1638,12,1,2654.300000190735,746728.8000001907,9017,NNB,A,10
9,test,3,0.0,2-Back,1,m,Wed May 07 2025 10:31:38 GMT-0400 (Eastern Daylight Time),751949.5,044_o_f_n_a.png,I,m,1547,13,1,2553.5,749396.0,9017,NNB,A,11
10,test,3,0.0,2-Back,1,m,Wed May 07 2025 10:31:38 GMT-0400 (Eastern Daylight Time),754233.1999998093,050_m_f_n_a.png,I,m,1252,14,1,2269.300000190735,751963.8999996185,9017,NNB,A,12
11,test,3,0.0,2-Back,1,m,Wed May 07 2025 10:31:38 GMT-0400 (Eastern Daylight Time),756199.8000001907,046_o_m_n_a.png,I,m,946,15,1,1953.6999998092651,754246.1000003815,9017,NNB,A,13
12,test,3,1.0,2-Back,1,z,Wed May 07 2025 10:31:38 GMT-0400 (Eastern Daylight Time),758333.1999998093,050_m_f_n_a.png,I,z,1115,16,1,2120.5999994277954,756212.6000003815,9017,NNB,A,14
13,test,3,0.0,2-Back,1,m,Wed May 07 2025 10:31:38 GMT-0400 (Eastern Daylight Time),760315.8999996185,047_o_f_n_a.png,I,m,965,17,1,1970.0999994277954,758345.8000001907,9017,NNB,A,15
14,test,3,0.0,2-Back,1,m,Wed May 07 2025 10:31:38 GMT-0400 (Eastern Daylight Time),763049.8000001907,047_o_f_n_a.png,I,m,1710,18,1,2724.1000003814697,760325.6999998093,9017,NNB,A,16
0,test,4,0.0,2-Back,,,Wed May 07 2025 10:31:38 GMT-0400 (Eastern Daylight Time),763049.8000001907,053_o_m_n_a.png,I,space,1608,1,1,2724.1000003814697,760325.6999998093,9017,NNB,A,0
0,test,4,0.0,2-Back,,,Wed May 07 2025 10:31:38 GMT-0400 (Eastern Daylight Time),763049.8000001907,063_y_f_n_a.png,I,space,1608,2,1,2724.1000003814697,760325.6999998093,9017,NNB,A,0
1,test,4,1.0,2-Back,1,z,Wed May 07 2025 10:31:38 GMT-0400 (Eastern Daylight Time),772316.5,053_o_m_n_a.png,I,z,1482,3,1,2486.8999996185303,769829.6000003815,9017,NNB,A,1
2,test,4,1.0,2-Back,1,z,Wed May 07 2025 10:31:38 GMT-0400 (Eastern Daylight Time),774016.6000003815,063_y_f_n_a.png,I,z,661,4,1,1683.9000005722046,772332.6999998093,9017,NNB,A,2
3,test,4,0.0,2-Back,1,m,Wed May 07 2025 10:31:38 GMT-0400 (Eastern Daylight Time),776249.8000001907,044_o_f_n_a.png,I,m,1096,5,1,2216.4000005722046,774033.3999996185,9017,NNB,A,3
3,test,4,0.0,2-Back,0,m,Wed May 07 2025 10:31:38 GMT-0400 (Eastern Daylight Time),778549.5,044_o_f_n_a.png,I,z,1264,6,1,2282.8999996185303,776266.6000003815,9017,NNB,A,4
4,test,4,0.0,2-Back,1,m,Wed May 07 2025 10:31:38 GMT-0400 (Eastern Daylight Time),780632.8999996185,043_m_f_n_a.png,I,m,1060,7,1,2071.2999992370605,778561.6000003815,9017,NNB,A,5
5,test,4,0.0,2-Back,1,m,Wed May 07 2025 10:31:38 GMT-0400 (Eastern Daylight Time),782899.8999996185,008_y_m_n_a.png,I,m,1241,8,1,2254.8999996185303,780645.0,9017,NNB,A,6
6,test,4,1.0,2-Back,1,z,Wed May 07 2025 10:31:38 GMT-0400 (Eastern Daylight Time),784849.6999998093,043_m_f_n_a.png,I,z,926,9,1,1936.0,782913.6999998093,9017,NNB,A,7
7,test,4,0.0,2-Back,1,m,Wed May 07 2025 10:31:38 GMT-0400 (Eastern Daylight Time),787183.1999998093,058_m_m_n_a.png,I,m,1304,10,1,2320.8999996185303,784862.3000001907,9017,NNB,A,8
7,test,4,0.0,2-Back,0,m,Wed May 07 2025 10:31:38 GMT-0400 (Eastern Daylight Time),789149.5,008_y_m_n_a.png,I,z,947,11,1,1953.6000003814697,787195.8999996185,9017,NNB,A,9
8,test,4,0.0,2-Back,1,m,Wed May 07 2025 10:31:38 GMT-0400 (Eastern Daylight Time),791633.0,047_o_f_n_a.png,I,m,1460,12,1,2470.3999996185303,789162.6000003815,9017,NNB,A,10
9,test,4,0.0,2-Back,1,m,Wed May 07 2025 10:31:38 GMT-0400 (Eastern Daylight Time),793649.8000001907,041_y_m_n_a.png,I,m,995,13,1,2003.1999998092651,791646.6000003815,9017,NNB,A,11
10,test,4,1.0,2-Back,1,z,Wed May 07 2025 10:31:38 GMT-0400 (Eastern Daylight Time),795683.1000003815,047_o_f_n_a.png,I,z,1009,14,1,2019.3000001907349,793663.8000001907,9017,NNB,A,12
10,test,4,1.0,2-Back,0,z,Wed May 07 2025 10:31:38 GMT-0400 (Eastern Daylight Time),797816.6000003815,041_y_m_n_a.png,I,m,1111,15,1,2121.2000007629395,795695.3999996185,9017,NNB,A,13
11,test,4,0.0,2-Back,1,m,Wed May 07 2025 10:31:38 GMT-0400 (Eastern Daylight Time),800033.1000003815,045_m_m_n_a.png,I,m,1193,16,1,2203.1000003814697,797830.0,9017,NNB,A,14
12,test,4,0.0,2-Back,1,m,Wed May 07 2025 10:31:38 GMT-0400 (Eastern Daylight Time),802366.5,050_m_f_n_a.png,I,m,1313,17,1,2319.5,800047.0,9017,NNB,A,15
13,test,4,1.0,2-Back,1,z,Wed May 07 2025 10:31:38 GMT-0400 (Eastern Daylight Time),804166.6000003815,045_m_m_n_a.png,I,z,773,18,1,1787.7000007629395,802378.8999996185,9017,NNB,A,16
0,test,5,1.0,2-Back,,,Wed May 07 2025 10:31:38 GMT-0400 (Eastern Daylight Time),804166.6000003815,041_y_m_n_a.png,I,space,1588,1,1,1787.7000007629395,802378.8999996185,9017,NNB,A,0
0,test,5,1.0,2-Back,,,Wed May 07 2025 10:31:38 GMT-0400 (Eastern Daylight Time),804166.6000003815,050_m_f_n_a.png,I,space,1588,2,1,1787.7000007629395,802378.8999996185,9017,NNB,A,0
1,test,5,1.0,2-Back,1,z,Wed May 07 2025 10:31:38 GMT-0400 (Eastern Daylight Time),813216.5,041_y_m_n_a.png,I,z,1378,3,1,2387.800000190735,810828.6999998093,9017,NNB,A,1
2,test,5,1.0,2-Back,1,z,Wed May 07 2025 10:31:38 GMT-0400 (Eastern Daylight Time),815266.1999998093,050_m_f_n_a.png,I,z,1024,4,1,2035.3000001907349,813230.8999996185,9017,NNB,A,2
3,test,5,0.0,2-Back,1,m,Wed May 07 2025 10:31:38 GMT-0400 (Eastern Daylight Time),817399.8000001907,047_o_f_n_a.png,I,m,1104,5,1,2123.800000190735,815276.0,9017,NNB,A,3
3,test,5,0.0,2-Back,0,m,Wed May 07 2025 10:31:38 GMT-0400 (Eastern Daylight Time),819416.5,041_y_m_n_a.png,I,z,995,6,1,2003.3000001907349,817413.1999998093,9017,NNB,A,4
4,test,5,0.0,2-Back,1,m,Wed May 07 2025 10:31:38 GMT-0400 (Eastern Daylight Time),821466.5,010_y_f_n_a.png,I,m,1026,7,1,2037.1999998092651,819429.3000001907,9017,NNB,A,5
4,test,5,0.0,2-Back,0,m,Wed May 07 2025 10:31:38 GMT-0400 (Eastern Daylight Time),823533.0,047_o_f_n_a.png,I,z,1040,8,1,2053.3999996185303,821479.6000003815,9017,NNB,A,6
5,test,5,1.0,2-Back,1,z,Wed May 07 2025 10:31:38 GMT-0400 (Eastern Daylight Time),825466.3999996185,010_y_f_n_a.png,I,z,910,9,1,1920.1999998092651,823546.1999998093,9017,NNB,A,7
6,test,5,0.0,2-Back,1,m,Wed May 07 2025 10:31:38 GMT-0400 (Eastern Daylight Time),827283.0,046_o_m_n_a.png,I,m,784,10,1,1803.3999996185303,825479.6000003815,9017,NNB,A,8
7,test,5,0.0,2-Back,1,m,Wed May 07 2025 10:31:38 GMT-0400 (Eastern Daylight Time),829616.5,043_m_f_n_a.png,I,m,1303,11,1,2321.199999809265,827295.3000001907,9017,NNB,A,9
8,test,5,0.0,2-Back,1,m,Wed May 07 2025 10:31:38 GMT-0400 (Eastern Daylight Time),831883.0,058_m_m_n_a.png,I,m,1242,12,1,2252.6000003814697,829630.3999996185,9017,NNB,A,10
8,test,5,0.0,2-Back,0,m,Wed May 07 2025 10:31:38 GMT-0400 (Eastern Daylight Time),833799.8999996185,046_o_m_n_a.png,I,z,887,13,1,1903.6999998092651,831896.1999998093,9017,NNB,A,11
9,test,5,1.0,2-Back,1,z,Wed May 07 2025 10:31:38 GMT-0400 (Eastern Daylight Time),836266.3999996185,058_m_m_n_a.png,I,z,1443,14,1,2453.7999992370605,833812.6000003815,9017,NNB,A,12
10,test,5,0.0,2-Back,1,m,Wed May 07 2025 10:31:38 GMT-0400 (Eastern Daylight Time),838316.8999996185,063_y_f_n_a.png,I,m,1032,15,1,2037.2999992370605,836279.6000003815,9017,NNB,A,13
10,test,5,0.0,2-Back,0,m,Wed May 07 2025 10:31:38 GMT-0400 (Eastern Daylight Time),840766.1999998093,053_o_m_n_a.png,I,z,1431,16,1,2437.3999996185303,838328.8000001907,9017,NNB,A,14
10,test,5,0.0,2-Back,0,m,Wed May 07 2025 10:31:38 GMT-0400 (Eastern Daylight Time),842849.6999998093,043_m_f_n_a.png,I,z,1052,17,1,2071.0,840778.6999998093,9017,NNB,A,15
10,test,5,1.0,2-Back,0,z,Wed May 07 2025 10:31:38 GMT-0400 (Eastern Daylight Time),844733.1000003815,053_o_m_n_a.png,I,m,856,18,1,1870.0,842863.1000003815,9017,NNB,A,16
