acc_sum,block,block_c,change,condition,correct,correct_response,datetime,endtime,face,project,response,response_time,row_sel,session_number,start_end,starttime,subject_id,task,task_vers,trial
0,prac,1,,1-Back,,,Mon Nov 24 2025 10:02:51 GMT-0600 (Central Standard Time),,124_o_f_d_a.png,O,space,4159,1,1,,,7242,VNB,A,0
1,prac,1,0.0,1-Back,1.0,m,Mon Nov 24 2025 10:02:51 GMT-0600 (Central Standard Time),118344.19999998808,071_y_f_n_a.png,O,m,1137,2,1,1931.5999999940395,116412.59999999404,7242,VNB,A,1
2,prac,1,0.0,1-Back,1.0,m,Mon Nov 24 2025 10:02:51 GMT-0600 (Central Standard Time),120477.59999999404,165_m_m_h_a.png,O,m,1321,3,1,2125.7000000029802,118351.89999999106,7242,VNB,A,2
2,prac,1,0.0,1-Back,0.0,m,Mon Nov 24 2025 10:02:51 GMT-0600 (Central Standard Time),122262.19999998808,109_y_m_d_a.png,O,z,972,4,1,1773.5999999940395,120488.59999999404,7242,VNB,A,3
3,prac,1,0.0,1-Back,1.0,m,Mon Nov 24 2025 10:02:51 GMT-0600 (Central Standard Time),124062.29999999702,124_o_f_n_a.png,O,m,964,5,1,1787.2000000029802,122275.09999999404,7242,VNB,A,4
3,prac,1,1.0,1-Back,0.0,z,Mon Nov 24 2025 10:02:51 GMT-0600 (Central Standard Time),126144.39999999106,109_y_m_n_a.png,O,m,1264,6,1,2068.8999999910593,124075.5,7242,VNB,A,5
4,prac,1,0.0,1-Back,1.0,m,Mon Nov 24 2025 10:02:51 GMT-0600 (Central Standard Time),128109.69999998808,039_o_m_h_a.png,O,m,1153,7,1,1952.699999988079,126157.0,7242,VNB,A,6
5,prac,1,0.0,1-Back,1.0,m,Mon Nov 24 2025 10:02:51 GMT-0600 (Central Standard Time),129759.69999998808,139_m_f_d_a.png,O,m,851,8,1,1640.3999999910593,128119.29999999702,7242,VNB,A,7
5,prac,1,1.0,1-Back,0.0,z,Mon Nov 24 2025 10:02:51 GMT-0600 (Central Standard Time),131291.79999999702,071_y_f_d_a.png,O,m,732,9,1,1519.2999999970198,129772.5,7242,VNB,A,8
6,prac,1,0.0,1-Back,1.0,m,Mon Nov 24 2025 10:02:51 GMT-0600 (Central Standard Time),133094.39999999106,165_m_m_n_a.png,O,m,1000,10,1,1789.8999999910593,131304.5,7242,VNB,A,9
7,prac,1,0.0,1-Back,1.0,m,Mon Nov 24 2025 10:02:51 GMT-0600 (Central Standard Time),134775.69999998808,124_o_f_h_a.png,O,m,874,11,1,1671.7999999970198,133103.89999999106,7242,VNB,A,10
8,prac,1,0.0,1-Back,1.0,m,Mon Nov 24 2025 10:02:51 GMT-0600 (Central Standard Time),136259.0,109_y_m_d_a.png,O,m,716,12,1,1471.9000000059605,134787.09999999404,7242,VNB,A,11
0,test,1,0.0,1-Back,,,Mon Nov 24 2025 10:02:51 GMT-0600 (Central Standard Time),136259.0,071_y_f_d_a.png,O,space,3446,1,1,1471.9000000059605,134787.09999999404,7242,VNB,A,0
1,test,1,0.0,1-Back,1.0,m,Mon Nov 24 2025 10:02:51 GMT-0600 (Central Standard Time),150120.5,139_m_f_n_a.png,O,m,989,2,1,2015.5,148105.0,7242,VNB,A,1
2,test,1,0.0,1-Back,1.0,m,Mon Nov 24 2025 10:02:51 GMT-0600 (Central Standard Time),151987.19999998808,039_o_m_h_a.png,O,m,843,3,1,1855.2999999970198,150131.89999999106,7242,VNB,A,2
3,test,1,1.0,1-Back,1.0,z,Mon Nov 24 2025 10:02:51 GMT-0600 (Central Standard Time),153836.19999998808,165_m_m_h_a.png,O,z,829,4,1,1842.5,151993.69999998808,7242,VNB,A,3
4,test,1,0.0,1-Back,1.0,m,Mon Nov 24 2025 10:02:51 GMT-0600 (Central Standard Time),155751.79999999702,124_o_f_n_a.png,O,m,889,5,1,1905.9000000059605,153845.89999999106,7242,VNB,A,4
5,test,1,0.0,1-Back,1.0,m,Mon Nov 24 2025 10:02:51 GMT-0600 (Central Standard Time),157618.09999999404,109_y_m_d_a.png,O,m,833,6,1,1856.0999999940395,155762.0,7242,VNB,A,5
6,test,1,1.0,1-Back,1.0,z,Mon Nov 24 2025 10:02:51 GMT-0600 (Central Standard Time),159467.89999999106,139_m_f_d_a.png,O,z,827,7,1,1838.8999999910593,157629.0,7242,VNB,A,6
7,test,1,0.0,1-Back,1.0,m,Mon Nov 24 2025 10:02:51 GMT-0600 (Central Standard Time),161498.79999999702,071_y_f_h_a.png,O,m,1002,8,1,2019.1000000089407,159479.69999998808,7242,VNB,A,7
8,test,1,0.0,1-Back,1.0,m,Mon Nov 24 2025 10:02:51 GMT-0600 (Central Standard Time),163417.0,039_o_m_n_a.png,O,m,901,9,1,1908.6000000089407,161508.39999999106,7242,VNB,A,8
9,test,1,0.0,1-Back,1.0,m,Mon Nov 24 2025 10:02:51 GMT-0600 (Central Standard Time),165232.79999999702,109_y_m_h_a.png,O,m,796,10,1,1806.9000000059605,163425.89999999106,7242,VNB,A,9
10,test,1,0.0,1-Back,1.0,m,Mon Nov 24 2025 10:02:51 GMT-0600 (Central Standard Time),166999.89999999106,039_o_m_d_a.png,O,m,748,11,1,1758.5999999940395,165241.29999999702,7242,VNB,A,10
11,test,1,1.0,1-Back,1.0,z,Mon Nov 24 2025 10:02:51 GMT-0600 (Central Standard Time),169047.79999999702,124_o_f_d_a.png,O,z,1015,12,1,2040.5,167007.29999999702,7242,VNB,A,11
12,test,1,0.0,1-Back,1.0,m,Mon Nov 24 2025 10:02:51 GMT-0600 (Central Standard Time),171148.0,165_m_m_n_a.png,O,m,1079,13,1,2090.300000011921,169057.69999998808,7242,VNB,A,12
13,test,1,1.0,1-Back,1.0,z,Mon Nov 24 2025 10:02:51 GMT-0600 (Central Standard Time),173029.69999998808,071_y_f_n_a.png,O,z,857,14,1,1870.5,171159.19999998808,7242,VNB,A,13
14,test,1,0.0,1-Back,1.0,m,Mon Nov 24 2025 10:02:51 GMT-0600 (Central Standard Time),174811.89999999106,139_m_f_h_a.png,O,m,761,15,1,1771.7999999970198,173040.09999999404,7242,VNB,A,14
14,test,1,0.0,1-Back,0.0,m,Mon Nov 24 2025 10:02:51 GMT-0600 (Central Standard Time),176561.0,165_m_m_d_a.png,O,z,720,16,1,1739.300000011921,174821.69999998808,7242,VNB,A,15
15,test,1,0.0,1-Back,1.0,m,Mon Nov 24 2025 10:02:51 GMT-0600 (Central Standard Time),178477.39999999106,109_y_m_n_a.png,O,m,884,17,1,1904.2000000029802,176573.19999998808,7242,VNB,A,16
16,test,1,0.0,1-Back,1.0,m,Mon Nov 24 2025 10:02:51 GMT-0600 (Central Standard Time),180593.19999998808,124_o_f_h_a.png,O,m,1087,18,1,2105.2999999970198,178487.89999999106,7242,VNB,A,17
0,test,2,0.0,1-Back,,,Mon Nov 24 2025 10:02:51 GMT-0600 (Central Standard Time),180593.19999998808,109_y_m_n_a.png,O,space,1452,1,1,2105.2999999970198,178487.89999999106,7242,VNB,A,0
1,test,2,0.0,1-Back,1.0,m,Mon Nov 24 2025 10:02:51 GMT-0600 (Central Standard Time),185991.39999999106,071_y_f_h_a.png,O,m,896,2,1,1905.7999999970198,184085.59999999404,7242,VNB,A,1
2,test,2,1.0,1-Back,1.0,m,Mon Nov 24 2025 10:02:51 GMT-0600 (Central Standard Time),187891.19999998808,039_o_m_n_a.png,O,m,870,3,1,1890.2999999970198,186000.89999999106,7242,VNB,A,2
3,test,2,0.0,1-Back,1.0,m,Mon Nov 24 2025 10:02:51 GMT-0600 (Central Standard Time),189540.39999999106,139_m_f_d_a.png,O,m,626,4,1,1637.5,187902.89999999106,7242,VNB,A,3
4,test,2,0.0,1-Back,1.0,z,Mon Nov 24 2025 10:02:51 GMT-0600 (Central Standard Time),191640.5,165_m_m_d_a.png,O,z,1074,5,1,2090.300000011921,189550.19999998808,7242,VNB,A,4
5,test,2,0.0,1-Back,1.0,m,Mon Nov 24 2025 10:02:51 GMT-0600 (Central Standard Time),193089.89999999106,109_y_m_h_a.png,O,m,430,6,1,1438.8999999910593,191651.0,7242,VNB,A,5
6,test,2,1.0,1-Back,1.0,z,Mon Nov 24 2025 10:02:51 GMT-0600 (Central Standard Time),194989.19999998808,124_o_f_h_a.png,O,z,867,7,1,1889.8999999910593,193099.29999999702,7242,VNB,A,6
7,test,2,0.0,1-Back,1.0,m,Mon Nov 24 2025 10:02:51 GMT-0600 (Central Standard Time),196621.79999999702,139_m_f_n_a.png,O,m,600,8,1,1622.2999999970198,194999.5,7242,VNB,A,7
8,test,2,0.0,1-Back,1.0,m,Mon Nov 24 2025 10:02:51 GMT-0600 (Central Standard Time),199086.69999998808,071_y_f_d_a.png,O,m,1440,9,1,2453.5999999940395,196633.09999999404,7242,VNB,A,8
9,test,2,0.0,1-Back,1.0,m,Mon Nov 24 2025 10:02:51 GMT-0600 (Central Standard Time),200937.09999999404,165_m_m_n_a.png,O,m,830,10,1,1839.5,199097.59999999404,7242,VNB,A,9
10,test,2,1.0,1-Back,1.0,m,Mon Nov 24 2025 10:02:51 GMT-0600 (Central Standard Time),202737.89999999106,139_m_f_h_a.png,O,m,784,11,1,1790.0,200947.89999999106,7242,VNB,A,10
11,test,2,0.0,1-Back,1.0,z,Mon Nov 24 2025 10:02:51 GMT-0600 (Central Standard Time),204552.59999999404,039_o_m_h_a.png,O,z,789,12,1,1807.4000000059605,202745.19999998808,7242,VNB,A,11
12,test,2,0.0,1-Back,1.0,m,Mon Nov 24 2025 10:02:51 GMT-0600 (Central Standard Time),206185.0,109_y_m_d_a.png,O,m,601,13,1,1622.800000011921,204562.19999998808,7242,VNB,A,12
13,test,2,0.0,1-Back,1.0,m,Mon Nov 24 2025 10:02:51 GMT-0600 (Central Standard Time),208052.09999999404,124_o_f_n_a.png,O,m,835,14,1,1855.2000000029802,206196.89999999106,7242,VNB,A,13
13,test,2,0.0,1-Back,0.0,z,Mon Nov 24 2025 10:02:51 GMT-0600 (Central Standard Time),209904.0,071_y_f_n_a.png,O,m,836,15,1,1840.7000000029802,208063.29999999702,7242,VNB,A,14
14,test,2,1.0,1-Back,1.0,m,Mon Nov 24 2025 10:02:51 GMT-0600 (Central Standard Time),211617.59999999404,165_m_m_h_a.png,O,m,699,16,1,1703.0999999940395,209914.5,7242,VNB,A,15
15,test,2,0.0,1-Back,1.0,m,Mon Nov 24 2025 10:02:51 GMT-0600 (Central Standard Time),213266.5,124_o_f_d_a.png,O,m,628,17,1,1638.300000011921,211628.19999998808,7242,VNB,A,16
16,test,2,1.0,1-Back,1.0,z,Mon Nov 24 2025 10:02:51 GMT-0600 (Central Standard Time),215182.29999999702,039_o_m_d_a.png,O,z,899,18,1,1904.5,213277.79999999702,7242,VNB,A,17
0,test,3,1.0,1-Back,,,Mon Nov 24 2025 10:02:51 GMT-0600 (Central Standard Time),215182.29999999702,124_o_f_h_a.png,O,space,2223,1,1,1904.5,213277.79999999702,7242,VNB,A,0
1,test,3,0.0,1-Back,1.0,m,Mon Nov 24 2025 10:02:51 GMT-0600 (Central Standard Time),221397.19999998808,139_m_f_d_a.png,O,m,891,2,1,1906.3999999910593,219490.79999999702,7242,VNB,A,1
2,test,3,1.0,1-Back,1.0,m,Mon Nov 24 2025 10:02:51 GMT-0600 (Central Standard Time),223112.0,165_m_m_n_a.png,O,m,694,3,1,1708.1000000089407,221403.89999999106,7242,VNB,A,2
2,test,3,0.0,1-Back,0.0,z,Mon Nov 24 2025 10:02:51 GMT-0600 (Central Standard Time),225179.29999999702,124_o_f_n_a.png,O,m,1045,4,1,2060.1000000089407,223119.19999998808,7242,VNB,A,3
3,test,3,1.0,1-Back,1.0,m,Mon Nov 24 2025 10:02:51 GMT-0600 (Central Standard Time),227344.69999998808,039_o_m_d_a.png,O,m,1147,5,1,2157.5,225187.19999998808,7242,VNB,A,4
4,test,3,0.0,1-Back,1.0,m,Mon Nov 24 2025 10:02:51 GMT-0600 (Central Standard Time),229113.39999999106,071_y_f_h_a.png,O,m,751,6,1,1760.0999999940395,227353.29999999702,7242,VNB,A,5
5,test,3,0.0,1-Back,1.0,z,Mon Nov 24 2025 10:02:51 GMT-0600 (Central Standard Time),230828.79999999702,109_y_m_h_a.png,O,z,686,7,1,1705.5,229123.29999999702,7242,VNB,A,6
6,test,3,0.0,1-Back,1.0,m,Mon Nov 24 2025 10:02:51 GMT-0600 (Central Standard Time),232645.29999999702,139_m_f_n_a.png,O,m,794,8,1,1806.0,230839.29999999702,7242,VNB,A,7
7,test,3,0.0,1-Back,1.0,m,Mon Nov 24 2025 10:02:51 GMT-0600 (Central Standard Time),234225.09999999404,071_y_f_d_a.png,O,m,552,9,1,1569.5999999940395,232655.5,7242,VNB,A,8
8,test,3,1.0,1-Back,1.0,m,Mon Nov 24 2025 10:02:51 GMT-0600 (Central Standard Time),236092.79999999702,039_o_m_n_a.png,O,m,842,10,1,1861.7999999970198,234231.0,7242,VNB,A,9
9,test,3,0.0,1-Back,1.0,m,Mon Nov 24 2025 10:02:51 GMT-0600 (Central Standard Time),237859.09999999404,165_m_m_h_a.png,O,m,737,11,1,1759.0,236100.09999999404,7242,VNB,A,10
10,test,3,0.0,1-Back,1.0,z,Mon Nov 24 2025 10:02:51 GMT-0600 (Central Standard Time),239525.39999999106,139_m_f_h_a.png,O,z,643,12,1,1656.0,237869.39999999106,7242,VNB,A,11
11,test,3,1.0,1-Back,1.0,m,Mon Nov 24 2025 10:02:51 GMT-0600 (Central Standard Time),241224.5,124_o_f_d_a.png,O,m,672,13,1,1689.7000000029802,239534.79999999702,7242,VNB,A,12
12,test,3,0.0,1-Back,1.0,z,Mon Nov 24 2025 10:02:51 GMT-0600 (Central Standard Time),243074.39999999106,165_m_m_d_a.png,O,z,816,14,1,1839.2999999970198,241235.09999999404,7242,VNB,A,13
13,test,3,0.0,1-Back,1.0,m,Mon Nov 24 2025 10:02:51 GMT-0600 (Central Standard Time),244623.69999998808,109_y_m_n_a.png,O,m,523,15,1,1540.3999999910593,243083.29999999702,7242,VNB,A,14
14,test,3,1.0,1-Back,1.0,m,Mon Nov 24 2025 10:02:51 GMT-0600 (Central Standard Time),246224.39999999106,039_o_m_h_a.png,O,m,574,16,1,1592.2999999970198,244632.09999999404,7242,VNB,A,15
15,test,3,0.0,1-Back,1.0,m,Mon Nov 24 2025 10:02:51 GMT-0600 (Central Standard Time),248072.69999998808,109_y_m_d_a.png,O,m,821,17,1,1838.7999999970198,246233.89999999106,7242,VNB,A,16
16,test,3,1.0,1-Back,1.0,m,Mon Nov 24 2025 10:02:51 GMT-0600 (Central Standard Time),249655.39999999106,071_y_f_n_a.png,O,m,557,18,1,1573.2000000029802,248082.19999998808,7242,VNB,A,17
0,test,4,1.0,1-Back,,,Mon Nov 24 2025 10:02:51 GMT-0600 (Central Standard Time),249655.39999999106,165_m_m_d_a.png,O,space,2023,1,1,1573.2000000029802,248082.19999998808,7242,VNB,A,0
1,test,4,0.0,1-Back,1.0,z,Mon Nov 24 2025 10:02:51 GMT-0600 (Central Standard Time),255270.89999999106,039_o_m_d_a.png,O,z,550,2,1,1554.3999999910593,253716.5,7242,VNB,A,1
2,test,4,0.0,1-Back,1.0,m,Mon Nov 24 2025 10:02:51 GMT-0600 (Central Standard Time),256685.39999999106,109_y_m_h_a.png,O,m,383,3,1,1405.0999999940395,255280.29999999702,7242,VNB,A,2
3,test,4,0.0,1-Back,1.0,m,Mon Nov 24 2025 10:02:51 GMT-0600 (Central Standard Time),258269.39999999106,139_m_f_n_a.png,O,m,550,4,1,1574.7000000029802,256694.69999998808,7242,VNB,A,3
3,test,4,1.0,1-Back,0.0,m,Mon Nov 24 2025 10:02:51 GMT-0600 (Central Standard Time),260302.5,124_o_f_h_a.png,O,z,1015,5,1,2021.4000000059605,258281.09999999404,7242,VNB,A,4
4,test,4,0.0,1-Back,1.0,m,Mon Nov 24 2025 10:02:51 GMT-0600 (Central Standard Time),261934.89999999106,165_m_m_n_a.png,O,m,616,6,1,1621.5,260313.39999999106,7242,VNB,A,5
5,test,4,0.0,1-Back,1.0,m,Mon Nov 24 2025 10:02:51 GMT-0600 (Central Standard Time),264000.39999999106,109_y_m_d_a.png,O,m,1038,7,1,2055.3999999910593,261945.0,7242,VNB,A,6
6,test,4,1.0,1-Back,1.0,z,Mon Nov 24 2025 10:02:51 GMT-0600 (Central Standard Time),265866.299999997,071_y_f_d_a.png,O,z,837,8,1,1855.5,264010.799999997,7242,VNB,A,7
7,test,4,0.0,1-Back,1.0,m,Mon Nov 24 2025 10:02:51 GMT-0600 (Central Standard Time),267415.6999999881,139_m_f_h_a.png,O,m,532,9,1,1539.3999999910593,265876.299999997,7242,VNB,A,8
7,test,4,0.0,1-Back,0.0,z,Mon Nov 24 2025 10:02:51 GMT-0600 (Central Standard Time),269548.39999999106,039_o_m_h_a.png,O,m,1102,10,1,2121.5,267426.89999999106,7242,VNB,A,9
8,test,4,1.0,1-Back,1.0,m,Mon Nov 24 2025 10:02:51 GMT-0600 (Central Standard Time),271147.1999999881,124_o_f_n_a.png,O,m,576,11,1,1586.199999988079,269561.0,7242,VNB,A,10
9,test,4,0.0,1-Back,1.0,m,Mon Nov 24 2025 10:02:51 GMT-0600 (Central Standard Time),272812.6999999881,139_m_f_d_a.png,O,m,632,12,1,1654.0,271158.6999999881,7242,VNB,A,11
10,test,4,0.0,1-Back,1.0,m,Mon Nov 24 2025 10:02:51 GMT-0600 (Central Standard Time),274496.59999999404,071_y_f_n_a.png,O,m,663,13,1,1676.0999999940395,272820.5,7242,VNB,A,12
11,test,4,0.0,1-Back,1.0,m,Mon Nov 24 2025 10:02:51 GMT-0600 (Central Standard Time),276047.1999999881,124_o_f_d_a.png,O,m,533,14,1,1539.0,274508.1999999881,7242,VNB,A,13
12,test,4,0.0,1-Back,1.0,m,Mon Nov 24 2025 10:02:51 GMT-0600 (Central Standard Time),277679.1999999881,071_y_f_h_a.png,O,m,615,15,1,1622.0,276057.1999999881,7242,VNB,A,14
12,test,4,1.0,1-Back,0.0,z,Mon Nov 24 2025 10:02:51 GMT-0600 (Central Standard Time),279245.39999999106,165_m_m_h_a.png,O,m,541,16,1,1556.7999999970198,277688.59999999404,7242,VNB,A,15
13,test,4,0.0,1-Back,1.0,m,Mon Nov 24 2025 10:02:51 GMT-0600 (Central Standard Time),281061.39999999106,039_o_m_n_a.png,O,m,783,17,1,1805.0,279256.39999999106,7242,VNB,A,16
14,test,4,1.0,1-Back,1.0,z,Mon Nov 24 2025 10:02:51 GMT-0600 (Central Standard Time),283027.6999999881,109_y_m_n_a.png,O,z,943,18,1,1954.199999988079,281073.5,7242,VNB,A,17
0,test,5,1.0,1-Back,,,Mon Nov 24 2025 10:02:51 GMT-0600 (Central Standard Time),283027.6999999881,039_o_m_n_a.png,O,space,3178,1,1,1954.199999988079,281073.5,7242,VNB,A,0
1,test,5,1.0,1-Back,1.0,m,Mon Nov 24 2025 10:02:51 GMT-0600 (Central Standard Time),289876.09999999404,124_o_f_h_a.png,O,m,628,2,1,1637.9000000059605,288238.1999999881,7242,VNB,A,1
2,test,5,0.0,1-Back,1.0,m,Mon Nov 24 2025 10:02:51 GMT-0600 (Central Standard Time),291558.799999997,109_y_m_d_a.png,O,m,667,3,1,1673.4000000059605,289885.39999999106,7242,VNB,A,2
3,test,5,0.0,1-Back,1.0,z,Mon Nov 24 2025 10:02:51 GMT-0600 (Central Standard Time),294207.09999999404,039_o_m_d_a.png,O,z,1632,4,1,2639.5,291567.59999999404,7242,VNB,A,3
4,test,5,0.0,1-Back,1.0,m,Mon Nov 24 2025 10:02:51 GMT-0600 (Central Standard Time),295755.89999999106,139_m_f_h_a.png,O,m,526,5,1,1538.7999999970198,294217.09999999404,7242,VNB,A,4
5,test,5,0.0,1-Back,1.0,m,Mon Nov 24 2025 10:02:51 GMT-0600 (Central Standard Time),297290.89999999106,071_y_f_n_a.png,O,m,513,6,1,1525.7000000029802,295765.1999999881,7242,VNB,A,5
6,test,5,1.0,1-Back,1.0,z,Mon Nov 24 2025 10:02:51 GMT-0600 (Central Standard Time),299489.299999997,124_o_f_n_a.png,O,z,1171,7,1,2188.5,297300.799999997,7242,VNB,A,6
7,test,5,0.0,1-Back,1.0,m,Mon Nov 24 2025 10:02:51 GMT-0600 (Central Standard Time),301087.59999999404,139_m_f_d_a.png,O,m,582,8,1,1586.0999999940395,299501.5,7242,VNB,A,7
8,test,5,0.0,1-Back,1.0,m,Mon Nov 24 2025 10:02:51 GMT-0600 (Central Standard Time),302972.1999999881,109_y_m_h_a.png,O,m,863,9,1,1876.5,301095.6999999881,7242,VNB,A,8
9,test,5,0.0,1-Back,1.0,m,Mon Nov 24 2025 10:02:51 GMT-0600 (Central Standard Time),304604.1999999881,071_y_f_d_a.png,O,m,602,10,1,1620.8999999910593,302983.299999997,7242,VNB,A,9
10,test,5,0.0,1-Back,1.0,m,Mon Nov 24 2025 10:02:51 GMT-0600 (Central Standard Time),306186.89999999106,165_m_m_n_a.png,O,m,560,11,1,1572.0,304614.89999999106,7242,VNB,A,10
10,test,5,1.0,1-Back,0.0,z,Mon Nov 24 2025 10:02:51 GMT-0600 (Central Standard Time),307653.299999997,139_m_f_n_a.png,O,m,435,12,1,1457.7999999970198,306195.5,7242,VNB,A,11
11,test,5,0.0,1-Back,1.0,m,Mon Nov 24 2025 10:02:51 GMT-0600 (Central Standard Time),309219.6999999881,039_o_m_h_a.png,O,m,544,13,1,1555.699999988079,307664.0,7242,VNB,A,12
11,test,5,0.0,1-Back,0.0,z,Mon Nov 24 2025 10:02:51 GMT-0600 (Central Standard Time),310786.299999997,165_m_m_h_a.png,O,m,537,14,1,1555.6000000089407,309230.6999999881,7242,VNB,A,13
12,test,5,1.0,1-Back,1.0,m,Mon Nov 24 2025 10:02:51 GMT-0600 (Central Standard Time),312418.39999999106,124_o_f_d_a.png,O,m,603,15,1,1620.0999999940395,310798.299999997,7242,VNB,A,14
13,test,5,0.0,1-Back,1.0,m,Mon Nov 24 2025 10:02:51 GMT-0600 (Central Standard Time),314534.09999999404,109_y_m_n_a.png,O,m,1090,16,1,2105.0999999940395,312429.0,7242,VNB,A,15
14,test,5,0.0,1-Back,1.0,m,Mon Nov 24 2025 10:02:51 GMT-0600 (Central Standard Time),316249.39999999106,071_y_f_h_a.png,O,m,687,17,1,1704.2000000029802,314545.1999999881,7242,VNB,A,16
15,test,5,0.0,1-Back,1.0,m,Mon Nov 24 2025 10:02:51 GMT-0600 (Central Standard Time),318049.59999999404,165_m_m_d_a.png,O,m,780,18,1,1789.5999999940395,316260.0,7242,VNB,A,17
0,prac,1,0.0,2-Back,,,Mon Nov 24 2025 10:02:51 GMT-0600 (Central Standard Time),318049.59999999404,139_m_f_n_a.png,O,space,3809,1,1,1789.5999999940395,316260.0,7242,VNB,A,0
0,prac,1,0.0,2-Back,,,Mon Nov 24 2025 10:02:51 GMT-0600 (Central Standard Time),318049.59999999404,124_o_f_h_a.png,O,space,3809,2,1,1789.5999999940395,316260.0,7242,VNB,A,0
1,prac,1,0.0,2-Back,1.0,m,Mon Nov 24 2025 10:02:51 GMT-0600 (Central Standard Time),430364.1999999881,039_o_m_d_a.png,O,m,1149,3,1,1954.0999999940395,428410.09999999404,7242,VNB,A,1
2,prac,1,1.0,2-Back,1.0,z,Mon Nov 24 2025 10:02:51 GMT-0600 (Central Standard Time),432216.0,165_m_m_h_a.png,O,z,1047,4,1,1840.4000000059605,430375.59999999404,7242,VNB,A,2
3,prac,1,0.0,2-Back,1.0,m,Mon Nov 24 2025 10:02:51 GMT-0600 (Central Standard Time),433864.799999997,071_y_f_n_a.png,O,m,860,5,1,1636.7999999970198,432228.0,7242,VNB,A,3
3,prac,1,1.0,2-Back,0.0,z,Mon Nov 24 2025 10:02:51 GMT-0600 (Central Standard Time),435545.89999999106,039_o_m_h_a.png,O,m,870,6,1,1671.7999999970198,433874.09999999404,7242,VNB,A,4
3,prac,1,1.0,2-Back,0.0,z,Mon Nov 24 2025 10:02:51 GMT-0600 (Central Standard Time),437377.89999999106,109_y_m_n_a.png,O,m,1011,7,1,1820.7999999970198,435557.09999999404,7242,VNB,A,5
4,prac,1,0.0,2-Back,1.0,m,Mon Nov 24 2025 10:02:51 GMT-0600 (Central Standard Time),439211.59999999404,139_m_f_d_a.png,O,m,1016,8,1,1821.5999999940395,437390.0,7242,VNB,A,6
5,prac,1,0.0,2-Back,1.0,m,Mon Nov 24 2025 10:02:51 GMT-0600 (Central Standard Time),441344.1999999881,124_o_f_d_a.png,O,m,1291,9,1,2120.5,439223.6999999881,7242,VNB,A,7
5,prac,1,0.0,2-Back,0.0,m,Mon Nov 24 2025 10:02:51 GMT-0600 (Central Standard Time),443009.39999999106,165_m_m_h_a.png,O,z,874,10,1,1654.0999999940395,441355.299999997,7242,VNB,A,8
5,prac,1,1.0,2-Back,0.0,z,Mon Nov 24 2025 10:02:51 GMT-0600 (Central Standard Time),444560.1999999881,071_y_f_d_a.png,O,m,741,11,1,1539.2999999970198,443020.89999999106,7242,VNB,A,9
5,prac,1,0.0,2-Back,0.0,m,Mon Nov 24 2025 10:02:51 GMT-0600 (Central Standard Time),447027.59999999404,039_o_m_n_a.png,O,z,1669,12,1,2455.2000000029802,444572.39999999106,7242,VNB,A,10
0,prac,2,0.0,2-Back,,,Mon Nov 24 2025 10:02:51 GMT-0600 (Central Standard Time),447027.59999999404,139_m_f_n_a.png,O,a,8246,1,1,2455.2000000029802,444572.39999999106,7242,VNB,A,0
0,prac,2,0.0,2-Back,,,Mon Nov 24 2025 10:02:51 GMT-0600 (Central Standard Time),447027.59999999404,124_o_f_h_a.png,O,a,8246,2,1,2455.2000000029802,444572.39999999106,7242,VNB,A,0
1,prac,2,0.0,2-Back,1.0,m,Mon Nov 24 2025 10:02:51 GMT-0600 (Central Standard Time),462239.0,039_o_m_d_a.png,O,m,1049,3,1,1821.0,460418.0,7242,VNB,A,1
2,prac,2,1.0,2-Back,1.0,z,Mon Nov 24 2025 10:02:51 GMT-0600 (Central Standard Time),463737.89999999106,165_m_m_h_a.png,O,z,715,4,1,1486.8999999910593,462251.0,7242,VNB,A,2
3,prac,2,0.0,2-Back,1.0,m,Mon Nov 24 2025 10:02:51 GMT-0600 (Central Standard Time),466070.59999999404,071_y_f_n_a.png,O,m,1534,5,1,2322.5,463748.09999999404,7242,VNB,A,3
4,prac,2,1.0,2-Back,1.0,z,Mon Nov 24 2025 10:02:51 GMT-0600 (Central Standard Time),467969.39999999106,039_o_m_h_a.png,O,z,1087,6,1,1887.5999999940395,466081.799999997,7242,VNB,A,4
4,prac,2,1.0,2-Back,0.0,z,Mon Nov 24 2025 10:02:51 GMT-0600 (Central Standard Time),470068.59999999404,109_y_m_n_a.png,O,m,1281,7,1,2088.5999999940395,467980.0,7242,VNB,A,5
4,prac,2,0.0,2-Back,0.0,m,Mon Nov 24 2025 10:02:51 GMT-0600 (Central Standard Time),471934.6999999881,139_m_f_d_a.png,O,z,1069,8,1,1854.3999999910593,470080.299999997,7242,VNB,A,6
5,prac,2,0.0,2-Back,1.0,m,Mon Nov 24 2025 10:02:51 GMT-0600 (Central Standard Time),473950.6999999881,124_o_f_d_a.png,O,m,1189,9,1,2004.2999999970198,471946.39999999106,7242,VNB,A,7
6,prac,2,0.0,2-Back,1.0,m,Mon Nov 24 2025 10:02:51 GMT-0600 (Central Standard Time),476084.1999999881,165_m_m_h_a.png,O,m,1340,10,1,2121.2999999970198,473962.89999999106,7242,VNB,A,8
6,prac,2,1.0,2-Back,0.0,z,Mon Nov 24 2025 10:02:51 GMT-0600 (Central Standard Time),477601.0,071_y_f_d_a.png,O,m,729,11,1,1503.1000000089407,476097.89999999106,7242,VNB,A,9
6,prac,2,0.0,2-Back,0.0,m,Mon Nov 24 2025 10:02:51 GMT-0600 (Central Standard Time),479383.799999997,039_o_m_n_a.png,O,z,987,12,1,1767.9000000059605,477615.89999999106,7242,VNB,A,10
0,test,1,0.0,2-Back,,,Mon Nov 24 2025 10:02:51 GMT-0600 (Central Standard Time),479383.799999997,109_y_m_h_a.png,O,space,3545,1,1,1767.9000000059605,477615.89999999106,7242,VNB,A,0
0,test,1,0.0,2-Back,,,Mon Nov 24 2025 10:02:51 GMT-0600 (Central Standard Time),479383.799999997,124_o_f_n_a.png,O,space,3545,2,1,1767.9000000059605,477615.89999999106,7242,VNB,A,0
1,test,1,0.0,2-Back,1.0,z,Mon Nov 24 2025 10:02:51 GMT-0600 (Central Standard Time),497410.5,039_o_m_h_a.png,O,z,1089,3,1,2111.0,495299.5,7242,VNB,A,1
2,test,1,0.0,2-Back,1.0,m,Mon Nov 24 2025 10:02:51 GMT-0600 (Central Standard Time),499426.1999999881,139_m_f_d_a.png,O,m,989,4,1,2004.7999999970198,497421.39999999106,7242,VNB,A,2
2,test,1,1.0,2-Back,0.0,m,Mon Nov 24 2025 10:02:51 GMT-0600 (Central Standard Time),502457.799999997,109_y_m_n_a.png,O,None,2016,5,1,3021.1000000089407,499436.6999999881,7242,VNB,A,3
2,test,1,0.0,2-Back,0.0,z,Mon Nov 24 2025 10:02:51 GMT-0600 (Central Standard Time),504232.39999999106,071_y_f_d_a.png,O,m,749,6,1,1764.8999999910593,502467.5,7242,VNB,A,4
2,test,1,0.0,2-Back,0.0,m,Mon Nov 24 2025 10:02:51 GMT-0600 (Central Standard Time),506640.59999999404,165_m_m_h_a.png,O,z,1388,7,1,2401.5,504239.09999999404,7242,VNB,A,5
3,test,1,1.0,2-Back,1.0,m,Mon Nov 24 2025 10:02:51 GMT-0600 (Central Standard Time),508256.59999999404,071_y_f_n_a.png,O,m,598,8,1,1605.7000000029802,506650.89999999106,7242,VNB,A,6
3,test,1,0.0,2-Back,0.0,z,Mon Nov 24 2025 10:02:51 GMT-0600 (Central Standard Time),510305.6999999881,124_o_f_h_a.png,O,m,1022,9,1,2040.0,508265.6999999881,7242,VNB,A,7
3,test,1,0.0,2-Back,0.0,m,Mon Nov 24 2025 10:02:51 GMT-0600 (Central Standard Time),513271.1999999881,039_o_m_d_a.png,O,z,1948,10,1,2955.2999999970198,510315.89999999106,7242,VNB,A,8
4,test,1,1.0,2-Back,1.0,m,Mon Nov 24 2025 10:02:51 GMT-0600 (Central Standard Time),514671.5,165_m_m_d_a.png,O,m,376,11,1,1391.1000000089407,513280.39999999106,7242,VNB,A,9
5,test,1,0.0,2-Back,1.0,m,Mon Nov 24 2025 10:02:51 GMT-0600 (Central Standard Time),516870.59999999404,139_m_f_n_a.png,O,m,1167,12,1,2186.7999999970198,514683.799999997,7242,VNB,A,10
6,test,1,0.0,2-Back,1.0,m,Mon Nov 24 2025 10:02:51 GMT-0600 (Central Standard Time),519422.299999997,071_y_f_h_a.png,O,m,1525,13,1,2540.7999999970198,516881.5,7242,VNB,A,11
7,test,1,0.0,2-Back,1.0,z,Mon Nov 24 2025 10:02:51 GMT-0600 (Central Standard Time),520984.6999999881,165_m_m_n_a.png,O,z,539,14,1,1554.199999988079,519430.5,7242,VNB,A,12
8,test,1,0.0,2-Back,1.0,m,Mon Nov 24 2025 10:02:51 GMT-0600 (Central Standard Time),522353.0,109_y_m_d_a.png,O,m,347,15,1,1355.7000000029802,520997.299999997,7242,VNB,A,13
9,test,1,1.0,2-Back,1.0,m,Mon Nov 24 2025 10:02:51 GMT-0600 (Central Standard Time),523884.299999997,139_m_f_h_a.png,O,m,507,16,1,1521.5,522362.799999997,7242,VNB,A,14
10,test,1,0.0,2-Back,1.0,z,Mon Nov 24 2025 10:02:51 GMT-0600 (Central Standard Time),525884.3999999911,124_o_f_d_a.png,O,z,977,17,1,1988.5999999940395,523895.799999997,7242,VNB,A,15
11,test,1,0.0,2-Back,1.0,m,Mon Nov 24 2025 10:02:51 GMT-0600 (Central Standard Time),527666.799999997,039_o_m_n_a.png,O,m,754,18,1,1770.7999999970198,525896.0,7242,VNB,A,16
0,test,2,0.0,2-Back,,,Mon Nov 24 2025 10:02:51 GMT-0600 (Central Standard Time),527666.799999997,165_m_m_h_a.png,O,space,2882,1,1,1770.7999999970198,525896.0,7242,VNB,A,0
0,test,2,0.0,2-Back,,,Mon Nov 24 2025 10:02:51 GMT-0600 (Central Standard Time),527666.799999997,071_y_f_n_a.png,O,space,2882,2,1,1770.7999999970198,525896.0,7242,VNB,A,0
1,test,2,1.0,2-Back,1.0,z,Mon Nov 24 2025 10:02:51 GMT-0600 (Central Standard Time),538412.8999999911,124_o_f_h_a.png,O,z,1759,3,1,2771.5999999940395,535641.299999997,7242,VNB,A,1
2,test,2,0.0,2-Back,1.0,m,Mon Nov 24 2025 10:02:51 GMT-0600 (Central Standard Time),540163.099999994,039_o_m_d_a.png,O,m,720,4,1,1738.5999999940395,538424.5,7242,VNB,A,2
3,test,2,0.0,2-Back,1.0,m,Mon Nov 24 2025 10:02:51 GMT-0600 (Central Standard Time),542012.5,139_m_f_d_a.png,O,m,826,5,1,1838.5,540174.0,7242,VNB,A,3
3,test,2,0.0,2-Back,0.0,m,Mon Nov 24 2025 10:02:51 GMT-0600 (Central Standard Time),544279.099999994,109_y_m_h_a.png,O,z,1232,6,1,2256.7999999970198,542022.299999997,7242,VNB,A,4
4,test,2,0.0,2-Back,1.0,m,Mon Nov 24 2025 10:02:51 GMT-0600 (Central Standard Time),545713.3999999911,124_o_f_n_a.png,O,m,398,7,1,1423.5,544289.8999999911,7242,VNB,A,5
4,test,2,1.0,2-Back,0.0,z,Mon Nov 24 2025 10:02:51 GMT-0600 (Central Standard Time),547027.6999999881,039_o_m_h_a.png,O,m,285,8,1,1303.699999988079,545724.0,7242,VNB,A,6
5,test,2,0.0,2-Back,1.0,m,Mon Nov 24 2025 10:02:51 GMT-0600 (Central Standard Time),549843.6999999881,071_y_f_d_a.png,O,m,1795,9,1,2805.7999999970198,547037.8999999911,7242,VNB,A,7
6,test,2,0.0,2-Back,1.0,m,Mon Nov 24 2025 10:02:51 GMT-0600 (Central Standard Time),551875.099999994,109_y_m_d_a.png,O,m,1008,10,1,2022.4000000059605,549852.6999999881,7242,VNB,A,8
6,test,2,0.0,2-Back,0.0,m,Mon Nov 24 2025 10:02:51 GMT-0600 (Central Standard Time),553691.599999994,165_m_m_n_a.png,O,z,793,11,1,1809.4000000059605,551882.1999999881,7242,VNB,A,9
7,test,2,0.0,2-Back,1.0,m,Mon Nov 24 2025 10:02:51 GMT-0600 (Central Standard Time),555073.299999997,139_m_f_h_a.png,O,m,354,12,1,1375.1000000089407,553698.1999999881,7242,VNB,A,10
7,test,2,1.0,2-Back,0.0,z,Mon Nov 24 2025 10:02:51 GMT-0600 (Central Standard Time),556392.1999999881,039_o_m_n_a.png,O,m,283,13,1,1310.7999999970198,555081.3999999911,7242,VNB,A,11
8,test,2,0.0,2-Back,1.0,m,Mon Nov 24 2025 10:02:51 GMT-0600 (Central Standard Time),557824.299999997,124_o_f_d_a.png,O,m,407,14,1,1421.2999999970198,556403.0,7242,VNB,A,12
8,test,2,0.0,2-Back,0.0,m,Mon Nov 24 2025 10:02:51 GMT-0600 (Central Standard Time),559323.599999994,071_y_f_h_a.png,O,z,469,15,1,1487.2999999970198,557836.299999997,7242,VNB,A,13
8,test,2,0.0,2-Back,0.0,z,Mon Nov 24 2025 10:02:51 GMT-0600 (Central Standard Time),560922.8999999911,165_m_m_d_a.png,O,m,571,16,1,1587.2999999970198,559335.599999994,7242,VNB,A,14
9,test,2,0.0,2-Back,1.0,m,Mon Nov 24 2025 10:02:51 GMT-0600 (Central Standard Time),562857.299999997,109_y_m_n_a.png,O,m,916,17,1,1923.5,560933.799999997,7242,VNB,A,15
10,test,2,1.0,2-Back,1.0,m,Mon Nov 24 2025 10:02:51 GMT-0600 (Central Standard Time),564521.599999994,139_m_f_n_a.png,O,m,637,18,1,1654.5999999940395,562867.0,7242,VNB,A,16
0,test,3,1.0,2-Back,,,Mon Nov 24 2025 10:02:51 GMT-0600 (Central Standard Time),564521.599999994,039_o_m_n_a.png,O,space,4868,1,1,1654.5999999940395,562867.0,7242,VNB,A,0
0,test,3,1.0,2-Back,,,Mon Nov 24 2025 10:02:51 GMT-0600 (Central Standard Time),564521.599999994,124_o_f_d_a.png,O,space,4868,2,1,1654.5999999940395,562867.0,7242,VNB,A,0
1,test,3,0.0,2-Back,1.0,m,Mon Nov 24 2025 10:02:51 GMT-0600 (Central Standard Time),576250.799999997,071_y_f_h_a.png,O,m,776,3,1,1786.6000000089407,574464.1999999881,7242,VNB,A,1
2,test,3,0.0,2-Back,1.0,z,Mon Nov 24 2025 10:02:51 GMT-0600 (Central Standard Time),578301.0,139_m_f_d_a.png,O,z,1025,4,1,2040.7000000029802,576260.299999997,7242,VNB,A,2
3,test,3,1.0,2-Back,1.0,m,Mon Nov 24 2025 10:02:51 GMT-0600 (Central Standard Time),580232.799999997,109_y_m_n_a.png,O,m,905,5,1,1924.0,578308.799999997,7242,VNB,A,3
3,test,3,0.0,2-Back,0.0,m,Mon Nov 24 2025 10:02:51 GMT-0600 (Central Standard Time),582681.599999994,039_o_m_h_a.png,O,z,1421,6,1,2438.7999999970198,580242.799999997,7242,VNB,A,4
3,test,3,0.0,2-Back,0.0,z,Mon Nov 24 2025 10:02:51 GMT-0600 (Central Standard Time),584282.799999997,071_y_f_n_a.png,O,m,572,7,1,1593.9000000059605,582688.8999999911,7242,VNB,A,5
4,test,3,1.0,2-Back,1.0,m,Mon Nov 24 2025 10:02:51 GMT-0600 (Central Standard Time),585865.0,165_m_m_d_a.png,O,m,556,8,1,1573.7000000029802,584291.299999997,7242,VNB,A,6
5,test,3,0.0,2-Back,1.0,m,Mon Nov 24 2025 10:02:51 GMT-0600 (Central Standard Time),587747.0,109_y_m_d_a.png,O,m,862,9,1,1873.0,585874.0,7242,VNB,A,7
6,test,3,0.0,2-Back,1.0,m,Mon Nov 24 2025 10:02:51 GMT-0600 (Central Standard Time),589798.0,124_o_f_h_a.png,O,m,1019,10,1,2041.1000000089407,587756.8999999911,7242,VNB,A,8
6,test,3,1.0,2-Back,0.0,m,Mon Nov 24 2025 10:02:51 GMT-0600 (Central Standard Time),592162.1999999881,139_m_f_n_a.png,O,z,1336,11,1,2352.5,589809.6999999881,7242,VNB,A,9
6,test,3,1.0,2-Back,0.0,z,Mon Nov 24 2025 10:02:51 GMT-0600 (Central Standard Time),593961.8999999911,165_m_m_h_a.png,O,m,781,12,1,1789.3999999910593,592172.5,7242,VNB,A,10
7,test,3,0.0,2-Back,1.0,m,Mon Nov 24 2025 10:02:51 GMT-0600 (Central Standard Time),596444.6999999881,071_y_f_d_a.png,O,m,1451,13,1,2472.5,593972.1999999881,7242,VNB,A,11
7,test,3,0.0,2-Back,0.0,m,Mon Nov 24 2025 10:02:51 GMT-0600 (Central Standard Time),599477.3999999911,124_o_f_n_a.png,O,None,2014,14,1,3021.0999999940395,596456.299999997,7242,VNB,A,12
8,test,3,0.0,2-Back,1.0,z,Mon Nov 24 2025 10:02:51 GMT-0600 (Central Standard Time),601426.599999994,039_o_m_d_a.png,O,z,921,15,1,1939.5,599487.099999994,7242,VNB,A,13
9,test,3,1.0,2-Back,1.0,m,Mon Nov 24 2025 10:02:51 GMT-0600 (Central Standard Time),603494.099999994,139_m_f_h_a.png,O,m,1034,16,1,2057.0999999940395,601437.0,7242,VNB,A,14
10,test,3,0.0,2-Back,1.0,m,Mon Nov 24 2025 10:02:51 GMT-0600 (Central Standard Time),606225.1999999881,165_m_m_n_a.png,O,m,1702,17,1,2721.0,603504.1999999881,7242,VNB,A,15
11,test,3,0.0,2-Back,1.0,z,Mon Nov 24 2025 10:02:51 GMT-0600 (Central Standard Time),607893.099999994,109_y_m_h_a.png,O,z,636,18,1,1658.7000000029802,606234.3999999911,7242,VNB,A,16
0,test,4,0.0,2-Back,,,Mon Nov 24 2025 10:02:51 GMT-0600 (Central Standard Time),607893.099999994,139_m_f_n_a.png,O,space,3547,1,1,1658.7000000029802,606234.3999999911,7242,VNB,A,0
0,test,4,0.0,2-Back,,,Mon Nov 24 2025 10:02:51 GMT-0600 (Central Standard Time),607893.099999994,039_o_m_n_a.png,O,space,3547,2,1,1658.7000000029802,606234.3999999911,7242,VNB,A,0
1,test,4,1.0,2-Back,1.0,m,Mon Nov 24 2025 10:02:51 GMT-0600 (Central Standard Time),618387.799999997,109_y_m_h_a.png,O,m,861,3,1,1869.2999999970198,616518.5,7242,VNB,A,1
2,test,4,1.0,2-Back,1.0,m,Mon Nov 24 2025 10:02:51 GMT-0600 (Central Standard Time),620404.299999997,124_o_f_d_a.png,O,m,985,4,1,2006.5,618397.799999997,7242,VNB,A,2
3,test,4,0.0,2-Back,1.0,z,Mon Nov 24 2025 10:02:51 GMT-0600 (Central Standard Time),622386.0,039_o_m_h_a.png,O,z,961,5,1,1970.6000000089407,620415.3999999911,7242,VNB,A,3
4,test,4,0.0,2-Back,1.0,m,Mon Nov 24 2025 10:02:51 GMT-0600 (Central Standard Time),624085.599999994,165_m_m_n_a.png,O,m,676,6,1,1689.5,622396.099999994,7242,VNB,A,4
5,test,4,0.0,2-Back,1.0,m,Mon Nov 24 2025 10:02:51 GMT-0600 (Central Standard Time),625684.799999997,139_m_f_d_a.png,O,m,575,7,1,1588.0,624096.799999997,7242,VNB,A,5
6,test,4,0.0,2-Back,1.0,z,Mon Nov 24 2025 10:02:51 GMT-0600 (Central Standard Time),627402.1999999881,071_y_f_n_a.png,O,z,699,8,1,1706.699999988079,625695.5,7242,VNB,A,6
7,test,4,1.0,2-Back,1.0,m,Mon Nov 24 2025 10:02:51 GMT-0600 (Central Standard Time),630217.1999999881,124_o_f_h_a.png,O,m,1789,9,1,2802.699999988079,627414.5,7242,VNB,A,7
8,test,4,0.0,2-Back,1.0,m,Mon Nov 24 2025 10:02:51 GMT-0600 (Central Standard Time),632933.0,165_m_m_h_a.png,O,m,1693,10,1,2706.6000000089407,630226.3999999911,7242,VNB,A,8
9,test,4,0.0,2-Back,1.0,m,Mon Nov 24 2025 10:02:51 GMT-0600 (Central Standard Time),634866.5,071_y_f_d_a.png,O,m,890,11,1,1917.0,632949.5,7242,VNB,A,9
10,test,4,0.0,2-Back,1.0,m,Mon Nov 24 2025 10:02:51 GMT-0600 (Central Standard Time),636698.5,109_y_m_n_a.png,O,m,812,12,1,1819.0,634879.5,7242,VNB,A,10
10,test,4,0.0,2-Back,0.0,z,Mon Nov 24 2025 10:02:51 GMT-0600 (Central Standard Time),639730.6999999881,039_o_m_d_a.png,O,None,2016,13,1,3022.2999999970198,636708.3999999911,7242,VNB,A,11
11,test,4,1.0,2-Back,1.0,m,Mon Nov 24 2025 10:02:51 GMT-0600 (Central Standard Time),641548.1999999881,139_m_f_h_a.png,O,m,796,14,1,1806.199999988079,639742.0,7242,VNB,A,12
12,test,4,1.0,2-Back,1.0,m,Mon Nov 24 2025 10:02:51 GMT-0600 (Central Standard Time),643562.3999999911,071_y_f_h_a.png,O,m,995,15,1,2002.3999999910593,641560.0,7242,VNB,A,13
13,test,4,0.0,2-Back,1.0,m,Mon Nov 24 2025 10:02:51 GMT-0600 (Central Standard Time),645478.799999997,124_o_f_n_a.png,O,m,884,16,1,1905.0,643573.799999997,7242,VNB,A,14
14,test,4,0.0,2-Back,1.0,m,Mon Nov 24 2025 10:02:51 GMT-0600 (Central Standard Time),647945.8999999911,109_y_m_d_a.png,O,m,1438,17,1,2455.3999999910593,645490.5,7242,VNB,A,15
14,test,4,1.0,2-Back,0.0,m,Mon Nov 24 2025 10:02:51 GMT-0600 (Central Standard Time),650128.299999997,165_m_m_d_a.png,O,z,1157,18,1,2169.6000000089407,647958.6999999881,7242,VNB,A,16
0,test,5,1.0,2-Back,,,Mon Nov 24 2025 10:02:51 GMT-0600 (Central Standard Time),650128.299999997,071_y_f_d_a.png,O,space,2126,1,1,2169.6000000089407,647958.6999999881,7242,VNB,A,0
0,test,5,1.0,2-Back,,,Mon Nov 24 2025 10:02:51 GMT-0600 (Central Standard Time),650128.299999997,124_o_f_h_a.png,O,space,2126,2,1,2169.6000000089407,647958.6999999881,7242,VNB,A,0
1,test,5,1.0,2-Back,1.0,z,Mon Nov 24 2025 10:02:51 GMT-0600 (Central Standard Time),659874.3999999911,039_o_m_d_a.png,O,z,1503,3,1,2524.8999999910593,657349.5,7242,VNB,A,1
2,test,5,1.0,2-Back,1.0,m,Mon Nov 24 2025 10:02:51 GMT-0600 (Central Standard Time),661840.3999999911,139_m_f_n_a.png,O,m,939,4,1,1955.2999999970198,659885.099999994,7242,VNB,A,2
2,test,5,0.0,2-Back,0.0,m,Mon Nov 24 2025 10:02:51 GMT-0600 (Central Standard Time),663906.3999999911,165_m_m_h_a.png,O,z,1045,5,1,2056.5999999940395,661849.799999997,7242,VNB,A,3
2,test,5,0.0,2-Back,0.0,z,Mon Nov 24 2025 10:02:51 GMT-0600 (Central Standard Time),665689.3999999911,071_y_f_n_a.png,O,m,763,6,1,1773.8999999910593,663915.5,7242,VNB,A,4
3,test,5,0.0,2-Back,1.0,m,Mon Nov 24 2025 10:02:51 GMT-0600 (Central Standard Time),667439.299999997,124_o_f_d_a.png,O,m,725,7,1,1738.7000000029802,665700.599999994,7242,VNB,A,5
4,test,5,0.0,2-Back,1.0,m,Mon Nov 24 2025 10:02:51 GMT-0600 (Central Standard Time),669376.5,039_o_m_h_a.png,O,m,910,8,1,1926.1000000089407,667450.3999999911,7242,VNB,A,6
4,test,5,1.0,2-Back,0.0,z,Mon Nov 24 2025 10:02:51 GMT-0600 (Central Standard Time),671771.3999999911,139_m_f_d_a.png,O,m,1378,9,1,2389.0,669382.3999999911,7242,VNB,A,7
4,test,5,0.0,2-Back,0.0,m,Mon Nov 24 2025 10:02:51 GMT-0600 (Central Standard Time),673603.6999999881,109_y_m_n_a.png,O,z,811,10,1,1824.199999988079,671779.5,7242,VNB,A,8
5,test,5,0.0,2-Back,1.0,m,Mon Nov 24 2025 10:02:51 GMT-0600 (Central Standard Time),675136.3999999911,165_m_m_n_a.png,O,m,507,11,1,1520.3999999910593,673616.0,7242,VNB,A,9
6,test,5,0.0,2-Back,1.0,m,Mon Nov 24 2025 10:02:51 GMT-0600 (Central Standard Time),676885.6999999881,071_y_f_h_a.png,O,m,716,12,1,1739.5999999940395,675146.099999994,7242,VNB,A,10
7,test,5,0.0,2-Back,1.0,m,Mon Nov 24 2025 10:02:51 GMT-0600 (Central Standard Time),678552.5,109_y_m_d_a.png,O,m,649,13,1,1656.2000000029802,676896.299999997,7242,VNB,A,11
8,test,5,1.0,2-Back,1.0,z,Mon Nov 24 2025 10:02:51 GMT-0600 (Central Standard Time),680418.0,139_m_f_h_a.png,O,z,839,14,1,1854.7000000029802,678563.299999997,7242,VNB,A,12
9,test,5,0.0,2-Back,1.0,m,Mon Nov 24 2025 10:02:51 GMT-0600 (Central Standard Time),683034.6999999881,039_o_m_n_a.png,O,m,1598,15,1,2606.0,680428.6999999881,7242,VNB,A,13
10,test,5,0.0,2-Back,1.0,m,Mon Nov 24 2025 10:02:51 GMT-0600 (Central Standard Time),685032.599999994,165_m_m_d_a.png,O,m,971,16,1,1987.4000000059605,683045.1999999881,7242,VNB,A,14
10,test,5,0.0,2-Back,0.0,z,Mon Nov 24 2025 10:02:51 GMT-0600 (Central Standard Time),687449.099999994,124_o_f_n_a.png,O,m,1400,17,1,2406.4000000059605,685042.6999999881,7242,VNB,A,15
10,test,5,1.0,2-Back,0.0,m,Mon Nov 24 2025 10:02:51 GMT-0600 (Central Standard Time),689315.6999999881,109_y_m_h_a.png,O,z,844,18,1,1855.699999988079,687460.0,7242,VNB,A,16
