acc_sum,block,block_c,block_cond,con_img,correct,correct_response,datetime,endtime,face,jitter,line,project,response,response_time,row_sel,session_number,start_end,starttime,subject_id,task,task_vers,trial
0,prac,1,A,haborder.png,0,z,Fri May 16 2025 15:03:16 GMT-0500 (Central Daylight Time),57009.89999997616,CFD-WM-013-015-A.jpg,1900,solid,O,None,1502,8,1,4183.299999952316,52826.60000002384,7153,ATS,A,1
1,prac,1,A,haborder.png,1,m,Fri May 16 2025 15:03:16 GMT-0500 (Central Daylight Time),60257.799999952316,CFD-BM-017-052-HC.jpg,1700,solid,O,m,756,1,1,7431.199999928474,52826.60000002384,7153,ATS,A,2
2,prac,1,A,haborder.png,1,z,Fri May 16 2025 15:03:16 GMT-0500 (Central Daylight Time),63040.299999952316,CFD-BF-039-039-A.jpg,1200,solid,O,z,783,6,1,10213.699999928474,52826.60000002384,7153,ATS,A,3
3,prac,1,A,haborder.png,1,m,Fri May 16 2025 15:03:16 GMT-0500 (Central Daylight Time),66106.10000002384,CFD-WM-004-005-HC.jpg,1400,solid,O,m,873,7,1,13279.5,52826.60000002384,7153,ATS,A,4
4,prac,1,A,haborder.png,1,z,Fri May 16 2025 15:03:16 GMT-0500 (Central Daylight Time),69138.39999997616,CFD-BF-023-013-A.jpg,1000,solid,O,z,1247,4,1,16311.799999952316,52826.60000002384,7153,ATS,A,5
5,prac,1,A,haborder.png,1,m,Fri May 16 2025 15:03:16 GMT-0500 (Central Daylight Time),72337.19999992847,CFD-WF-017-016-HC.jpg,1500,solid,O,m,915,11,1,19510.599999904633,52826.60000002384,7153,ATS,A,6
6,prac,1,A,haborder.png,1,z,Fri May 16 2025 15:03:16 GMT-0500 (Central Daylight Time),75669.60000002384,CFD-BM-005-010-A.jpg,1600,solid,O,z,944,2,1,22843.0,52826.60000002384,7153,ATS,A,7
7,prac,1,A,haborder.png,1,z,Fri May 16 2025 15:03:16 GMT-0500 (Central Daylight Time),79185.39999997616,CFD-WF-003-014-A.jpg,1600,solid,O,z,998,10,1,26358.799999952316,52826.60000002384,7153,ATS,A,8
8,prac,1,A,haborder.png,1,m,Fri May 16 2025 15:03:16 GMT-0500 (Central Daylight Time),83067.29999995232,CFD-BF-028-020-HC.jpg,2000,solid,O,m,1088,5,1,30240.699999928474,52826.60000002384,7153,ATS,A,9
9,prac,1,A,haborder.png,1,m,Fri May 16 2025 15:03:16 GMT-0500 (Central Daylight Time),86233.10000002384,CFD-BM-029-026-HC.jpg,1500,solid,O,m,882,3,1,33406.5,52826.60000002384,7153,ATS,A,10
10,prac,1,A,haborder.png,1,z,Fri May 16 2025 15:03:16 GMT-0500 (Central Daylight Time),89015.60000002384,CFD-WF-019-015-A.jpg,1000,solid,O,z,992,12,1,36189.0,52826.60000002384,7153,ATS,A,11
11,prac,1,A,haborder.png,1,m,Fri May 16 2025 15:03:16 GMT-0500 (Central Daylight Time),92431.0,CFD-WM-006-013-HC.jpg,1700,solid,O,m,926,9,1,39604.39999997616,52826.60000002384,7153,ATS,A,12
1,prac,1,B,mfborder.png,1,z,Fri May 16 2025 15:03:16 GMT-0500 (Central Daylight Time),120139.0,CFD-WF-003-014-A.jpg,1500,dash,O,z,1322,11,1,3615.600000023842,116523.39999997616,7153,ATS,A,1
2,prac,1,B,mfborder.png,1,m,Fri May 16 2025 15:03:16 GMT-0500 (Central Daylight Time),124171.10000002384,CFD-BM-005-010-A.jpg,2000,dash,O,m,1246,5,1,7647.700000047684,116523.39999997616,7153,ATS,A,2
2,prac,1,B,mfborder.png,0,m,Fri May 16 2025 15:03:16 GMT-0500 (Central Daylight Time),127703.39999997616,CFD-WM-019-013-A.jpg,1200,dash,O,None,1505,6,1,11180.0,116523.39999997616,7153,ATS,A,3
3,prac,1,B,mfborder.png,1,m,Fri May 16 2025 15:03:16 GMT-0500 (Central Daylight Time),131152.29999995232,CFD-BM-029-026-HC.jpg,1700,dash,O,m,950,1,1,14628.899999976158,116523.39999997616,7153,ATS,A,4
4,prac,1,B,mfborder.png,1,m,Fri May 16 2025 15:03:16 GMT-0500 (Central Daylight Time),134234.60000002384,CFD-WM-013-015-A.jpg,1700,dash,O,m,597,9,1,17711.200000047684,116523.39999997616,7153,ATS,A,5
5,prac,1,B,mfborder.png,1,z,Fri May 16 2025 15:03:16 GMT-0500 (Central Daylight Time),137966.89999997616,CFD-WF-002-008-HC.jpg,1900,dash,O,z,1035,8,1,21443.5,116523.39999997616,7153,ATS,A,6
6,prac,1,B,mfborder.png,1,m,Fri May 16 2025 15:03:16 GMT-0500 (Central Daylight Time),141149.29999995232,CFD-BM-010-019-A.jpg,1600,dash,O,m,786,2,1,24625.899999976158,116523.39999997616,7153,ATS,A,7
7,prac,1,B,mfborder.png,1,z,Fri May 16 2025 15:03:16 GMT-0500 (Central Daylight Time),144164.79999995232,CFD-WF-017-016-HC.jpg,1000,dash,O,z,1220,12,1,27641.399999976158,116523.39999997616,7153,ATS,A,8
8,prac,1,B,mfborder.png,1,z,Fri May 16 2025 15:03:16 GMT-0500 (Central Daylight Time),147697.19999992847,CFD-BF-010-005-HC.jpg,1500,dash,O,z,1248,3,1,31173.799999952316,116523.39999997616,7153,ATS,A,9
9,prac,1,B,mfborder.png,1,z,Fri May 16 2025 15:03:16 GMT-0500 (Central Daylight Time),150962.5,CFD-BF-028-020-HC.jpg,1400,dash,O,z,1037,7,1,34439.10000002384,116523.39999997616,7153,ATS,A,10
10,prac,1,B,mfborder.png,1,m,Fri May 16 2025 15:03:16 GMT-0500 (Central Daylight Time),154744.79999995232,CFD-WM-006-013-HC.jpg,1600,dash,O,m,1391,10,1,38221.39999997616,116523.39999997616,7153,ATS,A,11
10,prac,1,B,mfborder.png,0,z,Fri May 16 2025 15:03:16 GMT-0500 (Central Daylight Time),157643.89999997616,CFD-BF-023-013-A.jpg,1000,dash,O,m,1103,4,1,41120.5,116523.39999997616,7153,ATS,A,12
1,test,1,A,haborder.png,1,z,Fri May 16 2025 15:03:16 GMT-0500 (Central Daylight Time),175405.10000002384,CFD-BF-023-013-A.jpg,1000,solid,O,z,1418,4,1,2449.4000000953674,172955.69999992847,7153,ATS,A,1
2,test,1,A,haborder.png,1,z,Fri May 16 2025 15:03:16 GMT-0500 (Central Daylight Time),178170.69999992847,CFD-WM-013-015-A.jpg,1900,solid,O,z,845,8,1,5215.0,172955.69999992847,7153,ATS,A,2
2,test,1,A,haborder.png,0,m,Fri May 16 2025 15:03:16 GMT-0500 (Central Daylight Time),181103.10000002384,CFD-BF-028-020-HC.jpg,2000,solid,O,z,903,5,1,8147.400000095367,172955.69999992847,7153,ATS,A,3
3,test,1,A,haborder.png,1,z,Fri May 16 2025 15:03:16 GMT-0500 (Central Daylight Time),183785.69999992847,CFD-BM-005-010-A.jpg,1600,solid,O,z,1050,2,1,10830.0,172955.69999992847,7153,ATS,A,4
4,test,1,A,haborder.png,1,m,Fri May 16 2025 15:03:16 GMT-0500 (Central Daylight Time),186101.69999992847,CFD-WM-004-005-HC.jpg,1400,solid,O,m,888,7,1,13146.0,172955.69999992847,7153,ATS,A,5
5,test,1,A,haborder.png,1,m,Fri May 16 2025 15:03:16 GMT-0500 (Central Daylight Time),188667.39999997616,CFD-BM-017-052-HC.jpg,1700,solid,O,m,848,1,1,15711.700000047684,172955.69999992847,7153,ATS,A,6
6,test,1,A,haborder.png,1,m,Fri May 16 2025 15:03:16 GMT-0500 (Central Daylight Time),191200.0,CFD-BM-029-026-HC.jpg,1500,solid,O,m,1010,3,1,18244.300000071526,172955.69999992847,7153,ATS,A,7
7,test,1,A,haborder.png,1,z,Fri May 16 2025 15:03:16 GMT-0500 (Central Daylight Time),193116.29999995232,CFD-WF-019-015-A.jpg,1000,solid,O,z,889,12,1,20160.600000023842,172955.69999992847,7153,ATS,A,8
8,test,1,A,haborder.png,1,z,Fri May 16 2025 15:03:16 GMT-0500 (Central Daylight Time),195565.19999992847,CFD-BF-039-039-A.jpg,1200,solid,O,z,1221,6,1,22609.5,172955.69999992847,7153,ATS,A,9
9,test,1,A,haborder.png,1,z,Fri May 16 2025 15:03:16 GMT-0500 (Central Daylight Time),198048.0,CFD-WF-003-014-A.jpg,1600,solid,O,z,852,10,1,25092.300000071526,172955.69999992847,7153,ATS,A,10
10,test,1,A,haborder.png,1,m,Fri May 16 2025 15:03:16 GMT-0500 (Central Daylight Time),200597.0,CFD-WM-006-013-HC.jpg,1700,solid,O,m,822,9,1,27641.300000071526,172955.69999992847,7153,ATS,A,11
11,test,1,A,haborder.png,1,z,Fri May 16 2025 15:03:16 GMT-0500 (Central Daylight Time),203212.69999992847,CFD-WF-003-014-A.jpg,1600,solid,O,z,988,10,1,30257.0,172955.69999992847,7153,ATS,A,12
11,test,1,A,haborder.png,0,z,Fri May 16 2025 15:03:16 GMT-0500 (Central Daylight Time),206345.29999995232,CFD-BM-005-010-A.jpg,1600,solid,O,None,1515,2,1,33389.60000002384,172955.69999992847,7153,ATS,A,13
12,test,1,A,haborder.png,1,m,Fri May 16 2025 15:03:16 GMT-0500 (Central Daylight Time),208844.5,CFD-WF-017-016-HC.jpg,1500,solid,O,m,972,11,1,35888.800000071526,172955.69999992847,7153,ATS,A,14
13,test,1,A,haborder.png,1,m,Fri May 16 2025 15:03:16 GMT-0500 (Central Daylight Time),211410.39999997616,CFD-WM-004-005-HC.jpg,1400,solid,O,m,1149,7,1,38454.700000047684,172955.69999992847,7153,ATS,A,15
14,test,1,A,haborder.png,1,z,Fri May 16 2025 15:03:16 GMT-0500 (Central Daylight Time),214242.5,CFD-WM-013-015-A.jpg,1900,solid,O,z,904,8,1,41286.800000071526,172955.69999992847,7153,ATS,A,16
15,test,1,A,haborder.png,1,z,Fri May 16 2025 15:03:16 GMT-0500 (Central Daylight Time),216508.69999992847,CFD-BF-039-039-A.jpg,1200,solid,O,z,1046,6,1,43553.0,172955.69999992847,7153,ATS,A,17
16,test,1,A,haborder.png,1,z,Fri May 16 2025 15:03:16 GMT-0500 (Central Daylight Time),218408.10000002384,CFD-WF-019-015-A.jpg,1000,solid,O,z,868,12,1,45452.40000009537,172955.69999992847,7153,ATS,A,18
17,test,1,A,haborder.png,1,m,Fri May 16 2025 15:03:16 GMT-0500 (Central Daylight Time),220940.60000002384,CFD-BM-017-052-HC.jpg,1700,solid,O,m,805,1,1,47984.90000009537,172955.69999992847,7153,ATS,A,19
18,test,1,A,haborder.png,1,m,Fri May 16 2025 15:03:16 GMT-0500 (Central Daylight Time),223506.29999995232,CFD-BM-029-026-HC.jpg,1500,solid,O,m,1049,3,1,50550.60000002384,172955.69999992847,7153,ATS,A,20
19,test,1,A,haborder.png,1,m,Fri May 16 2025 15:03:16 GMT-0500 (Central Daylight Time),226239.19999992847,CFD-WM-006-013-HC.jpg,1700,solid,O,m,1011,9,1,53283.5,172955.69999992847,7153,ATS,A,21
20,test,1,A,haborder.png,1,m,Fri May 16 2025 15:03:16 GMT-0500 (Central Daylight Time),228604.89999997616,CFD-WF-017-016-HC.jpg,1500,solid,O,m,838,11,1,55649.200000047684,172955.69999992847,7153,ATS,A,22
21,test,1,A,haborder.png,1,m,Fri May 16 2025 15:03:16 GMT-0500 (Central Daylight Time),231637.19999992847,CFD-BF-028-020-HC.jpg,2000,solid,O,m,1013,5,1,58681.5,172955.69999992847,7153,ATS,A,23
22,test,1,A,haborder.png,1,z,Fri May 16 2025 15:03:16 GMT-0500 (Central Daylight Time),233470.10000002384,CFD-BF-023-013-A.jpg,1000,solid,O,z,806,4,1,60514.40000009537,172955.69999992847,7153,ATS,A,24
1,test,1,B,mfborder.png,1,z,Fri May 16 2025 15:03:16 GMT-0500 (Central Daylight Time),246166.10000002384,CFD-BF-010-005-HC.jpg,1500,dash,O,z,1445,3,1,2965.4000000953674,243200.69999992847,7153,ATS,A,1
2,test,1,B,mfborder.png,1,z,Fri May 16 2025 15:03:16 GMT-0500 (Central Daylight Time),248282.29999995232,CFD-WF-003-014-A.jpg,1500,dash,O,z,588,11,1,5081.600000023842,243200.69999992847,7153,ATS,A,2
3,test,1,B,mfborder.png,1,m,Fri May 16 2025 15:03:16 GMT-0500 (Central Daylight Time),250781.39999997616,CFD-WM-013-015-A.jpg,1700,dash,O,m,771,9,1,7580.700000047684,243200.69999992847,7153,ATS,A,3
4,test,1,B,mfborder.png,1,z,Fri May 16 2025 15:03:16 GMT-0500 (Central Daylight Time),253930.39999997616,CFD-WF-002-008-HC.jpg,1900,dash,O,z,1232,8,1,10729.700000047684,243200.69999992847,7153,ATS,A,4
4,test,1,B,mfborder.png,0,m,Fri May 16 2025 15:03:16 GMT-0500 (Central Daylight Time),256663.0,CFD-WM-019-013-A.jpg,1200,dash,O,None,1516,6,1,13462.300000071526,243200.69999992847,7153,ATS,A,5
5,test,1,B,mfborder.png,1,m,Fri May 16 2025 15:03:16 GMT-0500 (Central Daylight Time),259078.79999995232,CFD-WM-006-013-HC.jpg,1600,dash,O,m,794,10,1,15878.100000023842,243200.69999992847,7153,ATS,A,6
6,test,1,B,mfborder.png,1,m,Fri May 16 2025 15:03:16 GMT-0500 (Central Daylight Time),262377.7999999523,CFD-BM-005-010-A.jpg,2000,dash,O,m,1267,5,1,19177.100000023842,243200.69999992847,7153,ATS,A,7
7,test,1,B,mfborder.png,1,m,Fri May 16 2025 15:03:16 GMT-0500 (Central Daylight Time),264610.5,CFD-BM-010-019-A.jpg,1600,dash,O,m,608,2,1,21409.800000071526,243200.69999992847,7153,ATS,A,8
8,test,1,B,mfborder.png,1,z,Fri May 16 2025 15:03:16 GMT-0500 (Central Daylight Time),266359.7999999523,CFD-WF-017-016-HC.jpg,1000,dash,O,z,727,12,1,23159.100000023842,243200.69999992847,7153,ATS,A,9
9,test,1,B,mfborder.png,1,z,Fri May 16 2025 15:03:16 GMT-0500 (Central Daylight Time),268542.39999997616,CFD-BF-010-005-HC.jpg,1500,dash,O,z,661,3,1,25341.700000047684,243200.69999992847,7153,ATS,A,10
10,test,1,B,mfborder.png,1,m,Fri May 16 2025 15:03:16 GMT-0500 (Central Daylight Time),271308.10000002384,CFD-BM-005-010-A.jpg,2000,dash,O,m,739,5,1,28107.400000095367,243200.69999992847,7153,ATS,A,11
11,test,1,B,mfborder.png,1,m,Fri May 16 2025 15:03:16 GMT-0500 (Central Daylight Time),273690.60000002384,CFD-WM-006-013-HC.jpg,1600,dash,O,m,765,10,1,30489.900000095367,243200.69999992847,7153,ATS,A,12
12,test,1,B,mfborder.png,1,z,Fri May 16 2025 15:03:16 GMT-0500 (Central Daylight Time),276040.10000002384,CFD-BF-028-020-HC.jpg,1400,dash,O,z,924,7,1,32839.40000009537,243200.69999992847,7153,ATS,A,13
13,test,1,B,mfborder.png,1,z,Fri May 16 2025 15:03:16 GMT-0500 (Central Daylight Time),278522.7999999523,CFD-WF-017-016-HC.jpg,1000,dash,O,z,1450,12,1,35322.10000002384,243200.69999992847,7153,ATS,A,14
14,test,1,B,mfborder.png,1,z,Fri May 16 2025 15:03:16 GMT-0500 (Central Daylight Time),280238.6999999285,CFD-BF-023-013-A.jpg,1000,dash,O,z,686,4,1,37038.0,243200.69999992847,7153,ATS,A,15
15,test,1,B,mfborder.png,1,m,Fri May 16 2025 15:03:16 GMT-0500 (Central Daylight Time),282638.10000002384,CFD-BM-029-026-HC.jpg,1700,dash,O,m,670,1,1,39437.40000009537,243200.69999992847,7153,ATS,A,16
16,test,1,B,mfborder.png,1,z,Fri May 16 2025 15:03:16 GMT-0500 (Central Daylight Time),284970.5,CFD-WF-003-014-A.jpg,1500,dash,O,z,815,11,1,41769.800000071526,243200.69999992847,7153,ATS,A,17
16,test,1,B,mfborder.png,0,z,Fri May 16 2025 15:03:16 GMT-0500 (Central Daylight Time),287470.0,CFD-BF-028-020-HC.jpg,1400,dash,O,m,1080,7,1,44269.300000071526,243200.69999992847,7153,ATS,A,18
17,test,1,B,mfborder.png,1,m,Fri May 16 2025 15:03:16 GMT-0500 (Central Daylight Time),290523.5,CFD-BM-029-026-HC.jpg,1700,dash,O,m,1319,1,1,47322.800000071526,243200.69999992847,7153,ATS,A,19
17,test,1,B,mfborder.png,0,m,Fri May 16 2025 15:03:16 GMT-0500 (Central Daylight Time),293251.60000002384,CFD-WM-019-013-A.jpg,1200,dash,O,None,1514,6,1,50050.90000009537,243200.69999992847,7153,ATS,A,20
18,test,1,B,mfborder.png,1,m,Fri May 16 2025 15:03:16 GMT-0500 (Central Daylight Time),295633.89999997616,CFD-BM-010-019-A.jpg,1600,dash,O,m,750,2,1,52433.200000047684,243200.69999992847,7153,ATS,A,21
19,test,1,B,mfborder.png,1,m,Fri May 16 2025 15:03:16 GMT-0500 (Central Daylight Time),298349.6999999285,CFD-WM-013-015-A.jpg,1700,dash,O,m,987,9,1,55149.0,243200.69999992847,7153,ATS,A,22
20,test,1,B,mfborder.png,1,z,Fri May 16 2025 15:03:16 GMT-0500 (Central Daylight Time),301232.1999999285,CFD-WF-002-008-HC.jpg,1900,dash,O,z,959,8,1,58031.5,243200.69999992847,7153,ATS,A,23
21,test,1,B,mfborder.png,1,z,Fri May 16 2025 15:03:16 GMT-0500 (Central Daylight Time),303064.89999997616,CFD-BF-023-013-A.jpg,1000,dash,O,z,809,4,1,59864.200000047684,243200.69999992847,7153,ATS,A,24
0,prac,1,C,mfborder.png,0,m,Fri May 16 2025 15:03:16 GMT-0500 (Central Daylight Time),379058.0,CFD-WM-013-015-A.jpg,1700,solid,O,None,1515,6,1,3998.899999976158,375059.10000002384,7153,ATS,A,1
1,prac,1,C,mfborder.png,1,m,Fri May 16 2025 15:03:16 GMT-0500 (Central Daylight Time),383306.5,CFD-BM-017-052-HC.jpg,2000,solid,O,m,1452,4,1,8247.399999976158,375059.10000002384,7153,ATS,A,2
1,prac,1,C,haborder.png,0,m,Fri May 16 2025 15:03:16 GMT-0500 (Central Daylight Time),387105.2999999523,CFD-BM-029-026-HC.jpg,1500,solid,O,None,1516,10,1,12046.199999928474,375059.10000002384,7153,ATS,A,3
2,prac,1,C,haborder.png,1,m,Fri May 16 2025 15:03:16 GMT-0500 (Central Daylight Time),390121.0,CFD-WM-004-005-HC.jpg,1000,dash,O,m,1224,11,1,15061.899999976158,375059.10000002384,7153,ATS,A,4
2,prac,1,C,mfborder.png,0,z,Fri May 16 2025 15:03:16 GMT-0500 (Central Daylight Time),393419.60000002384,CFD-BF-028-020-HC.jpg,1000,dash,O,None,1516,3,1,18360.5,375059.10000002384,7153,ATS,A,5
3,prac,1,C,mfborder.png,1,z,Fri May 16 2025 15:03:16 GMT-0500 (Central Daylight Time),396819.10000002384,CFD-WF-017-016-HC.jpg,1600,dash,O,z,1013,1,1,21760.0,375059.10000002384,7153,ATS,A,6
4,prac,1,C,haborder.png,1,m,Fri May 16 2025 15:03:16 GMT-0500 (Central Daylight Time),400301.0,CFD-WM-004-005-HC.jpg,1400,solid,O,m,1286,12,1,25241.899999976158,375059.10000002384,7153,ATS,A,7
5,prac,1,C,mfborder.png,1,m,Fri May 16 2025 15:03:16 GMT-0500 (Central Daylight Time),403484.6999999285,CFD-BM-005-010-A.jpg,1200,dash,O,m,1196,5,1,28425.599999904633,375059.10000002384,7153,ATS,A,8
6,prac,1,C,mfborder.png,1,z,Fri May 16 2025 15:03:16 GMT-0500 (Central Daylight Time),406765.7999999523,CFD-WF-019-015-A.jpg,1500,solid,O,z,994,2,1,31706.699999928474,375059.10000002384,7153,ATS,A,9
7,prac,1,C,haborder.png,1,z,Fri May 16 2025 15:03:16 GMT-0500 (Central Daylight Time),410181.2999999523,CFD-WF-003-014-A.jpg,1600,dash,O,z,1027,9,1,35122.199999928474,375059.10000002384,7153,ATS,A,10
8,prac,1,C,haborder.png,1,z,Fri May 16 2025 15:03:16 GMT-0500 (Central Daylight Time),413730.39999997616,CFD-BF-039-039-A.jpg,1700,solid,O,z,1056,8,1,38671.299999952316,375059.10000002384,7153,ATS,A,11
9,prac,1,C,haborder.png,1,z,Fri May 16 2025 15:03:16 GMT-0500 (Central Daylight Time),417245.89999997616,CFD-BF-023-013-A.jpg,1900,dash,O,z,819,7,1,42186.799999952316,375059.10000002384,7153,ATS,A,12
1,test,1,C,mfborder.png,1,z,Fri May 16 2025 15:03:16 GMT-0500 (Central Daylight Time),428292.2999999523,CFD-BF-023-013-A.jpg,1600,dash,O,z,739,2,1,2366.1999999284744,425926.10000002384,7153,ATS,A,1
1,test,1,C,haborder.png,0,z,Fri May 16 2025 15:03:16 GMT-0500 (Central Daylight Time),431604.7999999523,CFD-BM-010-019-A.jpg,1700,solid,O,None,1595,9,1,5678.699999928474,425926.10000002384,7153,ATS,A,2
2,test,1,C,mfborder.png,1,m,Fri May 16 2025 15:03:16 GMT-0500 (Central Daylight Time),434123.89999997616,CFD-BM-029-026-HC.jpg,1200,dash,O,m,1289,6,1,8197.799999952316,425926.10000002384,7153,ATS,A,3
3,test,1,C,mfborder.png,1,m,Fri May 16 2025 15:03:16 GMT-0500 (Central Daylight Time),436206.60000002384,CFD-WM-006-013-HC.jpg,1000,dash,O,m,1061,4,1,10280.5,425926.10000002384,7153,ATS,A,4
3,test,1,C,haborder.png,0,z,Fri May 16 2025 15:03:16 GMT-0500 (Central Daylight Time),439188.89999997616,CFD-BM-005-010-A.jpg,1900,solid,O,m,1063,8,1,13262.799999952316,425926.10000002384,7153,ATS,A,5
3,test,1,C,haborder.png,0,m,Fri May 16 2025 15:03:16 GMT-0500 (Central Daylight Time),441988.10000002384,CFD-WF-002-008-HC.jpg,1500,solid,O,z,1280,11,1,16062.0,425926.10000002384,7153,ATS,A,6
3,test,1,C,haborder.png,0,m,Fri May 16 2025 15:03:16 GMT-0500 (Central Daylight Time),445121.5,CFD-BF-028-020-HC.jpg,1600,solid,O,None,1517,10,1,19195.399999976158,425926.10000002384,7153,ATS,A,7
4,test,1,C,mfborder.png,1,z,Fri May 16 2025 15:03:16 GMT-0500 (Central Daylight Time),447653.0,CFD-BF-010-005-HC.jpg,1700,dash,O,z,814,1,1,21726.899999976158,425926.10000002384,7153,ATS,A,8
4,test,1,C,haborder.png,0,m,Fri May 16 2025 15:03:16 GMT-0500 (Central Daylight Time),450185.39999997616,CFD-WF-017-016-HC.jpg,1000,solid,O,None,1515,12,1,24259.299999952316,425926.10000002384,7153,ATS,A,9
4,test,1,C,haborder.png,0,z,Fri May 16 2025 15:03:16 GMT-0500 (Central Daylight Time),453034.60000002384,CFD-BM-005-010-A.jpg,1900,solid,O,m,932,8,1,27108.5,425926.10000002384,7153,ATS,A,10
5,test,1,C,mfborder.png,1,z,Fri May 16 2025 15:03:16 GMT-0500 (Central Daylight Time),455483.7999999523,CFD-WF-003-014-A.jpg,1500,dash,O,z,931,3,1,29557.699999928474,425926.10000002384,7153,ATS,A,11
5,test,1,C,haborder.png,0,z,Fri May 16 2025 15:03:16 GMT-0500 (Central Daylight Time),457816.5,CFD-WM-013-015-A.jpg,1400,solid,O,m,909,7,1,31890.399999976158,425926.10000002384,7153,ATS,A,12
6,test,1,C,mfborder.png,1,m,Fri May 16 2025 15:03:16 GMT-0500 (Central Daylight Time),460865.39999997616,CFD-WM-019-013-A.jpg,2000,dash,O,m,1017,5,1,34939.299999952316,425926.10000002384,7153,ATS,A,13
6,test,1,C,mfborder.png,0,m,Fri May 16 2025 15:03:16 GMT-0500 (Central Daylight Time),463598.10000002384,CFD-BM-029-026-HC.jpg,1200,dash,O,None,1516,6,1,37672.0,425926.10000002384,7153,ATS,A,14
6,test,1,C,haborder.png,0,m,Fri May 16 2025 15:03:16 GMT-0500 (Central Daylight Time),465464.0,CFD-WF-017-016-HC.jpg,1000,solid,O,z,843,12,1,39537.89999997616,425926.10000002384,7153,ATS,A,15
7,test,1,C,haborder.png,1,m,Fri May 16 2025 15:03:16 GMT-0500 (Central Daylight Time),468296.5,CFD-BF-028-020-HC.jpg,1600,solid,O,m,1209,10,1,42370.39999997616,425926.10000002384,7153,ATS,A,16
7,test,1,C,haborder.png,0,m,Fri May 16 2025 15:03:16 GMT-0500 (Central Daylight Time),471245.5,CFD-WF-002-008-HC.jpg,1500,solid,O,z,1429,11,1,45319.39999997616,425926.10000002384,7153,ATS,A,17
7,test,1,C,haborder.png,0,z,Fri May 16 2025 15:03:16 GMT-0500 (Central Daylight Time),473361.60000002384,CFD-WM-013-015-A.jpg,1400,solid,O,m,692,7,1,47435.5,425926.10000002384,7153,ATS,A,18
7,test,1,C,mfborder.png,0,m,Fri May 16 2025 15:03:16 GMT-0500 (Central Daylight Time),475894.2999999523,CFD-WM-006-013-HC.jpg,1000,dash,O,None,1516,4,1,49968.199999928474,425926.10000002384,7153,ATS,A,19
8,test,1,C,haborder.png,1,z,Fri May 16 2025 15:03:16 GMT-0500 (Central Daylight Time),479076.60000002384,CFD-BM-010-019-A.jpg,1700,solid,O,z,1455,9,1,53150.5,425926.10000002384,7153,ATS,A,20
9,test,1,C,mfborder.png,1,z,Fri May 16 2025 15:03:16 GMT-0500 (Central Daylight Time),481575.60000002384,CFD-BF-023-013-A.jpg,1600,dash,O,z,869,2,1,55649.5,425926.10000002384,7153,ATS,A,21
10,test,1,C,mfborder.png,1,z,Fri May 16 2025 15:03:16 GMT-0500 (Central Daylight Time),484341.2999999523,CFD-BF-010-005-HC.jpg,1700,dash,O,z,1038,1,1,58415.199999928474,425926.10000002384,7153,ATS,A,22
11,test,1,C,mfborder.png,1,z,Fri May 16 2025 15:03:16 GMT-0500 (Central Daylight Time),486874.10000002384,CFD-WF-003-014-A.jpg,1500,dash,O,z,1008,3,1,60948.0,425926.10000002384,7153,ATS,A,23
11,test,1,C,mfborder.png,0,m,Fri May 16 2025 15:03:16 GMT-0500 (Central Daylight Time),490406.2999999523,CFD-WM-019-013-A.jpg,2000,dash,O,None,1515,5,1,64480.199999928474,425926.10000002384,7153,ATS,A,24
1,test,2,C,haborder.png,1,m,Fri May 16 2025 15:03:16 GMT-0500 (Central Daylight Time),495071.5,CFD-WM-004-005-HC.jpg,1500,solid,O,m,923,11,1,2449.100000023842,492622.39999997616,7153,ATS,A,1
2,test,2,C,mfborder.png,1,z,Fri May 16 2025 15:03:16 GMT-0500 (Central Daylight Time),498220.60000002384,CFD-WF-017-016-HC.jpg,1700,dash,O,z,1426,1,1,5598.200000047684,492622.39999997616,7153,ATS,A,2
3,test,2,C,haborder.png,1,z,Fri May 16 2025 15:03:16 GMT-0500 (Central Daylight Time),501419.39999997616,CFD-BF-039-039-A.jpg,1900,solid,O,z,1274,8,1,8797.0,492622.39999997616,7153,ATS,A,3
4,test,2,C,mfborder.png,1,m,Fri May 16 2025 15:03:16 GMT-0500 (Central Daylight Time),504868.1999999285,CFD-BM-005-010-A.jpg,2000,dash,O,m,1430,5,1,12245.799999952316,492622.39999997616,7153,ATS,A,4
5,test,2,C,mfborder.png,1,m,Fri May 16 2025 15:03:16 GMT-0500 (Central Daylight Time),506834.39999997616,CFD-WM-013-015-A.jpg,1200,dash,O,m,741,6,1,14212.0,492622.39999997616,7153,ATS,A,5
6,test,2,C,mfborder.png,1,z,Fri May 16 2025 15:03:16 GMT-0500 (Central Daylight Time),509500.1999999285,CFD-WF-019-015-A.jpg,1600,dash,O,z,1047,2,1,16877.799999952316,492622.39999997616,7153,ATS,A,6
7,test,2,C,mfborder.png,1,m,Fri May 16 2025 15:03:16 GMT-0500 (Central Daylight Time),512316.10000002384,CFD-BM-005-010-A.jpg,2000,dash,O,m,789,5,1,19693.700000047684,492622.39999997616,7153,ATS,A,7
8,test,2,C,haborder.png,1,m,Fri May 16 2025 15:03:16 GMT-0500 (Central Daylight Time),514698.7999999523,CFD-BM-029-026-HC.jpg,1600,solid,O,m,751,10,1,22076.399999976158,492622.39999997616,7153,ATS,A,8
9,test,2,C,haborder.png,1,z,Fri May 16 2025 15:03:16 GMT-0500 (Central Daylight Time),517064.60000002384,CFD-BF-023-013-A.jpg,1400,solid,O,z,935,7,1,24442.200000047684,492622.39999997616,7153,ATS,A,9
10,test,2,C,mfborder.png,1,m,Fri May 16 2025 15:03:16 GMT-0500 (Central Daylight Time),518930.60000002384,CFD-BM-017-052-HC.jpg,1000,dash,O,m,834,4,1,26308.200000047684,492622.39999997616,7153,ATS,A,10
11,test,2,C,mfborder.png,1,z,Fri May 16 2025 15:03:16 GMT-0500 (Central Daylight Time),521796.1999999285,CFD-WF-019-015-A.jpg,1600,dash,O,z,1239,2,1,29173.799999952316,492622.39999997616,7153,ATS,A,11
11,test,2,C,haborder.png,0,z,Fri May 16 2025 15:03:16 GMT-0500 (Central Daylight Time),524662.1000000238,CFD-WF-003-014-A.jpg,1700,solid,O,m,1137,9,1,32039.700000047684,492622.39999997616,7153,ATS,A,12
12,test,2,C,haborder.png,1,m,Fri May 16 2025 15:03:16 GMT-0500 (Central Daylight Time),526528.1999999285,CFD-WM-004-005-HC.jpg,1000,solid,O,m,758,12,1,33905.799999952316,492622.39999997616,7153,ATS,A,13
13,test,2,C,haborder.png,1,z,Fri May 16 2025 15:03:16 GMT-0500 (Central Daylight Time),528994.3999999762,CFD-BF-023-013-A.jpg,1400,solid,O,z,1033,7,1,36372.0,492622.39999997616,7153,ATS,A,14
14,test,2,C,mfborder.png,1,z,Fri May 16 2025 15:03:16 GMT-0500 (Central Daylight Time),531276.7999999523,CFD-BF-028-020-HC.jpg,1500,dash,O,z,755,3,1,38654.39999997616,492622.39999997616,7153,ATS,A,15
15,test,2,C,mfborder.png,1,m,Fri May 16 2025 15:03:16 GMT-0500 (Central Daylight Time),533392.6999999285,CFD-WM-013-015-A.jpg,1200,dash,O,m,884,6,1,40770.299999952316,492622.39999997616,7153,ATS,A,16
16,test,2,C,mfborder.png,1,m,Fri May 16 2025 15:03:16 GMT-0500 (Central Daylight Time),535725.3999999762,CFD-BM-017-052-HC.jpg,1000,dash,O,m,1304,4,1,43103.0,492622.39999997616,7153,ATS,A,17
17,test,2,C,haborder.png,1,z,Fri May 16 2025 15:03:16 GMT-0500 (Central Daylight Time),538157.7999999523,CFD-WF-003-014-A.jpg,1700,solid,O,z,704,9,1,45535.39999997616,492622.39999997616,7153,ATS,A,18
18,test,2,C,mfborder.png,1,z,Fri May 16 2025 15:03:16 GMT-0500 (Central Daylight Time),541090.1999999285,CFD-WF-017-016-HC.jpg,1700,dash,O,z,1207,1,1,48467.799999952316,492622.39999997616,7153,ATS,A,19
19,test,2,C,haborder.png,1,m,Fri May 16 2025 15:03:16 GMT-0500 (Central Daylight Time),543472.6000000238,CFD-BM-029-026-HC.jpg,1600,solid,O,m,751,10,1,50850.200000047684,492622.39999997616,7153,ATS,A,20
20,test,2,C,mfborder.png,1,z,Fri May 16 2025 15:03:16 GMT-0500 (Central Daylight Time),545705.1999999285,CFD-BF-028-020-HC.jpg,1500,dash,O,z,708,3,1,53082.799999952316,492622.39999997616,7153,ATS,A,21
21,test,2,C,haborder.png,1,m,Fri May 16 2025 15:03:16 GMT-0500 (Central Daylight Time),548205.0,CFD-WM-004-005-HC.jpg,1500,solid,O,m,972,11,1,55582.60000002384,492622.39999997616,7153,ATS,A,22
22,test,2,C,haborder.png,1,m,Fri May 16 2025 15:03:16 GMT-0500 (Central Daylight Time),550170.6999999285,CFD-WM-004-005-HC.jpg,1000,solid,O,m,844,12,1,57548.299999952316,492622.39999997616,7153,ATS,A,23
23,test,2,C,haborder.png,1,z,Fri May 16 2025 15:03:16 GMT-0500 (Central Daylight Time),552836.7999999523,CFD-BF-039-039-A.jpg,1900,solid,O,z,739,8,1,60214.39999997616,492622.39999997616,7153,ATS,A,24
0,test,3,C,mfborder.png,0,m,Fri May 16 2025 15:03:16 GMT-0500 (Central Daylight Time),556535.6000000238,CFD-WM-006-013-HC.jpg,1000,dash,O,None,1511,4,1,2532.8000000715256,554002.7999999523,7153,ATS,A,1
1,test,3,C,mfborder.png,1,z,Fri May 16 2025 15:03:16 GMT-0500 (Central Daylight Time),558968.2999999523,CFD-BF-023-013-A.jpg,1600,dash,O,z,798,2,1,4965.5,554002.7999999523,7153,ATS,A,2
2,test,3,C,mfborder.png,1,m,Fri May 16 2025 15:03:16 GMT-0500 (Central Daylight Time),562017.1000000238,CFD-WM-019-013-A.jpg,2000,dash,O,m,1025,5,1,8014.300000071526,554002.7999999523,7153,ATS,A,3
3,test,3,C,mfborder.png,1,z,Fri May 16 2025 15:03:16 GMT-0500 (Central Daylight Time),564649.3999999762,CFD-WF-003-014-A.jpg,1500,dash,O,z,1104,3,1,10646.600000023842,554002.7999999523,7153,ATS,A,4
4,test,3,C,mfborder.png,1,m,Fri May 16 2025 15:03:16 GMT-0500 (Central Daylight Time),567482.1999999285,CFD-WM-019-013-A.jpg,2000,dash,O,m,808,5,1,13479.399999976158,554002.7999999523,7153,ATS,A,5
5,test,3,C,mfborder.png,1,m,Fri May 16 2025 15:03:16 GMT-0500 (Central Daylight Time),569981.2999999523,CFD-BM-029-026-HC.jpg,1200,dash,O,m,1271,6,1,15978.5,554002.7999999523,7153,ATS,A,6
5,test,3,C,haborder.png,0,m,Fri May 16 2025 15:03:16 GMT-0500 (Central Daylight Time),572147.0,CFD-WF-017-016-HC.jpg,1000,solid,O,z,1148,12,1,18144.200000047684,554002.7999999523,7153,ATS,A,7
5,test,3,C,haborder.png,0,z,Fri May 16 2025 15:03:16 GMT-0500 (Central Daylight Time),574679.8999999762,CFD-BM-010-019-A.jpg,1700,solid,O,m,803,9,1,20677.100000023842,554002.7999999523,7153,ATS,A,8
5,test,3,C,haborder.png,0,m,Fri May 16 2025 15:03:16 GMT-0500 (Central Daylight Time),577212.1999999285,CFD-BF-028-020-HC.jpg,1600,solid,O,z,913,10,1,23209.399999976158,554002.7999999523,7153,ATS,A,9
5,test,3,C,haborder.png,0,z,Fri May 16 2025 15:03:16 GMT-0500 (Central Daylight Time),580044.6999999285,CFD-BM-005-010-A.jpg,1900,solid,O,m,913,8,1,26041.899999976158,554002.7999999523,7153,ATS,A,10
5,test,3,C,haborder.png,0,z,Fri May 16 2025 15:03:16 GMT-0500 (Central Daylight Time),583277.1000000238,CFD-BM-010-019-A.jpg,1700,solid,O,None,1511,9,1,29274.300000071526,554002.7999999523,7153,ATS,A,11
6,test,3,C,mfborder.png,1,z,Fri May 16 2025 15:03:16 GMT-0500 (Central Daylight Time),585826.2999999523,CFD-BF-010-005-HC.jpg,1700,dash,O,z,816,1,1,31823.5,554002.7999999523,7153,ATS,A,12
7,test,3,C,mfborder.png,1,m,Fri May 16 2025 15:03:16 GMT-0500 (Central Daylight Time),587759.1000000238,CFD-BM-029-026-HC.jpg,1200,dash,O,m,703,6,1,33756.300000071526,554002.7999999523,7153,ATS,A,13
8,test,3,C,mfborder.png,1,z,Fri May 16 2025 15:03:16 GMT-0500 (Central Daylight Time),590091.5,CFD-BF-023-013-A.jpg,1600,dash,O,z,714,2,1,36088.700000047684,554002.7999999523,7153,ATS,A,14
8,test,3,C,haborder.png,0,m,Fri May 16 2025 15:03:16 GMT-0500 (Central Daylight Time),592674.1000000238,CFD-WF-002-008-HC.jpg,1500,solid,O,z,1058,11,1,38671.300000071526,554002.7999999523,7153,ATS,A,15
8,test,3,C,haborder.png,0,z,Fri May 16 2025 15:03:16 GMT-0500 (Central Daylight Time),594823.1999999285,CFD-WM-013-015-A.jpg,1400,solid,O,m,727,7,1,40820.39999997616,554002.7999999523,7153,ATS,A,16
8,test,3,C,haborder.png,0,z,Fri May 16 2025 15:03:16 GMT-0500 (Central Daylight Time),597805.8999999762,CFD-BM-005-010-A.jpg,1900,solid,O,m,1062,8,1,43803.10000002384,554002.7999999523,7153,ATS,A,17
8,test,3,C,haborder.png,0,m,Fri May 16 2025 15:03:16 GMT-0500 (Central Daylight Time),600271.6999999285,CFD-BF-028-020-HC.jpg,1600,solid,O,z,844,10,1,46268.89999997616,554002.7999999523,7153,ATS,A,18
9,test,3,C,mfborder.png,1,z,Fri May 16 2025 15:03:16 GMT-0500 (Central Daylight Time),603170.8999999762,CFD-WF-003-014-A.jpg,1500,dash,O,z,1374,3,1,49168.10000002384,554002.7999999523,7153,ATS,A,19
10,test,3,C,mfborder.png,1,m,Fri May 16 2025 15:03:16 GMT-0500 (Central Daylight Time),604988.1000000238,CFD-WM-006-013-HC.jpg,1000,dash,O,m,798,4,1,50985.300000071526,554002.7999999523,7153,ATS,A,20
10,test,3,C,haborder.png,0,m,Fri May 16 2025 15:03:16 GMT-0500 (Central Daylight Time),607302.8999999762,CFD-WF-002-008-HC.jpg,1500,solid,O,z,786,11,1,53300.10000002384,554002.7999999523,7153,ATS,A,21
11,test,3,C,mfborder.png,1,z,Fri May 16 2025 15:03:16 GMT-0500 (Central Daylight Time),609868.7999999523,CFD-BF-010-005-HC.jpg,1700,dash,O,z,839,1,1,55866.0,554002.7999999523,7153,ATS,A,22
11,test,3,C,haborder.png,0,z,Fri May 16 2025 15:03:16 GMT-0500 (Central Daylight Time),612434.8999999762,CFD-WM-013-015-A.jpg,1400,solid,O,m,1142,7,1,58432.10000002384,554002.7999999523,7153,ATS,A,23
11,test,3,C,haborder.png,0,m,Fri May 16 2025 15:03:16 GMT-0500 (Central Daylight Time),614200.7999999523,CFD-WF-017-016-HC.jpg,1000,solid,O,z,742,12,1,60198.0,554002.7999999523,7153,ATS,A,24
1,test,4,C,haborder.png,1,z,Fri May 16 2025 15:03:16 GMT-0500 (Central Daylight Time),617399.6000000238,CFD-BF-023-013-A.jpg,1400,solid,O,z,768,7,1,2199.100000023842,615200.5,7153,ATS,A,1
2,test,4,C,haborder.png,1,m,Fri May 16 2025 15:03:16 GMT-0500 (Central Daylight Time),620094.7999999523,CFD-BM-029-026-HC.jpg,1600,solid,O,m,928,10,1,4894.299999952316,615200.5,7153,ATS,A,2
3,test,4,C,mfborder.png,1,m,Fri May 16 2025 15:03:16 GMT-0500 (Central Daylight Time),621781.6999999285,CFD-BM-017-052-HC.jpg,1000,dash,O,m,661,4,1,6581.199999928474,615200.5,7153,ATS,A,3
4,test,4,C,haborder.png,1,z,Fri May 16 2025 15:03:16 GMT-0500 (Central Daylight Time),624497.1000000238,CFD-BF-039-039-A.jpg,1900,solid,O,z,792,8,1,9296.600000023842,615200.5,7153,ATS,A,4
5,test,4,C,mfborder.png,1,m,Fri May 16 2025 15:03:16 GMT-0500 (Central Daylight Time),626297.0,CFD-BM-017-052-HC.jpg,1000,dash,O,m,776,4,1,11096.5,615200.5,7153,ATS,A,5
6,test,4,C,haborder.png,1,m,Fri May 16 2025 15:03:16 GMT-0500 (Central Daylight Time),628629.3999999762,CFD-WM-004-005-HC.jpg,1500,solid,O,m,804,11,1,13428.899999976158,615200.5,7153,ATS,A,6
6,test,4,C,mfborder.png,0,m,Fri May 16 2025 15:03:16 GMT-0500 (Central Daylight Time),632161.7999999523,CFD-BM-005-010-A.jpg,2000,dash,O,None,1516,5,1,16961.299999952316,615200.5,7153,ATS,A,7
7,test,4,C,mfborder.png,1,z,Fri May 16 2025 15:03:16 GMT-0500 (Central Daylight Time),634561.1000000238,CFD-WF-019-015-A.jpg,1600,dash,O,z,768,2,1,19360.600000023842,615200.5,7153,ATS,A,8
8,test,4,C,haborder.png,1,z,Fri May 16 2025 15:03:16 GMT-0500 (Central Daylight Time),637226.6999999285,CFD-WF-003-014-A.jpg,1700,solid,O,z,932,9,1,22026.199999928474,615200.5,7153,ATS,A,9
9,test,4,C,mfborder.png,1,z,Fri May 16 2025 15:03:16 GMT-0500 (Central Daylight Time),640025.8999999762,CFD-WF-017-016-HC.jpg,1700,dash,O,z,1066,1,1,24825.399999976158,615200.5,7153,ATS,A,10
10,test,4,C,mfborder.png,1,z,Fri May 16 2025 15:03:16 GMT-0500 (Central Daylight Time),642275.3999999762,CFD-WF-017-016-HC.jpg,1700,dash,O,z,524,1,1,27074.899999976158,615200.5,7153,ATS,A,11
11,test,4,C,haborder.png,1,m,Fri May 16 2025 15:03:16 GMT-0500 (Central Daylight Time),644091.5,CFD-WM-004-005-HC.jpg,1000,solid,O,m,790,12,1,28891.0,615200.5,7153,ATS,A,12
12,test,4,C,mfborder.png,1,m,Fri May 16 2025 15:03:16 GMT-0500 (Central Daylight Time),646907.1000000238,CFD-BM-005-010-A.jpg,2000,dash,O,m,790,5,1,31706.600000023842,615200.5,7153,ATS,A,13
13,test,4,C,haborder.png,1,m,Fri May 16 2025 15:03:16 GMT-0500 (Central Daylight Time),649289.6999999285,CFD-WM-004-005-HC.jpg,1500,solid,O,m,846,11,1,34089.199999928474,615200.5,7153,ATS,A,14
14,test,4,C,mfborder.png,1,z,Fri May 16 2025 15:03:16 GMT-0500 (Central Daylight Time),651639.0,CFD-BF-028-020-HC.jpg,1500,dash,O,z,819,3,1,36438.5,615200.5,7153,ATS,A,15
15,test,4,C,haborder.png,1,m,Fri May 16 2025 15:03:16 GMT-0500 (Central Daylight Time),653388.6000000238,CFD-WM-004-005-HC.jpg,1000,solid,O,m,730,12,1,38188.10000002384,615200.5,7153,ATS,A,16
16,test,4,C,mfborder.png,1,z,Fri May 16 2025 15:03:16 GMT-0500 (Central Daylight Time),655587.6999999285,CFD-BF-028-020-HC.jpg,1500,dash,O,z,681,3,1,40387.199999928474,615200.5,7153,ATS,A,17
17,test,4,C,haborder.png,1,z,Fri May 16 2025 15:03:16 GMT-0500 (Central Daylight Time),657720.3999999762,CFD-BF-023-013-A.jpg,1400,solid,O,z,701,7,1,42519.89999997616,615200.5,7153,ATS,A,18
18,test,4,C,haborder.png,1,m,Fri May 16 2025 15:03:16 GMT-0500 (Central Daylight Time),660119.5,CFD-BM-029-026-HC.jpg,1600,solid,O,m,777,10,1,44919.0,615200.5,7153,ATS,A,19
19,test,4,C,mfborder.png,1,z,Fri May 16 2025 15:03:16 GMT-0500 (Central Daylight Time),662286.1000000238,CFD-WF-019-015-A.jpg,1600,dash,O,z,538,2,1,47085.60000002384,615200.5,7153,ATS,A,20
20,test,4,C,mfborder.png,1,m,Fri May 16 2025 15:03:16 GMT-0500 (Central Daylight Time),664218.6000000238,CFD-WM-013-015-A.jpg,1200,dash,O,m,716,6,1,49018.10000002384,615200.5,7153,ATS,A,21
21,test,4,C,mfborder.png,1,m,Fri May 16 2025 15:03:16 GMT-0500 (Central Daylight Time),666134.5,CFD-WM-013-015-A.jpg,1200,dash,O,m,695,6,1,50934.0,615200.5,7153,ATS,A,22
22,test,4,C,haborder.png,1,z,Fri May 16 2025 15:03:16 GMT-0500 (Central Daylight Time),668700.2999999523,CFD-BF-039-039-A.jpg,1900,solid,O,z,647,8,1,53499.799999952316,615200.5,7153,ATS,A,23
23,test,4,C,haborder.png,1,z,Fri May 16 2025 15:03:16 GMT-0500 (Central Daylight Time),671216.5,CFD-WF-003-014-A.jpg,1700,solid,O,z,785,9,1,56016.0,615200.5,7153,ATS,A,24
