acc_sum,block_c,block_dur,condition,correct,correct_response,countdown,datetime,endtime,project,response,response_time,response_time_test1_response,response_time_test2_response,row_sel,same,session_number,start_end,starttime,stim1,stim2,subject_id,task,task_vers,time_test1,time_test2,trial
1,1,0.0,prac,1,z,30000.0,Wed Aug 20 2025 17:37:26 GMT-0400 (Eastern Daylight Time),42865.699999809265,I,z,1267,,,4,yes,2,2791.2999997138977,40074.40000009537,RSM,RSM,9019,LC,B,,,1
2,1,0.0,prac,1,z,30000.0,Wed Aug 20 2025 17:37:26 GMT-0400 (Eastern Daylight Time),46548.800000190735,I,z,2147,,,6,yes,2,3673.800000190735,42875.0,CSDBFPHXZ,CSDBFPHXZ,9019,LC,B,,,2
3,1,0.0,prac,1,z,30000.0,Wed Aug 20 2025 17:37:26 GMT-0400 (Eastern Daylight Time),50116.0,I,z,2031,,,2,yes,2,3557.699999809265,46558.300000190735,NBGFSM,NBGFSM,9019,LC,B,,,3
4,1,0.0,prac,1,m,30000.0,Wed Aug 20 2025 17:37:26 GMT-0400 (Eastern Daylight Time),53665.40000009537,I,m,2019,,,3,no,2,3543.4000000953674,50122.0,QHZXPC,QHZWPC,9019,LC,B,,,4
5,1,0.0,prac,1,m,30000.0,Wed Aug 20 2025 17:37:26 GMT-0400 (Eastern Daylight Time),57182.09999990463,I,m,1985,,,5,no,2,3505.0,53677.09999990463,LNDPRSKQB,LNDPRSJQB,9019,LC,B,,,5
6,1,0.0,prac,1,m,30000.0,Wed Aug 20 2025 17:37:26 GMT-0400 (Eastern Daylight Time),59848.90000009537,I,m,1126,,,1,no,2,2657.5999999046326,57191.300000190735,RNV,FNV,9019,LC,B,,,6
1,1,1.1659998893737793,test,1,m,28834.00011062622,Wed Aug 20 2025 17:37:26 GMT-0400 (Eastern Daylight Time),74499.19999980927,I,m,1154,1154,,1,no,2,1159.5999999046326,73339.59999990463,HCF,RCF,9019,LC,B,71340,,1
2,1,2.4659998416900635,test,1,m,27534.000158309937,Wed Aug 20 2025 17:37:26 GMT-0400 (Eastern Daylight Time),75798.90000009537,I,m,1284,1284,,2,no,2,1292.8000001907349,74506.09999990463,QTPRJX,QTPNJX,9019,LC,B,72506,,2
3,1,3.932999849319458,test,1,m,26067.000150680542,Wed Aug 20 2025 17:37:26 GMT-0400 (Eastern Daylight Time),77265.5,I,m,1456,1456,,3,no,2,1459.6999998092651,75805.80000019073,MZDYGVGKQ,MZDYGLBKQ,9019,LC,B,73806,,3
4,1,4.9659998416900635,test,1,m,25034.000158309937,Wed Aug 20 2025 17:37:26 GMT-0400 (Eastern Daylight Time),78298.90000009537,I,m,1013,1013,,4,no,2,1026.4000000953674,77272.5,FQTNMK,JQTNMK,9019,LC,B,75273,,4
5,1,6.0329999923706055,test,1,z,23967.000007629395,Wed Aug 20 2025 17:37:26 GMT-0400 (Eastern Daylight Time),79365.5,I,z,1051,1051,,5,yes,2,1059.4000000953674,78306.09999990463,CLJ,CLJ,9019,LC,B,76307,,5
6,1,7.33299994468689,test,1,m,22667.00005531311,Wed Aug 20 2025 17:37:26 GMT-0400 (Eastern Daylight Time),80665.59999990463,I,m,1281,1281,,6,no,2,1293.0,79372.59999990463,JGDMNSVPW,JGZMNSVPW,9019,LC,B,77373,,6
6,1,8.982999801635742,test,0,z,21017.000198364258,Wed Aug 20 2025 17:37:26 GMT-0400 (Eastern Daylight Time),82315.40000009537,I,m,1629,1629,,7,yes,2,1642.5,80672.90000009537,FPTVHKCBJ,FPTVHKCBJ,9019,LC,B,78673,,7
7,1,9.949999809265137,test,1,m,20050.000190734863,Wed Aug 20 2025 17:37:26 GMT-0400 (Eastern Daylight Time),83282.19999980927,I,m,955,955,,8,no,2,959.1999998092651,82323.0,XRPZBS,ZRPBDH,9019,LC,B,80323,,8
8,1,10.982999801635742,test,1,m,19017.000198364258,Wed Aug 20 2025 17:37:26 GMT-0400 (Eastern Daylight Time),84315.30000019073,I,m,1013,1013,,9,no,2,1025.7000002861023,83289.59999990463,ZSQ,ZSP,9019,LC,B,81290,,9
9,1,12.099999904632568,test,1,z,17900.00009536743,Wed Aug 20 2025 17:37:26 GMT-0400 (Eastern Daylight Time),85432.19999980927,I,z,1099,1099,,10,yes,2,1109.6999998092651,84322.5,MPZRXL,MPZRXL,9019,LC,B,82323,,10
10,1,12.965999841690063,test,1,m,17034.000158309937,Wed Aug 20 2025 17:37:26 GMT-0400 (Eastern Daylight Time),86298.90000009537,I,m,846,846,,11,no,2,859.4000000953674,85439.5,KJH,KRH,9019,LC,B,83440,,11
11,1,15.399999856948853,test,1,z,14600.000143051147,Wed Aug 20 2025 17:37:26 GMT-0400 (Eastern Daylight Time),88732.09999990463,I,z,2412,2412,,12,yes,2,2426.199999809265,86305.90000009537,SMNHVTFCB,SMNHVTFCB,9019,LC,B,84306,,12
12,1,17.0,test,1,z,13000.0,Wed Aug 20 2025 17:37:26 GMT-0400 (Eastern Daylight Time),90332.30000019073,I,z,1578,1578,,13,yes,2,1592.3000001907349,88740.0,KJWTQF,KJWTQF,9019,LC,B,86740,,13
13,1,18.84999990463257,test,1,z,11150.000095367432,Wed Aug 20 2025 17:37:26 GMT-0400 (Eastern Daylight Time),92182.19999980927,I,z,1834,1834,,14,yes,2,1842.8999996185303,90339.30000019073,CHDKQGLMB,CHDKQGLMB,9019,LC,B,88340,,14
14,1,19.83299994468689,test,1,z,10167.00005531311,Wed Aug 20 2025 17:37:26 GMT-0400 (Eastern Daylight Time),93165.5,I,z,960,960,,15,yes,2,975.6999998092651,92189.80000019073,GHQ,GHQ,9019,LC,B,90190,,15
15,1,20.75,test,1,z,9250.0,Wed Aug 20 2025 17:37:26 GMT-0400 (Eastern Daylight Time),94082.19999980927,I,z,904,904,,16,yes,2,908.5,93173.69999980927,GFVMRH,GFVMRH,9019,LC,B,91174,,16
16,1,21.549999952316284,test,1,z,8450.000047683716,Wed Aug 20 2025 17:37:26 GMT-0400 (Eastern Daylight Time),94882.09999990463,I,z,789,789,,17,yes,2,792.5999999046326,94089.5,RSM,RSM,9019,LC,B,92090,,17
17,1,22.75,test,1,m,7250.0,Wed Aug 20 2025 17:37:26 GMT-0400 (Eastern Daylight Time),96082.19999980927,I,m,1187,1187,,18,no,2,1191.6999998092651,94890.5,BSRJTRMLG,BSFJTRMLG,9019,LC,B,92891,,18
18,1,24.799999952316284,test,1,z,5200.000047683716,Wed Aug 20 2025 17:37:26 GMT-0400 (Eastern Daylight Time),98132.30000019073,I,z,2036,2036,,19,yes,2,2043.1000003814697,96089.19999980927,NBGFSM,NBGFSM,9019,LC,B,94090,,19
19,1,26.698999881744385,test,1,z,3301.0001182556152,Wed Aug 20 2025 17:37:26 GMT-0400 (Eastern Daylight Time),100031.90000009537,I,z,1890,1890,,20,yes,2,1892.0999999046326,98139.80000019073,JQKBPLXGY,JQKBPLXGY,9019,LC,B,96140,,20
20,1,27.59999990463257,test,1,m,2400.0000953674316,Wed Aug 20 2025 17:37:26 GMT-0400 (Eastern Daylight Time),100932.19999980927,I,m,886,886,,21,no,2,892.8999996185303,100039.30000019073,RNV,FNV,9019,LC,B,98040,,21
1,2,2.367000102996826,test,1,z,27632.999897003174,Wed Aug 20 2025 17:37:26 GMT-0400 (Eastern Daylight Time),108932.19999980927,I,z,2354,,2354.0,1,yes,2,8892.89999961853,100039.30000019073,PRDBZTYFN,PRDBZTYFN,9019,LC,B,,104572.0,1
2,2,3.617000102996826,test,1,m,26382.999897003174,Wed Aug 20 2025 17:37:26 GMT-0400 (Eastern Daylight Time),110182.30000019073,I,m,1233,,1233.0,2,no,2,10143.0,100039.30000019073,NCWJDZ,NCMJDZ,9019,LC,B,,106941.0,2
3,2,4.650000095367432,test,1,m,25349.99990463257,Wed Aug 20 2025 17:37:26 GMT-0400 (Eastern Daylight Time),111215.30000019073,I,m,1025,,1025.0,3,no,2,11176.0,100039.30000019073,KHW,KBW,9019,LC,B,,108189.0,3
4,2,6.083000183105469,test,1,m,23916.99981689453,Wed Aug 20 2025 17:37:26 GMT-0400 (Eastern Daylight Time),112648.90000009537,I,m,1415,,1415.0,4,no,2,12609.599999904633,100039.30000019073,ZRBGMF,ZRBCMF,9019,LC,B,,109223.0,4
5,2,7.0,test,1,m,23000.0,Wed Aug 20 2025 17:37:26 GMT-0400 (Eastern Daylight Time),113565.59999990463,I,m,893,,893.0,5,no,2,13526.299999713898,100039.30000019073,BTH,BYH,9019,LC,B,,110656.0,5
6,2,8.450000047683716,test,1,z,21549.999952316284,Wed Aug 20 2025 17:37:26 GMT-0400 (Eastern Daylight Time),115015.5,I,z,1434,,1434.0,6,yes,2,14976.199999809265,100039.30000019073,XWKQRYCNZ,XWKQRYCNZ,9019,LC,B,,111572.0,6
7,2,9.983000040054321,test,1,z,20016.99995994568,Wed Aug 20 2025 17:37:26 GMT-0400 (Eastern Daylight Time),116548.90000009537,I,z,1518,,1518.0,7,yes,2,16509.599999904633,100039.30000019073,HNPDLK,HNPDLK,9019,LC,B,,113024.0,7
8,2,11.650000095367432,test,1,m,18349.99990463257,Wed Aug 20 2025 17:37:26 GMT-0400 (Eastern Daylight Time),118215.59999990463,I,m,1650,,1650.0,8,no,2,18176.299999713898,100039.30000019073,WMQTRSGLZ,WMQTRZGLZ,9019,LC,B,,114557.0,8
9,2,12.666000127792358,test,1,z,17333.99987220764,Wed Aug 20 2025 17:37:26 GMT-0400 (Eastern Daylight Time),119232.09999990463,I,z,1006,,1006.0,9,yes,2,19192.799999713898,100039.30000019073,JPN,JPN,9019,LC,B,,116224.0,9
10,2,14.333000183105469,test,1,m,15666.999816894531,Wed Aug 20 2025 17:37:26 GMT-0400 (Eastern Daylight Time),120898.59999990463,I,m,1652,,1652.0,10,no,2,20859.299999713898,100039.30000019073,QLXSVT,QLNSVT,9019,LC,B,,117241.0,10
11,2,17.033000230789185,test,1,z,12966.999769210815,Wed Aug 20 2025 17:37:26 GMT-0400 (Eastern Daylight Time),123599.19999980927,I,z,2695,,2695.0,11,yes,2,23559.89999961853,100039.30000019073,YXHKZVFPB,YXHKZVFPD,9019,LC,B,,118903.0,11
12,2,18.33300018310547,test,1,z,11666.999816894531,Wed Aug 20 2025 17:37:26 GMT-0400 (Eastern Daylight Time),124898.80000019073,I,z,1287,,1287.0,12,yes,2,24859.5,100039.30000019073,RJZ,RJZ,9019,LC,B,,121607.0,12
13,2,19.433000087738037,test,1,z,10566.999912261963,Wed Aug 20 2025 17:37:26 GMT-0400 (Eastern Daylight Time),125998.40000009537,I,z,1092,,1092.0,13,yes,2,25959.099999904633,100039.30000019073,CLNPZD,CLNPZD,9019,LC,B,,122906.0,13
13,2,21.402000188827515,test,0,m,8597.999811172485,Wed Aug 20 2025 17:37:26 GMT-0400 (Eastern Daylight Time),127967.09999990463,I,z,1946,,1946.0,14,no,2,27927.799999713898,100039.30000019073,DCBPFHXYJ,DCBPFHLYJ,9019,LC,B,,124004.0,14
14,2,22.25,test,1,m,7750.0,Wed Aug 20 2025 17:37:26 GMT-0400 (Eastern Daylight Time),128815.5,I,m,843,,843.0,15,no,2,28776.199999809265,100039.30000019073,MWR,ZWR,9019,LC,B,,125972.0,15
15,2,23.98300004005432,test,1,z,6016.999959945679,Wed Aug 20 2025 17:37:26 GMT-0400 (Eastern Daylight Time),130548.90000009537,I,z,1719,,1719.0,16,yes,2,30509.599999904633,100039.30000019073,LPKXZW,LPKXZW,9019,LC,B,,126823.0,16
16,2,24.850000143051147,test,1,m,5149.9998569488525,Wed Aug 20 2025 17:37:26 GMT-0400 (Eastern Daylight Time),131415.40000009537,I,m,847,,847.0,17,no,2,31376.099999904633,100039.30000019073,TZL,TZQ,9019,LC,B,,128559.0,17
17,2,27.66700005531311,test,1,z,2332.9999446868896,Wed Aug 20 2025 17:37:26 GMT-0400 (Eastern Daylight Time),134232.30000019073,I,z,2800,,2800.0,18,yes,2,34193.0,100039.30000019073,CSDBFPHXZ,CSDBFPHXZ,9019,LC,B,,129422.0,18
17,2,30.017000198364258,test,0,m,-17.000198364257812,Wed Aug 20 2025 17:37:26 GMT-0400 (Eastern Daylight Time),136582.30000019073,I,None,2342,,2342.0,19,no,2,36543.0,100039.30000019073,QHZXPC,QHZWPC,9019,LC,B,,132240.0,19
