block_c,block_dur,condition,countdown,datetime,endtime,list,multichar_response,project,response,response_time,session_number,start_end,starttime,subject_id,task,task_vers,trial
,,,,Tue Apr 21 2026 13:12:46 GMT-0400 (Eastern Daylight Time),,,,I,space,165,1,,,9077,WL,C,
prac,,0,,Tue Apr 21 2026 13:12:46 GMT-0400 (Eastern Daylight Time),,NA,b,I,b,3926,1,,,9077,WL,C,1.0
prac,,0,,Tue Apr 21 2026 13:12:46 GMT-0400 (Eastern Daylight Time),,NA,bo,I,o,197,1,,,9077,WL,C,1.0
prac,,0,,Tue Apr 21 2026 13:12:46 GMT-0400 (Eastern Daylight Time),,NA,boo,I,o,143,1,,,9077,WL,C,1.0
prac,,0,,Tue Apr 21 2026 13:12:46 GMT-0400 (Eastern Daylight Time),,NA,boos,I,s,101,1,,,9077,WL,C,1.0
prac,,0,,Tue Apr 21 2026 13:12:46 GMT-0400 (Eastern Daylight Time),,NA,boost,I,t,176,1,,,9077,WL,C,1.0
prac,,0,,Tue Apr 21 2026 13:12:46 GMT-0400 (Eastern Daylight Time),,NA,boostenter,I,enter,1143,1,,,9077,WL,C,1.0
1,3.066999912261963,learn,56933.00008773804,Tue Apr 21 2026 13:12:46 GMT-0400 (Eastern Daylight Time),107319.69999980927,A,t,I,t,3045,1,3065.8999996185303,104253.80000019073,9077,WL,C,1.0
1,3.2330000400543213,learn,56766.99995994568,Tue Apr 21 2026 13:12:46 GMT-0400 (Eastern Daylight Time),107485.80000019073,A,to,I,o,154,1,3232.0,104253.80000019073,9077,WL,C,1.0
1,3.3329999446868896,learn,56667.00005531311,Tue Apr 21 2026 13:12:46 GMT-0400 (Eastern Daylight Time),107586.0,A,tow,I,w,85,1,3332.199999809265,104253.80000019073,9077,WL,C,1.0
1,3.4660000801086426,learn,56533.99991989136,Tue Apr 21 2026 13:12:46 GMT-0400 (Eastern Daylight Time),107719.40000009537,A,towe,I,e,101,1,3465.5999999046326,104253.80000019073,9077,WL,C,1.0
1,3.616999864578247,learn,56383.00013542175,Tue Apr 21 2026 13:12:46 GMT-0400 (Eastern Daylight Time),107869.59999990463,A,tower,I,r,139,1,3615.7999997138977,104253.80000019073,9077,WL,C,1.0
1,4.249000072479248,learn,55750.99992752075,Tue Apr 21 2026 13:12:46 GMT-0400 (Eastern Daylight Time),108502.19999980927,A,towerenter,I,enter,613,1,4248.39999961853,104253.80000019073,9077,WL,C,1.0
1,5.433000087738037,learn,54566.99991226196,Tue Apr 21 2026 13:12:46 GMT-0400 (Eastern Daylight Time),109686.0,A,w,I,w,1167,1,1183.1999998092651,108502.80000019073,9077,WL,C,2.0
1,5.632999897003174,learn,54367.000102996826,Tue Apr 21 2026 13:12:46 GMT-0400 (Eastern Daylight Time),109885.80000019073,A,wh,I,h,186,1,1383.0,108502.80000019073,9077,WL,C,2.0
1,5.7170000076293945,learn,54282.999992370605,Tue Apr 21 2026 13:12:46 GMT-0400 (Eastern Daylight Time),109969.30000019073,A,whe,I,e,68,1,1466.5,108502.80000019073,9077,WL,C,2.0
1,5.866999864578247,learn,54133.00013542175,Tue Apr 21 2026 13:12:46 GMT-0400 (Eastern Daylight Time),110119.40000009537,A,whea,I,a,119,1,1616.5999999046326,108502.80000019073,9077,WL,C,2.0
1,6.08299994468689,learn,53917.00005531311,Tue Apr 21 2026 13:12:46 GMT-0400 (Eastern Daylight Time),110336.0,A,wheat,I,t,192,1,1833.1999998092651,108502.80000019073,9077,WL,C,2.0
1,6.2829999923706055,learn,53717.000007629395,Tue Apr 21 2026 13:12:46 GMT-0400 (Eastern Daylight Time),110535.69999980927,A,wheatenter,I,enter,177,1,2032.8999996185303,108502.80000019073,9077,WL,C,2.0
1,7.366999864578247,learn,52633.00013542175,Tue Apr 21 2026 13:12:46 GMT-0400 (Eastern Daylight Time),111619.30000019073,A,q,I,q,1070,1,1083.0,110536.30000019073,9077,WL,C,3.0
1,7.565999984741211,learn,52434.00001525879,Tue Apr 21 2026 13:12:46 GMT-0400 (Eastern Daylight Time),111819.30000019073,A,qu,I,u,174,1,1283.0,110536.30000019073,9077,WL,C,3.0
1,7.683000087738037,learn,52316.99991226196,Tue Apr 21 2026 13:12:46 GMT-0400 (Eastern Daylight Time),111936.09999990463,A,que,I,e,104,1,1399.7999997138977,110536.30000019073,9077,WL,C,3.0
1,8.032999992370605,learn,51967.000007629395,Tue Apr 21 2026 13:12:46 GMT-0400 (Eastern Daylight Time),112285.69999980927,A,quee,I,e,338,1,1749.3999996185303,110536.30000019073,9077,WL,C,3.0
1,9.116999864578247,learn,50883.00013542175,Tue Apr 21 2026 13:12:46 GMT-0400 (Eastern Daylight Time),113369.40000009537,A,queen,I,n,1061,1,2833.0999999046326,110536.30000019073,9077,WL,C,3.0
1,9.399999856948853,learn,50600.00014305115,Tue Apr 21 2026 13:12:46 GMT-0400 (Eastern Daylight Time),113652.80000019073,A,queenenter,I,enter,264,1,3116.5,110536.30000019073,9077,WL,C,3.0
1,9.766000032424927,learn,50233.99996757507,Tue Apr 21 2026 13:12:46 GMT-0400 (Eastern Daylight Time),114018.69999980927,A,s,I,s,352,1,365.5,113653.19999980927,9077,WL,C,4.0
1,9.933000087738037,learn,50066.99991226196,Tue Apr 21 2026 13:12:46 GMT-0400 (Eastern Daylight Time),114185.40000009537,A,su,I,u,147,1,532.2000002861023,113653.19999980927,9077,WL,C,4.0
1,10.198999881744385,learn,49801.000118255615,Tue Apr 21 2026 13:12:46 GMT-0400 (Eastern Daylight Time),114452.0,A,sug,I,g,251,1,798.8000001907349,113653.19999980927,9077,WL,C,4.0
1,10.399999856948853,learn,49600.00014305115,Tue Apr 21 2026 13:12:46 GMT-0400 (Eastern Daylight Time),114652.69999980927,A,suga,I,a,177,1,999.5,113653.19999980927,9077,WL,C,4.0
1,10.566999912261963,learn,49433.00008773804,Tue Apr 21 2026 13:12:46 GMT-0400 (Eastern Daylight Time),114819.40000009537,A,sugar,I,r,142,1,1166.2000002861023,113653.19999980927,9077,WL,C,4.0
1,11.200000047683716,learn,48799.999952316284,Tue Apr 21 2026 13:12:46 GMT-0400 (Eastern Daylight Time),115452.59999990463,A,sugarenter,I,enter,612,1,1799.4000000953674,113653.19999980927,9077,WL,C,4.0
1,16.23300004005432,learn,43766.99995994568,Tue Apr 21 2026 13:12:46 GMT-0400 (Eastern Daylight Time),120486.0,A,b,I,b,5018,1,5033.099999904633,115452.90000009537,9077,WL,C,5.0
1,16.34999990463257,learn,43650.00009536743,Tue Apr 21 2026 13:12:46 GMT-0400 (Eastern Daylight Time),120602.59999990463,A,bo,I,o,93,1,5149.699999809265,115452.90000009537,9077,WL,C,5.0
1,16.58299994468689,learn,43417.00005531311,Tue Apr 21 2026 13:12:46 GMT-0400 (Eastern Daylight Time),120836.09999990463,A,boy,I,y,208,1,5383.199999809265,115452.90000009537,9077,WL,C,5.0
1,16.848999977111816,learn,43151.00002288818,Tue Apr 21 2026 13:12:46 GMT-0400 (Eastern Daylight Time),121102.09999990463,A,boyenter,I,enter,245,1,5649.199999809265,115452.90000009537,9077,WL,C,5.0
1,17.115999937057495,learn,42884.000062942505,Tue Apr 21 2026 13:12:46 GMT-0400 (Eastern Daylight Time),121369.19999980927,A,d,I,d,248,1,266.69999980926514,121102.5,9077,WL,C,6.0
1,17.26699995994568,learn,42733.00004005432,Tue Apr 21 2026 13:12:46 GMT-0400 (Eastern Daylight Time),121519.5,A,do,I,o,129,1,417.0,121102.5,9077,WL,C,6.0
1,17.450000047683716,learn,42549.999952316284,Tue Apr 21 2026 13:12:46 GMT-0400 (Eastern Daylight Time),121702.69999980927,A,doc,I,c,154,1,600.1999998092651,121102.5,9077,WL,C,6.0
1,17.75,learn,42250.0,Tue Apr 21 2026 13:12:46 GMT-0400 (Eastern Daylight Time),122002.59999990463,A,doct,I,t,274,1,900.0999999046326,121102.5,9077,WL,C,6.0
1,17.933000087738037,learn,42066.99991226196,Tue Apr 21 2026 13:12:46 GMT-0400 (Eastern Daylight Time),122186.0,A,docte,I,e,161,1,1083.5,121102.5,9077,WL,C,6.0
1,18.217000007629395,learn,41782.999992370605,Tue Apr 21 2026 13:12:46 GMT-0400 (Eastern Daylight Time),122469.30000019073,A,docter,I,r,255,1,1366.8000001907349,121102.5,9077,WL,C,6.0
1,19.01699995994568,learn,40983.00004005432,Tue Apr 21 2026 13:12:46 GMT-0400 (Eastern Daylight Time),123269.40000009537,A,docte,I,backspace,779,1,2166.9000000953674,121102.5,9077,WL,C,6.0
1,19.83299994468689,learn,40167.00005531311,Tue Apr 21 2026 13:12:46 GMT-0400 (Eastern Daylight Time),124086.30000019073,A,doct,I,backspace,797,1,2983.800000190735,121102.5,9077,WL,C,6.0
1,20.132999897003174,learn,39867.000102996826,Tue Apr 21 2026 13:12:46 GMT-0400 (Eastern Daylight Time),124386.0,A,docto,I,o,285,1,3283.5,121102.5,9077,WL,C,6.0
1,20.26699995994568,learn,39733.00004005432,Tue Apr 21 2026 13:12:46 GMT-0400 (Eastern Daylight Time),124519.30000019073,A,doctor,I,r,108,1,3416.800000190735,121102.5,9077,WL,C,6.0
1,20.466000080108643,learn,39533.99991989136,Tue Apr 21 2026 13:12:46 GMT-0400 (Eastern Daylight Time),124718.90000009537,A,doctorenter,I,enter,188,1,3616.4000000953674,121102.5,9077,WL,C,6.0
1,22.032999992370605,learn,37967.000007629395,Tue Apr 21 2026 13:12:46 GMT-0400 (Eastern Daylight Time),126285.69999980927,A,n,I,n,1559,1,1566.2999997138977,124719.40000009537,9077,WL,C,7.0
1,22.200000047683716,learn,37799.999952316284,Tue Apr 21 2026 13:12:46 GMT-0400 (Eastern Daylight Time),126452.69999980927,A,na,I,a,149,1,1733.2999997138977,124719.40000009537,9077,WL,C,7.0
1,22.41700005531311,learn,37582.99994468689,Tue Apr 21 2026 13:12:46 GMT-0400 (Eastern Daylight Time),126669.30000019073,A,nai,I,i,190,1,1949.9000000953674,124719.40000009537,9077,WL,C,7.0
1,22.76699995994568,learn,37233.00004005432,Tue Apr 21 2026 13:12:46 GMT-0400 (Eastern Daylight Time),127019.40000009537,A,nail,I,l,325,1,2300.0,124719.40000009537,9077,WL,C,7.0
1,23.782999992370605,learn,36217.000007629395,Tue Apr 21 2026 13:12:46 GMT-0400 (Eastern Daylight Time),128035.5,A,nailenter,I,enter,998,1,3316.0999999046326,124719.40000009537,9077,WL,C,7.0
1,24.616999864578247,learn,35383.00013542175,Tue Apr 21 2026 13:12:46 GMT-0400 (Eastern Daylight Time),128869.40000009537,A,c,I,c,819,1,833.5,128035.90000009537,9077,WL,C,8.0
1,24.766000032424927,learn,35233.99996757507,Tue Apr 21 2026 13:12:46 GMT-0400 (Eastern Daylight Time),129019.30000019073,A,ca,I,a,126,1,983.4000000953674,128035.90000009537,9077,WL,C,8.0
1,25.116999864578247,learn,34883.00013542175,Tue Apr 21 2026 13:12:46 GMT-0400 (Eastern Daylight Time),129369.40000009537,A,cat,I,t,319,1,1333.5,128035.90000009537,9077,WL,C,8.0
1,25.217000007629395,learn,34782.999992370605,Tue Apr 21 2026 13:12:46 GMT-0400 (Eastern Daylight Time),129469.40000009537,A,catt,I,t,88,1,1433.5,128035.90000009537,9077,WL,C,8.0
1,25.399999856948853,learn,34600.00014305115,Tue Apr 21 2026 13:12:46 GMT-0400 (Eastern Daylight Time),129652.59999990463,A,catte,I,e,166,1,1616.6999998092651,128035.90000009537,9077,WL,C,8.0
1,25.58299994468689,learn,34417.00005531311,Tue Apr 21 2026 13:12:46 GMT-0400 (Eastern Daylight Time),129836.09999990463,A,cattel,I,l,150,1,1800.1999998092651,128035.90000009537,9077,WL,C,8.0
1,25.799999952316284,learn,34200.000047683716,Tue Apr 21 2026 13:12:46 GMT-0400 (Eastern Daylight Time),130052.30000019073,A,cattelenter,I,enter,197,1,2016.4000000953674,128035.90000009537,9077,WL,C,8.0
1,27.33299994468689,learn,32667.00005531311,Tue Apr 21 2026 13:12:46 GMT-0400 (Eastern Daylight Time),131586.09999990463,A,f,I,f,1522,1,1533.4000000953674,130052.69999980927,9077,WL,C,9.0
1,27.433000087738037,learn,32566.999912261963,Tue Apr 21 2026 13:12:46 GMT-0400 (Eastern Daylight Time),131686.0,A,fl,I,l,82,1,1633.3000001907349,130052.69999980927,9077,WL,C,9.0
1,27.66700005531311,learn,32332.99994468689,Tue Apr 21 2026 13:12:46 GMT-0400 (Eastern Daylight Time),131919.30000019073,A,fla,I,a,221,1,1866.6000003814697,130052.69999980927,9077,WL,C,9.0
1,27.882999897003174,learn,32117.000102996826,Tue Apr 21 2026 13:12:46 GMT-0400 (Eastern Daylight Time),132136.0,A,flag,I,g,196,1,2083.300000190735,130052.69999980927,9077,WL,C,9.0
1,28.115999937057495,learn,31884.000062942505,Tue Apr 21 2026 13:12:46 GMT-0400 (Eastern Daylight Time),132368.90000009537,A,flagenter,I,enter,218,1,2316.2000002861023,130052.69999980927,9077,WL,C,9.0
1,30.649999856948853,learn,29350.000143051147,Tue Apr 21 2026 13:12:46 GMT-0400 (Eastern Daylight Time),134902.69999980927,A,s,I,s,2517,1,2533.3999996185303,132369.30000019073,9077,WL,C,10.0
1,30.816999912261963,learn,29183.000087738037,Tue Apr 21 2026 13:12:46 GMT-0400 (Eastern Daylight Time),135069.40000009537,A,sh,I,h,134,1,2700.0999999046326,132369.30000019073,9077,WL,C,10.0
1,30.91599988937378,learn,29084.00011062622,Tue Apr 21 2026 13:12:46 GMT-0400 (Eastern Daylight Time),135169.19999980927,A,sho,I,o,77,1,2799.8999996185303,132369.30000019073,9077,WL,C,10.0
1,31.032999992370605,learn,28967.000007629395,Tue Apr 21 2026 13:12:46 GMT-0400 (Eastern Daylight Time),135286.09999990463,A,shor,I,r,92,1,2916.7999997138977,132369.30000019073,9077,WL,C,10.0
1,31.132999897003174,learn,28867.000102996826,Tue Apr 21 2026 13:12:46 GMT-0400 (Eastern Daylight Time),135386.19999980927,A,shore,I,e,68,1,3016.8999996185303,132369.30000019073,9077,WL,C,10.0
1,31.59999990463257,learn,28400.00009536743,Tue Apr 21 2026 13:12:46 GMT-0400 (Eastern Daylight Time),135852.30000019073,A,shoreenter,I,enter,432,1,3483.0,132369.30000019073,9077,WL,C,10.0
1,32.33299994468689,learn,27667.00005531311,Tue Apr 21 2026 13:12:46 GMT-0400 (Eastern Daylight Time),136586.0,A,h,I,h,715,1,733.4000000953674,135852.59999990463,9077,WL,C,11.0
1,32.48300004005432,learn,27516.99995994568,Tue Apr 21 2026 13:12:46 GMT-0400 (Eastern Daylight Time),136736.0,A,ho,I,o,135,1,883.4000000953674,135852.59999990463,9077,WL,C,11.0
1,32.75,learn,27250.0,Tue Apr 21 2026 13:12:46 GMT-0400 (Eastern Daylight Time),137002.80000019073,A,hom,I,m,244,1,1150.2000002861023,135852.59999990463,9077,WL,C,11.0
1,32.950000047683716,learn,27049.999952316284,Tue Apr 21 2026 13:12:46 GMT-0400 (Eastern Daylight Time),137202.59999990463,A,home,I,e,178,1,1350.0,135852.59999990463,9077,WL,C,11.0
1,33.41599988937378,learn,26584.00011062622,Tue Apr 21 2026 13:12:46 GMT-0400 (Eastern Daylight Time),137668.90000009537,A,homeenter,I,enter,447,1,1816.3000001907349,135852.59999990463,9077,WL,C,11.0
1,33.91599988937378,learn,26084.00011062622,Tue Apr 21 2026 13:12:46 GMT-0400 (Eastern Daylight Time),138169.30000019073,A,c,I,c,482,1,500.1000003814697,137669.19999980927,9077,WL,C,12.0
1,33.98300004005432,learn,26016.99995994568,Tue Apr 21 2026 13:12:46 GMT-0400 (Eastern Daylight Time),138235.80000019073,A,ca,I,a,42,1,566.6000003814697,137669.19999980927,9077,WL,C,12.0
1,34.14999985694885,learn,25850.000143051147,Tue Apr 21 2026 13:12:46 GMT-0400 (Eastern Daylight Time),138402.80000019073,A,cam,I,m,149,1,733.6000003814697,137669.19999980927,9077,WL,C,12.0
1,34.23300004005432,learn,25766.99995994568,Tue Apr 21 2026 13:12:46 GMT-0400 (Eastern Daylight Time),138486.0,A,camp,I,p,55,1,816.8000001907349,137669.19999980927,9077,WL,C,12.0
1,34.632999897003174,learn,25367.000102996826,Tue Apr 21 2026 13:12:46 GMT-0400 (Eastern Daylight Time),138885.59999990463,A,campenter,I,enter,373,1,1216.4000000953674,137669.19999980927,9077,WL,C,12.0
1,38.84999990463257,learn,21150.00009536743,Tue Apr 21 2026 13:12:46 GMT-0400 (Eastern Daylight Time),143102.59999990463,A,s,I,s,4209,1,4216.699999809265,138885.90000009537,9077,WL,C,13.0
1,39.01699995994568,learn,20983.00004005432,Tue Apr 21 2026 13:12:46 GMT-0400 (Eastern Daylight Time),143269.30000019073,A,su,I,u,149,1,4383.400000095367,138885.90000009537,9077,WL,C,13.0
1,39.132999897003174,learn,20867.000102996826,Tue Apr 21 2026 13:12:46 GMT-0400 (Eastern Daylight Time),143386.0,A,sug,I,g,86,1,4500.099999904633,138885.90000009537,9077,WL,C,13.0
1,39.282999992370605,learn,20717.000007629395,Tue Apr 21 2026 13:12:46 GMT-0400 (Eastern Daylight Time),143535.90000009537,A,suga,I,a,129,1,4650.0,138885.90000009537,9077,WL,C,13.0
1,39.46600008010864,learn,20533.999919891357,Tue Apr 21 2026 13:12:46 GMT-0400 (Eastern Daylight Time),143719.19999980927,A,sugar,I,r,155,1,4833.299999713898,138885.90000009537,9077,WL,C,13.0
1,39.6489999294281,learn,20351.0000705719,Tue Apr 21 2026 13:12:46 GMT-0400 (Eastern Daylight Time),143902.19999980927,A,sugarenter,I,enter,171,1,5016.299999713898,138885.90000009537,9077,WL,C,13.0
1,53.89999985694885,learn,6100.0001430511475,Tue Apr 21 2026 13:12:46 GMT-0400 (Eastern Daylight Time),158152.69999980927,A,l,I,l,14233,1,14250.099999904633,143902.59999990463,9077,WL,C,14.0
1,54.06599998474121,learn,5934.000015258789,Tue Apr 21 2026 13:12:46 GMT-0400 (Eastern Daylight Time),158319.19999980927,A,le,I,e,152,1,14416.599999904633,143902.59999990463,9077,WL,C,14.0
1,54.39999985694885,learn,5600.0001430511475,Tue Apr 21 2026 13:12:46 GMT-0400 (Eastern Daylight Time),158652.59999990463,A,let,I,t,300,1,14750.0,143902.59999990463,9077,WL,C,14.0
1,54.549999952316284,learn,5450.000047683716,Tue Apr 21 2026 13:12:46 GMT-0400 (Eastern Daylight Time),158802.5,A,lett,I,t,126,1,14899.900000095367,143902.59999990463,9077,WL,C,14.0
1,54.73300004005432,learn,5266.999959945679,Tue Apr 21 2026 13:12:46 GMT-0400 (Eastern Daylight Time),158985.90000009537,A,lette,I,e,153,1,15083.300000190735,143902.59999990463,9077,WL,C,14.0
1,54.865999937057495,learn,5134.000062942505,Tue Apr 21 2026 13:12:46 GMT-0400 (Eastern Daylight Time),159119.19999980927,A,letter,I,r,122,1,15216.599999904633,143902.59999990463,9077,WL,C,14.0
1,55.132999897003174,learn,4867.000102996826,Tue Apr 21 2026 13:12:46 GMT-0400 (Eastern Daylight Time),159385.5,A,letterenter,I,enter,243,1,15482.900000095367,143902.59999990463,9077,WL,C,14.0
1,55.549999952316284,learn,4450.000047683716,Tue Apr 21 2026 13:12:46 GMT-0400 (Eastern Daylight Time),159802.59999990463,A,c,I,c,397,1,416.7999997138977,159385.80000019073,9077,WL,C,15.0
1,55.71799993515015,learn,4282.0000648498535,Tue Apr 21 2026 13:12:46 GMT-0400 (Eastern Daylight Time),159970.30000019073,A,co,I,o,150,1,584.5,159385.80000019073,9077,WL,C,15.0
1,55.865999937057495,learn,4134.000062942505,Tue Apr 21 2026 13:12:46 GMT-0400 (Eastern Daylight Time),160119.19999980927,A,cor,I,r,131,1,733.3999996185303,159385.80000019073,9077,WL,C,15.0
1,56.09999990463257,learn,3900.0000953674316,Tue Apr 21 2026 13:12:46 GMT-0400 (Eastern Daylight Time),160352.59999990463,A,corn,I,n,212,1,966.7999997138977,159385.80000019073,9077,WL,C,15.0
1,56.848999977111816,learn,3151.0000228881836,Tue Apr 21 2026 13:12:46 GMT-0400 (Eastern Daylight Time),161102.09999990463,A,cornenter,I,enter,737,1,1716.2999997138977,159385.80000019073,9077,WL,C,15.0
2,1.0340001583099365,learn,58965.99984169006,Tue Apr 21 2026 13:12:46 GMT-0400 (Eastern Daylight Time),231202.5,A,b,I,b,1015,1,1032.8000001907349,230169.69999980927,9077,WL,C,1.0
2,1.25,learn,58750.0,Tue Apr 21 2026 13:12:46 GMT-0400 (Eastern Daylight Time),231419.09999990463,A,bo,I,o,192,1,1249.4000000953674,230169.69999980927,9077,WL,C,1.0
2,1.434000015258789,learn,58565.99998474121,Tue Apr 21 2026 13:12:46 GMT-0400 (Eastern Daylight Time),231602.5,A,bod,I,d,169,1,1432.8000001907349,230169.69999980927,9077,WL,C,1.0
2,1.75,learn,58250.0,Tue Apr 21 2026 13:12:46 GMT-0400 (Eastern Daylight Time),231919.0,A,body,I,y,304,1,1749.3000001907349,230169.69999980927,9077,WL,C,1.0
2,2.0830001831054688,learn,57916.99981689453,Tue Apr 21 2026 13:12:46 GMT-0400 (Eastern Daylight Time),232252.09999990463,A,bodyenter,I,enter,306,1,2082.4000000953674,230169.69999980927,9077,WL,C,1.0
2,2.4839999675750732,learn,57516.00003242493,Tue Apr 21 2026 13:12:46 GMT-0400 (Eastern Daylight Time),232652.5,A,n,I,n,379,1,400.0,232252.5,9077,WL,C,2.0
2,2.6000001430511475,learn,57399.99985694885,Tue Apr 21 2026 13:12:46 GMT-0400 (Eastern Daylight Time),232769.19999980927,A,na,I,a,100,1,516.6999998092651,232252.5,9077,WL,C,2.0
2,2.767000198364258,learn,57232.99980163574,Tue Apr 21 2026 13:12:46 GMT-0400 (Eastern Daylight Time),232935.40000009537,A,nai,I,i,141,1,682.9000000953674,232252.5,9077,WL,C,2.0
2,2.9170000553131104,learn,57082.99994468689,Tue Apr 21 2026 13:12:46 GMT-0400 (Eastern Daylight Time),233085.40000009537,A,nail,I,l,139,1,832.9000000953674,232252.5,9077,WL,C,2.0
2,3.3010001182556152,learn,56698.999881744385,Tue Apr 21 2026 13:12:46 GMT-0400 (Eastern Daylight Time),233469.69999980927,A,nailenter,I,enter,366,1,1217.1999998092651,232252.5,9077,WL,C,2.0
2,3.7009999752044678,learn,56299.00002479553,Tue Apr 21 2026 13:12:46 GMT-0400 (Eastern Daylight Time),233869.40000009537,A,c,I,c,393,1,399.30000019073486,233470.09999990463,9077,WL,C,3.0
2,3.8000001907348633,learn,56199.99980926514,Tue Apr 21 2026 13:12:46 GMT-0400 (Eastern Daylight Time),233969.09999990463,A,ca,I,a,86,1,499.0,233470.09999990463,9077,WL,C,3.0
2,4.25,learn,55750.0,Tue Apr 21 2026 13:12:46 GMT-0400 (Eastern Daylight Time),234419.30000019073,A,cat,I,t,433,1,949.2000002861023,233470.09999990463,9077,WL,C,3.0
2,4.450000047683716,learn,55549.999952316284,Tue Apr 21 2026 13:12:46 GMT-0400 (Eastern Daylight Time),234619.09999990463,A,catt,I,t,176,1,1149.0,233470.09999990463,9077,WL,C,3.0
2,4.617000102996826,learn,55382.999897003174,Tue Apr 21 2026 13:12:46 GMT-0400 (Eastern Daylight Time),234785.90000009537,A,catte,I,e,145,1,1315.8000001907349,233470.09999990463,9077,WL,C,3.0
2,4.800000190734863,learn,55199.99980926514,Tue Apr 21 2026 13:12:46 GMT-0400 (Eastern Daylight Time),234969.09999990463,A,cattel,I,l,162,1,1499.0,233470.09999990463,9077,WL,C,3.0
2,4.983000040054321,learn,55016.99995994568,Tue Apr 21 2026 13:12:46 GMT-0400 (Eastern Daylight Time),235152.0,A,cattelenter,I,enter,169,1,1681.9000000953674,233470.09999990463,9077,WL,C,3.0
2,9.034000158309937,learn,50965.99984169006,Tue Apr 21 2026 13:12:46 GMT-0400 (Eastern Daylight Time),239202.5,A,t,I,t,4039,1,4050.0,235152.5,9077,WL,C,4.0
2,9.217000007629395,learn,50782.999992370605,Tue Apr 21 2026 13:12:46 GMT-0400 (Eastern Daylight Time),239385.90000009537,A,to,I,o,160,1,4233.400000095367,235152.5,9077,WL,C,4.0
2,9.350000143051147,learn,50649.99985694885,Tue Apr 21 2026 13:12:46 GMT-0400 (Eastern Daylight Time),239519.40000009537,A,tow,I,w,121,1,4366.900000095367,235152.5,9077,WL,C,4.0
2,9.5,learn,50500.0,Tue Apr 21 2026 13:12:46 GMT-0400 (Eastern Daylight Time),239669.0,A,towe,I,e,123,1,4516.5,235152.5,9077,WL,C,4.0
2,9.900000095367432,learn,50099.99990463257,Tue Apr 21 2026 13:12:46 GMT-0400 (Eastern Daylight Time),240069.09999990463,A,tower,I,r,383,1,4916.599999904633,235152.5,9077,WL,C,4.0
2,10.117000102996826,learn,49882.999897003174,Tue Apr 21 2026 13:12:46 GMT-0400 (Eastern Daylight Time),240285.40000009537,A,towerenter,I,enter,205,1,5132.900000095367,235152.5,9077,WL,C,4.0
2,10.5,learn,49500.0,Tue Apr 21 2026 13:12:46 GMT-0400 (Eastern Daylight Time),240669.09999990463,A,w,I,w,361,1,383.40000009536743,240285.69999980927,9077,WL,C,5.0
2,10.66700005531311,learn,49332.99994468689,Tue Apr 21 2026 13:12:46 GMT-0400 (Eastern Daylight Time),240835.80000019073,A,wh,I,h,150,1,550.1000003814697,240285.69999980927,9077,WL,C,5.0
2,10.83400011062622,learn,49165.99988937378,Tue Apr 21 2026 13:12:46 GMT-0400 (Eastern Daylight Time),241002.5,A,whe,I,e,143,1,716.8000001907349,240285.69999980927,9077,WL,C,5.0
2,10.983999967575073,learn,49016.00003242493,Tue Apr 21 2026 13:12:46 GMT-0400 (Eastern Daylight Time),241152.40000009537,A,whea,I,a,136,1,866.7000002861023,240285.69999980927,9077,WL,C,5.0
2,11.25,learn,48750.0,Tue Apr 21 2026 13:12:46 GMT-0400 (Eastern Daylight Time),241419.09999990463,A,wheat,I,t,235,1,1133.4000000953674,240285.69999980927,9077,WL,C,5.0
2,11.383000135421753,learn,48616.99986457825,Tue Apr 21 2026 13:12:46 GMT-0400 (Eastern Daylight Time),241552.09999990463,A,wheatenter,I,enter,119,1,1266.4000000953674,240285.69999980927,9077,WL,C,5.0
2,11.767000198364258,learn,48232.99980163574,Tue Apr 21 2026 13:12:46 GMT-0400 (Eastern Daylight Time),241935.90000009537,A,q,I,q,374,1,383.5,241552.40000009537,9077,WL,C,6.0
2,12.0,learn,48000.0,Tue Apr 21 2026 13:12:46 GMT-0400 (Eastern Daylight Time),242169.09999990463,A,qu,I,u,211,1,616.6999998092651,241552.40000009537,9077,WL,C,6.0
2,12.150000095367432,learn,47849.99990463257,Tue Apr 21 2026 13:12:46 GMT-0400 (Eastern Daylight Time),242319.19999980927,A,que,I,e,139,1,766.7999997138977,241552.40000009537,9077,WL,C,6.0
2,12.317000150680542,learn,47682.99984931946,Tue Apr 21 2026 13:12:46 GMT-0400 (Eastern Daylight Time),242485.90000009537,A,quee,I,e,145,1,933.5,241552.40000009537,9077,WL,C,6.0
2,12.567000150680542,learn,47432.99984931946,Tue Apr 21 2026 13:12:46 GMT-0400 (Eastern Daylight Time),242735.90000009537,A,queen,I,n,229,1,1183.5,241552.40000009537,9077,WL,C,6.0
2,12.900000095367432,learn,47099.99990463257,Tue Apr 21 2026 13:12:46 GMT-0400 (Eastern Daylight Time),243069.09999990463,A,queenenter,I,enter,323,1,1516.6999998092651,241552.40000009537,9077,WL,C,6.0
2,15.134000062942505,learn,44865.999937057495,Tue Apr 21 2026 13:12:46 GMT-0400 (Eastern Daylight Time),245302.5,A,s,I,s,2218,1,2233.0,243069.5,9077,WL,C,7.0
2,15.300000190734863,learn,44699.99980926514,Tue Apr 21 2026 13:12:46 GMT-0400 (Eastern Daylight Time),245469.09999990463,A,su,I,u,140,1,2399.5999999046326,243069.5,9077,WL,C,7.0
2,15.434000015258789,learn,44565.99998474121,Tue Apr 21 2026 13:12:46 GMT-0400 (Eastern Daylight Time),245602.40000009537,A,sug,I,g,111,1,2532.9000000953674,243069.5,9077,WL,C,7.0
2,15.634000062942505,learn,44365.999937057495,Tue Apr 21 2026 13:12:46 GMT-0400 (Eastern Daylight Time),245802.40000009537,A,suga,I,a,177,1,2732.9000000953674,243069.5,9077,WL,C,7.0
2,15.767000198364258,learn,44232.99980163574,Tue Apr 21 2026 13:12:46 GMT-0400 (Eastern Daylight Time),245935.90000009537,A,sugar,I,r,119,1,2866.4000000953674,243069.5,9077,WL,C,7.0
2,15.967000007629395,learn,44032.999992370605,Tue Apr 21 2026 13:12:46 GMT-0400 (Eastern Daylight Time),246135.30000019073,A,sugarenter,I,enter,178,1,3065.800000190735,243069.5,9077,WL,C,7.0
2,16.217000007629395,learn,43782.999992370605,Tue Apr 21 2026 13:12:46 GMT-0400 (Eastern Daylight Time),246385.90000009537,A,b,I,b,240,1,250.09999990463257,246135.80000019073,9077,WL,C,8.0
2,16.350000143051147,learn,43649.99985694885,Tue Apr 21 2026 13:12:46 GMT-0400 (Eastern Daylight Time),246519.09999990463,A,bo,I,o,113,1,383.2999997138977,246135.80000019073,9077,WL,C,8.0
2,16.634000062942505,learn,43365.999937057495,Tue Apr 21 2026 13:12:46 GMT-0400 (Eastern Daylight Time),246802.5,A,boy,I,y,265,1,666.6999998092651,246135.80000019073,9077,WL,C,8.0
2,16.91700005531311,learn,43082.99994468689,Tue Apr 21 2026 13:12:46 GMT-0400 (Eastern Daylight Time),247085.40000009537,A,boyenter,I,enter,269,1,949.5999999046326,246135.80000019073,9077,WL,C,8.0
2,17.534000158309937,learn,42465.99984169006,Tue Apr 21 2026 13:12:46 GMT-0400 (Eastern Daylight Time),247702.40000009537,A,d,I,d,601,1,616.7000002861023,247085.69999980927,9077,WL,C,9.0
2,17.700000047683716,learn,42299.999952316284,Tue Apr 21 2026 13:12:46 GMT-0400 (Eastern Daylight Time),247869.30000019073,A,do,I,o,156,1,783.6000003814697,247085.69999980927,9077,WL,C,9.0
2,17.967000007629395,learn,42032.999992370605,Tue Apr 21 2026 13:12:46 GMT-0400 (Eastern Daylight Time),248135.80000019073,A,doc,I,c,238,1,1050.1000003814697,247085.69999980927,9077,WL,C,9.0
2,18.367000102996826,learn,41632.999897003174,Tue Apr 21 2026 13:12:46 GMT-0400 (Eastern Daylight Time),248535.80000019073,A,doct,I,t,371,1,1450.1000003814697,247085.69999980927,9077,WL,C,9.0
2,18.483999967575073,learn,41516.00003242493,Tue Apr 21 2026 13:12:46 GMT-0400 (Eastern Daylight Time),248652.5,A,docto,I,o,92,1,1566.8000001907349,247085.69999980927,9077,WL,C,9.0
2,18.634000062942505,learn,41365.999937057495,Tue Apr 21 2026 13:12:46 GMT-0400 (Eastern Daylight Time),248802.40000009537,A,doctor,I,r,135,1,1716.7000002861023,247085.69999980927,9077,WL,C,9.0
2,18.817000150680542,learn,41182.99984931946,Tue Apr 21 2026 13:12:46 GMT-0400 (Eastern Daylight Time),248985.30000019073,A,doctorenter,I,enter,160,1,1899.6000003814697,247085.69999980927,9077,WL,C,9.0
2,19.983999967575073,learn,40016.00003242493,Tue Apr 21 2026 13:12:46 GMT-0400 (Eastern Daylight Time),250152.40000009537,A,f,I,f,1149,1,1166.7000002861023,248985.69999980927,9077,WL,C,10.0
2,20.15000009536743,learn,39849.99990463257,Tue Apr 21 2026 13:12:46 GMT-0400 (Eastern Daylight Time),250319.09999990463,A,fl,I,l,155,1,1333.4000000953674,248985.69999980927,9077,WL,C,10.0
2,20.284000158309937,learn,39715.99984169006,Tue Apr 21 2026 13:12:46 GMT-0400 (Eastern Daylight Time),250452.5,A,fla,I,a,116,1,1466.8000001907349,248985.69999980927,9077,WL,C,10.0
2,20.50100016593933,learn,39498.99983406067,Tue Apr 21 2026 13:12:46 GMT-0400 (Eastern Daylight Time),250669.30000019073,A,flag,I,g,199,1,1683.6000003814697,248985.69999980927,9077,WL,C,10.0
2,20.68400001525879,learn,39315.99998474121,Tue Apr 21 2026 13:12:46 GMT-0400 (Eastern Daylight Time),250853.09999990463,A,flagenter,I,enter,164,1,1867.4000000953674,248985.69999980927,9077,WL,C,10.0
2,20.93400001525879,learn,39065.99998474121,Tue Apr 21 2026 13:12:46 GMT-0400 (Eastern Daylight Time),251102.40000009537,A,h,I,h,242,1,249.0,250853.40000009537,9077,WL,C,11.0
2,21.100000143051147,learn,38899.99985694885,Tue Apr 21 2026 13:12:46 GMT-0400 (Eastern Daylight Time),251269.09999990463,A,ho,I,o,149,1,415.69999980926514,250853.40000009537,9077,WL,C,11.0
2,21.300000190734863,learn,38699.99980926514,Tue Apr 21 2026 13:12:46 GMT-0400 (Eastern Daylight Time),251469.19999980927,A,hom,I,m,184,1,615.7999997138977,250853.40000009537,9077,WL,C,11.0
2,21.467000007629395,learn,38532.999992370605,Tue Apr 21 2026 13:12:46 GMT-0400 (Eastern Daylight Time),251635.90000009537,A,home,I,e,152,1,782.5,250853.40000009537,9077,WL,C,11.0
2,21.617000102996826,learn,38382.999897003174,Tue Apr 21 2026 13:12:46 GMT-0400 (Eastern Daylight Time),251785.40000009537,A,homeenter,I,enter,127,1,932.0,250853.40000009537,9077,WL,C,11.0
2,21.817000150680542,learn,38182.99984931946,Tue Apr 21 2026 13:12:46 GMT-0400 (Eastern Daylight Time),251985.69999980927,A,c,I,c,189,1,200.0,251785.69999980927,9077,WL,C,12.0
2,21.950999975204468,learn,38049.00002479553,Tue Apr 21 2026 13:12:46 GMT-0400 (Eastern Daylight Time),252119.90000009537,A,ca,I,a,113,1,334.2000002861023,251785.69999980927,9077,WL,C,12.0
2,22.350000143051147,learn,37649.99985694885,Tue Apr 21 2026 13:12:46 GMT-0400 (Eastern Daylight Time),252519.0,A,cam,I,m,381,1,733.3000001907349,251785.69999980927,9077,WL,C,12.0
2,22.567000150680542,learn,37432.99984931946,Tue Apr 21 2026 13:12:46 GMT-0400 (Eastern Daylight Time),252735.90000009537,A,camp,I,p,205,1,950.2000002861023,251785.69999980927,9077,WL,C,12.0
2,22.967000007629395,learn,37032.999992370605,Tue Apr 21 2026 13:12:46 GMT-0400 (Eastern Daylight Time),253135.40000009537,A,campenter,I,enter,386,1,1349.7000002861023,251785.69999980927,9077,WL,C,12.0
2,24.284000158309937,learn,35715.99984169006,Tue Apr 21 2026 13:12:46 GMT-0400 (Eastern Daylight Time),254452.30000019073,A,l,I,l,1303,1,1316.6000003814697,253135.69999980927,9077,WL,C,13.0
2,24.41700005531311,learn,35582.99994468689,Tue Apr 21 2026 13:12:46 GMT-0400 (Eastern Daylight Time),254585.80000019073,A,le,I,e,110,1,1450.1000003814697,253135.69999980927,9077,WL,C,13.0
2,24.68400001525879,learn,35315.99998474121,Tue Apr 21 2026 13:12:46 GMT-0400 (Eastern Daylight Time),254852.59999990463,A,let,I,t,241,1,1716.9000000953674,253135.69999980927,9077,WL,C,13.0
2,24.850000143051147,learn,35149.99985694885,Tue Apr 21 2026 13:12:46 GMT-0400 (Eastern Daylight Time),255019.09999990463,A,lett,I,t,142,1,1883.4000000953674,253135.69999980927,9077,WL,C,13.0
2,24.967000007629395,learn,35032.999992370605,Tue Apr 21 2026 13:12:46 GMT-0400 (Eastern Daylight Time),255135.80000019073,A,lette,I,e,104,1,2000.1000003814697,253135.69999980927,9077,WL,C,13.0
2,25.08400011062622,learn,34915.99988937378,Tue Apr 21 2026 13:12:46 GMT-0400 (Eastern Daylight Time),255252.40000009537,A,letter,I,r,91,1,2116.7000002861023,253135.69999980927,9077,WL,C,13.0
2,25.267000198364258,learn,34732.99980163574,Tue Apr 21 2026 13:12:46 GMT-0400 (Eastern Daylight Time),255435.30000019073,A,letterenter,I,enter,149,1,2299.6000003814697,253135.69999980927,9077,WL,C,13.0
2,25.950000047683716,learn,34049.999952316284,Tue Apr 21 2026 13:12:46 GMT-0400 (Eastern Daylight Time),256119.09999990463,A,f,I,f,668,1,683.4000000953674,255435.69999980927,9077,WL,C,14.0
2,26.100000143051147,learn,33899.99985694885,Tue Apr 21 2026 13:12:46 GMT-0400 (Eastern Daylight Time),256268.5,A,fl,I,l,137,1,832.8000001907349,255435.69999980927,9077,WL,C,14.0
2,26.217000007629395,learn,33782.999992370605,Tue Apr 21 2026 13:12:46 GMT-0400 (Eastern Daylight Time),256385.90000009537,A,fla,I,a,106,1,950.2000002861023,255435.69999980927,9077,WL,C,14.0
2,26.367000102996826,learn,33632.999897003174,Tue Apr 21 2026 13:12:46 GMT-0400 (Eastern Daylight Time),256535.90000009537,A,flag,I,g,122,1,1100.2000002861023,255435.69999980927,9077,WL,C,14.0
2,26.532999992370605,learn,33467.000007629395,Tue Apr 21 2026 13:12:46 GMT-0400 (Eastern Daylight Time),256702.19999980927,A,flagenter,I,enter,153,1,1266.5,255435.69999980927,9077,WL,C,14.0
2,26.850000143051147,learn,33149.99985694885,Tue Apr 21 2026 13:12:46 GMT-0400 (Eastern Daylight Time),257019.09999990463,A,c,I,c,295,1,316.5,256702.59999990463,9077,WL,C,15.0
2,26.983999967575073,learn,33016.00003242493,Tue Apr 21 2026 13:12:46 GMT-0400 (Eastern Daylight Time),257152.5,A,co,I,o,118,1,449.90000009536743,256702.59999990463,9077,WL,C,15.0
2,27.16700005531311,learn,32832.99994468689,Tue Apr 21 2026 13:12:46 GMT-0400 (Eastern Daylight Time),257335.90000009537,A,cor,I,r,155,1,633.3000001907349,256702.59999990463,9077,WL,C,15.0
2,27.41700005531311,learn,32582.99994468689,Tue Apr 21 2026 13:12:46 GMT-0400 (Eastern Daylight Time),257585.80000019073,A,corn,I,n,227,1,883.2000002861023,256702.59999990463,9077,WL,C,15.0
2,27.83400011062622,learn,32165.99988937378,Tue Apr 21 2026 13:12:46 GMT-0400 (Eastern Daylight Time),258003.0,A,cornenter,I,enter,401,1,1300.4000000953674,256702.59999990463,9077,WL,C,15.0
3,0.6169998645782471,learn,59383.00013542175,Tue Apr 21 2026 13:12:46 GMT-0400 (Eastern Daylight Time),327635.80000019073,A,b,I,b,602,1,616.3000001907349,327019.5,9077,WL,C,1.0
3,0.9500000476837158,learn,59049.999952316284,Tue Apr 21 2026 13:12:46 GMT-0400 (Eastern Daylight Time),327969.09999990463,A,bo,I,o,319,1,949.5999999046326,327019.5,9077,WL,C,1.0
3,1.3499999046325684,learn,58650.00009536743,Tue Apr 21 2026 13:12:46 GMT-0400 (Eastern Daylight Time),328369.09999990463,A,bod,I,d,386,1,1349.5999999046326,327019.5,9077,WL,C,1.0
3,1.7000000476837158,learn,58299.999952316284,Tue Apr 21 2026 13:12:46 GMT-0400 (Eastern Daylight Time),328719.0,A,body,I,y,334,1,1699.5,327019.5,9077,WL,C,1.0
3,2.049999952316284,learn,57950.000047683716,Tue Apr 21 2026 13:12:46 GMT-0400 (Eastern Daylight Time),329068.69999980927,A,bodyenter,I,enter,322,1,2049.199999809265,327019.5,9077,WL,C,1.0
3,2.434000015258789,learn,57565.99998474121,Tue Apr 21 2026 13:12:46 GMT-0400 (Eastern Daylight Time),329452.40000009537,A,s,I,s,360,1,383.40000009536743,329069.0,9077,WL,C,2.0
3,2.616999864578247,learn,57383.00013542175,Tue Apr 21 2026 13:12:46 GMT-0400 (Eastern Daylight Time),329635.69999980927,A,sh,I,h,167,1,566.6999998092651,329069.0,9077,WL,C,2.0
3,2.7170000076293945,learn,57282.999992370605,Tue Apr 21 2026 13:12:46 GMT-0400 (Eastern Daylight Time),329735.59999990463,A,sho,I,o,72,1,666.5999999046326,329069.0,9077,WL,C,2.0
3,2.9170000553131104,learn,57082.99994468689,Tue Apr 21 2026 13:12:46 GMT-0400 (Eastern Daylight Time),329935.69999980927,A,shor,I,r,181,1,866.6999998092651,329069.0,9077,WL,C,2.0
3,3.0169999599456787,learn,56983.00004005432,Tue Apr 21 2026 13:12:46 GMT-0400 (Eastern Daylight Time),330035.69999980927,A,shore,I,e,84,1,966.6999998092651,329069.0,9077,WL,C,2.0
3,3.25,learn,56750.0,Tue Apr 21 2026 13:12:46 GMT-0400 (Eastern Daylight Time),330268.59999990463,A,shoreenter,I,enter,207,1,1199.5999999046326,329069.0,9077,WL,C,2.0
3,3.7339999675750732,learn,56266.00003242493,Tue Apr 21 2026 13:12:46 GMT-0400 (Eastern Daylight Time),330752.40000009537,A,n,I,n,473,1,483.40000009536743,330269.0,9077,WL,C,3.0
3,3.8999998569488525,learn,56100.00014305115,Tue Apr 21 2026 13:12:46 GMT-0400 (Eastern Daylight Time),330918.90000009537,A,na,I,a,145,1,649.9000000953674,330269.0,9077,WL,C,3.0
3,4.049999952316284,learn,55950.000047683716,Tue Apr 21 2026 13:12:46 GMT-0400 (Eastern Daylight Time),331069.09999990463,A,nai,I,i,141,1,800.0999999046326,330269.0,9077,WL,C,3.0
3,4.16700005531311,learn,55832.99994468689,Tue Apr 21 2026 13:12:46 GMT-0400 (Eastern Daylight Time),331185.80000019073,A,nail,I,l,102,1,916.8000001907349,330269.0,9077,WL,C,3.0
3,4.5329999923706055,learn,55467.000007629395,Tue Apr 21 2026 13:12:46 GMT-0400 (Eastern Daylight Time),331552.0,A,nailenter,I,enter,352,1,1283.0,330269.0,9077,WL,C,3.0
3,4.866999864578247,learn,55133.00013542175,Tue Apr 21 2026 13:12:46 GMT-0400 (Eastern Daylight Time),331885.40000009537,A,c,I,c,327,1,333.09999990463257,331552.30000019073,9077,WL,C,4.0
3,5.016999959945679,learn,54983.00004005432,Tue Apr 21 2026 13:12:46 GMT-0400 (Eastern Daylight Time),332035.90000009537,A,ca,I,a,133,1,483.59999990463257,331552.30000019073,9077,WL,C,4.0
3,5.2829999923706055,learn,54717.000007629395,Tue Apr 21 2026 13:12:46 GMT-0400 (Eastern Daylight Time),332302.30000019073,A,cat,I,t,256,1,750.0,331552.30000019073,9077,WL,C,4.0
3,5.41700005531311,learn,54582.99994468689,Tue Apr 21 2026 13:12:46 GMT-0400 (Eastern Daylight Time),332435.59999990463,A,catt,I,t,109,1,883.2999997138977,331552.30000019073,9077,WL,C,4.0
3,6.833999872207642,learn,53166.00012779236,Tue Apr 21 2026 13:12:46 GMT-0400 (Eastern Daylight Time),333852.5,A,cattl,I,l,1391,1,2300.199999809265,331552.30000019073,9077,WL,C,4.0
3,7.0,learn,53000.0,Tue Apr 21 2026 13:12:46 GMT-0400 (Eastern Daylight Time),334019.0,A,cattle,I,e,151,1,2466.699999809265,331552.30000019073,9077,WL,C,4.0
3,7.483999967575073,learn,52516.00003242493,Tue Apr 21 2026 13:12:46 GMT-0400 (Eastern Daylight Time),334502.40000009537,A,cattl,I,backspace,457,1,2950.0999999046326,331552.30000019073,9077,WL,C,4.0
3,8.049999952316284,learn,51950.000047683716,Tue Apr 21 2026 13:12:46 GMT-0400 (Eastern Daylight Time),335069.0,A,catt,I,backspace,541,1,3516.699999809265,331552.30000019073,9077,WL,C,4.0
3,8.266999959945679,learn,51733.00004005432,Tue Apr 21 2026 13:12:46 GMT-0400 (Eastern Daylight Time),335285.80000019073,A,catte,I,e,197,1,3733.5,331552.30000019073,9077,WL,C,4.0
3,8.5,learn,51500.0,Tue Apr 21 2026 13:12:46 GMT-0400 (Eastern Daylight Time),335519.0,A,cattel,I,l,214,1,3966.699999809265,331552.30000019073,9077,WL,C,4.0
3,8.733999967575073,learn,51266.00003242493,Tue Apr 21 2026 13:12:46 GMT-0400 (Eastern Daylight Time),335753.0,A,cattelenter,I,enter,212,1,4200.699999809265,331552.30000019073,9077,WL,C,4.0
3,9.783999919891357,learn,50216.00008010864,Tue Apr 21 2026 13:12:46 GMT-0400 (Eastern Daylight Time),336802.30000019073,A,f,I,f,1037,1,1049.0,335753.30000019073,9077,WL,C,5.0
3,9.932999849319458,learn,50067.00015068054,Tue Apr 21 2026 13:12:46 GMT-0400 (Eastern Daylight Time),336952.30000019073,A,fl,I,l,129,1,1199.0,335753.30000019073,9077,WL,C,5.0
3,10.049999952316284,learn,49950.000047683716,Tue Apr 21 2026 13:12:46 GMT-0400 (Eastern Daylight Time),337069.09999990463,A,fla,I,a,84,1,1315.7999997138977,335753.30000019073,9077,WL,C,5.0
3,10.217000007629395,learn,49782.999992370605,Tue Apr 21 2026 13:12:46 GMT-0400 (Eastern Daylight Time),337235.80000019073,A,flag,I,g,144,1,1482.5,335753.30000019073,9077,WL,C,5.0
3,10.382999897003174,learn,49617.000102996826,Tue Apr 21 2026 13:12:46 GMT-0400 (Eastern Daylight Time),337401.90000009537,A,flagenter,I,enter,133,1,1648.5999999046326,335753.30000019073,9077,WL,C,5.0
3,11.032999992370605,learn,48967.000007629395,Tue Apr 21 2026 13:12:46 GMT-0400 (Eastern Daylight Time),338052.30000019073,A,l,I,l,637,1,649.9000000953674,337402.40000009537,9077,WL,C,6.0
3,11.133999824523926,learn,48866.000175476074,Tue Apr 21 2026 13:12:46 GMT-0400 (Eastern Daylight Time),338152.40000009537,A,le,I,e,76,1,750.0,337402.40000009537,9077,WL,C,6.0
3,11.399999856948853,learn,48600.00014305115,Tue Apr 21 2026 13:12:46 GMT-0400 (Eastern Daylight Time),338419.0,A,let,I,t,251,1,1016.5999999046326,337402.40000009537,9077,WL,C,6.0
3,11.58299994468689,learn,48417.00005531311,Tue Apr 21 2026 13:12:46 GMT-0400 (Eastern Daylight Time),338602.40000009537,A,lett,I,t,160,1,1200.0,337402.40000009537,9077,WL,C,6.0
3,11.66700005531311,learn,48332.99994468689,Tue Apr 21 2026 13:12:46 GMT-0400 (Eastern Daylight Time),338685.30000019073,A,lette,I,e,63,1,1282.9000000953674,337402.40000009537,9077,WL,C,6.0
3,11.799999952316284,learn,48200.000047683716,Tue Apr 21 2026 13:12:46 GMT-0400 (Eastern Daylight Time),338818.90000009537,A,letter,I,r,115,1,1416.5,337402.40000009537,9077,WL,C,6.0
3,11.932999849319458,learn,48067.00015068054,Tue Apr 21 2026 13:12:46 GMT-0400 (Eastern Daylight Time),338952.0,A,letterenter,I,enter,111,1,1549.5999999046326,337402.40000009537,9077,WL,C,6.0
3,12.133999824523926,learn,47866.000175476074,Tue Apr 21 2026 13:12:46 GMT-0400 (Eastern Daylight Time),339152.40000009537,A,c,I,c,191,1,200.09999990463257,338952.30000019073,9077,WL,C,7.0
3,12.283999919891357,learn,47716.00008010864,Tue Apr 21 2026 13:12:46 GMT-0400 (Eastern Daylight Time),339302.40000009537,A,co,I,o,130,1,350.09999990463257,338952.30000019073,9077,WL,C,7.0
3,12.483000040054321,learn,47516.99995994568,Tue Apr 21 2026 13:12:46 GMT-0400 (Eastern Daylight Time),339502.19999980927,A,cor,I,r,180,1,549.8999996185303,338952.30000019073,9077,WL,C,7.0
3,13.366999864578247,learn,46633.00013542175,Tue Apr 21 2026 13:12:46 GMT-0400 (Eastern Daylight Time),340385.69999980927,A,corn,I,n,869,1,1433.3999996185303,338952.30000019073,9077,WL,C,7.0
3,13.632999897003174,learn,46367.000102996826,Tue Apr 21 2026 13:12:46 GMT-0400 (Eastern Daylight Time),340651.90000009537,A,cornenter,I,enter,240,1,1699.5999999046326,338952.30000019073,9077,WL,C,7.0
3,15.283999919891357,learn,44716.00008010864,Tue Apr 21 2026 13:12:46 GMT-0400 (Eastern Daylight Time),342302.40000009537,A,d,I,d,1642,1,1650.0999999046326,340652.30000019073,9077,WL,C,8.0
3,15.450000047683716,learn,44549.999952316284,Tue Apr 21 2026 13:12:46 GMT-0400 (Eastern Daylight Time),342468.90000009537,A,do,I,o,149,1,1816.5999999046326,340652.30000019073,9077,WL,C,8.0
3,15.583999872207642,learn,44416.00012779236,Tue Apr 21 2026 13:12:46 GMT-0400 (Eastern Daylight Time),342602.40000009537,A,doc,I,c,102,1,1950.0999999046326,340652.30000019073,9077,WL,C,8.0
3,15.899999856948853,learn,44100.00014305115,Tue Apr 21 2026 13:12:46 GMT-0400 (Eastern Daylight Time),342919.0,A,doct,I,t,297,1,2266.699999809265,340652.30000019073,9077,WL,C,8.0
3,16.01699995994568,learn,43983.00004005432,Tue Apr 21 2026 13:12:46 GMT-0400 (Eastern Daylight Time),343035.80000019073,A,docto,I,o,89,1,2383.5,340652.30000019073,9077,WL,C,8.0
3,16.149999856948853,learn,43850.00014305115,Tue Apr 21 2026 13:12:46 GMT-0400 (Eastern Daylight Time),343169.09999990463,A,doctor,I,r,119,1,2516.7999997138977,340652.30000019073,9077,WL,C,8.0
3,16.382999897003174,learn,43617.000102996826,Tue Apr 21 2026 13:12:46 GMT-0400 (Eastern Daylight Time),343401.90000009537,A,doctorenter,I,enter,210,1,2749.5999999046326,340652.30000019073,9077,WL,C,8.0
3,18.01699995994568,learn,41983.00004005432,Tue Apr 21 2026 13:12:46 GMT-0400 (Eastern Daylight Time),345035.69999980927,A,b,I,b,1612,1,1633.5,343402.19999980927,9077,WL,C,9.0
3,18.217000007629395,learn,41782.999992370605,Tue Apr 21 2026 13:12:46 GMT-0400 (Eastern Daylight Time),345235.80000019073,A,bo,I,o,183,1,1833.6000003814697,343402.19999980927,9077,WL,C,9.0
3,18.68400001525879,learn,41315.99998474121,Tue Apr 21 2026 13:12:46 GMT-0400 (Eastern Daylight Time),345702.40000009537,A,boy,I,y,447,1,2300.2000002861023,343402.19999980927,9077,WL,C,9.0
3,18.950000047683716,learn,41049.999952316284,Tue Apr 21 2026 13:12:46 GMT-0400 (Eastern Daylight Time),345968.59999990463,A,boyenter,I,enter,252,1,2566.4000000953674,343402.19999980927,9077,WL,C,9.0
3,19.26699995994568,learn,40733.00004005432,Tue Apr 21 2026 13:12:46 GMT-0400 (Eastern Daylight Time),346285.5,A,h,I,h,310,1,316.5,345969.0,9077,WL,C,10.0
3,19.41700005531311,learn,40582.99994468689,Tue Apr 21 2026 13:12:46 GMT-0400 (Eastern Daylight Time),346435.69999980927,A,ho,I,o,134,1,466.69999980926514,345969.0,9077,WL,C,10.0
3,19.66700005531311,learn,40332.99994468689,Tue Apr 21 2026 13:12:46 GMT-0400 (Eastern Daylight Time),346685.5,A,hom,I,m,239,1,716.5,345969.0,9077,WL,C,10.0
3,19.882999897003174,learn,40117.000102996826,Tue Apr 21 2026 13:12:46 GMT-0400 (Eastern Daylight Time),346902.30000019073,A,home,I,e,198,1,933.3000001907349,345969.0,9077,WL,C,10.0
3,20.016000032424927,learn,39983.99996757507,Tue Apr 21 2026 13:12:46 GMT-0400 (Eastern Daylight Time),347035.09999990463,A,homeenter,I,enter,107,1,1066.0999999046326,345969.0,9077,WL,C,10.0
3,20.383999824523926,learn,39616.000175476074,Tue Apr 21 2026 13:12:46 GMT-0400 (Eastern Daylight Time),347402.30000019073,A,c,I,c,347,1,366.80000019073486,347035.5,9077,WL,C,11.0
3,20.48300004005432,learn,39516.99995994568,Tue Apr 21 2026 13:12:46 GMT-0400 (Eastern Daylight Time),347502.19999980927,A,ca,I,a,89,1,466.69999980926514,347035.5,9077,WL,C,11.0
3,20.73300004005432,learn,39266.99995994568,Tue Apr 21 2026 13:12:46 GMT-0400 (Eastern Daylight Time),347752.19999980927,A,cam,I,m,222,1,716.6999998092651,347035.5,9077,WL,C,11.0
3,20.866999864578247,learn,39133.00013542175,Tue Apr 21 2026 13:12:46 GMT-0400 (Eastern Daylight Time),347885.40000009537,A,camp,I,p,122,1,849.9000000953674,347035.5,9077,WL,C,11.0
3,21.41700005531311,learn,38582.99994468689,Tue Apr 21 2026 13:12:46 GMT-0400 (Eastern Daylight Time),348436.19999980927,A,campenter,I,enter,533,1,1400.6999998092651,347035.5,9077,WL,C,11.0
3,22.5,learn,37500.0,Tue Apr 21 2026 13:12:46 GMT-0400 (Eastern Daylight Time),349519.0,A,q,I,q,1074,1,1082.3000001907349,348436.69999980927,9077,WL,C,12.0
3,22.700000047683716,learn,37299.999952316284,Tue Apr 21 2026 13:12:46 GMT-0400 (Eastern Daylight Time),349719.0,A,qu,I,u,179,1,1282.3000001907349,348436.69999980927,9077,WL,C,12.0
3,22.84999990463257,learn,37150.00009536743,Tue Apr 21 2026 13:12:46 GMT-0400 (Eastern Daylight Time),349868.90000009537,A,que,I,e,118,1,1432.2000002861023,348436.69999980927,9077,WL,C,12.0
3,23.01699995994568,learn,36983.00004005432,Tue Apr 21 2026 13:12:46 GMT-0400 (Eastern Daylight Time),350035.69999980927,A,quee,I,e,150,1,1599.0,348436.69999980927,9077,WL,C,12.0
3,23.66700005531311,learn,36332.99994468689,Tue Apr 21 2026 13:12:46 GMT-0400 (Eastern Daylight Time),350685.40000009537,A,queen,I,n,639,1,2248.7000002861023,348436.69999980927,9077,WL,C,12.0
3,23.899999856948853,learn,36100.00014305115,Tue Apr 21 2026 13:12:46 GMT-0400 (Eastern Daylight Time),350918.5,A,queenenter,I,enter,213,1,2481.800000190735,348436.69999980927,9077,WL,C,12.0
3,24.299999952316284,learn,35700.000047683716,Tue Apr 21 2026 13:12:46 GMT-0400 (Eastern Daylight Time),351318.90000009537,A,w,I,w,384,1,400.0,350918.90000009537,9077,WL,C,13.0
3,24.450000047683716,learn,35549.999952316284,Tue Apr 21 2026 13:12:46 GMT-0400 (Eastern Daylight Time),351468.80000019073,A,wh,I,h,124,1,549.9000000953674,350918.90000009537,9077,WL,C,13.0
3,24.533999919891357,learn,35466.00008010864,Tue Apr 21 2026 13:12:46 GMT-0400 (Eastern Daylight Time),351552.40000009537,A,whe,I,e,70,1,633.5,350918.90000009537,9077,WL,C,13.0
3,24.700000047683716,learn,35299.999952316284,Tue Apr 21 2026 13:12:46 GMT-0400 (Eastern Daylight Time),351718.80000019073,A,whea,I,a,148,1,799.9000000953674,350918.90000009537,9077,WL,C,13.0
3,24.91700005531311,learn,35082.99994468689,Tue Apr 21 2026 13:12:46 GMT-0400 (Eastern Daylight Time),351935.59999990463,A,wheat,I,t,203,1,1016.6999998092651,350918.90000009537,9077,WL,C,13.0
3,25.06599998474121,learn,34934.00001525879,Tue Apr 21 2026 13:12:46 GMT-0400 (Eastern Daylight Time),352085.19999980927,A,wheatenter,I,enter,130,1,1166.2999997138977,350918.90000009537,9077,WL,C,13.0
3,26.899999856948853,learn,33100.00014305115,Tue Apr 21 2026 13:12:46 GMT-0400 (Eastern Daylight Time),353919.0,A,t,I,t,1826,1,1833.4000000953674,352085.59999990463,9077,WL,C,14.0
3,27.08299994468689,learn,32917.00005531311,Tue Apr 21 2026 13:12:46 GMT-0400 (Eastern Daylight Time),354102.09999990463,A,to,I,o,162,1,2016.5,352085.59999990463,9077,WL,C,14.0
3,27.149999856948853,learn,32850.00014305115,Tue Apr 21 2026 13:12:46 GMT-0400 (Eastern Daylight Time),354168.5,A,tow,I,w,37,1,2082.9000000953674,352085.59999990463,9077,WL,C,14.0
3,27.282999992370605,learn,32717.000007629395,Tue Apr 21 2026 13:12:46 GMT-0400 (Eastern Daylight Time),354302.30000019073,A,towe,I,e,124,1,2216.7000002861023,352085.59999990463,9077,WL,C,14.0
3,27.483999967575073,learn,32516.000032424927,Tue Apr 21 2026 13:12:46 GMT-0400 (Eastern Daylight Time),354502.40000009537,A,tower,I,r,174,1,2416.800000190735,352085.59999990463,9077,WL,C,14.0
3,27.700000047683716,learn,32299.999952316284,Tue Apr 21 2026 13:12:46 GMT-0400 (Eastern Daylight Time),354718.5,A,towerenter,I,enter,203,1,2632.9000000953674,352085.59999990463,9077,WL,C,14.0
3,29.899999856948853,learn,30100.000143051147,Tue Apr 21 2026 13:12:46 GMT-0400 (Eastern Daylight Time),356918.80000019073,A,s,I,s,2184,1,2199.9000000953674,354718.90000009537,9077,WL,C,15.0
3,30.08299994468689,learn,29917.00005531311,Tue Apr 21 2026 13:12:46 GMT-0400 (Eastern Daylight Time),357102.30000019073,A,su,I,u,170,1,2383.4000000953674,354718.90000009537,9077,WL,C,15.0
3,30.283999919891357,learn,29716.000080108643,Tue Apr 21 2026 13:12:46 GMT-0400 (Eastern Daylight Time),357302.30000019073,A,sug,I,g,182,1,2583.4000000953674,354718.90000009537,9077,WL,C,15.0
3,30.48300004005432,learn,29516.99995994568,Tue Apr 21 2026 13:12:46 GMT-0400 (Eastern Daylight Time),357502.19999980927,A,suga,I,a,189,1,2783.2999997138977,354718.90000009537,9077,WL,C,15.0
3,30.616999864578247,learn,29383.000135421753,Tue Apr 21 2026 13:12:46 GMT-0400 (Eastern Daylight Time),357635.59999990463,A,sugar,I,r,117,1,2916.699999809265,354718.90000009537,9077,WL,C,15.0
3,31.250999927520752,learn,28749.000072479248,Tue Apr 21 2026 13:12:46 GMT-0400 (Eastern Daylight Time),358269.40000009537,A,sugarenter,I,enter,622,1,3550.5,354718.90000009537,9077,WL,C,15.0
4,1.7839999198913574,learn,58216.00008010864,Tue Apr 21 2026 13:12:46 GMT-0400 (Eastern Daylight Time),429852.40000009537,A,t,I,t,1758,1,1782.9000000953674,428069.5,9077,WL,C,1.0
4,1.9500000476837158,learn,58049.999952316284,Tue Apr 21 2026 13:12:46 GMT-0400 (Eastern Daylight Time),430018.90000009537,A,to,I,o,147,1,1949.4000000953674,428069.5,9077,WL,C,1.0
4,2.049999952316284,learn,57950.000047683716,Tue Apr 21 2026 13:12:46 GMT-0400 (Eastern Daylight Time),430118.69999980927,A,tow,I,w,80,1,2049.199999809265,428069.5,9077,WL,C,1.0
4,2.200000047683716,learn,57799.999952316284,Tue Apr 21 2026 13:12:46 GMT-0400 (Eastern Daylight Time),430268.69999980927,A,towe,I,e,118,1,2199.199999809265,428069.5,9077,WL,C,1.0
4,2.382999897003174,learn,57617.000102996826,Tue Apr 21 2026 13:12:46 GMT-0400 (Eastern Daylight Time),430452.19999980927,A,tower,I,r,167,1,2382.699999809265,428069.5,9077,WL,C,1.0
4,3.0160000324249268,learn,56983.99996757507,Tue Apr 21 2026 13:12:46 GMT-0400 (Eastern Daylight Time),431085.09999990463,A,towerenter,I,enter,622,1,3015.5999999046326,428069.5,9077,WL,C,1.0
4,3.4000000953674316,learn,56599.99990463257,Tue Apr 21 2026 13:12:46 GMT-0400 (Eastern Daylight Time),431469.0,A,w,I,w,376,1,383.59999990463257,431085.40000009537,9077,WL,C,2.0
4,3.8329999446868896,learn,56167.00005531311,Tue Apr 21 2026 13:12:46 GMT-0400 (Eastern Daylight Time),431902.30000019073,A,wh,I,h,420,1,816.9000000953674,431085.40000009537,9077,WL,C,2.0
4,3.950000047683716,learn,56049.999952316284,Tue Apr 21 2026 13:12:46 GMT-0400 (Eastern Daylight Time),432019.0,A,whe,I,e,101,1,933.5999999046326,431085.40000009537,9077,WL,C,2.0
4,4.117000102996826,learn,55882.999897003174,Tue Apr 21 2026 13:12:46 GMT-0400 (Eastern Daylight Time),432185.59999990463,A,whea,I,a,144,1,1100.1999998092651,431085.40000009537,9077,WL,C,2.0
4,4.382999897003174,learn,55617.000102996826,Tue Apr 21 2026 13:12:46 GMT-0400 (Eastern Daylight Time),432452.09999990463,A,wheat,I,t,240,1,1366.6999998092651,431085.40000009537,9077,WL,C,2.0
4,4.650000095367432,learn,55349.99990463257,Tue Apr 21 2026 13:12:46 GMT-0400 (Eastern Daylight Time),432718.5,A,wheatenter,I,enter,254,1,1633.0999999046326,431085.40000009537,9077,WL,C,2.0
4,5.349999904632568,learn,54650.00009536743,Tue Apr 21 2026 13:12:46 GMT-0400 (Eastern Daylight Time),433418.80000019073,A,q,I,q,679,1,699.9000000953674,432718.90000009537,9077,WL,C,3.0
4,5.549999952316284,learn,54450.000047683716,Tue Apr 21 2026 13:12:46 GMT-0400 (Eastern Daylight Time),433618.90000009537,A,qu,I,u,184,1,900.0,432718.90000009537,9077,WL,C,3.0
4,5.66700005531311,learn,54332.99994468689,Tue Apr 21 2026 13:12:46 GMT-0400 (Eastern Daylight Time),433735.59999990463,A,que,I,e,96,1,1016.6999998092651,432718.90000009537,9077,WL,C,3.0
4,5.867000102996826,learn,54132.999897003174,Tue Apr 21 2026 13:12:46 GMT-0400 (Eastern Daylight Time),433935.5,A,quee,I,e,187,1,1216.5999999046326,432718.90000009537,9077,WL,C,3.0
4,6.5,learn,53500.0,Tue Apr 21 2026 13:12:46 GMT-0400 (Eastern Daylight Time),434568.80000019073,A,queen,I,n,603,1,1849.9000000953674,432718.90000009537,9077,WL,C,3.0
4,6.766000032424927,learn,53233.99996757507,Tue Apr 21 2026 13:12:46 GMT-0400 (Eastern Daylight Time),434835.19999980927,A,queenenter,I,enter,247,1,2116.2999997138977,432718.90000009537,9077,WL,C,3.0
4,7.367000102996826,learn,52632.999897003174,Tue Apr 21 2026 13:12:46 GMT-0400 (Eastern Daylight Time),435435.59999990463,A,s,I,s,579,1,600.1999998092651,434835.40000009537,9077,WL,C,4.0
4,7.516999959945679,learn,52483.00004005432,Tue Apr 21 2026 13:12:46 GMT-0400 (Eastern Daylight Time),435585.5,A,su,I,u,136,1,750.0999999046326,434835.40000009537,9077,WL,C,4.0
4,7.7829999923706055,learn,52217.000007629395,Tue Apr 21 2026 13:12:46 GMT-0400 (Eastern Daylight Time),435852.30000019073,A,sug,I,g,234,1,1016.9000000953674,434835.40000009537,9077,WL,C,4.0
4,7.933000087738037,learn,52066.99991226196,Tue Apr 21 2026 13:12:46 GMT-0400 (Eastern Daylight Time),436002.19999980927,A,suga,I,a,132,1,1166.7999997138977,434835.40000009537,9077,WL,C,4.0
4,8.115999937057495,learn,51884.000062942505,Tue Apr 21 2026 13:12:46 GMT-0400 (Eastern Daylight Time),436185.19999980927,A,sugar,I,r,160,1,1349.7999997138977,434835.40000009537,9077,WL,C,4.0
4,8.683000087738037,learn,51316.99991226196,Tue Apr 21 2026 13:12:46 GMT-0400 (Eastern Daylight Time),436751.80000019073,A,sugarenter,I,enter,555,1,1916.4000000953674,434835.40000009537,9077,WL,C,4.0
4,9.200000047683716,learn,50799.999952316284,Tue Apr 21 2026 13:12:46 GMT-0400 (Eastern Daylight Time),437268.80000019073,A,b,I,b,501,1,516.5,436752.30000019073,9077,WL,C,5.0
4,9.349999904632568,learn,50650.00009536743,Tue Apr 21 2026 13:12:46 GMT-0400 (Eastern Daylight Time),437418.80000019073,A,bo,I,o,126,1,666.5,436752.30000019073,9077,WL,C,5.0
4,9.599999904632568,learn,50400.00009536743,Tue Apr 21 2026 13:12:46 GMT-0400 (Eastern Daylight Time),437668.80000019073,A,boy,I,y,222,1,916.5,436752.30000019073,9077,WL,C,5.0
4,9.950000047683716,learn,50049.999952316284,Tue Apr 21 2026 13:12:46 GMT-0400 (Eastern Daylight Time),438018.40000009537,A,boyenter,I,enter,334,1,1266.0999999046326,436752.30000019073,9077,WL,C,5.0
4,10.483000040054321,learn,49516.99995994568,Tue Apr 21 2026 13:12:46 GMT-0400 (Eastern Daylight Time),438552.09999990463,A,d,I,d,517,1,533.5,438018.59999990463,9077,WL,C,6.0
4,10.599999904632568,learn,49400.00009536743,Tue Apr 21 2026 13:12:46 GMT-0400 (Eastern Daylight Time),438668.90000009537,A,do,I,o,103,1,650.3000001907349,438018.59999990463,9077,WL,C,6.0
4,10.75,learn,49250.0,Tue Apr 21 2026 13:12:46 GMT-0400 (Eastern Daylight Time),438818.80000019073,A,doc,I,c,134,1,800.2000002861023,438018.59999990463,9077,WL,C,6.0
4,11.733000040054321,learn,48266.99995994568,Tue Apr 21 2026 13:12:46 GMT-0400 (Eastern Daylight Time),439802.30000019073,A,doct,I,t,961,1,1783.7000002861023,438018.59999990463,9077,WL,C,6.0
4,11.900000095367432,learn,48099.99990463257,Tue Apr 21 2026 13:12:46 GMT-0400 (Eastern Daylight Time),439968.80000019073,A,docto,I,o,150,1,1950.2000002861023,438018.59999990463,9077,WL,C,6.0
4,12.16700005531311,learn,47832.99994468689,Tue Apr 21 2026 13:12:46 GMT-0400 (Eastern Daylight Time),440235.59999990463,A,doctor,I,r,232,1,2217.0,438018.59999990463,9077,WL,C,6.0
4,13.08299994468689,learn,46917.00005531311,Tue Apr 21 2026 13:12:46 GMT-0400 (Eastern Daylight Time),441151.80000019073,A,doctorenter,I,enter,903,1,3133.2000002861023,438018.59999990463,9077,WL,C,6.0
4,16.049999952316284,learn,43950.000047683716,Tue Apr 21 2026 13:12:46 GMT-0400 (Eastern Daylight Time),444118.69999980927,A,c,I,c,2950,1,2966.5,441152.19999980927,9077,WL,C,7.0
4,16.183000087738037,learn,43816.99991226196,Tue Apr 21 2026 13:12:46 GMT-0400 (Eastern Daylight Time),444252.30000019073,A,ca,I,a,108,1,3100.1000003814697,441152.19999980927,9077,WL,C,7.0
4,16.316999912261963,learn,43683.00008773804,Tue Apr 21 2026 13:12:46 GMT-0400 (Eastern Daylight Time),444385.59999990463,A,cam,I,m,119,1,3233.4000000953674,441152.19999980927,9077,WL,C,7.0
4,16.467000007629395,learn,43532.999992370605,Tue Apr 21 2026 13:12:46 GMT-0400 (Eastern Daylight Time),444535.59999990463,A,camp,I,p,121,1,3383.4000000953674,441152.19999980927,9077,WL,C,7.0
4,17.365999937057495,learn,42634.000062942505,Tue Apr 21 2026 13:12:46 GMT-0400 (Eastern Daylight Time),445435.09999990463,A,campenter,I,enter,874,1,4282.900000095367,441152.19999980927,9077,WL,C,7.0
4,17.617000102996826,learn,42382.999897003174,Tue Apr 21 2026 13:12:46 GMT-0400 (Eastern Daylight Time),445685.5,A,s,I,s,236,1,250.09999990463257,445435.40000009537,9077,WL,C,8.0
4,17.81599998474121,learn,42184.00001525879,Tue Apr 21 2026 13:12:46 GMT-0400 (Eastern Daylight Time),445885.30000019073,A,sh,I,h,190,1,449.90000009536743,445435.40000009537,9077,WL,C,8.0
4,17.933000087738037,learn,42066.99991226196,Tue Apr 21 2026 13:12:46 GMT-0400 (Eastern Daylight Time),446002.19999980927,A,sho,I,o,102,1,566.7999997138977,445435.40000009537,9077,WL,C,8.0
4,18.066999912261963,learn,41933.00008773804,Tue Apr 21 2026 13:12:46 GMT-0400 (Eastern Daylight Time),446135.5,A,shor,I,r,113,1,700.0999999046326,445435.40000009537,9077,WL,C,8.0
4,18.151000022888184,learn,41848.99997711182,Tue Apr 21 2026 13:12:46 GMT-0400 (Eastern Daylight Time),446220.0,A,shore,I,e,67,1,784.5999999046326,445435.40000009537,9077,WL,C,8.0
4,18.40000009536743,learn,41599.99990463257,Tue Apr 21 2026 13:12:46 GMT-0400 (Eastern Daylight Time),446468.5,A,shoreenter,I,enter,232,1,1033.0999999046326,445435.40000009537,9077,WL,C,8.0
4,19.40000009536743,learn,40599.99990463257,Tue Apr 21 2026 13:12:46 GMT-0400 (Eastern Daylight Time),447469.0,A,f,I,f,994,1,1000.1999998092651,446468.80000019073,9077,WL,C,9.0
4,19.566999912261963,learn,40433.00008773804,Tue Apr 21 2026 13:12:46 GMT-0400 (Eastern Daylight Time),447635.5,A,fl,I,l,149,1,1166.6999998092651,446468.80000019073,9077,WL,C,9.0
4,19.65000009536743,learn,40349.99990463257,Tue Apr 21 2026 13:12:46 GMT-0400 (Eastern Daylight Time),447718.69999980927,A,fla,I,a,56,1,1249.8999996185303,446468.80000019073,9077,WL,C,9.0
4,19.816999912261963,learn,40183.00008773804,Tue Apr 21 2026 13:12:46 GMT-0400 (Eastern Daylight Time),447885.30000019073,A,flag,I,g,149,1,1416.5,446468.80000019073,9077,WL,C,9.0
4,19.98300004005432,learn,40016.99995994568,Tue Apr 21 2026 13:12:46 GMT-0400 (Eastern Daylight Time),448051.69999980927,A,flagenter,I,enter,141,1,1582.8999996185303,446468.80000019073,9077,WL,C,9.0
4,20.316999912261963,learn,39683.00008773804,Tue Apr 21 2026 13:12:46 GMT-0400 (Eastern Daylight Time),448385.5,A,n,I,n,322,1,333.5,448052.0,9077,WL,C,10.0
4,20.433000087738037,learn,39566.99991226196,Tue Apr 21 2026 13:12:46 GMT-0400 (Eastern Daylight Time),448502.19999980927,A,na,I,a,97,1,450.19999980926514,448052.0,9077,WL,C,10.0
4,20.58299994468689,learn,39417.00005531311,Tue Apr 21 2026 13:12:46 GMT-0400 (Eastern Daylight Time),448652.19999980927,A,nai,I,i,124,1,600.1999998092651,448052.0,9077,WL,C,10.0
4,20.76699995994568,learn,39233.00004005432,Tue Apr 21 2026 13:12:46 GMT-0400 (Eastern Daylight Time),448835.59999990463,A,nail,I,l,159,1,783.5999999046326,448052.0,9077,WL,C,10.0
4,21.016000032424927,learn,38983.99996757507,Tue Apr 21 2026 13:12:46 GMT-0400 (Eastern Daylight Time),449085.0,A,nailenter,I,enter,238,1,1033.0,448052.0,9077,WL,C,10.0
4,21.282999992370605,learn,38717.000007629395,Tue Apr 21 2026 13:12:46 GMT-0400 (Eastern Daylight Time),449352.19999980927,A,c,I,c,248,1,266.7999997138977,449085.40000009537,9077,WL,C,11.0
4,21.40000009536743,learn,38599.99990463257,Tue Apr 21 2026 13:12:46 GMT-0400 (Eastern Daylight Time),449468.90000009537,A,ca,I,a,90,1,383.5,449085.40000009537,9077,WL,C,11.0
4,21.700000047683716,learn,38299.999952316284,Tue Apr 21 2026 13:12:46 GMT-0400 (Eastern Daylight Time),449768.80000019073,A,cat,I,t,278,1,683.4000000953674,449085.40000009537,9077,WL,C,11.0
4,21.83299994468689,learn,38167.00005531311,Tue Apr 21 2026 13:12:46 GMT-0400 (Eastern Daylight Time),449902.19999980927,A,catt,I,t,122,1,816.7999997138977,449085.40000009537,9077,WL,C,11.0
4,22.066999912261963,learn,37933.00008773804,Tue Apr 21 2026 13:12:46 GMT-0400 (Eastern Daylight Time),450135.59999990463,A,cattl,I,l,212,1,1050.1999998092651,449085.40000009537,9077,WL,C,11.0
4,22.200000047683716,learn,37799.999952316284,Tue Apr 21 2026 13:12:46 GMT-0400 (Eastern Daylight Time),450268.69999980927,A,cattle,I,e,99,1,1183.2999997138977,449085.40000009537,9077,WL,C,11.0
4,22.33299994468689,learn,37667.00005531311,Tue Apr 21 2026 13:12:46 GMT-0400 (Eastern Daylight Time),450401.69999980927,A,cattleenter,I,enter,117,1,1316.2999997138977,449085.40000009537,9077,WL,C,11.0
4,25.382999897003174,learn,34617.000102996826,Tue Apr 21 2026 13:12:46 GMT-0400 (Eastern Daylight Time),453452.09999990463,A,b,I,b,3028,1,3050.0999999046326,450402.0,9077,WL,C,12.0
4,25.549999952316284,learn,34450.000047683716,Tue Apr 21 2026 13:12:46 GMT-0400 (Eastern Daylight Time),453618.90000009537,A,bo,I,o,151,1,3216.9000000953674,450402.0,9077,WL,C,12.0
4,26.23300004005432,learn,33766.99995994568,Tue Apr 21 2026 13:12:46 GMT-0400 (Eastern Daylight Time),454302.19999980927,A,bod,I,d,671,1,3900.199999809265,450402.0,9077,WL,C,12.0
4,26.40000009536743,learn,33599.99990463257,Tue Apr 21 2026 13:12:46 GMT-0400 (Eastern Daylight Time),454468.80000019073,A,body,I,y,146,1,4066.800000190735,450402.0,9077,WL,C,12.0
4,26.716000080108643,learn,33283.99991989136,Tue Apr 21 2026 13:12:46 GMT-0400 (Eastern Daylight Time),454785.0,A,bodyenter,I,enter,294,1,4383.0,450402.0,9077,WL,C,12.0
4,39.16700005531311,learn,20832.99994468689,Tue Apr 21 2026 13:12:46 GMT-0400 (Eastern Daylight Time),467235.5,A,f,I,f,12437,1,12450.099999904633,454785.40000009537,9077,WL,C,13.0
4,39.549999952316284,learn,20450.000047683716,Tue Apr 21 2026 13:12:46 GMT-0400 (Eastern Daylight Time),467618.90000009537,A,fl,I,l,367,1,12833.5,454785.40000009537,9077,WL,C,13.0
4,39.967000007629395,learn,20032.999992370605,Tue Apr 21 2026 13:12:46 GMT-0400 (Eastern Daylight Time),468035.40000009537,A,fla,I,a,400,1,13250.0,454785.40000009537,9077,WL,C,13.0
4,40.200000047683716,learn,19799.999952316284,Tue Apr 21 2026 13:12:46 GMT-0400 (Eastern Daylight Time),468268.90000009537,A,flag,I,g,223,1,13483.5,454785.40000009537,9077,WL,C,13.0
4,40.532999992370605,learn,19467.000007629395,Tue Apr 21 2026 13:12:46 GMT-0400 (Eastern Daylight Time),468601.69999980927,A,flagenter,I,enter,308,1,13816.299999713898,454785.40000009537,9077,WL,C,13.0
4,43.882999897003174,learn,16117.000102996826,Tue Apr 21 2026 13:12:46 GMT-0400 (Eastern Daylight Time),471952.09999990463,A,l,I,l,3340,1,3350.0,468602.09999990463,9077,WL,C,14.0
4,43.98300004005432,learn,16016.999959945679,Tue Apr 21 2026 13:12:46 GMT-0400 (Eastern Daylight Time),472052.09999990463,A,le,I,e,82,1,3450.0,468602.09999990463,9077,WL,C,14.0
4,44.217000007629395,learn,15782.999992370605,Tue Apr 21 2026 13:12:46 GMT-0400 (Eastern Daylight Time),472285.30000019073,A,let,I,t,223,1,3683.2000002861023,468602.09999990463,9077,WL,C,14.0
4,44.382999897003174,learn,15617.000102996826,Tue Apr 21 2026 13:12:46 GMT-0400 (Eastern Daylight Time),472452.09999990463,A,lett,I,t,150,1,3850.0,468602.09999990463,9077,WL,C,14.0
4,44.532999992370605,learn,15467.000007629395,Tue Apr 21 2026 13:12:46 GMT-0400 (Eastern Daylight Time),472602.09999990463,A,lette,I,e,125,1,4000.0,468602.09999990463,9077,WL,C,14.0
4,44.632999897003174,learn,15367.000102996826,Tue Apr 21 2026 13:12:46 GMT-0400 (Eastern Daylight Time),472702.09999990463,A,letter,I,r,80,1,4100.0,468602.09999990463,9077,WL,C,14.0
4,44.799999952316284,learn,15200.000047683716,Tue Apr 21 2026 13:12:46 GMT-0400 (Eastern Daylight Time),472869.19999980927,A,letterenter,I,enter,149,1,4267.099999904633,468602.09999990463,9077,WL,C,14.0
4,45.0,learn,15000.0,Tue Apr 21 2026 13:12:46 GMT-0400 (Eastern Daylight Time),473069.09999990463,A,c,I,c,193,1,199.40000009536743,472869.69999980927,9077,WL,C,15.0
4,45.15000009536743,learn,14849.999904632568,Tue Apr 21 2026 13:12:46 GMT-0400 (Eastern Daylight Time),473218.80000019073,A,co,I,o,134,1,349.1000003814697,472869.69999980927,9077,WL,C,15.0
4,45.33299994468689,learn,14667.00005531311,Tue Apr 21 2026 13:12:46 GMT-0400 (Eastern Daylight Time),473402.09999990463,A,cor,I,r,158,1,532.4000000953674,472869.69999980927,9077,WL,C,15.0
4,46.700000047683716,learn,13299.999952316284,Tue Apr 21 2026 13:12:46 GMT-0400 (Eastern Daylight Time),474768.69999980927,A,corn,I,n,1352,1,1899.0,472869.69999980927,9077,WL,C,15.0
4,47.01600003242493,learn,12983.999967575073,Tue Apr 21 2026 13:12:46 GMT-0400 (Eastern Daylight Time),475085.0,A,cornenter,I,enter,305,1,2215.300000190735,472869.69999980927,9077,WL,C,15.0
5,0.6499998569488525,learn,60000.0,Tue Apr 21 2026 13:12:46 GMT-0400 (Eastern Daylight Time),547619.0999999046,A,t,I,t,635,1,650.0,546969.0999999046,9077,WL,C,1.0
5,0.8999998569488525,learn,60000.0,Tue Apr 21 2026 13:12:46 GMT-0400 (Eastern Daylight Time),547868.8000001907,A,to,I,o,240,1,899.7000002861023,546969.0999999046,9077,WL,C,1.0
5,1.0329999923706055,learn,60000.0,Tue Apr 21 2026 13:12:46 GMT-0400 (Eastern Daylight Time),548002.0,A,tow,I,w,118,1,1032.9000000953674,546969.0999999046,9077,WL,C,1.0
5,1.1499998569488525,learn,60000.0,Tue Apr 21 2026 13:12:46 GMT-0400 (Eastern Daylight Time),548118.6999998093,A,towe,I,e,97,1,1149.5999999046326,546969.0999999046,9077,WL,C,1.0
5,1.3829998970031738,learn,60000.0,Tue Apr 21 2026 13:12:46 GMT-0400 (Eastern Daylight Time),548352.0,A,tower,I,r,211,1,1382.9000000953674,546969.0999999046,9077,WL,C,1.0
5,1.6989998817443848,learn,60000.0,Tue Apr 21 2026 13:12:46 GMT-0400 (Eastern Daylight Time),548668.0999999046,A,towerenter,I,enter,306,1,1699.0,546969.0999999046,9077,WL,C,1.0
5,2.0,learn,60000.0,Tue Apr 21 2026 13:12:46 GMT-0400 (Eastern Daylight Time),548968.6999998093,A,w,I,w,282,1,300.3999996185303,548668.3000001907,9077,WL,C,2.0
5,2.115999937057495,learn,60000.0,Tue Apr 21 2026 13:12:46 GMT-0400 (Eastern Daylight Time),549085.0999999046,A,wh,I,h,106,1,416.7999997138977,548668.3000001907,9077,WL,C,2.0
5,2.25,learn,60000.0,Tue Apr 21 2026 13:12:46 GMT-0400 (Eastern Daylight Time),549218.5999999046,A,whe,I,e,119,1,550.2999997138977,548668.3000001907,9077,WL,C,2.0
5,2.432999849319458,learn,60000.0,Tue Apr 21 2026 13:12:46 GMT-0400 (Eastern Daylight Time),549402.0999999046,A,whea,I,a,153,1,733.7999997138977,548668.3000001907,9077,WL,C,2.0
5,2.6499998569488525,learn,60000.0,Tue Apr 21 2026 13:12:46 GMT-0400 (Eastern Daylight Time),549618.6999998093,A,wheat,I,t,200,1,950.3999996185303,548668.3000001907,9077,WL,C,2.0
5,2.865999937057495,learn,60000.0,Tue Apr 21 2026 13:12:46 GMT-0400 (Eastern Daylight Time),549835.0,A,wheatenter,I,enter,191,1,1166.6999998092651,548668.3000001907,9077,WL,C,2.0
5,3.0999999046325684,learn,60000.0,Tue Apr 21 2026 13:12:46 GMT-0400 (Eastern Daylight Time),550068.5999999046,A,q,I,q,218,1,233.19999980926514,549835.4000000954,9077,WL,C,3.0
5,3.299999952316284,learn,60000.0,Tue Apr 21 2026 13:12:46 GMT-0400 (Eastern Daylight Time),550268.5,A,qu,I,u,170,1,433.09999990463257,549835.4000000954,9077,WL,C,3.0
5,3.3999998569488525,learn,60000.0,Tue Apr 21 2026 13:12:46 GMT-0400 (Eastern Daylight Time),550368.5999999046,A,que,I,e,87,1,533.1999998092651,549835.4000000954,9077,WL,C,3.0
5,3.6999998092651367,learn,60000.0,Tue Apr 21 2026 13:12:46 GMT-0400 (Eastern Daylight Time),550668.6999998093,A,quee,I,e,274,1,833.2999997138977,549835.4000000954,9077,WL,C,3.0
5,4.515999794006348,learn,60000.0,Tue Apr 21 2026 13:12:46 GMT-0400 (Eastern Daylight Time),551485.0999999046,A,queen,I,n,805,1,1649.6999998092651,549835.4000000954,9077,WL,C,3.0
5,4.93399977684021,learn,60000.0,Tue Apr 21 2026 13:12:46 GMT-0400 (Eastern Daylight Time),551902.4000000954,A,queenenter,I,enter,405,1,2067.0,549835.4000000954,9077,WL,C,3.0
5,5.315999984741211,learn,60000.0,Tue Apr 21 2026 13:12:46 GMT-0400 (Eastern Daylight Time),552285.0999999046,A,s,I,s,376,1,382.40000009536743,551902.6999998093,9077,WL,C,4.0
5,5.516999959945679,learn,60000.0,Tue Apr 21 2026 13:12:46 GMT-0400 (Eastern Daylight Time),552485.4000000954,A,su,I,u,181,1,582.7000002861023,551902.6999998093,9077,WL,C,4.0
5,5.665999889373779,learn,60000.0,Tue Apr 21 2026 13:12:46 GMT-0400 (Eastern Daylight Time),552635.3000001907,A,sug,I,g,122,1,732.6000003814697,551902.6999998093,9077,WL,C,4.0
5,5.916999816894531,learn,60000.0,Tue Apr 21 2026 13:12:46 GMT-0400 (Eastern Daylight Time),552885.4000000954,A,suga,I,a,231,1,982.7000002861023,551902.6999998093,9077,WL,C,4.0
5,6.08299994468689,learn,60000.0,Tue Apr 21 2026 13:12:46 GMT-0400 (Eastern Daylight Time),553052.0,A,sugar,I,r,133,1,1149.3000001907349,551902.6999998093,9077,WL,C,4.0
5,6.298999786376953,learn,60000.0,Tue Apr 21 2026 13:12:46 GMT-0400 (Eastern Daylight Time),553268.3000001907,A,sugarenter,I,enter,198,1,1365.6000003814697,551902.6999998093,9077,WL,C,4.0
5,6.6499998569488525,learn,60000.0,Tue Apr 21 2026 13:12:46 GMT-0400 (Eastern Daylight Time),553618.6999998093,A,b,I,b,338,1,350.0,553268.6999998093,9077,WL,C,5.0
5,6.8999998569488525,learn,60000.0,Tue Apr 21 2026 13:12:46 GMT-0400 (Eastern Daylight Time),553868.8000001907,A,bo,I,o,223,1,600.1000003814697,553268.6999998093,9077,WL,C,5.0
5,7.166999816894531,learn,60000.0,Tue Apr 21 2026 13:12:46 GMT-0400 (Eastern Daylight Time),554135.4000000954,A,boy,I,y,243,1,866.7000002861023,553268.6999998093,9077,WL,C,5.0
5,7.482999801635742,learn,60000.0,Tue Apr 21 2026 13:12:46 GMT-0400 (Eastern Daylight Time),554451.5,A,boyenter,I,enter,299,1,1182.8000001907349,553268.6999998093,9077,WL,C,5.0
5,7.849999904632568,learn,60000.0,Tue Apr 21 2026 13:12:46 GMT-0400 (Eastern Daylight Time),554818.8000001907,A,d,I,d,354,1,366.90000009536743,554451.9000000954,9077,WL,C,6.0
5,7.982999801635742,learn,60000.0,Tue Apr 21 2026 13:12:46 GMT-0400 (Eastern Daylight Time),554952.0,A,do,I,o,103,1,500.09999990463257,554451.9000000954,9077,WL,C,6.0
5,8.132999897003174,learn,60000.0,Tue Apr 21 2026 13:12:46 GMT-0400 (Eastern Daylight Time),555102.0,A,doc,I,c,139,1,650.0999999046326,554451.9000000954,9077,WL,C,6.0
5,8.416999816894531,learn,60000.0,Tue Apr 21 2026 13:12:46 GMT-0400 (Eastern Daylight Time),555385.3000001907,A,doct,I,t,260,1,933.4000000953674,554451.9000000954,9077,WL,C,6.0
5,8.532999992370605,learn,60000.0,Tue Apr 21 2026 13:12:46 GMT-0400 (Eastern Daylight Time),555501.8000001907,A,docto,I,o,104,1,1049.9000000953674,554451.9000000954,9077,WL,C,6.0
5,8.699999809265137,learn,60000.0,Tue Apr 21 2026 13:12:46 GMT-0400 (Eastern Daylight Time),555668.5999999046,A,doctor,I,r,146,1,1216.6999998092651,554451.9000000954,9077,WL,C,6.0
5,8.8989999294281,learn,60000.0,Tue Apr 21 2026 13:12:46 GMT-0400 (Eastern Daylight Time),555868.1999998093,A,doctorenter,I,enter,190,1,1416.2999997138977,554451.9000000954,9077,WL,C,6.0
5,11.899999856948853,learn,60000.0,Tue Apr 21 2026 13:12:46 GMT-0400 (Eastern Daylight Time),558868.5,A,h,I,h,2986,1,3000.0999999046326,555868.4000000954,9077,WL,C,7.0
5,12.0,learn,60000.0,Tue Apr 21 2026 13:12:46 GMT-0400 (Eastern Daylight Time),558968.5999999046,A,ho,I,o,77,1,3100.199999809265,555868.4000000954,9077,WL,C,7.0
5,12.232999801635742,learn,60000.0,Tue Apr 21 2026 13:12:46 GMT-0400 (Eastern Daylight Time),559202.0,A,hom,I,m,219,1,3333.5999999046326,555868.4000000954,9077,WL,C,7.0
5,12.467000007629395,learn,60000.0,Tue Apr 21 2026 13:12:46 GMT-0400 (Eastern Daylight Time),559435.4000000954,A,home,I,e,208,1,3567.0,555868.4000000954,9077,WL,C,7.0
5,12.632999897003174,learn,60000.0,Tue Apr 21 2026 13:12:46 GMT-0400 (Eastern Daylight Time),559601.5999999046,A,homeenter,I,enter,151,1,3733.199999809265,555868.4000000954,9077,WL,C,7.0
5,14.382999897003174,learn,60000.0,Tue Apr 21 2026 13:12:46 GMT-0400 (Eastern Daylight Time),561351.9000000954,A,c,I,c,1733,1,1750.0999999046326,559601.8000001907,9077,WL,C,8.0
5,14.532999992370605,learn,60000.0,Tue Apr 21 2026 13:12:46 GMT-0400 (Eastern Daylight Time),561501.8000001907,A,ca,I,a,137,1,1900.0,559601.8000001907,9077,WL,C,8.0
5,14.699999809265137,learn,60000.0,Tue Apr 21 2026 13:12:46 GMT-0400 (Eastern Daylight Time),561668.5,A,cam,I,m,147,1,2066.699999809265,559601.8000001907,9077,WL,C,8.0
5,14.816999912261963,learn,60000.0,Tue Apr 21 2026 13:12:46 GMT-0400 (Eastern Daylight Time),561785.4000000954,A,camp,I,p,93,1,2183.5999999046326,559601.8000001907,9077,WL,C,8.0
5,15.132999897003174,learn,60000.0,Tue Apr 21 2026 13:12:46 GMT-0400 (Eastern Daylight Time),562101.9000000954,A,campl,I,l,297,1,2500.0999999046326,559601.8000001907,9077,WL,C,8.0
5,15.816999912261963,learn,60000.0,Tue Apr 21 2026 13:12:46 GMT-0400 (Eastern Daylight Time),562785.4000000954,A,camp,I,backspace,668,1,3183.5999999046326,559601.8000001907,9077,WL,C,8.0
5,16.6489999294281,learn,60000.0,Tue Apr 21 2026 13:12:46 GMT-0400 (Eastern Daylight Time),563618.1999998093,A,campenter,I,enter,817,1,4016.3999996185303,559601.8000001907,9077,WL,C,8.0
5,17.699999809265137,learn,60000.0,Tue Apr 21 2026 13:12:46 GMT-0400 (Eastern Daylight Time),564668.5,A,f,I,f,1028,1,1049.9000000953674,563618.5999999046,9077,WL,C,9.0
5,17.899999856948853,learn,60000.0,Tue Apr 21 2026 13:12:46 GMT-0400 (Eastern Daylight Time),564868.5999999046,A,fl,I,l,181,1,1250.0,563618.5999999046,9077,WL,C,9.0
5,18.01699995994568,learn,60000.0,Tue Apr 21 2026 13:12:46 GMT-0400 (Eastern Daylight Time),564985.4000000954,A,fla,I,a,94,1,1366.8000001907349,563618.5999999046,9077,WL,C,9.0
5,18.217000007629395,learn,60000.0,Tue Apr 21 2026 13:12:46 GMT-0400 (Eastern Daylight Time),565185.3000001907,A,flag,I,g,185,1,1566.7000002861023,563618.5999999046,9077,WL,C,9.0
5,18.465999841690063,learn,60000.0,Tue Apr 21 2026 13:12:46 GMT-0400 (Eastern Daylight Time),565434.9000000954,A,flagenter,I,enter,225,1,1816.3000001907349,563618.5999999046,9077,WL,C,9.0
5,19.83299994468689,learn,60000.0,Tue Apr 21 2026 13:12:46 GMT-0400 (Eastern Daylight Time),566802.0,A,l,I,l,1355,1,1366.8000001907349,565435.1999998093,9077,WL,C,10.0
5,19.932999849319458,learn,60000.0,Tue Apr 21 2026 13:12:46 GMT-0400 (Eastern Daylight Time),566901.9000000954,A,le,I,e,79,1,1466.7000002861023,565435.1999998093,9077,WL,C,10.0
5,20.217000007629395,learn,60000.0,Tue Apr 21 2026 13:12:46 GMT-0400 (Eastern Daylight Time),567185.3000001907,A,let,I,t,270,1,1750.1000003814697,565435.1999998093,9077,WL,C,10.0
5,20.382999897003174,learn,60000.0,Tue Apr 21 2026 13:12:46 GMT-0400 (Eastern Daylight Time),567351.9000000954,A,lett,I,t,144,1,1916.7000002861023,565435.1999998093,9077,WL,C,10.0
5,20.566999912261963,learn,60000.0,Tue Apr 21 2026 13:12:46 GMT-0400 (Eastern Daylight Time),567535.4000000954,A,lette,I,e,168,1,2100.2000002861023,565435.1999998093,9077,WL,C,10.0
5,20.682999849319458,learn,60000.0,Tue Apr 21 2026 13:12:46 GMT-0400 (Eastern Daylight Time),567652.0,A,letter,I,r,99,1,2216.800000190735,565435.1999998093,9077,WL,C,10.0
5,20.93399977684021,learn,60000.0,Tue Apr 21 2026 13:12:46 GMT-0400 (Eastern Daylight Time),567903.1999998093,A,letterenter,I,enter,237,1,2468.0,565435.1999998093,9077,WL,C,10.0
5,21.799999952316284,learn,60000.0,Tue Apr 21 2026 13:12:46 GMT-0400 (Eastern Daylight Time),568768.8000001907,A,n,I,n,854,1,865.2000002861023,567903.5999999046,9077,WL,C,11.0
5,21.932999849319458,learn,60000.0,Tue Apr 21 2026 13:12:46 GMT-0400 (Eastern Daylight Time),568902.0,A,na,I,a,115,1,998.4000000953674,567903.5999999046,9077,WL,C,11.0
5,22.09999990463257,learn,60000.0,Tue Apr 21 2026 13:12:46 GMT-0400 (Eastern Daylight Time),569068.6999998093,A,nai,I,i,148,1,1165.0999999046326,567903.5999999046,9077,WL,C,11.0
5,22.232999801635742,learn,60000.0,Tue Apr 21 2026 13:12:46 GMT-0400 (Eastern Daylight Time),569202.0,A,nail,I,l,111,1,1298.4000000953674,567903.5999999046,9077,WL,C,11.0
5,22.515999794006348,learn,60000.0,Tue Apr 21 2026 13:12:46 GMT-0400 (Eastern Daylight Time),569484.9000000954,A,nailenter,I,enter,265,1,1581.3000001907349,567903.5999999046,9077,WL,C,11.0
5,22.732999801635742,learn,60000.0,Tue Apr 21 2026 13:12:46 GMT-0400 (Eastern Daylight Time),569702.0,A,c,I,c,201,1,216.80000019073486,569485.1999998093,9077,WL,C,12.0
5,22.84999990463257,learn,60000.0,Tue Apr 21 2026 13:12:46 GMT-0400 (Eastern Daylight Time),569818.6999998093,A,ca,I,a,92,1,333.5,569485.1999998093,9077,WL,C,12.0
5,23.149999856948853,learn,60000.0,Tue Apr 21 2026 13:12:46 GMT-0400 (Eastern Daylight Time),570118.5,A,cat,I,t,279,1,633.3000001907349,569485.1999998093,9077,WL,C,12.0
5,23.299999952316284,learn,60000.0,Tue Apr 21 2026 13:12:46 GMT-0400 (Eastern Daylight Time),570268.8000001907,A,catt,I,t,124,1,783.6000003814697,569485.1999998093,9077,WL,C,12.0
5,24.299999952316284,learn,60000.0,Tue Apr 21 2026 13:12:46 GMT-0400 (Eastern Daylight Time),571268.6999998093,A,cattl,I,l,981,1,1783.5,569485.1999998093,9077,WL,C,12.0
5,24.449999809265137,learn,60000.0,Tue Apr 21 2026 13:12:46 GMT-0400 (Eastern Daylight Time),571418.5999999046,A,cattle,I,e,125,1,1933.4000000953674,569485.1999998093,9077,WL,C,12.0
5,25.265999794006348,learn,60000.0,Tue Apr 21 2026 13:12:46 GMT-0400 (Eastern Daylight Time),572234.9000000954,A,cattleenter,I,enter,784,1,2749.7000002861023,569485.1999998093,9077,WL,C,12.0
5,29.032999992370605,learn,60000.0,Tue Apr 21 2026 13:12:46 GMT-0400 (Eastern Daylight Time),576002.0,A,s,I,s,3755,1,3766.800000190735,572235.1999998093,9077,WL,C,13.0
5,29.182999849319458,learn,60000.0,Tue Apr 21 2026 13:12:46 GMT-0400 (Eastern Daylight Time),576151.9000000954,A,sh,I,h,129,1,3916.7000002861023,572235.1999998093,9077,WL,C,13.0
5,29.299999952316284,learn,60000.0,Tue Apr 21 2026 13:12:46 GMT-0400 (Eastern Daylight Time),576268.5999999046,A,sho,I,o,90,1,4033.4000000953674,572235.1999998093,9077,WL,C,13.0
5,29.432999849319458,learn,60000.0,Tue Apr 21 2026 13:12:46 GMT-0400 (Eastern Daylight Time),576401.9000000954,A,shor,I,r,110,1,4166.700000286102,572235.1999998093,9077,WL,C,13.0
5,29.532999992370605,learn,60000.0,Tue Apr 21 2026 13:12:46 GMT-0400 (Eastern Daylight Time),576502.0999999046,A,shore,I,e,72,1,4266.900000095367,572235.1999998093,9077,WL,C,13.0
5,29.715999841690063,learn,60000.0,Tue Apr 21 2026 13:12:46 GMT-0400 (Eastern Daylight Time),576684.9000000954,A,shoreenter,I,enter,173,1,4449.700000286102,572235.1999998093,9077,WL,C,13.0
5,33.34999990463257,learn,60000.0,Tue Apr 21 2026 13:12:46 GMT-0400 (Eastern Daylight Time),580318.6999998093,A,b,I,b,3626,1,3633.5,576685.1999998093,9077,WL,C,14.0
5,33.51599979400635,learn,60000.0,Tue Apr 21 2026 13:12:46 GMT-0400 (Eastern Daylight Time),580485.3000001907,A,bo,I,o,146,1,3800.1000003814697,576685.1999998093,9077,WL,C,14.0
5,33.69999980926514,learn,60000.0,Tue Apr 21 2026 13:12:46 GMT-0400 (Eastern Daylight Time),580668.6999998093,A,bod,I,d,149,1,3983.5,576685.1999998093,9077,WL,C,14.0
5,33.96599984169006,learn,60000.0,Tue Apr 21 2026 13:12:46 GMT-0400 (Eastern Daylight Time),580935.1999998093,A,body,I,y,245,1,4250.0,576685.1999998093,9077,WL,C,14.0
5,34.26599979400635,learn,60000.0,Tue Apr 21 2026 13:12:46 GMT-0400 (Eastern Daylight Time),581234.9000000954,A,bodyenter,I,enter,280,1,4549.700000286102,576685.1999998093,9077,WL,C,14.0
5,40.299999952316284,learn,60000.0,Tue Apr 21 2026 13:12:46 GMT-0400 (Eastern Daylight Time),587268.5,A,c,I,c,6019,1,6033.300000190735,581235.1999998093,9077,WL,C,15.0
5,40.39999985694885,learn,60000.0,Tue Apr 21 2026 13:12:46 GMT-0400 (Eastern Daylight Time),587368.6999998093,A,ca,I,a,79,1,6133.5,581235.1999998093,9077,WL,C,15.0
5,41.26699995994568,learn,60000.0,Tue Apr 21 2026 13:12:46 GMT-0400 (Eastern Daylight Time),588235.3000001907,A,cam,I,m,843,1,7000.10000038147,581235.1999998093,9077,WL,C,15.0
5,41.382999897003174,learn,60000.0,Tue Apr 21 2026 13:12:46 GMT-0400 (Eastern Daylight Time),588351.9000000954,A,camp,I,p,103,1,7116.700000286102,581235.1999998093,9077,WL,C,15.0
5,41.68299984931946,learn,60000.0,Tue Apr 21 2026 13:12:46 GMT-0400 (Eastern Daylight Time),588651.5999999046,A,campenter,I,enter,273,1,7416.400000095367,581235.1999998093,9077,WL,C,15.0
6,2.4170000553131104,distr,57582.99994468689,Tue Apr 21 2026 13:12:46 GMT-0400 (Eastern Daylight Time),662368.6999998093,B,s,I,s,2403,1,2416.2999997138977,659952.4000000954,9077,WL,C,1.0
6,2.617000102996826,distr,57382.999897003174,Tue Apr 21 2026 13:12:46 GMT-0400 (Eastern Daylight Time),662568.4000000954,B,sk,I,k,177,1,2616.0,659952.4000000954,9077,WL,C,1.0
6,3.117000102996826,distr,56882.999897003174,Tue Apr 21 2026 13:12:46 GMT-0400 (Eastern Daylight Time),663068.5999999046,B,sky,I,y,475,1,3116.199999809265,659952.4000000954,9077,WL,C,1.0
6,3.950000047683716,distr,56049.999952316284,Tue Apr 21 2026 13:12:46 GMT-0400 (Eastern Daylight Time),663901.3000001907,B,skyenter,I,enter,821,1,3948.9000000953674,659952.4000000954,9077,WL,C,1.0
6,5.067000150680542,distr,54932.99984931946,Tue Apr 21 2026 13:12:46 GMT-0400 (Eastern Daylight Time),665018.5999999046,B,d,I,d,1096,1,1117.0,663901.5999999046,9077,WL,C,2.0
6,5.200000047683716,distr,54799.999952316284,Tue Apr 21 2026 13:12:46 GMT-0400 (Eastern Daylight Time),665151.9000000954,B,do,I,o,115,1,1250.3000001907349,663901.5999999046,9077,WL,C,2.0
6,5.4670000076293945,distr,54532.999992370605,Tue Apr 21 2026 13:12:46 GMT-0400 (Eastern Daylight Time),665418.5,B,dol,I,l,235,1,1516.9000000953674,663901.5999999046,9077,WL,C,2.0
6,5.617000102996826,distr,54382.999897003174,Tue Apr 21 2026 13:12:46 GMT-0400 (Eastern Daylight Time),665568.5999999046,B,doll,I,l,136,1,1667.0,663901.5999999046,9077,WL,C,2.0
6,5.7170000076293945,distr,54282.999992370605,Tue Apr 21 2026 13:12:46 GMT-0400 (Eastern Daylight Time),665668.5,B,dolla,I,a,82,1,1766.9000000953674,663901.5999999046,9077,WL,C,2.0
6,6.117000102996826,distr,53882.999897003174,Tue Apr 21 2026 13:12:46 GMT-0400 (Eastern Daylight Time),666068.5999999046,B,dollar,I,r,382,1,2167.0,663901.5999999046,9077,WL,C,2.0
6,6.5329999923706055,distr,53467.000007629395,Tue Apr 21 2026 13:12:46 GMT-0400 (Eastern Daylight Time),666484.8000001907,B,dollarenter,I,enter,398,1,2583.2000002861023,663901.5999999046,9077,WL,C,2.0
6,7.150000095367432,distr,52849.99990463257,Tue Apr 21 2026 13:12:46 GMT-0400 (Eastern Daylight Time),667101.9000000954,B,v,I,v,609,1,616.9000000953674,666485.0,9077,WL,C,3.0
6,7.5329999923706055,distr,52467.000007629395,Tue Apr 21 2026 13:12:46 GMT-0400 (Eastern Daylight Time),667484.9000000954,B,va,I,a,372,1,999.9000000953674,666485.0,9077,WL,C,3.0
6,8.100000143051147,distr,51899.99985694885,Tue Apr 21 2026 13:12:46 GMT-0400 (Eastern Daylight Time),668051.8000001907,B,val,I,l,549,1,1566.8000001907349,666485.0,9077,WL,C,3.0
6,8.267000198364258,distr,51732.99980163574,Tue Apr 21 2026 13:12:46 GMT-0400 (Eastern Daylight Time),668218.5,B,vall,I,l,142,1,1733.5,666485.0,9077,WL,C,3.0
6,8.41700005531311,distr,51582.99994468689,Tue Apr 21 2026 13:12:46 GMT-0400 (Eastern Daylight Time),668368.5,B,valle,I,e,136,1,1883.5,666485.0,9077,WL,C,3.0
6,8.583000183105469,distr,51416.99981689453,Tue Apr 21 2026 13:12:46 GMT-0400 (Eastern Daylight Time),668535.0999999046,B,valley,I,y,145,1,2050.0999999046326,666485.0,9077,WL,C,3.0
6,8.833000183105469,distr,51166.99981689453,Tue Apr 21 2026 13:12:46 GMT-0400 (Eastern Daylight Time),668784.6999998093,B,valleyenter,I,enter,234,1,2299.699999809265,666485.0,9077,WL,C,3.0
6,9.550000190734863,distr,50449.99980926514,Tue Apr 21 2026 13:12:46 GMT-0400 (Eastern Daylight Time),669501.8000001907,B,b,I,b,709,1,716.7000002861023,668785.0999999046,9077,WL,C,4.0
6,9.800000190734863,distr,50199.99980926514,Tue Apr 21 2026 13:12:46 GMT-0400 (Eastern Daylight Time),669751.6999998093,B,bu,I,u,228,1,966.5999999046326,668785.0999999046,9077,WL,C,4.0
6,10.067000150680542,distr,49932.99984931946,Tue Apr 21 2026 13:12:46 GMT-0400 (Eastern Daylight Time),670018.4000000954,B,but,I,t,251,1,1233.3000001907349,668785.0999999046,9077,WL,C,4.0
6,10.233000040054321,distr,49766.99995994568,Tue Apr 21 2026 13:12:46 GMT-0400 (Eastern Daylight Time),670185.3000001907,B,butt,I,t,144,1,1400.2000002861023,668785.0999999046,9077,WL,C,4.0
6,10.367000102996826,distr,49632.999897003174,Tue Apr 21 2026 13:12:46 GMT-0400 (Eastern Daylight Time),670318.5,B,butte,I,e,119,1,1533.4000000953674,668785.0999999046,9077,WL,C,4.0
6,10.467000007629395,distr,49532.999992370605,Tue Apr 21 2026 13:12:46 GMT-0400 (Eastern Daylight Time),670418.5,B,butter,I,r,75,1,1633.4000000953674,668785.0999999046,9077,WL,C,4.0
6,10.75,distr,49250.0,Tue Apr 21 2026 13:12:46 GMT-0400 (Eastern Daylight Time),670702.1999998093,B,butterenter,I,enter,265,1,1917.0999999046326,668785.0999999046,9077,WL,C,4.0
6,11.883000135421753,distr,48116.99986457825,Tue Apr 21 2026 13:12:46 GMT-0400 (Eastern Daylight Time),671835.1999998093,B,h,I,h,1112,1,1132.5999999046326,670702.5999999046,9077,WL,C,5.0
6,12.017000198364258,distr,47982.99980163574,Tue Apr 21 2026 13:12:46 GMT-0400 (Eastern Daylight Time),671968.5,B,ha,I,a,119,1,1265.9000000953674,670702.5999999046,9077,WL,C,5.0
6,12.200000047683716,distr,47799.999952316284,Tue Apr 21 2026 13:12:46 GMT-0400 (Eastern Daylight Time),672151.8000001907,B,hal,I,l,162,1,1449.2000002861023,670702.5999999046,9077,WL,C,5.0
6,12.350000143051147,distr,47649.99985694885,Tue Apr 21 2026 13:12:46 GMT-0400 (Eastern Daylight Time),672301.8000001907,B,hall,I,l,139,1,1599.2000002861023,670702.5999999046,9077,WL,C,5.0
6,12.633000135421753,distr,47366.99986457825,Tue Apr 21 2026 13:12:46 GMT-0400 (Eastern Daylight Time),672584.6999998093,B,hallenter,I,enter,260,1,1882.0999999046326,670702.5999999046,9077,WL,C,5.0
6,14.433000087738037,distr,45566.99991226196,Tue Apr 21 2026 13:12:46 GMT-0400 (Eastern Daylight Time),674385.1999998093,B,w,I,w,1789,1,1800.1999998092651,672585.0,9077,WL,C,6.0
6,14.617000102996826,distr,45382.999897003174,Tue Apr 21 2026 13:12:46 GMT-0400 (Eastern Daylight Time),674568.5999999046,B,wi,I,i,161,1,1983.5999999046326,672585.0,9077,WL,C,6.0
6,14.767000198364258,distr,45232.99980163574,Tue Apr 21 2026 13:12:46 GMT-0400 (Eastern Daylight Time),674718.3000001907,B,win,I,n,130,1,2133.300000190735,672585.0,9077,WL,C,6.0
6,15.483000040054321,distr,44516.99995994568,Tue Apr 21 2026 13:12:46 GMT-0400 (Eastern Daylight Time),675435.1999998093,B,wint,I,t,693,1,2850.199999809265,672585.0,9077,WL,C,6.0
6,15.617000102996826,distr,44382.999897003174,Tue Apr 21 2026 13:12:46 GMT-0400 (Eastern Daylight Time),675568.4000000954,B,winte,I,e,119,1,2983.4000000953674,672585.0,9077,WL,C,6.0
6,15.734000205993652,distr,44265.99979400635,Tue Apr 21 2026 13:12:46 GMT-0400 (Eastern Daylight Time),675685.3000001907,B,winter,I,r,90,1,3100.300000190735,672585.0,9077,WL,C,6.0
6,15.883000135421753,distr,44116.99986457825,Tue Apr 21 2026 13:12:46 GMT-0400 (Eastern Daylight Time),675834.8000001907,B,winterenter,I,enter,115,1,3249.800000190735,672585.0,9077,WL,C,6.0
6,16.117000102996826,distr,43882.999897003174,Tue Apr 21 2026 13:12:46 GMT-0400 (Eastern Daylight Time),676068.5,B,d,I,d,219,1,233.40000009536743,675835.0999999046,9077,WL,C,7.0
6,16.266000032424927,distr,43733.99996757507,Tue Apr 21 2026 13:12:46 GMT-0400 (Eastern Daylight Time),676217.8000001907,B,di,I,i,117,1,382.7000002861023,675835.0999999046,9077,WL,C,7.0
6,16.450000047683716,distr,43549.999952316284,Tue Apr 21 2026 13:12:46 GMT-0400 (Eastern Daylight Time),676401.8000001907,B,dio,I,o,173,1,566.7000002861023,675835.0999999046,9077,WL,C,7.0
6,17.067000150680542,distr,42932.99984931946,Tue Apr 21 2026 13:12:46 GMT-0400 (Eastern Daylight Time),677018.5999999046,B,di,I,backspace,583,1,1183.5,675835.0999999046,9077,WL,C,7.0
6,17.23300004005432,distr,42766.99995994568,Tue Apr 21 2026 13:12:46 GMT-0400 (Eastern Daylight Time),677185.1999998093,B,dia,I,a,152,1,1350.0999999046326,675835.0999999046,9077,WL,C,7.0
6,18.23300004005432,distr,41766.99995994568,Tue Apr 21 2026 13:12:46 GMT-0400 (Eastern Daylight Time),678185.0999999046,B,diam,I,m,977,1,2350.0,675835.0999999046,9077,WL,C,7.0
6,18.367000102996826,distr,41632.999897003174,Tue Apr 21 2026 13:12:46 GMT-0400 (Eastern Daylight Time),678318.5,B,diamo,I,o,122,1,2483.4000000953674,675835.0999999046,9077,WL,C,7.0
6,18.517000198364258,distr,41482.99980163574,Tue Apr 21 2026 13:12:46 GMT-0400 (Eastern Daylight Time),678468.4000000954,B,diamon,I,n,132,1,2633.300000190735,675835.0999999046,9077,WL,C,7.0
6,18.867000102996826,distr,41132.999897003174,Tue Apr 21 2026 13:12:46 GMT-0400 (Eastern Daylight Time),678818.5999999046,B,diamond,I,d,333,1,2983.5,675835.0999999046,9077,WL,C,7.0
6,19.31599998474121,distr,40684.00001525879,Tue Apr 21 2026 13:12:46 GMT-0400 (Eastern Daylight Time),679267.9000000954,B,diamondenter,I,enter,432,1,3432.800000190735,675835.0999999046,9077,WL,C,7.0
6,20.41700005531311,distr,39582.99994468689,Tue Apr 21 2026 13:12:46 GMT-0400 (Eastern Daylight Time),680368.5999999046,B,m,I,m,1090,1,1100.4000000953674,679268.1999998093,9077,WL,C,8.0
6,20.5,distr,39500.0,Tue Apr 21 2026 13:12:46 GMT-0400 (Eastern Daylight Time),680451.9000000954,B,mo,I,o,63,1,1183.7000002861023,679268.1999998093,9077,WL,C,8.0
6,20.700000047683716,distr,39299.999952316284,Tue Apr 21 2026 13:12:46 GMT-0400 (Eastern Daylight Time),680651.8000001907,B,mot,I,t,173,1,1383.6000003814697,679268.1999998093,9077,WL,C,8.0
6,20.766000032424927,distr,39233.99996757507,Tue Apr 21 2026 13:12:46 GMT-0400 (Eastern Daylight Time),680718.0999999046,B,moth,I,h,46,1,1449.9000000953674,679268.1999998093,9077,WL,C,8.0
6,20.91700005531311,distr,39082.99994468689,Tue Apr 21 2026 13:12:46 GMT-0400 (Eastern Daylight Time),680868.4000000954,B,mothe,I,e,134,1,1600.2000002861023,679268.1999998093,9077,WL,C,8.0
6,21.050000190734863,distr,38949.99980926514,Tue Apr 21 2026 13:12:46 GMT-0400 (Eastern Daylight Time),681001.8000001907,B,mother,I,r,110,1,1733.6000003814697,679268.1999998093,9077,WL,C,8.0
6,21.401000022888184,distr,38598.99997711182,Tue Apr 21 2026 13:12:46 GMT-0400 (Eastern Daylight Time),681352.4000000954,B,motherenter,I,enter,327,1,2084.2000002861023,679268.1999998093,9077,WL,C,8.0
6,23.867000102996826,distr,36132.999897003174,Tue Apr 21 2026 13:12:46 GMT-0400 (Eastern Daylight Time),683818.5,B,c,I,c,2445,1,2465.800000190735,681352.6999998093,9077,WL,C,9.0
6,24.067000150680542,distr,35932.99984931946,Tue Apr 21 2026 13:12:46 GMT-0400 (Eastern Daylight Time),684018.5,B,ch,I,h,184,1,2665.800000190735,681352.6999998093,9077,WL,C,9.0
6,24.200000047683716,distr,35799.999952316284,Tue Apr 21 2026 13:12:46 GMT-0400 (Eastern Daylight Time),684151.6999998093,B,chr,I,r,111,1,2799.0,681352.6999998093,9077,WL,C,9.0
6,24.317000150680542,distr,35682.99984931946,Tue Apr 21 2026 13:12:46 GMT-0400 (Eastern Daylight Time),684268.6999998093,B,chri,I,i,98,1,2916.0,681352.6999998093,9077,WL,C,9.0
6,24.40000009536743,distr,35599.99990463257,Tue Apr 21 2026 13:12:46 GMT-0400 (Eastern Daylight Time),684351.6999998093,B,chris,I,s,63,1,2999.0,681352.6999998093,9077,WL,C,9.0
6,24.550000190734863,distr,35449.99980926514,Tue Apr 21 2026 13:12:46 GMT-0400 (Eastern Daylight Time),684501.9000000954,B,christ,I,t,130,1,3149.2000002861023,681352.6999998093,9077,WL,C,9.0
6,24.782999992370605,distr,35217.000007629395,Tue Apr 21 2026 13:12:46 GMT-0400 (Eastern Daylight Time),684735.3000001907,B,christm,I,m,221,1,3382.6000003814697,681352.6999998093,9077,WL,C,9.0
6,24.91700005531311,distr,35082.99994468689,Tue Apr 21 2026 13:12:46 GMT-0400 (Eastern Daylight Time),684868.5,B,christma,I,a,115,1,3515.800000190735,681352.6999998093,9077,WL,C,9.0
6,25.08400011062622,distr,34915.99988937378,Tue Apr 21 2026 13:12:46 GMT-0400 (Eastern Daylight Time),685035.4000000954,B,christmas,I,s,142,1,3682.7000002861023,681352.6999998093,9077,WL,C,9.0
6,26.100000143051147,distr,33899.99985694885,Tue Apr 21 2026 13:12:46 GMT-0400 (Eastern Daylight Time),686051.4000000954,B,christmasenter,I,enter,999,1,4698.700000286102,681352.6999998093,9077,WL,C,9.0
6,30.91700005531311,distr,29082.99994468689,Tue Apr 21 2026 13:12:46 GMT-0400 (Eastern Daylight Time),690868.5,B,m,I,m,4804,1,4816.800000190735,686051.6999998093,9077,WL,C,10.0
6,31.08300018310547,distr,28916.99981689453,Tue Apr 21 2026 13:12:46 GMT-0400 (Eastern Daylight Time),691035.1999998093,B,me,I,e,138,1,4983.5,686051.6999998093,9077,WL,C,10.0
6,31.200000047683716,distr,28799.999952316284,Tue Apr 21 2026 13:12:46 GMT-0400 (Eastern Daylight Time),691151.9000000954,B,mea,I,a,102,1,5100.200000286102,686051.6999998093,9077,WL,C,10.0
6,31.617000102996826,distr,28382.999897003174,Tue Apr 21 2026 13:12:46 GMT-0400 (Eastern Daylight Time),691568.5,B,meat,I,t,401,1,5516.800000190735,686051.6999998093,9077,WL,C,10.0
6,31.850000143051147,distr,28149.999856948853,Tue Apr 21 2026 13:12:46 GMT-0400 (Eastern Daylight Time),691801.5,B,meatenter,I,enter,210,1,5749.800000190735,686051.6999998093,9077,WL,C,10.0
6,33.0,distr,27000.0,Tue Apr 21 2026 13:12:46 GMT-0400 (Eastern Daylight Time),692951.8000001907,B,f,I,f,1132,1,1149.9000000953674,691801.9000000954,9077,WL,C,11.0
6,33.15000009536743,distr,26849.99990463257,Tue Apr 21 2026 13:12:46 GMT-0400 (Eastern Daylight Time),693101.6999998093,B,fo,I,o,138,1,1299.7999997138977,691801.9000000954,9077,WL,C,11.0
6,33.30000019073486,distr,26699.999809265137,Tue Apr 21 2026 13:12:46 GMT-0400 (Eastern Daylight Time),693251.9000000954,B,for,I,r,123,1,1450.0,691801.9000000954,9077,WL,C,11.0
6,34.217000007629395,distr,25782.999992370605,Tue Apr 21 2026 13:12:46 GMT-0400 (Eastern Daylight Time),694168.4000000954,B,fore,I,e,886,1,2366.5,691801.9000000954,9077,WL,C,11.0
6,34.40000009536743,distr,25599.99990463257,Tue Apr 21 2026 13:12:46 GMT-0400 (Eastern Daylight Time),694351.6999998093,B,fores,I,s,167,1,2549.7999997138977,691801.9000000954,9077,WL,C,11.0
6,34.617000102996826,distr,25382.999897003174,Tue Apr 21 2026 13:12:46 GMT-0400 (Eastern Daylight Time),694568.3000001907,B,forest,I,t,194,1,2766.4000000953674,691801.9000000954,9077,WL,C,11.0
6,34.76600003242493,distr,25233.999967575073,Tue Apr 21 2026 13:12:46 GMT-0400 (Eastern Daylight Time),694718.0,B,forestenter,I,enter,131,1,2916.0999999046326,691801.9000000954,9077,WL,C,11.0
6,37.58300018310547,distr,22416.99981689453,Tue Apr 21 2026 13:12:46 GMT-0400 (Eastern Daylight Time),697535.0,B,t,I,t,2808,1,2816.699999809265,694718.3000001907,9077,WL,C,12.0
6,37.76700019836426,distr,22232.999801635742,Tue Apr 21 2026 13:12:46 GMT-0400 (Eastern Daylight Time),697718.4000000954,B,to,I,o,162,1,3000.0999999046326,694718.3000001907,9077,WL,C,12.0
6,37.93300008773804,distr,22066.999912261963,Tue Apr 21 2026 13:12:46 GMT-0400 (Eastern Daylight Time),697884.9000000954,B,too,I,o,156,1,3166.5999999046326,694718.3000001907,9077,WL,C,12.0
6,38.13300013542175,distr,21866.999864578247,Tue Apr 21 2026 13:12:46 GMT-0400 (Eastern Daylight Time),698085.1999998093,B,tool,I,l,183,1,3366.8999996185303,694718.3000001907,9077,WL,C,12.0
6,38.33300018310547,distr,21666.99981689453,Tue Apr 21 2026 13:12:46 GMT-0400 (Eastern Daylight Time),698284.9000000954,B,tools,I,s,189,1,3566.5999999046326,694718.3000001907,9077,WL,C,12.0
6,38.532999992370605,distr,21467.000007629395,Tue Apr 21 2026 13:12:46 GMT-0400 (Eastern Daylight Time),698484.6999998093,B,toolsenter,I,enter,181,1,3766.3999996185303,694718.3000001907,9077,WL,C,12.0
6,41.10000014305115,distr,18899.999856948853,Tue Apr 21 2026 13:12:46 GMT-0400 (Eastern Daylight Time),701051.8000001907,B,g,I,g,2545,1,2566.800000190735,698485.0,9077,WL,C,13.0
6,41.31700015068054,distr,18682.999849319458,Tue Apr 21 2026 13:12:46 GMT-0400 (Eastern Daylight Time),701268.5999999046,B,ga,I,a,198,1,2783.5999999046326,698485.0,9077,WL,C,13.0
6,41.467000007629395,distr,18532.999992370605,Tue Apr 21 2026 13:12:46 GMT-0400 (Eastern Daylight Time),701418.3000001907,B,gar,I,r,117,1,2933.300000190735,698485.0,9077,WL,C,13.0
6,41.700000047683716,distr,18299.999952316284,Tue Apr 21 2026 13:12:46 GMT-0400 (Eastern Daylight Time),701651.8000001907,B,gard,I,d,209,1,3166.800000190735,698485.0,9077,WL,C,13.0
6,41.90000009536743,distr,18099.99990463257,Tue Apr 21 2026 13:12:46 GMT-0400 (Eastern Daylight Time),701851.8000001907,B,garde,I,e,174,1,3366.800000190735,698485.0,9077,WL,C,13.0
6,42.85000014305115,distr,17149.999856948853,Tue Apr 21 2026 13:12:46 GMT-0400 (Eastern Daylight Time),702801.6999998093,B,garden,I,n,934,1,4316.699999809265,698485.0,9077,WL,C,13.0
6,43.151000022888184,distr,16848.999977111816,Tue Apr 21 2026 13:12:46 GMT-0400 (Eastern Daylight Time),703102.4000000954,B,gardenenter,I,enter,289,1,4617.400000095367,698485.0,9077,WL,C,13.0
6,44.73300004005432,distr,15266.999959945679,Tue Apr 21 2026 13:12:46 GMT-0400 (Eastern Daylight Time),704685.0999999046,B,h,I,h,1575,1,1582.4000000953674,703102.6999998093,9077,WL,C,14.0
6,44.83300018310547,distr,15166.999816894531,Tue Apr 21 2026 13:12:46 GMT-0400 (Eastern Daylight Time),704785.1999998093,B,ho,I,o,86,1,1682.5,703102.6999998093,9077,WL,C,14.0
6,45.08300018310547,distr,14916.999816894531,Tue Apr 21 2026 13:12:46 GMT-0400 (Eastern Daylight Time),705035.1999998093,B,hot,I,t,218,1,1932.5,703102.6999998093,9077,WL,C,14.0
6,45.23300004005432,distr,14766.999959945679,Tue Apr 21 2026 13:12:46 GMT-0400 (Eastern Daylight Time),705185.0999999046,B,hote,I,e,135,1,2082.4000000953674,703102.6999998093,9077,WL,C,14.0
6,45.40000009536743,distr,14599.999904632568,Tue Apr 21 2026 13:12:46 GMT-0400 (Eastern Daylight Time),705351.8000001907,B,hotel,I,l,137,1,2249.1000003814697,703102.6999998093,9077,WL,C,14.0
6,46.81599998474121,distr,13184.000015258789,Tue Apr 21 2026 13:12:46 GMT-0400 (Eastern Daylight Time),706768.0999999046,B,hotelenter,I,enter,1404,1,3665.4000000953674,703102.6999998093,9077,WL,C,14.0
6,47.76700019836426,distr,12232.999801635742,Tue Apr 21 2026 13:12:46 GMT-0400 (Eastern Daylight Time),707718.5,B,m,I,m,933,1,950.1999998092651,706768.3000001907,9077,WL,C,15.0
6,47.93300008773804,distr,12066.999912261963,Tue Apr 21 2026 13:12:46 GMT-0400 (Eastern Daylight Time),707885.0999999046,B,mo,I,o,140,1,1116.7999997138977,706768.3000001907,9077,WL,C,15.0
6,48.10000014305115,distr,11899.999856948853,Tue Apr 21 2026 13:12:46 GMT-0400 (Eastern Daylight Time),708051.6999998093,B,mon,I,n,150,1,1283.3999996185303,706768.3000001907,9077,WL,C,15.0
6,48.30000019073486,distr,11699.999809265137,Tue Apr 21 2026 13:12:46 GMT-0400 (Eastern Daylight Time),708251.6999998093,B,mone,I,e,172,1,1483.3999996185303,706768.3000001907,9077,WL,C,15.0
6,48.467000007629395,distr,11532.999992370605,Tue Apr 21 2026 13:12:46 GMT-0400 (Eastern Daylight Time),708418.5,B,money,I,y,150,1,1650.1999998092651,706768.3000001907,9077,WL,C,15.0
6,48.818000078201294,distr,11181.999921798706,Tue Apr 21 2026 13:12:46 GMT-0400 (Eastern Daylight Time),708769.5999999046,B,moneyenter,I,enter,336,1,2001.2999997138977,706768.3000001907,9077,WL,C,15.0
7,3.9670000076293945,immed,56032.999992370605,Tue Apr 21 2026 13:12:46 GMT-0400 (Eastern Daylight Time),728951.5999999046,A,t,I,t,3946,1,3966.0,724985.5999999046,9077,WL,C,1.0
7,4.150000095367432,immed,55849.99990463257,Tue Apr 21 2026 13:12:46 GMT-0400 (Eastern Daylight Time),729135.0999999046,A,to,I,o,171,1,4149.5,724985.5999999046,9077,WL,C,1.0
7,4.25,immed,55750.0,Tue Apr 21 2026 13:12:46 GMT-0400 (Eastern Daylight Time),729235.0,A,tow,I,w,84,1,4249.400000095367,724985.5999999046,9077,WL,C,1.0
7,4.450000047683716,immed,55549.999952316284,Tue Apr 21 2026 13:12:46 GMT-0400 (Eastern Daylight Time),729435.0999999046,A,towe,I,e,168,1,4449.5,724985.5999999046,9077,WL,C,1.0
7,4.66700005531311,immed,55332.99994468689,Tue Apr 21 2026 13:12:46 GMT-0400 (Eastern Daylight Time),729651.8000001907,A,tower,I,r,192,1,4666.200000286102,724985.5999999046,9077,WL,C,1.0
7,5.550000190734863,immed,54449.99980926514,Tue Apr 21 2026 13:12:46 GMT-0400 (Eastern Daylight Time),730534.5999999046,A,towerenter,I,enter,852,1,5549.0,724985.5999999046,9077,WL,C,1.0
7,5.884000062942505,immed,54115.999937057495,Tue Apr 21 2026 13:12:46 GMT-0400 (Eastern Daylight Time),730868.5,A,w,I,w,319,1,333.5,730535.0,9077,WL,C,2.0
