block_c,block_dur,condition,countdown,datetime,endtime,list,multichar_response,project,response,response_time,session_number,start_end,starttime,subject_id,task,task_vers,trial
,,,,Tue Jul 01 2025 15:17:49 GMT-0500 (Central Daylight Time),,,,O,space,4292,1,,,7180,WL,B,
prac,,0,,Tue Jul 01 2025 15:17:49 GMT-0500 (Central Daylight Time),,NA,b,O,b,4547,1,,,7180,WL,B,1.0
prac,,0,,Tue Jul 01 2025 15:17:49 GMT-0500 (Central Daylight Time),,NA,bo,O,o,481,1,,,7180,WL,B,1.0
prac,,0,,Tue Jul 01 2025 15:17:49 GMT-0500 (Central Daylight Time),,NA,boo,O,o,144,1,,,7180,WL,B,1.0
prac,,0,,Tue Jul 01 2025 15:17:49 GMT-0500 (Central Daylight Time),,NA,boos,O,s,88,1,,,7180,WL,B,1.0
prac,,0,,Tue Jul 01 2025 15:17:49 GMT-0500 (Central Daylight Time),,NA,boost,O,t,234,1,,,7180,WL,B,1.0
prac,,0,,Tue Jul 01 2025 15:17:49 GMT-0500 (Central Daylight Time),,NA,boostenter,O,enter,1664,1,,,7180,WL,B,1.0
1,1.249000072479248,learn,58750.99992752075,Tue Jul 01 2025 15:17:49 GMT-0500 (Central Daylight Time),158885.6000000015,A,s,O,s,1227,1,1248.0,157637.6000000015,7180,WL,B,1.0
1,1.6489999294281006,learn,58351.0000705719,Tue Jul 01 2025 15:17:49 GMT-0500 (Central Daylight Time),159285.70000000298,A,st,O,t,379,1,1648.1000000014901,157637.6000000015,7180,WL,B,1.0
1,1.8659999370574951,learn,58134.000062942505,Tue Jul 01 2025 15:17:49 GMT-0500 (Central Daylight Time),159502.3999999985,A,str,O,r,196,1,1864.7999999970198,157637.6000000015,7180,WL,B,1.0
1,1.996000051498413,learn,58003.99994850159,Tue Jul 01 2025 15:17:49 GMT-0500 (Central Daylight Time),159632.8999999985,A,stre,O,e,124,1,1995.2999999970198,157637.6000000015,7180,WL,B,1.0
1,2.2160000801086426,learn,57783.99991989136,Tue Jul 01 2025 15:17:49 GMT-0500 (Central Daylight Time),159852.79999999702,A,stree,O,e,205,1,2215.1999999955297,157637.6000000015,7180,WL,B,1.0
1,2.431999921798706,learn,57568.000078201294,Tue Jul 01 2025 15:17:49 GMT-0500 (Central Daylight Time),160068.70000000298,A,street,O,t,206,1,2431.10000000149,157637.6000000015,7180,WL,B,1.0
1,2.749000072479248,learn,57250.99992752075,Tue Jul 01 2025 15:17:49 GMT-0500 (Central Daylight Time),160385.8999999985,A,streetenter,O,enter,291,1,2748.2999999970198,157637.6000000015,7180,WL,B,1.0
1,3.5829999446868896,learn,56417.00005531311,Tue Jul 01 2025 15:17:49 GMT-0500 (Central Daylight Time),161219.8999999985,A,a,O,a,829,1,833.5,160386.3999999985,7180,WL,B,2.0
1,3.930999994277954,learn,56069.000005722046,Tue Jul 01 2025 15:17:49 GMT-0500 (Central Daylight Time),161568.20000000298,A,ar,O,r,335,1,1181.8000000044703,160386.3999999985,7180,WL,B,2.0
1,4.197999954223633,learn,55802.00004577637,Tue Jul 01 2025 15:17:49 GMT-0500 (Central Daylight Time),161835.20000000298,A,arm,O,m,261,1,1448.8000000044703,160386.3999999985,7180,WL,B,2.0
1,4.5980000495910645,learn,55401.999950408936,Tue Jul 01 2025 15:17:49 GMT-0500 (Central Daylight Time),162234.5,A,armenter,O,enter,383,1,1848.1000000014901,160386.3999999985,7180,WL,B,2.0
1,7.079999923706055,learn,52920.000076293945,Tue Jul 01 2025 15:17:49 GMT-0500 (Central Daylight Time),164717.29999999702,A,f,O,f,2464,1,2482.39999999851,162234.8999999985,7180,WL,B,3.0
1,7.2799999713897705,learn,52720.00002861023,Tue Jul 01 2025 15:17:49 GMT-0500 (Central Daylight Time),164916.79999999702,A,fi,O,i,190,1,2681.89999999851,162234.8999999985,7180,WL,B,3.0
1,7.38100004196167,learn,52618.99995803833,Tue Jul 01 2025 15:17:49 GMT-0500 (Central Daylight Time),165017.3999999985,A,fir,O,r,77,1,2782.5,162234.8999999985,7180,WL,B,3.0
1,7.581000089645386,learn,52418.999910354614,Tue Jul 01 2025 15:17:49 GMT-0500 (Central Daylight Time),165217.6000000015,A,fire,O,e,184,1,2982.7000000029802,162234.8999999985,7180,WL,B,3.0
1,7.796000003814697,learn,52203.9999961853,Tue Jul 01 2025 15:17:49 GMT-0500 (Central Daylight Time),165433.0,A,fireenter,O,enter,208,1,3198.10000000149,162234.8999999985,7180,WL,B,3.0
1,9.130000114440918,learn,50869.99988555908,Tue Jul 01 2025 15:17:49 GMT-0500 (Central Daylight Time),166766.6000000015,A,s,O,s,1323,1,1333.3000000044703,165433.29999999702,7180,WL,B,4.0
1,9.312000036239624,learn,50687.999963760376,Tue Jul 01 2025 15:17:49 GMT-0500 (Central Daylight Time),166948.70000000298,A,st,O,t,164,1,1515.4000000059605,165433.29999999702,7180,WL,B,4.0
1,9.414000034332275,learn,50585.999965667725,Tue Jul 01 2025 15:17:49 GMT-0500 (Central Daylight Time),167051.0,A,sta,O,a,95,1,1617.7000000029802,165433.29999999702,7180,WL,B,4.0
1,9.562999963760376,learn,50437.000036239624,Tue Jul 01 2025 15:17:49 GMT-0500 (Central Daylight Time),167199.79999999702,A,star,O,r,134,1,1766.5,165433.29999999702,7180,WL,B,4.0
1,9.911999940872192,learn,50088.00005912781,Tue Jul 01 2025 15:17:49 GMT-0500 (Central Daylight Time),167548.70000000298,A,starenter,O,enter,331,1,2115.4000000059605,165433.29999999702,7180,WL,B,4.0
1,11.913000106811523,learn,48086.99989318848,Tue Jul 01 2025 15:17:49 GMT-0500 (Central Daylight Time),169549.8999999985,A,w,O,w,1995,1,2000.8999999985099,167549.0,7180,WL,B,5.0
1,12.04699993133545,learn,47953.00006866455,Tue Jul 01 2025 15:17:49 GMT-0500 (Central Daylight Time),169683.6000000015,A,wi,O,i,127,1,2134.60000000149,167549.0,7180,WL,B,5.0
1,12.194999933242798,learn,47805.0000667572,Tue Jul 01 2025 15:17:49 GMT-0500 (Central Daylight Time),169831.70000000298,A,win,O,n,133,1,2282.7000000029802,167549.0,7180,WL,B,5.0
1,12.36299991607666,learn,47637.00008392334,Tue Jul 01 2025 15:17:49 GMT-0500 (Central Daylight Time),169999.5,A,wind,O,d,148,1,2450.5,167549.0,7180,WL,B,5.0
1,12.51200008392334,learn,47487.99991607666,Tue Jul 01 2025 15:17:49 GMT-0500 (Central Daylight Time),170148.79999999702,A,windo,O,o,131,1,2599.7999999970198,167549.0,7180,WL,B,5.0
1,12.628000020980835,learn,47371.999979019165,Tue Jul 01 2025 15:17:49 GMT-0500 (Central Daylight Time),170265.20000000298,A,window,O,w,102,1,2716.2000000029802,167549.0,7180,WL,B,5.0
1,12.894999980926514,learn,47105.000019073486,Tue Jul 01 2025 15:17:49 GMT-0500 (Central Daylight Time),170531.3999999985,A,windowenter,O,enter,258,1,2982.39999999851,167549.0,7180,WL,B,5.0
1,16.743000030517578,learn,43256.99996948242,Tue Jul 01 2025 15:17:49 GMT-0500 (Central Daylight Time),174380.5,A,d,O,d,3832,1,3848.7999999970198,170531.70000000298,7180,WL,B,6.0
1,16.91100001335144,learn,43088.99998664856,Tue Jul 01 2025 15:17:49 GMT-0500 (Central Daylight Time),174548.29999999702,A,do,O,o,162,1,4016.5999999940395,170531.70000000298,7180,WL,B,6.0
1,17.09500002861023,learn,42904.99997138977,Tue Jul 01 2025 15:17:49 GMT-0500 (Central Daylight Time),174731.70000000298,A,doo,O,o,177,1,4200.0,170531.70000000298,7180,WL,B,6.0
1,17.20900011062622,learn,42790.99988937378,Tue Jul 01 2025 15:17:49 GMT-0500 (Central Daylight Time),174846.29999999702,A,door,O,r,102,1,4314.5999999940395,170531.70000000298,7180,WL,B,6.0
1,17.41000008583069,learn,42589.99991416931,Tue Jul 01 2025 15:17:49 GMT-0500 (Central Daylight Time),175047.5,A,doorenter,O,enter,190,1,4515.79999999702,170531.70000000298,7180,WL,B,6.0
1,22.092000007629395,learn,37907.999992370605,Tue Jul 01 2025 15:17:49 GMT-0500 (Central Daylight Time),179729.5,A,w,O,w,4669,1,4681.70000000298,175047.79999999702,7180,WL,B,7.0
1,22.242000102996826,learn,37757.999897003174,Tue Jul 01 2025 15:17:49 GMT-0500 (Central Daylight Time),179878.79999999702,A,wi,O,i,129,1,4831.0,175047.79999999702,7180,WL,B,7.0
1,22.391000032424927,learn,37608.99996757507,Tue Jul 01 2025 15:17:49 GMT-0500 (Central Daylight Time),180028.5,A,wif,O,f,142,1,4980.70000000298,175047.79999999702,7180,WL,B,7.0
1,22.575999975204468,learn,37424.00002479553,Tue Jul 01 2025 15:17:49 GMT-0500 (Central Daylight Time),180212.79999999702,A,wife,O,e,179,1,5165.0,175047.79999999702,7180,WL,B,7.0
1,22.825999975204468,learn,37174.00002479553,Tue Jul 01 2025 15:17:49 GMT-0500 (Central Daylight Time),180462.79999999702,A,wifeenter,O,enter,230,1,5415.0,175047.79999999702,7180,WL,B,7.0
1,31.140000104904175,learn,28859.999895095825,Tue Jul 01 2025 15:17:49 GMT-0500 (Central Daylight Time),188776.6000000015,A,g,O,g,8292,1,8313.5,180463.1000000015,7180,WL,B,8.0
1,31.655999898910522,learn,28344.000101089478,Tue Jul 01 2025 15:17:49 GMT-0500 (Central Daylight Time),189293.3999999985,A,gr,O,r,494,1,8830.29999999702,180463.1000000015,7180,WL,B,8.0
1,31.806999921798706,learn,28193.000078201294,Tue Jul 01 2025 15:17:49 GMT-0500 (Central Daylight Time),189443.5,A,gra,O,a,143,1,8980.39999999851,180463.1000000015,7180,WL,B,8.0
1,32.10599994659424,learn,27894.00005340576,Tue Jul 01 2025 15:17:49 GMT-0500 (Central Daylight Time),189743.0,A,gras,O,s,281,1,9279.89999999851,180463.1000000015,7180,WL,B,8.0
1,32.28999996185303,learn,27710.000038146973,Tue Jul 01 2025 15:17:49 GMT-0500 (Central Daylight Time),189927.20000000298,A,grass,O,s,173,1,9464.10000000149,180463.1000000015,7180,WL,B,8.0
1,32.65499997138977,learn,27345.00002861023,Tue Jul 01 2025 15:17:49 GMT-0500 (Central Daylight Time),190291.8999999985,A,grassenter,O,enter,349,1,9828.79999999702,180463.1000000015,7180,WL,B,8.0
1,36.97200012207031,learn,23027.999877929688,Tue Jul 01 2025 15:17:49 GMT-0500 (Central Daylight Time),194609.5,A,f,O,f,4297,1,4317.29999999702,190292.20000000298,7180,WL,B,9.0
1,37.1710000038147,learn,22828.999996185303,Tue Jul 01 2025 15:17:49 GMT-0500 (Central Daylight Time),194807.70000000298,A,fi,O,i,178,1,4515.5,190292.20000000298,7180,WL,B,9.0
1,37.503000020980835,learn,22496.999979019165,Tue Jul 01 2025 15:17:49 GMT-0500 (Central Daylight Time),195140.3999999985,A,fir,O,r,315,1,4848.19999999553,190292.20000000298,7180,WL,B,9.0
1,37.6710000038147,learn,22328.999996185303,Tue Jul 01 2025 15:17:49 GMT-0500 (Central Daylight Time),195307.70000000298,A,fire,O,e,150,1,5015.5,190292.20000000298,7180,WL,B,9.0
1,37.8050000667572,learn,22194.999933242798,Tue Jul 01 2025 15:17:49 GMT-0500 (Central Daylight Time),195442.1000000015,A,fireenter,O,enter,128,1,5149.89999999851,190292.20000000298,7180,WL,B,9.0
1,40.986000061035156,learn,19013.999938964844,Tue Jul 01 2025 15:17:49 GMT-0500 (Central Daylight Time),198622.8999999985,A,s,O,s,3162,1,3180.5,195442.3999999985,7180,WL,B,10.0
1,41.15300011634827,learn,18846.999883651733,Tue Jul 01 2025 15:17:49 GMT-0500 (Central Daylight Time),198790.0,A,sk,O,k,148,1,3347.60000000149,195442.3999999985,7180,WL,B,10.0
1,41.36899995803833,learn,18631.00004196167,Tue Jul 01 2025 15:17:49 GMT-0500 (Central Daylight Time),199006.20000000298,A,ski,O,i,206,1,3563.8000000044703,195442.3999999985,7180,WL,B,10.0
1,41.520999908447266,learn,18479.000091552734,Tue Jul 01 2025 15:17:49 GMT-0500 (Central Daylight Time),199158.0,A,skin,O,n,142,1,3715.60000000149,195442.3999999985,7180,WL,B,10.0
1,41.80200004577637,learn,18197.999954223633,Tue Jul 01 2025 15:17:49 GMT-0500 (Central Daylight Time),199439.5,A,skinenter,O,enter,268,1,3997.10000000149,195442.3999999985,7180,WL,B,10.0
1,56.33299994468689,learn,3667.0000553131104,Tue Jul 01 2025 15:17:49 GMT-0500 (Central Daylight Time),213969.8999999985,A,l,O,l,14509,1,14530.10000000149,199439.79999999702,7180,WL,B,11.0
1,56.48200011253357,learn,3517.9998874664307,Tue Jul 01 2025 15:17:49 GMT-0500 (Central Daylight Time),214119.5,A,la,O,a,138,1,14679.70000000298,199439.79999999702,7180,WL,B,11.0
1,56.699000120162964,learn,3300.999879837036,Tue Jul 01 2025 15:17:49 GMT-0500 (Central Daylight Time),214336.1000000015,A,lak,O,k,204,1,14896.30000000447,199439.79999999702,7180,WL,B,11.0
1,56.829999923706055,learn,3170.0000762939453,Tue Jul 01 2025 15:17:49 GMT-0500 (Central Daylight Time),214467.3999999985,A,lake,O,e,125,1,15027.60000000149,199439.79999999702,7180,WL,B,11.0
1,57.081000089645386,learn,2918.9999103546143,Tue Jul 01 2025 15:17:49 GMT-0500 (Central Daylight Time),214718.20000000298,A,lakeenter,O,enter,230,1,15278.40000000596,199439.79999999702,7180,WL,B,11.0
1,60.015000104904175,learn,-15.000104904174805,Tue Jul 01 2025 15:17:49 GMT-0500 (Central Daylight Time),217652.29999999702,A,None,O,None,2929,1,2933.89999999851,214718.3999999985,7180,WL,B,12.0
2,0.8010001182556152,learn,59198.999881744385,Tue Jul 01 2025 15:17:49 GMT-0500 (Central Daylight Time),298208.8999999985,A,c,O,c,781,1,800.1000000014901,297408.799999997,7180,WL,B,1.0
2,0.8980000019073486,learn,59101.99999809265,Tue Jul 01 2025 15:17:49 GMT-0500 (Central Daylight Time),298306.3999999985,A,cl,O,l,90,1,897.6000000014901,297408.799999997,7180,WL,B,1.0
2,1.1660001277923584,learn,58833.99987220764,Tue Jul 01 2025 15:17:49 GMT-0500 (Central Daylight Time),298574.200000003,A,clo,O,o,257,1,1165.4000000059605,297408.799999997,7180,WL,B,1.0
2,1.315000057220459,learn,58684.99994277954,Tue Jul 01 2025 15:17:49 GMT-0500 (Central Daylight Time),298723.5,A,cloc,O,c,133,1,1314.7000000029802,297408.799999997,7180,WL,B,1.0
2,1.4660000801086426,learn,58533.99991989136,Tue Jul 01 2025 15:17:49 GMT-0500 (Central Daylight Time),298874.5,A,clock,O,k,135,1,1465.7000000029802,297408.799999997,7180,WL,B,1.0
2,1.7660000324249268,learn,58233.99996757507,Tue Jul 01 2025 15:17:49 GMT-0500 (Central Daylight Time),299174.5,A,clockenter,O,enter,279,1,1765.7000000029802,297408.799999997,7180,WL,B,1.0
2,2.2180001735687256,learn,57781.999826431274,Tue Jul 01 2025 15:17:49 GMT-0500 (Central Daylight Time),299626.0,A,c,O,c,446,1,451.20000000298023,299174.799999997,7180,WL,B,2.0
2,2.38100004196167,learn,57618.99995803833,Tue Jul 01 2025 15:17:49 GMT-0500 (Central Daylight Time),299789.6000000015,A,ca,O,a,155,1,614.8000000044703,299174.799999997,7180,WL,B,2.0
2,2.5490000247955322,learn,57450.99997520447,Tue Jul 01 2025 15:17:49 GMT-0500 (Central Daylight Time),299957.5,A,cab,O,b,150,1,782.7000000029802,299174.799999997,7180,WL,B,2.0
2,2.8000001907348633,learn,57199.99980926514,Tue Jul 01 2025 15:17:49 GMT-0500 (Central Daylight Time),300207.799999997,A,cabi,O,i,230,1,1033.0,299174.799999997,7180,WL,B,2.0
2,2.882000207901001,learn,57117.999792099,Tue Jul 01 2025 15:17:49 GMT-0500 (Central Daylight Time),300290.1000000015,A,cabin,O,n,75,1,1115.3000000044703,299174.799999997,7180,WL,B,2.0
2,3.183000087738037,learn,56816.99991226196,Tue Jul 01 2025 15:17:49 GMT-0500 (Central Daylight Time),300590.799999997,A,cabinenter,O,enter,281,1,1416.0,299174.799999997,7180,WL,B,2.0
2,3.498000144958496,learn,56501.999855041504,Tue Jul 01 2025 15:17:49 GMT-0500 (Central Daylight Time),300906.0,A,c,O,c,300,1,314.8999999985099,300591.1000000015,7180,WL,B,3.0
2,3.614000082015991,learn,56385.99991798401,Tue Jul 01 2025 15:17:49 GMT-0500 (Central Daylight Time),301022.1000000015,A,ci,O,i,99,1,431.0,300591.1000000015,7180,WL,B,3.0
2,3.8320000171661377,learn,56167.99998283386,Tue Jul 01 2025 15:17:49 GMT-0500 (Central Daylight Time),301240.200000003,A,cit,O,t,193,1,649.1000000014901,300591.1000000015,7180,WL,B,3.0
2,3.949000120162964,learn,56050.999879837036,Tue Jul 01 2025 15:17:49 GMT-0500 (Central Daylight Time),301357.700000003,A,city,O,y,98,1,766.6000000014901,300591.1000000015,7180,WL,B,3.0
2,4.215000152587891,learn,55784.99984741211,Tue Jul 01 2025 15:17:49 GMT-0500 (Central Daylight Time),301623.700000003,A,cityenter,O,enter,244,1,1032.6000000014901,300591.1000000015,7180,WL,B,3.0
2,4.502000093460083,learn,55497.99990653992,Tue Jul 01 2025 15:17:49 GMT-0500 (Central Daylight Time),301909.799999997,A,w,O,w,267,1,285.79999999701977,301624.0,7180,WL,B,4.0
2,4.614000082015991,learn,55385.99991798401,Tue Jul 01 2025 15:17:49 GMT-0500 (Central Daylight Time),302022.299999997,A,wi,O,i,104,1,398.29999999701977,301624.0,7180,WL,B,4.0
2,4.765000104904175,learn,55234.999895095825,Tue Jul 01 2025 15:17:49 GMT-0500 (Central Daylight Time),302173.8999999985,A,win,O,n,136,1,549.8999999985099,301624.0,7180,WL,B,4.0
2,4.916000127792358,learn,55083.99987220764,Tue Jul 01 2025 15:17:49 GMT-0500 (Central Daylight Time),302324.0,A,wind,O,d,141,1,700.0,301624.0,7180,WL,B,4.0
2,5.101000070571899,learn,54898.9999294281,Tue Jul 01 2025 15:17:49 GMT-0500 (Central Daylight Time),302509.200000003,A,windo,O,o,178,1,885.2000000029802,301624.0,7180,WL,B,4.0
2,5.264000177383423,learn,54735.99982261658,Tue Jul 01 2025 15:17:49 GMT-0500 (Central Daylight Time),302672.200000003,A,window,O,w,150,1,1048.2000000029802,301624.0,7180,WL,B,4.0
2,5.481000185012817,learn,54518.99981498718,Tue Jul 01 2025 15:17:49 GMT-0500 (Central Daylight Time),302889.299999997,A,windowenter,O,enter,211,1,1265.2999999970198,301624.0,7180,WL,B,4.0
2,6.014000177383423,learn,53985.99982261658,Tue Jul 01 2025 15:17:49 GMT-0500 (Central Daylight Time),303422.5,A,s,O,s,515,1,532.8999999985099,302889.6000000015,7180,WL,B,5.0
2,6.21399998664856,learn,53786.00001335144,Tue Jul 01 2025 15:17:49 GMT-0500 (Central Daylight Time),303622.5,A,st,O,t,188,1,732.8999999985099,302889.6000000015,7180,WL,B,5.0
2,6.414000034332275,learn,53585.999965667725,Tue Jul 01 2025 15:17:49 GMT-0500 (Central Daylight Time),303822.6000000015,A,str,O,r,180,1,933.0,302889.6000000015,7180,WL,B,5.0
2,6.582000017166138,learn,53417.99998283386,Tue Jul 01 2025 15:17:49 GMT-0500 (Central Daylight Time),303990.0,A,stre,O,e,148,1,1100.3999999985099,302889.6000000015,7180,WL,B,5.0
2,6.748000144958496,learn,53251.999855041504,Tue Jul 01 2025 15:17:49 GMT-0500 (Central Daylight Time),304156.0,A,stree,O,e,149,1,1266.3999999985099,302889.6000000015,7180,WL,B,5.0
2,6.947000026702881,learn,53052.99997329712,Tue Jul 01 2025 15:17:49 GMT-0500 (Central Daylight Time),304355.299999997,A,street,O,t,192,1,1465.6999999955297,302889.6000000015,7180,WL,B,5.0
2,7.28000020980835,learn,52719.99979019165,Tue Jul 01 2025 15:17:49 GMT-0500 (Central Daylight Time),304688.5,A,streetenter,O,enter,307,1,1798.8999999985099,302889.6000000015,7180,WL,B,5.0
2,8.69700002670288,learn,51302.99997329712,Tue Jul 01 2025 15:17:49 GMT-0500 (Central Daylight Time),306104.8999999985,A,p,O,p,1405,1,1416.1999999955297,304688.700000003,7180,WL,B,6.0
2,8.861999988555908,learn,51138.00001144409,Tue Jul 01 2025 15:17:49 GMT-0500 (Central Daylight Time),306270.799999997,A,pu,O,u,154,1,1582.0999999940395,304688.700000003,7180,WL,B,6.0
2,9.062000036239624,learn,50937.999963760376,Tue Jul 01 2025 15:17:49 GMT-0500 (Central Daylight Time),306470.3999999985,A,pup,O,p,190,1,1781.6999999955297,304688.700000003,7180,WL,B,6.0
2,9.331000089645386,learn,50668.999910354614,Tue Jul 01 2025 15:17:49 GMT-0500 (Central Daylight Time),306739.200000003,A,pupi,O,i,256,1,2050.5,304688.700000003,7180,WL,B,6.0
2,9.564000129699707,learn,50435.99987030029,Tue Jul 01 2025 15:17:49 GMT-0500 (Central Daylight Time),306972.3999999985,A,pupil,O,l,225,1,2283.6999999955297,304688.700000003,7180,WL,B,6.0
2,9.913000106811523,learn,50086.99989318848,Tue Jul 01 2025 15:17:49 GMT-0500 (Central Daylight Time),307321.200000003,A,pupilenter,O,enter,326,1,2632.5,304688.700000003,7180,WL,B,6.0
2,10.580000162124634,learn,49419.999837875366,Tue Jul 01 2025 15:17:49 GMT-0500 (Central Daylight Time),307988.5,A,c,O,c,652,1,667.0,307321.5,7180,WL,B,7.0
2,10.69700002670288,learn,49302.99997329712,Tue Jul 01 2025 15:17:49 GMT-0500 (Central Daylight Time),308105.200000003,A,cl,O,l,93,1,783.7000000029802,307321.5,7180,WL,B,7.0
2,11.364000082015991,learn,48635.99991798401,Tue Jul 01 2025 15:17:49 GMT-0500 (Central Daylight Time),308772.200000003,A,c,O,backspace,648,1,1450.7000000029802,307321.5,7180,WL,B,7.0
2,16.562000036239624,learn,43437.999963760376,Tue Jul 01 2025 15:17:49 GMT-0500 (Central Daylight Time),313969.799999997,A,cl,O,l,5181,1,6648.29999999702,307321.5,7180,WL,B,7.0
2,16.796000003814697,learn,43203.9999961853,Tue Jul 01 2025 15:17:49 GMT-0500 (Central Daylight Time),314204.200000003,A,clo,O,o,228,1,6882.70000000298,307321.5,7180,WL,B,7.0
2,16.945000171661377,learn,43054.99982833862,Tue Jul 01 2025 15:17:49 GMT-0500 (Central Daylight Time),314352.799999997,A,cloc,O,c,133,1,7031.29999999702,307321.5,7180,WL,B,7.0
2,17.19600009918213,learn,42803.99990081787,Tue Jul 01 2025 15:17:49 GMT-0500 (Central Daylight Time),314604.1000000015,A,clock,O,k,245,1,7282.60000000149,307321.5,7180,WL,B,7.0
2,18.82800006866455,learn,41171.99993133545,Tue Jul 01 2025 15:17:49 GMT-0500 (Central Daylight Time),316236.299999997,A,cloc,O,backspace,1616,1,8914.79999999702,307321.5,7180,WL,B,7.0
2,19.194000005722046,learn,40805.999994277954,Tue Jul 01 2025 15:17:49 GMT-0500 (Central Daylight Time),316602.700000003,A,clo,O,backspace,343,1,9281.20000000298,307321.5,7180,WL,B,7.0
2,19.396000146865845,learn,40603.999853134155,Tue Jul 01 2025 15:17:49 GMT-0500 (Central Daylight Time),316803.700000003,A,cl,O,backspace,185,1,9482.20000000298,307321.5,7180,WL,B,7.0
2,19.57800006866455,learn,40421.99993133545,Tue Jul 01 2025 15:17:49 GMT-0500 (Central Daylight Time),316986.0,A,c,O,backspace,167,1,9664.5,307321.5,7180,WL,B,7.0
2,19.79700016975403,learn,40202.99983024597,Tue Jul 01 2025 15:17:49 GMT-0500 (Central Daylight Time),317205.1000000015,A,,O,backspace,213,1,9883.60000000149,307321.5,7180,WL,B,7.0
2,21.493000030517578,learn,38506.99996948242,Tue Jul 01 2025 15:17:49 GMT-0500 (Central Daylight Time),318901.299999997,A,s,O,s,1687,1,11579.79999999702,307321.5,7180,WL,B,7.0
2,21.7260000705719,learn,38273.9999294281,Tue Jul 01 2025 15:17:49 GMT-0500 (Central Daylight Time),319134.6000000015,A,st,O,t,211,1,11813.10000000149,307321.5,7180,WL,B,7.0
2,21.943000078201294,learn,38056.999921798706,Tue Jul 01 2025 15:17:49 GMT-0500 (Central Daylight Time),319351.5,A,str,O,r,197,1,12030.0,307321.5,7180,WL,B,7.0
2,22.110000133514404,learn,37889.999866485596,Tue Jul 01 2025 15:17:49 GMT-0500 (Central Daylight Time),319517.8999999985,A,stre,O,e,148,1,12196.39999999851,307321.5,7180,WL,B,7.0
2,22.276000022888184,learn,37723.99997711182,Tue Jul 01 2025 15:17:49 GMT-0500 (Central Daylight Time),319684.700000003,A,stree,O,e,148,1,12363.20000000298,307321.5,7180,WL,B,7.0
2,22.460000038146973,learn,37539.99996185303,Tue Jul 01 2025 15:17:49 GMT-0500 (Central Daylight Time),319868.799999997,A,street,O,t,177,1,12547.29999999702,307321.5,7180,WL,B,7.0
2,22.693000078201294,learn,37306.999921798706,Tue Jul 01 2025 15:17:49 GMT-0500 (Central Daylight Time),320100.8999999985,A,streetenter,O,enter,220,1,12779.39999999851,307321.5,7180,WL,B,7.0
2,24.10800004005432,learn,35891.99995994568,Tue Jul 01 2025 15:17:49 GMT-0500 (Central Daylight Time),321516.3999999985,A,s,O,s,1407,1,1415.1999999955297,320101.200000003,7180,WL,B,8.0
2,24.259000062942505,learn,35740.999937057495,Tue Jul 01 2025 15:17:49 GMT-0500 (Central Daylight Time),321666.8999999985,A,sk,O,k,135,1,1565.6999999955297,320101.200000003,7180,WL,B,8.0
2,24.50600004196167,learn,35493.99995803833,Tue Jul 01 2025 15:17:49 GMT-0500 (Central Daylight Time),321914.5,A,ski,O,i,238,1,1813.2999999970198,320101.200000003,7180,WL,B,8.0
2,24.724000215530396,learn,35275.999784469604,Tue Jul 01 2025 15:17:49 GMT-0500 (Central Daylight Time),322132.299999997,A,skin,O,n,209,1,2031.0999999940395,320101.200000003,7180,WL,B,8.0
2,24.99400019645691,learn,35005.99980354309,Tue Jul 01 2025 15:17:49 GMT-0500 (Central Daylight Time),322402.6000000015,A,skinenter,O,enter,266,1,2301.39999999851,320101.200000003,7180,WL,B,8.0
2,25.29200005531311,learn,34707.99994468689,Tue Jul 01 2025 15:17:49 GMT-0500 (Central Daylight Time),322700.0,A,f,O,f,281,1,297.1000000014901,322402.8999999985,7180,WL,B,9.0
2,25.426000118255615,learn,34573.999881744385,Tue Jul 01 2025 15:17:49 GMT-0500 (Central Daylight Time),322833.799999997,A,fi,O,i,110,1,430.8999999985099,322402.8999999985,7180,WL,B,9.0
2,25.6780002117157,learn,34321.9997882843,Tue Jul 01 2025 15:17:49 GMT-0500 (Central Daylight Time),323086.6000000015,A,fin,O,n,245,1,683.7000000029802,322402.8999999985,7180,WL,B,9.0
2,26.057000160217285,learn,33942.999839782715,Tue Jul 01 2025 15:17:49 GMT-0500 (Central Daylight Time),323464.799999997,A,fi,O,backspace,363,1,1061.8999999985099,322402.8999999985,7180,WL,B,9.0
2,26.193000078201294,learn,33806.999921798706,Tue Jul 01 2025 15:17:49 GMT-0500 (Central Daylight Time),323601.5,A,fir,O,r,113,1,1198.6000000014901,322402.8999999985,7180,WL,B,9.0
2,26.374000072479248,learn,33625.99992752075,Tue Jul 01 2025 15:17:49 GMT-0500 (Central Daylight Time),323782.3999999985,A,fire,O,e,162,1,1379.5,322402.8999999985,7180,WL,B,9.0
2,26.642000198364258,learn,33357.99980163574,Tue Jul 01 2025 15:17:49 GMT-0500 (Central Daylight Time),324050.3999999985,A,fireenter,O,enter,253,1,1647.5,322402.8999999985,7180,WL,B,9.0
2,33.97200012207031,learn,26027.999877929688,Tue Jul 01 2025 15:17:49 GMT-0500 (Central Daylight Time),331380.5,A,c,O,c,7325,1,7329.79999999702,324050.700000003,7180,WL,B,10.0
2,34.13900017738342,learn,25860.999822616577,Tue Jul 01 2025 15:17:49 GMT-0500 (Central Daylight Time),331547.5,A,ca,O,a,149,1,7496.79999999702,324050.700000003,7180,WL,B,10.0
2,34.35600018501282,learn,25643.999814987183,Tue Jul 01 2025 15:17:49 GMT-0500 (Central Daylight Time),331764.200000003,A,cab,O,b,200,1,7713.5,324050.700000003,7180,WL,B,10.0
2,34.57200002670288,learn,25427.99997329712,Tue Jul 01 2025 15:17:49 GMT-0500 (Central Daylight Time),331980.0,A,cabi,O,i,209,1,7929.29999999702,324050.700000003,7180,WL,B,10.0
2,34.723000049591064,learn,25276.999950408936,Tue Jul 01 2025 15:17:49 GMT-0500 (Central Daylight Time),332131.200000003,A,cabin,O,n,144,1,8080.5,324050.700000003,7180,WL,B,10.0
2,35.07100009918213,learn,24928.99990081787,Tue Jul 01 2025 15:17:49 GMT-0500 (Central Daylight Time),332479.200000003,A,cabinenter,O,enter,329,1,8428.5,324050.700000003,7180,WL,B,10.0
2,37.32100009918213,learn,22678.99990081787,Tue Jul 01 2025 15:17:49 GMT-0500 (Central Daylight Time),334729.5,A,c,O,c,2236,1,2250.0,332479.5,7180,WL,B,11.0
2,37.437000036239624,learn,22562.999963760376,Tue Jul 01 2025 15:17:49 GMT-0500 (Central Daylight Time),334845.5,A,ci,O,i,107,1,2366.0,332479.5,7180,WL,B,11.0
2,37.605000019073486,learn,22394.999980926514,Tue Jul 01 2025 15:17:49 GMT-0500 (Central Daylight Time),335013.1000000015,A,cit,O,t,151,1,2533.60000000149,332479.5,7180,WL,B,11.0
2,37.75500011444092,learn,22244.999885559082,Tue Jul 01 2025 15:17:49 GMT-0500 (Central Daylight Time),335163.5,A,city,O,y,134,1,2684.0,332479.5,7180,WL,B,11.0
2,38.05400013923645,learn,21945.99986076355,Tue Jul 01 2025 15:17:49 GMT-0500 (Central Daylight Time),335461.700000003,A,cityenter,O,enter,279,1,2982.2000000029802,332479.5,7180,WL,B,11.0
2,41.254000186920166,learn,18745.999813079834,Tue Jul 01 2025 15:17:49 GMT-0500 (Central Daylight Time),338661.8999999985,A,g,O,g,3191,1,3199.7999999970198,335462.1000000015,7180,WL,B,12.0
2,41.48699998855591,learn,18513.00001144409,Tue Jul 01 2025 15:17:49 GMT-0500 (Central Daylight Time),338895.200000003,A,gr,O,r,213,1,3433.10000000149,335462.1000000015,7180,WL,B,12.0
2,41.57100009918213,learn,18428.99990081787,Tue Jul 01 2025 15:17:49 GMT-0500 (Central Daylight Time),338979.5,A,gra,O,a,78,1,3517.39999999851,335462.1000000015,7180,WL,B,12.0
2,41.819000005722046,learn,18180.999994277954,Tue Jul 01 2025 15:17:49 GMT-0500 (Central Daylight Time),339227.6000000015,A,gras,O,s,240,1,3765.5,335462.1000000015,7180,WL,B,12.0
2,42.01900005340576,learn,17980.99994659424,Tue Jul 01 2025 15:17:49 GMT-0500 (Central Daylight Time),339427.5,A,grass,O,s,183,1,3965.39999999851,335462.1000000015,7180,WL,B,12.0
2,42.3510000705719,learn,17648.9999294281,Tue Jul 01 2025 15:17:49 GMT-0500 (Central Daylight Time),339759.1000000015,A,grassenter,O,enter,318,1,4297.0,335462.1000000015,7180,WL,B,12.0
2,47.069000005722046,learn,12930.999994277954,Tue Jul 01 2025 15:17:49 GMT-0500 (Central Daylight Time),344477.1000000015,A,s,O,s,4715,1,4717.70000000298,339759.3999999985,7180,WL,B,13.0
2,47.30400013923645,learn,12695.99986076355,Tue Jul 01 2025 15:17:49 GMT-0500 (Central Daylight Time),344712.1000000015,A,st,O,t,215,1,4952.70000000298,339759.3999999985,7180,WL,B,13.0
2,47.51900005340576,learn,12480.999946594238,Tue Jul 01 2025 15:17:49 GMT-0500 (Central Daylight Time),344927.0,A,sta,O,a,193,1,5167.60000000149,339759.3999999985,7180,WL,B,13.0
2,47.68400001525879,learn,12315.999984741211,Tue Jul 01 2025 15:17:49 GMT-0500 (Central Daylight Time),345091.8999999985,A,star,O,r,156,1,5332.5,339759.3999999985,7180,WL,B,13.0
2,48.1010000705719,learn,11898.9999294281,Tue Jul 01 2025 15:17:49 GMT-0500 (Central Daylight Time),345509.200000003,A,starenter,O,enter,405,1,5749.80000000447,339759.3999999985,7180,WL,B,13.0
2,57.04900002479553,learn,2950.999975204468,Tue Jul 01 2025 15:17:49 GMT-0500 (Central Daylight Time),354457.1000000015,A,a,O,a,8943,1,8947.70000000298,345509.3999999985,7180,WL,B,14.0
2,57.26600003242493,learn,2733.9999675750732,Tue Jul 01 2025 15:17:49 GMT-0500 (Central Daylight Time),354673.8999999985,A,ar,O,r,203,1,9164.5,345509.3999999985,7180,WL,B,14.0
2,57.598000049591064,learn,2401.9999504089355,Tue Jul 01 2025 15:17:49 GMT-0500 (Central Daylight Time),355006.200000003,A,arm,O,m,314,1,9496.80000000447,345509.3999999985,7180,WL,B,14.0
2,57.915000200271606,learn,2084.9997997283936,Tue Jul 01 2025 15:17:49 GMT-0500 (Central Daylight Time),355323.1000000015,A,armenter,O,enter,310,1,9813.70000000298,345509.3999999985,7180,WL,B,14.0
2,60.015000104904175,learn,-15.000104904174805,Tue Jul 01 2025 15:17:49 GMT-0500 (Central Daylight Time),357422.8999999985,A,None,O,None,2095,1,2099.60000000149,355323.299999997,7180,WL,B,15.0
3,0.9010000228881836,learn,59098.99997711182,Tue Jul 01 2025 15:17:49 GMT-0500 (Central Daylight Time),437697.3999999985,A,c,O,c,894,1,900.8999999985099,436796.5,7180,WL,B,1.0
3,1.0329999923706055,learn,58967.000007629395,Tue Jul 01 2025 15:17:49 GMT-0500 (Central Daylight Time),437829.700000003,A,cl,O,l,123,1,1033.2000000029802,436796.5,7180,WL,B,1.0
3,1.2660000324249268,learn,58733.99996757507,Tue Jul 01 2025 15:17:49 GMT-0500 (Central Daylight Time),438062.3999999985,A,clo,O,o,222,1,1265.8999999985099,436796.5,7180,WL,B,1.0
3,1.3840000629425049,learn,58615.999937057495,Tue Jul 01 2025 15:17:49 GMT-0500 (Central Daylight Time),438180.200000003,A,cloc,O,c,101,1,1383.7000000029802,436796.5,7180,WL,B,1.0
3,1.5509998798370361,learn,58449.000120162964,Tue Jul 01 2025 15:17:49 GMT-0500 (Central Daylight Time),438346.8999999985,A,clock,O,k,151,1,1550.3999999985099,436796.5,7180,WL,B,1.0
3,1.8309998512268066,learn,58169.00014877319,Tue Jul 01 2025 15:17:49 GMT-0500 (Central Daylight Time),438627.6000000015,A,clockenter,O,enter,264,1,1831.1000000014901,436796.5,7180,WL,B,1.0
3,2.118000030517578,learn,57881.99996948242,Tue Jul 01 2025 15:17:49 GMT-0500 (Central Daylight Time),438914.200000003,A,s,O,s,282,1,286.40000000596046,438627.799999997,7180,WL,B,2.0
3,2.3339998722076416,learn,57666.00012779236,Tue Jul 01 2025 15:17:49 GMT-0500 (Central Daylight Time),439130.3999999985,A,sk,O,k,193,1,502.6000000014901,438627.799999997,7180,WL,B,2.0
3,2.632999897003174,learn,57367.000102996826,Tue Jul 01 2025 15:17:49 GMT-0500 (Central Daylight Time),439429.5,A,ski,O,i,281,1,801.7000000029802,438627.799999997,7180,WL,B,2.0
3,2.7669999599456787,learn,57233.00004005432,Tue Jul 01 2025 15:17:49 GMT-0500 (Central Daylight Time),439563.6000000015,A,skin,O,n,111,1,935.8000000044703,438627.799999997,7180,WL,B,2.0
3,3.049999952316284,learn,56950.000047683716,Tue Jul 01 2025 15:17:49 GMT-0500 (Central Daylight Time),439846.1000000015,A,skinenter,O,enter,270,1,1218.3000000044703,438627.799999997,7180,WL,B,2.0
3,3.2319998741149902,learn,56768.00012588501,Tue Jul 01 2025 15:17:49 GMT-0500 (Central Daylight Time),440028.6000000015,A,f,O,f,174,1,182.30000000447035,439846.299999997,7180,WL,B,3.0
3,3.3999998569488525,learn,56600.00014305115,Tue Jul 01 2025 15:17:49 GMT-0500 (Central Daylight Time),440196.5,A,fi,O,i,162,1,350.20000000298023,439846.299999997,7180,WL,B,3.0
3,3.6499998569488525,learn,56350.00014305115,Tue Jul 01 2025 15:17:49 GMT-0500 (Central Daylight Time),440446.0,A,fir,O,r,231,1,599.7000000029802,439846.299999997,7180,WL,B,3.0
3,3.8329999446868896,learn,56167.00005531311,Tue Jul 01 2025 15:17:49 GMT-0500 (Central Daylight Time),440628.799999997,A,fire,O,e,165,1,782.5,439846.299999997,7180,WL,B,3.0
3,4.0329999923706055,learn,55967.000007629395,Tue Jul 01 2025 15:17:49 GMT-0500 (Central Daylight Time),440829.799999997,A,fireenter,O,enter,183,1,983.5,439846.299999997,7180,WL,B,3.0
3,4.299999952316284,learn,55700.000047683716,Tue Jul 01 2025 15:17:49 GMT-0500 (Central Daylight Time),441096.0,A,c,O,c,255,1,266.0,440830.0,7180,WL,B,4.0
3,4.4659998416900635,learn,55534.00015830994,Tue Jul 01 2025 15:17:49 GMT-0500 (Central Daylight Time),441262.700000003,A,ca,O,a,148,1,432.70000000298023,440830.0,7180,WL,B,4.0
3,4.632999897003174,learn,55367.000102996826,Tue Jul 01 2025 15:17:49 GMT-0500 (Central Daylight Time),441429.299999997,A,cab,O,b,156,1,599.2999999970198,440830.0,7180,WL,B,4.0
3,4.8999998569488525,learn,55100.00014305115,Tue Jul 01 2025 15:17:49 GMT-0500 (Central Daylight Time),441696.299999997,A,cabi,O,i,246,1,866.2999999970198,440830.0,7180,WL,B,4.0
3,5.0320000648498535,learn,54967.99993515015,Tue Jul 01 2025 15:17:49 GMT-0500 (Central Daylight Time),441828.299999997,A,cabin,O,n,115,1,998.2999999970198,440830.0,7180,WL,B,4.0
3,5.346999883651733,learn,54653.00011634827,Tue Jul 01 2025 15:17:49 GMT-0500 (Central Daylight Time),442143.200000003,A,cabinenter,O,enter,296,1,1313.2000000029802,440830.0,7180,WL,B,4.0
3,5.7149999141693115,learn,54285.00008583069,Tue Jul 01 2025 15:17:49 GMT-0500 (Central Daylight Time),442511.799999997,A,p,O,p,349,1,368.19999999552965,442143.6000000015,7180,WL,B,5.0
3,5.898999929428101,learn,54101.0000705719,Tue Jul 01 2025 15:17:49 GMT-0500 (Central Daylight Time),442695.299999997,A,pu,O,u,171,1,551.6999999955297,442143.6000000015,7180,WL,B,5.0
3,6.134000062942505,learn,53865.999937057495,Tue Jul 01 2025 15:17:49 GMT-0500 (Central Daylight Time),442930.5,A,pup,O,p,219,1,786.8999999985099,442143.6000000015,7180,WL,B,5.0
3,6.497999906539917,learn,53502.00009346008,Tue Jul 01 2025 15:17:49 GMT-0500 (Central Daylight Time),443294.5,A,pupi,O,i,356,1,1150.8999999985099,442143.6000000015,7180,WL,B,5.0
3,6.733000040054321,learn,53266.99995994568,Tue Jul 01 2025 15:17:49 GMT-0500 (Central Daylight Time),443529.0,A,pupil,O,l,222,1,1385.3999999985099,442143.6000000015,7180,WL,B,5.0
3,7.047999858856201,learn,52952.0001411438,Tue Jul 01 2025 15:17:49 GMT-0500 (Central Daylight Time),443844.1000000015,A,pupilenter,O,enter,293,1,1700.5,442143.6000000015,7180,WL,B,5.0
3,9.447999954223633,learn,50552.00004577637,Tue Jul 01 2025 15:17:49 GMT-0500 (Central Daylight Time),446244.1000000015,A,s,O,s,2385,1,2399.7000000029802,443844.3999999985,7180,WL,B,6.0
3,9.914999961853027,learn,50085.00003814697,Tue Jul 01 2025 15:17:49 GMT-0500 (Central Daylight Time),446710.8999999985,A,st,O,t,446,1,2866.5,443844.3999999985,7180,WL,B,6.0
3,10.23199987411499,learn,49768.00012588501,Tue Jul 01 2025 15:17:49 GMT-0500 (Central Daylight Time),447028.6000000015,A,sta,O,a,299,1,3184.2000000029802,443844.3999999985,7180,WL,B,6.0
3,10.398000001907349,learn,49601.99999809265,Tue Jul 01 2025 15:17:49 GMT-0500 (Central Daylight Time),447194.799999997,A,star,O,r,143,1,3350.39999999851,443844.3999999985,7180,WL,B,6.0
3,10.914000034332275,learn,49085.999965667725,Tue Jul 01 2025 15:17:49 GMT-0500 (Central Daylight Time),447710.200000003,A,starenter,O,enter,495,1,3865.8000000044703,443844.3999999985,7180,WL,B,6.0
3,11.181999921798706,learn,48818.000078201294,Tue Jul 01 2025 15:17:49 GMT-0500 (Central Daylight Time),447978.700000003,A,w,O,w,247,1,268.20000000298023,447710.5,7180,WL,B,7.0
3,11.346999883651733,learn,48653.00011634827,Tue Jul 01 2025 15:17:49 GMT-0500 (Central Daylight Time),448143.0,A,wi,O,i,146,1,432.5,447710.5,7180,WL,B,7.0
3,11.532000064849854,learn,48467.99993515015,Tue Jul 01 2025 15:17:49 GMT-0500 (Central Daylight Time),448327.8999999985,A,wif,O,f,158,1,617.3999999985099,447710.5,7180,WL,B,7.0
3,11.815999984741211,learn,48184.00001525879,Tue Jul 01 2025 15:17:49 GMT-0500 (Central Daylight Time),448611.8999999985,A,wife,O,e,259,1,901.3999999985099,447710.5,7180,WL,B,7.0
3,12.046000003814697,learn,47953.9999961853,Tue Jul 01 2025 15:17:49 GMT-0500 (Central Daylight Time),448842.700000003,A,wifeenter,O,enter,214,1,1132.2000000029802,447710.5,7180,WL,B,7.0
3,13.629999876022339,learn,46370.00012397766,Tue Jul 01 2025 15:17:49 GMT-0500 (Central Daylight Time),450426.1000000015,A,s,O,s,1568,1,1583.1000000014901,448843.0,7180,WL,B,8.0
3,13.848999977111816,learn,46151.00002288818,Tue Jul 01 2025 15:17:49 GMT-0500 (Central Daylight Time),450645.200000003,A,st,O,t,202,1,1802.2000000029802,448843.0,7180,WL,B,8.0
3,14.047999858856201,learn,45952.0001411438,Tue Jul 01 2025 15:17:49 GMT-0500 (Central Daylight Time),450844.200000003,A,str,O,r,186,1,2001.2000000029802,448843.0,7180,WL,B,8.0
3,14.379999876022339,learn,45620.00012397766,Tue Jul 01 2025 15:17:49 GMT-0500 (Central Daylight Time),451176.299999997,A,stre,O,e,318,1,2333.2999999970198,448843.0,7180,WL,B,8.0
3,14.529000043869019,learn,45470.99995613098,Tue Jul 01 2025 15:17:49 GMT-0500 (Central Daylight Time),451325.799999997,A,stree,O,e,139,1,2482.7999999970198,448843.0,7180,WL,B,8.0
3,14.86299991607666,learn,45137.00008392334,Tue Jul 01 2025 15:17:49 GMT-0500 (Central Daylight Time),451659.200000003,A,street,O,t,317,1,2816.2000000029802,448843.0,7180,WL,B,8.0
3,15.063999891281128,learn,44936.00010871887,Tue Jul 01 2025 15:17:49 GMT-0500 (Central Daylight Time),451859.799999997,A,streetenter,O,enter,195,1,3016.7999999970198,448843.0,7180,WL,B,8.0
3,15.294999837875366,learn,44705.000162124634,Tue Jul 01 2025 15:17:49 GMT-0500 (Central Daylight Time),452091.6000000015,A,g,O,g,217,1,231.5,451860.1000000015,7180,WL,B,9.0
3,15.529000043869019,learn,44470.99995613098,Tue Jul 01 2025 15:17:49 GMT-0500 (Central Daylight Time),452324.8999999985,A,gr,O,r,223,1,464.79999999701977,451860.1000000015,7180,WL,B,9.0
3,15.67799997329712,learn,44322.00002670288,Tue Jul 01 2025 15:17:49 GMT-0500 (Central Daylight Time),452474.3999999985,A,gra,O,a,130,1,614.2999999970198,451860.1000000015,7180,WL,B,9.0
3,15.944000005722046,learn,44055.999994277954,Tue Jul 01 2025 15:17:49 GMT-0500 (Central Daylight Time),452740.700000003,A,gras,O,s,254,1,880.6000000014901,451860.1000000015,7180,WL,B,9.0
3,16.128000020980835,learn,43871.999979019165,Tue Jul 01 2025 15:17:49 GMT-0500 (Central Daylight Time),452924.700000003,A,grass,O,s,167,1,1064.6000000014901,451860.1000000015,7180,WL,B,9.0
3,16.480000019073486,learn,43519.999980926514,Tue Jul 01 2025 15:17:49 GMT-0500 (Central Daylight Time),453275.799999997,A,grassenter,O,enter,341,1,1415.6999999955297,451860.1000000015,7180,WL,B,9.0
3,17.312000036239624,learn,42687.999963760376,Tue Jul 01 2025 15:17:49 GMT-0500 (Central Daylight Time),454108.700000003,A,d,O,d,816,1,832.6000000014901,453276.1000000015,7180,WL,B,10.0
3,17.46399998664856,learn,42536.00001335144,Tue Jul 01 2025 15:17:49 GMT-0500 (Central Daylight Time),454260.1000000015,A,do,O,o,143,1,984.0,453276.1000000015,7180,WL,B,10.0
3,17.67799997329712,learn,42322.00002670288,Tue Jul 01 2025 15:17:49 GMT-0500 (Central Daylight Time),454474.299999997,A,doo,O,o,198,1,1198.1999999955297,453276.1000000015,7180,WL,B,10.0
3,17.76199984550476,learn,42238.00015449524,Tue Jul 01 2025 15:17:49 GMT-0500 (Central Daylight Time),454558.200000003,A,door,O,r,65,1,1282.1000000014901,453276.1000000015,7180,WL,B,10.0
3,18.111000061035156,learn,41888.999938964844,Tue Jul 01 2025 15:17:49 GMT-0500 (Central Daylight Time),454907.700000003,A,doorenter,O,enter,340,1,1631.6000000014901,453276.1000000015,7180,WL,B,10.0
3,18.394999980926514,learn,41605.000019073486,Tue Jul 01 2025 15:17:49 GMT-0500 (Central Daylight Time),455191.299999997,A,a,O,a,272,1,283.3999999985099,454907.8999999985,7180,WL,B,11.0
3,18.661999940872192,learn,41338.00005912781,Tue Jul 01 2025 15:17:49 GMT-0500 (Central Daylight Time),455458.700000003,A,ar,O,r,253,1,550.8000000044703,454907.8999999985,7180,WL,B,11.0
3,18.961999893188477,learn,41038.00010681152,Tue Jul 01 2025 15:17:49 GMT-0500 (Central Daylight Time),455758.0,A,arm,O,m,292,1,850.1000000014901,454907.8999999985,7180,WL,B,11.0
3,19.30999994277954,learn,40690.00005722046,Tue Jul 01 2025 15:17:49 GMT-0500 (Central Daylight Time),456106.299999997,A,armenter,O,enter,338,1,1198.3999999985099,454907.8999999985,7180,WL,B,11.0
3,20.128000020980835,learn,39871.999979019165,Tue Jul 01 2025 15:17:49 GMT-0500 (Central Daylight Time),456924.1000000015,A,w,O,w,802,1,817.5,456106.6000000015,7180,WL,B,12.0
3,20.26099991798401,learn,39739.00008201599,Tue Jul 01 2025 15:17:49 GMT-0500 (Central Daylight Time),457057.799999997,A,wi,O,i,110,1,951.1999999955297,456106.6000000015,7180,WL,B,12.0
3,20.42799997329712,learn,39572.00002670288,Tue Jul 01 2025 15:17:49 GMT-0500 (Central Daylight Time),457224.1000000015,A,wif,O,f,144,1,1117.5,456106.6000000015,7180,WL,B,12.0
3,20.69599986076355,learn,39304.00013923645,Tue Jul 01 2025 15:17:49 GMT-0500 (Central Daylight Time),457492.299999997,A,wife,O,e,249,1,1385.6999999955297,456106.6000000015,7180,WL,B,12.0
3,21.07799983024597,learn,38922.00016975403,Tue Jul 01 2025 15:17:49 GMT-0500 (Central Daylight Time),457874.0,A,wifeenter,O,enter,363,1,1767.3999999985099,456106.6000000015,7180,WL,B,12.0
3,25.293999910354614,learn,34706.000089645386,Tue Jul 01 2025 15:17:49 GMT-0500 (Central Daylight Time),462090.299999997,A,l,O,l,4211,1,4216.0,457874.299999997,7180,WL,B,13.0
3,25.444999933242798,learn,34555.0000667572,Tue Jul 01 2025 15:17:49 GMT-0500 (Central Daylight Time),462241.299999997,A,la,O,a,124,1,4367.0,457874.299999997,7180,WL,B,13.0
3,25.692999839782715,learn,34307.000160217285,Tue Jul 01 2025 15:17:49 GMT-0500 (Central Daylight Time),462489.299999997,A,lak,O,k,221,1,4615.0,457874.299999997,7180,WL,B,13.0
3,25.774999856948853,learn,34225.00014305115,Tue Jul 01 2025 15:17:49 GMT-0500 (Central Daylight Time),462571.6000000015,A,lake,O,e,69,1,4697.30000000447,457874.299999997,7180,WL,B,13.0
3,26.109999895095825,learn,33890.000104904175,Tue Jul 01 2025 15:17:49 GMT-0500 (Central Daylight Time),462906.0,A,lakeenter,O,enter,327,1,5031.70000000298,457874.299999997,7180,WL,B,13.0
3,27.792999982833862,learn,32207.000017166138,Tue Jul 01 2025 15:17:49 GMT-0500 (Central Daylight Time),464589.1000000015,A,p,O,p,1667,1,1682.8000000044703,462906.299999997,7180,WL,B,14.0
3,27.927000045776367,learn,32072.999954223633,Tue Jul 01 2025 15:17:49 GMT-0500 (Central Daylight Time),464723.0,A,pi,O,i,126,1,1816.7000000029802,462906.299999997,7180,WL,B,14.0
3,28.20899987220764,learn,31791.00012779236,Tue Jul 01 2025 15:17:49 GMT-0500 (Central Daylight Time),465005.1000000015,A,pip,O,p,271,1,2098.8000000044703,462906.299999997,7180,WL,B,14.0
3,28.49399995803833,learn,31506.00004196167,Tue Jul 01 2025 15:17:49 GMT-0500 (Central Daylight Time),465290.3999999985,A,pipe,O,e,259,1,2384.10000000149,462906.299999997,7180,WL,B,14.0
3,28.840999841690063,learn,31159.000158309937,Tue Jul 01 2025 15:17:49 GMT-0500 (Central Daylight Time),465637.200000003,A,pipeenter,O,enter,323,1,2730.9000000059605,462906.299999997,7180,WL,B,14.0
3,33.84099984169006,learn,26159.000158309937,Tue Jul 01 2025 15:17:49 GMT-0500 (Central Daylight Time),470637.5,A,c,O,c,4985,1,5000.10000000149,465637.3999999985,7180,WL,B,15.0
3,33.97599983215332,learn,26024.00016784668,Tue Jul 01 2025 15:17:49 GMT-0500 (Central Daylight Time),470771.8999999985,A,cl,O,l,114,1,5134.5,465637.3999999985,7180,WL,B,15.0
3,34.240999937057495,learn,25759.000062942505,Tue Jul 01 2025 15:17:49 GMT-0500 (Central Daylight Time),471037.5,A,clo,O,o,244,1,5400.10000000149,465637.3999999985,7180,WL,B,15.0
3,34.759000062942505,learn,25240.999937057495,Tue Jul 01 2025 15:17:49 GMT-0500 (Central Daylight Time),471555.3999999985,A,cl,O,backspace,499,1,5918.0,465637.3999999985,7180,WL,B,15.0
3,34.97499990463257,learn,25025.00009536743,Tue Jul 01 2025 15:17:49 GMT-0500 (Central Daylight Time),471771.1000000015,A,c,O,backspace,197,1,6133.70000000298,465637.3999999985,7180,WL,B,15.0
3,35.17400002479553,learn,24825.999975204468,Tue Jul 01 2025 15:17:49 GMT-0500 (Central Daylight Time),471969.8999999985,A,,O,backspace,188,1,6332.5,465637.3999999985,7180,WL,B,15.0
3,35.973999977111816,learn,24026.000022888184,Tue Jul 01 2025 15:17:49 GMT-0500 (Central Daylight Time),472770.3999999985,A,s,O,s,794,1,7133.0,465637.3999999985,7180,WL,B,15.0
3,36.17400002479553,learn,23825.999975204468,Tue Jul 01 2025 15:17:49 GMT-0500 (Central Daylight Time),472970.1000000015,A,sk,O,k,191,1,7332.70000000298,465637.3999999985,7180,WL,B,15.0
3,36.40599989891052,learn,23594.000101089478,Tue Jul 01 2025 15:17:49 GMT-0500 (Central Daylight Time),473202.700000003,A,ski,O,i,215,1,7565.30000000447,465637.3999999985,7180,WL,B,15.0
3,36.50600004196167,learn,23493.99995803833,Tue Jul 01 2025 15:17:49 GMT-0500 (Central Daylight Time),473302.6000000015,A,skin,O,n,80,1,7665.20000000298,465637.3999999985,7180,WL,B,15.0
3,36.77300000190735,learn,23226.99999809265,Tue Jul 01 2025 15:17:49 GMT-0500 (Central Daylight Time),473568.799999997,A,skinenter,O,enter,249,1,7931.39999999851,465637.3999999985,7180,WL,B,15.0
4,0.7330000400543213,learn,59266.99995994568,Tue Jul 01 2025 15:17:49 GMT-0500 (Central Daylight Time),541530.700000003,A,c,O,c,720,1,733.0,540797.700000003,7180,WL,B,1.0
4,0.8499999046325684,learn,59150.00009536743,Tue Jul 01 2025 15:17:49 GMT-0500 (Central Daylight Time),541647.3999999985,A,cl,O,l,96,1,849.6999999955297,540797.700000003,7180,WL,B,1.0
4,1.0850000381469727,learn,58914.99996185303,Tue Jul 01 2025 15:17:49 GMT-0500 (Central Daylight Time),541882.200000003,A,clo,O,o,228,1,1084.5,540797.700000003,7180,WL,B,1.0
4,1.2160000801086426,learn,58783.99991989136,Tue Jul 01 2025 15:17:49 GMT-0500 (Central Daylight Time),542013.299999997,A,cloc,O,c,122,1,1215.5999999940395,540797.700000003,7180,WL,B,1.0
4,1.3499999046325684,learn,58650.00009536743,Tue Jul 01 2025 15:17:49 GMT-0500 (Central Daylight Time),542147.799999997,A,clock,O,k,127,1,1350.0999999940395,540797.700000003,7180,WL,B,1.0
4,1.6329998970031738,learn,58367.000102996826,Tue Jul 01 2025 15:17:49 GMT-0500 (Central Daylight Time),542430.700000003,A,clockenter,O,enter,261,1,1633.0,540797.700000003,7180,WL,B,1.0
4,1.9830000400543213,learn,58016.99995994568,Tue Jul 01 2025 15:17:49 GMT-0500 (Central Daylight Time),542780.1000000015,A,p,O,p,334,1,349.1000000014901,542431.0,7180,WL,B,2.0
4,2.2170000076293945,learn,57782.999992370605,Tue Jul 01 2025 15:17:49 GMT-0500 (Central Daylight Time),543013.799999997,A,pi,O,i,211,1,582.7999999970198,542431.0,7180,WL,B,2.0
4,2.615999937057495,learn,57384.000062942505,Tue Jul 01 2025 15:17:49 GMT-0500 (Central Daylight Time),543412.8999999985,A,pip,O,p,390,1,981.8999999985099,542431.0,7180,WL,B,2.0
4,2.749000072479248,learn,57250.99992752075,Tue Jul 01 2025 15:17:49 GMT-0500 (Central Daylight Time),543546.3999999985,A,pipe,O,e,110,1,1115.3999999985099,542431.0,7180,WL,B,2.0
4,3.0320000648498535,learn,56967.99993515015,Tue Jul 01 2025 15:17:49 GMT-0500 (Central Daylight Time),543829.200000003,A,pipeenter,O,enter,263,1,1398.2000000029802,542431.0,7180,WL,B,2.0
4,3.2319998741149902,learn,56768.00012588501,Tue Jul 01 2025 15:17:49 GMT-0500 (Central Daylight Time),544029.5,A,s,O,s,183,1,200.0,543829.5,7180,WL,B,3.0
4,3.431999921798706,learn,56568.000078201294,Tue Jul 01 2025 15:17:49 GMT-0500 (Central Daylight Time),544229.700000003,A,sk,O,k,182,1,400.20000000298023,543829.5,7180,WL,B,3.0
4,3.6649999618530273,learn,56335.00003814697,Tue Jul 01 2025 15:17:49 GMT-0500 (Central Daylight Time),544462.3999999985,A,ski,O,i,216,1,632.8999999985099,543829.5,7180,WL,B,3.0
4,3.7660000324249268,learn,56233.99996757507,Tue Jul 01 2025 15:17:49 GMT-0500 (Central Daylight Time),544563.700000003,A,skin,O,n,94,1,734.2000000029802,543829.5,7180,WL,B,3.0
4,4.21399998664856,learn,55786.00001335144,Tue Jul 01 2025 15:17:49 GMT-0500 (Central Daylight Time),545011.799999997,A,skinenter,O,enter,431,1,1182.2999999970198,543829.5,7180,WL,B,3.0
4,4.5980000495910645,learn,55401.999950408936,Tue Jul 01 2025 15:17:49 GMT-0500 (Central Daylight Time),545395.6000000015,A,f,O,f,370,1,383.6000000014901,545012.0,7180,WL,B,4.0
4,4.7149999141693115,learn,55285.00008583069,Tue Jul 01 2025 15:17:49 GMT-0500 (Central Daylight Time),545511.799999997,A,fi,O,i,96,1,499.79999999701977,545012.0,7180,WL,B,4.0
4,4.865999937057495,learn,55134.000062942505,Tue Jul 01 2025 15:17:49 GMT-0500 (Central Daylight Time),545662.8999999985,A,fir,O,r,140,1,650.8999999985099,545012.0,7180,WL,B,4.0
4,5.0320000648498535,learn,54967.99993515015,Tue Jul 01 2025 15:17:49 GMT-0500 (Central Daylight Time),545829.6000000015,A,fire,O,e,140,1,817.6000000014901,545012.0,7180,WL,B,4.0
4,5.230999946594238,learn,54769.00005340576,Tue Jul 01 2025 15:17:49 GMT-0500 (Central Daylight Time),546027.700000003,A,fireenter,O,enter,189,1,1015.7000000029802,545012.0,7180,WL,B,4.0
4,6.4649999141693115,learn,53535.00008583069,Tue Jul 01 2025 15:17:49 GMT-0500 (Central Daylight Time),547262.299999997,A,s,O,s,1216,1,1234.2999999970198,546028.0,7180,WL,B,5.0
4,6.63100004196167,learn,53368.99995803833,Tue Jul 01 2025 15:17:49 GMT-0500 (Central Daylight Time),547428.1000000015,A,st,O,t,149,1,1400.1000000014901,546028.0,7180,WL,B,5.0
4,6.730000019073486,learn,53269.999980926514,Tue Jul 01 2025 15:17:49 GMT-0500 (Central Daylight Time),547527.299999997,A,sta,O,a,79,1,1499.2999999970198,546028.0,7180,WL,B,5.0
4,6.864000082015991,learn,53135.99991798401,Tue Jul 01 2025 15:17:49 GMT-0500 (Central Daylight Time),547661.5,A,star,O,r,114,1,1633.5,546028.0,7180,WL,B,5.0
4,7.614000082015991,learn,52385.99991798401,Tue Jul 01 2025 15:17:49 GMT-0500 (Central Daylight Time),548410.799999997,A,starenter,O,enter,733,1,2382.7999999970198,546028.0,7180,WL,B,5.0
4,8.013999938964844,learn,51986.000061035156,Tue Jul 01 2025 15:17:49 GMT-0500 (Central Daylight Time),548811.6000000015,A,w,O,w,396,1,400.3999999985099,548411.200000003,7180,WL,B,6.0
4,8.147000074386597,learn,51852.9999256134,Tue Jul 01 2025 15:17:49 GMT-0500 (Central Daylight Time),548943.799999997,A,wi,O,i,121,1,532.5999999940395,548411.200000003,7180,WL,B,6.0
4,8.313999891281128,learn,51686.00010871887,Tue Jul 01 2025 15:17:49 GMT-0500 (Central Daylight Time),549111.6000000015,A,wif,O,f,147,1,700.3999999985099,548411.200000003,7180,WL,B,6.0
4,8.496999979019165,learn,51503.000020980835,Tue Jul 01 2025 15:17:49 GMT-0500 (Central Daylight Time),549294.3999999985,A,wife,O,e,164,1,883.1999999955297,548411.200000003,7180,WL,B,6.0
4,8.71399998664856,learn,51286.00001335144,Tue Jul 01 2025 15:17:49 GMT-0500 (Central Daylight Time),549511.6000000015,A,wifeenter,O,enter,204,1,1100.3999999985099,548411.200000003,7180,WL,B,6.0
4,10.246000051498413,learn,49753.99994850159,Tue Jul 01 2025 15:17:49 GMT-0500 (Central Daylight Time),551043.1000000015,A,s,O,s,1525,1,1531.3000000044703,549511.799999997,7180,WL,B,7.0
4,10.463000059127808,learn,49536.99994087219,Tue Jul 01 2025 15:17:49 GMT-0500 (Central Daylight Time),551260.5,A,st,O,t,209,1,1748.7000000029802,549511.799999997,7180,WL,B,7.0
4,10.69700002670288,learn,49302.99997329712,Tue Jul 01 2025 15:17:49 GMT-0500 (Central Daylight Time),551494.1000000015,A,str,O,r,214,1,1982.3000000044703,549511.799999997,7180,WL,B,7.0
4,10.997999906539917,learn,49002.00009346008,Tue Jul 01 2025 15:17:49 GMT-0500 (Central Daylight Time),551795.6000000015,A,stre,O,e,296,1,2283.8000000044703,549511.799999997,7180,WL,B,7.0
4,11.178999900817871,learn,48821.00009918213,Tue Jul 01 2025 15:17:49 GMT-0500 (Central Daylight Time),551976.5,A,stree,O,e,168,1,2464.7000000029802,549511.799999997,7180,WL,B,7.0
4,11.378999948501587,learn,48621.00005149841,Tue Jul 01 2025 15:17:49 GMT-0500 (Central Daylight Time),552176.299999997,A,street,O,t,187,1,2664.5,549511.799999997,7180,WL,B,7.0
4,11.69599986076355,learn,48304.00013923645,Tue Jul 01 2025 15:17:49 GMT-0500 (Central Daylight Time),552493.299999997,A,streetenter,O,enter,308,1,2981.5,549511.799999997,7180,WL,B,7.0
4,12.629999876022339,learn,47370.00012397766,Tue Jul 01 2025 15:17:49 GMT-0500 (Central Daylight Time),553427.0,A,g,O,g,921,1,933.3999999985099,552493.6000000015,7180,WL,B,8.0
4,13.062999963760376,learn,46937.000036239624,Tue Jul 01 2025 15:17:49 GMT-0500 (Central Daylight Time),553860.1000000015,A,gr,O,r,411,1,1366.5,552493.6000000015,7180,WL,B,8.0
4,13.246999979019165,learn,46753.000020980835,Tue Jul 01 2025 15:17:49 GMT-0500 (Central Daylight Time),554044.200000003,A,gra,O,a,178,1,1550.6000000014901,552493.6000000015,7180,WL,B,8.0
4,13.478999853134155,learn,46521.000146865845,Tue Jul 01 2025 15:17:49 GMT-0500 (Central Daylight Time),554275.8999999985,A,gras,O,s,224,1,1782.2999999970198,552493.6000000015,7180,WL,B,8.0
4,13.661999940872192,learn,46338.00005912781,Tue Jul 01 2025 15:17:49 GMT-0500 (Central Daylight Time),554459.3999999985,A,grass,O,s,166,1,1965.7999999970198,552493.6000000015,7180,WL,B,8.0
4,13.978999853134155,learn,46021.000146865845,Tue Jul 01 2025 15:17:49 GMT-0500 (Central Daylight Time),554776.3999999985,A,grassenter,O,enter,298,1,2282.7999999970198,552493.6000000015,7180,WL,B,8.0
4,14.59500002861023,learn,45404.99997138977,Tue Jul 01 2025 15:17:49 GMT-0500 (Central Daylight Time),555392.700000003,A,a,O,a,605,1,616.1000000014901,554776.6000000015,7180,WL,B,9.0
4,14.845999956130981,learn,45154.00004386902,Tue Jul 01 2025 15:17:49 GMT-0500 (Central Daylight Time),555643.5,A,ar,O,r,236,1,866.8999999985099,554776.6000000015,7180,WL,B,9.0
4,15.07800006866455,learn,44921.99993133545,Tue Jul 01 2025 15:17:49 GMT-0500 (Central Daylight Time),555874.8999999985,A,arm,O,m,216,1,1098.2999999970198,554776.6000000015,7180,WL,B,9.0
4,15.379999876022339,learn,44620.00012397766,Tue Jul 01 2025 15:17:49 GMT-0500 (Central Daylight Time),556177.0,A,armenter,O,enter,296,1,1400.3999999985099,554776.6000000015,7180,WL,B,9.0
4,15.57800006866455,learn,44421.99993133545,Tue Jul 01 2025 15:17:49 GMT-0500 (Central Daylight Time),556375.299999997,A,d,O,d,179,1,198.0,556177.299999997,7180,WL,B,10.0
4,15.82800006866455,learn,44171.99993133545,Tue Jul 01 2025 15:17:49 GMT-0500 (Central Daylight Time),556625.6000000015,A,do,O,o,229,1,448.30000000447035,556177.299999997,7180,WL,B,10.0
4,16.027999877929688,learn,43972.00012207031,Tue Jul 01 2025 15:17:49 GMT-0500 (Central Daylight Time),556824.8999999985,A,doo,O,o,184,1,647.6000000014901,556177.299999997,7180,WL,B,10.0
4,16.144999980926514,learn,43855.000019073486,Tue Jul 01 2025 15:17:49 GMT-0500 (Central Daylight Time),556942.299999997,A,door,O,r,108,1,765.0,556177.299999997,7180,WL,B,10.0
4,16.543999910354614,learn,43456.000089645386,Tue Jul 01 2025 15:17:49 GMT-0500 (Central Daylight Time),557341.3999999985,A,doorenter,O,enter,390,1,1164.1000000014901,556177.299999997,7180,WL,B,10.0
4,20.277999877929688,learn,39722.00012207031,Tue Jul 01 2025 15:17:49 GMT-0500 (Central Daylight Time),561075.0,A,c,O,c,3730,1,3733.39999999851,557341.6000000015,7180,WL,B,11.0
4,20.460000038146973,learn,39539.99996185303,Tue Jul 01 2025 15:17:49 GMT-0500 (Central Daylight Time),561257.700000003,A,ca,O,a,159,1,3916.10000000149,557341.6000000015,7180,WL,B,11.0
4,20.66100001335144,learn,39338.99998664856,Tue Jul 01 2025 15:17:49 GMT-0500 (Central Daylight Time),561457.8999999985,A,cab,O,b,186,1,4116.29999999702,557341.6000000015,7180,WL,B,11.0
4,20.878000020980835,learn,39121.999979019165,Tue Jul 01 2025 15:17:49 GMT-0500 (Central Daylight Time),561675.700000003,A,cabi,O,i,203,1,4334.10000000149,557341.6000000015,7180,WL,B,11.0
4,21.01099991798401,learn,38989.00008201599,Tue Jul 01 2025 15:17:49 GMT-0500 (Central Daylight Time),561808.700000003,A,cabin,O,n,111,1,4467.10000000149,557341.6000000015,7180,WL,B,11.0
4,21.276000022888184,learn,38723.99997711182,Tue Jul 01 2025 15:17:49 GMT-0500 (Central Daylight Time),562073.700000003,A,cabinenter,O,enter,257,1,4732.10000000149,557341.6000000015,7180,WL,B,11.0
4,21.592000007629395,learn,38407.999992370605,Tue Jul 01 2025 15:17:49 GMT-0500 (Central Daylight Time),562389.3999999985,A,l,O,l,309,1,315.6000000014901,562073.799999997,7180,WL,B,12.0
4,21.741999864578247,learn,38258.00013542175,Tue Jul 01 2025 15:17:49 GMT-0500 (Central Daylight Time),562539.3999999985,A,la,O,a,129,1,465.6000000014901,562073.799999997,7180,WL,B,12.0
4,21.925999879837036,learn,38074.000120162964,Tue Jul 01 2025 15:17:49 GMT-0500 (Central Daylight Time),562723.5,A,lak,O,k,177,1,649.7000000029802,562073.799999997,7180,WL,B,12.0
4,22.05999994277954,learn,37940.00005722046,Tue Jul 01 2025 15:17:49 GMT-0500 (Central Daylight Time),562857.700000003,A,lake,O,e,119,1,783.9000000059605,562073.799999997,7180,WL,B,12.0
4,22.342000007629395,learn,37657.999992370605,Tue Jul 01 2025 15:17:49 GMT-0500 (Central Daylight Time),563139.200000003,A,lakeenter,O,enter,266,1,1065.4000000059605,562073.799999997,7180,WL,B,12.0
4,24.460000038146973,learn,35539.99996185303,Tue Jul 01 2025 15:17:49 GMT-0500 (Central Daylight Time),565257.700000003,A,p,O,p,2106,1,2118.3000000044703,563139.3999999985,7180,WL,B,13.0
4,24.693000078201294,learn,35306.999921798706,Tue Jul 01 2025 15:17:49 GMT-0500 (Central Daylight Time),565490.0,A,pu,O,u,210,1,2350.60000000149,563139.3999999985,7180,WL,B,13.0
4,25.04200005531311,learn,34957.99994468689,Tue Jul 01 2025 15:17:49 GMT-0500 (Central Daylight Time),565839.0,A,pup,O,p,328,1,2699.60000000149,563139.3999999985,7180,WL,B,13.0
4,25.342000007629395,learn,34657.999992370605,Tue Jul 01 2025 15:17:49 GMT-0500 (Central Daylight Time),566139.299999997,A,pupi,O,i,275,1,2999.89999999851,563139.3999999985,7180,WL,B,13.0
4,25.55999994277954,learn,34440.00005722046,Tue Jul 01 2025 15:17:49 GMT-0500 (Central Daylight Time),566357.0,A,pupil,O,l,200,1,3217.60000000149,563139.3999999985,7180,WL,B,13.0
4,26.057999849319458,learn,33942.00015068054,Tue Jul 01 2025 15:17:49 GMT-0500 (Central Daylight Time),566855.0,A,pupilenter,O,enter,485,1,3715.60000000149,563139.3999999985,7180,WL,B,13.0
4,26.443000078201294,learn,33556.999921798706,Tue Jul 01 2025 15:17:49 GMT-0500 (Central Daylight Time),567240.0,A,c,O,c,374,1,384.70000000298023,566855.299999997,7180,WL,B,14.0
4,26.524999856948853,learn,33475.00014305115,Tue Jul 01 2025 15:17:49 GMT-0500 (Central Daylight Time),567322.1000000015,A,ci,O,i,69,1,466.80000000447035,566855.299999997,7180,WL,B,14.0
4,26.743000030517578,learn,33256.99996948242,Tue Jul 01 2025 15:17:49 GMT-0500 (Central Daylight Time),567540.5,A,cit,O,t,211,1,685.2000000029802,566855.299999997,7180,WL,B,14.0
4,26.924999952316284,learn,33075.000047683716,Tue Jul 01 2025 15:17:49 GMT-0500 (Central Daylight Time),567722.700000003,A,city,O,y,163,1,867.4000000059605,566855.299999997,7180,WL,B,14.0
4,27.941999912261963,learn,32058.000087738037,Tue Jul 01 2025 15:17:49 GMT-0500 (Central Daylight Time),568738.8999999985,A,cityenter,O,enter,998,1,1883.6000000014901,566855.299999997,7180,WL,B,14.0
4,28.557999849319458,learn,31442.000150680542,Tue Jul 01 2025 15:17:49 GMT-0500 (Central Daylight Time),569355.0,A,w,O,w,601,1,615.7999999970198,568739.200000003,7180,WL,B,15.0
4,28.691999912261963,learn,31308.000087738037,Tue Jul 01 2025 15:17:49 GMT-0500 (Central Daylight Time),569489.799999997,A,wi,O,i,113,1,750.5999999940395,568739.200000003,7180,WL,B,15.0
4,28.806999921798706,learn,31193.000078201294,Tue Jul 01 2025 15:17:49 GMT-0500 (Central Daylight Time),569604.5,A,win,O,n,95,1,865.2999999970198,568739.200000003,7180,WL,B,15.0
4,28.925999879837036,learn,31074.000120162964,Tue Jul 01 2025 15:17:49 GMT-0500 (Central Daylight Time),569723.299999997,A,wind,O,d,113,1,984.0999999940395,568739.200000003,7180,WL,B,15.0
4,29.092000007629395,learn,30907.999992370605,Tue Jul 01 2025 15:17:49 GMT-0500 (Central Daylight Time),569889.299999997,A,windo,O,o,152,1,1150.0999999940395,568739.200000003,7180,WL,B,15.0
4,29.223999977111816,learn,30776.000022888184,Tue Jul 01 2025 15:17:49 GMT-0500 (Central Daylight Time),570021.3999999985,A,window,O,w,128,1,1282.1999999955297,568739.200000003,7180,WL,B,15.0
4,29.52300000190735,learn,30476.99999809265,Tue Jul 01 2025 15:17:49 GMT-0500 (Central Daylight Time),570320.6000000015,A,windowenter,O,enter,285,1,1581.3999999985099,568739.200000003,7180,WL,B,15.0
5,0.7839999198913574,learn,60000.0,Tue Jul 01 2025 15:17:49 GMT-0500 (Central Daylight Time),639199.299999997,A,c,O,c,771,1,783.5,638415.799999997,7180,WL,B,1.0
5,0.9500000476837158,learn,60000.0,Tue Jul 01 2025 15:17:49 GMT-0500 (Central Daylight Time),639365.6000000015,A,cl,O,l,156,1,949.8000000044703,638415.799999997,7180,WL,B,1.0
5,1.2350001335144043,learn,60000.0,Tue Jul 01 2025 15:17:49 GMT-0500 (Central Daylight Time),639650.700000003,A,clo,O,o,262,1,1234.9000000059605,638415.799999997,7180,WL,B,1.0
5,1.434000015258789,learn,60000.0,Tue Jul 01 2025 15:17:49 GMT-0500 (Central Daylight Time),639849.6000000015,A,cloc,O,c,184,1,1433.8000000044703,638415.799999997,7180,WL,B,1.0
5,1.565999984741211,learn,60000.0,Tue Jul 01 2025 15:17:49 GMT-0500 (Central Daylight Time),639981.299999997,A,clock,O,k,115,1,1565.5,638415.799999997,7180,WL,B,1.0
5,1.883000135421753,learn,60000.0,Tue Jul 01 2025 15:17:49 GMT-0500 (Central Daylight Time),640298.5,A,clockenter,O,enter,311,1,1882.7000000029802,638415.799999997,7180,WL,B,1.0
5,2.5840001106262207,learn,60000.0,Tue Jul 01 2025 15:17:49 GMT-0500 (Central Daylight Time),640999.299999997,A,f,O,f,682,1,700.5,640298.799999997,7180,WL,B,2.0
5,2.6670000553131104,learn,60000.0,Tue Jul 01 2025 15:17:49 GMT-0500 (Central Daylight Time),641082.200000003,A,fi,O,i,77,1,783.4000000059605,640298.799999997,7180,WL,B,2.0
5,2.815999984741211,learn,60000.0,Tue Jul 01 2025 15:17:49 GMT-0500 (Central Daylight Time),641231.700000003,A,fir,O,r,140,1,932.9000000059605,640298.799999997,7180,WL,B,2.0
5,2.933000087738037,learn,60000.0,Tue Jul 01 2025 15:17:49 GMT-0500 (Central Daylight Time),641348.299999997,A,fire,O,e,112,1,1049.5,640298.799999997,7180,WL,B,2.0
5,3.183000087738037,learn,60000.0,Tue Jul 01 2025 15:17:49 GMT-0500 (Central Daylight Time),641598.3999999985,A,fireenter,O,enter,231,1,1299.6000000014901,640298.799999997,7180,WL,B,2.0
5,3.4000000953674316,learn,60000.0,Tue Jul 01 2025 15:17:49 GMT-0500 (Central Daylight Time),641815.200000003,A,s,O,s,206,1,216.5,641598.700000003,7180,WL,B,3.0
5,3.6000001430511475,learn,60000.0,Tue Jul 01 2025 15:17:49 GMT-0500 (Central Daylight Time),642015.0,A,sk,O,k,182,1,416.29999999701977,641598.700000003,7180,WL,B,3.0
5,3.8500001430511475,learn,60000.0,Tue Jul 01 2025 15:17:49 GMT-0500 (Central Daylight Time),642265.1000000015,A,ski,O,i,228,1,666.3999999985099,641598.700000003,7180,WL,B,3.0
5,4.133000135421753,learn,60000.0,Tue Jul 01 2025 15:17:49 GMT-0500 (Central Daylight Time),642548.0,A,skin,O,n,274,1,949.2999999970198,641598.700000003,7180,WL,B,3.0
5,4.41700005531311,learn,60000.0,Tue Jul 01 2025 15:17:49 GMT-0500 (Central Daylight Time),642831.8999999985,A,skinenter,O,enter,270,1,1233.1999999955297,641598.700000003,7180,WL,B,3.0
5,4.848999977111816,learn,60000.0,Tue Jul 01 2025 15:17:49 GMT-0500 (Central Daylight Time),643264.3999999985,A,p,O,p,421,1,432.19999999552965,642832.200000003,7180,WL,B,4.0
5,5.2179999351501465,learn,60000.0,Tue Jul 01 2025 15:17:49 GMT-0500 (Central Daylight Time),643633.0,A,pi,O,i,347,1,800.7999999970198,642832.200000003,7180,WL,B,4.0
5,5.699000120162964,learn,60000.0,Tue Jul 01 2025 15:17:49 GMT-0500 (Central Daylight Time),644114.3999999985,A,pip,O,p,476,1,1282.1999999955297,642832.200000003,7180,WL,B,4.0
5,5.966000080108643,learn,60000.0,Tue Jul 01 2025 15:17:49 GMT-0500 (Central Daylight Time),644380.8999999985,A,pipe,O,e,261,1,1548.6999999955297,642832.200000003,7180,WL,B,4.0
5,6.233000040054321,learn,60000.0,Tue Jul 01 2025 15:17:49 GMT-0500 (Central Daylight Time),644647.8999999985,A,pipeenter,O,enter,247,1,1815.6999999955297,642832.200000003,7180,WL,B,4.0
5,8.082000017166138,learn,60000.0,Tue Jul 01 2025 15:17:49 GMT-0500 (Central Daylight Time),646497.700000003,A,w,O,w,1836,1,1849.5,644648.200000003,7180,WL,B,5.0
5,8.214999914169312,learn,60000.0,Tue Jul 01 2025 15:17:49 GMT-0500 (Central Daylight Time),646629.8999999985,A,wi,O,i,114,1,1981.6999999955297,644648.200000003,7180,WL,B,5.0
5,8.331000089645386,learn,60000.0,Tue Jul 01 2025 15:17:49 GMT-0500 (Central Daylight Time),646746.6000000015,A,win,O,n,100,1,2098.39999999851,644648.200000003,7180,WL,B,5.0
5,8.449000120162964,learn,60000.0,Tue Jul 01 2025 15:17:49 GMT-0500 (Central Daylight Time),646864.700000003,A,wind,O,d,112,1,2216.5,644648.200000003,7180,WL,B,5.0
5,8.614000082015991,learn,60000.0,Tue Jul 01 2025 15:17:49 GMT-0500 (Central Daylight Time),647029.0,A,windo,O,o,155,1,2380.7999999970198,644648.200000003,7180,WL,B,5.0
5,8.79699993133545,learn,60000.0,Tue Jul 01 2025 15:17:49 GMT-0500 (Central Daylight Time),647212.700000003,A,window,O,w,176,1,2564.5,644648.200000003,7180,WL,B,5.0
5,8.996999979019165,learn,60000.0,Tue Jul 01 2025 15:17:49 GMT-0500 (Central Daylight Time),647412.5,A,windowenter,O,enter,181,1,2764.2999999970198,644648.200000003,7180,WL,B,5.0
5,9.282999992370605,learn,60000.0,Tue Jul 01 2025 15:17:49 GMT-0500 (Central Daylight Time),647698.1000000015,A,c,O,c,272,1,285.3999999985099,647412.700000003,7180,WL,B,6.0
5,9.397000074386597,learn,60000.0,Tue Jul 01 2025 15:17:49 GMT-0500 (Central Daylight Time),647812.3999999985,A,ci,O,i,93,1,399.69999999552965,647412.700000003,7180,WL,B,6.0
5,9.565000057220459,learn,60000.0,Tue Jul 01 2025 15:17:49 GMT-0500 (Central Daylight Time),647979.8999999985,A,cit,O,t,150,1,567.1999999955297,647412.700000003,7180,WL,B,6.0
5,9.69700002670288,learn,60000.0,Tue Jul 01 2025 15:17:49 GMT-0500 (Central Daylight Time),648112.200000003,A,city,O,y,112,1,699.5,647412.700000003,7180,WL,B,6.0
5,10.081000089645386,learn,60000.0,Tue Jul 01 2025 15:17:49 GMT-0500 (Central Daylight Time),648496.200000003,A,cityenter,O,enter,370,1,1083.5,647412.700000003,7180,WL,B,6.0
5,10.513000011444092,learn,60000.0,Tue Jul 01 2025 15:17:49 GMT-0500 (Central Daylight Time),648928.799999997,A,p,O,p,420,1,432.29999999701977,648496.5,7180,WL,B,7.0
5,10.697999954223633,learn,60000.0,Tue Jul 01 2025 15:17:49 GMT-0500 (Central Daylight Time),649113.200000003,A,pu,O,u,163,1,616.7000000029802,648496.5,7180,WL,B,7.0
5,10.914999961853027,learn,60000.0,Tue Jul 01 2025 15:17:49 GMT-0500 (Central Daylight Time),649330.0,A,pup,O,p,195,1,833.5,648496.5,7180,WL,B,7.0
5,11.248000144958496,learn,60000.0,Tue Jul 01 2025 15:17:49 GMT-0500 (Central Daylight Time),649663.200000003,A,pupe,O,e,323,1,1166.7000000029802,648496.5,7180,WL,B,7.0
5,11.63100004196167,learn,60000.0,Tue Jul 01 2025 15:17:49 GMT-0500 (Central Daylight Time),650046.0,A,pup,O,backspace,374,1,1549.5,648496.5,7180,WL,B,7.0
5,11.914000034332275,learn,60000.0,Tue Jul 01 2025 15:17:49 GMT-0500 (Central Daylight Time),650329.200000003,A,pupi,O,i,271,1,1832.7000000029802,648496.5,7180,WL,B,7.0
5,12.081000089645386,learn,60000.0,Tue Jul 01 2025 15:17:49 GMT-0500 (Central Daylight Time),650495.799999997,A,pupil,O,l,154,1,1999.2999999970198,648496.5,7180,WL,B,7.0
5,12.42900013923645,learn,60000.0,Tue Jul 01 2025 15:17:49 GMT-0500 (Central Daylight Time),650844.700000003,A,pupilenter,O,enter,340,1,2348.2000000029802,648496.5,7180,WL,B,7.0
5,14.628999948501587,learn,60000.0,Tue Jul 01 2025 15:17:49 GMT-0500 (Central Daylight Time),653044.6000000015,A,w,O,w,2180,1,2199.60000000149,650845.0,7180,WL,B,8.0
5,14.745000123977661,learn,60000.0,Tue Jul 01 2025 15:17:49 GMT-0500 (Central Daylight Time),653160.700000003,A,wi,O,i,102,1,2315.7000000029802,650845.0,7180,WL,B,8.0
5,14.913000106811523,learn,60000.0,Tue Jul 01 2025 15:17:49 GMT-0500 (Central Daylight Time),653327.8999999985,A,wif,O,f,156,1,2482.89999999851,650845.0,7180,WL,B,8.0
5,15.11299991607666,learn,60000.0,Tue Jul 01 2025 15:17:49 GMT-0500 (Central Daylight Time),653528.200000003,A,wife,O,e,180,1,2683.2000000029802,650845.0,7180,WL,B,8.0
5,15.328999996185303,learn,60000.0,Tue Jul 01 2025 15:17:49 GMT-0500 (Central Daylight Time),653744.700000003,A,wifeenter,O,enter,194,1,2899.7000000029802,650845.0,7180,WL,B,8.0
5,15.578999996185303,learn,60000.0,Tue Jul 01 2025 15:17:49 GMT-0500 (Central Daylight Time),653994.5,A,s,O,s,235,1,249.5,653745.0,7180,WL,B,9.0
5,15.779000043869019,learn,60000.0,Tue Jul 01 2025 15:17:49 GMT-0500 (Central Daylight Time),654194.799999997,A,st,O,t,185,1,449.79999999701977,653745.0,7180,WL,B,9.0
5,15.94700002670288,learn,60000.0,Tue Jul 01 2025 15:17:49 GMT-0500 (Central Daylight Time),654364.0,A,sta,O,a,151,1,619.0,653745.0,7180,WL,B,9.0
5,16.091000080108643,learn,60000.0,Tue Jul 01 2025 15:17:49 GMT-0500 (Central Daylight Time),654508.6000000015,A,star,O,r,137,1,763.6000000014901,653745.0,7180,WL,B,9.0
5,16.625999927520752,learn,60000.0,Tue Jul 01 2025 15:17:49 GMT-0500 (Central Daylight Time),655043.1000000015,A,starenter,O,enter,519,1,1298.1000000014901,653745.0,7180,WL,B,9.0
5,18.64300012588501,learn,60000.0,Tue Jul 01 2025 15:17:49 GMT-0500 (Central Daylight Time),657060.200000003,A,s,O,s,2002,1,2016.9000000059605,655043.299999997,7180,WL,B,10.0
5,18.858999967575073,learn,60000.0,Tue Jul 01 2025 15:17:49 GMT-0500 (Central Daylight Time),657276.299999997,A,st,O,t,207,1,2233.0,655043.299999997,7180,WL,B,10.0
5,19.075000047683716,learn,60000.0,Tue Jul 01 2025 15:17:49 GMT-0500 (Central Daylight Time),657492.799999997,A,str,O,r,192,1,2449.5,655043.299999997,7180,WL,B,10.0
5,19.210000038146973,learn,60000.0,Tue Jul 01 2025 15:17:49 GMT-0500 (Central Daylight Time),657627.6000000015,A,stre,O,e,128,1,2584.3000000044703,655043.299999997,7180,WL,B,10.0
5,19.408999919891357,learn,60000.0,Tue Jul 01 2025 15:17:49 GMT-0500 (Central Daylight Time),657826.799999997,A,stree,O,e,192,1,2783.5,655043.299999997,7180,WL,B,10.0
5,19.625,learn,60000.0,Tue Jul 01 2025 15:17:49 GMT-0500 (Central Daylight Time),658042.6000000015,A,street,O,t,199,1,2999.3000000044703,655043.299999997,7180,WL,B,10.0
5,19.943000078201294,learn,60000.0,Tue Jul 01 2025 15:17:49 GMT-0500 (Central Daylight Time),658359.8999999985,A,streetenter,O,enter,304,1,3316.60000000149,655043.299999997,7180,WL,B,10.0
5,20.276000022888184,learn,60000.0,Tue Jul 01 2025 15:17:49 GMT-0500 (Central Daylight Time),658693.200000003,A,d,O,d,327,1,333.1000000014901,658360.1000000015,7180,WL,B,11.0
5,20.475000143051147,learn,60000.0,Tue Jul 01 2025 15:17:49 GMT-0500 (Central Daylight Time),658892.3999999985,A,do,O,o,193,1,532.2999999970198,658360.1000000015,7180,WL,B,11.0
5,20.759999990463257,learn,60000.0,Tue Jul 01 2025 15:17:49 GMT-0500 (Central Daylight Time),659176.8999999985,A,doo,O,o,271,1,816.7999999970198,658360.1000000015,7180,WL,B,11.0
5,20.89300012588501,learn,60000.0,Tue Jul 01 2025 15:17:49 GMT-0500 (Central Daylight Time),659309.8999999985,A,door,O,r,124,1,949.7999999970198,658360.1000000015,7180,WL,B,11.0
5,21.941999912261963,learn,60000.0,Tue Jul 01 2025 15:17:49 GMT-0500 (Central Daylight Time),660359.5,A,doorenter,O,enter,1035,1,1999.3999999985099,658360.1000000015,7180,WL,B,11.0
5,22.858999967575073,learn,60000.0,Tue Jul 01 2025 15:17:49 GMT-0500 (Central Daylight Time),661276.299999997,A,a,O,a,911,1,916.5,660359.799999997,7180,WL,B,12.0
5,23.092000007629395,learn,60000.0,Tue Jul 01 2025 15:17:49 GMT-0500 (Central Daylight Time),661509.6000000015,A,ar,O,r,214,1,1149.8000000044703,660359.799999997,7180,WL,B,12.0
5,23.407999992370605,learn,60000.0,Tue Jul 01 2025 15:17:49 GMT-0500 (Central Daylight Time),661825.8999999985,A,arm,O,m,293,1,1466.1000000014901,660359.799999997,7180,WL,B,12.0
5,23.77500009536743,learn,60000.0,Tue Jul 01 2025 15:17:49 GMT-0500 (Central Daylight Time),662192.1000000015,A,armenter,O,enter,352,1,1832.3000000044703,660359.799999997,7180,WL,B,12.0
5,24.075000047683716,learn,60000.0,Tue Jul 01 2025 15:17:49 GMT-0500 (Central Daylight Time),662491.8999999985,A,g,O,g,286,1,299.5,662192.3999999985,7180,WL,B,13.0
5,24.30900001525879,learn,60000.0,Tue Jul 01 2025 15:17:49 GMT-0500 (Central Daylight Time),662725.8999999985,A,gr,O,r,211,1,533.5,662192.3999999985,7180,WL,B,13.0
5,24.374000072479248,learn,60000.0,Tue Jul 01 2025 15:17:49 GMT-0500 (Central Daylight Time),662791.0,A,gra,O,a,52,1,598.6000000014901,662192.3999999985,7180,WL,B,13.0
5,24.907999992370605,learn,60000.0,Tue Jul 01 2025 15:17:49 GMT-0500 (Central Daylight Time),663324.8999999985,A,gras,O,s,527,1,1132.5,662192.3999999985,7180,WL,B,13.0
5,25.10800004005432,learn,60000.0,Tue Jul 01 2025 15:17:49 GMT-0500 (Central Daylight Time),663525.5,A,grass,O,s,179,1,1333.1000000014901,662192.3999999985,7180,WL,B,13.0
5,25.407999992370605,learn,60000.0,Tue Jul 01 2025 15:17:49 GMT-0500 (Central Daylight Time),663825.299999997,A,grassenter,O,enter,286,1,1632.8999999985099,662192.3999999985,7180,WL,B,13.0
5,40.55299997329712,learn,60000.0,Tue Jul 01 2025 15:17:49 GMT-0500 (Central Daylight Time),678970.1000000015,A,w,O,w,15139,1,15144.5,663825.6000000015,7180,WL,B,14.0
5,40.71900010108948,learn,60000.0,Tue Jul 01 2025 15:17:49 GMT-0500 (Central Daylight Time),679136.200000003,A,wi,O,i,153,1,15310.60000000149,663825.6000000015,7180,WL,B,14.0
5,40.937000036239624,learn,60000.0,Tue Jul 01 2025 15:17:49 GMT-0500 (Central Daylight Time),679354.0,A,wif,O,f,195,1,15528.39999999851,663825.6000000015,7180,WL,B,14.0
5,41.28600001335144,learn,60000.0,Tue Jul 01 2025 15:17:49 GMT-0500 (Central Daylight Time),679703.700000003,A,wife,O,e,328,1,15878.10000000149,663825.6000000015,7180,WL,B,14.0
5,41.53500008583069,learn,60000.0,Tue Jul 01 2025 15:17:49 GMT-0500 (Central Daylight Time),679952.1000000015,A,wifeenter,O,enter,227,1,16126.5,663825.6000000015,7180,WL,B,14.0
5,41.73699998855591,learn,60000.0,Tue Jul 01 2025 15:17:49 GMT-0500 (Central Daylight Time),680153.8999999985,A,s,O,s,180,1,201.60000000149012,679952.299999997,7180,WL,B,15.0
5,42.13700008392334,learn,60000.0,Tue Jul 01 2025 15:17:49 GMT-0500 (Central Daylight Time),680554.200000003,A,st,O,t,395,1,601.9000000059605,679952.299999997,7180,WL,B,15.0
5,42.40300011634827,learn,60000.0,Tue Jul 01 2025 15:17:49 GMT-0500 (Central Daylight Time),680819.8999999985,A,sta,O,a,248,1,867.6000000014901,679952.299999997,7180,WL,B,15.0
5,42.569000005722046,learn,60000.0,Tue Jul 01 2025 15:17:49 GMT-0500 (Central Daylight Time),680985.8999999985,A,star,O,r,152,1,1033.6000000014901,679952.299999997,7180,WL,B,15.0
5,42.95099997520447,learn,60000.0,Tue Jul 01 2025 15:17:49 GMT-0500 (Central Daylight Time),681368.3999999985,A,starenter,O,enter,370,1,1416.1000000014901,679952.299999997,7180,WL,B,15.0
6,0.6850001811981201,distr,59314.99981880188,Tue Jul 01 2025 15:17:49 GMT-0500 (Central Daylight Time),753114.8999999985,B,c,O,c,670,1,684.6999999955297,752430.200000003,7180,WL,B,1.0
6,1.1010000705718994,distr,58898.9999294281,Tue Jul 01 2025 15:17:49 GMT-0500 (Central Daylight Time),753530.5,B,ce,O,e,409,1,1100.2999999970198,752430.200000003,7180,WL,B,1.0
6,1.5320000648498535,distr,58467.99993515015,Tue Jul 01 2025 15:17:49 GMT-0500 (Central Daylight Time),753961.700000003,B,cel,O,l,416,1,1531.5,752430.200000003,7180,WL,B,1.0
6,1.7670001983642578,distr,58232.99980163574,Tue Jul 01 2025 15:17:49 GMT-0500 (Central Daylight Time),754196.6000000015,B,cell,O,l,218,1,1766.3999999985099,752430.200000003,7180,WL,B,1.0
6,2.0990002155303955,distr,57900.999784469604,Tue Jul 01 2025 15:17:49 GMT-0500 (Central Daylight Time),754528.5,B,cellenter,O,enter,312,1,2098.2999999970198,752430.200000003,7180,WL,B,1.0
6,3.4140000343322754,distr,56585.999965667725,Tue Jul 01 2025 15:17:49 GMT-0500 (Central Daylight Time),755844.6000000015,B,p,O,p,1300,1,1315.8000000044703,754528.799999997,7180,WL,B,2.0
6,3.5500001907348633,distr,56449.99980926514,Tue Jul 01 2025 15:17:49 GMT-0500 (Central Daylight Time),755980.0,B,pa,O,a,130,1,1451.2000000029802,754528.799999997,7180,WL,B,2.0
6,3.7830002307891846,distr,56216.999769210815,Tue Jul 01 2025 15:17:49 GMT-0500 (Central Daylight Time),756212.6000000015,B,pal,O,l,216,1,1683.8000000044703,754528.799999997,7180,WL,B,2.0
6,3.883000135421753,distr,56116.99986457825,Tue Jul 01 2025 15:17:49 GMT-0500 (Central Daylight Time),756312.799999997,B,pala,O,a,79,1,1784.0,754528.799999997,7180,WL,B,2.0
6,4.14900016784668,distr,55850.99983215332,Tue Jul 01 2025 15:17:49 GMT-0500 (Central Daylight Time),756579.299999997,B,palac,O,c,250,1,2050.5,754528.799999997,7180,WL,B,2.0
6,4.382000207901001,distr,55617.999792099,Tue Jul 01 2025 15:17:49 GMT-0500 (Central Daylight Time),756812.200000003,B,palace,O,e,226,1,2283.4000000059605,754528.799999997,7180,WL,B,2.0
6,4.583000183105469,distr,55416.99981689453,Tue Jul 01 2025 15:17:49 GMT-0500 (Central Daylight Time),757012.8999999985,B,palaceenter,O,enter,180,1,2484.10000000149,754528.799999997,7180,WL,B,2.0
6,5.749000072479248,distr,54250.99992752075,Tue Jul 01 2025 15:17:49 GMT-0500 (Central Daylight Time),758179.0,B,b,O,b,1161,1,1165.8999999985099,757013.1000000015,7180,WL,B,3.0
6,5.983000040054321,distr,54016.99995994568,Tue Jul 01 2025 15:17:49 GMT-0500 (Central Daylight Time),758413.299999997,B,bu,O,u,229,1,1400.1999999955297,757013.1000000015,7180,WL,B,3.0
6,6.115000009536743,distr,53884.99999046326,Tue Jul 01 2025 15:17:49 GMT-0500 (Central Daylight Time),758544.8999999985,B,bui,O,i,118,1,1531.7999999970198,757013.1000000015,7180,WL,B,3.0
6,6.231000185012817,distr,53768.99981498718,Tue Jul 01 2025 15:17:49 GMT-0500 (Central Daylight Time),758661.299999997,B,buil,O,l,107,1,1648.1999999955297,757013.1000000015,7180,WL,B,3.0
6,6.382000207901001,distr,53617.999792099,Tue Jul 01 2025 15:17:49 GMT-0500 (Central Daylight Time),758811.8999999985,B,build,O,d,146,1,1798.7999999970198,757013.1000000015,7180,WL,B,3.0
6,6.547000169754028,distr,53452.99983024597,Tue Jul 01 2025 15:17:49 GMT-0500 (Central Daylight Time),758977.299999997,B,buildi,O,i,150,1,1964.1999999955297,757013.1000000015,7180,WL,B,3.0
6,6.630000114440918,distr,53369.99988555908,Tue Jul 01 2025 15:17:49 GMT-0500 (Central Daylight Time),759060.0,B,buildin,O,n,73,1,2046.8999999985099,757013.1000000015,7180,WL,B,3.0
6,6.764000177383423,distr,53235.99982261658,Tue Jul 01 2025 15:17:49 GMT-0500 (Central Daylight Time),759193.8999999985,B,building,O,g,118,1,2180.7999999970198,757013.1000000015,7180,WL,B,3.0
6,7.031000137329102,distr,52968.9998626709,Tue Jul 01 2025 15:17:49 GMT-0500 (Central Daylight Time),759460.799999997,B,buildingenter,O,enter,251,1,2447.6999999955297,757013.1000000015,7180,WL,B,3.0
6,8.166000127792358,distr,51833.99987220764,Tue Jul 01 2025 15:17:49 GMT-0500 (Central Daylight Time),760596.3999999985,B,c,O,c,1131,1,1135.3999999985099,759461.0,7180,WL,B,4.0
6,8.365000009536743,distr,51634.99999046326,Tue Jul 01 2025 15:17:49 GMT-0500 (Central Daylight Time),760795.3999999985,B,ce,O,e,194,1,1334.3999999985099,759461.0,7180,WL,B,4.0
6,8.497000217437744,distr,51502.999782562256,Tue Jul 01 2025 15:17:49 GMT-0500 (Central Daylight Time),760927.3999999985,B,cel,O,l,113,1,1466.3999999985099,759461.0,7180,WL,B,4.0
6,9.045000076293945,distr,50954.999923706055,Tue Jul 01 2025 15:17:49 GMT-0500 (Central Daylight Time),761475.1000000015,B,ce,O,backspace,540,1,2014.1000000014901,759461.0,7180,WL,B,4.0
6,9.247000217437744,distr,50752.999782562256,Tue Jul 01 2025 15:17:49 GMT-0500 (Central Daylight Time),761676.8999999985,B,c,O,backspace,196,1,2215.89999999851,759461.0,7180,WL,B,4.0
6,9.430000066757202,distr,50569.9999332428,Tue Jul 01 2025 15:17:49 GMT-0500 (Central Daylight Time),761860.200000003,B,,O,backspace,167,1,2399.2000000029802,759461.0,7180,WL,B,4.0
6,10.063000202178955,distr,49936.999797821045,Tue Jul 01 2025 15:17:49 GMT-0500 (Central Daylight Time),762493.0,B,b,O,b,612,1,3032.0,759461.0,7180,WL,B,4.0
6,10.129000186920166,distr,49870.999813079834,Tue Jul 01 2025 15:17:49 GMT-0500 (Central Daylight Time),762558.700000003,B,ba,O,a,55,1,3097.7000000029802,759461.0,7180,WL,B,4.0
6,10.279000043869019,distr,49720.99995613098,Tue Jul 01 2025 15:17:49 GMT-0500 (Central Daylight Time),762709.0,B,bab,O,b,132,1,3248.0,759461.0,7180,WL,B,4.0
6,10.547000169754028,distr,49452.99983024597,Tue Jul 01 2025 15:17:49 GMT-0500 (Central Daylight Time),762977.0,B,baby,O,y,254,1,3516.0,759461.0,7180,WL,B,4.0
6,10.828999996185303,distr,49171.0000038147,Tue Jul 01 2025 15:17:49 GMT-0500 (Central Daylight Time),763258.799999997,B,babyenter,O,enter,275,1,3797.7999999970198,759461.0,7180,WL,B,4.0
6,11.231000185012817,distr,48768.99981498718,Tue Jul 01 2025 15:17:49 GMT-0500 (Central Daylight Time),763661.0,B,o,O,o,385,1,402.0,763259.0,7180,WL,B,5.0
6,11.34600019454956,distr,48653.99980545044,Tue Jul 01 2025 15:17:49 GMT-0500 (Central Daylight Time),763775.700000003,B,oc,O,c,102,1,516.7000000029802,763259.0,7180,WL,B,5.0
6,11.862000226974487,distr,48137.99977302551,Tue Jul 01 2025 15:17:49 GMT-0500 (Central Daylight Time),764292.299999997,B,oce,O,e,500,1,1033.2999999970198,763259.0,7180,WL,B,5.0
6,12.014000177383423,distr,47985.99982261658,Tue Jul 01 2025 15:17:49 GMT-0500 (Central Daylight Time),764444.3999999985,B,ocea,O,a,147,1,1185.3999999985099,763259.0,7180,WL,B,5.0
6,12.547000169754028,distr,47452.99983024597,Tue Jul 01 2025 15:17:49 GMT-0500 (Central Daylight Time),764977.0,B,ocean,O,n,511,1,1718.0,763259.0,7180,WL,B,5.0
6,13.145000219345093,distr,46854.99978065491,Tue Jul 01 2025 15:17:49 GMT-0500 (Central Daylight Time),765574.799999997,B,oceanenter,O,enter,586,1,2315.7999999970198,763259.0,7180,WL,B,5.0
6,34.1710000038147,distr,25828.999996185303,Tue Jul 01 2025 15:17:49 GMT-0500 (Central Daylight Time),786602.3999999985,B,enter,O,enter,21022,1,21027.29999999702,765575.1000000015,7180,WL,B,6.0
6,36.105000019073486,distr,23894.999980926514,Tue Jul 01 2025 15:17:49 GMT-0500 (Central Daylight Time),788536.5,B,enter,O,enter,1913,1,1933.7999999970198,786602.700000003,7180,WL,B,7.0
6,36.53500008583069,distr,23464.99991416931,Tue Jul 01 2025 15:17:49 GMT-0500 (Central Daylight Time),788966.799999997,B,enter,O,enter,412,1,429.8999999985099,788536.8999999985,7180,WL,B,8.0
6,36.902000188827515,distr,23097.999811172485,Tue Jul 01 2025 15:17:49 GMT-0500 (Central Daylight Time),789333.5,B,enter,O,enter,349,1,366.3999999985099,788967.1000000015,7180,WL,B,9.0
6,37.38700008392334,distr,22612.99991607666,Tue Jul 01 2025 15:17:49 GMT-0500 (Central Daylight Time),789818.3999999985,B,enter,O,enter,481,1,484.6000000014901,789333.799999997,7180,WL,B,10.0
6,37.82000017166138,distr,22179.999828338623,Tue Jul 01 2025 15:17:49 GMT-0500 (Central Daylight Time),790251.200000003,B,enter,O,enter,418,1,432.5,789818.700000003,7180,WL,B,11.0
6,38.20300006866455,distr,21796.99993133545,Tue Jul 01 2025 15:17:49 GMT-0500 (Central Daylight Time),790634.299999997,B,enter,O,enter,369,1,382.79999999701977,790251.5,7180,WL,B,12.0
6,38.57000017166138,distr,21429.999828338623,Tue Jul 01 2025 15:17:49 GMT-0500 (Central Daylight Time),791001.3999999985,B,enter,O,enter,362,1,366.79999999701977,790634.6000000015,7180,WL,B,13.0
6,39.01900005340576,distr,20980.99994659424,Tue Jul 01 2025 15:17:49 GMT-0500 (Central Daylight Time),791450.8999999985,B,enter,O,enter,435,1,449.19999999552965,791001.700000003,7180,WL,B,14.0
6,39.818000078201294,distr,20181.999921798706,Tue Jul 01 2025 15:17:49 GMT-0500 (Central Daylight Time),792250.1000000015,B,enter,O,enter,794,1,798.8999999985099,791451.200000003,7180,WL,B,15.0
7,1.8009998798370361,immed,58199.000120162964,Tue Jul 01 2025 15:17:49 GMT-0500 (Central Daylight Time),807082.0,A,c,O,c,1791,1,1801.1000000014901,805280.8999999985,7180,WL,B,1.0
7,1.9139997959136963,immed,58086.000204086304,Tue Jul 01 2025 15:17:49 GMT-0500 (Central Daylight Time),807194.5,A,cl,O,l,104,1,1913.6000000014901,805280.8999999985,7180,WL,B,1.0
7,2.130999803543091,immed,57869.00019645691,Tue Jul 01 2025 15:17:49 GMT-0500 (Central Daylight Time),807411.799999997,A,clo,O,o,210,1,2130.89999999851,805280.8999999985,7180,WL,B,1.0
7,2.3479998111724854,immed,57652.000188827515,Tue Jul 01 2025 15:17:49 GMT-0500 (Central Daylight Time),807628.8999999985,A,cloc,O,c,206,1,2348.0,805280.8999999985,7180,WL,B,1.0
7,2.4819998741149902,immed,57518.00012588501,Tue Jul 01 2025 15:17:49 GMT-0500 (Central Daylight Time),807762.6000000015,A,clock,O,k,118,1,2481.7000000029802,805280.8999999985,7180,WL,B,1.0
7,2.7809998989105225,immed,57219.00010108948,Tue Jul 01 2025 15:17:49 GMT-0500 (Central Daylight Time),808061.299999997,A,clockenter,O,enter,276,1,2780.39999999851,805280.8999999985,7180,WL,B,1.0
7,4.515999794006348,immed,55484.00020599365,Tue Jul 01 2025 15:17:49 GMT-0500 (Central Daylight Time),809796.8999999985,A,g,O,g,1730,1,1735.3999999985099,808061.5,7180,WL,B,2.0
7,4.764999866485596,immed,55235.000133514404,Tue Jul 01 2025 15:17:49 GMT-0500 (Central Daylight Time),810045.6000000015,A,gr,O,r,220,1,1984.1000000014901,808061.5,7180,WL,B,2.0
7,4.898000001907349,immed,55101.99999809265,Tue Jul 01 2025 15:17:49 GMT-0500 (Central Daylight Time),810178.5,A,gra,O,a,116,1,2117.0,808061.5,7180,WL,B,2.0
7,5.247999906539917,immed,54752.00009346008,Tue Jul 01 2025 15:17:49 GMT-0500 (Central Daylight Time),810528.3999999985,A,gras,O,s,326,1,2466.89999999851,808061.5,7180,WL,B,2.0
7,5.430999994277954,immed,54569.000005722046,Tue Jul 01 2025 15:17:49 GMT-0500 (Central Daylight Time),810711.6000000015,A,grass,O,s,154,1,2650.10000000149,808061.5,7180,WL,B,2.0
7,5.580999851226807,immed,54419.00014877319,Tue Jul 01 2025 15:17:49 GMT-0500 (Central Daylight Time),810861.200000003,A,grassenter,O,enter,131,1,2799.7000000029802,808061.5,7180,WL,B,2.0
7,5.961999893188477,immed,54038.00010681152,Tue Jul 01 2025 15:17:49 GMT-0500 (Central Daylight Time),811243.1000000015,A,s,O,s,367,1,381.6000000014901,810861.5,7180,WL,B,3.0
7,6.180999994277954,immed,53819.000005722046,Tue Jul 01 2025 15:17:49 GMT-0500 (Central Daylight Time),811462.200000003,A,st,O,t,198,1,600.7000000029802,810861.5,7180,WL,B,3.0
7,6.398999929428101,immed,53601.0000705719,Tue Jul 01 2025 15:17:49 GMT-0500 (Central Daylight Time),811679.5,A,str,O,r,195,1,818.0,810861.5,7180,WL,B,3.0
7,6.562999963760376,immed,53437.000036239624,Tue Jul 01 2025 15:17:49 GMT-0500 (Central Daylight Time),811843.700000003,A,stre,O,e,157,1,982.2000000029802,810861.5,7180,WL,B,3.0
7,6.73199987411499,immed,53268.00012588501,Tue Jul 01 2025 15:17:49 GMT-0500 (Central Daylight Time),812012.6000000015,A,stree,O,e,161,1,1151.1000000014901,810861.5,7180,WL,B,3.0
7,6.930999994277954,immed,53069.000005722046,Tue Jul 01 2025 15:17:49 GMT-0500 (Central Daylight Time),812211.299999997,A,street,O,t,182,1,1349.7999999970198,810861.5,7180,WL,B,3.0
7,7.163999795913696,immed,52836.000204086304,Tue Jul 01 2025 15:17:49 GMT-0500 (Central Daylight Time),812444.3999999985,A,streetenter,O,enter,215,1,1582.8999999985099,810861.5,7180,WL,B,3.0
7,8.77999997138977,immed,51220.00002861023,Tue Jul 01 2025 15:17:49 GMT-0500 (Central Daylight Time),814060.6000000015,A,a,O,a,1611,1,1615.8999999985099,812444.700000003,7180,WL,B,4.0
7,8.978999853134155,immed,51021.000146865845,Tue Jul 01 2025 15:17:49 GMT-0500 (Central Daylight Time),814260.200000003,A,ar,O,r,181,1,1815.5,812444.700000003,7180,WL,B,4.0
7,9.312999963760376,immed,50687.000036239624,Tue Jul 01 2025 15:17:49 GMT-0500 (Central Daylight Time),814594.299999997,A,arm,O,m,327,1,2149.5999999940395,812444.700000003,7180,WL,B,4.0
7,9.661999940872192,immed,50338.00005912781,Tue Jul 01 2025 15:17:49 GMT-0500 (Central Daylight Time),814942.200000003,A,armenter,O,enter,334,1,2497.5,812444.700000003,7180,WL,B,4.0
7,9.878999948501587,immed,50121.00005149841,Tue Jul 01 2025 15:17:49 GMT-0500 (Central Daylight Time),815159.6000000015,A,d,O,d,206,1,217.10000000149012,814942.5,7180,WL,B,5.0
7,10.146999835968018,immed,49853.00016403198,Tue Jul 01 2025 15:17:49 GMT-0500 (Central Daylight Time),815427.700000003,A,do,O,o,244,1,485.20000000298023,814942.5,7180,WL,B,5.0
7,10.329999923706055,immed,49670.000076293945,Tue Jul 01 2025 15:17:49 GMT-0500 (Central Daylight Time),815610.799999997,A,doo,O,o,169,1,668.2999999970198,814942.5,7180,WL,B,5.0
7,10.513000011444092,immed,49486.99998855591,Tue Jul 01 2025 15:17:49 GMT-0500 (Central Daylight Time),815793.8999999985,A,door,O,r,157,1,851.3999999985099,814942.5,7180,WL,B,5.0
7,10.76199984550476,immed,49238.00015449524,Tue Jul 01 2025 15:17:49 GMT-0500 (Central Daylight Time),816043.0,A,doorenter,O,enter,242,1,1100.5,814942.5,7180,WL,B,5.0
7,11.27899980545044,immed,48721.00019454956,Tue Jul 01 2025 15:17:49 GMT-0500 (Central Daylight Time),816559.799999997,A,w,O,w,497,1,516.5,816043.299999997,7180,WL,B,6.0
7,11.477999925613403,immed,48522.0000743866,Tue Jul 01 2025 15:17:49 GMT-0500 (Central Daylight Time),816758.6000000015,A,wi,O,i,186,1,715.3000000044703,816043.299999997,7180,WL,B,6.0
7,11.644999980926514,immed,48355.000019073486,Tue Jul 01 2025 15:17:49 GMT-0500 (Central Daylight Time),816925.799999997,A,wif,O,f,155,1,882.5,816043.299999997,7180,WL,B,6.0
7,11.911999940872192,immed,48088.00005912781,Tue Jul 01 2025 15:17:49 GMT-0500 (Central Daylight Time),817193.1000000015,A,wife,O,e,246,1,1149.8000000044703,816043.299999997,7180,WL,B,6.0
7,12.711999893188477,immed,47288.00010681152,Tue Jul 01 2025 15:17:49 GMT-0500 (Central Daylight Time),817992.5,A,wifeenter,O,enter,783,1,1949.2000000029802,816043.299999997,7180,WL,B,6.0
7,13.992999792098999,immed,46007.000207901,Tue Jul 01 2025 15:17:49 GMT-0500 (Central Daylight Time),819273.700000003,A,s,O,s,1267,1,1281.0,817992.700000003,7180,WL,B,7.0
7,14.211999893188477,immed,45788.00010681152,Tue Jul 01 2025 15:17:49 GMT-0500 (Central Daylight Time),819492.8999999985,A,st,O,t,203,1,1500.1999999955297,817992.700000003,7180,WL,B,7.0
7,14.361999988555908,immed,45638.00001144409,Tue Jul 01 2025 15:17:49 GMT-0500 (Central Daylight Time),819642.700000003,A,sta,O,a,129,1,1650.0,817992.700000003,7180,WL,B,7.0
7,14.561999797821045,immed,45438.000202178955,Tue Jul 01 2025 15:17:49 GMT-0500 (Central Daylight Time),819843.0,A,star,O,r,192,1,1850.2999999970198,817992.700000003,7180,WL,B,7.0
7,15.059999942779541,immed,44940.00005722046,Tue Jul 01 2025 15:17:49 GMT-0500 (Central Daylight Time),820340.8999999985,A,starenter,O,enter,488,1,2348.1999999955297,817992.700000003,7180,WL,B,7.0
7,16.194000005722046,immed,43805.999994277954,Tue Jul 01 2025 15:17:49 GMT-0500 (Central Daylight Time),821474.8999999985,A,c,O,c,1120,1,1133.7999999970198,820341.1000000015,7180,WL,B,8.0
7,16.310999870300293,immed,43689.00012969971,Tue Jul 01 2025 15:17:49 GMT-0500 (Central Daylight Time),821592.1000000015,A,ci,O,i,96,1,1251.0,820341.1000000015,7180,WL,B,8.0
7,16.49399995803833,immed,43506.00004196167,Tue Jul 01 2025 15:17:49 GMT-0500 (Central Daylight Time),821775.0,A,cit,O,t,164,1,1433.8999999985099,820341.1000000015,7180,WL,B,8.0
7,16.59499979019165,immed,43405.00020980835,Tue Jul 01 2025 15:17:49 GMT-0500 (Central Daylight Time),821875.8999999985,A,city,O,y,82,1,1534.7999999970198,820341.1000000015,7180,WL,B,8.0
7,16.875,immed,43125.0,Tue Jul 01 2025 15:17:49 GMT-0500 (Central Daylight Time),822156.0,A,cityenter,O,enter,257,1,1814.8999999985099,820341.1000000015,7180,WL,B,8.0
7,17.22699999809265,immed,42773.00000190735,Tue Jul 01 2025 15:17:49 GMT-0500 (Central Daylight Time),822507.8999999985,A,w,O,w,346,1,351.6000000014901,822156.299999997,7180,WL,B,9.0
7,17.329999923706055,immed,42670.000076293945,Tue Jul 01 2025 15:17:49 GMT-0500 (Central Daylight Time),822610.299999997,A,wi,O,i,80,1,454.0,822156.299999997,7180,WL,B,9.0
7,17.459999799728394,immed,42540.00020027161,Tue Jul 01 2025 15:17:49 GMT-0500 (Central Daylight Time),822741.299999997,A,win,O,n,121,1,585.0,822156.299999997,7180,WL,B,9.0
7,17.57799983024597,immed,42422.00016975403,Tue Jul 01 2025 15:17:49 GMT-0500 (Central Daylight Time),822858.299999997,A,wind,O,d,91,1,702.0,822156.299999997,7180,WL,B,9.0
7,17.727999925613403,immed,42272.0000743866,Tue Jul 01 2025 15:17:49 GMT-0500 (Central Daylight Time),823008.299999997,A,windo,O,o,136,1,852.0,822156.299999997,7180,WL,B,9.0
7,17.876999855041504,immed,42123.000144958496,Tue Jul 01 2025 15:17:49 GMT-0500 (Central Daylight Time),823158.200000003,A,window,O,w,127,1,1001.9000000059605,822156.299999997,7180,WL,B,9.0
7,18.128999948501587,immed,41871.00005149841,Tue Jul 01 2025 15:17:49 GMT-0500 (Central Daylight Time),823410.0,A,windowenter,O,enter,244,1,1253.7000000029802,822156.299999997,7180,WL,B,9.0
7,18.492999792099,immed,41507.000207901,Tue Jul 01 2025 15:17:49 GMT-0500 (Central Daylight Time),823773.6000000015,A,p,O,p,355,1,363.3999999985099,823410.200000003,7180,WL,B,10.0
7,18.674999952316284,immed,41325.000047683716,Tue Jul 01 2025 15:17:49 GMT-0500 (Central Daylight Time),823955.700000003,A,pu,O,u,165,1,545.5,823410.200000003,7180,WL,B,10.0
7,18.89299988746643,immed,41107.00011253357,Tue Jul 01 2025 15:17:49 GMT-0500 (Central Daylight Time),824174.200000003,A,pup,O,p,207,1,764.0,823410.200000003,7180,WL,B,10.0
7,19.342999935150146,immed,40657.00006484985,Tue Jul 01 2025 15:17:49 GMT-0500 (Central Daylight Time),824624.0,A,pupi,O,i,426,1,1213.7999999970198,823410.200000003,7180,WL,B,10.0
7,19.492999792099,immed,40507.000207901,Tue Jul 01 2025 15:17:49 GMT-0500 (Central Daylight Time),824773.700000003,A,pupil,O,l,134,1,1363.5,823410.200000003,7180,WL,B,10.0
7,19.875,immed,40125.0,Tue Jul 01 2025 15:17:49 GMT-0500 (Central Daylight Time),825155.8999999985,A,pupilenter,O,enter,371,1,1745.6999999955297,823410.200000003,7180,WL,B,10.0
7,20.942999839782715,immed,39057.000160217285,Tue Jul 01 2025 15:17:49 GMT-0500 (Central Daylight Time),826224.0,A,f,O,f,1048,1,1067.8999999985099,825156.1000000015,7180,WL,B,11.0
7,21.042999982833862,immed,38957.00001716614,Tue Jul 01 2025 15:17:49 GMT-0500 (Central Daylight Time),826323.3999999985,A,fi,O,i,90,1,1167.2999999970198,825156.1000000015,7180,WL,B,11.0
7,21.174999952316284,immed,38825.000047683716,Tue Jul 01 2025 15:17:49 GMT-0500 (Central Daylight Time),826455.8999999985,A,fir,O,r,111,1,1299.7999999970198,825156.1000000015,7180,WL,B,11.0
7,21.491999864578247,immed,38508.00013542175,Tue Jul 01 2025 15:17:49 GMT-0500 (Central Daylight Time),826773.0,A,fire,O,e,308,1,1616.8999999985099,825156.1000000015,7180,WL,B,11.0
7,22.12399983406067,immed,37876.00016593933,Tue Jul 01 2025 15:17:49 GMT-0500 (Central Daylight Time),827404.700000003,A,fireenter,O,enter,615,1,2248.60000000149,825156.1000000015,7180,WL,B,11.0
7,23.674999952316284,immed,36325.000047683716,Tue Jul 01 2025 15:17:49 GMT-0500 (Central Daylight Time),828955.5,A,p,O,p,1530,1,1550.5,827405.0,7180,WL,B,12.0
7,23.890999794006348,immed,36109.00020599365,Tue Jul 01 2025 15:17:49 GMT-0500 (Central Daylight Time),829171.799999997,A,pi,O,i,207,1,1766.7999999970198,827405.0,7180,WL,B,12.0
7,24.306999921798706,immed,35693.000078201294,Tue Jul 01 2025 15:17:49 GMT-0500 (Central Daylight Time),829587.6000000015,A,pip,O,p,407,1,2182.60000000149,827405.0,7180,WL,B,12.0
7,24.607999801635742,immed,35392.00019836426,Tue Jul 01 2025 15:17:49 GMT-0500 (Central Daylight Time),829889.1000000015,A,pipe,O,e,275,1,2484.10000000149,827405.0,7180,WL,B,12.0
7,25.18999981880188,immed,34810.00018119812,Tue Jul 01 2025 15:17:49 GMT-0500 (Central Daylight Time),830470.5,A,pipeenter,O,enter,563,1,3065.5,827405.0,7180,WL,B,12.0
7,29.22099995613098,immed,30779.00004386902,Tue Jul 01 2025 15:17:49 GMT-0500 (Central Daylight Time),834502.8999999985,A,s,O,s,4013,1,4032.10000000149,830470.799999997,7180,WL,B,13.0
7,29.437999963760376,immed,30562.000036239624,Tue Jul 01 2025 15:17:49 GMT-0500 (Central Daylight Time),834720.6000000015,A,sk,O,k,197,1,4249.80000000447,830470.799999997,7180,WL,B,13.0
7,29.688999891281128,immed,30311.000108718872,Tue Jul 01 2025 15:17:49 GMT-0500 (Central Daylight Time),834971.299999997,A,ski,O,i,235,1,4500.5,830470.799999997,7180,WL,B,13.0
7,29.80399990081787,immed,30196.00009918213,Tue Jul 01 2025 15:17:49 GMT-0500 (Central Daylight Time),835086.8999999985,A,skin,O,n,96,1,4616.10000000149,830470.799999997,7180,WL,B,13.0
7,30.120999813079834,immed,29879.000186920166,Tue Jul 01 2025 15:17:49 GMT-0500 (Central Daylight Time),835403.700000003,A,skinenter,O,enter,311,1,4932.9000000059605,830470.799999997,7180,WL,B,13.0
7,36.46999979019165,immed,23530.00020980835,Tue Jul 01 2025 15:17:49 GMT-0500 (Central Daylight Time),841752.200000003,A,c,O,c,6337,1,6348.20000000298,835404.0,7180,WL,B,14.0
7,36.6029999256134,immed,23397.000074386597,Tue Jul 01 2025 15:17:49 GMT-0500 (Central Daylight Time),841885.8999999985,A,ca,O,a,126,1,6481.89999999851,835404.0,7180,WL,B,14.0
7,36.85099983215332,immed,23149.00016784668,Tue Jul 01 2025 15:17:49 GMT-0500 (Central Daylight Time),842134.0,A,cab,O,b,238,1,6730.0,835404.0,7180,WL,B,14.0
7,37.2189998626709,immed,22781.0001373291,Tue Jul 01 2025 15:17:49 GMT-0500 (Central Daylight Time),842501.3999999985,A,cabi,O,i,350,1,7097.39999999851,835404.0,7180,WL,B,14.0
7,37.35499978065491,immed,22645.000219345093,Tue Jul 01 2025 15:17:49 GMT-0500 (Central Daylight Time),842637.3999999985,A,cabin,O,n,117,1,7233.39999999851,835404.0,7180,WL,B,14.0
7,37.650999784469604,immed,22349.000215530396,Tue Jul 01 2025 15:17:49 GMT-0500 (Central Daylight Time),842933.8999999985,A,cabinenter,O,enter,279,1,7529.89999999851,835404.0,7180,WL,B,14.0
7,38.01699995994568,immed,21983.00004005432,Tue Jul 01 2025 15:17:49 GMT-0500 (Central Daylight Time),843299.5,A,l,O,l,350,1,365.3999999985099,842934.1000000015,7180,WL,B,15.0
7,38.2189998626709,immed,21781.0001373291,Tue Jul 01 2025 15:17:49 GMT-0500 (Central Daylight Time),843501.5,A,la,O,a,184,1,567.3999999985099,842934.1000000015,7180,WL,B,15.0
7,38.35199999809265,immed,21648.00000190735,Tue Jul 01 2025 15:17:49 GMT-0500 (Central Daylight Time),843634.0,A,lak,O,k,118,1,699.8999999985099,842934.1000000015,7180,WL,B,15.0
7,38.51699995994568,immed,21483.00004005432,Tue Jul 01 2025 15:17:49 GMT-0500 (Central Daylight Time),843799.8999999985,A,lake,O,e,151,1,865.7999999970198,842934.1000000015,7180,WL,B,15.0
7,38.73399996757507,immed,21266.000032424927,Tue Jul 01 2025 15:17:49 GMT-0500 (Central Daylight Time),844016.3999999985,A,lakeenter,O,enter,204,1,1082.2999999970198,842934.1000000015,7180,WL,B,15.0
