block_c,block_dur,condition,countdown,datetime,endtime,list,multichar_response,project,response,response_time,session_number,start_end,starttime,subject_id,task,task_vers,trial
,,,,Tue Mar 24 2026 10:54:09 GMT-0500 (Central Daylight Time),,,,O,space,477,1,,,7777,WL,B,
prac,,0,,Tue Mar 24 2026 10:54:09 GMT-0500 (Central Daylight Time),,NA,b,O,b,775,1,,,7777,WL,B,1.0
prac,,0,,Tue Mar 24 2026 10:54:09 GMT-0500 (Central Daylight Time),,NA,bo,O,o,345,1,,,7777,WL,B,1.0
prac,,0,,Tue Mar 24 2026 10:54:09 GMT-0500 (Central Daylight Time),,NA,boo,O,o,133,1,,,7777,WL,B,1.0
prac,,0,,Tue Mar 24 2026 10:54:09 GMT-0500 (Central Daylight Time),,NA,boos,O,s,140,1,,,7777,WL,B,1.0
prac,,0,,Tue Mar 24 2026 10:54:09 GMT-0500 (Central Daylight Time),,NA,boost,O,t,73,1,,,7777,WL,B,1.0
prac,,0,,Tue Mar 24 2026 10:54:09 GMT-0500 (Central Daylight Time),,NA,boostenter,O,enter,726,1,,,7777,WL,B,1.0
1,0.8669998645782471,learn,59133.00013542175,Tue Mar 24 2026 10:54:09 GMT-0500 (Central Daylight Time),137995.60000014305,A,s,O,s,850,1,866.2999999523163,137129.30000019073,7777,WL,B,1.0
1,1.182999849319458,learn,58817.00015068054,Tue Mar 24 2026 10:54:09 GMT-0500 (Central Daylight Time),138311.90000009537,A,st,O,t,294,1,1182.5999999046326,137129.30000019073,7777,WL,B,1.0
1,1.5,learn,58500.0,Tue Mar 24 2026 10:54:09 GMT-0500 (Central Daylight Time),138628.40000009537,A,str,O,r,308,1,1499.0999999046326,137129.30000019073,7777,WL,B,1.0
1,1.816999912261963,learn,58183.00008773804,Tue Mar 24 2026 10:54:09 GMT-0500 (Central Daylight Time),138945.10000014305,A,stre,O,e,302,1,1815.7999999523163,137129.30000019073,7777,WL,B,1.0
1,2.050999879837036,learn,57949.000120162964,Tue Mar 24 2026 10:54:09 GMT-0500 (Central Daylight Time),139179.30000019073,A,stree,O,e,226,1,2050.0,137129.30000019073,7777,WL,B,1.0
1,2.2170000076293945,learn,57782.999992370605,Tue Mar 24 2026 10:54:09 GMT-0500 (Central Daylight Time),139345.0,A,street,O,t,144,1,2215.699999809265,137129.30000019073,7777,WL,B,1.0
1,6.065000057220459,learn,53934.99994277954,Tue Mar 24 2026 10:54:09 GMT-0500 (Central Daylight Time),143193.90000009537,A,streetenter,O,enter,3834,1,6064.599999904633,137129.30000019073,7777,WL,B,1.0
1,7.447999954223633,learn,52552.00004577637,Tue Mar 24 2026 10:54:09 GMT-0500 (Central Daylight Time),144576.60000014305,A,a,O,a,1369,1,1382.2000000476837,143194.40000009537,7777,WL,B,2.0
1,7.648000001907349,learn,52351.99999809265,Tue Mar 24 2026 10:54:09 GMT-0500 (Central Daylight Time),144776.70000004768,A,ar,O,r,186,1,1582.2999999523163,143194.40000009537,7777,WL,B,2.0
1,7.96399998664856,learn,52036.00001335144,Tue Mar 24 2026 10:54:09 GMT-0500 (Central Daylight Time),145093.0,A,arm,O,m,307,1,1898.5999999046326,143194.40000009537,7777,WL,B,2.0
1,8.513999938964844,learn,51486.000061035156,Tue Mar 24 2026 10:54:09 GMT-0500 (Central Daylight Time),145642.90000009537,A,armenter,O,enter,534,1,2448.5,143194.40000009537,7777,WL,B,2.0
1,9.780999898910522,learn,50219.00010108948,Tue Mar 24 2026 10:54:09 GMT-0500 (Central Daylight Time),146909.30000019073,A,p,O,p,1248,1,1265.8000001907349,145643.5,7777,WL,B,3.0
1,10.063999891281128,learn,49936.00010871887,Tue Mar 24 2026 10:54:09 GMT-0500 (Central Daylight Time),147192.60000014305,A,pi,O,i,262,1,1549.1000001430511,145643.5,7777,WL,B,3.0
1,10.596999883651733,learn,49403.00011634827,Tue Mar 24 2026 10:54:09 GMT-0500 (Central Daylight Time),147725.5,A,pip,O,p,522,1,2082.0,145643.5,7777,WL,B,3.0
1,10.863999843597412,learn,49136.00015640259,Tue Mar 24 2026 10:54:09 GMT-0500 (Central Daylight Time),147992.30000019073,A,pipe,O,e,255,1,2348.800000190735,145643.5,7777,WL,B,3.0
1,11.129999876022339,learn,48870.00012397766,Tue Mar 24 2026 10:54:09 GMT-0500 (Central Daylight Time),148258.80000019073,A,pipeenter,O,enter,260,1,2615.300000190735,145643.5,7777,WL,B,3.0
1,14.529000043869019,learn,45470.99995613098,Tue Mar 24 2026 10:54:09 GMT-0500 (Central Daylight Time),151657.40000009537,A,c,O,c,3392,1,3398.2000000476837,148259.20000004768,7777,WL,B,4.0
1,14.746999979019165,learn,45253.000020980835,Tue Mar 24 2026 10:54:09 GMT-0500 (Central Daylight Time),151875.20000004768,A,ca,O,a,211,1,3616.0,148259.20000004768,7777,WL,B,4.0
1,15.062000036239624,learn,44937.999963760376,Tue Mar 24 2026 10:54:09 GMT-0500 (Central Daylight Time),152190.80000019073,A,cab,O,b,297,1,3931.600000143051,148259.20000004768,7777,WL,B,4.0
1,15.19599986076355,learn,44804.00013923645,Tue Mar 24 2026 10:54:09 GMT-0500 (Central Daylight Time),152324.30000019073,A,cabi,O,i,117,1,4065.100000143051,148259.20000004768,7777,WL,B,4.0
1,15.545000076293945,learn,44454.999923706055,Tue Mar 24 2026 10:54:09 GMT-0500 (Central Daylight Time),152673.80000019073,A,cabin,O,n,344,1,4414.600000143051,148259.20000004768,7777,WL,B,4.0
1,15.94599986076355,learn,44054.00013923645,Tue Mar 24 2026 10:54:09 GMT-0500 (Central Daylight Time),153074.10000014305,A,cabinenter,O,enter,387,1,4814.900000095367,148259.20000004768,7777,WL,B,4.0
1,16.51199984550476,learn,43488.00015449524,Tue Mar 24 2026 10:54:09 GMT-0500 (Central Daylight Time),153640.40000009537,A,w,O,w,554,1,565.7999999523163,153074.60000014305,7777,WL,B,5.0
1,16.628999948501587,learn,43371.00005149841,Tue Mar 24 2026 10:54:09 GMT-0500 (Central Daylight Time),153757.10000014305,A,wi,O,i,108,1,682.5,153074.60000014305,7777,WL,B,5.0
1,16.94599986076355,learn,43054.00013923645,Tue Mar 24 2026 10:54:09 GMT-0500 (Central Daylight Time),154074.70000004768,A,win,O,n,309,1,1000.0999999046326,153074.60000014305,7777,WL,B,5.0
1,17.328999996185303,learn,42671.0000038147,Tue Mar 24 2026 10:54:09 GMT-0500 (Central Daylight Time),154457.10000014305,A,wind,O,d,369,1,1382.5,153074.60000014305,7777,WL,B,5.0
1,17.661999940872192,learn,42338.00005912781,Tue Mar 24 2026 10:54:09 GMT-0500 (Central Daylight Time),154790.20000004768,A,windo,O,o,315,1,1715.5999999046326,153074.60000014305,7777,WL,B,5.0
1,17.810999870300293,learn,42189.00012969971,Tue Mar 24 2026 10:54:09 GMT-0500 (Central Daylight Time),154939.90000009537,A,window,O,w,134,1,1865.2999999523163,153074.60000014305,7777,WL,B,5.0
1,18.3439998626709,learn,41656.0001373291,Tue Mar 24 2026 10:54:09 GMT-0500 (Central Daylight Time),155473.0,A,windowenter,O,enter,527,1,2398.399999856949,153074.60000014305,7777,WL,B,5.0
1,21.80999994277954,learn,38190.00005722046,Tue Mar 24 2026 10:54:09 GMT-0500 (Central Daylight Time),158938.70000004768,A,p,O,p,3450,1,3465.5,155473.20000004768,7777,WL,B,6.0
1,22.043999910354614,learn,37956.000089645386,Tue Mar 24 2026 10:54:09 GMT-0500 (Central Daylight Time),159172.0,A,pu,O,u,216,1,3698.7999999523163,155473.20000004768,7777,WL,B,6.0
1,22.210000038146973,learn,37789.99996185303,Tue Mar 24 2026 10:54:09 GMT-0500 (Central Daylight Time),159338.40000009537,A,pup,O,p,160,1,3865.2000000476837,155473.20000004768,7777,WL,B,6.0
1,22.47699999809265,learn,37523.00000190735,Tue Mar 24 2026 10:54:09 GMT-0500 (Central Daylight Time),159605.30000019073,A,pupi,O,i,258,1,4132.100000143051,155473.20000004768,7777,WL,B,6.0
1,23.175999879837036,learn,36824.000120162964,Tue Mar 24 2026 10:54:09 GMT-0500 (Central Daylight Time),160304.80000019073,A,pupienter,O,enter,694,1,4831.600000143051,155473.20000004768,7777,WL,B,6.0
1,29.85800004005432,learn,30141.99995994568,Tue Mar 24 2026 10:54:09 GMT-0500 (Central Daylight Time),166986.10000014305,A,l,O,l,6674,1,6681.0,160305.10000014305,7777,WL,B,7.0
1,30.10699987411499,learn,29893.00012588501,Tue Mar 24 2026 10:54:09 GMT-0500 (Central Daylight Time),167235.90000009537,A,la,O,a,233,1,6930.799999952316,160305.10000014305,7777,WL,B,7.0
1,30.257999897003174,learn,29742.000102996826,Tue Mar 24 2026 10:54:09 GMT-0500 (Central Daylight Time),167386.40000009537,A,lak,O,k,135,1,7081.299999952316,160305.10000014305,7777,WL,B,7.0
1,30.457000017166138,learn,29542.999982833862,Tue Mar 24 2026 10:54:09 GMT-0500 (Central Daylight Time),167585.90000009537,A,lake,O,e,194,1,7280.799999952316,160305.10000014305,7777,WL,B,7.0
1,30.7739999294281,learn,29226.0000705719,Tue Mar 24 2026 10:54:09 GMT-0500 (Central Daylight Time),167902.60000014305,A,lakeenter,O,enter,306,1,7597.5,160305.10000014305,7777,WL,B,7.0
1,34.10599994659424,learn,25894.00005340576,Tue Mar 24 2026 10:54:09 GMT-0500 (Central Daylight Time),171234.90000009537,A,a,O,a,3325,1,3332.0,167902.90000009537,7777,WL,B,8.0
1,34.306999921798706,learn,25693.000078201294,Tue Mar 24 2026 10:54:09 GMT-0500 (Central Daylight Time),171434.90000009537,A,ar,O,r,184,1,3532.0,167902.90000009537,7777,WL,B,8.0
1,34.473000049591064,learn,25526.999950408936,Tue Mar 24 2026 10:54:09 GMT-0500 (Central Daylight Time),171601.60000014305,A,arm,O,m,153,1,3698.7000000476837,167902.90000009537,7777,WL,B,8.0
1,34.85599994659424,learn,25144.00005340576,Tue Mar 24 2026 10:54:09 GMT-0500 (Central Daylight Time),171984.5,A,armenter,O,enter,371,1,4081.5999999046326,167902.90000009537,7777,WL,B,8.0
1,41.72000002861023,learn,18279.99997138977,Tue Mar 24 2026 10:54:09 GMT-0500 (Central Daylight Time),178849.30000019073,A,f,O,f,6844,1,6864.400000095367,171984.90000009537,7777,WL,B,9.0
1,41.937000036239624,learn,18062.999963760376,Tue Mar 24 2026 10:54:09 GMT-0500 (Central Daylight Time),179066.0,A,fi,O,i,202,1,7081.099999904633,171984.90000009537,7777,WL,B,9.0
1,42.20300006866455,learn,17796.99993133545,Tue Mar 24 2026 10:54:09 GMT-0500 (Central Daylight Time),179332.30000019073,A,fir,O,r,258,1,7347.400000095367,171984.90000009537,7777,WL,B,9.0
1,42.45300006866455,learn,17546.99993133545,Tue Mar 24 2026 10:54:09 GMT-0500 (Central Daylight Time),179582.5,A,fire,O,e,240,1,7597.599999904633,171984.90000009537,7777,WL,B,9.0
1,42.86999988555908,learn,17130.000114440918,Tue Mar 24 2026 10:54:09 GMT-0500 (Central Daylight Time),179998.80000019073,A,fireenter,O,enter,397,1,8013.900000095367,171984.90000009537,7777,WL,B,9.0
1,60.014999866485596,learn,-14.999866485595703,Tue Mar 24 2026 10:54:09 GMT-0500 (Central Daylight Time),197143.70000004768,A,None,O,None,17140,1,17144.5,179999.20000004768,7777,WL,B,10.0
2,1.2340002059936523,learn,58765.99979400635,Tue Mar 24 2026 10:54:09 GMT-0500 (Central Daylight Time),276819.60000014305,A,p,O,p,1227,1,1233.7000000476837,275585.90000009537,7777,WL,B,1.0
2,1.683000087738037,learn,58316.99991226196,Tue Mar 24 2026 10:54:09 GMT-0500 (Central Daylight Time),277268.5,A,pi,O,i,438,1,1682.5999999046326,275585.90000009537,7777,WL,B,1.0
2,2.06600022315979,learn,57933.99977684021,Tue Mar 24 2026 10:54:09 GMT-0500 (Central Daylight Time),277651.60000014305,A,pip,O,p,368,1,2065.7000000476837,275585.90000009537,7777,WL,B,1.0
2,2.383000135421753,learn,57616.99986457825,Tue Mar 24 2026 10:54:09 GMT-0500 (Central Daylight Time),277968.40000009537,A,pipe,O,e,305,1,2382.5,275585.90000009537,7777,WL,B,1.0
2,3.2320001125335693,learn,56767.99988746643,Tue Mar 24 2026 10:54:09 GMT-0500 (Central Daylight Time),278818.0,A,pipes,O,s,843,1,3232.0999999046326,275585.90000009537,7777,WL,B,1.0
2,3.366000175476074,learn,56633.999824523926,Tue Mar 24 2026 10:54:09 GMT-0500 (Central Daylight Time),278951.30000019073,A,pipesk,O,k,114,1,3365.4000000953674,275585.90000009537,7777,WL,B,1.0
2,3.6660001277923584,learn,56333.99987220764,Tue Mar 24 2026 10:54:09 GMT-0500 (Central Daylight Time),279251.30000019073,A,pipeski,O,i,292,1,3665.4000000953674,275585.90000009537,7777,WL,B,1.0
2,3.8990001678466797,learn,56100.99983215332,Tue Mar 24 2026 10:54:09 GMT-0500 (Central Daylight Time),279484.5,A,pipeskin,O,n,225,1,3898.5999999046326,275585.90000009537,7777,WL,B,1.0
2,4.483000040054321,learn,55516.99995994568,Tue Mar 24 2026 10:54:09 GMT-0500 (Central Daylight Time),280068.40000009537,A,pipeskinf,O,f,576,1,4482.5,275585.90000009537,7777,WL,B,1.0
2,4.632000207901001,learn,55367.999792099,Tue Mar 24 2026 10:54:09 GMT-0500 (Central Daylight Time),280217.40000009537,A,pipeskinfi,O,i,136,1,4631.5,275585.90000009537,7777,WL,B,1.0
2,4.8490002155303955,learn,55150.999784469604,Tue Mar 24 2026 10:54:09 GMT-0500 (Central Daylight Time),280434.30000019073,A,pipeskinfir,O,r,203,1,4848.400000095367,275585.90000009537,7777,WL,B,1.0
2,5.015000104904175,learn,54984.999895095825,Tue Mar 24 2026 10:54:09 GMT-0500 (Central Daylight Time),280600.60000014305,A,pipeskinfire,O,e,145,1,5014.700000047684,275585.90000009537,7777,WL,B,1.0
2,7.831000089645386,learn,52168.999910354614,Tue Mar 24 2026 10:54:09 GMT-0500 (Central Daylight Time),283416.60000014305,A,pipeskinfirel,O,l,2804,1,7830.700000047684,275585.90000009537,7777,WL,B,1.0
2,8.114000082015991,learn,51885.99991798401,Tue Mar 24 2026 10:54:09 GMT-0500 (Central Daylight Time),283699.80000019073,A,pipeskinfirelo,O,o,276,1,8113.900000095367,275585.90000009537,7777,WL,B,1.0
2,8.38100004196167,learn,51618.99995803833,Tue Mar 24 2026 10:54:09 GMT-0500 (Central Daylight Time),283966.60000014305,A,pipeskinfireloc,O,c,249,1,8380.700000047684,275585.90000009537,7777,WL,B,1.0
2,8.614000082015991,learn,51385.99991798401,Tue Mar 24 2026 10:54:09 GMT-0500 (Central Daylight Time),284199.7000000477,A,pipeskinfirelock,O,k,222,1,8613.799999952316,275585.90000009537,7777,WL,B,1.0
2,10.997000217437744,learn,49002.999782562256,Tue Mar 24 2026 10:54:09 GMT-0500 (Central Daylight Time),286582.10000014305,A,pipeskinfireloc,O,backspace,2373,1,10996.200000047684,275585.90000009537,7777,WL,B,1.0
2,11.230000019073486,learn,48769.999980926514,Tue Mar 24 2026 10:54:09 GMT-0500 (Central Daylight Time),286815.80000019073,A,pipeskinfirelo,O,backspace,222,1,11229.900000095367,275585.90000009537,7777,WL,B,1.0
2,11.481000185012817,learn,48518.99981498718,Tue Mar 24 2026 10:54:09 GMT-0500 (Central Daylight Time),287066.5,A,pipeskinfirel,O,backspace,228,1,11480.599999904633,275585.90000009537,7777,WL,B,1.0
2,11.696000099182129,learn,48303.99990081787,Tue Mar 24 2026 10:54:09 GMT-0500 (Central Daylight Time),287281.7000000477,A,pipeskinfire,O,backspace,201,1,11695.799999952316,275585.90000009537,7777,WL,B,1.0
2,11.930000066757202,learn,48069.9999332428,Tue Mar 24 2026 10:54:09 GMT-0500 (Central Daylight Time),287515.40000009537,A,pipeskinfir,O,backspace,226,1,11929.5,275585.90000009537,7777,WL,B,1.0
2,12.342000007629395,learn,47657.999992370605,Tue Mar 24 2026 10:54:09 GMT-0500 (Central Daylight Time),287927.80000019073,A,pipeskinfi,O,backspace,408,1,12341.900000095367,275585.90000009537,7777,WL,B,1.0
2,12.496000051498413,learn,47503.99994850159,Tue Mar 24 2026 10:54:09 GMT-0500 (Central Daylight Time),288081.80000019073,A,pipeskinf,O,backspace,132,1,12495.900000095367,275585.90000009537,7777,WL,B,1.0
2,12.696000099182129,learn,47303.99990081787,Tue Mar 24 2026 10:54:09 GMT-0500 (Central Daylight Time),288281.80000019073,A,pipeskin,O,backspace,179,1,12695.900000095367,275585.90000009537,7777,WL,B,1.0
2,12.86300015449524,learn,47136.99984550476,Tue Mar 24 2026 10:54:09 GMT-0500 (Central Daylight Time),288448.7000000477,A,pipeski,O,backspace,162,1,12862.799999952316,275585.90000009537,7777,WL,B,1.0
2,13.063000202178955,learn,46936.999797821045,Tue Mar 24 2026 10:54:09 GMT-0500 (Central Daylight Time),288648.10000014305,A,pipesk,O,backspace,187,1,13062.200000047684,275585.90000009537,7777,WL,B,1.0
2,13.296000003814697,learn,46703.9999961853,Tue Mar 24 2026 10:54:09 GMT-0500 (Central Daylight Time),288881.5,A,pipes,O,backspace,219,1,13295.599999904633,275585.90000009537,7777,WL,B,1.0
2,14.01200008392334,learn,45987.99991607666,Tue Mar 24 2026 10:54:09 GMT-0500 (Central Daylight Time),289597.7000000477,A,pipe,O,backspace,699,1,14011.799999952316,275585.90000009537,7777,WL,B,1.0
2,14.913000106811523,learn,45086.99989318848,Tue Mar 24 2026 10:54:09 GMT-0500 (Central Daylight Time),290498.90000009537,A,pipeenter,O,enter,887,1,14913.0,275585.90000009537,7777,WL,B,1.0
2,15.612000226974487,learn,44387.99977302551,Tue Mar 24 2026 10:54:09 GMT-0500 (Central Daylight Time),291197.40000009537,A,s,O,s,682,1,698.2000000476837,290499.2000000477,7777,WL,B,2.0
2,15.695000171661377,learn,44304.99982833862,Tue Mar 24 2026 10:54:09 GMT-0500 (Central Daylight Time),291280.7000000477,A,sk,O,k,78,1,781.5,290499.2000000477,7777,WL,B,2.0
2,15.928000211715698,learn,44071.9997882843,Tue Mar 24 2026 10:54:09 GMT-0500 (Central Daylight Time),291514.0,A,ski,O,i,220,1,1014.7999999523163,290499.2000000477,7777,WL,B,2.0
2,16.195000171661377,learn,43804.99982833862,Tue Mar 24 2026 10:54:09 GMT-0500 (Central Daylight Time),291780.5,A,skin,O,n,259,1,1281.2999999523163,290499.2000000477,7777,WL,B,2.0
2,17.89400005340576,learn,42105.99994659424,Tue Mar 24 2026 10:54:09 GMT-0500 (Central Daylight Time),293480.0,A,skinenter,O,enter,1687,1,2980.7999999523163,290499.2000000477,7777,WL,B,2.0
2,18.611000061035156,learn,41388.999938964844,Tue Mar 24 2026 10:54:09 GMT-0500 (Central Daylight Time),294196.60000014305,A,f,O,f,708,1,716.2000000476837,293480.40000009537,7777,WL,B,3.0
2,18.794000148773193,learn,41205.99985122681,Tue Mar 24 2026 10:54:09 GMT-0500 (Central Daylight Time),294379.90000009537,A,fi,O,i,176,1,899.5,293480.40000009537,7777,WL,B,3.0
2,19.111000061035156,learn,40888.999938964844,Tue Mar 24 2026 10:54:09 GMT-0500 (Central Daylight Time),294696.40000009537,A,fir,O,r,296,1,1216.0,293480.40000009537,7777,WL,B,3.0
2,19.278000116348267,learn,40721.99988365173,Tue Mar 24 2026 10:54:09 GMT-0500 (Central Daylight Time),294863.10000014305,A,fire,O,e,148,1,1382.7000000476837,293480.40000009537,7777,WL,B,3.0
2,19.844000101089478,learn,40155.99989891052,Tue Mar 24 2026 10:54:09 GMT-0500 (Central Daylight Time),295429.5,A,fireenter,O,enter,549,1,1949.0999999046326,293480.40000009537,7777,WL,B,3.0
2,24.79200005531311,learn,35207.99994468689,Tue Mar 24 2026 10:54:09 GMT-0500 (Central Daylight Time),300377.90000009537,A,s,O,s,4928,1,4948.0,295429.90000009537,7777,WL,B,4.0
2,25.04200005531311,learn,34957.99994468689,Tue Mar 24 2026 10:54:09 GMT-0500 (Central Daylight Time),300627.80000019073,A,st,O,t,242,1,5197.900000095367,295429.90000009537,7777,WL,B,4.0
2,25.325000047683716,learn,34674.999952316284,Tue Mar 24 2026 10:54:09 GMT-0500 (Central Daylight Time),300911.2000000477,A,str,O,r,264,1,5481.299999952316,295429.90000009537,7777,WL,B,4.0
2,25.625,learn,34375.0,Tue Mar 24 2026 10:54:09 GMT-0500 (Central Daylight Time),301211.0,A,stre,O,e,285,1,5781.099999904633,295429.90000009537,7777,WL,B,4.0
2,25.808000087738037,learn,34191.99991226196,Tue Mar 24 2026 10:54:09 GMT-0500 (Central Daylight Time),301393.90000009537,A,stree,O,e,169,1,5964.0,295429.90000009537,7777,WL,B,4.0
2,26.058000087738037,learn,33941.99991226196,Tue Mar 24 2026 10:54:09 GMT-0500 (Central Daylight Time),301643.80000019073,A,street,O,t,241,1,6213.900000095367,295429.90000009537,7777,WL,B,4.0
2,26.591000080108643,learn,33408.99991989136,Tue Mar 24 2026 10:54:09 GMT-0500 (Central Daylight Time),302177.30000019073,A,streetenter,O,enter,513,1,6747.400000095367,295429.90000009537,7777,WL,B,4.0
2,30.34000015258789,learn,29659.99984741211,Tue Mar 24 2026 10:54:09 GMT-0500 (Central Daylight Time),305926.10000014305,A,g,O,g,3732,1,3748.4000000953674,302177.7000000477,7777,WL,B,5.0
2,30.60700011253357,learn,29392.99988746643,Tue Mar 24 2026 10:54:09 GMT-0500 (Central Daylight Time),306192.7000000477,A,gr,O,r,261,1,4015.0,302177.7000000477,7777,WL,B,5.0
2,30.84000015258789,learn,29159.99984741211,Tue Mar 24 2026 10:54:09 GMT-0500 (Central Daylight Time),306425.80000019073,A,gra,O,a,228,1,4248.100000143051,302177.7000000477,7777,WL,B,5.0
2,31.140000104904175,learn,28859.999895095825,Tue Mar 24 2026 10:54:09 GMT-0500 (Central Daylight Time),306726.40000009537,A,gras,O,s,283,1,4548.700000047684,302177.7000000477,7777,WL,B,5.0
2,31.35700011253357,learn,28642.99988746643,Tue Mar 24 2026 10:54:09 GMT-0500 (Central Daylight Time),306942.60000014305,A,grass,O,s,197,1,4764.900000095367,302177.7000000477,7777,WL,B,5.0
2,31.623000144958496,learn,28376.999855041504,Tue Mar 24 2026 10:54:09 GMT-0500 (Central Daylight Time),307209.0,A,grassenter,O,enter,262,1,5031.299999952316,302177.7000000477,7777,WL,B,5.0
2,33.38900017738342,learn,26610.999822616577,Tue Mar 24 2026 10:54:09 GMT-0500 (Central Daylight Time),308975.30000019073,A,w,O,w,1748,1,1766.1000001430511,307209.2000000477,7777,WL,B,6.0
2,33.48900008201599,learn,26510.99991798401,Tue Mar 24 2026 10:54:09 GMT-0500 (Central Daylight Time),309075.2000000477,A,wi,O,i,93,1,1866.0,307209.2000000477,7777,WL,B,6.0
2,33.75600004196167,learn,26243.99995803833,Tue Mar 24 2026 10:54:09 GMT-0500 (Central Daylight Time),309341.80000019073,A,win,O,n,249,1,2132.600000143051,307209.2000000477,7777,WL,B,6.0
2,34.19000005722046,learn,25809.99994277954,Tue Mar 24 2026 10:54:09 GMT-0500 (Central Daylight Time),309776.2000000477,A,wind,O,d,415,1,2567.0,307209.2000000477,7777,WL,B,6.0
2,34.455000162124634,learn,25544.999837875366,Tue Mar 24 2026 10:54:09 GMT-0500 (Central Daylight Time),310041.30000019073,A,windo,O,o,259,1,2832.100000143051,307209.2000000477,7777,WL,B,6.0
2,34.82200002670288,learn,25177.99997329712,Tue Mar 24 2026 10:54:09 GMT-0500 (Central Daylight Time),310408.2000000477,A,window,O,w,346,1,3199.0,307209.2000000477,7777,WL,B,6.0
2,35.91300010681152,learn,24086.999893188477,Tue Mar 24 2026 10:54:09 GMT-0500 (Central Daylight Time),311498.80000019073,A,windowenter,O,enter,1085,1,4289.600000143051,307209.2000000477,7777,WL,B,6.0
2,36.97100019454956,learn,23028.99980545044,Tue Mar 24 2026 10:54:09 GMT-0500 (Central Daylight Time),312557.40000009537,A,b,O,b,1050,1,1058.4000000953674,311499.0,7777,WL,B,7.0
2,37.23800015449524,learn,22761.99984550476,Tue Mar 24 2026 10:54:09 GMT-0500 (Central Daylight Time),312823.90000009537,A,ba,O,a,246,1,1324.9000000953674,311499.0,7777,WL,B,7.0
2,37.955000162124634,learn,22044.999837875366,Tue Mar 24 2026 10:54:09 GMT-0500 (Central Daylight Time),313540.7000000477,A,b,O,backspace,700,1,2041.7000000476837,311499.0,7777,WL,B,7.0
2,38.122000217437744,learn,21877.999782562256,Tue Mar 24 2026 10:54:09 GMT-0500 (Central Daylight Time),313707.7000000477,A,,O,backspace,151,1,2208.7000000476837,311499.0,7777,WL,B,7.0
2,38.65400004386902,learn,21345.99995613098,Tue Mar 24 2026 10:54:09 GMT-0500 (Central Daylight Time),314240.30000019073,A,c,O,c,512,1,2741.300000190735,311499.0,7777,WL,B,7.0
2,38.87100005149841,learn,21128.999948501587,Tue Mar 24 2026 10:54:09 GMT-0500 (Central Daylight Time),314456.80000019073,A,ca,O,a,204,1,2957.800000190735,311499.0,7777,WL,B,7.0
2,39.1710000038147,learn,20828.999996185303,Tue Mar 24 2026 10:54:09 GMT-0500 (Central Daylight Time),314756.90000009537,A,cab,O,b,292,1,3257.9000000953674,311499.0,7777,WL,B,7.0
2,39.63700008392334,learn,20362.99991607666,Tue Mar 24 2026 10:54:09 GMT-0500 (Central Daylight Time),315223.2000000477,A,cabi,O,i,455,1,3724.2000000476837,311499.0,7777,WL,B,7.0
2,39.854000091552734,learn,20145.999908447266,Tue Mar 24 2026 10:54:09 GMT-0500 (Central Daylight Time),315439.80000019073,A,cabin,O,n,204,1,3940.800000190735,311499.0,7777,WL,B,7.0
2,40.837000131607056,learn,19162.999868392944,Tue Mar 24 2026 10:54:09 GMT-0500 (Central Daylight Time),316422.90000009537,A,cabinenter,O,enter,965,1,4923.900000095367,311499.0,7777,WL,B,7.0
2,42.35300016403198,learn,17646.999835968018,Tue Mar 24 2026 10:54:09 GMT-0500 (Central Daylight Time),317939.2000000477,A,f,O,f,1502,1,1516.0,316423.2000000477,7777,WL,B,8.0
2,42.63600015640259,learn,17363.999843597412,Tue Mar 24 2026 10:54:09 GMT-0500 (Central Daylight Time),318222.5,A,fo,O,o,273,1,1799.2999999523163,316423.2000000477,7777,WL,B,8.0
2,42.836000204086304,learn,17163.999795913696,Tue Mar 24 2026 10:54:09 GMT-0500 (Central Daylight Time),318422.10000014305,A,foo,O,o,182,1,1998.9000000953674,316423.2000000477,7777,WL,B,8.0
2,43.03600001335144,learn,16963.99998664856,Tue Mar 24 2026 10:54:09 GMT-0500 (Central Daylight Time),318622.10000014305,A,foor,O,r,191,1,2198.9000000953674,316423.2000000477,7777,WL,B,8.0
2,43.43600010871887,learn,16563.999891281128,Tue Mar 24 2026 10:54:09 GMT-0500 (Central Daylight Time),319022.2000000477,A,foorenter,O,enter,390,1,2599.0,316423.2000000477,7777,WL,B,8.0
2,46.76800012588501,learn,13231.99987411499,Tue Mar 24 2026 10:54:09 GMT-0500 (Central Daylight Time),322354.40000009537,A,a,O,a,3324,1,3331.7000000476837,319022.7000000477,7777,WL,B,9.0
2,46.93500018119812,learn,13064.99981880188,Tue Mar 24 2026 10:54:09 GMT-0500 (Central Daylight Time),322520.80000019073,A,ar,O,r,153,1,3498.100000143051,319022.7000000477,7777,WL,B,9.0
2,47.135000228881836,learn,12864.999771118164,Tue Mar 24 2026 10:54:09 GMT-0500 (Central Daylight Time),322720.90000009537,A,arm,O,m,188,1,3698.2000000476837,319022.7000000477,7777,WL,B,9.0
2,47.43500018119812,learn,12564.99981880188,Tue Mar 24 2026 10:54:09 GMT-0500 (Central Daylight Time),323021.0,A,armenter,O,enter,282,1,3998.2999999523163,319022.7000000477,7777,WL,B,9.0
2,48.402000188827515,learn,11597.999811172485,Tue Mar 24 2026 10:54:09 GMT-0500 (Central Daylight Time),323988.2000000477,A,p,O,p,959,1,966.7999999523163,323021.40000009537,7777,WL,B,10.0
2,48.83400011062622,learn,11165.99988937378,Tue Mar 24 2026 10:54:09 GMT-0500 (Central Daylight Time),324420.40000009537,A,pu,O,u,417,1,1399.0,323021.40000009537,7777,WL,B,10.0
2,49.08400011062622,learn,10915.99988937378,Tue Mar 24 2026 10:54:09 GMT-0500 (Central Daylight Time),324670.2000000477,A,pup,O,p,232,1,1648.7999999523163,323021.40000009537,7777,WL,B,10.0
2,49.318000078201294,learn,10681.999921798706,Tue Mar 24 2026 10:54:09 GMT-0500 (Central Daylight Time),324903.7000000477,A,pupi,O,i,213,1,1882.2999999523163,323021.40000009537,7777,WL,B,10.0
2,49.81700015068054,learn,10182.999849319458,Tue Mar 24 2026 10:54:09 GMT-0500 (Central Daylight Time),325403.30000019073,A,pupil,O,l,493,1,2381.9000000953674,323021.40000009537,7777,WL,B,10.0
2,50.18400001525879,learn,9815.999984741211,Tue Mar 24 2026 10:54:09 GMT-0500 (Central Daylight Time),325770.30000019073,A,pupilenter,O,enter,353,1,2748.9000000953674,323021.40000009537,7777,WL,B,10.0
2,59.8970000743866,learn,102.99992561340332,Tue Mar 24 2026 10:54:09 GMT-0500 (Central Daylight Time),335483.5,A,a,O,a,9706,1,9712.799999952316,325770.7000000477,7777,WL,B,11.0
2,60.01400017738342,learn,-14.000177383422852,Tue Mar 24 2026 10:54:09 GMT-0500 (Central Daylight Time),335600.40000009537,A,aNone,O,None,111,1,9829.700000047684,325770.7000000477,7777,WL,B,11.0
3,1.432999849319458,learn,58567.00015068054,Tue Mar 24 2026 10:54:09 GMT-0500 (Central Daylight Time),409260.5,A,s,O,s,1425,1,1432.8999998569489,407827.60000014305,7777,WL,B,1.0
3,1.7660000324249268,learn,58233.99996757507,Tue Mar 24 2026 10:54:09 GMT-0500 (Central Daylight Time),409593.60000014305,A,st,O,t,317,1,1766.0,407827.60000014305,7777,WL,B,1.0
3,2.0999999046325684,learn,57900.00009536743,Tue Mar 24 2026 10:54:09 GMT-0500 (Central Daylight Time),409926.80000019073,A,str,O,r,314,1,2099.2000000476837,407827.60000014305,7777,WL,B,1.0
3,2.5989999771118164,learn,57401.00002288818,Tue Mar 24 2026 10:54:09 GMT-0500 (Central Daylight Time),410426.7000000477,A,stre,O,e,494,1,2599.0999999046326,407827.60000014305,7777,WL,B,1.0
3,2.865999937057495,learn,57134.000062942505,Tue Mar 24 2026 10:54:09 GMT-0500 (Central Daylight Time),410693.40000009537,A,stree,O,e,258,1,2865.7999999523163,407827.60000014305,7777,WL,B,1.0
3,3.0490000247955322,learn,56950.99997520447,Tue Mar 24 2026 10:54:09 GMT-0500 (Central Daylight Time),410876.60000014305,A,street,O,t,174,1,3049.0,407827.60000014305,7777,WL,B,1.0
3,3.882999897003174,learn,56117.000102996826,Tue Mar 24 2026 10:54:09 GMT-0500 (Central Daylight Time),411709.90000009537,A,streetenter,O,enter,824,1,3882.2999999523163,407827.60000014305,7777,WL,B,1.0
3,6.332000017166138,learn,53667.99998283386,Tue Mar 24 2026 10:54:09 GMT-0500 (Central Daylight Time),414158.90000009537,A,a,O,a,2437,1,2448.5999999046326,411710.30000019073,7777,WL,B,2.0
3,6.547999858856201,learn,53452.0001411438,Tue Mar 24 2026 10:54:09 GMT-0500 (Central Daylight Time),414375.5,A,ar,O,r,205,1,2665.199999809265,411710.30000019073,7777,WL,B,2.0
3,6.81499981880188,learn,53185.00018119812,Tue Mar 24 2026 10:54:09 GMT-0500 (Central Daylight Time),414642.2000000477,A,arm,O,m,246,1,2931.899999856949,411710.30000019073,7777,WL,B,2.0
3,7.931999921798706,learn,52068.000078201294,Tue Mar 24 2026 10:54:09 GMT-0500 (Central Daylight Time),415758.80000019073,A,armenter,O,enter,1106,1,4048.5,411710.30000019073,7777,WL,B,2.0
3,9.813999891281128,learn,50186.00010871887,Tue Mar 24 2026 10:54:09 GMT-0500 (Central Daylight Time),417641.40000009537,A,g,O,g,1870,1,1882.2999999523163,415759.10000014305,7777,WL,B,3.0
3,10.113999843597412,learn,49886.00015640259,Tue Mar 24 2026 10:54:09 GMT-0500 (Central Daylight Time),417941.10000014305,A,gr,O,r,291,1,2182.0,415759.10000014305,7777,WL,B,3.0
3,10.363999843597412,learn,49636.00015640259,Tue Mar 24 2026 10:54:09 GMT-0500 (Central Daylight Time),418191.10000014305,A,gra,O,a,239,1,2432.0,415759.10000014305,7777,WL,B,3.0
3,10.69700002670288,learn,49302.99997329712,Tue Mar 24 2026 10:54:09 GMT-0500 (Central Daylight Time),418524.30000019073,A,gras,O,s,325,1,2765.2000000476837,415759.10000014305,7777,WL,B,3.0
3,10.914000034332275,learn,49085.999965667725,Tue Mar 24 2026 10:54:09 GMT-0500 (Central Daylight Time),418741.10000014305,A,grass,O,s,200,1,2982.0,415759.10000014305,7777,WL,B,3.0
3,11.162999868392944,learn,48837.000131607056,Tue Mar 24 2026 10:54:09 GMT-0500 (Central Daylight Time),418990.80000019073,A,grassenter,O,enter,231,1,3231.7000000476837,415759.10000014305,7777,WL,B,3.0
3,12.212999820709229,learn,47787.00017929077,Tue Mar 24 2026 10:54:09 GMT-0500 (Central Daylight Time),420040.5,A,w,O,w,1038,1,1049.3999998569489,418991.10000014305,7777,WL,B,4.0
3,12.395999908447266,learn,47604.000091552734,Tue Mar 24 2026 10:54:09 GMT-0500 (Central Daylight Time),420223.7000000477,A,wi,O,i,172,1,1232.5999999046326,418991.10000014305,7777,WL,B,4.0
3,12.61299991607666,learn,47387.00008392334,Tue Mar 24 2026 10:54:09 GMT-0500 (Central Daylight Time),420440.60000014305,A,win,O,n,204,1,1449.5,418991.10000014305,7777,WL,B,4.0
3,13.76199984550476,learn,46238.00015449524,Tue Mar 24 2026 10:54:09 GMT-0500 (Central Daylight Time),421589.7000000477,A,wind,O,d,1139,1,2598.5999999046326,418991.10000014305,7777,WL,B,4.0
3,13.978999853134155,learn,46021.000146865845,Tue Mar 24 2026 10:54:09 GMT-0500 (Central Daylight Time),421806.5,A,windo,O,o,205,1,2815.399999856949,418991.10000014305,7777,WL,B,4.0
3,14.211999893188477,learn,45788.00010681152,Tue Mar 24 2026 10:54:09 GMT-0500 (Central Daylight Time),422039.80000019073,A,window,O,w,213,1,3048.7000000476837,418991.10000014305,7777,WL,B,4.0
3,14.578999996185303,learn,45421.0000038147,Tue Mar 24 2026 10:54:09 GMT-0500 (Central Daylight Time),422406.30000019073,A,windowenter,O,enter,348,1,3415.2000000476837,418991.10000014305,7777,WL,B,4.0
3,15.111999988555908,learn,44888.00001144409,Tue Mar 24 2026 10:54:09 GMT-0500 (Central Daylight Time),422939.5,A,d,O,d,526,1,532.7999999523163,422406.7000000477,7777,WL,B,5.0
3,15.378999948501587,learn,44621.00005149841,Tue Mar 24 2026 10:54:09 GMT-0500 (Central Daylight Time),423206.30000019073,A,do,O,o,257,1,799.6000001430511,422406.7000000477,7777,WL,B,5.0
3,15.544999837875366,learn,44455.000162124634,Tue Mar 24 2026 10:54:09 GMT-0500 (Central Daylight Time),423372.60000014305,A,doo,O,o,157,1,965.9000000953674,422406.7000000477,7777,WL,B,5.0
3,15.727999925613403,learn,44272.0000743866,Tue Mar 24 2026 10:54:09 GMT-0500 (Central Daylight Time),423555.90000009537,A,door,O,r,168,1,1149.2000000476837,422406.7000000477,7777,WL,B,5.0
3,16.01199984550476,learn,43988.00015449524,Tue Mar 24 2026 10:54:09 GMT-0500 (Central Daylight Time),423839.5,A,doorenter,O,enter,264,1,1432.7999999523163,422406.7000000477,7777,WL,B,5.0
3,22.026999950408936,learn,37973.000049591064,Tue Mar 24 2026 10:54:09 GMT-0500 (Central Daylight Time),429854.40000009537,A,s,O,s,5997,1,6014.5,423839.90000009537,7777,WL,B,6.0
3,22.342999935150146,learn,37657.00006484985,Tue Mar 24 2026 10:54:09 GMT-0500 (Central Daylight Time),430170.7000000477,A,st,O,t,310,1,6330.799999952316,423839.90000009537,7777,WL,B,6.0
3,22.710000038146973,learn,37289.99996185303,Tue Mar 24 2026 10:54:09 GMT-0500 (Central Daylight Time),430537.40000009537,A,sta,O,a,361,1,6697.5,423839.90000009537,7777,WL,B,6.0
3,23.0939998626709,learn,36906.0001373291,Tue Mar 24 2026 10:54:09 GMT-0500 (Central Daylight Time),430921.60000014305,A,star,O,r,371,1,7081.700000047684,423839.90000009537,7777,WL,B,6.0
3,23.47599983215332,learn,36524.00016784668,Tue Mar 24 2026 10:54:09 GMT-0500 (Central Daylight Time),431303.7000000477,A,starenter,O,enter,371,1,7463.799999952316,423839.90000009537,7777,WL,B,6.0
3,24.39299988746643,learn,35607.00011253357,Tue Mar 24 2026 10:54:09 GMT-0500 (Central Daylight Time),432220.30000019073,A,c,O,c,901,1,916.3000001907349,431304.0,7777,WL,B,7.0
3,24.658999919891357,learn,35341.00008010864,Tue Mar 24 2026 10:54:09 GMT-0500 (Central Daylight Time),432486.90000009537,A,ci,O,i,256,1,1182.9000000953674,431304.0,7777,WL,B,7.0
3,24.89199995994568,learn,35108.00004005432,Tue Mar 24 2026 10:54:09 GMT-0500 (Central Daylight Time),432719.90000009537,A,cit,O,t,222,1,1415.9000000953674,431304.0,7777,WL,B,7.0
3,25.092000007629395,learn,34907.999992370605,Tue Mar 24 2026 10:54:09 GMT-0500 (Central Daylight Time),432919.80000019073,A,city,O,y,180,1,1615.8000001907349,431304.0,7777,WL,B,7.0
3,25.425999879837036,learn,34574.000120162964,Tue Mar 24 2026 10:54:09 GMT-0500 (Central Daylight Time),433253.10000014305,A,cityenter,O,enter,317,1,1949.1000001430511,431304.0,7777,WL,B,7.0
3,28.057999849319458,learn,31942.000150680542,Tue Mar 24 2026 10:54:09 GMT-0500 (Central Daylight Time),435885.60000014305,A,w,O,w,2616,1,2632.100000143051,433253.5,7777,WL,B,8.0
3,28.257999897003174,learn,31742.000102996826,Tue Mar 24 2026 10:54:09 GMT-0500 (Central Daylight Time),436085.40000009537,A,wi,O,i,191,1,2831.9000000953674,433253.5,7777,WL,B,8.0
3,28.757999897003174,learn,31242.000102996826,Tue Mar 24 2026 10:54:09 GMT-0500 (Central Daylight Time),436585.60000014305,A,wif,O,f,495,1,3332.100000143051,433253.5,7777,WL,B,8.0
3,28.990999937057495,learn,31009.000062942505,Tue Mar 24 2026 10:54:09 GMT-0500 (Central Daylight Time),436818.7000000477,A,wife,O,e,219,1,3565.2000000476837,433253.5,7777,WL,B,8.0
3,29.257999897003174,learn,30742.000102996826,Tue Mar 24 2026 10:54:09 GMT-0500 (Central Daylight Time),437085.40000009537,A,wifeenter,O,enter,258,1,3831.9000000953674,433253.5,7777,WL,B,8.0
3,37.621999979019165,learn,22378.000020980835,Tue Mar 24 2026 10:54:09 GMT-0500 (Central Daylight Time),445449.40000009537,A,c,O,c,8351,1,8363.700000047684,437085.7000000477,7777,WL,B,9.0
3,37.871999979019165,learn,22128.000020980835,Tue Mar 24 2026 10:54:09 GMT-0500 (Central Daylight Time),445699.2000000477,A,ca,O,a,243,1,8613.5,437085.7000000477,7777,WL,B,9.0
3,38.204999923706055,learn,21795.000076293945,Tue Mar 24 2026 10:54:09 GMT-0500 (Central Daylight Time),446032.7000000477,A,cab,O,b,321,1,8947.0,437085.7000000477,7777,WL,B,9.0
3,38.38800001144409,learn,21611.99998855591,Tue Mar 24 2026 10:54:09 GMT-0500 (Central Daylight Time),446215.80000019073,A,cabi,O,i,164,1,9130.100000143051,437085.7000000477,7777,WL,B,9.0
3,38.687999963760376,learn,21312.000036239624,Tue Mar 24 2026 10:54:09 GMT-0500 (Central Daylight Time),446515.7000000477,A,cabin,O,n,285,1,9430.0,437085.7000000477,7777,WL,B,9.0
3,39.12100005149841,learn,20878.999948501587,Tue Mar 24 2026 10:54:09 GMT-0500 (Central Daylight Time),446948.80000019073,A,cabinenter,O,enter,417,1,9863.100000143051,437085.7000000477,7777,WL,B,9.0
3,39.80399990081787,learn,20196.00009918213,Tue Mar 24 2026 10:54:09 GMT-0500 (Central Daylight Time),447632.0,A,l,O,l,664,1,682.7999999523163,446949.2000000477,7777,WL,B,10.0
3,40.00499987602234,learn,19995.00012397766,Tue Mar 24 2026 10:54:09 GMT-0500 (Central Daylight Time),447832.10000014305,A,la,O,a,189,1,882.9000000953674,446949.2000000477,7777,WL,B,10.0
3,40.187000036239624,learn,19812.999963760376,Tue Mar 24 2026 10:54:09 GMT-0500 (Central Daylight Time),448015.10000014305,A,lak,O,k,172,1,1065.9000000953674,446949.2000000477,7777,WL,B,10.0
3,40.4210000038147,learn,19578.999996185303,Tue Mar 24 2026 10:54:09 GMT-0500 (Central Daylight Time),448248.60000014305,A,lake,O,e,212,1,1299.4000000953674,446949.2000000477,7777,WL,B,10.0
3,40.65400004386902,learn,19345.99995613098,Tue Mar 24 2026 10:54:09 GMT-0500 (Central Daylight Time),448481.5,A,lakeenter,O,enter,228,1,1532.2999999523163,446949.2000000477,7777,WL,B,10.0
3,50.91799998283386,learn,9082.000017166138,Tue Mar 24 2026 10:54:09 GMT-0500 (Central Daylight Time),458745.2000000477,A,p,O,p,10242,1,10263.200000047684,448482.0,7777,WL,B,11.0
3,51.51799988746643,learn,8482.00011253357,Tue Mar 24 2026 10:54:09 GMT-0500 (Central Daylight Time),459345.0,A,pu,O,u,587,1,10863.0,448482.0,7777,WL,B,11.0
3,51.98399996757507,learn,8016.000032424927,Tue Mar 24 2026 10:54:09 GMT-0500 (Central Daylight Time),459811.7000000477,A,pup,O,p,451,1,11329.700000047684,448482.0,7777,WL,B,11.0
3,52.41699981689453,learn,7583.000183105469,Tue Mar 24 2026 10:54:09 GMT-0500 (Central Daylight Time),460244.7000000477,A,pupi,O,i,417,1,11762.700000047684,448482.0,7777,WL,B,11.0
3,53.11699986457825,learn,6883.000135421753,Tue Mar 24 2026 10:54:09 GMT-0500 (Central Daylight Time),460944.60000014305,A,pupil,O,l,679,1,12462.600000143051,448482.0,7777,WL,B,11.0
3,53.43299984931946,learn,6567.000150680542,Tue Mar 24 2026 10:54:09 GMT-0500 (Central Daylight Time),461260.80000019073,A,pupilenter,O,enter,307,1,12778.800000190735,448482.0,7777,WL,B,11.0
3,53.86699986457825,learn,6133.000135421753,Tue Mar 24 2026 10:54:09 GMT-0500 (Central Daylight Time),461694.30000019073,A,p,O,p,424,1,433.10000014305115,461261.2000000477,7777,WL,B,12.0
3,54.217000007629395,learn,5782.9999923706055,Tue Mar 24 2026 10:54:09 GMT-0500 (Central Daylight Time),462044.2000000477,A,pi,O,i,334,1,783.0,461261.2000000477,7777,WL,B,12.0
3,54.59999990463257,learn,5400.000095367432,Tue Mar 24 2026 10:54:09 GMT-0500 (Central Daylight Time),462427.10000014305,A,pip,O,p,377,1,1165.9000000953674,461261.2000000477,7777,WL,B,12.0
3,54.91599988937378,learn,5084.000110626221,Tue Mar 24 2026 10:54:09 GMT-0500 (Central Daylight Time),462743.80000019073,A,pipe,O,e,297,1,1482.6000001430511,461261.2000000477,7777,WL,B,12.0
3,55.25,learn,4750.0,Tue Mar 24 2026 10:54:09 GMT-0500 (Central Daylight Time),463077.2000000477,A,pipeenter,O,enter,325,1,1816.0,461261.2000000477,7777,WL,B,12.0
3,57.698999881744385,learn,2301.0001182556152,Tue Mar 24 2026 10:54:09 GMT-0500 (Central Daylight Time),465526.30000019073,A,s,O,s,2439,1,2448.800000190735,463077.5,7777,WL,B,13.0
3,57.88199996948242,learn,2118.000030517578,Tue Mar 24 2026 10:54:09 GMT-0500 (Central Daylight Time),465709.5,A,sk,O,k,166,1,2632.0,463077.5,7777,WL,B,13.0
3,58.16599988937378,learn,1834.0001106262207,Tue Mar 24 2026 10:54:09 GMT-0500 (Central Daylight Time),465993.0,A,ski,O,i,263,1,2915.5,463077.5,7777,WL,B,13.0
3,58.33200001716614,learn,1667.9999828338623,Tue Mar 24 2026 10:54:09 GMT-0500 (Central Daylight Time),466159.5,A,skin,O,n,155,1,3082.0,463077.5,7777,WL,B,13.0
3,58.66499996185303,learn,1335.0000381469727,Tue Mar 24 2026 10:54:09 GMT-0500 (Central Daylight Time),466492.80000019073,A,skinenter,O,enter,325,1,3415.300000190735,463077.5,7777,WL,B,13.0
3,60.014999866485596,learn,-14.999866485595703,Tue Mar 24 2026 10:54:09 GMT-0500 (Central Daylight Time),467842.5,A,None,O,None,1345,1,1349.3999998569489,466493.10000014305,7777,WL,B,14.0
4,1.183000087738037,learn,58816.99991226196,Tue Mar 24 2026 10:54:09 GMT-0500 (Central Daylight Time),563995.8000001907,A,l,O,l,1168,1,1182.8000001907349,562813.0,7777,WL,B,1.0
4,1.4660000801086426,learn,58533.99991989136,Tue Mar 24 2026 10:54:09 GMT-0500 (Central Daylight Time),564278.8000001907,A,la,O,a,265,1,1465.8000001907349,562813.0,7777,WL,B,1.0
4,1.7320001125335693,learn,58267.99988746643,Tue Mar 24 2026 10:54:09 GMT-0500 (Central Daylight Time),564545.3000001907,A,lak,O,k,246,1,1732.3000001907349,562813.0,7777,WL,B,1.0
4,1.9830000400543213,learn,58016.99995994568,Tue Mar 24 2026 10:54:09 GMT-0500 (Central Daylight Time),564796.2000000477,A,lake,O,e,243,1,1983.2000000476837,562813.0,7777,WL,B,1.0
4,2.3489999771118164,learn,57651.00002288818,Tue Mar 24 2026 10:54:09 GMT-0500 (Central Daylight Time),565161.9000000954,A,lakeenter,O,enter,344,1,2348.9000000953674,562813.0,7777,WL,B,1.0
4,2.7150001525878906,learn,57284.99984741211,Tue Mar 24 2026 10:54:09 GMT-0500 (Central Daylight Time),565528.4000000954,A,p,O,p,355,1,366.2999999523163,565162.100000143,7777,WL,B,2.0
4,3.065000057220459,learn,56934.99994277954,Tue Mar 24 2026 10:54:09 GMT-0500 (Central Daylight Time),565878.3000001907,A,pi,O,i,340,1,716.2000000476837,565162.100000143,7777,WL,B,2.0
4,3.3989999294281006,learn,56601.0000705719,Tue Mar 24 2026 10:54:09 GMT-0500 (Central Daylight Time),566211.600000143,A,pip,O,p,326,1,1049.5,565162.100000143,7777,WL,B,2.0
4,3.765000104904175,learn,56234.999895095825,Tue Mar 24 2026 10:54:09 GMT-0500 (Central Daylight Time),566577.9000000954,A,pipe,O,e,361,1,1415.7999999523163,565162.100000143,7777,WL,B,2.0
4,4.148000001907349,learn,55851.99999809265,Tue Mar 24 2026 10:54:09 GMT-0500 (Central Daylight Time),566961.4000000954,A,pipeenter,O,enter,371,1,1799.2999999523163,565162.100000143,7777,WL,B,2.0
4,5.230999946594238,learn,54769.00005340576,Tue Mar 24 2026 10:54:09 GMT-0500 (Central Daylight Time),568044.4000000954,A,s,O,s,1075,1,1082.7999999523163,566961.600000143,7777,WL,B,3.0
4,5.398000001907349,learn,54601.99999809265,Tue Mar 24 2026 10:54:09 GMT-0500 (Central Daylight Time),568210.5,A,sk,O,k,151,1,1248.8999998569489,566961.600000143,7777,WL,B,3.0
4,5.697999954223633,learn,54302.00004577637,Tue Mar 24 2026 10:54:09 GMT-0500 (Central Daylight Time),568510.8000001907,A,ski,O,i,290,1,1549.2000000476837,566961.600000143,7777,WL,B,3.0
4,6.031000137329102,learn,53968.9998626709,Tue Mar 24 2026 10:54:09 GMT-0500 (Central Daylight Time),568843.8000001907,A,skin,O,n,318,1,1882.2000000476837,566961.600000143,7777,WL,B,3.0
4,6.54800009727478,learn,53451.99990272522,Tue Mar 24 2026 10:54:09 GMT-0500 (Central Daylight Time),569360.600000143,A,skinenter,O,enter,496,1,2399.0,566961.600000143,7777,WL,B,3.0
4,7.2820000648498535,learn,52717.99993515015,Tue Mar 24 2026 10:54:09 GMT-0500 (Central Daylight Time),570094.7000000477,A,f,O,f,716,1,733.7999999523163,569360.9000000954,7777,WL,B,4.0
4,7.480999946594238,learn,52519.00005340576,Tue Mar 24 2026 10:54:09 GMT-0500 (Central Daylight Time),570293.7000000477,A,fi,O,i,182,1,932.7999999523163,569360.9000000954,7777,WL,B,4.0
4,7.812000036239624,learn,52187.999963760376,Tue Mar 24 2026 10:54:09 GMT-0500 (Central Daylight Time),570624.8000001907,A,fir,O,r,326,1,1263.9000000953674,569360.9000000954,7777,WL,B,4.0
4,7.960000038146973,learn,52039.99996185303,Tue Mar 24 2026 10:54:09 GMT-0500 (Central Daylight Time),570773.4000000954,A,fire,O,e,143,1,1412.5,569360.9000000954,7777,WL,B,4.0
4,8.147000074386597,learn,51852.9999256134,Tue Mar 24 2026 10:54:09 GMT-0500 (Central Daylight Time),570960.100000143,A,fireenter,O,enter,175,1,1599.2000000476837,569360.9000000954,7777,WL,B,4.0
4,8.930000066757202,learn,51069.9999332428,Tue Mar 24 2026 10:54:09 GMT-0500 (Central Daylight Time),571743.100000143,A,c,O,c,764,1,782.6000001430511,570960.5,7777,WL,B,5.0
4,9.19700002670288,learn,50802.99997329712,Tue Mar 24 2026 10:54:09 GMT-0500 (Central Daylight Time),572009.600000143,A,cl,O,l,254,1,1049.1000001430511,570960.5,7777,WL,B,5.0
4,9.463000059127808,learn,50536.99994087219,Tue Mar 24 2026 10:54:09 GMT-0500 (Central Daylight Time),572276.2000000477,A,clo,O,o,259,1,1315.7000000476837,570960.5,7777,WL,B,5.0
4,9.896000146865845,learn,50103.999853134155,Tue Mar 24 2026 10:54:09 GMT-0500 (Central Daylight Time),572709.4000000954,A,cloc,O,c,416,1,1748.9000000953674,570960.5,7777,WL,B,5.0
4,10.146000146865845,learn,49853.999853134155,Tue Mar 24 2026 10:54:09 GMT-0500 (Central Daylight Time),572959.4000000954,A,clock,O,k,239,1,1998.9000000953674,570960.5,7777,WL,B,5.0
4,10.546000003814697,learn,49453.9999961853,Tue Mar 24 2026 10:54:09 GMT-0500 (Central Daylight Time),573359.2000000477,A,clockenter,O,enter,389,1,2398.7000000476837,570960.5,7777,WL,B,5.0
4,11.02999997138977,learn,48970.00002861023,Tue Mar 24 2026 10:54:09 GMT-0500 (Central Daylight Time),573842.600000143,A,s,O,s,469,1,483.0,573359.600000143,7777,WL,B,6.0
4,11.396000146865845,learn,48603.999853134155,Tue Mar 24 2026 10:54:09 GMT-0500 (Central Daylight Time),574208.9000000954,A,st,O,t,354,1,849.2999999523163,573359.600000143,7777,WL,B,6.0
4,11.67900013923645,learn,48320.99986076355,Tue Mar 24 2026 10:54:09 GMT-0500 (Central Daylight Time),574492.4000000954,A,str,O,r,275,1,1132.7999999523163,573359.600000143,7777,WL,B,6.0
4,12.01200008392334,learn,47987.99991607666,Tue Mar 24 2026 10:54:09 GMT-0500 (Central Daylight Time),574825.4000000954,A,stre,O,e,312,1,1465.7999999523163,573359.600000143,7777,WL,B,6.0
4,12.196000099182129,learn,47803.99990081787,Tue Mar 24 2026 10:54:09 GMT-0500 (Central Daylight Time),575008.9000000954,A,stree,O,e,171,1,1649.2999999523163,573359.600000143,7777,WL,B,6.0
4,12.42900013923645,learn,47570.99986076355,Tue Mar 24 2026 10:54:09 GMT-0500 (Central Daylight Time),575242.100000143,A,street,O,t,220,1,1882.5,573359.600000143,7777,WL,B,6.0
4,13.17900013923645,learn,46820.99986076355,Tue Mar 24 2026 10:54:09 GMT-0500 (Central Daylight Time),575992.100000143,A,streetg,O,g,730,1,2632.5,573359.600000143,7777,WL,B,6.0
4,13.496000051498413,learn,46503.99994850159,Tue Mar 24 2026 10:54:09 GMT-0500 (Central Daylight Time),576308.600000143,A,streetgr,O,r,307,1,2949.0,573359.600000143,7777,WL,B,6.0
4,13.779000043869019,learn,46220.99995613098,Tue Mar 24 2026 10:54:09 GMT-0500 (Central Daylight Time),576591.9000000954,A,streetgra,O,a,264,1,3232.2999999523163,573359.600000143,7777,WL,B,6.0
4,14.528000116348267,learn,45471.99988365173,Tue Mar 24 2026 10:54:09 GMT-0500 (Central Daylight Time),577341.5,A,streetgras,O,s,741,1,3981.899999856949,573359.600000143,7777,WL,B,6.0
4,14.82800006866455,learn,45171.99993133545,Tue Mar 24 2026 10:54:09 GMT-0500 (Central Daylight Time),577641.4000000954,A,streetgrass,O,s,279,1,4281.799999952316,573359.600000143,7777,WL,B,6.0
4,15.295000076293945,learn,44704.999923706055,Tue Mar 24 2026 10:54:09 GMT-0500 (Central Daylight Time),578107.9000000954,A,streetgrassd,O,d,459,1,4748.299999952316,573359.600000143,7777,WL,B,6.0
4,15.57800006866455,learn,44421.99993133545,Tue Mar 24 2026 10:54:09 GMT-0500 (Central Daylight Time),578390.9000000954,A,streetgrassdo,O,o,273,1,5031.299999952316,573359.600000143,7777,WL,B,6.0
4,15.795000076293945,learn,44204.999923706055,Tue Mar 24 2026 10:54:09 GMT-0500 (Central Daylight Time),578607.8000001907,A,streetgrassdoo,O,o,205,1,5248.200000047684,573359.600000143,7777,WL,B,6.0
4,16.061000108718872,learn,43938.99989128113,Tue Mar 24 2026 10:54:09 GMT-0500 (Central Daylight Time),578874.3000001907,A,streetgrassdoor,O,r,253,1,5514.700000047684,573359.600000143,7777,WL,B,6.0
4,16.561000108718872,learn,43438.99989128113,Tue Mar 24 2026 10:54:09 GMT-0500 (Central Daylight Time),579374.100000143,A,streetgrassdoorenter,O,enter,490,1,6014.5,573359.600000143,7777,WL,B,6.0
4,27.324000120162964,learn,32675.999879837036,Tue Mar 24 2026 10:54:09 GMT-0500 (Central Daylight Time),590137.100000143,A,a,O,a,10759,1,10762.700000047684,579374.4000000954,7777,WL,B,7.0
4,27.641000032424927,learn,32358.999967575073,Tue Mar 24 2026 10:54:09 GMT-0500 (Central Daylight Time),590454.2000000477,A,ar,O,r,307,1,11079.799999952316,579374.4000000954,7777,WL,B,7.0
4,27.907000064849854,learn,32092.999935150146,Tue Mar 24 2026 10:54:09 GMT-0500 (Central Daylight Time),590720.5,A,arm,O,m,254,1,11346.099999904633,579374.4000000954,7777,WL,B,7.0
4,28.490999937057495,learn,31509.000062942505,Tue Mar 24 2026 10:54:09 GMT-0500 (Central Daylight Time),591303.8000001907,A,armenter,O,enter,564,1,11929.400000095367,579374.4000000954,7777,WL,B,7.0
4,29.324000120162964,learn,30675.999879837036,Tue Mar 24 2026 10:54:09 GMT-0500 (Central Daylight Time),592136.9000000954,A,s,O,s,813,1,832.7000000476837,591304.2000000477,7777,WL,B,8.0
4,29.707000017166138,learn,30292.999982833862,Tue Mar 24 2026 10:54:09 GMT-0500 (Central Daylight Time),592520.2000000477,A,st,O,t,364,1,1216.0,591304.2000000477,7777,WL,B,8.0
4,30.0239999294281,learn,29976.0000705719,Tue Mar 24 2026 10:54:09 GMT-0500 (Central Daylight Time),592836.600000143,A,sta,O,a,308,1,1532.4000000953674,591304.2000000477,7777,WL,B,8.0
4,30.223000049591064,learn,29776.999950408936,Tue Mar 24 2026 10:54:09 GMT-0500 (Central Daylight Time),593036.4000000954,A,star,O,r,185,1,1732.2000000476837,591304.2000000477,7777,WL,B,8.0
4,30.707000017166138,learn,29292.999982833862,Tue Mar 24 2026 10:54:09 GMT-0500 (Central Daylight Time),593519.7000000477,A,starenter,O,enter,464,1,2215.5,591304.2000000477,7777,WL,B,8.0
4,33.1560001373291,learn,26843.9998626709,Tue Mar 24 2026 10:54:09 GMT-0500 (Central Daylight Time),595968.9000000954,A,w,O,w,2445,1,2448.9000000953674,593520.0,7777,WL,B,9.0
4,33.48900008201599,learn,26510.99991798401,Tue Mar 24 2026 10:54:09 GMT-0500 (Central Daylight Time),596302.2000000477,A,wi,O,i,315,1,2782.2000000476837,593520.0,7777,WL,B,9.0
4,33.706000089645386,learn,26293.999910354614,Tue Mar 24 2026 10:54:09 GMT-0500 (Central Daylight Time),596518.8000001907,A,win,O,n,206,1,2998.800000190735,593520.0,7777,WL,B,9.0
4,34.25500011444092,learn,25744.999885559082,Tue Mar 24 2026 10:54:09 GMT-0500 (Central Daylight Time),597068.4000000954,A,wind,O,d,544,1,3548.4000000953674,593520.0,7777,WL,B,9.0
4,34.48900008201599,learn,25510.99991798401,Tue Mar 24 2026 10:54:09 GMT-0500 (Central Daylight Time),597301.9000000954,A,windo,O,o,216,1,3781.9000000953674,593520.0,7777,WL,B,9.0
4,34.67199993133545,learn,25328.00006866455,Tue Mar 24 2026 10:54:09 GMT-0500 (Central Daylight Time),597485.0,A,window,O,w,167,1,3965.0,593520.0,7777,WL,B,9.0
4,34.98800015449524,learn,25011.99984550476,Tue Mar 24 2026 10:54:09 GMT-0500 (Central Daylight Time),597801.600000143,A,windowenter,O,enter,312,1,4281.600000143051,593520.0,7777,WL,B,9.0
4,39.72000002861023,learn,20279.99997138977,Tue Mar 24 2026 10:54:09 GMT-0500 (Central Daylight Time),602533.4000000954,A,c,O,c,4715,1,4731.599999904633,597801.8000001907,7777,WL,B,10.0
4,39.9539999961853,learn,20046.000003814697,Tue Mar 24 2026 10:54:09 GMT-0500 (Central Daylight Time),602766.9000000954,A,ci,O,i,215,1,4965.099999904633,597801.8000001907,7777,WL,B,10.0
4,40.28699994087219,learn,19713.000059127808,Tue Mar 24 2026 10:54:09 GMT-0500 (Central Daylight Time),603100.100000143,A,cit,O,t,326,1,5298.299999952316,597801.8000001907,7777,WL,B,10.0
4,40.45300006866455,learn,19546.99993133545,Tue Mar 24 2026 10:54:09 GMT-0500 (Central Daylight Time),603266.4000000954,A,city,O,y,160,1,5464.599999904633,597801.8000001907,7777,WL,B,10.0
4,40.769999980926514,learn,19230.000019073486,Tue Mar 24 2026 10:54:09 GMT-0500 (Central Daylight Time),603583.100000143,A,cityenter,O,enter,306,1,5781.299999952316,597801.8000001907,7777,WL,B,10.0
4,41.23699998855591,learn,18763.00001144409,Tue Mar 24 2026 10:54:09 GMT-0500 (Central Daylight Time),604049.8000001907,A,p,O,p,447,1,466.40000009536743,603583.4000000954,7777,WL,B,11.0
4,41.687000036239624,learn,18312.999963760376,Tue Mar 24 2026 10:54:09 GMT-0500 (Central Daylight Time),604500.2000000477,A,pu,O,u,434,1,916.7999999523163,603583.4000000954,7777,WL,B,11.0
4,42.13600015640259,learn,17863.999843597412,Tue Mar 24 2026 10:54:09 GMT-0500 (Central Daylight Time),604949.3000001907,A,pup,O,p,432,1,1365.9000000953674,603583.4000000954,7777,WL,B,11.0
4,42.40300011634827,learn,17596.999883651733,Tue Mar 24 2026 10:54:09 GMT-0500 (Central Daylight Time),605216.2000000477,A,pupi,O,i,247,1,1632.7999999523163,603583.4000000954,7777,WL,B,11.0
4,42.68600010871887,learn,17313.999891281128,Tue Mar 24 2026 10:54:09 GMT-0500 (Central Daylight Time),605499.5,A,pupienter,O,enter,276,1,1916.0999999046326,603583.4000000954,7777,WL,B,11.0
4,44.41900014877319,learn,15580.999851226807,Tue Mar 24 2026 10:54:09 GMT-0500 (Central Daylight Time),607232.2000000477,A,p,O,p,1721,1,1732.3999998569489,605499.8000001907,7777,WL,B,12.0
4,44.9520001411438,learn,15047.999858856201,Tue Mar 24 2026 10:54:09 GMT-0500 (Central Daylight Time),607765.4000000954,A,pu,O,u,516,1,2265.5999999046326,605499.8000001907,7777,WL,B,12.0
4,45.735000133514404,learn,14264.999866485596,Tue Mar 24 2026 10:54:09 GMT-0500 (Central Daylight Time),608548.3000001907,A,pup,O,p,775,1,3048.5,605499.8000001907,7777,WL,B,12.0
4,46.11899995803833,learn,13881.00004196167,Tue Mar 24 2026 10:54:09 GMT-0500 (Central Daylight Time),608932.0,A,pupi,O,i,376,1,3432.199999809265,605499.8000001907,7777,WL,B,12.0
4,46.61899995803833,learn,13381.00004196167,Tue Mar 24 2026 10:54:09 GMT-0500 (Central Daylight Time),609431.9000000954,A,pupil,O,l,481,1,3932.0999999046326,605499.8000001907,7777,WL,B,12.0
4,47.568000078201294,learn,12431.999921798706,Tue Mar 24 2026 10:54:09 GMT-0500 (Central Daylight Time),610381.0,A,pupilenter,O,enter,933,1,4881.199999809265,605499.8000001907,7777,WL,B,12.0
4,59.19799995422363,learn,802.0000457763672,Tue Mar 24 2026 10:54:09 GMT-0500 (Central Daylight Time),622010.9000000954,A,c,O,c,11616,1,11629.700000047684,610381.2000000477,7777,WL,B,13.0
4,59.38100004196167,learn,618.9999580383301,Tue Mar 24 2026 10:54:09 GMT-0500 (Central Daylight Time),622193.8000001907,A,ci,O,i,177,1,11812.600000143051,610381.2000000477,7777,WL,B,13.0
4,59.7810001373291,learn,218.99986267089844,Tue Mar 24 2026 10:54:09 GMT-0500 (Central Daylight Time),622594.0,A,cit,O,t,380,1,12212.799999952316,610381.2000000477,7777,WL,B,13.0
4,59.914000034332275,learn,85.99996566772461,Tue Mar 24 2026 10:54:09 GMT-0500 (Central Daylight Time),622727.4000000954,A,city,O,y,115,1,12346.200000047684,610381.2000000477,7777,WL,B,13.0
4,60.013999938964844,learn,-13.99993896484375,Tue Mar 24 2026 10:54:09 GMT-0500 (Central Daylight Time),622827.4000000954,A,cityNone,O,None,95,1,12446.200000047684,610381.2000000477,7777,WL,B,13.0
5,1.6989998817443848,learn,60000.0,Tue Mar 24 2026 10:54:09 GMT-0500 (Central Daylight Time),693488.9000000954,A,p,O,p,1680,1,1699.7000000476837,691789.2000000477,7777,WL,B,1.0
5,2.0490000247955322,learn,60000.0,Tue Mar 24 2026 10:54:09 GMT-0500 (Central Daylight Time),693838.3000001907,A,pi,O,i,339,1,2049.100000143051,691789.2000000477,7777,WL,B,1.0
5,2.3989999294281006,learn,60000.0,Tue Mar 24 2026 10:54:09 GMT-0500 (Central Daylight Time),694188.3000001907,A,pip,O,p,335,1,2399.100000143051,691789.2000000477,7777,WL,B,1.0
5,2.7319998741149902,learn,60000.0,Tue Mar 24 2026 10:54:09 GMT-0500 (Central Daylight Time),694521.2000000477,A,pipe,O,e,320,1,2732.0,691789.2000000477,7777,WL,B,1.0
5,3.4819998741149902,learn,60000.0,Tue Mar 24 2026 10:54:09 GMT-0500 (Central Daylight Time),695271.5,A,pipes,O,s,739,1,3482.2999999523163,691789.2000000477,7777,WL,B,1.0
5,3.747999906539917,learn,60000.0,Tue Mar 24 2026 10:54:09 GMT-0500 (Central Daylight Time),695537.600000143,A,pipesk,O,k,260,1,3748.4000000953674,691789.2000000477,7777,WL,B,1.0
5,4.065000057220459,learn,60000.0,Tue Mar 24 2026 10:54:09 GMT-0500 (Central Daylight Time),695854.4000000954,A,pipeski,O,i,299,1,4065.2000000476837,691789.2000000477,7777,WL,B,1.0
5,4.381999969482422,learn,60000.0,Tue Mar 24 2026 10:54:09 GMT-0500 (Central Daylight Time),696170.9000000954,A,pipeskin,O,n,310,1,4381.700000047684,691789.2000000477,7777,WL,B,1.0
5,5.065000057220459,learn,60000.0,Tue Mar 24 2026 10:54:09 GMT-0500 (Central Daylight Time),696854.2000000477,A,pipeskinc,O,c,675,1,5065.0,691789.2000000477,7777,WL,B,1.0
5,5.315000057220459,learn,60000.0,Tue Mar 24 2026 10:54:09 GMT-0500 (Central Daylight Time),697104.0,A,pipeskinci,O,i,238,1,5314.799999952316,691789.2000000477,7777,WL,B,1.0
5,5.580999851226807,learn,60000.0,Tue Mar 24 2026 10:54:09 GMT-0500 (Central Daylight Time),697370.7000000477,A,pipeskincit,O,t,254,1,5581.5,691789.2000000477,7777,WL,B,1.0
5,5.882999897003174,learn,60000.0,Tue Mar 24 2026 10:54:09 GMT-0500 (Central Daylight Time),697671.8000001907,A,pipeskincity,O,y,281,1,5882.600000143051,691789.2000000477,7777,WL,B,1.0
5,6.480999946594238,learn,60000.0,Tue Mar 24 2026 10:54:09 GMT-0500 (Central Daylight Time),698270.3000001907,A,pipeskincityf,O,f,588,1,6481.100000143051,691789.2000000477,7777,WL,B,1.0
5,6.763999938964844,learn,60000.0,Tue Mar 24 2026 10:54:09 GMT-0500 (Central Daylight Time),698553.5,A,pipeskincityfi,O,i,262,1,6764.299999952316,691789.2000000477,7777,WL,B,1.0
5,7.046999931335449,learn,60000.0,Tue Mar 24 2026 10:54:09 GMT-0500 (Central Daylight Time),698836.600000143,A,pipeskincityfir,O,r,267,1,7047.400000095367,691789.2000000477,7777,WL,B,1.0
5,7.330999851226807,learn,60000.0,Tue Mar 24 2026 10:54:09 GMT-0500 (Central Daylight Time),699120.2000000477,A,pipeskincityfire,O,e,272,1,7331.0,691789.2000000477,7777,WL,B,1.0
5,8.52999997138977,learn,60000.0,Tue Mar 24 2026 10:54:09 GMT-0500 (Central Daylight Time),700319.7000000477,A,pipeskincityfir,O,backspace,1180,1,8530.5,691789.2000000477,7777,WL,B,1.0
5,8.746999979019165,learn,60000.0,Tue Mar 24 2026 10:54:09 GMT-0500 (Central Daylight Time),700536.3000001907,A,pipeskincityfi,O,backspace,197,1,8747.100000143051,691789.2000000477,7777,WL,B,1.0
5,8.914999961853027,learn,60000.0,Tue Mar 24 2026 10:54:09 GMT-0500 (Central Daylight Time),700703.9000000954,A,pipeskincityf,O,backspace,148,1,8914.700000047684,691789.2000000477,7777,WL,B,1.0
5,9.062999963760376,learn,60000.0,Tue Mar 24 2026 10:54:09 GMT-0500 (Central Daylight Time),700852.8000001907,A,pipeskincity,O,backspace,133,1,9063.600000143051,691789.2000000477,7777,WL,B,1.0
5,9.19700002670288,learn,60000.0,Tue Mar 24 2026 10:54:09 GMT-0500 (Central Daylight Time),700986.100000143,A,pipeskincit,O,backspace,128,1,9196.900000095367,691789.2000000477,7777,WL,B,1.0
5,9.346999883651733,learn,60000.0,Tue Mar 24 2026 10:54:09 GMT-0500 (Central Daylight Time),701135.9000000954,A,pipeskinci,O,backspace,138,1,9346.700000047684,691789.2000000477,7777,WL,B,1.0
5,9.496999979019165,learn,60000.0,Tue Mar 24 2026 10:54:09 GMT-0500 (Central Daylight Time),701285.9000000954,A,pipeskinc,O,backspace,141,1,9496.700000047684,691789.2000000477,7777,WL,B,1.0
5,9.680000066757202,learn,60000.0,Tue Mar 24 2026 10:54:09 GMT-0500 (Central Daylight Time),701469.5,A,pipeskin,O,backspace,166,1,9680.299999952316,691789.2000000477,7777,WL,B,1.0
5,9.879999876022339,learn,60000.0,Tue Mar 24 2026 10:54:09 GMT-0500 (Central Daylight Time),701668.9000000954,A,pipeski,O,backspace,182,1,9879.700000047684,691789.2000000477,7777,WL,B,1.0
5,10.079999923706055,learn,60000.0,Tue Mar 24 2026 10:54:09 GMT-0500 (Central Daylight Time),701869.2000000477,A,pipesk,O,backspace,183,1,10080.0,691789.2000000477,7777,WL,B,1.0
5,10.246999979019165,learn,60000.0,Tue Mar 24 2026 10:54:09 GMT-0500 (Central Daylight Time),702035.9000000954,A,pipes,O,backspace,159,1,10246.700000047684,691789.2000000477,7777,WL,B,1.0
5,10.895999908447266,learn,60000.0,Tue Mar 24 2026 10:54:09 GMT-0500 (Central Daylight Time),702685.7000000477,A,pipe,O,backspace,633,1,10896.5,691789.2000000477,7777,WL,B,1.0
5,11.796000003814697,learn,60000.0,Tue Mar 24 2026 10:54:09 GMT-0500 (Central Daylight Time),703585.5,A,pipeenter,O,enter,878,1,11796.299999952316,691789.2000000477,7777,WL,B,1.0
5,12.61299991607666,learn,60000.0,Tue Mar 24 2026 10:54:09 GMT-0500 (Central Daylight Time),704402.0,A,s,O,s,803,1,816.2999999523163,703585.7000000477,7777,WL,B,2.0
5,12.828999996185303,learn,60000.0,Tue Mar 24 2026 10:54:09 GMT-0500 (Central Daylight Time),704618.2000000477,A,sk,O,k,202,1,1032.5,703585.7000000477,7777,WL,B,2.0
5,13.095999956130981,learn,60000.0,Tue Mar 24 2026 10:54:09 GMT-0500 (Central Daylight Time),704884.9000000954,A,ski,O,i,250,1,1299.2000000476837,703585.7000000477,7777,WL,B,2.0
5,13.378999948501587,learn,60000.0,Tue Mar 24 2026 10:54:09 GMT-0500 (Central Daylight Time),705168.100000143,A,skin,O,n,264,1,1582.4000000953674,703585.7000000477,7777,WL,B,2.0
5,13.828999996185303,learn,60000.0,Tue Mar 24 2026 10:54:09 GMT-0500 (Central Daylight Time),705618.100000143,A,skinenter,O,enter,436,1,2032.4000000953674,703585.7000000477,7777,WL,B,2.0
5,14.578999996185303,learn,60000.0,Tue Mar 24 2026 10:54:09 GMT-0500 (Central Daylight Time),706367.9000000954,A,c,O,c,731,1,749.5,705618.4000000954,7777,WL,B,3.0
5,14.812000036239624,learn,60000.0,Tue Mar 24 2026 10:54:09 GMT-0500 (Central Daylight Time),706601.100000143,A,ci,O,i,221,1,982.7000000476837,705618.4000000954,7777,WL,B,3.0
5,15.060999870300293,learn,60000.0,Tue Mar 24 2026 10:54:09 GMT-0500 (Central Daylight Time),706850.5,A,cit,O,t,242,1,1232.0999999046326,705618.4000000954,7777,WL,B,3.0
5,15.378000020980835,learn,60000.0,Tue Mar 24 2026 10:54:09 GMT-0500 (Central Daylight Time),707167.2000000477,A,city,O,y,297,1,1548.7999999523163,705618.4000000954,7777,WL,B,3.0
5,15.944999933242798,learn,60000.0,Tue Mar 24 2026 10:54:09 GMT-0500 (Central Daylight Time),707734.0,A,cityenter,O,enter,557,1,2115.5999999046326,705618.4000000954,7777,WL,B,3.0
5,16.378000020980835,learn,60000.0,Tue Mar 24 2026 10:54:09 GMT-0500 (Central Daylight Time),708167.3000001907,A,f,O,f,415,1,432.90000009536743,707734.4000000954,7777,WL,B,4.0
5,16.710999965667725,learn,60000.0,Tue Mar 24 2026 10:54:09 GMT-0500 (Central Daylight Time),708500.4000000954,A,fi,O,i,317,1,766.0,707734.4000000954,7777,WL,B,4.0
5,16.944000005722046,learn,60000.0,Tue Mar 24 2026 10:54:09 GMT-0500 (Central Daylight Time),708733.5,A,fir,O,r,225,1,999.0999999046326,707734.4000000954,7777,WL,B,4.0
5,17.111999988555908,learn,60000.0,Tue Mar 24 2026 10:54:09 GMT-0500 (Central Daylight Time),708901.5,A,fire,O,e,151,1,1167.0999999046326,707734.4000000954,7777,WL,B,4.0
5,17.99399995803833,learn,60000.0,Tue Mar 24 2026 10:54:09 GMT-0500 (Central Daylight Time),709783.5,A,fireenter,O,enter,872,1,2049.0999999046326,707734.4000000954,7777,WL,B,4.0
5,18.5939998626709,learn,60000.0,Tue Mar 24 2026 10:54:09 GMT-0500 (Central Daylight Time),710383.3000001907,A,c,O,c,581,1,599.5,709783.8000001907,7777,WL,B,5.0
5,18.82699990272522,learn,60000.0,Tue Mar 24 2026 10:54:09 GMT-0500 (Central Daylight Time),710616.600000143,A,cl,O,l,214,1,832.7999999523163,709783.8000001907,7777,WL,B,5.0
5,19.05999994277954,learn,60000.0,Tue Mar 24 2026 10:54:09 GMT-0500 (Central Daylight Time),710849.7000000477,A,clo,O,o,220,1,1065.8999998569489,709783.8000001907,7777,WL,B,5.0
5,19.444000005722046,learn,60000.0,Tue Mar 24 2026 10:54:09 GMT-0500 (Central Daylight Time),711232.9000000954,A,cloc,O,c,379,1,1449.0999999046326,709783.8000001907,7777,WL,B,5.0
5,19.743000030517578,learn,60000.0,Tue Mar 24 2026 10:54:09 GMT-0500 (Central Daylight Time),711532.9000000954,A,clock,O,k,292,1,1749.0999999046326,709783.8000001907,7777,WL,B,5.0
5,20.455999851226807,learn,60000.0,Tue Mar 24 2026 10:54:09 GMT-0500 (Central Daylight Time),712245.7000000477,A,clockenter,O,enter,560,1,2461.899999856949,709783.8000001907,7777,WL,B,5.0
5,28.539999961853027,learn,60000.0,Tue Mar 24 2026 10:54:09 GMT-0500 (Central Daylight Time),720330.100000143,A,g,O,g,8071,1,8084.100000143051,712246.0,7777,WL,B,6.0
5,28.85699987411499,learn,60000.0,Tue Mar 24 2026 10:54:09 GMT-0500 (Central Daylight Time),720646.600000143,A,gr,O,r,298,1,8400.600000143051,712246.0,7777,WL,B,6.0
5,29.122999906539917,learn,60000.0,Tue Mar 24 2026 10:54:09 GMT-0500 (Central Daylight Time),720913.2000000477,A,gra,O,a,262,1,8667.200000047684,712246.0,7777,WL,B,6.0
5,29.44000005722046,learn,60000.0,Tue Mar 24 2026 10:54:09 GMT-0500 (Central Daylight Time),721229.9000000954,A,gras,O,s,299,1,8983.900000095367,712246.0,7777,WL,B,6.0
5,29.6729998588562,learn,60000.0,Tue Mar 24 2026 10:54:09 GMT-0500 (Central Daylight Time),721462.7000000477,A,grass,O,s,214,1,9216.700000047684,712246.0,7777,WL,B,6.0
5,30.155999898910522,learn,60000.0,Tue Mar 24 2026 10:54:09 GMT-0500 (Central Daylight Time),721945.9000000954,A,grassenter,O,enter,469,1,9699.900000095367,712246.0,7777,WL,B,6.0
5,32.18899989128113,learn,60000.0,Tue Mar 24 2026 10:54:09 GMT-0500 (Central Daylight Time),723978.8000001907,A,s,O,s,2027,1,2032.6000001430511,721946.2000000477,7777,WL,B,7.0
5,32.45700001716614,learn,60000.0,Tue Mar 24 2026 10:54:09 GMT-0500 (Central Daylight Time),724246.600000143,A,st,O,t,258,1,2300.4000000953674,721946.2000000477,7777,WL,B,7.0
5,32.75499987602234,learn,60000.0,Tue Mar 24 2026 10:54:09 GMT-0500 (Central Daylight Time),724545.5,A,str,O,r,278,1,2599.2999999523163,721946.2000000477,7777,WL,B,7.0
5,33.02300000190735,learn,60000.0,Tue Mar 24 2026 10:54:09 GMT-0500 (Central Daylight Time),724813.100000143,A,stre,O,e,259,1,2866.9000000953674,721946.2000000477,7777,WL,B,7.0
5,33.22199988365173,learn,60000.0,Tue Mar 24 2026 10:54:09 GMT-0500 (Central Daylight Time),725011.9000000954,A,stree,O,e,183,1,3065.7000000476837,721946.2000000477,7777,WL,B,7.0
5,33.355000019073486,learn,60000.0,Tue Mar 24 2026 10:54:09 GMT-0500 (Central Daylight Time),725145.2000000477,A,street,O,t,120,1,3199.0,721946.2000000477,7777,WL,B,7.0
5,33.72199988365173,learn,60000.0,Tue Mar 24 2026 10:54:09 GMT-0500 (Central Daylight Time),725511.600000143,A,streetenter,O,enter,355,1,3565.4000000953674,721946.2000000477,7777,WL,B,7.0
5,36.037999868392944,learn,60000.0,Tue Mar 24 2026 10:54:09 GMT-0500 (Central Daylight Time),727827.8000001907,A,c,O,c,2310,1,2315.800000190735,725512.0,7777,WL,B,8.0
5,36.287999868392944,learn,60000.0,Tue Mar 24 2026 10:54:09 GMT-0500 (Central Daylight Time),728077.600000143,A,ci,O,i,241,1,2565.600000143051,725512.0,7777,WL,B,8.0
5,36.57099986076355,learn,60000.0,Tue Mar 24 2026 10:54:09 GMT-0500 (Central Daylight Time),728361.4000000954,A,cit,O,t,271,1,2849.4000000953674,725512.0,7777,WL,B,8.0
5,36.770999908447266,learn,60000.0,Tue Mar 24 2026 10:54:09 GMT-0500 (Central Daylight Time),728560.9000000954,A,city,O,y,187,1,3048.9000000953674,725512.0,7777,WL,B,8.0
5,37.187000036239624,learn,60000.0,Tue Mar 24 2026 10:54:09 GMT-0500 (Central Daylight Time),728977.4000000954,A,cityenter,O,enter,396,1,3465.4000000953674,725512.0,7777,WL,B,8.0
5,40.22000002861023,learn,60000.0,Tue Mar 24 2026 10:54:09 GMT-0500 (Central Daylight Time),732009.7000000477,A,d,O,d,3027,1,3032.0,728977.7000000477,7777,WL,B,9.0
5,40.58699989318848,learn,60000.0,Tue Mar 24 2026 10:54:09 GMT-0500 (Central Daylight Time),732376.5,A,do,O,o,355,1,3398.7999999523163,728977.7000000477,7777,WL,B,9.0
5,40.78600001335144,learn,60000.0,Tue Mar 24 2026 10:54:09 GMT-0500 (Central Daylight Time),732576.2000000477,A,doo,O,o,188,1,3598.5,728977.7000000477,7777,WL,B,9.0
5,41.003000020980835,learn,60000.0,Tue Mar 24 2026 10:54:09 GMT-0500 (Central Daylight Time),732792.8000001907,A,door,O,r,213,1,3815.100000143051,728977.7000000477,7777,WL,B,9.0
5,41.15299987792969,learn,60000.0,Tue Mar 24 2026 10:54:09 GMT-0500 (Central Daylight Time),732942.600000143,A,doorenter,O,enter,140,1,3964.9000000953674,728977.7000000477,7777,WL,B,9.0
5,42.68599987030029,learn,60000.0,Tue Mar 24 2026 10:54:09 GMT-0500 (Central Daylight Time),734475.7000000477,A,a,O,a,1518,1,1532.7999999523163,732942.9000000954,7777,WL,B,10.0
5,42.88499999046326,learn,60000.0,Tue Mar 24 2026 10:54:09 GMT-0500 (Central Daylight Time),734675.5,A,ar,O,r,185,1,1732.5999999046326,732942.9000000954,7777,WL,B,10.0
5,43.10199999809265,learn,60000.0,Tue Mar 24 2026 10:54:09 GMT-0500 (Central Daylight Time),734892.100000143,A,arm,O,m,201,1,1949.2000000476837,732942.9000000954,7777,WL,B,10.0
5,44.02900004386902,learn,60000.0,Tue Mar 24 2026 10:54:09 GMT-0500 (Central Daylight Time),735818.8000001907,A,armenter,O,enter,857,1,2875.9000000953674,732942.9000000954,7777,WL,B,10.0
5,48.68400001525879,learn,60000.0,Tue Mar 24 2026 10:54:09 GMT-0500 (Central Daylight Time),740473.7000000477,A,f,O,f,4641,1,4654.399999856949,735819.3000001907,7777,WL,B,11.0
5,48.86699986457825,learn,60000.0,Tue Mar 24 2026 10:54:09 GMT-0500 (Central Daylight Time),740657.100000143,A,fi,O,i,179,1,4837.799999952316,735819.3000001907,7777,WL,B,11.0
5,49.134000062942505,learn,60000.0,Tue Mar 24 2026 10:54:09 GMT-0500 (Central Daylight Time),740923.8000001907,A,fir,O,r,251,1,5104.5,735819.3000001907,7777,WL,B,11.0
5,49.31699991226196,learn,60000.0,Tue Mar 24 2026 10:54:09 GMT-0500 (Central Daylight Time),741106.9000000954,A,fire,O,e,177,1,5287.599999904633,735819.3000001907,7777,WL,B,11.0
5,49.61800003051758,learn,60000.0,Tue Mar 24 2026 10:54:09 GMT-0500 (Central Daylight Time),741407.7000000477,A,fireenter,O,enter,282,1,5588.399999856949,735819.3000001907,7777,WL,B,11.0
5,50.33299994468689,learn,60000.0,Tue Mar 24 2026 10:54:09 GMT-0500 (Central Daylight Time),742123.2000000477,A,w,O,w,701,1,715.2999999523163,741407.9000000954,7777,WL,B,12.0
5,50.532999992370605,learn,60000.0,Tue Mar 24 2026 10:54:09 GMT-0500 (Central Daylight Time),742323.2000000477,A,wi,O,i,193,1,915.2999999523163,741407.9000000954,7777,WL,B,12.0
5,50.799999952316284,learn,60000.0,Tue Mar 24 2026 10:54:09 GMT-0500 (Central Daylight Time),742589.9000000954,A,win,O,n,250,1,1182.0,741407.9000000954,7777,WL,B,12.0
5,51.049999952316284,learn,60000.0,Tue Mar 24 2026 10:54:09 GMT-0500 (Central Daylight Time),742840.0,A,wind,O,d,238,1,1432.0999999046326,741407.9000000954,7777,WL,B,12.0
5,51.21600008010864,learn,60000.0,Tue Mar 24 2026 10:54:09 GMT-0500 (Central Daylight Time),743006.3000001907,A,windo,O,o,158,1,1598.4000000953674,741407.9000000954,7777,WL,B,12.0
5,51.43300008773804,learn,60000.0,Tue Mar 24 2026 10:54:09 GMT-0500 (Central Daylight Time),743223.0,A,window,O,w,199,1,1815.0999999046326,741407.9000000954,7777,WL,B,12.0
5,51.66599988937378,learn,60000.0,Tue Mar 24 2026 10:54:09 GMT-0500 (Central Daylight Time),743455.8000001907,A,windowenter,O,enter,222,1,2047.9000000953674,741407.9000000954,7777,WL,B,12.0
5,52.049999952316284,learn,60000.0,Tue Mar 24 2026 10:54:09 GMT-0500 (Central Daylight Time),743839.5,A,c,O,c,373,1,383.39999985694885,743456.100000143,7777,WL,B,13.0
5,52.41599988937378,learn,60000.0,Tue Mar 24 2026 10:54:09 GMT-0500 (Central Daylight Time),744205.8000001907,A,ca,O,a,349,1,749.7000000476837,743456.100000143,7777,WL,B,13.0
5,52.91499996185303,learn,60000.0,Tue Mar 24 2026 10:54:09 GMT-0500 (Central Daylight Time),744705.4000000954,A,cab,O,b,495,1,1249.2999999523163,743456.100000143,7777,WL,B,13.0
5,53.16599988937378,learn,60000.0,Tue Mar 24 2026 10:54:09 GMT-0500 (Central Daylight Time),744955.600000143,A,cabi,O,i,235,1,1499.5,743456.100000143,7777,WL,B,13.0
5,53.36500000953674,learn,60000.0,Tue Mar 24 2026 10:54:09 GMT-0500 (Central Daylight Time),745155.4000000954,A,cabin,O,n,193,1,1699.2999999523163,743456.100000143,7777,WL,B,13.0
5,53.698999881744385,learn,60000.0,Tue Mar 24 2026 10:54:09 GMT-0500 (Central Daylight Time),745489.0,A,cabinenter,O,enter,313,1,2032.8999998569489,743456.100000143,7777,WL,B,13.0
5,54.282999992370605,learn,60000.0,Tue Mar 24 2026 10:54:09 GMT-0500 (Central Daylight Time),746073.2000000477,A,l,O,l,572,1,583.8999998569489,745489.3000001907,7777,WL,B,14.0
5,54.467000007629395,learn,60000.0,Tue Mar 24 2026 10:54:09 GMT-0500 (Central Daylight Time),746256.8000001907,A,la,O,a,171,1,767.5,745489.3000001907,7777,WL,B,14.0
5,54.615999937057495,learn,60000.0,Tue Mar 24 2026 10:54:09 GMT-0500 (Central Daylight Time),746405.8000001907,A,lak,O,k,132,1,916.5,745489.3000001907,7777,WL,B,14.0
5,54.83200001716614,learn,60000.0,Tue Mar 24 2026 10:54:09 GMT-0500 (Central Daylight Time),746621.9000000954,A,lake,O,e,199,1,1132.5999999046326,745489.3000001907,7777,WL,B,14.0
5,55.19799995422363,learn,60000.0,Tue Mar 24 2026 10:54:09 GMT-0500 (Central Daylight Time),746988.3000001907,A,lakeenter,O,enter,359,1,1499.0,745489.3000001907,7777,WL,B,14.0
5,59.36400008201599,learn,60000.0,Tue Mar 24 2026 10:54:09 GMT-0500 (Central Daylight Time),751153.600000143,A,p,O,p,4145,1,4164.900000095367,746988.7000000477,7777,WL,B,15.0
5,59.8970000743866,learn,60000.0,Tue Mar 24 2026 10:54:09 GMT-0500 (Central Daylight Time),751687.0,A,pu,O,u,524,1,4698.299999952316,746988.7000000477,7777,WL,B,15.0
5,60.412999868392944,learn,60000.0,Tue Mar 24 2026 10:54:09 GMT-0500 (Central Daylight Time),752203.5,A,pup,O,p,502,1,5214.799999952316,746988.7000000477,7777,WL,B,15.0
6,0.567000150680542,distr,59432.99984931946,Tue Mar 24 2026 10:54:09 GMT-0500 (Central Daylight Time),822198.100000143,B,b,O,b,558,1,566.2000000476837,821631.9000000954,7777,WL,B,1.0
6,0.9330000877380371,distr,59066.99991226196,Tue Mar 24 2026 10:54:09 GMT-0500 (Central Daylight Time),822564.7000000477,B,bu,O,u,350,1,932.7999999523163,821631.9000000954,7777,WL,B,1.0
6,1.2170000076293945,distr,58782.999992370605,Tue Mar 24 2026 10:54:09 GMT-0500 (Central Daylight Time),822847.9000000954,B,bui,O,i,272,1,1216.0,821631.9000000954,7777,WL,B,1.0
6,1.817000150680542,distr,58182.99984931946,Tue Mar 24 2026 10:54:09 GMT-0500 (Central Daylight Time),823447.8000001907,B,buil,O,l,581,1,1815.9000000953674,821631.9000000954,7777,WL,B,1.0
6,2.315999984741211,distr,57684.00001525879,Tue Mar 24 2026 10:54:09 GMT-0500 (Central Daylight Time),823947.3000001907,B,build,O,d,485,1,2315.4000000953674,821631.9000000954,7777,WL,B,1.0
6,2.700000047683716,distr,57299.999952316284,Tue Mar 24 2026 10:54:09 GMT-0500 (Central Daylight Time),824331.2000000477,B,buildi,O,i,369,1,2699.2999999523163,821631.9000000954,7777,WL,B,1.0
6,2.9830000400543213,distr,57016.99995994568,Tue Mar 24 2026 10:54:09 GMT-0500 (Central Daylight Time),824614.2000000477,B,buildin,O,n,266,1,2982.2999999523163,821631.9000000954,7777,WL,B,1.0
6,3.4660000801086426,distr,56533.99991989136,Tue Mar 24 2026 10:54:09 GMT-0500 (Central Daylight Time),825097.600000143,B,buildinf,O,f,470,1,3465.7000000476837,821631.9000000954,7777,WL,B,1.0
6,6.515000104904175,distr,53484.999895095825,Tue Mar 24 2026 10:54:09 GMT-0500 (Central Daylight Time),828146.7000000477,B,buildin,O,backspace,3035,1,6514.799999952316,821631.9000000954,7777,WL,B,1.0
6,6.865000009536743,distr,53134.99999046326,Tue Mar 24 2026 10:54:09 GMT-0500 (Central Daylight Time),828496.4000000954,B,building,O,g,330,1,6864.5,821631.9000000954,7777,WL,B,1.0
6,7.980999946594238,distr,52019.00005340576,Tue Mar 24 2026 10:54:09 GMT-0500 (Central Daylight Time),829612.600000143,B,buildingenter,O,enter,1109,1,7980.700000047684,821631.9000000954,7777,WL,B,1.0
6,8.898000001907349,distr,51101.99999809265,Tue Mar 24 2026 10:54:09 GMT-0500 (Central Daylight Time),830529.100000143,B,f,O,f,904,1,916.2000000476837,829612.9000000954,7777,WL,B,2.0
6,9.230999946594238,distr,50769.00005340576,Tue Mar 24 2026 10:54:09 GMT-0500 (Central Daylight Time),830862.2000000477,B,fr,O,r,315,1,1249.2999999523163,829612.9000000954,7777,WL,B,2.0
6,9.614000082015991,distr,50385.99991798401,Tue Mar 24 2026 10:54:09 GMT-0500 (Central Daylight Time),831245.4000000954,B,fri,O,i,375,1,1632.5,829612.9000000954,7777,WL,B,2.0
6,9.96399998664856,distr,50036.00001335144,Tue Mar 24 2026 10:54:09 GMT-0500 (Central Daylight Time),831595.4000000954,B,frie,O,e,335,1,1982.5,829612.9000000954,7777,WL,B,2.0
6,10.164000034332275,distr,49835.999965667725,Tue Mar 24 2026 10:54:09 GMT-0500 (Central Daylight Time),831795.100000143,B,frien,O,n,185,1,2182.2000000476837,829612.9000000954,7777,WL,B,2.0
6,10.38100004196167,distr,49618.99995803833,Tue Mar 24 2026 10:54:09 GMT-0500 (Central Daylight Time),832012.0,B,friend,O,d,210,1,2399.0999999046326,829612.9000000954,7777,WL,B,2.0
6,10.864000082015991,distr,49135.99991798401,Tue Mar 24 2026 10:54:09 GMT-0500 (Central Daylight Time),832495.0,B,friendenter,O,enter,472,1,2882.0999999046326,829612.9000000954,7777,WL,B,2.0
6,11.830000162124634,distr,48169.999837875366,Tue Mar 24 2026 10:54:09 GMT-0500 (Central Daylight Time),833461.4000000954,B,c,O,c,958,1,966.0999999046326,832495.3000001907,7777,WL,B,3.0
6,12.19700002670288,distr,47802.99997329712,Tue Mar 24 2026 10:54:09 GMT-0500 (Central Daylight Time),833828.2000000477,B,ce,O,e,351,1,1332.8999998569489,832495.3000001907,7777,WL,B,3.0
6,12.398000001907349,distr,47601.99999809265,Tue Mar 24 2026 10:54:09 GMT-0500 (Central Daylight Time),834029.100000143,B,cel,O,l,192,1,1533.7999999523163,832495.3000001907,7777,WL,B,3.0
6,12.562999963760376,distr,47437.000036239624,Tue Mar 24 2026 10:54:09 GMT-0500 (Central Daylight Time),834194.4000000954,B,cell,O,l,161,1,1699.0999999046326,832495.3000001907,7777,WL,B,3.0
6,12.86300015449524,distr,47136.99984550476,Tue Mar 24 2026 10:54:09 GMT-0500 (Central Daylight Time),834494.4000000954,B,cellenter,O,enter,284,1,1999.0999999046326,832495.3000001907,7777,WL,B,3.0
6,14.546000003814697,distr,45453.9999961853,Tue Mar 24 2026 10:54:09 GMT-0500 (Central Daylight Time),836177.4000000954,B,s,O,s,1662,1,1682.5999999046326,834494.8000001907,7777,WL,B,4.0
6,14.812999963760376,distr,45187.000036239624,Tue Mar 24 2026 10:54:09 GMT-0500 (Central Daylight Time),836444.0,B,st,O,t,251,1,1949.1999998092651,834494.8000001907,7777,WL,B,4.0
6,14.996000051498413,distr,45003.99994850159,Tue Mar 24 2026 10:54:09 GMT-0500 (Central Daylight Time),836626.9000000954,B,sto,O,o,169,1,2132.0999999046326,834494.8000001907,7777,WL,B,4.0
6,15.196000099182129,distr,44803.99990081787,Tue Mar 24 2026 10:54:09 GMT-0500 (Central Daylight Time),836827.100000143,B,stor,O,r,194,1,2332.2999999523163,834494.8000001907,7777,WL,B,4.0
6,15.496000051498413,distr,44503.99994850159,Tue Mar 24 2026 10:54:09 GMT-0500 (Central Daylight Time),837126.9000000954,B,storm,O,m,282,1,2632.0999999046326,834494.8000001907,7777,WL,B,4.0
6,15.861000061035156,distr,44138.999938964844,Tue Mar 24 2026 10:54:09 GMT-0500 (Central Daylight Time),837493.4000000954,B,stormenter,O,enter,358,1,2998.5999999046326,834494.8000001907,7777,WL,B,4.0
6,23.075000047683716,distr,36924.999952316284,Tue Mar 24 2026 10:54:09 GMT-0500 (Central Daylight Time),844707.8000001907,B,o,O,o,7200,1,7214.0,837493.8000001907,7777,WL,B,5.0
6,23.45900011062622,distr,36540.99988937378,Tue Mar 24 2026 10:54:09 GMT-0500 (Central Daylight Time),845091.100000143,B,oc,O,c,368,1,7597.299999952316,837493.8000001907,7777,WL,B,5.0
6,23.95799994468689,distr,36042.00005531311,Tue Mar 24 2026 10:54:09 GMT-0500 (Central Daylight Time),845590.8000001907,B,oce,O,e,482,1,8097.0,837493.8000001907,7777,WL,B,5.0
6,24.242000102996826,distr,35757.999897003174,Tue Mar 24 2026 10:54:09 GMT-0500 (Central Daylight Time),845874.2000000477,B,ocea,O,a,270,1,8380.399999856949,837493.8000001907,7777,WL,B,5.0
6,24.442000150680542,distr,35557.99984931946,Tue Mar 24 2026 10:54:09 GMT-0500 (Central Daylight Time),846074.100000143,B,ocean,O,n,195,1,8580.299999952316,837493.8000001907,7777,WL,B,5.0
6,25.141000032424927,distr,34858.99996757507,Tue Mar 24 2026 10:54:09 GMT-0500 (Central Daylight Time),846774.0,B,oceanenter,O,enter,691,1,9280.199999809265,837493.8000001907,7777,WL,B,5.0
6,26.075000047683716,distr,33924.999952316284,Tue Mar 24 2026 10:54:09 GMT-0500 (Central Daylight Time),847707.2000000477,B,b,O,b,927,1,932.8999998569489,846774.3000001907,7777,WL,B,6.0
6,26.325000047683716,distr,33674.999952316284,Tue Mar 24 2026 10:54:09 GMT-0500 (Central Daylight Time),847957.9000000954,B,ba,O,a,233,1,1183.5999999046326,846774.3000001907,7777,WL,B,6.0
6,26.824000120162964,distr,33175.999879837036,Tue Mar 24 2026 10:54:09 GMT-0500 (Central Daylight Time),848456.600000143,B,bab,O,b,487,1,1682.2999999523163,846774.3000001907,7777,WL,B,6.0
6,27.058000087738037,distr,32941.99991226196,Tue Mar 24 2026 10:54:09 GMT-0500 (Central Daylight Time),848690.7000000477,B,baby,O,y,228,1,1916.3999998569489,846774.3000001907,7777,WL,B,6.0
6,28.557000160217285,distr,31442.999839782715,Tue Mar 24 2026 10:54:09 GMT-0500 (Central Daylight Time),850189.600000143,B,babyenter,O,enter,1491,1,3415.2999999523163,846774.3000001907,7777,WL,B,6.0
6,47.00100016593933,distr,12998.999834060669,Tue Mar 24 2026 10:54:09 GMT-0500 (Central Daylight Time),868633.600000143,B,enter,O,enter,18424,1,18443.700000047684,850189.9000000954,7777,WL,B,7.0
6,47.901999950408936,distr,12098.000049591064,Tue Mar 24 2026 10:54:09 GMT-0500 (Central Daylight Time),869534.4000000954,B,enter,O,enter,883,1,900.5,868633.9000000954,7777,WL,B,8.0
6,48.43400001525879,distr,11565.999984741211,Tue Mar 24 2026 10:54:09 GMT-0500 (Central Daylight Time),870066.8000001907,B,enter,O,enter,519,1,532.0,869534.8000001907,7777,WL,B,9.0
6,48.78400015830994,distr,11215.999841690063,Tue Mar 24 2026 10:54:09 GMT-0500 (Central Daylight Time),870416.600000143,B,enter,O,enter,330,1,349.40000009536743,870067.2000000477,7777,WL,B,10.0
6,48.98399996757507,distr,11016.000032424927,Tue Mar 24 2026 10:54:09 GMT-0500 (Central Daylight Time),870616.4000000954,B,enter,O,enter,180,1,199.40000009536743,870417.0,7777,WL,B,11.0
6,49.151000022888184,distr,10848.999977111816,Tue Mar 24 2026 10:54:09 GMT-0500 (Central Daylight Time),870783.2000000477,B,enter,O,enter,149,1,166.39999985694885,870616.8000001907,7777,WL,B,12.0
6,49.26699995994568,distr,10733.000040054321,Tue Mar 24 2026 10:54:09 GMT-0500 (Central Daylight Time),870899.600000143,B,enter,O,enter,109,1,116.0,870783.600000143,7777,WL,B,13.0
6,49.66700005531311,distr,10332.99994468689,Tue Mar 24 2026 10:54:09 GMT-0500 (Central Daylight Time),871299.600000143,B,enter,O,enter,386,1,399.7000000476837,870899.9000000954,7777,WL,B,14.0
6,50.0,distr,10000.0,Tue Mar 24 2026 10:54:09 GMT-0500 (Central Daylight Time),871632.8000001907,B,enter,O,enter,313,1,332.80000019073486,871300.0,7777,WL,B,15.0
7,0.7669999599456787,immed,59233.00004005432,Tue Mar 24 2026 10:54:09 GMT-0500 (Central Daylight Time),883912.100000143,A,s,O,s,756,1,766.1000001430511,883146.0,7777,WL,B,1.0
7,1.0499999523162842,immed,58950.000047683716,Tue Mar 24 2026 10:54:09 GMT-0500 (Central Daylight Time),884195.5,A,st,O,t,269,1,1049.5,883146.0,7777,WL,B,1.0
7,1.383000135421753,immed,58616.99986457825,Tue Mar 24 2026 10:54:09 GMT-0500 (Central Daylight Time),884528.600000143,A,str,O,r,313,1,1382.6000001430511,883146.0,7777,WL,B,1.0
7,1.633000135421753,immed,58366.99986457825,Tue Mar 24 2026 10:54:09 GMT-0500 (Central Daylight Time),884778.8000001907,A,stre,O,e,244,1,1632.8000001907349,883146.0,7777,WL,B,1.0
7,1.8500001430511475,immed,58149.99985694885,Tue Mar 24 2026 10:54:09 GMT-0500 (Central Daylight Time),884995.3000001907,A,stree,O,e,211,1,1849.3000001907349,883146.0,7777,WL,B,1.0
7,2.5329999923706055,immed,57467.000007629395,Tue Mar 24 2026 10:54:09 GMT-0500 (Central Daylight Time),885678.5,A,street,O,t,665,1,2532.5,883146.0,7777,WL,B,1.0
7,2.933000087738037,immed,57066.99991226196,Tue Mar 24 2026 10:54:09 GMT-0500 (Central Daylight Time),886078.3000001907,A,streetenter,O,enter,382,1,2932.300000190735,883146.0,7777,WL,B,1.0
7,3.365999937057495,immed,56634.000062942505,Tue Mar 24 2026 10:54:09 GMT-0500 (Central Daylight Time),886511.600000143,A,g,O,g,423,1,433.0,886078.600000143,7777,WL,B,2.0
7,3.683000087738037,immed,56316.99991226196,Tue Mar 24 2026 10:54:09 GMT-0500 (Central Daylight Time),886828.3000001907,A,gr,O,r,301,1,749.7000000476837,886078.600000143,7777,WL,B,2.0
7,4.016000032424927,immed,55983.99996757507,Tue Mar 24 2026 10:54:09 GMT-0500 (Central Daylight Time),887161.2000000477,A,gra,O,a,321,1,1082.5999999046326,886078.600000143,7777,WL,B,2.0
7,4.348999977111816,immed,55651.00002288818,Tue Mar 24 2026 10:54:09 GMT-0500 (Central Daylight Time),887494.5,A,gras,O,s,324,1,1415.8999998569489,886078.600000143,7777,WL,B,2.0
7,4.615999937057495,immed,55384.000062942505,Tue Mar 24 2026 10:54:09 GMT-0500 (Central Daylight Time),887761.100000143,A,grass,O,s,255,1,1682.5,886078.600000143,7777,WL,B,2.0
7,4.965000152587891,immed,55034.99984741211,Tue Mar 24 2026 10:54:09 GMT-0500 (Central Daylight Time),888111.0,A,grassenter,O,enter,332,1,2032.3999998569489,886078.600000143,7777,WL,B,2.0
7,6.164999961853027,immed,53835.00003814697,Tue Mar 24 2026 10:54:09 GMT-0500 (Central Daylight Time),889310.7000000477,A,a,O,a,1191,1,1199.2999999523163,888111.4000000954,7777,WL,B,3.0
7,6.54800009727478,immed,53451.99990272522,Tue Mar 24 2026 10:54:09 GMT-0500 (Central Daylight Time),889693.8000001907,A,ar,O,r,366,1,1582.4000000953674,888111.4000000954,7777,WL,B,3.0
7,7.015000104904175,immed,52984.999895095825,Tue Mar 24 2026 10:54:09 GMT-0500 (Central Daylight Time),890160.4000000954,A,arn,O,n,455,1,2049.0,888111.4000000954,7777,WL,B,3.0
7,7.398000001907349,immed,52601.99999809265,Tue Mar 24 2026 10:54:09 GMT-0500 (Central Daylight Time),890543.600000143,A,arnenter,O,enter,365,1,2432.2000000476837,888111.4000000954,7777,WL,B,3.0
7,8.364000082015991,immed,51635.99991798401,Tue Mar 24 2026 10:54:09 GMT-0500 (Central Daylight Time),891510.0,A,c,O,c,957,1,966.0999999046326,890543.9000000954,7777,WL,B,4.0
7,8.63100004196167,immed,51368.99995803833,Tue Mar 24 2026 10:54:09 GMT-0500 (Central Daylight Time),891776.5,A,ci,O,i,255,1,1232.5999999046326,890543.9000000954,7777,WL,B,4.0
7,8.864000082015991,immed,51135.99991798401,Tue Mar 24 2026 10:54:09 GMT-0500 (Central Daylight Time),892009.7000000477,A,cit,O,t,212,1,1465.7999999523163,890543.9000000954,7777,WL,B,4.0
7,9.04699993133545,immed,50953.00006866455,Tue Mar 24 2026 10:54:09 GMT-0500 (Central Daylight Time),892193.0,A,city,O,y,172,1,1649.0999999046326,890543.9000000954,7777,WL,B,4.0
7,9.430999994277954,immed,50569.000005722046,Tue Mar 24 2026 10:54:09 GMT-0500 (Central Daylight Time),892576.4000000954,A,cityenter,O,enter,372,1,2032.5,890543.9000000954,7777,WL,B,4.0
7,10.647000074386597,immed,49352.9999256134,Tue Mar 24 2026 10:54:09 GMT-0500 (Central Daylight Time),893792.600000143,A,f,O,f,1196,1,1215.9000000953674,892576.7000000477,7777,WL,B,5.0
7,10.830000162124634,immed,49169.999837875366,Tue Mar 24 2026 10:54:09 GMT-0500 (Central Daylight Time),893975.9000000954,A,fi,O,i,172,1,1399.2000000476837,892576.7000000477,7777,WL,B,5.0
7,11.04699993133545,immed,48953.00006866455,Tue Mar 24 2026 10:54:09 GMT-0500 (Central Daylight Time),894192.4000000954,A,fir,O,r,197,1,1615.7000000476837,892576.7000000477,7777,WL,B,5.0
7,11.19700002670288,immed,48802.99997329712,Tue Mar 24 2026 10:54:09 GMT-0500 (Central Daylight Time),894342.3000001907,A,fire,O,e,140,1,1765.6000001430511,892576.7000000477,7777,WL,B,5.0
7,11.44700002670288,immed,48552.99997329712,Tue Mar 24 2026 10:54:09 GMT-0500 (Central Daylight Time),894592.3000001907,A,fireenter,O,enter,230,1,2015.6000001430511,892576.7000000477,7777,WL,B,5.0
7,11.996999979019165,immed,48003.000020980835,Tue Mar 24 2026 10:54:09 GMT-0500 (Central Daylight Time),895142.0,A,w,O,w,532,1,549.2999999523163,894592.7000000477,7777,WL,B,6.0
7,12.163000106811523,immed,47836.99989318848,Tue Mar 24 2026 10:54:09 GMT-0500 (Central Daylight Time),895308.7000000477,A,wi,O,i,151,1,716.0,894592.7000000477,7777,WL,B,6.0
7,12.430000066757202,immed,47569.9999332428,Tue Mar 24 2026 10:54:09 GMT-0500 (Central Daylight Time),895575.3000001907,A,win,O,n,248,1,982.6000001430511,894592.7000000477,7777,WL,B,6.0
7,12.763000011444092,immed,47236.99998855591,Tue Mar 24 2026 10:54:09 GMT-0500 (Central Daylight Time),895908.3000001907,A,wind,O,d,325,1,1315.6000001430511,894592.7000000477,7777,WL,B,6.0
7,12.946000099182129,immed,47053.99990081787,Tue Mar 24 2026 10:54:09 GMT-0500 (Central Daylight Time),896091.7000000477,A,windo,O,o,168,1,1499.0,894592.7000000477,7777,WL,B,6.0
7,13.11300015449524,immed,46886.99984550476,Tue Mar 24 2026 10:54:09 GMT-0500 (Central Daylight Time),896258.100000143,A,window,O,w,162,1,1665.4000000953674,894592.7000000477,7777,WL,B,6.0
7,13.430000066757202,immed,46569.9999332428,Tue Mar 24 2026 10:54:09 GMT-0500 (Central Daylight Time),896575.100000143,A,windowenter,O,enter,306,1,1982.4000000953674,894592.7000000477,7777,WL,B,6.0
7,13.828999996185303,immed,46171.0000038147,Tue Mar 24 2026 10:54:09 GMT-0500 (Central Daylight Time),896974.9000000954,A,w,O,w,381,1,399.5,896575.4000000954,7777,WL,B,7.0
7,14.01200008392334,immed,45987.99991607666,Tue Mar 24 2026 10:54:09 GMT-0500 (Central Daylight Time),897158.0,A,wi,O,i,174,1,582.5999999046326,896575.4000000954,7777,WL,B,7.0
7,14.295000076293945,immed,45704.999923706055,Tue Mar 24 2026 10:54:09 GMT-0500 (Central Daylight Time),897441.4000000954,A,wif,O,f,279,1,866.0,896575.4000000954,7777,WL,B,7.0
7,14.544000148773193,immed,45455.99985122681,Tue Mar 24 2026 10:54:09 GMT-0500 (Central Daylight Time),897691.3000001907,A,wife,O,e,243,1,1115.9000000953674,896575.4000000954,7777,WL,B,7.0
7,14.92799997329712,immed,45072.00002670288,Tue Mar 24 2026 10:54:09 GMT-0500 (Central Daylight Time),898074.4000000954,A,wifeenter,O,enter,369,1,1499.0,896575.4000000954,7777,WL,B,7.0
7,15.34500002861023,immed,44654.99997138977,Tue Mar 24 2026 10:54:09 GMT-0500 (Central Daylight Time),898492.3000001907,A,p,O,p,404,1,417.7000000476837,898074.600000143,7777,WL,B,8.0
7,15.594000101089478,immed,44405.99989891052,Tue Mar 24 2026 10:54:09 GMT-0500 (Central Daylight Time),898741.0,A,pu,O,u,233,1,666.3999998569489,898074.600000143,7777,WL,B,8.0
7,15.82800006866455,immed,44171.99993133545,Tue Mar 24 2026 10:54:09 GMT-0500 (Central Daylight Time),898974.4000000954,A,pup,O,p,224,1,899.7999999523163,898074.600000143,7777,WL,B,8.0
7,15.99399995803833,immed,44006.00004196167,Tue Mar 24 2026 10:54:09 GMT-0500 (Central Daylight Time),899140.9000000954,A,pupi,O,i,150,1,1066.2999999523163,898074.600000143,7777,WL,B,8.0
7,16.294000148773193,immed,43705.99985122681,Tue Mar 24 2026 10:54:09 GMT-0500 (Central Daylight Time),899440.9000000954,A,pupil,O,l,288,1,1366.2999999523163,898074.600000143,7777,WL,B,8.0
7,16.960999965667725,immed,43039.000034332275,Tue Mar 24 2026 10:54:09 GMT-0500 (Central Daylight Time),900107.4000000954,A,pupilenter,O,enter,652,1,2032.7999999523163,898074.600000143,7777,WL,B,8.0
7,18.55999994277954,immed,41440.00005722046,Tue Mar 24 2026 10:54:09 GMT-0500 (Central Daylight Time),901706.4000000954,A,l,O,l,1593,1,1598.5999999046326,900107.8000001907,7777,WL,B,9.0
7,18.7260000705719,immed,41273.9999294281,Tue Mar 24 2026 10:54:09 GMT-0500 (Central Daylight Time),901873.100000143,A,la,O,a,152,1,1765.2999999523163,900107.8000001907,7777,WL,B,9.0
7,18.875999927520752,immed,41124.00007247925,Tue Mar 24 2026 10:54:09 GMT-0500 (Central Daylight Time),902023.100000143,A,lak,O,k,131,1,1915.2999999523163,900107.8000001907,7777,WL,B,9.0
7,19.05999994277954,immed,40940.00005722046,Tue Mar 24 2026 10:54:09 GMT-0500 (Central Daylight Time),902206.8000001907,A,lake,O,e,166,1,2099.0,900107.8000001907,7777,WL,B,9.0
7,19.292999982833862,immed,40707.00001716614,Tue Mar 24 2026 10:54:09 GMT-0500 (Central Daylight Time),902440.2000000477,A,lakeenter,O,enter,214,1,2332.399999856949,900107.8000001907,7777,WL,B,9.0
7,19.677000045776367,immed,40322.99995422363,Tue Mar 24 2026 10:54:09 GMT-0500 (Central Daylight Time),902823.5,A,c,O,c,372,1,383.09999990463257,902440.4000000954,7777,WL,B,10.0
7,19.926000118255615,immed,40073.999881744385,Tue Mar 24 2026 10:54:09 GMT-0500 (Central Daylight Time),903072.8000001907,A,ca,O,a,238,1,632.4000000953674,902440.4000000954,7777,WL,B,10.0
7,20.292999982833862,immed,39707.00001716614,Tue Mar 24 2026 10:54:09 GMT-0500 (Central Daylight Time),903439.8000001907,A,cab,O,b,356,1,999.4000000953674,902440.4000000954,7777,WL,B,10.0
7,20.493000030517578,immed,39506.99996948242,Tue Mar 24 2026 10:54:09 GMT-0500 (Central Daylight Time),903639.600000143,A,cabi,O,i,190,1,1199.2000000476837,902440.4000000954,7777,WL,B,10.0
7,20.693000078201294,immed,39306.999921798706,Tue Mar 24 2026 10:54:09 GMT-0500 (Central Daylight Time),903839.7000000477,A,cabin,O,n,181,1,1399.2999999523163,902440.4000000954,7777,WL,B,10.0
7,21.092999935150146,immed,38907.00006484985,Tue Mar 24 2026 10:54:09 GMT-0500 (Central Daylight Time),904239.5,A,cabinenter,O,enter,381,1,1799.0999999046326,902440.4000000954,7777,WL,B,10.0
7,21.526000022888184,immed,38473.99997711182,Tue Mar 24 2026 10:54:09 GMT-0500 (Central Daylight Time),904672.3000001907,A,s,O,s,413,1,432.40000009536743,904239.9000000954,7777,WL,B,11.0
7,21.692000150680542,immed,38307.99984931946,Tue Mar 24 2026 10:54:09 GMT-0500 (Central Daylight Time),904839.100000143,A,sk,O,k,157,1,599.2000000476837,904239.9000000954,7777,WL,B,11.0
7,21.926000118255615,immed,38073.999881744385,Tue Mar 24 2026 10:54:09 GMT-0500 (Central Daylight Time),905072.3000001907,A,ski,O,i,221,1,832.4000000953674,904239.9000000954,7777,WL,B,11.0
7,22.108999967575073,immed,37891.00003242493,Tue Mar 24 2026 10:54:09 GMT-0500 (Central Daylight Time),905255.600000143,A,skin,O,n,172,1,1015.7000000476837,904239.9000000954,7777,WL,B,11.0
7,22.39199995994568,immed,37608.00004005432,Tue Mar 24 2026 10:54:09 GMT-0500 (Central Daylight Time),905538.8000001907,A,skinenter,O,enter,277,1,1298.9000000953674,904239.9000000954,7777,WL,B,11.0
7,25.674000024795532,immed,34325.99997520447,Tue Mar 24 2026 10:54:09 GMT-0500 (Central Daylight Time),908821.2000000477,A,w,O,w,3275,1,3282.0,905539.2000000477,7777,WL,B,12.0
7,25.79100012779236,immed,34208.99987220764,Tue Mar 24 2026 10:54:09 GMT-0500 (Central Daylight Time),908938.0,A,wi,O,i,104,1,3398.7999999523163,905539.2000000477,7777,WL,B,12.0
7,26.0239999294281,immed,33976.0000705719,Tue Mar 24 2026 10:54:09 GMT-0500 (Central Daylight Time),909171.100000143,A,win,O,n,218,1,3631.9000000953674,905539.2000000477,7777,WL,B,12.0
7,26.307000160217285,immed,33692.999839782715,Tue Mar 24 2026 10:54:09 GMT-0500 (Central Daylight Time),909454.2000000477,A,wind,O,d,265,1,3915.0,905539.2000000477,7777,WL,B,12.0
7,26.424000024795532,immed,33575.99997520447,Tue Mar 24 2026 10:54:09 GMT-0500 (Central Daylight Time),909571.100000143,A,windo,O,o,102,1,4031.9000000953674,905539.2000000477,7777,WL,B,12.0
7,26.591000080108643,immed,33408.99991989136,Tue Mar 24 2026 10:54:09 GMT-0500 (Central Daylight Time),909737.5,A,window,O,w,154,1,4198.299999952316,905539.2000000477,7777,WL,B,12.0
7,26.824000120162964,immed,33175.999879837036,Tue Mar 24 2026 10:54:09 GMT-0500 (Central Daylight Time),909971.0,A,windowenter,O,enter,227,1,4431.799999952316,905539.2000000477,7777,WL,B,12.0
7,33.40499997138977,immed,26595.00002861023,Tue Mar 24 2026 10:54:09 GMT-0500 (Central Daylight Time),916552.100000143,A,s,O,s,6571,1,6580.799999952316,909971.3000001907,7777,WL,B,13.0
7,33.63800001144409,immed,26361.99998855591,Tue Mar 24 2026 10:54:09 GMT-0500 (Central Daylight Time),916785.2000000477,A,st,O,t,228,1,6813.899999856949,909971.3000001907,7777,WL,B,13.0
7,33.888999938964844,immed,26111.000061035156,Tue Mar 24 2026 10:54:09 GMT-0500 (Central Daylight Time),917035.3000001907,A,sta,O,a,245,1,7064.0,909971.3000001907,7777,WL,B,13.0
7,34.07100009918213,immed,25928.99990081787,Tue Mar 24 2026 10:54:09 GMT-0500 (Central Daylight Time),917218.3000001907,A,star,O,r,177,1,7247.0,909971.3000001907,7777,WL,B,13.0
7,34.40499997138977,immed,25595.00002861023,Tue Mar 24 2026 10:54:09 GMT-0500 (Central Daylight Time),917552.100000143,A,starenter,O,enter,315,1,7580.799999952316,909971.3000001907,7777,WL,B,13.0
7,59.11400008201599,immed,885.9999179840088,Tue Mar 24 2026 10:54:09 GMT-0500 (Central Daylight Time),942260.600000143,A,enter,O,enter,24701,1,24708.200000047684,917552.4000000954,7777,WL,B,14.0
7,60.013999938964844,immed,-13.99993896484375,Tue Mar 24 2026 10:54:09 GMT-0500 (Central Daylight Time),943160.4000000954,A,None,O,None,894,1,899.4000000953674,942261.0,7777,WL,B,15.0
