acc_sum,block,block_c,change,condition,correct,correct_response,datetime,endtime,face,project,response,response_time,row_sel,session_number,start_end,starttime,subject_id,task,task_vers,trial
0,prac,1,,1-Back,,,Wed May 07 2025 17:02:55 GMT-0500 (Central Daylight Time),,124_o_f_d_a.png,O,space,5327,1,1,,,7143,VNB,A,0
1,prac,1,0.0,1-Back,1,m,Wed May 07 2025 17:02:55 GMT-0500 (Central Daylight Time),111989.90000000596,071_y_f_n_a.png,O,m,960,2,1,1758.0999999940395,110231.80000001192,7143,VNB,A,1
2,prac,1,0.0,1-Back,1,m,Wed May 07 2025 17:02:55 GMT-0500 (Central Daylight Time),113905.90000000596,165_m_m_h_a.png,O,m,1108,3,1,1908.5999999940395,111997.30000001192,7143,VNB,A,2
3,prac,1,0.0,1-Back,1,m,Wed May 07 2025 17:02:55 GMT-0500 (Central Daylight Time),115388.90000000596,109_y_m_d_a.png,O,m,666,4,1,1475.5,113913.40000000596,7143,VNB,A,3
3,prac,1,0.0,1-Back,0,m,Wed May 07 2025 17:02:55 GMT-0500 (Central Daylight Time),117354.80000001192,124_o_f_n_a.png,O,z,1126,5,1,1958.7000000178814,115396.09999999404,7143,VNB,A,4
3,prac,1,1.0,1-Back,0,z,Wed May 07 2025 17:02:55 GMT-0500 (Central Daylight Time),120170.40000000596,109_y_m_n_a.png,O,None,2011,6,1,2808.7000000178814,117361.69999998808,7143,VNB,A,5
4,prac,1,0.0,1-Back,1,m,Wed May 07 2025 17:02:55 GMT-0500 (Central Daylight Time),121820.19999998808,039_o_m_h_a.png,O,m,848,7,1,1642.2999999821186,120177.90000000596,7143,VNB,A,6
5,prac,1,0.0,1-Back,1,m,Wed May 07 2025 17:02:55 GMT-0500 (Central Daylight Time),123202.90000000596,139_m_f_d_a.png,O,m,574,8,1,1375.4000000059605,121827.5,7143,VNB,A,7
5,prac,1,1.0,1-Back,0,z,Wed May 07 2025 17:02:55 GMT-0500 (Central Daylight Time),124736.0,071_y_f_d_a.png,O,m,719,9,1,1525.300000011921,123210.69999998808,7143,VNB,A,8
6,prac,1,0.0,1-Back,1,m,Wed May 07 2025 17:02:55 GMT-0500 (Central Daylight Time),126585.19999998808,165_m_m_n_a.png,O,m,1050,10,1,1841.699999988079,124743.5,7143,VNB,A,9
7,prac,1,0.0,1-Back,1,m,Wed May 07 2025 17:02:55 GMT-0500 (Central Daylight Time),128484.59999999404,124_o_f_h_a.png,O,m,1072,11,1,1892.199999988079,126592.40000000596,7143,VNB,A,10
7,prac,1,0.0,1-Back,0,m,Wed May 07 2025 17:02:55 GMT-0500 (Central Daylight Time),130017.0,109_y_m_d_a.png,O,z,751,12,1,1525.0,128492.0,7143,VNB,A,11
0,test,1,0.0,1-Back,,,Wed May 07 2025 17:02:55 GMT-0500 (Central Daylight Time),130017.0,071_y_f_d_a.png,O,space,6450,1,1,1525.0,128492.0,7143,VNB,A,0
0,test,1,0.0,1-Back,0,m,Wed May 07 2025 17:02:55 GMT-0500 (Central Daylight Time),148128.69999998808,139_m_f_n_a.png,O,None,2016,2,1,3026.0999999940395,145102.59999999404,7143,VNB,A,1
1,test,1,0.0,1-Back,1,m,Wed May 07 2025 17:02:55 GMT-0500 (Central Daylight Time),149877.80000001192,039_o_m_h_a.png,O,m,722,3,1,1742.800000011921,148135.0,7143,VNB,A,2
1,test,1,1.0,1-Back,0,z,Wed May 07 2025 17:02:55 GMT-0500 (Central Daylight Time),151610.59999999404,165_m_m_h_a.png,O,m,707,4,1,1726.699999988079,149883.90000000596,7143,VNB,A,3
2,test,1,0.0,1-Back,1,m,Wed May 07 2025 17:02:55 GMT-0500 (Central Daylight Time),153576.69999998808,124_o_f_n_a.png,O,m,943,5,1,1959.699999988079,151617.0,7143,VNB,A,4
3,test,1,0.0,1-Back,1,m,Wed May 07 2025 17:02:55 GMT-0500 (Central Daylight Time),155476.09999999404,109_y_m_d_a.png,O,m,882,6,1,1893.0999999940395,153583.0,7143,VNB,A,5
4,test,1,1.0,1-Back,1,z,Wed May 07 2025 17:02:55 GMT-0500 (Central Daylight Time),157425.5,139_m_f_d_a.png,O,z,917,7,1,1943.300000011921,155482.19999998808,7143,VNB,A,6
5,test,1,0.0,1-Back,1,m,Wed May 07 2025 17:02:55 GMT-0500 (Central Daylight Time),159541.5,071_y_f_h_a.png,O,m,1097,8,1,2109.9000000059605,157431.59999999404,7143,VNB,A,7
6,test,1,0.0,1-Back,1,m,Wed May 07 2025 17:02:55 GMT-0500 (Central Daylight Time),161524.19999998808,039_o_m_n_a.png,O,m,964,9,1,1976.199999988079,159548.0,7143,VNB,A,8
6,test,1,0.0,1-Back,0,m,Wed May 07 2025 17:02:55 GMT-0500 (Central Daylight Time),163540.30000001192,109_y_m_h_a.png,O,z,997,10,1,2009.800000011921,161530.5,7143,VNB,A,9
7,test,1,0.0,1-Back,1,m,Wed May 07 2025 17:02:55 GMT-0500 (Central Daylight Time),165373.0,039_o_m_d_a.png,O,m,814,11,1,1826.800000011921,163546.19999998808,7143,VNB,A,10
7,test,1,1.0,1-Back,0,z,Wed May 07 2025 17:02:55 GMT-0500 (Central Daylight Time),167172.30000001192,124_o_f_d_a.png,O,m,772,12,1,1793.2000000178814,165379.09999999404,7143,VNB,A,11
8,test,1,0.0,1-Back,1,m,Wed May 07 2025 17:02:55 GMT-0500 (Central Daylight Time),169338.5,165_m_m_n_a.png,O,m,1141,13,1,2159.0999999940395,167179.40000000596,7143,VNB,A,12
8,test,1,1.0,1-Back,0,z,Wed May 07 2025 17:02:55 GMT-0500 (Central Daylight Time),171071.0,071_y_f_n_a.png,O,m,713,14,1,1726.300000011921,169344.69999998808,7143,VNB,A,13
9,test,1,0.0,1-Back,1,m,Wed May 07 2025 17:02:55 GMT-0500 (Central Daylight Time),173037.19999998808,139_m_f_h_a.png,O,m,939,15,1,1957.0999999940395,171080.09999999404,7143,VNB,A,14
9,test,1,0.0,1-Back,0,m,Wed May 07 2025 17:02:55 GMT-0500 (Central Daylight Time),174636.80000001192,165_m_m_d_a.png,O,z,573,16,1,1592.9000000059605,173043.90000000596,7143,VNB,A,15
10,test,1,0.0,1-Back,1,m,Wed May 07 2025 17:02:55 GMT-0500 (Central Daylight Time),176452.80000001192,109_y_m_n_a.png,O,m,797,17,1,1809.6000000238419,174643.19999998808,7143,VNB,A,16
11,test,1,0.0,1-Back,1,m,Wed May 07 2025 17:02:55 GMT-0500 (Central Daylight Time),178169.0,124_o_f_h_a.png,O,m,685,18,1,1709.5999999940395,176459.40000000596,7143,VNB,A,17
0,test,2,0.0,1-Back,,,Wed May 07 2025 17:02:55 GMT-0500 (Central Daylight Time),178169.0,109_y_m_n_a.png,O,space,2001,1,1,1709.5999999940395,176459.40000000596,7143,VNB,A,0
0,test,2,0.0,1-Back,0,m,Wed May 07 2025 17:02:55 GMT-0500 (Central Daylight Time),185233.80000001192,071_y_f_h_a.png,O,None,2016,2,1,3027.0,182206.80000001192,7143,VNB,A,1
1,test,2,1.0,1-Back,1,m,Wed May 07 2025 17:02:55 GMT-0500 (Central Daylight Time),187132.90000000596,039_o_m_n_a.png,O,m,872,3,1,1891.9000000059605,185241.0,7143,VNB,A,2
2,test,2,0.0,1-Back,1,m,Wed May 07 2025 17:02:55 GMT-0500 (Central Daylight Time),189049.09999999404,139_m_f_d_a.png,O,m,885,4,1,1909.699999988079,187139.40000000596,7143,VNB,A,3
2,test,2,0.0,1-Back,0,z,Wed May 07 2025 17:02:55 GMT-0500 (Central Daylight Time),191065.0,165_m_m_d_a.png,O,m,984,5,1,2009.5999999940395,189055.40000000596,7143,VNB,A,4
3,test,2,0.0,1-Back,1,m,Wed May 07 2025 17:02:55 GMT-0500 (Central Daylight Time),193081.59999999404,109_y_m_h_a.png,O,m,984,6,1,2010.2999999821186,191071.30000001192,7143,VNB,A,5
4,test,2,1.0,1-Back,1,z,Wed May 07 2025 17:02:55 GMT-0500 (Central Daylight Time),195247.19999998808,124_o_f_h_a.png,O,z,1136,7,1,2159.199999988079,193088.0,7143,VNB,A,6
5,test,2,0.0,1-Back,1,m,Wed May 07 2025 17:02:55 GMT-0500 (Central Daylight Time),196913.19999998808,139_m_f_n_a.png,O,m,634,8,1,1659.699999988079,195253.5,7143,VNB,A,7
6,test,2,0.0,1-Back,1,m,Wed May 07 2025 17:02:55 GMT-0500 (Central Daylight Time),198912.5,071_y_f_d_a.png,O,m,977,9,1,1992.699999988079,196919.80000001192,7143,VNB,A,8
6,test,2,0.0,1-Back,0,m,Wed May 07 2025 17:02:55 GMT-0500 (Central Daylight Time),201178.5,165_m_m_n_a.png,O,z,1234,10,1,2259.5999999940395,198918.90000000596,7143,VNB,A,9
6,test,2,1.0,1-Back,0,m,Wed May 07 2025 17:02:55 GMT-0500 (Central Daylight Time),203094.69999998808,139_m_f_h_a.png,O,z,895,11,1,1909.5999999940395,201185.09999999404,7143,VNB,A,10
6,test,2,0.0,1-Back,0,z,Wed May 07 2025 17:02:55 GMT-0500 (Central Daylight Time),205060.59999999404,039_o_m_h_a.png,O,m,940,12,1,1959.2999999821186,203101.30000001192,7143,VNB,A,11
7,test,2,0.0,1-Back,1,m,Wed May 07 2025 17:02:55 GMT-0500 (Central Daylight Time),206893.5,109_y_m_d_a.png,O,m,805,13,1,1826.5,205067.0,7143,VNB,A,12
8,test,2,0.0,1-Back,1,m,Wed May 07 2025 17:02:55 GMT-0500 (Central Daylight Time),208859.19999998808,124_o_f_n_a.png,O,m,948,14,1,1959.5999999940395,206899.59999999404,7143,VNB,A,13
8,test,2,0.0,1-Back,0,z,Wed May 07 2025 17:02:55 GMT-0500 (Central Daylight Time),210575.5,071_y_f_n_a.png,O,m,695,15,1,1710.0999999940395,208865.40000000596,7143,VNB,A,14
9,test,2,1.0,1-Back,1,m,Wed May 07 2025 17:02:55 GMT-0500 (Central Daylight Time),212608.19999998808,165_m_m_h_a.png,O,m,1010,16,1,2026.0999999940395,210582.09999999404,7143,VNB,A,15
10,test,2,0.0,1-Back,1,m,Wed May 07 2025 17:02:55 GMT-0500 (Central Daylight Time),214107.80000001192,124_o_f_d_a.png,O,m,481,17,1,1493.300000011921,212614.5,7143,VNB,A,16
10,test,2,1.0,1-Back,0,z,Wed May 07 2025 17:02:55 GMT-0500 (Central Daylight Time),216257.30000001192,039_o_m_d_a.png,O,m,1117,18,1,2142.600000023842,214114.69999998808,7143,VNB,A,17
0,test,3,1.0,1-Back,,,Wed May 07 2025 17:02:55 GMT-0500 (Central Daylight Time),216257.30000001192,124_o_f_h_a.png,O,space,1113,1,1,2142.600000023842,214114.69999998808,7143,VNB,A,0
0,test,3,0.0,1-Back,0,m,Wed May 07 2025 17:02:55 GMT-0500 (Central Daylight Time),222455.40000000596,139_m_f_d_a.png,O,None,2016,2,1,3026.5,219428.90000000596,7143,VNB,A,1
1,test,3,1.0,1-Back,1,m,Wed May 07 2025 17:02:55 GMT-0500 (Central Daylight Time),224204.5,165_m_m_n_a.png,O,m,723,3,1,1741.199999988079,222463.30000001192,7143,VNB,A,2
1,test,3,0.0,1-Back,0,z,Wed May 07 2025 17:02:55 GMT-0500 (Central Daylight Time),226087.40000000596,124_o_f_n_a.png,O,m,862,4,1,1876.2000000178814,224211.19999998808,7143,VNB,A,3
2,test,3,1.0,1-Back,1,m,Wed May 07 2025 17:02:55 GMT-0500 (Central Daylight Time),227903.5,039_o_m_d_a.png,O,m,787,5,1,1809.699999988079,226093.80000001192,7143,VNB,A,4
3,test,3,0.0,1-Back,1,m,Wed May 07 2025 17:02:55 GMT-0500 (Central Daylight Time),229803.0,071_y_f_h_a.png,O,m,874,6,1,1893.0,227910.0,7143,VNB,A,5
3,test,3,0.0,1-Back,0,z,Wed May 07 2025 17:02:55 GMT-0500 (Central Daylight Time),231519.0,109_y_m_h_a.png,O,m,685,7,1,1709.4000000059605,229809.59999999404,7143,VNB,A,6
4,test,3,0.0,1-Back,1,m,Wed May 07 2025 17:02:55 GMT-0500 (Central Daylight Time),233318.30000001192,139_m_f_n_a.png,O,m,771,8,1,1792.9000000059605,231525.40000000596,7143,VNB,A,7
4,test,3,0.0,1-Back,0,m,Wed May 07 2025 17:02:55 GMT-0500 (Central Daylight Time),235384.40000000596,071_y_f_d_a.png,O,z,1044,9,1,2059.5,233324.90000000596,7143,VNB,A,8
5,test,3,1.0,1-Back,1,m,Wed May 07 2025 17:02:55 GMT-0500 (Central Daylight Time),237051.0,039_o_m_n_a.png,O,m,650,10,1,1660.0,235391.0,7143,VNB,A,9
6,test,3,0.0,1-Back,1,m,Wed May 07 2025 17:02:55 GMT-0500 (Central Daylight Time),238666.90000000596,165_m_m_h_a.png,O,m,583,11,1,1609.5,237057.40000000596,7143,VNB,A,10
7,test,3,0.0,1-Back,1,z,Wed May 07 2025 17:02:55 GMT-0500 (Central Daylight Time),240416.30000001192,139_m_f_h_a.png,O,z,719,12,1,1743.2000000178814,238673.09999999404,7143,VNB,A,11
8,test,3,1.0,1-Back,1,m,Wed May 07 2025 17:02:55 GMT-0500 (Central Daylight Time),242249.0,124_o_f_d_a.png,O,m,802,13,1,1826.5999999940395,240422.40000000596,7143,VNB,A,12
8,test,3,0.0,1-Back,0,z,Wed May 07 2025 17:02:55 GMT-0500 (Central Daylight Time),243631.80000001192,165_m_m_d_a.png,O,m,353,14,1,1376.300000011921,242255.5,7143,VNB,A,13
9,test,3,0.0,1-Back,1,m,Wed May 07 2025 17:02:55 GMT-0500 (Central Daylight Time),244965.90000000596,109_y_m_n_a.png,O,m,314,15,1,1327.9000000059605,243638.0,7143,VNB,A,14
10,test,3,1.0,1-Back,1,m,Wed May 07 2025 17:02:55 GMT-0500 (Central Daylight Time),246330.90000000596,039_o_m_h_a.png,O,m,341,16,1,1358.7000000178814,244972.19999998808,7143,VNB,A,15
10,test,3,0.0,1-Back,0,m,Wed May 07 2025 17:02:55 GMT-0500 (Central Daylight Time),248430.59999999404,109_y_m_d_a.png,O,z,1071,17,1,2093.5,246337.09999999404,7143,VNB,A,16
11,test,3,1.0,1-Back,1,m,Wed May 07 2025 17:02:55 GMT-0500 (Central Daylight Time),249929.80000001192,071_y_f_n_a.png,O,m,476,18,1,1492.9000000059605,248436.90000000596,7143,VNB,A,17
0,test,4,1.0,1-Back,,,Wed May 07 2025 17:02:55 GMT-0500 (Central Daylight Time),249929.80000001192,165_m_m_d_a.png,O,space,1160,1,1,1492.9000000059605,248436.90000000596,7143,VNB,A,0
0,test,4,0.0,1-Back,0,z,Wed May 07 2025 17:02:55 GMT-0500 (Central Daylight Time),256144.80000001192,039_o_m_d_a.png,O,None,2016,2,1,3026.300000011921,253118.5,7143,VNB,A,1
1,test,4,0.0,1-Back,1,m,Wed May 07 2025 17:02:55 GMT-0500 (Central Daylight Time),257843.69999998808,109_y_m_h_a.png,O,m,673,3,1,1692.699999988079,256151.0,7143,VNB,A,2
2,test,4,0.0,1-Back,1,m,Wed May 07 2025 17:02:55 GMT-0500 (Central Daylight Time),259793.30000001192,139_m_f_n_a.png,O,m,917,4,1,1941.7000000178814,257851.59999999404,7143,VNB,A,3
3,test,4,1.0,1-Back,1,m,Wed May 07 2025 17:02:55 GMT-0500 (Central Daylight Time),261643.19999998808,124_o_f_h_a.png,O,m,833,5,1,1843.3999999761581,259799.80000001192,7143,VNB,A,4
4,test,4,0.0,1-Back,1,m,Wed May 07 2025 17:02:55 GMT-0500 (Central Daylight Time),263342.5,165_m_m_n_a.png,O,m,678,6,1,1693.0,261649.5,7143,VNB,A,5
5,test,4,0.0,1-Back,1,m,Wed May 07 2025 17:02:55 GMT-0500 (Central Daylight Time),265874.90000000596,109_y_m_d_a.png,O,m,1506,7,1,2525.7000000178814,263349.1999999881,7143,VNB,A,6
5,test,4,1.0,1-Back,0,z,Wed May 07 2025 17:02:55 GMT-0500 (Central Daylight Time),267724.09999999404,071_y_f_d_a.png,O,m,831,8,1,1842.9000000059605,265881.1999999881,7143,VNB,A,7
6,test,4,0.0,1-Back,1,m,Wed May 07 2025 17:02:55 GMT-0500 (Central Daylight Time),269124.0,139_m_f_h_a.png,O,m,374,9,1,1393.300000011921,267730.6999999881,7143,VNB,A,8
6,test,4,0.0,1-Back,0,z,Wed May 07 2025 17:02:55 GMT-0500 (Central Daylight Time),270623.5,039_o_m_h_a.png,O,m,478,10,1,1493.0,269130.5,7143,VNB,A,9
7,test,4,1.0,1-Back,1,m,Wed May 07 2025 17:02:55 GMT-0500 (Central Daylight Time),272356.1999999881,124_o_f_n_a.png,O,m,706,11,1,1725.2999999821186,270630.90000000596,7143,VNB,A,10
7,test,4,0.0,1-Back,0,m,Wed May 07 2025 17:02:55 GMT-0500 (Central Daylight Time),274472.1999999881,139_m_f_d_a.png,O,z,1094,12,1,2109.2999999821186,272362.90000000596,7143,VNB,A,11
8,test,4,0.0,1-Back,1,m,Wed May 07 2025 17:02:55 GMT-0500 (Central Daylight Time),275971.6999999881,071_y_f_n_a.png,O,m,474,13,1,1493.0,274478.6999999881,7143,VNB,A,12
9,test,4,0.0,1-Back,1,m,Wed May 07 2025 17:02:55 GMT-0500 (Central Daylight Time),277454.6999999881,124_o_f_d_a.png,O,m,455,14,1,1476.5,275978.1999999881,7143,VNB,A,13
10,test,4,0.0,1-Back,1,m,Wed May 07 2025 17:02:55 GMT-0500 (Central Daylight Time),278787.1999999881,071_y_f_h_a.png,O,m,314,15,1,1326.199999988079,277461.0,7143,VNB,A,14
10,test,4,1.0,1-Back,0,z,Wed May 07 2025 17:02:55 GMT-0500 (Central Daylight Time),280287.09999999404,165_m_m_h_a.png,O,m,470,16,1,1493.699999988079,278793.40000000596,7143,VNB,A,15
11,test,4,0.0,1-Back,1,m,Wed May 07 2025 17:02:55 GMT-0500 (Central Daylight Time),281786.6999999881,039_o_m_n_a.png,O,m,474,17,1,1493.0999999940395,280293.59999999404,7143,VNB,A,16
11,test,4,1.0,1-Back,0,z,Wed May 07 2025 17:02:55 GMT-0500 (Central Daylight Time),283386.3000000119,109_y_m_n_a.png,O,m,567,18,1,1593.6000000238419,281792.6999999881,7143,VNB,A,17
0,test,5,1.0,1-Back,,,Wed May 07 2025 17:02:55 GMT-0500 (Central Daylight Time),283386.3000000119,039_o_m_n_a.png,O,space,1087,1,1,1593.6000000238419,281792.6999999881,7143,VNB,A,0
0,test,5,1.0,1-Back,0,m,Wed May 07 2025 17:02:55 GMT-0500 (Central Daylight Time),289534.1999999881,124_o_f_h_a.png,O,None,2015,2,1,3026.0,286508.1999999881,7143,VNB,A,1
1,test,5,0.0,1-Back,1,m,Wed May 07 2025 17:02:55 GMT-0500 (Central Daylight Time),291267.1999999881,109_y_m_d_a.png,O,m,700,3,1,1726.699999988079,289540.5,7143,VNB,A,2
1,test,5,0.0,1-Back,0,z,Wed May 07 2025 17:02:55 GMT-0500 (Central Daylight Time),293516.40000000596,039_o_m_d_a.png,O,m,1222,4,1,2243.0999999940395,291273.3000000119,7143,VNB,A,3
2,test,5,0.0,1-Back,1,m,Wed May 07 2025 17:02:55 GMT-0500 (Central Daylight Time),295132.5,139_m_f_h_a.png,O,m,590,5,1,1609.699999988079,293522.8000000119,7143,VNB,A,4
3,test,5,0.0,1-Back,1,m,Wed May 07 2025 17:02:55 GMT-0500 (Central Daylight Time),296848.8000000119,071_y_f_n_a.png,O,m,685,6,1,1710.0,295138.8000000119,7143,VNB,A,5
3,test,5,1.0,1-Back,0,z,Wed May 07 2025 17:02:55 GMT-0500 (Central Daylight Time),298664.8000000119,124_o_f_n_a.png,O,m,793,7,1,1809.7000000178814,296855.09999999404,7143,VNB,A,6
4,test,5,0.0,1-Back,1,m,Wed May 07 2025 17:02:55 GMT-0500 (Central Daylight Time),300147.59999999404,139_m_f_d_a.png,O,m,457,8,1,1476.2999999821186,298671.3000000119,7143,VNB,A,7
5,test,5,0.0,1-Back,1,m,Wed May 07 2025 17:02:55 GMT-0500 (Central Daylight Time),301480.3000000119,109_y_m_h_a.png,O,m,303,9,1,1326.2000000178814,300154.09999999404,7143,VNB,A,8
6,test,5,0.0,1-Back,1,m,Wed May 07 2025 17:02:55 GMT-0500 (Central Daylight Time),302813.59999999404,071_y_f_d_a.png,O,m,306,10,1,1327.0999999940395,301486.5,7143,VNB,A,9
7,test,5,0.0,1-Back,1,m,Wed May 07 2025 17:02:55 GMT-0500 (Central Daylight Time),304112.8000000119,165_m_m_n_a.png,O,m,267,11,1,1292.9000000059605,302819.90000000596,7143,VNB,A,10
7,test,5,1.0,1-Back,0,z,Wed May 07 2025 17:02:55 GMT-0500 (Central Daylight Time),305629.1999999881,139_m_f_n_a.png,O,m,497,12,1,1509.8999999761581,304119.3000000119,7143,VNB,A,11
8,test,5,0.0,1-Back,1,m,Wed May 07 2025 17:02:55 GMT-0500 (Central Daylight Time),307461.90000000596,039_o_m_h_a.png,O,m,813,13,1,1826.5,305635.40000000596,7143,VNB,A,12
8,test,5,0.0,1-Back,0,z,Wed May 07 2025 17:02:55 GMT-0500 (Central Daylight Time),309394.5,165_m_m_h_a.png,O,m,899,14,1,1925.800000011921,307468.6999999881,7143,VNB,A,13
9,test,5,1.0,1-Back,1,m,Wed May 07 2025 17:02:55 GMT-0500 (Central Daylight Time),311560.1999999881,124_o_f_d_a.png,O,m,1143,15,1,2158.7999999821186,309401.40000000596,7143,VNB,A,14
10,test,5,0.0,1-Back,1,m,Wed May 07 2025 17:02:55 GMT-0500 (Central Daylight Time),314076.09999999404,109_y_m_n_a.png,O,m,1489,16,1,2508.4000000059605,311567.6999999881,7143,VNB,A,15
11,test,5,0.0,1-Back,1,m,Wed May 07 2025 17:02:55 GMT-0500 (Central Daylight Time),316642.40000000596,071_y_f_h_a.png,O,m,1542,17,1,2558.5,314083.90000000596,7143,VNB,A,16
12,test,5,0.0,1-Back,1,m,Wed May 07 2025 17:02:55 GMT-0500 (Central Daylight Time),318441.6999999881,165_m_m_d_a.png,O,m,767,18,1,1792.7999999821186,316648.90000000596,7143,VNB,A,17
0,prac,1,0.0,2-Back,,,Wed May 07 2025 17:02:55 GMT-0500 (Central Daylight Time),318441.6999999881,139_m_f_n_a.png,O,space,7629,1,1,1792.7999999821186,316648.90000000596,7143,VNB,A,0
0,prac,1,0.0,2-Back,,,Wed May 07 2025 17:02:55 GMT-0500 (Central Daylight Time),318441.6999999881,124_o_f_h_a.png,O,space,7629,2,1,1792.7999999821186,316648.90000000596,7143,VNB,A,0
1,prac,1,0.0,2-Back,1,m,Wed May 07 2025 17:02:55 GMT-0500 (Central Daylight Time),452483.1999999881,039_o_m_d_a.png,O,m,1291,3,1,2091.5999999940395,450391.59999999404,7143,VNB,A,1
2,prac,1,1.0,2-Back,1,z,Wed May 07 2025 17:02:55 GMT-0500 (Central Daylight Time),454949.5,165_m_m_h_a.png,O,z,1661,4,1,2458.699999988079,452490.8000000119,7143,VNB,A,2
2,prac,1,0.0,2-Back,0,m,Wed May 07 2025 17:02:55 GMT-0500 (Central Daylight Time),457448.40000000596,071_y_f_n_a.png,O,z,1682,5,1,2490.9000000059605,454957.5,7143,VNB,A,3
3,prac,1,1.0,2-Back,1,z,Wed May 07 2025 17:02:55 GMT-0500 (Central Daylight Time),459431.09999999404,039_o_m_h_a.png,O,z,1178,6,1,1974.2999999821186,457456.8000000119,7143,VNB,A,4
4,prac,1,1.0,2-Back,1,z,Wed May 07 2025 17:02:55 GMT-0500 (Central Daylight Time),461513.8000000119,109_y_m_n_a.png,O,z,1276,7,1,2075.0,459438.8000000119,7143,VNB,A,5
4,prac,1,0.0,2-Back,0,m,Wed May 07 2025 17:02:55 GMT-0500 (Central Daylight Time),463596.5,139_m_f_d_a.png,O,z,1272,8,1,2074.800000011921,461521.6999999881,7143,VNB,A,6
4,prac,1,0.0,2-Back,0,m,Wed May 07 2025 17:02:55 GMT-0500 (Central Daylight Time),466429.0,124_o_f_d_a.png,O,None,2002,9,1,2825.0,463604.0,7143,VNB,A,7
5,prac,1,0.0,2-Back,1,m,Wed May 07 2025 17:02:55 GMT-0500 (Central Daylight Time),468294.90000000596,165_m_m_h_a.png,O,m,1086,10,1,1857.9000000059605,466437.0,7143,VNB,A,8
5,prac,1,1.0,2-Back,0,z,Wed May 07 2025 17:02:55 GMT-0500 (Central Daylight Time),470177.6999999881,071_y_f_d_a.png,O,m,1077,11,1,1873.8999999761581,468303.8000000119,7143,VNB,A,9
6,prac,1,0.0,2-Back,1,m,Wed May 07 2025 17:02:55 GMT-0500 (Central Daylight Time),471660.6999999881,039_o_m_n_a.png,O,m,682,12,1,1475.3999999761581,470185.3000000119,7143,VNB,A,10
0,test,1,0.0,2-Back,,,Wed May 07 2025 17:02:55 GMT-0500 (Central Daylight Time),471660.6999999881,109_y_m_h_a.png,O,space,5671,1,1,1475.3999999761581,470185.3000000119,7143,VNB,A,0
0,test,1,0.0,2-Back,,,Wed May 07 2025 17:02:55 GMT-0500 (Central Daylight Time),471660.6999999881,124_o_f_n_a.png,O,space,5671,2,1,1475.3999999761581,470185.3000000119,7143,VNB,A,0
1,test,1,0.0,2-Back,1,z,Wed May 07 2025 17:02:55 GMT-0500 (Central Daylight Time),490771.3000000119,039_o_m_h_a.png,O,z,1033,3,1,2059.100000023842,488712.1999999881,7143,VNB,A,1
2,test,1,0.0,2-Back,1,m,Wed May 07 2025 17:02:55 GMT-0500 (Central Daylight Time),493370.5,139_m_f_d_a.png,O,m,1575,4,1,2592.800000011921,490777.6999999881,7143,VNB,A,2
3,test,1,1.0,2-Back,1,m,Wed May 07 2025 17:02:55 GMT-0500 (Central Daylight Time),496169.59999999404,109_y_m_n_a.png,O,m,1767,5,1,2792.7999999821186,493376.8000000119,7143,VNB,A,3
3,test,1,0.0,2-Back,0,z,Wed May 07 2025 17:02:55 GMT-0500 (Central Daylight Time),499002.3000000119,071_y_f_d_a.png,O,m,1808,6,1,2826.2000000178814,496176.09999999404,7143,VNB,A,4
3,test,1,0.0,2-Back,0,m,Wed May 07 2025 17:02:55 GMT-0500 (Central Daylight Time),501351.3000000119,165_m_m_h_a.png,O,z,1327,7,1,2342.7000000178814,499008.59999999404,7143,VNB,A,5
4,test,1,1.0,2-Back,1,m,Wed May 07 2025 17:02:55 GMT-0500 (Central Daylight Time),503600.6999999881,071_y_f_n_a.png,O,m,1227,8,1,2242.699999988079,501358.0,7143,VNB,A,6
4,test,1,0.0,2-Back,0,z,Wed May 07 2025 17:02:55 GMT-0500 (Central Daylight Time),504900.09999999404,124_o_f_h_a.png,O,m,281,9,1,1292.7999999821186,503607.3000000119,7143,VNB,A,7
4,test,1,0.0,2-Back,0,m,Wed May 07 2025 17:02:55 GMT-0500 (Central Daylight Time),506233.0,039_o_m_d_a.png,O,z,302,10,1,1326.0999999940395,504906.90000000596,7143,VNB,A,8
5,test,1,1.0,2-Back,1,m,Wed May 07 2025 17:02:55 GMT-0500 (Central Daylight Time),507666.0,165_m_m_d_a.png,O,m,409,11,1,1426.300000011921,506239.6999999881,7143,VNB,A,9
6,test,1,0.0,2-Back,1,m,Wed May 07 2025 17:02:55 GMT-0500 (Central Daylight Time),509115.59999999404,139_m_f_n_a.png,O,m,424,12,1,1443.0999999940395,507672.5,7143,VNB,A,10
7,test,1,0.0,2-Back,1,m,Wed May 07 2025 17:02:55 GMT-0500 (Central Daylight Time),510748.3000000119,071_y_f_h_a.png,O,m,607,13,1,1626.0,509122.3000000119,7143,VNB,A,11
7,test,1,0.0,2-Back,0,z,Wed May 07 2025 17:02:55 GMT-0500 (Central Daylight Time),512814.5,165_m_m_n_a.png,O,m,1045,14,1,2059.800000011921,510754.6999999881,7143,VNB,A,12
8,test,1,0.0,2-Back,1,m,Wed May 07 2025 17:02:55 GMT-0500 (Central Daylight Time),515680.40000000596,109_y_m_d_a.png,O,m,1836,15,1,2859.4000000059605,512821.0,7143,VNB,A,13
9,test,1,1.0,2-Back,1,m,Wed May 07 2025 17:02:55 GMT-0500 (Central Daylight Time),517296.1999999881,139_m_f_h_a.png,O,m,594,16,1,1609.3999999761581,515686.8000000119,7143,VNB,A,14
10,test,1,0.0,2-Back,1,z,Wed May 07 2025 17:02:55 GMT-0500 (Central Daylight Time),519095.8000000119,124_o_f_d_a.png,O,z,770,17,1,1792.9000000059605,517302.90000000596,7143,VNB,A,15
11,test,1,0.0,2-Back,1,m,Wed May 07 2025 17:02:55 GMT-0500 (Central Daylight Time),521811.3000000119,039_o_m_n_a.png,O,m,1698,18,1,2709.100000023842,519102.1999999881,7143,VNB,A,16
0,test,2,0.0,2-Back,,,Wed May 07 2025 17:02:55 GMT-0500 (Central Daylight Time),521811.3000000119,165_m_m_h_a.png,O,space,1503,1,1,2709.100000023842,519102.1999999881,7143,VNB,A,0
0,test,2,0.0,2-Back,,,Wed May 07 2025 17:02:55 GMT-0500 (Central Daylight Time),521811.3000000119,071_y_f_n_a.png,O,space,1503,2,1,2709.100000023842,519102.1999999881,7143,VNB,A,0
0,test,2,1.0,2-Back,0,z,Wed May 07 2025 17:02:55 GMT-0500 (Central Daylight Time),530292.1999999881,124_o_f_h_a.png,O,m,865,3,1,1876.5999999940395,528415.599999994,7143,VNB,A,1
1,test,2,0.0,2-Back,1,m,Wed May 07 2025 17:02:55 GMT-0500 (Central Daylight Time),532991.599999994,039_o_m_d_a.png,O,m,1678,4,1,2693.199999988079,530298.400000006,7143,VNB,A,2
1,test,2,0.0,2-Back,0,m,Wed May 07 2025 17:02:55 GMT-0500 (Central Daylight Time),535773.900000006,139_m_f_d_a.png,O,z,1762,5,1,2775.5999999940395,532998.3000000119,7143,VNB,A,3
2,test,2,0.0,2-Back,1,m,Wed May 07 2025 17:02:55 GMT-0500 (Central Daylight Time),537956.599999994,109_y_m_h_a.png,O,m,1156,6,1,2176.199999988079,535780.400000006,7143,VNB,A,4
3,test,2,0.0,2-Back,1,m,Wed May 07 2025 17:02:55 GMT-0500 (Central Daylight Time),539989.3000000119,124_o_f_n_a.png,O,m,1006,7,1,2025.9000000059605,537963.400000006,7143,VNB,A,5
3,test,2,1.0,2-Back,0,z,Wed May 07 2025 17:02:55 GMT-0500 (Central Daylight Time),542455.0,039_o_m_h_a.png,O,m,1445,8,1,2459.4000000059605,539995.599999994,7143,VNB,A,6
3,test,2,0.0,2-Back,0,m,Wed May 07 2025 17:02:55 GMT-0500 (Central Daylight Time),545137.5,071_y_f_d_a.png,O,z,1651,9,1,2675.699999988079,542461.8000000119,7143,VNB,A,7
4,test,2,0.0,2-Back,1,m,Wed May 07 2025 17:02:55 GMT-0500 (Central Daylight Time),547187.1999999881,109_y_m_d_a.png,O,m,1033,10,1,2043.0999999940395,545144.099999994,7143,VNB,A,8
5,test,2,0.0,2-Back,1,m,Wed May 07 2025 17:02:55 GMT-0500 (Central Daylight Time),549419.400000006,165_m_m_n_a.png,O,m,1216,11,1,2225.9000000059605,547193.5,7143,VNB,A,9
6,test,2,0.0,2-Back,1,m,Wed May 07 2025 17:02:55 GMT-0500 (Central Daylight Time),550802.599999994,139_m_f_h_a.png,O,m,358,12,1,1376.5999999940395,549426.0,7143,VNB,A,10
6,test,2,1.0,2-Back,0,z,Wed May 07 2025 17:02:55 GMT-0500 (Central Daylight Time),552502.0,039_o_m_n_a.png,O,m,680,13,1,1692.9000000059605,550809.099999994,7143,VNB,A,11
6,test,2,0.0,2-Back,0,m,Wed May 07 2025 17:02:55 GMT-0500 (Central Daylight Time),554035.0,124_o_f_d_a.png,O,z,500,14,1,1526.0999999940395,552508.900000006,7143,VNB,A,12
6,test,2,0.0,2-Back,0,m,Wed May 07 2025 17:02:55 GMT-0500 (Central Daylight Time),555350.900000006,071_y_f_h_a.png,O,z,287,15,1,1309.4000000059605,554041.5,7143,VNB,A,13
7,test,2,0.0,2-Back,1,z,Wed May 07 2025 17:02:55 GMT-0500 (Central Daylight Time),556900.8000000119,165_m_m_d_a.png,O,z,523,16,1,1543.0,555357.8000000119,7143,VNB,A,14
8,test,2,0.0,2-Back,1,m,Wed May 07 2025 17:02:55 GMT-0500 (Central Daylight Time),558766.6999999881,109_y_m_n_a.png,O,m,838,17,1,1859.5999999940395,556907.099999994,7143,VNB,A,15
9,test,2,1.0,2-Back,1,m,Wed May 07 2025 17:02:55 GMT-0500 (Central Daylight Time),560366.1999999881,139_m_f_n_a.png,O,m,572,18,1,1592.8999999761581,558773.3000000119,7143,VNB,A,16
0,test,3,1.0,2-Back,,,Wed May 07 2025 17:02:55 GMT-0500 (Central Daylight Time),560366.1999999881,039_o_m_n_a.png,O,space,1196,1,1,1592.8999999761581,558773.3000000119,7143,VNB,A,0
0,test,3,1.0,2-Back,,,Wed May 07 2025 17:02:55 GMT-0500 (Central Daylight Time),560366.1999999881,124_o_f_d_a.png,O,space,1196,2,1,1592.8999999761581,558773.3000000119,7143,VNB,A,0
1,test,3,0.0,2-Back,1,m,Wed May 07 2025 17:02:55 GMT-0500 (Central Daylight Time),568996.900000006,071_y_f_h_a.png,O,m,1356,3,1,2373.7000000178814,566623.1999999881,7143,VNB,A,1
2,test,3,0.0,2-Back,1,z,Wed May 07 2025 17:02:55 GMT-0500 (Central Daylight Time),570996.0,139_m_f_d_a.png,O,z,981,4,1,1992.699999988079,569003.3000000119,7143,VNB,A,2
2,test,3,1.0,2-Back,0,m,Wed May 07 2025 17:02:55 GMT-0500 (Central Daylight Time),573512.0,109_y_m_n_a.png,O,z,1486,5,1,2509.4000000059605,571002.599999994,7143,VNB,A,3
2,test,3,0.0,2-Back,0,m,Wed May 07 2025 17:02:55 GMT-0500 (Central Daylight Time),575944.8000000119,039_o_m_h_a.png,O,z,1402,6,1,2426.100000023842,573518.6999999881,7143,VNB,A,4
2,test,3,0.0,2-Back,0,z,Wed May 07 2025 17:02:55 GMT-0500 (Central Daylight Time),578977.099999994,071_y_f_n_a.png,O,None,2016,7,1,3025.7999999821186,575951.3000000119,7143,VNB,A,5
3,test,3,1.0,2-Back,1,m,Wed May 07 2025 17:02:55 GMT-0500 (Central Daylight Time),581192.900000006,165_m_m_d_a.png,O,m,1185,8,1,2209.2000000178814,578983.6999999881,7143,VNB,A,6
3,test,3,0.0,2-Back,0,m,Wed May 07 2025 17:02:55 GMT-0500 (Central Daylight Time),583942.099999994,109_y_m_d_a.png,O,z,1721,9,1,2742.5999999940395,581199.5,7143,VNB,A,7
4,test,3,0.0,2-Back,1,m,Wed May 07 2025 17:02:55 GMT-0500 (Central Daylight Time),586124.6999999881,124_o_f_h_a.png,O,m,1156,10,1,2176.2999999821186,583948.400000006,7143,VNB,A,8
5,test,3,1.0,2-Back,1,m,Wed May 07 2025 17:02:55 GMT-0500 (Central Daylight Time),587424.400000006,139_m_f_n_a.png,O,m,270,11,1,1292.9000000059605,586131.5,7143,VNB,A,9
5,test,3,1.0,2-Back,0,z,Wed May 07 2025 17:02:55 GMT-0500 (Central Daylight Time),588707.1999999881,165_m_m_h_a.png,O,m,266,12,1,1276.199999988079,587431.0,7143,VNB,A,10
6,test,3,0.0,2-Back,1,m,Wed May 07 2025 17:02:55 GMT-0500 (Central Daylight Time),590540.599999994,071_y_f_d_a.png,O,m,807,13,1,1826.7999999821186,588713.8000000119,7143,VNB,A,11
6,test,3,0.0,2-Back,0,m,Wed May 07 2025 17:02:55 GMT-0500 (Central Daylight Time),592772.400000006,124_o_f_n_a.png,O,z,1206,14,1,2225.5999999940395,590546.8000000119,7143,VNB,A,12
7,test,3,0.0,2-Back,1,z,Wed May 07 2025 17:02:55 GMT-0500 (Central Daylight Time),595471.900000006,039_o_m_d_a.png,O,z,1677,15,1,2692.4000000059605,592779.5,7143,VNB,A,13
8,test,3,1.0,2-Back,1,m,Wed May 07 2025 17:02:55 GMT-0500 (Central Daylight Time),598021.0,139_m_f_h_a.png,O,m,1522,16,1,2542.5999999940395,595478.400000006,7143,VNB,A,14
9,test,3,0.0,2-Back,1,m,Wed May 07 2025 17:02:55 GMT-0500 (Central Daylight Time),600071.5,165_m_m_n_a.png,O,m,1029,17,1,2043.9000000059605,598027.599999994,7143,VNB,A,15
9,test,3,0.0,2-Back,0,z,Wed May 07 2025 17:02:55 GMT-0500 (Central Daylight Time),603102.900000006,109_y_m_h_a.png,O,None,2016,18,1,3024.2000000178814,600078.6999999881,7143,VNB,A,16
0,test,4,0.0,2-Back,,,Wed May 07 2025 17:02:55 GMT-0500 (Central Daylight Time),603102.900000006,139_m_f_n_a.png,O,space,1539,1,1,3024.2000000178814,600078.6999999881,7143,VNB,A,0
0,test,4,0.0,2-Back,,,Wed May 07 2025 17:02:55 GMT-0500 (Central Daylight Time),603102.900000006,039_o_m_n_a.png,O,space,1539,2,1,3024.2000000178814,600078.6999999881,7143,VNB,A,0
1,test,4,1.0,2-Back,1,m,Wed May 07 2025 17:02:55 GMT-0500 (Central Daylight Time),611933.400000006,109_y_m_h_a.png,O,m,1189,3,1,2209.5,609723.900000006,7143,VNB,A,1
2,test,4,1.0,2-Back,1,m,Wed May 07 2025 17:02:55 GMT-0500 (Central Daylight Time),613866.400000006,124_o_f_d_a.png,O,m,909,4,1,1926.5999999940395,611939.8000000119,7143,VNB,A,2
2,test,4,0.0,2-Back,0,z,Wed May 07 2025 17:02:55 GMT-0500 (Central Daylight Time),616782.1999999881,039_o_m_h_a.png,O,m,1888,5,1,2909.0999999940395,613873.099999994,7143,VNB,A,3
2,test,4,0.0,2-Back,0,m,Wed May 07 2025 17:02:55 GMT-0500 (Central Daylight Time),618914.8000000119,165_m_m_n_a.png,O,z,1101,6,1,2125.5,616789.3000000119,7143,VNB,A,4
2,test,4,0.0,2-Back,0,m,Wed May 07 2025 17:02:55 GMT-0500 (Central Daylight Time),621347.099999994,139_m_f_d_a.png,O,z,1416,7,1,2425.9000000059605,618921.1999999881,7143,VNB,A,5
2,test,4,0.0,2-Back,0,z,Wed May 07 2025 17:02:55 GMT-0500 (Central Daylight Time),623396.400000006,071_y_f_n_a.png,O,m,1031,8,1,2042.7000000178814,621353.6999999881,7143,VNB,A,6
2,test,4,1.0,2-Back,0,m,Wed May 07 2025 17:02:55 GMT-0500 (Central Daylight Time),624929.1999999881,124_o_f_h_a.png,O,z,510,9,1,1525.8999999761581,623403.3000000119,7143,VNB,A,7
2,test,4,0.0,2-Back,0,m,Wed May 07 2025 17:02:55 GMT-0500 (Central Daylight Time),626212.1999999881,165_m_m_h_a.png,O,z,265,10,1,1276.3999999761581,624935.8000000119,7143,VNB,A,8
3,test,4,0.0,2-Back,1,m,Wed May 07 2025 17:02:55 GMT-0500 (Central Daylight Time),627495.099999994,071_y_f_d_a.png,O,m,262,11,1,1276.5,626218.599999994,7143,VNB,A,9
4,test,4,0.0,2-Back,1,m,Wed May 07 2025 17:02:55 GMT-0500 (Central Daylight Time),628794.6999999881,109_y_m_n_a.png,O,m,267,12,1,1292.7999999821186,627501.900000006,7143,VNB,A,10
5,test,4,0.0,2-Back,1,z,Wed May 07 2025 17:02:55 GMT-0500 (Central Daylight Time),631027.3000000119,039_o_m_d_a.png,O,z,1207,13,1,2224.7000000178814,628802.599999994,7143,VNB,A,11
6,test,4,1.0,2-Back,1,m,Wed May 07 2025 17:02:55 GMT-0500 (Central Daylight Time),632976.6999999881,139_m_f_h_a.png,O,m,919,14,1,1942.5,631034.1999999881,7143,VNB,A,12
6,test,4,1.0,2-Back,0,m,Wed May 07 2025 17:02:55 GMT-0500 (Central Daylight Time),636009.1999999881,071_y_f_h_a.png,O,None,2015,15,1,3025.399999976158,632983.8000000119,7143,VNB,A,13
6,test,4,0.0,2-Back,0,m,Wed May 07 2025 17:02:55 GMT-0500 (Central Daylight Time),638141.6999999881,124_o_f_n_a.png,O,z,1113,16,1,2125.7999999821186,636015.900000006,7143,VNB,A,14
7,test,4,0.0,2-Back,1,m,Wed May 07 2025 17:02:55 GMT-0500 (Central Daylight Time),639974.6999999881,109_y_m_d_a.png,O,m,804,17,1,1826.0999999940395,638148.599999994,7143,VNB,A,15
7,test,4,1.0,2-Back,0,m,Wed May 07 2025 17:02:55 GMT-0500 (Central Daylight Time),643006.900000006,165_m_m_d_a.png,O,None,2016,18,1,3024.800000011921,639982.099999994,7143,VNB,A,16
0,test,5,1.0,2-Back,,,Wed May 07 2025 17:02:55 GMT-0500 (Central Daylight Time),643006.900000006,071_y_f_d_a.png,O,space,1091,1,1,3024.800000011921,639982.099999994,7143,VNB,A,0
0,test,5,1.0,2-Back,,,Wed May 07 2025 17:02:55 GMT-0500 (Central Daylight Time),643006.900000006,124_o_f_h_a.png,O,space,1091,2,1,3024.800000011921,639982.099999994,7143,VNB,A,0
1,test,5,1.0,2-Back,1,z,Wed May 07 2025 17:02:55 GMT-0500 (Central Daylight Time),651421.900000006,039_o_m_d_a.png,O,z,1206,3,1,2225.800000011921,649196.099999994,7143,VNB,A,1
2,test,5,1.0,2-Back,1,m,Wed May 07 2025 17:02:55 GMT-0500 (Central Daylight Time),653520.400000006,139_m_f_n_a.png,O,m,1069,4,1,2091.9000000059605,651428.5,7143,VNB,A,2
2,test,5,0.0,2-Back,0,m,Wed May 07 2025 17:02:55 GMT-0500 (Central Daylight Time),655636.400000006,165_m_m_h_a.png,O,z,1098,5,1,2109.7000000178814,653526.6999999881,7143,VNB,A,3
3,test,5,0.0,2-Back,1,z,Wed May 07 2025 17:02:55 GMT-0500 (Central Daylight Time),657336.099999994,071_y_f_n_a.png,O,z,670,6,1,1693.5,655642.599999994,7143,VNB,A,4
4,test,5,0.0,2-Back,1,m,Wed May 07 2025 17:02:55 GMT-0500 (Central Daylight Time),658701.900000006,124_o_f_d_a.png,O,m,346,7,1,1359.300000011921,657342.599999994,7143,VNB,A,5
4,test,5,0.0,2-Back,0,m,Wed May 07 2025 17:02:55 GMT-0500 (Central Daylight Time),661134.8000000119,039_o_m_h_a.png,O,z,1404,8,1,2425.800000011921,658709.0,7143,VNB,A,6
5,test,5,1.0,2-Back,1,z,Wed May 07 2025 17:02:55 GMT-0500 (Central Daylight Time),663167.1999999881,139_m_f_d_a.png,O,z,1011,9,1,2026.0999999940395,661141.099999994,7143,VNB,A,7
6,test,5,0.0,2-Back,1,m,Wed May 07 2025 17:02:55 GMT-0500 (Central Daylight Time),666133.0,109_y_m_n_a.png,O,m,1947,10,1,2959.300000011921,663173.6999999881,7143,VNB,A,8
6,test,5,0.0,2-Back,0,m,Wed May 07 2025 17:02:55 GMT-0500 (Central Daylight Time),668515.900000006,165_m_m_n_a.png,O,z,1357,11,1,2376.4000000059605,666139.5,7143,VNB,A,9
7,test,5,0.0,2-Back,1,m,Wed May 07 2025 17:02:55 GMT-0500 (Central Daylight Time),670365.3000000119,071_y_f_h_a.png,O,m,823,12,1,1842.9000000059605,668522.400000006,7143,VNB,A,10
8,test,5,0.0,2-Back,1,m,Wed May 07 2025 17:02:55 GMT-0500 (Central Daylight Time),672531.1999999881,109_y_m_d_a.png,O,m,1149,13,1,2159.2999999821186,670371.900000006,7143,VNB,A,11
9,test,5,1.0,2-Back,1,z,Wed May 07 2025 17:02:55 GMT-0500 (Central Daylight Time),674330.599999994,139_m_f_h_a.png,O,z,775,14,1,1793.0999999940395,672537.5,7143,VNB,A,12
9,test,5,0.0,2-Back,0,m,Wed May 07 2025 17:02:55 GMT-0500 (Central Daylight Time),677262.8000000119,039_o_m_n_a.png,O,z,1912,15,1,2925.2000000178814,674337.599999994,7143,VNB,A,13
10,test,5,0.0,2-Back,1,m,Wed May 07 2025 17:02:55 GMT-0500 (Central Daylight Time),679179.099999994,165_m_m_d_a.png,O,m,899,16,1,1909.699999988079,677269.400000006,7143,VNB,A,14
11,test,5,0.0,2-Back,1,z,Wed May 07 2025 17:02:55 GMT-0500 (Central Daylight Time),681045.0,124_o_f_n_a.png,O,z,839,17,1,1859.0999999940395,679185.900000006,7143,VNB,A,15
12,test,5,1.0,2-Back,1,m,Wed May 07 2025 17:02:55 GMT-0500 (Central Daylight Time),683044.6999999881,109_y_m_h_a.png,O,m,973,18,1,1993.3999999761581,681051.3000000119,7143,VNB,A,16
