Number,acc_sum,block,block_c,block_cond,con_img,correct,correct_response,datetime,endtime,jitter,project,response,response_time,row_sel,session_number,start_end,starttime,subject_id,task,task_vers,trial
8,0,prac,1,A,circle.png,0,m,Tue Jun 23 2026 09:15:13 GMT-0400 (Eastern Daylight Time),74301.60000002384,1600,I,None,1514,7,2,3888.0,70413.60000002384,9068,NTS,B,1
8,1,prac,1,A,circle.png,1,m,Tue Jun 23 2026 09:15:13 GMT-0400 (Eastern Daylight Time),77151.60000002384,1600,I,m,461,7,2,2838.2000000476837,74313.39999997616,9068,NTS,B,2
2,2,prac,1,A,circle.png,1,z,Tue Jun 23 2026 09:15:13 GMT-0400 (Eastern Daylight Time),80401.69999992847,2000,I,z,460,2,2,3238.5999999046326,77163.10000002384,9068,NTS,B,3
2,3,prac,1,A,circle.png,1,z,Tue Jun 23 2026 09:15:13 GMT-0400 (Eastern Daylight Time),83668.29999995232,2000,I,z,472,2,2,3255.399999976158,80412.89999997616,9068,NTS,B,4
4,4,prac,1,A,circle.png,1,z,Tue Jun 23 2026 09:15:13 GMT-0400 (Eastern Daylight Time),86484.69999992847,1400,I,z,623,4,2,2803.6999999284744,83681.0,9068,NTS,B,5
9,5,prac,1,A,circle.png,1,m,Tue Jun 23 2026 09:15:13 GMT-0400 (Eastern Daylight Time),89201.5,1500,I,m,426,8,2,2702.399999976158,86499.10000002384,9068,NTS,B,6
1,6,prac,1,A,circle.png,1,z,Tue Jun 23 2026 09:15:13 GMT-0400 (Eastern Daylight Time),91568.19999992847,1000,I,z,579,1,2,2354.5,89213.69999992847,9068,NTS,B,7
9,7,prac,1,A,circle.png,1,m,Tue Jun 23 2026 09:15:13 GMT-0400 (Eastern Daylight Time),94368.19999992847,1500,I,m,513,8,2,2789.0,91579.19999992847,9068,NTS,B,8
3,8,prac,1,A,circle.png,1,z,Tue Jun 23 2026 09:15:13 GMT-0400 (Eastern Daylight Time),96734.89999997616,1200,I,z,380,3,2,2353.2000000476837,94381.69999992847,9068,NTS,B,9
7,9,prac,1,A,circle.png,1,m,Tue Jun 23 2026 09:15:13 GMT-0400 (Eastern Daylight Time),99801.60000002384,1700,I,m,569,6,2,3053.9000000953674,96747.69999992847,9068,NTS,B,10
6,10,prac,1,A,circle.png,1,m,Tue Jun 23 2026 09:15:13 GMT-0400 (Eastern Daylight Time),103135.10000002384,1900,I,m,647,5,2,3322.100000023842,99813.0,9068,NTS,B,11
6,11,prac,1,A,circle.png,1,m,Tue Jun 23 2026 09:15:13 GMT-0400 (Eastern Daylight Time),106268.29999995232,1900,I,m,433,5,2,3120.0,103148.29999995232,9068,NTS,B,12
9,1,prac,1,B,triangle.png,1,z,Tue Jun 23 2026 09:15:13 GMT-0400 (Eastern Daylight Time),134268.39999997616,1400,I,z,667,8,2,2857.0,131411.39999997616,9068,NTS,B,1
3,2,prac,1,B,triangle.png,1,z,Tue Jun 23 2026 09:15:13 GMT-0400 (Eastern Daylight Time),137668.19999992847,1600,I,z,1008,3,2,3385.899999976158,134282.29999995232,9068,NTS,B,2
4,3,prac,1,B,triangle.png,1,m,Tue Jun 23 2026 09:15:13 GMT-0400 (Eastern Daylight Time),140551.60000002384,1500,I,m,588,4,2,2871.0,137680.60000002384,9068,NTS,B,3
6,4,prac,1,B,triangle.png,1,m,Tue Jun 23 2026 09:15:13 GMT-0400 (Eastern Daylight Time),142901.60000002384,1000,I,m,558,5,2,2338.7000000476837,140562.89999997616,9068,NTS,B,4
2,5,prac,1,B,triangle.png,1,m,Tue Jun 23 2026 09:15:13 GMT-0400 (Eastern Daylight Time),145951.60000002384,1700,I,m,563,2,2,3039.7000000476837,142911.89999997616,9068,NTS,B,5
1,6,prac,1,B,triangle.png,1,z,Tue Jun 23 2026 09:15:13 GMT-0400 (Eastern Daylight Time),149118.19999992847,1900,I,z,482,1,2,3154.399999976158,145963.79999995232,9068,NTS,B,6
7,7,prac,1,B,triangle.png,1,z,Tue Jun 23 2026 09:15:13 GMT-0400 (Eastern Daylight Time),152501.60000002384,2000,I,z,590,6,2,3372.4000000953674,149129.19999992847,9068,NTS,B,7
8,8,prac,1,B,triangle.png,1,m,Tue Jun 23 2026 09:15:13 GMT-0400 (Eastern Daylight Time),155184.89999997616,1200,I,m,695,7,2,2670.7000000476837,152514.19999992847,9068,NTS,B,8
1,9,prac,1,B,triangle.png,1,z,Tue Jun 23 2026 09:15:13 GMT-0400 (Eastern Daylight Time),158485.0,1900,I,z,608,1,2,3288.600000023842,155196.39999997616,9068,NTS,B,9
2,10,prac,1,B,triangle.png,1,m,Tue Jun 23 2026 09:15:13 GMT-0400 (Eastern Daylight Time),161501.60000002384,1700,I,m,532,2,2,3006.2000000476837,158495.39999997616,9068,NTS,B,10
7,11,prac,1,B,triangle.png,1,z,Tue Jun 23 2026 09:15:13 GMT-0400 (Eastern Daylight Time),164884.89999997616,2000,I,z,591,6,2,3371.2000000476837,161513.69999992847,9068,NTS,B,11
8,12,prac,1,B,triangle.png,1,m,Tue Jun 23 2026 09:15:13 GMT-0400 (Eastern Daylight Time),167468.19999992847,1200,I,m,584,7,2,2570.1999999284744,164898.0,9068,NTS,B,12
4,1,test,1,A,circle.png,1,z,Tue Jun 23 2026 09:15:13 GMT-0400 (Eastern Daylight Time),186534.89999997616,1400,I,z,472,4,2,1890.8999999761581,184644.0,9068,NTS,B,1
6,2,test,1,A,circle.png,1,m,Tue Jun 23 2026 09:15:13 GMT-0400 (Eastern Daylight Time),189118.10000002384,1900,I,m,646,5,2,2571.5,186546.60000002384,9068,NTS,B,2
2,3,test,1,A,circle.png,1,z,Tue Jun 23 2026 09:15:13 GMT-0400 (Eastern Daylight Time),191618.0,2000,I,z,478,2,2,2491.3000000715256,189126.69999992847,9068,NTS,B,3
6,4,test,1,A,circle.png,1,m,Tue Jun 23 2026 09:15:13 GMT-0400 (Eastern Daylight Time),194101.5,1900,I,m,556,5,2,2474.2000000476837,191627.29999995232,9068,NTS,B,4
3,5,test,1,A,circle.png,1,z,Tue Jun 23 2026 09:15:13 GMT-0400 (Eastern Daylight Time),195901.5,1200,I,z,566,3,2,1790.8000000715256,194110.69999992847,9068,NTS,B,5
1,6,test,1,A,circle.png,1,z,Tue Jun 23 2026 09:15:13 GMT-0400 (Eastern Daylight Time),197434.79999995232,1000,I,z,501,1,2,1525.3999999761581,195909.39999997616,9068,NTS,B,6
8,7,test,1,A,circle.png,1,m,Tue Jun 23 2026 09:15:13 GMT-0400 (Eastern Daylight Time),199601.39999997616,1600,I,m,545,7,2,2155.2000000476837,197446.19999992847,9068,NTS,B,7
9,8,test,1,A,circle.png,1,m,Tue Jun 23 2026 09:15:13 GMT-0400 (Eastern Daylight Time),201634.79999995232,1500,I,m,510,8,2,2021.6000000238419,199613.19999992847,9068,NTS,B,8
7,9,test,1,A,circle.png,1,m,Tue Jun 23 2026 09:15:13 GMT-0400 (Eastern Daylight Time),203834.79999995232,1700,I,m,469,6,2,2191.100000023842,201643.69999992847,9068,NTS,B,9
7,10,test,1,A,circle.png,1,m,Tue Jun 23 2026 09:15:13 GMT-0400 (Eastern Daylight Time),206118.10000002384,1700,I,m,558,6,2,2273.9000000953674,203844.19999992847,9068,NTS,B,10
4,11,test,1,A,circle.png,1,z,Tue Jun 23 2026 09:15:13 GMT-0400 (Eastern Daylight Time),207984.79999995232,1400,I,z,445,4,2,1857.7999999523163,206127.0,9068,NTS,B,11
9,12,test,1,A,circle.png,1,m,Tue Jun 23 2026 09:15:13 GMT-0400 (Eastern Daylight Time),209984.60000002384,1500,I,m,479,8,2,1991.1000000238419,207993.5,9068,NTS,B,12
2,13,test,1,A,circle.png,1,z,Tue Jun 23 2026 09:15:13 GMT-0400 (Eastern Daylight Time),212468.10000002384,2000,I,z,460,2,2,2475.0,209993.10000002384,9068,NTS,B,13
1,14,test,1,A,circle.png,1,z,Tue Jun 23 2026 09:15:13 GMT-0400 (Eastern Daylight Time),214018.10000002384,1000,I,z,528,1,2,1540.8000000715256,212477.29999995232,9068,NTS,B,14
6,15,test,1,A,circle.png,1,m,Tue Jun 23 2026 09:15:13 GMT-0400 (Eastern Daylight Time),216418.0,1900,I,m,478,5,2,2390.8000000715256,214027.19999992847,9068,NTS,B,15
8,16,test,1,A,circle.png,1,m,Tue Jun 23 2026 09:15:13 GMT-0400 (Eastern Daylight Time),218568.0,1600,I,m,522,7,2,2141.600000023842,216426.39999997616,9068,NTS,B,16
7,17,test,1,A,circle.png,1,m,Tue Jun 23 2026 09:15:13 GMT-0400 (Eastern Daylight Time),220784.10000002384,1700,I,m,495,6,2,2205.0,218579.10000002384,9068,NTS,B,17
2,18,test,1,A,circle.png,1,z,Tue Jun 23 2026 09:15:13 GMT-0400 (Eastern Daylight Time),223268.10000002384,2000,I,z,460,2,2,2478.0,220790.10000002384,9068,NTS,B,18
8,19,test,1,A,circle.png,1,m,Tue Jun 23 2026 09:15:13 GMT-0400 (Eastern Daylight Time),225534.89999997616,1600,I,m,633,7,2,2257.2000000476837,223277.69999992847,9068,NTS,B,19
3,20,test,1,A,circle.png,1,z,Tue Jun 23 2026 09:15:13 GMT-0400 (Eastern Daylight Time),227351.39999997616,1200,I,z,573,3,2,1800.0,225551.39999997616,9068,NTS,B,20
6,21,test,1,A,circle.png,1,m,Tue Jun 23 2026 09:15:13 GMT-0400 (Eastern Daylight Time),229851.39999997616,1900,I,m,568,5,2,2488.2999999523163,227363.10000002384,9068,NTS,B,21
8,22,test,1,A,circle.png,1,m,Tue Jun 23 2026 09:15:13 GMT-0400 (Eastern Daylight Time),231934.89999997616,1600,I,m,464,7,2,2070.600000023842,229864.29999995232,9068,NTS,B,22
2,23,test,1,A,circle.png,1,z,Tue Jun 23 2026 09:15:13 GMT-0400 (Eastern Daylight Time),234501.39999997616,2000,I,z,541,2,2,2559.100000023842,231942.29999995232,9068,NTS,B,23
1,24,test,1,A,circle.png,1,z,Tue Jun 23 2026 09:15:13 GMT-0400 (Eastern Daylight Time),236084.89999997616,1000,I,z,557,1,2,1572.2000000476837,234512.69999992847,9068,NTS,B,24
7,1,test,1,B,triangle.png,1,z,Tue Jun 23 2026 09:15:13 GMT-0400 (Eastern Daylight Time),252934.69999992847,2000,I,z,540,6,2,2559.1999999284744,250375.5,9068,NTS,B,1
3,2,test,1,B,triangle.png,1,z,Tue Jun 23 2026 09:15:13 GMT-0400 (Eastern Daylight Time),255468.19999992847,2000,I,z,502,11,2,2521.5999999046326,252946.60000002384,9068,NTS,B,2
8,3,test,1,B,triangle.png,1,m,Tue Jun 23 2026 09:15:13 GMT-0400 (Eastern Daylight Time),257434.79999995232,1200,I,m,736,7,2,1957.3999999761581,255477.39999997616,9068,NTS,B,3
4,4,test,1,B,triangle.png,1,m,Tue Jun 23 2026 09:15:13 GMT-0400 (Eastern Daylight Time),259568.10000002384,1500,I,m,614,4,2,2124.0,257444.10000002384,9068,NTS,B,4
2,5,test,1,B,triangle.png,1,m,Tue Jun 23 2026 09:15:13 GMT-0400 (Eastern Daylight Time),261818.19999992847,1700,I,m,520,2,2,2241.399999976158,259576.79999995232,9068,NTS,B,5
6,6,test,1,B,triangle.png,1,m,Tue Jun 23 2026 09:15:13 GMT-0400 (Eastern Daylight Time),263351.5,1000,I,m,506,5,2,1523.3999999761581,261828.10000002384,9068,NTS,B,6
1,7,test,1,B,triangle.png,1,z,Tue Jun 23 2026 09:15:13 GMT-0400 (Eastern Daylight Time),265701.39999997616,1900,I,z,425,1,2,2339.7000000476837,263361.6999999285,9068,NTS,B,7
7,8,test,1,B,triangle.png,1,z,Tue Jun 23 2026 09:15:13 GMT-0400 (Eastern Daylight Time),267834.7999999523,1600,I,z,503,14,2,2124.1999999284744,265710.60000002384,9068,NTS,B,8
1,9,test,1,B,triangle.png,1,z,Tue Jun 23 2026 09:15:13 GMT-0400 (Eastern Daylight Time),269734.89999997616,1400,I,z,474,9,2,1890.6000000238419,267844.2999999523,9068,NTS,B,9
8,10,test,1,B,triangle.png,1,m,Tue Jun 23 2026 09:15:13 GMT-0400 (Eastern Daylight Time),271984.6999999285,1700,I,m,531,15,2,2241.0,269743.6999999285,9068,NTS,B,10
8,11,test,1,B,triangle.png,1,m,Tue Jun 23 2026 09:15:13 GMT-0400 (Eastern Daylight Time),274151.5,1700,I,m,440,15,2,2158.2000000476837,271993.2999999523,9068,NTS,B,11
7,12,test,1,B,triangle.png,1,z,Tue Jun 23 2026 09:15:13 GMT-0400 (Eastern Daylight Time),276751.1999999285,2000,I,z,581,6,2,2588.399999976158,274162.7999999523,9068,NTS,B,12
6,12,test,1,B,triangle.png,0,m,Tue Jun 23 2026 09:15:13 GMT-0400 (Eastern Daylight Time),278768.0,1500,I,z,497,13,2,2006.6000000238419,276761.39999997616,9068,NTS,B,13
9,13,test,1,B,triangle.png,1,z,Tue Jun 23 2026 09:15:13 GMT-0400 (Eastern Daylight Time),281401.5,1900,I,z,704,16,2,2624.600000023842,278776.89999997616,9068,NTS,B,14
9,14,test,1,B,triangle.png,1,z,Tue Jun 23 2026 09:15:13 GMT-0400 (Eastern Daylight Time),283801.5,1400,I,z,971,8,2,2391.3000000715256,281410.1999999285,9068,NTS,B,15
3,15,test,1,B,triangle.png,1,z,Tue Jun 23 2026 09:15:13 GMT-0400 (Eastern Daylight Time),286218.10000002384,1600,I,z,787,3,2,2408.5,283809.60000002384,9068,NTS,B,16
4,16,test,1,B,triangle.png,1,m,Tue Jun 23 2026 09:15:13 GMT-0400 (Eastern Daylight Time),287834.7999999523,1000,I,m,587,12,2,1607.7999999523163,286227.0,9068,NTS,B,17
2,17,test,1,B,triangle.png,1,m,Tue Jun 23 2026 09:15:13 GMT-0400 (Eastern Daylight Time),289617.5,1200,I,m,561,10,2,1774.1000000238419,287843.39999997616,9068,NTS,B,18
6,18,test,1,B,triangle.png,1,m,Tue Jun 23 2026 09:15:13 GMT-0400 (Eastern Daylight Time),291201.39999997616,1000,I,m,562,5,2,1578.6000000238419,289622.7999999523,9068,NTS,B,19
3,19,test,1,B,triangle.png,1,z,Tue Jun 23 2026 09:15:13 GMT-0400 (Eastern Daylight Time),293818.10000002384,2000,I,z,588,11,2,2607.5,291210.60000002384,9068,NTS,B,20
9,20,test,1,B,triangle.png,1,z,Tue Jun 23 2026 09:15:13 GMT-0400 (Eastern Daylight Time),296401.39999997616,1400,I,z,1163,8,2,2573.7999999523163,293827.60000002384,9068,NTS,B,21
4,21,test,1,B,triangle.png,1,m,Tue Jun 23 2026 09:15:13 GMT-0400 (Eastern Daylight Time),298034.89999997616,1000,I,m,611,12,2,1622.5,296412.39999997616,9068,NTS,B,22
7,22,test,1,B,triangle.png,1,z,Tue Jun 23 2026 09:15:13 GMT-0400 (Eastern Daylight Time),300284.7999999523,1600,I,z,618,14,2,2241.0,298043.7999999523,9068,NTS,B,23
8,23,test,1,B,triangle.png,1,m,Tue Jun 23 2026 09:15:13 GMT-0400 (Eastern Daylight Time),302051.39999997616,1200,I,m,544,7,2,1757.2999999523163,300294.10000002384,9068,NTS,B,24
4,1,prac,1,C,circle.png,1,z,Tue Jun 23 2026 09:15:13 GMT-0400 (Eastern Daylight Time),347168.2999999523,1000,I,z,1345,4,2,3123.0,344045.2999999523,9068,NTS,B,1
6,2,prac,1,C,circle.png,1,m,Tue Jun 23 2026 09:15:13 GMT-0400 (Eastern Daylight Time),350685.0,2000,I,m,716,5,2,3501.8000000715256,347183.1999999285,9068,NTS,B,2
7,2,prac,1,C,triangle.png,0,z,Tue Jun 23 2026 09:15:13 GMT-0400 (Eastern Daylight Time),354185.0,1200,I,None,1516,6,2,3487.899999976158,350697.10000002384,9068,NTS,B,3
1,3,prac,1,C,circle.png,1,z,Tue Jun 23 2026 09:15:13 GMT-0400 (Eastern Daylight Time),357435.0,1700,I,z,752,1,2,3237.5,354197.5,9068,NTS,B,4
6,4,prac,1,C,circle.png,1,m,Tue Jun 23 2026 09:15:13 GMT-0400 (Eastern Daylight Time),361518.2999999523,2000,I,m,1298,5,2,4072.6999999284744,357445.60000002384,9068,NTS,B,5
8,5,prac,1,C,triangle.png,1,m,Tue Jun 23 2026 09:15:13 GMT-0400 (Eastern Daylight Time),364651.6999999285,1400,I,m,935,7,2,3122.5,361529.1999999285,9068,NTS,B,6
9,6,prac,1,C,circle.png,1,m,Tue Jun 23 2026 09:15:13 GMT-0400 (Eastern Daylight Time),368201.60000002384,1900,I,m,854,8,2,3537.0,364664.60000002384,9068,NTS,B,7
9,7,prac,1,C,circle.png,1,m,Tue Jun 23 2026 09:15:13 GMT-0400 (Eastern Daylight Time),371468.1999999285,1900,I,m,567,8,2,3252.5999999046326,368215.60000002384,9068,NTS,B,8
2,8,prac,1,C,triangle.png,1,m,Tue Jun 23 2026 09:15:13 GMT-0400 (Eastern Daylight Time),374668.2999999523,1600,I,m,800,2,2,3189.5,371478.7999999523,9068,NTS,B,9
3,9,prac,1,C,triangle.png,1,z,Tue Jun 23 2026 09:15:13 GMT-0400 (Eastern Daylight Time),377568.2999999523,1500,I,z,612,3,2,2886.7999999523163,374681.5,9068,NTS,B,10
3,10,prac,1,C,triangle.png,1,z,Tue Jun 23 2026 09:15:13 GMT-0400 (Eastern Daylight Time),380501.6999999285,1500,I,z,640,3,2,2923.2999999523163,377578.39999997616,9068,NTS,B,11
7,11,prac,1,C,triangle.png,1,z,Tue Jun 23 2026 09:15:13 GMT-0400 (Eastern Daylight Time),383235.0,1200,I,z,743,6,2,2723.0,380512.0,9068,NTS,B,12
6,1,test,1,C,circle.png,1,m,Tue Jun 23 2026 09:15:13 GMT-0400 (Eastern Daylight Time),401151.2999999523,1900,I,m,748,5,2,2658.600000023842,398492.6999999285,9068,NTS,B,1
2,1,test,1,C,circle.png,0,z,Tue Jun 23 2026 09:15:13 GMT-0400 (Eastern Daylight Time),403884.89999997616,1700,I,m,1001,18,2,2722.899999976158,401162.0,9068,NTS,B,2
9,2,test,1,C,triangle.png,1,z,Tue Jun 23 2026 09:15:13 GMT-0400 (Eastern Daylight Time),406484.7999999523,1400,I,z,1176,16,2,2591.0,403893.7999999523,9068,NTS,B,3
3,3,test,1,C,triangle.png,1,z,Tue Jun 23 2026 09:15:13 GMT-0400 (Eastern Daylight Time),408367.89999997616,1200,I,z,664,3,2,1872.2000000476837,406495.6999999285,9068,NTS,B,4
6,4,test,1,C,triangle.png,1,m,Tue Jun 23 2026 09:15:13 GMT-0400 (Eastern Daylight Time),410201.5,1000,I,m,805,13,2,1824.3000000715256,408377.1999999285,9068,NTS,B,5
8,5,test,1,C,circle.png,1,m,Tue Jun 23 2026 09:15:13 GMT-0400 (Eastern Daylight Time),412018.1999999285,1200,I,m,595,15,2,1807.5999999046326,410210.60000002384,9068,NTS,B,6
7,5,test,1,C,circle.png,0,m,Tue Jun 23 2026 09:15:13 GMT-0400 (Eastern Daylight Time),415218.0,2000,I,z,1179,14,2,3189.100000023842,412028.89999997616,9068,NTS,B,7
4,6,test,1,C,triangle.png,1,m,Tue Jun 23 2026 09:15:13 GMT-0400 (Eastern Daylight Time),417518.1999999285,1500,I,m,767,20,2,2290.399999976158,415227.7999999523,9068,NTS,B,8
9,7,test,1,C,circle.png,1,m,Tue Jun 23 2026 09:15:13 GMT-0400 (Eastern Daylight Time),419768.1999999285,1500,I,m,722,24,2,2239.899999976158,417528.2999999523,9068,NTS,B,9
2,8,test,1,C,circle.png,1,z,Tue Jun 23 2026 09:15:13 GMT-0400 (Eastern Daylight Time),422351.1999999285,1700,I,z,865,10,2,2571.5999999046326,419779.60000002384,9068,NTS,B,10
3,9,test,1,C,circle.png,1,z,Tue Jun 23 2026 09:15:13 GMT-0400 (Eastern Daylight Time),424918.2999999523,1600,I,z,941,19,2,2556.1999999284744,422362.10000002384,9068,NTS,B,11
6,10,test,1,C,circle.png,1,m,Tue Jun 23 2026 09:15:13 GMT-0400 (Eastern Daylight Time),427584.7999999523,1900,I,m,747,21,2,2657.7999999523163,424927.0,9068,NTS,B,12
9,11,test,1,C,circle.png,1,m,Tue Jun 23 2026 09:15:13 GMT-0400 (Eastern Daylight Time),429751.60000002384,1500,I,m,640,8,2,2156.9000000953674,427594.6999999285,9068,NTS,B,13
8,12,test,1,C,triangle.png,1,m,Tue Jun 23 2026 09:15:13 GMT-0400 (Eastern Daylight Time),432668.10000002384,1600,I,m,1285,7,2,2908.100000023842,429760.0,9068,NTS,B,14
3,13,test,1,C,circle.png,1,z,Tue Jun 23 2026 09:15:13 GMT-0400 (Eastern Daylight Time),435018.10000002384,1600,I,z,720,11,2,2339.5,432678.60000002384,9068,NTS,B,15
1,14,test,1,C,triangle.png,1,z,Tue Jun 23 2026 09:15:13 GMT-0400 (Eastern Daylight Time),438068.10000002384,1900,I,z,1127,9,2,3039.4000000953674,435028.6999999285,9068,NTS,B,16
1,15,test,1,C,triangle.png,1,z,Tue Jun 23 2026 09:15:13 GMT-0400 (Eastern Daylight Time),440768.0,1900,I,z,780,17,2,2690.8000000715256,438077.1999999285,9068,NTS,B,17
1,16,test,1,C,circle.png,1,z,Tue Jun 23 2026 09:15:13 GMT-0400 (Eastern Daylight Time),442668.1999999285,1000,I,z,869,1,2,1892.6999999284744,440775.5,9068,NTS,B,18
2,17,test,1,C,triangle.png,1,m,Tue Jun 23 2026 09:15:13 GMT-0400 (Eastern Daylight Time),445401.60000002384,2000,I,m,706,2,2,2722.600000023842,442679.0,9068,NTS,B,19
7,18,test,1,C,triangle.png,1,z,Tue Jun 23 2026 09:15:13 GMT-0400 (Eastern Daylight Time),448384.60000002384,1700,I,z,1263,22,2,2972.3000000715256,445412.2999999523,9068,NTS,B,20
4,19,test,1,C,triangle.png,1,m,Tue Jun 23 2026 09:15:13 GMT-0400 (Eastern Daylight Time),450701.5,1500,I,m,784,12,2,2306.2000000476837,448395.2999999523,9068,NTS,B,21
8,20,test,1,C,triangle.png,1,m,Tue Jun 23 2026 09:15:13 GMT-0400 (Eastern Daylight Time),453534.89999997616,1600,I,m,1199,23,2,2824.5,450710.39999997616,9068,NTS,B,22
7,20,test,1,C,triangle.png,0,z,Tue Jun 23 2026 09:15:13 GMT-0400 (Eastern Daylight Time),456768.5,1700,I,None,1516,6,2,3223.0,453545.5,9068,NTS,B,23
4,20,test,1,C,circle.png,0,z,Tue Jun 23 2026 09:15:13 GMT-0400 (Eastern Daylight Time),458818.10000002384,1400,I,m,629,4,2,2037.2000000476837,456780.89999997616,9068,NTS,B,24
7,1,test,2,C,circle.png,1,m,Tue Jun 23 2026 09:15:13 GMT-0400 (Eastern Daylight Time),464035.0,2000,I,m,1228,14,2,3242.100000023842,460792.89999997616,9068,NTS,B,1
8,2,test,2,C,triangle.png,1,m,Tue Jun 23 2026 09:15:13 GMT-0400 (Eastern Daylight Time),467151.39999997616,1600,I,m,1499,7,2,3105.2000000476837,464046.1999999285,9068,NTS,B,2
4,3,test,2,C,triangle.png,1,m,Tue Jun 23 2026 09:15:13 GMT-0400 (Eastern Daylight Time),469884.89999997616,1500,I,m,1201,12,2,2722.600000023842,467162.2999999523,9068,NTS,B,3
4,3,test,2,C,triangle.png,0,m,Tue Jun 23 2026 09:15:13 GMT-0400 (Eastern Daylight Time),472918.39999997616,1500,I,None,1516,20,2,3022.399999976158,469896.0,9068,NTS,B,4
7,4,test,2,C,triangle.png,1,z,Tue Jun 23 2026 09:15:13 GMT-0400 (Eastern Daylight Time),475718.2999999523,1700,I,z,1074,6,2,2790.7999999523163,472927.5,9068,NTS,B,5
9,5,test,2,C,circle.png,1,m,Tue Jun 23 2026 09:15:13 GMT-0400 (Eastern Daylight Time),478168.2999999523,1500,I,m,924,8,2,2438.100000023842,475730.1999999285,9068,NTS,B,6
2,6,test,2,C,triangle.png,1,m,Tue Jun 23 2026 09:15:13 GMT-0400 (Eastern Daylight Time),481451.5,2000,I,m,1253,2,2,3272.7000000476837,478178.7999999523,9068,NTS,B,7
3,7,test,2,C,circle.png,1,z,Tue Jun 23 2026 09:15:13 GMT-0400 (Eastern Daylight Time),483751.60000002384,1600,I,z,673,11,2,2291.600000023842,481460.0,9068,NTS,B,8
8,8,test,2,C,circle.png,1,m,Tue Jun 23 2026 09:15:13 GMT-0400 (Eastern Daylight Time),485934.89999997616,1200,I,m,965,23,2,2172.5,483762.39999997616,9068,NTS,B,9
8,9,test,2,C,circle.png,1,m,Tue Jun 23 2026 09:15:13 GMT-0400 (Eastern Daylight Time),488001.39999997616,1200,I,m,846,15,2,2055.399999976158,485946.0,9068,NTS,B,10
3,10,test,2,C,circle.png,1,z,Tue Jun 23 2026 09:15:13 GMT-0400 (Eastern Daylight Time),490468.1999999285,1600,I,z,843,19,2,2456.5999999046326,488011.60000002384,9068,NTS,B,11
9,10,test,2,C,triangle.png,0,z,Tue Jun 23 2026 09:15:13 GMT-0400 (Eastern Daylight Time),493401.60000002384,1400,I,None,1516,24,2,2924.3000000715256,490477.2999999523,9068,NTS,B,12
6,11,test,2,C,triangle.png,1,m,Tue Jun 23 2026 09:15:13 GMT-0400 (Eastern Daylight Time),495584.60000002384,1000,I,m,1163,21,2,2174.5,493410.10000002384,9068,NTS,B,13
2,12,test,2,C,circle.png,1,z,Tue Jun 23 2026 09:15:13 GMT-0400 (Eastern Daylight Time),498168.1999999285,1700,I,z,856,10,2,2574.7999999523163,495593.39999997616,9068,NTS,B,14
2,13,test,2,C,circle.png,1,z,Tue Jun 23 2026 09:15:13 GMT-0400 (Eastern Daylight Time),500534.89999997616,1700,I,z,642,18,2,2355.7999999523163,498179.10000002384,9068,NTS,B,15
4,14,test,2,C,circle.png,1,z,Tue Jun 23 2026 09:15:13 GMT-0400 (Eastern Daylight Time),503334.89999997616,1400,I,z,1374,4,2,2785.7999999523163,500549.10000002384,9068,NTS,B,16
1,15,test,2,C,triangle.png,1,z,Tue Jun 23 2026 09:15:13 GMT-0400 (Eastern Daylight Time),505935.0,1900,I,z,650,9,2,2582.5,503352.5,9068,NTS,B,17
6,16,test,2,C,triangle.png,1,m,Tue Jun 23 2026 09:15:13 GMT-0400 (Eastern Daylight Time),507634.89999997616,1000,I,m,678,13,2,1690.8999999761581,505944.0,9068,NTS,B,18
1,17,test,2,C,circle.png,1,z,Tue Jun 23 2026 09:15:13 GMT-0400 (Eastern Daylight Time),509268.1999999285,1000,I,z,610,1,2,1622.2999999523163,507645.89999997616,9068,NTS,B,19
3,18,test,2,C,triangle.png,1,z,Tue Jun 23 2026 09:15:13 GMT-0400 (Eastern Daylight Time),511618.1999999285,1200,I,z,1130,3,2,2338.399999976158,509279.7999999523,9068,NTS,B,20
7,19,test,2,C,circle.png,1,m,Tue Jun 23 2026 09:15:13 GMT-0400 (Eastern Daylight Time),514318.2999999523,2000,I,m,667,22,2,2690.399999976158,511627.89999997616,9068,NTS,B,21
1,20,test,2,C,triangle.png,1,z,Tue Jun 23 2026 09:15:13 GMT-0400 (Eastern Daylight Time),517251.60000002384,1900,I,z,1011,17,2,2923.3000000715256,514328.2999999523,9068,NTS,B,22
9,21,test,2,C,triangle.png,1,z,Tue Jun 23 2026 09:15:13 GMT-0400 (Eastern Daylight Time),519751.60000002384,1400,I,z,1073,16,2,2490.7000000476837,517260.89999997616,9068,NTS,B,23
6,22,test,2,C,circle.png,1,m,Tue Jun 23 2026 09:15:13 GMT-0400 (Eastern Daylight Time),522468.1999999285,1900,I,m,793,5,2,2707.0,519761.1999999285,9068,NTS,B,24
8,0,test,3,C,triangle.png,0,m,Tue Jun 23 2026 09:15:13 GMT-0400 (Eastern Daylight Time),526551.6999999285,1600,I,z,1306,7,2,2925.2999999523163,523626.39999997616,9068,NTS,B,1
1,1,test,3,C,triangle.png,1,z,Tue Jun 23 2026 09:15:13 GMT-0400 (Eastern Daylight Time),529568.0,1900,I,z,1097,9,2,3005.3000000715256,526562.6999999285,9068,NTS,B,2
6,2,test,3,C,circle.png,1,m,Tue Jun 23 2026 09:15:13 GMT-0400 (Eastern Daylight Time),532534.8999999762,1900,I,m,1041,21,2,2958.2000000476837,529576.6999999285,9068,NTS,B,3
6,3,test,3,C,triangle.png,1,m,Tue Jun 23 2026 09:15:13 GMT-0400 (Eastern Daylight Time),534384.6999999285,1000,I,m,830,13,2,1839.0999999046326,532545.6000000238,9068,NTS,B,4
1,4,test,3,C,circle.png,1,z,Tue Jun 23 2026 09:15:13 GMT-0400 (Eastern Daylight Time),536401.5,1000,I,z,996,1,2,2008.6000000238419,534392.8999999762,9068,NTS,B,5
7,5,test,3,C,circle.png,1,m,Tue Jun 23 2026 09:15:13 GMT-0400 (Eastern Daylight Time),539101.5,2000,I,m,667,14,2,2690.899999976158,536410.6000000238,9068,NTS,B,6
2,6,test,3,C,triangle.png,1,m,Tue Jun 23 2026 09:15:13 GMT-0400 (Eastern Daylight Time),541901.6000000238,2000,I,m,767,18,2,2788.8000000715256,539112.7999999523,9068,NTS,B,7
3,7,test,3,C,triangle.png,1,z,Tue Jun 23 2026 09:15:13 GMT-0400 (Eastern Daylight Time),543784.8999999762,1200,I,z,656,3,2,1872.5,541912.3999999762,9068,NTS,B,8
6,8,test,3,C,circle.png,1,m,Tue Jun 23 2026 09:15:13 GMT-0400 (Eastern Daylight Time),546284.8999999762,1900,I,m,568,5,2,2489.899999976158,543795.0,9068,NTS,B,9
7,9,test,3,C,triangle.png,1,z,Tue Jun 23 2026 09:15:13 GMT-0400 (Eastern Daylight Time),549001.6000000238,1700,I,z,988,22,2,2707.2000000476837,546294.3999999762,9068,NTS,B,10
4,9,test,3,C,circle.png,0,z,Tue Jun 23 2026 09:15:13 GMT-0400 (Eastern Daylight Time),551268.2999999523,1400,I,m,843,20,2,2257.2999999523163,549011.0,9068,NTS,B,11
2,10,test,3,C,circle.png,1,z,Tue Jun 23 2026 09:15:13 GMT-0400 (Eastern Daylight Time),553668.1999999285,1700,I,z,676,10,2,2388.2999999523163,551279.8999999762,9068,NTS,B,12
3,11,test,3,C,circle.png,1,z,Tue Jun 23 2026 09:15:13 GMT-0400 (Eastern Daylight Time),556001.3999999762,1600,I,z,713,11,2,2323.7999999523163,553677.6000000238,9068,NTS,B,13
3,12,test,3,C,triangle.png,1,z,Tue Jun 23 2026 09:15:13 GMT-0400 (Eastern Daylight Time),558335.0,1200,I,z,1100,19,2,2322.899999976158,556012.1000000238,9068,NTS,B,14
9,13,test,3,C,circle.png,1,m,Tue Jun 23 2026 09:15:13 GMT-0400 (Eastern Daylight Time),560701.6000000238,1500,I,m,834,8,2,2356.100000023842,558345.5,9068,NTS,B,15
8,14,test,3,C,triangle.png,1,m,Tue Jun 23 2026 09:15:13 GMT-0400 (Eastern Daylight Time),563501.6000000238,1600,I,m,1167,23,2,2788.600000023842,560713.0,9068,NTS,B,16
1,15,test,3,C,circle.png,1,z,Tue Jun 23 2026 09:15:13 GMT-0400 (Eastern Daylight Time),565501.6000000238,1000,I,z,967,17,2,1990.1000000238419,563511.5,9068,NTS,B,17
4,16,test,3,C,triangle.png,1,m,Tue Jun 23 2026 09:15:13 GMT-0400 (Eastern Daylight Time),568034.8999999762,1500,I,m,1012,12,2,2522.0,565512.8999999762,9068,NTS,B,18
9,17,test,3,C,triangle.png,1,z,Tue Jun 23 2026 09:15:13 GMT-0400 (Eastern Daylight Time),570201.6000000238,1400,I,z,738,16,2,2157.5,568044.1000000238,9068,NTS,B,19
8,18,test,3,C,circle.png,1,m,Tue Jun 23 2026 09:15:13 GMT-0400 (Eastern Daylight Time),572151.3999999762,1200,I,m,723,15,2,1939.2000000476837,570212.1999999285,9068,NTS,B,20
4,19,test,3,C,circle.png,1,z,Tue Jun 23 2026 09:15:13 GMT-0400 (Eastern Daylight Time),574251.5,1400,I,z,669,4,2,2090.2000000476837,572161.2999999523,9068,NTS,B,21
2,20,test,3,C,triangle.png,1,m,Tue Jun 23 2026 09:15:13 GMT-0400 (Eastern Daylight Time),577201.3999999762,2000,I,m,929,2,2,2935.7000000476837,574265.6999999285,9068,NTS,B,22
7,21,test,3,C,triangle.png,1,z,Tue Jun 23 2026 09:15:13 GMT-0400 (Eastern Daylight Time),579701.5,1700,I,z,776,6,2,2489.3000000715256,577212.1999999285,9068,NTS,B,23
9,22,test,3,C,circle.png,1,m,Tue Jun 23 2026 09:15:13 GMT-0400 (Eastern Daylight Time),582234.8999999762,1500,I,m,1003,24,2,2523.7000000476837,579711.1999999285,9068,NTS,B,24
2,1,test,4,C,circle.png,1,z,Tue Jun 23 2026 09:15:13 GMT-0400 (Eastern Daylight Time),586335.1000000238,1700,I,z,1034,10,2,2759.0,583576.1000000238,9068,NTS,B,1
6,2,test,4,C,circle.png,1,m,Tue Jun 23 2026 09:15:13 GMT-0400 (Eastern Daylight Time),589135.0,1900,I,m,883,5,2,2790.8000000715256,586344.1999999285,9068,NTS,B,2
4,3,test,4,C,circle.png,1,z,Tue Jun 23 2026 09:15:13 GMT-0400 (Eastern Daylight Time),591384.8999999762,1400,I,z,823,20,2,2238.100000023842,589146.7999999523,9068,NTS,B,3
8,4,test,4,C,triangle.png,1,m,Tue Jun 23 2026 09:15:13 GMT-0400 (Eastern Daylight Time),593718.2999999523,1600,I,m,708,23,2,2321.399999976158,591396.8999999762,9068,NTS,B,4
9,5,test,4,C,triangle.png,1,z,Tue Jun 23 2026 09:15:13 GMT-0400 (Eastern Daylight Time),595918.2999999523,1400,I,z,766,16,2,2191.0,593727.2999999523,9068,NTS,B,5
4,6,test,4,C,triangle.png,1,m,Tue Jun 23 2026 09:15:13 GMT-0400 (Eastern Daylight Time),598401.5,1500,I,m,962,12,2,2474.100000023842,595927.3999999762,9068,NTS,B,6
7,7,test,4,C,triangle.png,1,z,Tue Jun 23 2026 09:15:13 GMT-0400 (Eastern Daylight Time),600918.1000000238,1700,I,z,791,6,2,2507.0,598411.1000000238,9068,NTS,B,7
7,8,test,4,C,circle.png,1,m,Tue Jun 23 2026 09:15:13 GMT-0400 (Eastern Daylight Time),603618.1000000238,2000,I,m,680,14,2,2691.0,600927.1000000238,9068,NTS,B,8
7,9,test,4,C,triangle.png,1,z,Tue Jun 23 2026 09:15:13 GMT-0400 (Eastern Daylight Time),606501.6000000238,1700,I,z,1159,22,2,2871.5,603630.1000000238,9068,NTS,B,9
3,10,test,4,C,triangle.png,1,z,Tue Jun 23 2026 09:15:13 GMT-0400 (Eastern Daylight Time),608601.5,1200,I,z,871,3,2,2091.3000000715256,606510.1999999285,9068,NTS,B,10
9,11,test,4,C,circle.png,1,m,Tue Jun 23 2026 09:15:13 GMT-0400 (Eastern Daylight Time),611001.6000000238,1500,I,m,871,24,2,2389.4000000953674,608612.1999999285,9068,NTS,B,11
2,12,test,4,C,triangle.png,1,m,Tue Jun 23 2026 09:15:13 GMT-0400 (Eastern Daylight Time),614168.2999999523,2000,I,m,1140,18,2,3156.600000023842,611011.6999999285,9068,NTS,B,12
6,13,test,4,C,circle.png,1,m,Tue Jun 23 2026 09:15:13 GMT-0400 (Eastern Daylight Time),617201.5,1900,I,m,1112,21,2,3021.7000000476837,614179.7999999523,9068,NTS,B,13
8,14,test,4,C,circle.png,1,m,Tue Jun 23 2026 09:15:13 GMT-0400 (Eastern Daylight Time),619001.5,1200,I,m,571,15,2,1790.5,617211.0,9068,NTS,B,14
4,14,test,4,C,circle.png,0,z,Tue Jun 23 2026 09:15:13 GMT-0400 (Eastern Daylight Time),621168.0,1400,I,m,748,4,2,2157.600000023842,619010.3999999762,9068,NTS,B,15
1,15,test,4,C,circle.png,1,z,Tue Jun 23 2026 09:15:13 GMT-0400 (Eastern Daylight Time),622818.1999999285,1000,I,z,629,1,2,1637.6999999284744,621180.5,9068,NTS,B,16
9,16,test,4,C,circle.png,1,m,Tue Jun 23 2026 09:15:13 GMT-0400 (Eastern Daylight Time),624951.5,1500,I,m,607,8,2,2123.899999976158,622827.6000000238,9068,NTS,B,17
3,17,test,4,C,triangle.png,1,z,Tue Jun 23 2026 09:15:13 GMT-0400 (Eastern Daylight Time),627184.6000000238,1200,I,z,1013,19,2,2222.0,624962.6000000238,9068,NTS,B,18
6,18,test,4,C,triangle.png,1,m,Tue Jun 23 2026 09:15:13 GMT-0400 (Eastern Daylight Time),628984.7999999523,1000,I,m,772,13,2,1789.7999999523163,627195.0,9068,NTS,B,19
1,19,test,4,C,triangle.png,1,z,Tue Jun 23 2026 09:15:13 GMT-0400 (Eastern Daylight Time),631568.0,1900,I,z,664,9,2,2571.399999976158,628996.6000000238,9068,NTS,B,20
3,20,test,4,C,circle.png,1,z,Tue Jun 23 2026 09:15:13 GMT-0400 (Eastern Daylight Time),634134.8999999762,1600,I,z,941,11,2,2558.399999976158,631576.5,9068,NTS,B,21
2,21,test,4,C,triangle.png,1,m,Tue Jun 23 2026 09:15:13 GMT-0400 (Eastern Daylight Time),637134.6999999285,2000,I,m,967,2,2,2989.2999999523163,634145.3999999762,9068,NTS,B,22
1,22,test,4,C,circle.png,1,z,Tue Jun 23 2026 09:15:13 GMT-0400 (Eastern Daylight Time),639184.6999999285,1000,I,z,1030,17,2,2033.8999999761581,637150.7999999523,9068,NTS,B,23
8,23,test,4,C,triangle.png,1,m,Tue Jun 23 2026 09:15:13 GMT-0400 (Eastern Daylight Time),641734.8999999762,1600,I,m,925,7,2,2540.2000000476837,639194.6999999285,9068,NTS,B,24
