block_c,block_dur,condition,countdown,datetime,endtime,list,multichar_response,project,response,response_time,session_number,start_end,starttime,subject_id,task,task_vers,trial
,,,,Tue Jun 16 2026 11:54:47 GMT-0500 (Central Daylight Time),,,,I,space,759,2,,,8103,WL,C,
prac,,0,,Tue Jun 16 2026 11:54:47 GMT-0500 (Central Daylight Time),,NA,b,I,b,1543,2,,,8103,WL,C,1.0
prac,,0,,Tue Jun 16 2026 11:54:47 GMT-0500 (Central Daylight Time),,NA,bi,I,i,316,2,,,8103,WL,C,1.0
prac,,0,,Tue Jun 16 2026 11:54:47 GMT-0500 (Central Daylight Time),,NA,bii,I,i,191,2,,,8103,WL,C,1.0
prac,,0,,Tue Jun 16 2026 11:54:47 GMT-0500 (Central Daylight Time),,NA,bi,I,backspace,927,2,,,8103,WL,C,1.0
prac,,0,,Tue Jun 16 2026 11:54:47 GMT-0500 (Central Daylight Time),,NA,b,I,backspace,204,2,,,8103,WL,C,1.0
prac,,0,,Tue Jun 16 2026 11:54:47 GMT-0500 (Central Daylight Time),,NA,bo,I,o,659,2,,,8103,WL,C,1.0
prac,,0,,Tue Jun 16 2026 11:54:47 GMT-0500 (Central Daylight Time),,NA,boo,I,o,152,2,,,8103,WL,C,1.0
prac,,0,,Tue Jun 16 2026 11:54:47 GMT-0500 (Central Daylight Time),,NA,boos,I,s,129,2,,,8103,WL,C,1.0
prac,,0,,Tue Jun 16 2026 11:54:47 GMT-0500 (Central Daylight Time),,NA,boost,I,t,220,2,,,8103,WL,C,1.0
prac,,0,,Tue Jun 16 2026 11:54:47 GMT-0500 (Central Daylight Time),,NA,boostenter,I,enter,634,2,,,8103,WL,C,1.0
1,1.3329999446868896,learn,58667.00005531311,Tue Jun 16 2026 11:54:47 GMT-0500 (Central Daylight Time),121267.60000002384,A,s,I,s,1325,2,1332.3999999761581,119935.20000004768,8103,WL,C,1.0
1,1.4829998016357422,learn,58517.00019836426,Tue Jun 16 2026 11:54:47 GMT-0500 (Central Daylight Time),121417.40000003576,A,sh,I,h,135,2,1482.199999988079,119935.20000004768,8103,WL,C,1.0
1,1.5829999446868896,learn,58417.00005531311,Tue Jun 16 2026 11:54:47 GMT-0500 (Central Daylight Time),121517.5,A,sho,I,o,82,2,1582.2999999523163,119935.20000004768,8103,WL,C,1.0
1,1.7659997940063477,learn,58234.00020599365,Tue Jun 16 2026 11:54:47 GMT-0500 (Central Daylight Time),121700.60000002384,A,shor,I,r,173,2,1765.3999999761581,119935.20000004768,8103,WL,C,1.0
1,1.8499999046325684,learn,58150.00009536743,Tue Jun 16 2026 11:54:47 GMT-0500 (Central Daylight Time),121784.30000001192,A,shore,I,e,71,2,1849.0999999642372,119935.20000004768,8103,WL,C,1.0
1,2.3499999046325684,learn,57650.00009536743,Tue Jun 16 2026 11:54:47 GMT-0500 (Central Daylight Time),122283.90000003576,A,shoreenter,I,enter,483,2,2348.699999988079,119935.20000004768,8103,WL,C,1.0
1,3.0329999923706055,learn,56967.000007629395,Tue Jun 16 2026 11:54:47 GMT-0500 (Central Daylight Time),122966.90000003576,A,b,I,b,663,2,682.6999999880791,122284.20000004768,8103,WL,C,2.0
1,3.2159998416900635,learn,56784.00015830994,Tue Jun 16 2026 11:54:47 GMT-0500 (Central Daylight Time),123150.20000004768,A,bo,I,o,164,2,866.0,122284.20000004768,8103,WL,C,2.0
1,3.382999897003174,learn,56617.000102996826,Tue Jun 16 2026 11:54:47 GMT-0500 (Central Daylight Time),123316.90000003576,A,bod,I,d,157,2,1032.699999988079,122284.20000004768,8103,WL,C,2.0
1,3.565999984741211,learn,56434.00001525879,Tue Jun 16 2026 11:54:47 GMT-0500 (Central Daylight Time),123500.10000002384,A,body,I,y,166,2,1215.8999999761581,122284.20000004768,8103,WL,C,2.0
1,3.881999969482422,learn,56118.00003051758,Tue Jun 16 2026 11:54:47 GMT-0500 (Central Daylight Time),123816.80000001192,A,bodyenter,I,enter,303,2,1532.5999999642372,122284.20000004768,8103,WL,C,2.0
1,4.48199987411499,learn,55518.00012588501,Tue Jun 16 2026 11:54:47 GMT-0500 (Central Daylight Time),124416.40000003576,A,t,I,t,587,2,599.3000000119209,123817.10000002384,8103,WL,C,3.0
1,4.631999969482422,learn,55368.00003051758,Tue Jun 16 2026 11:54:47 GMT-0500 (Central Daylight Time),124566.40000003576,A,to,I,o,139,2,749.3000000119209,123817.10000002384,8103,WL,C,3.0
1,4.931999921798706,learn,55068.000078201294,Tue Jun 16 2026 11:54:47 GMT-0500 (Central Daylight Time),124866.40000003576,A,tow,I,w,284,2,1049.300000011921,123817.10000002384,8103,WL,C,3.0
1,5.431999921798706,learn,54568.000078201294,Tue Jun 16 2026 11:54:47 GMT-0500 (Central Daylight Time),125366.20000004768,A,towe,I,e,489,2,1549.1000000238419,123817.10000002384,8103,WL,C,3.0
1,5.597999811172485,learn,54402.000188827515,Tue Jun 16 2026 11:54:47 GMT-0500 (Central Daylight Time),125532.70000004768,A,tower,I,r,149,2,1715.6000000238419,123817.10000002384,8103,WL,C,3.0
1,5.881999969482422,learn,54118.00003051758,Tue Jun 16 2026 11:54:47 GMT-0500 (Central Daylight Time),125816.0,A,towerenter,I,enter,271,2,1998.8999999761581,123817.10000002384,8103,WL,C,3.0
1,6.281999826431274,learn,53718.000173568726,Tue Jun 16 2026 11:54:47 GMT-0500 (Central Daylight Time),126215.90000003576,A,w,I,w,379,2,399.30000001192093,125816.60000002384,8103,WL,C,4.0
1,6.5309998989105225,learn,53469.00010108948,Tue Jun 16 2026 11:54:47 GMT-0500 (Central Daylight Time),126465.80000001192,A,wh,I,h,236,2,649.1999999880791,125816.60000002384,8103,WL,C,4.0
1,6.681999921798706,learn,53318.000078201294,Tue Jun 16 2026 11:54:47 GMT-0500 (Central Daylight Time),126616.10000002384,A,whe,I,e,130,2,799.5,125816.60000002384,8103,WL,C,4.0
1,6.931999921798706,learn,53068.000078201294,Tue Jun 16 2026 11:54:47 GMT-0500 (Central Daylight Time),126866.10000002384,A,whea,I,a,229,2,1049.5,125816.60000002384,8103,WL,C,4.0
1,7.331999778747559,learn,52668.00022125244,Tue Jun 16 2026 11:54:47 GMT-0500 (Central Daylight Time),127266.0,A,wheat,I,t,379,2,1449.3999999761581,125816.60000002384,8103,WL,C,4.0
1,7.764999866485596,learn,52235.000133514404,Tue Jun 16 2026 11:54:47 GMT-0500 (Central Daylight Time),127698.80000001192,A,wheatenter,I,enter,427,2,1882.199999988079,125816.60000002384,8103,WL,C,4.0
1,8.148000001907349,learn,51851.99999809265,Tue Jun 16 2026 11:54:47 GMT-0500 (Central Daylight Time),128082.10000002384,A,c,I,c,362,2,382.89999997615814,127699.20000004768,8103,WL,C,5.0
1,8.297999858856201,learn,51702.0001411438,Tue Jun 16 2026 11:54:47 GMT-0500 (Central Daylight Time),128232.40000003576,A,co,I,o,138,2,533.1999999880791,127699.20000004768,8103,WL,C,5.0
1,8.46399998664856,learn,51536.00001335144,Tue Jun 16 2026 11:54:47 GMT-0500 (Central Daylight Time),128398.60000002384,A,cor,I,r,155,2,699.3999999761581,127699.20000004768,8103,WL,C,5.0
1,8.664999961853027,learn,51335.00003814697,Tue Jun 16 2026 11:54:47 GMT-0500 (Central Daylight Time),128598.90000003576,A,corn,I,n,182,2,899.6999999880791,127699.20000004768,8103,WL,C,5.0
1,8.964999914169312,learn,51035.00008583069,Tue Jun 16 2026 11:54:47 GMT-0500 (Central Daylight Time),128898.80000001192,A,cornenter,I,enter,286,2,1199.5999999642372,127699.20000004768,8103,WL,C,5.0
1,9.79699993133545,learn,50203.00006866455,Tue Jun 16 2026 11:54:47 GMT-0500 (Central Daylight Time),129731.70000004768,A,b,I,b,826,2,832.6000000238419,128899.10000002384,8103,WL,C,6.0
1,9.996999979019165,learn,50003.000020980835,Tue Jun 16 2026 11:54:47 GMT-0500 (Central Daylight Time),129931.70000004768,A,bo,I,o,192,2,1032.6000000238419,128899.10000002384,8103,WL,C,6.0
1,10.180999994277954,learn,49819.000005722046,Tue Jun 16 2026 11:54:47 GMT-0500 (Central Daylight Time),130115.0,A,boy,I,y,176,2,1215.8999999761581,128899.10000002384,8103,WL,C,6.0
1,10.464999914169312,learn,49535.00008583069,Tue Jun 16 2026 11:54:47 GMT-0500 (Central Daylight Time),130398.90000003576,A,boyenter,I,enter,273,2,1499.800000011921,128899.10000002384,8103,WL,C,6.0
1,12.163999795913696,learn,47836.000204086304,Tue Jun 16 2026 11:54:47 GMT-0500 (Central Daylight Time),132098.0,A,q,I,q,1686,2,1698.7999999523163,130399.20000004768,8103,WL,C,7.0
1,12.363999843597412,learn,47636.00015640259,Tue Jun 16 2026 11:54:47 GMT-0500 (Central Daylight Time),132298.80000001192,A,qu,I,u,179,2,1899.5999999642372,130399.20000004768,8103,WL,C,7.0
1,12.513000011444092,learn,47486.99998855591,Tue Jun 16 2026 11:54:47 GMT-0500 (Central Daylight Time),132447.70000004768,A,que,I,e,129,2,2048.5,130399.20000004768,8103,WL,C,7.0
1,12.696999788284302,learn,47303.0002117157,Tue Jun 16 2026 11:54:47 GMT-0500 (Central Daylight Time),132630.90000003576,A,quee,I,e,173,2,2231.699999988079,130399.20000004768,8103,WL,C,7.0
1,12.829999923706055,learn,47170.000076293945,Tue Jun 16 2026 11:54:47 GMT-0500 (Central Daylight Time),132764.30000001192,A,queen,I,n,126,2,2365.099999964237,130399.20000004768,8103,WL,C,7.0
1,13.11299991607666,learn,46887.00008392334,Tue Jun 16 2026 11:54:47 GMT-0500 (Central Daylight Time),133047.40000003576,A,queenenter,I,enter,271,2,2648.199999988079,130399.20000004768,8103,WL,C,7.0
1,18.277999877929688,learn,41722.00012207031,Tue Jun 16 2026 11:54:47 GMT-0500 (Central Daylight Time),138212.5,A,d,I,d,5149,2,5164.699999988079,133047.80000001192,8103,WL,C,8.0
1,18.544999837875366,learn,41455.000162124634,Tue Jun 16 2026 11:54:47 GMT-0500 (Central Daylight Time),138479.20000004768,A,do,I,o,257,2,5431.400000035763,133047.80000001192,8103,WL,C,8.0
1,18.728999853134155,learn,41271.000146865845,Tue Jun 16 2026 11:54:47 GMT-0500 (Central Daylight Time),138663.5,A,doc,I,c,173,2,5615.699999988079,133047.80000001192,8103,WL,C,8.0
1,19.027999877929688,learn,40972.00012207031,Tue Jun 16 2026 11:54:47 GMT-0500 (Central Daylight Time),138962.10000002384,A,doct,I,t,292,2,5914.300000011921,133047.80000001192,8103,WL,C,8.0
1,19.210999965667725,learn,40789.000034332275,Tue Jun 16 2026 11:54:47 GMT-0500 (Central Daylight Time),139145.40000003576,A,docto,I,o,170,2,6097.600000023842,133047.80000001192,8103,WL,C,8.0
1,19.394999980926514,learn,40605.000019073486,Tue Jun 16 2026 11:54:47 GMT-0500 (Central Daylight Time),139328.90000003576,A,doctor,I,r,172,2,6281.100000023842,133047.80000001192,8103,WL,C,8.0
1,19.727999925613403,learn,40272.0000743866,Tue Jun 16 2026 11:54:47 GMT-0500 (Central Daylight Time),139662.10000002384,A,doctorenter,I,enter,316,2,6614.300000011921,133047.80000001192,8103,WL,C,8.0
1,56.58299994468689,learn,3417.0000553131104,Tue Jun 16 2026 11:54:47 GMT-0500 (Central Daylight Time),176517.0,A,w,I,w,36839,2,36854.5,139662.5,8103,WL,C,9.0
1,56.799999952316284,learn,3200.000047683716,Tue Jun 16 2026 11:54:47 GMT-0500 (Central Daylight Time),176734.0,A,wh,I,h,200,2,37071.5,139662.5,8103,WL,C,9.0
1,56.96599984169006,learn,3034.0001583099365,Tue Jun 16 2026 11:54:47 GMT-0500 (Central Daylight Time),176900.30000001192,A,whe,I,e,151,2,37237.80000001192,139662.5,8103,WL,C,9.0
1,57.31599998474121,learn,2684.000015258789,Tue Jun 16 2026 11:54:47 GMT-0500 (Central Daylight Time),177250.40000003576,A,whea,I,a,329,2,37587.90000003576,139662.5,8103,WL,C,9.0
1,57.51599979400635,learn,2484.0002059936523,Tue Jun 16 2026 11:54:47 GMT-0500 (Central Daylight Time),177450.10000002384,A,wheat,I,t,179,2,37787.60000002384,139662.5,8103,WL,C,9.0
1,57.906999826431274,learn,2093.0001735687256,Tue Jun 16 2026 11:54:47 GMT-0500 (Central Daylight Time),177841.10000002384,A,wheatenter,I,enter,258,2,38178.60000002384,139662.5,8103,WL,C,9.0
1,60.01599979400635,learn,-15.999794006347656,Tue Jun 16 2026 11:54:47 GMT-0500 (Central Daylight Time),179950.70000004768,A,None,I,None,2105,2,2109.2000000476837,177841.5,8103,WL,C,10.0
2,1.8300001621246338,learn,58169.999837875366,Tue Jun 16 2026 11:54:47 GMT-0500 (Central Daylight Time),248674.40000003576,A,b,I,b,1678,2,1829.0,246845.40000003576,8103,WL,C,1.0
2,2.1660001277923584,learn,57833.99987220764,Tue Jun 16 2026 11:54:47 GMT-0500 (Central Daylight Time),249010.80000001192,A,bo,I,o,320,2,2165.399999976158,246845.40000003576,8103,WL,C,1.0
2,2.315999984741211,learn,57684.00001525879,Tue Jun 16 2026 11:54:47 GMT-0500 (Central Daylight Time),249161.0,A,bod,I,d,129,2,2315.599999964237,246845.40000003576,8103,WL,C,1.0
2,2.5829999446868896,learn,57417.00005531311,Tue Jun 16 2026 11:54:47 GMT-0500 (Central Daylight Time),249427.60000002384,A,body,I,y,252,2,2582.199999988079,246845.40000003576,8103,WL,C,1.0
2,3.115999937057495,learn,56884.000062942505,Tue Jun 16 2026 11:54:47 GMT-0500 (Central Daylight Time),249961.0,A,bodyenter,I,enter,512,2,3115.599999964237,246845.40000003576,8103,WL,C,1.0
2,3.615999937057495,learn,56384.000062942505,Tue Jun 16 2026 11:54:47 GMT-0500 (Central Daylight Time),250460.80000001192,A,s,I,s,492,2,499.5,249961.30000001192,8103,WL,C,2.0
2,3.749000072479248,learn,56250.99992752075,Tue Jun 16 2026 11:54:47 GMT-0500 (Central Daylight Time),250593.90000003576,A,sh,I,h,127,2,632.6000000238419,249961.30000001192,8103,WL,C,2.0
2,3.9160001277923584,learn,56083.99987220764,Tue Jun 16 2026 11:54:47 GMT-0500 (Central Daylight Time),250760.70000004768,A,sho,I,o,153,2,799.4000000357628,249961.30000001192,8103,WL,C,2.0
2,4.065999984741211,learn,55934.00001525879,Tue Jun 16 2026 11:54:47 GMT-0500 (Central Daylight Time),250910.70000004768,A,shor,I,r,132,2,949.4000000357628,249961.30000001192,8103,WL,C,2.0
2,4.148999929428101,learn,55851.0000705719,Tue Jun 16 2026 11:54:47 GMT-0500 (Central Daylight Time),250993.70000004768,A,shore,I,e,61,2,1032.4000000357628,249961.30000001192,8103,WL,C,2.0
2,4.449000120162964,learn,55550.999879837036,Tue Jun 16 2026 11:54:47 GMT-0500 (Central Daylight Time),251293.60000002384,A,shoreenter,I,enter,282,2,1332.300000011921,249961.30000001192,8103,WL,C,2.0
2,4.815000057220459,learn,55184.99994277954,Tue Jun 16 2026 11:54:47 GMT-0500 (Central Daylight Time),251659.90000003576,A,n,I,n,359,2,366.0,251293.90000003576,8103,WL,C,3.0
2,4.898999929428101,learn,55101.0000705719,Tue Jun 16 2026 11:54:47 GMT-0500 (Central Daylight Time),251743.5,A,na,I,a,71,2,449.5999999642372,251293.90000003576,8103,WL,C,3.0
2,5.065999984741211,learn,54934.00001525879,Tue Jun 16 2026 11:54:47 GMT-0500 (Central Daylight Time),251910.30000001192,A,nai,I,i,148,2,616.3999999761581,251293.90000003576,8103,WL,C,3.0
2,5.2820000648498535,learn,54717.99993515015,Tue Jun 16 2026 11:54:47 GMT-0500 (Central Daylight Time),252126.90000003576,A,nail,I,l,198,2,833.0,251293.90000003576,8103,WL,C,3.0
2,5.7820000648498535,learn,54217.99993515015,Tue Jun 16 2026 11:54:47 GMT-0500 (Central Daylight Time),252626.60000002384,A,nailenter,I,enter,485,2,1332.699999988079,251293.90000003576,8103,WL,C,3.0
2,6.315000057220459,learn,53684.99994277954,Tue Jun 16 2026 11:54:47 GMT-0500 (Central Daylight Time),253159.90000003576,A,b,I,b,513,2,532.9000000357628,252627.0,8103,WL,C,4.0
2,6.515000104904175,learn,53484.999895095825,Tue Jun 16 2026 11:54:47 GMT-0500 (Central Daylight Time),253359.90000003576,A,bo,I,o,188,2,732.9000000357628,252627.0,8103,WL,C,4.0
2,6.697999954223633,learn,53302.00004577637,Tue Jun 16 2026 11:54:47 GMT-0500 (Central Daylight Time),253543.10000002384,A,boy,I,y,172,2,916.1000000238419,252627.0,8103,WL,C,4.0
2,8.098000049591064,learn,51901.999950408936,Tue Jun 16 2026 11:54:47 GMT-0500 (Central Daylight Time),254942.5,A,boyenter,I,enter,1389,2,2315.5,252627.0,8103,WL,C,4.0
2,8.63100004196167,learn,51368.99995803833,Tue Jun 16 2026 11:54:47 GMT-0500 (Central Daylight Time),255475.70000004768,A,h,I,h,519,2,532.9000000357628,254942.80000001192,8103,WL,C,5.0
2,8.864000082015991,learn,51135.99991798401,Tue Jun 16 2026 11:54:47 GMT-0500 (Central Daylight Time),255709.0,A,ho,I,o,225,2,766.1999999880791,254942.80000001192,8103,WL,C,5.0
2,8.930999994277954,learn,51069.000005722046,Tue Jun 16 2026 11:54:47 GMT-0500 (Central Daylight Time),255775.90000003576,A,hom,I,m,55,2,833.1000000238419,254942.80000001192,8103,WL,C,5.0
2,9.647000074386597,learn,50352.9999256134,Tue Jun 16 2026 11:54:47 GMT-0500 (Central Daylight Time),256491.90000003576,A,home,I,e,709,2,1549.1000000238419,254942.80000001192,8103,WL,C,5.0
2,10.13100004196167,learn,49868.99995803833,Tue Jun 16 2026 11:54:47 GMT-0500 (Central Daylight Time),256975.30000001192,A,homeenter,I,enter,473,2,2032.5,254942.80000001192,8103,WL,C,5.0
2,10.347000122070312,learn,49652.99987792969,Tue Jun 16 2026 11:54:47 GMT-0500 (Central Daylight Time),257191.70000004768,A,d,I,d,196,2,216.10000002384186,256975.60000002384,8103,WL,C,6.0
2,10.52999997138977,learn,49470.00002861023,Tue Jun 16 2026 11:54:47 GMT-0500 (Central Daylight Time),257375.20000004768,A,do,I,o,164,2,399.60000002384186,256975.60000002384,8103,WL,C,6.0
2,10.647000074386597,learn,49352.9999256134,Tue Jun 16 2026 11:54:47 GMT-0500 (Central Daylight Time),257491.70000004768,A,doc,I,c,110,2,516.1000000238419,256975.60000002384,8103,WL,C,6.0
2,10.897000074386597,learn,49102.9999256134,Tue Jun 16 2026 11:54:47 GMT-0500 (Central Daylight Time),257741.70000004768,A,doct,I,t,241,2,766.1000000238419,256975.60000002384,8103,WL,C,6.0
2,11.080000162124634,learn,48919.999837875366,Tue Jun 16 2026 11:54:47 GMT-0500 (Central Daylight Time),257925.10000002384,A,docto,I,o,175,2,949.5,256975.60000002384,8103,WL,C,6.0
2,11.263999938964844,learn,48736.000061035156,Tue Jun 16 2026 11:54:47 GMT-0500 (Central Daylight Time),258108.40000003576,A,doctor,I,r,176,2,1132.800000011921,256975.60000002384,8103,WL,C,6.0
2,11.746999979019165,learn,48253.000020980835,Tue Jun 16 2026 11:54:47 GMT-0500 (Central Daylight Time),258591.70000004768,A,doctorw,I,w,465,2,1616.1000000238419,256975.60000002384,8103,WL,C,6.0
2,12.04699993133545,learn,47953.00006866455,Tue Jun 16 2026 11:54:47 GMT-0500 (Central Daylight Time),258891.5,A,doctorwh,I,h,285,2,1915.8999999761581,256975.60000002384,8103,WL,C,6.0
2,12.246999979019165,learn,47753.000020980835,Tue Jun 16 2026 11:54:47 GMT-0500 (Central Daylight Time),259091.30000001192,A,doctorwhe,I,e,185,2,2115.699999988079,256975.60000002384,8103,WL,C,6.0
2,12.496000051498413,learn,47503.99994850159,Tue Jun 16 2026 11:54:47 GMT-0500 (Central Daylight Time),259341.10000002384,A,doctorwhea,I,a,242,2,2365.5,256975.60000002384,8103,WL,C,6.0
2,12.796000003814697,learn,47203.9999961853,Tue Jun 16 2026 11:54:47 GMT-0500 (Central Daylight Time),259641.10000002384,A,doctorwheat,I,t,279,2,2665.5,256975.60000002384,8103,WL,C,6.0
2,13.430000066757202,learn,46569.9999332428,Tue Jun 16 2026 11:54:47 GMT-0500 (Central Daylight Time),260274.30000001192,A,doctorwhea,I,backspace,619,2,3298.699999988079,256975.60000002384,8103,WL,C,6.0
2,13.595999956130981,learn,46404.00004386902,Tue Jun 16 2026 11:54:47 GMT-0500 (Central Daylight Time),260440.70000004768,A,doctorwhe,I,backspace,155,2,3465.100000023842,256975.60000002384,8103,WL,C,6.0
2,13.763000011444092,learn,46236.99998855591,Tue Jun 16 2026 11:54:47 GMT-0500 (Central Daylight Time),260607.40000003576,A,doctorwh,I,backspace,148,2,3631.800000011921,256975.60000002384,8103,WL,C,6.0
2,13.913000106811523,learn,46086.99989318848,Tue Jun 16 2026 11:54:47 GMT-0500 (Central Daylight Time),260757.5,A,doctorw,I,backspace,142,2,3781.899999976158,256975.60000002384,8103,WL,C,6.0
2,14.078999996185303,learn,45921.0000038147,Tue Jun 16 2026 11:54:47 GMT-0500 (Central Daylight Time),260924.0,A,doctor,I,backspace,160,2,3948.399999976158,256975.60000002384,8103,WL,C,6.0
2,14.42900013923645,learn,45570.99986076355,Tue Jun 16 2026 11:54:47 GMT-0500 (Central Daylight Time),261274.10000002384,A,doctorenter,I,enter,329,2,4298.5,256975.60000002384,8103,WL,C,6.0
2,14.92900013923645,learn,45070.99986076355,Tue Jun 16 2026 11:54:47 GMT-0500 (Central Daylight Time),261773.70000004768,A,w,I,w,483,2,499.30000001192093,261274.40000003576,8103,WL,C,7.0
2,15.562000036239624,learn,44437.999963760376,Tue Jun 16 2026 11:54:47 GMT-0500 (Central Daylight Time),262407.10000002384,A,wh,I,h,623,2,1132.699999988079,261274.40000003576,8103,WL,C,7.0
2,15.745000123977661,learn,44254.99987602234,Tue Jun 16 2026 11:54:47 GMT-0500 (Central Daylight Time),262590.0,A,whe,I,e,174,2,1315.5999999642372,261274.40000003576,8103,WL,C,7.0
2,16.17900013923645,learn,43820.99986076355,Tue Jun 16 2026 11:54:47 GMT-0500 (Central Daylight Time),263023.3000000119,A,whea,I,a,422,2,1748.8999999761581,261274.40000003576,8103,WL,C,7.0
2,16.462000131607056,learn,43537.999868392944,Tue Jun 16 2026 11:54:47 GMT-0500 (Central Daylight Time),263306.40000003576,A,wheat,I,t,269,2,2032.0,261274.40000003576,8103,WL,C,7.0
2,16.911999940872192,learn,43088.00005912781,Tue Jun 16 2026 11:54:47 GMT-0500 (Central Daylight Time),263756.40000003576,A,wheatenter,I,enter,434,2,2482.0,261274.40000003576,8103,WL,C,7.0
2,17.111999988555908,learn,42888.00001144409,Tue Jun 16 2026 11:54:47 GMT-0500 (Central Daylight Time),263956.40000003576,A,s,I,s,185,2,199.69999998807907,263756.7000000477,8103,WL,C,8.0
2,17.296000003814697,learn,42703.9999961853,Tue Jun 16 2026 11:54:47 GMT-0500 (Central Daylight Time),264140.90000003576,A,su,I,u,168,2,384.19999998807907,263756.7000000477,8103,WL,C,8.0
2,17.66100001335144,learn,42338.99998664856,Tue Jun 16 2026 11:54:47 GMT-0500 (Central Daylight Time),264506.10000002384,A,sug,I,g,360,2,749.3999999761581,263756.7000000477,8103,WL,C,8.0
2,17.861000061035156,learn,42138.999938964844,Tue Jun 16 2026 11:54:47 GMT-0500 (Central Daylight Time),264706.2000000477,A,suga,I,a,187,2,949.5,263756.7000000477,8103,WL,C,8.0
2,18.062000036239624,learn,41937.999963760376,Tue Jun 16 2026 11:54:47 GMT-0500 (Central Daylight Time),264906.40000003576,A,sugar,I,r,187,2,1149.699999988079,263756.7000000477,8103,WL,C,8.0
2,19.061000108718872,learn,40938.99989128113,Tue Jun 16 2026 11:54:47 GMT-0500 (Central Daylight Time),265905.7000000477,A,sugarenter,I,enter,994,2,2149.0,263756.7000000477,8103,WL,C,8.0
2,20.861000061035156,learn,39138.999938964844,Tue Jun 16 2026 11:54:47 GMT-0500 (Central Daylight Time),267705.3000000119,A,q,I,q,1779,2,1799.5,265905.8000000119,8103,WL,C,9.0
2,21.045000076293945,learn,38954.999923706055,Tue Jun 16 2026 11:54:47 GMT-0500 (Central Daylight Time),267889.5,A,qu,I,u,179,2,1983.699999988079,265905.8000000119,8103,WL,C,9.0
2,21.177000045776367,learn,38822.99995422363,Tue Jun 16 2026 11:54:47 GMT-0500 (Central Daylight Time),268021.60000002384,A,que,I,e,115,2,2115.800000011921,265905.8000000119,8103,WL,C,9.0
2,21.39400005340576,learn,38605.99994659424,Tue Jun 16 2026 11:54:47 GMT-0500 (Central Daylight Time),268238.5,A,quee,I,e,206,2,2332.699999988079,265905.8000000119,8103,WL,C,9.0
2,21.594000101089478,learn,38405.99989891052,Tue Jun 16 2026 11:54:47 GMT-0500 (Central Daylight Time),268438.40000003576,A,queen,I,n,190,2,2532.600000023842,265905.8000000119,8103,WL,C,9.0
2,22.177000045776367,learn,37822.99995422363,Tue Jun 16 2026 11:54:47 GMT-0500 (Central Daylight Time),269021.40000003576,A,queenenter,I,enter,575,2,3115.600000023842,265905.8000000119,8103,WL,C,9.0
2,34.555999994277954,learn,25444.000005722046,Tue Jun 16 2026 11:54:47 GMT-0500 (Central Daylight Time),281401.2000000477,A,c,I,c,12367,2,12379.300000011921,269021.90000003576,8103,WL,C,10.0
2,34.82299995422363,learn,25177.000045776367,Tue Jun 16 2026 11:54:47 GMT-0500 (Central Daylight Time),281667.60000002384,A,ca,I,a,251,2,12645.699999988079,269021.90000003576,8103,WL,C,10.0
2,35.039000034332275,learn,24960.999965667725,Tue Jun 16 2026 11:54:47 GMT-0500 (Central Daylight Time),281884.10000002384,A,cat,I,t,209,2,12862.199999988079,269021.90000003576,8103,WL,C,10.0
2,35.206000089645386,learn,24793.999910354614,Tue Jun 16 2026 11:54:47 GMT-0500 (Central Daylight Time),282050.90000003576,A,catt,I,t,153,2,13029.0,269021.90000003576,8103,WL,C,10.0
2,35.98900008201599,learn,24010.99991798401,Tue Jun 16 2026 11:54:47 GMT-0500 (Central Daylight Time),282833.8000000119,A,cattl,I,l,762,2,13811.899999976158,269021.90000003576,8103,WL,C,10.0
2,36.138999938964844,learn,23861.000061035156,Tue Jun 16 2026 11:54:47 GMT-0500 (Central Daylight Time),282983.8000000119,A,cattle,I,e,139,2,13961.899999976158,269021.90000003576,8103,WL,C,10.0
2,36.4060001373291,learn,23593.9998626709,Tue Jun 16 2026 11:54:47 GMT-0500 (Central Daylight Time),283250.3000000119,A,cattleenter,I,enter,245,2,14228.399999976158,269021.90000003576,8103,WL,C,10.0
2,51.401000022888184,learn,8598.999977111816,Tue Jun 16 2026 11:54:47 GMT-0500 (Central Daylight Time),298245.60000002384,A,t,I,t,14979,2,14994.899999976158,283250.7000000477,8103,WL,C,11.0
2,51.91700005531311,learn,8082.99994468689,Tue Jun 16 2026 11:54:47 GMT-0500 (Central Daylight Time),298762.3000000119,A,tw,I,w,503,2,15511.599999964237,283250.7000000477,8103,WL,C,11.0
2,52.551000118255615,learn,7448.999881744385,Tue Jun 16 2026 11:54:47 GMT-0500 (Central Daylight Time),299395.5,A,t,I,backspace,618,2,16144.799999952316,283250.7000000477,8103,WL,C,11.0
2,52.78400015830994,learn,7215.9998416900635,Tue Jun 16 2026 11:54:47 GMT-0500 (Central Daylight Time),299628.7000000477,A,to,I,o,217,2,16378.0,283250.7000000477,8103,WL,C,11.0
2,52.93400001525879,learn,7065.999984741211,Tue Jun 16 2026 11:54:47 GMT-0500 (Central Daylight Time),299778.60000002384,A,tow,I,w,136,2,16527.899999976158,283250.7000000477,8103,WL,C,11.0
2,53.10000014305115,learn,6899.9998569488525,Tue Jun 16 2026 11:54:47 GMT-0500 (Central Daylight Time),299945.2000000477,A,towe,I,e,146,2,16694.5,283250.7000000477,8103,WL,C,11.0
2,53.200000047683716,learn,6799.999952316284,Tue Jun 16 2026 11:54:47 GMT-0500 (Central Daylight Time),300045.10000002384,A,tower,I,r,92,2,16794.399999976158,283250.7000000477,8103,WL,C,11.0
2,53.51699995994568,learn,6483.000040054321,Tue Jun 16 2026 11:54:47 GMT-0500 (Central Daylight Time),300361.7000000477,A,towerenter,I,enter,303,2,17111.0,283250.7000000477,8103,WL,C,11.0
2,57.88199996948242,learn,2118.000030517578,Tue Jun 16 2026 11:54:47 GMT-0500 (Central Daylight Time),304726.90000003576,A,b,I,b,4355,2,4364.900000035763,300362.0,8103,WL,C,12.0
2,58.06500005722046,learn,1934.999942779541,Tue Jun 16 2026 11:54:47 GMT-0500 (Central Daylight Time),304910.3000000119,A,bo,I,o,173,2,4548.300000011921,300362.0,8103,WL,C,12.0
2,58.24900007247925,learn,1750.999927520752,Tue Jun 16 2026 11:54:47 GMT-0500 (Central Daylight Time),305093.60000002384,A,bod,I,d,166,2,4731.600000023842,300362.0,8103,WL,C,12.0
2,58.3989999294281,learn,1601.0000705718994,Tue Jun 16 2026 11:54:47 GMT-0500 (Central Daylight Time),305243.60000002384,A,body,I,y,135,2,4881.600000023842,300362.0,8103,WL,C,12.0
2,59.33200001716614,learn,667.9999828338623,Tue Jun 16 2026 11:54:47 GMT-0500 (Central Daylight Time),306176.7000000477,A,bod,I,backspace,913,2,5814.700000047684,300362.0,8103,WL,C,12.0
2,59.515000104904175,learn,484.9998950958252,Tue Jun 16 2026 11:54:47 GMT-0500 (Central Daylight Time),306360.2000000477,A,bo,I,backspace,165,2,5998.200000047684,300362.0,8103,WL,C,12.0
2,59.66499996185303,learn,335.00003814697266,Tue Jun 16 2026 11:54:47 GMT-0500 (Central Daylight Time),306509.90000003576,A,b,I,backspace,132,2,6147.900000035763,300362.0,8103,WL,C,12.0
2,59.81500005722046,learn,184.99994277954102,Tue Jun 16 2026 11:54:47 GMT-0500 (Central Daylight Time),306659.8000000119,A,,I,backspace,142,2,6297.800000011921,300362.0,8103,WL,C,12.0
2,59.98099994659424,learn,19.00005340576172,Tue Jun 16 2026 11:54:47 GMT-0500 (Central Daylight Time),306826.3000000119,A,,I,backspace,162,2,6464.300000011921,300362.0,8103,WL,C,12.0
2,60.015000104904175,learn,-15.000104904174805,Tue Jun 16 2026 11:54:47 GMT-0500 (Central Daylight Time),306860.40000003576,A,None,I,None,30,2,6498.400000035763,300362.0,8103,WL,C,12.0
3,1.383000135421753,learn,58616.99986457825,Tue Jun 16 2026 11:54:47 GMT-0500 (Central Daylight Time),374238.60000002384,A,b,I,b,1367,2,1382.699999988079,372855.90000003576,8103,WL,C,1.0
3,1.5499999523162842,learn,58450.000047683716,Tue Jun 16 2026 11:54:47 GMT-0500 (Central Daylight Time),374405.10000002384,A,bo,I,o,157,2,1549.199999988079,372855.90000003576,8103,WL,C,1.0
3,1.6670000553131104,learn,58332.99994468689,Tue Jun 16 2026 11:54:47 GMT-0500 (Central Daylight Time),374521.7000000477,A,bod,I,d,96,2,1665.800000011921,372855.90000003576,8103,WL,C,1.0
3,1.8840000629425049,learn,58115.999937057495,Tue Jun 16 2026 11:54:47 GMT-0500 (Central Daylight Time),374739.5,A,body,I,y,211,2,1883.5999999642372,372855.90000003576,8103,WL,C,1.0
3,2.3329999446868896,learn,57667.00005531311,Tue Jun 16 2026 11:54:47 GMT-0500 (Central Daylight Time),375188.0,A,bodyenter,I,enter,441,2,2332.099999964237,372855.90000003576,8103,WL,C,1.0
3,2.866000175476074,learn,57133.999824523926,Tue Jun 16 2026 11:54:47 GMT-0500 (Central Daylight Time),375721.5,A,s,I,s,520,2,533.2999999523163,375188.2000000477,8103,WL,C,2.0
3,3.049999952316284,learn,56950.000047683716,Tue Jun 16 2026 11:54:47 GMT-0500 (Central Daylight Time),375904.8000000119,A,sh,I,h,171,2,716.5999999642372,375188.2000000477,8103,WL,C,2.0
3,3.199000120162964,learn,56800.999879837036,Tue Jun 16 2026 11:54:47 GMT-0500 (Central Daylight Time),376054.60000002384,A,sho,I,o,132,2,866.3999999761581,375188.2000000477,8103,WL,C,2.0
3,3.433000087738037,learn,56566.99991226196,Tue Jun 16 2026 11:54:47 GMT-0500 (Central Daylight Time),376288.0,A,shor,I,r,224,2,1099.7999999523163,375188.2000000477,8103,WL,C,2.0
3,3.565999984741211,learn,56434.00001525879,Tue Jun 16 2026 11:54:47 GMT-0500 (Central Daylight Time),376421.3000000119,A,shore,I,e,116,2,1233.0999999642372,375188.2000000477,8103,WL,C,2.0
3,3.8500001430511475,learn,56149.99985694885,Tue Jun 16 2026 11:54:47 GMT-0500 (Central Daylight Time),376704.7000000477,A,shoreenter,I,enter,263,2,1516.5,375188.2000000477,8103,WL,C,2.0
3,4.366000175476074,learn,55633.999824523926,Tue Jun 16 2026 11:54:47 GMT-0500 (Central Daylight Time),377220.8000000119,A,l,I,l,500,2,515.8000000119209,376705.0,8103,WL,C,3.0
3,4.499000072479248,learn,55500.99992752075,Tue Jun 16 2026 11:54:47 GMT-0500 (Central Daylight Time),377354.10000002384,A,le,I,e,128,2,649.1000000238419,376705.0,8103,WL,C,3.0
3,4.749000072479248,learn,55250.99992752075,Tue Jun 16 2026 11:54:47 GMT-0500 (Central Daylight Time),377604.40000003576,A,let,I,t,236,2,899.4000000357628,376705.0,8103,WL,C,3.0
3,4.999000072479248,learn,55000.99992752075,Tue Jun 16 2026 11:54:47 GMT-0500 (Central Daylight Time),377854.10000002384,A,lett,I,t,233,2,1149.1000000238419,376705.0,8103,WL,C,3.0
3,5.116000175476074,learn,54883.999824523926,Tue Jun 16 2026 11:54:47 GMT-0500 (Central Daylight Time),377970.8000000119,A,lette,I,e,103,2,1265.800000011921,376705.0,8103,WL,C,3.0
3,5.265000104904175,learn,54734.999895095825,Tue Jun 16 2026 11:54:47 GMT-0500 (Central Daylight Time),378120.60000002384,A,letter,I,r,138,2,1415.6000000238419,376705.0,8103,WL,C,3.0
3,5.7820000648498535,learn,54217.99993515015,Tue Jun 16 2026 11:54:47 GMT-0500 (Central Daylight Time),378637.10000002384,A,letterenter,I,enter,501,2,1932.1000000238419,376705.0,8103,WL,C,3.0
3,6.199000120162964,learn,53800.999879837036,Tue Jun 16 2026 11:54:47 GMT-0500 (Central Daylight Time),379053.60000002384,A,c,I,c,408,2,416.10000002384186,378637.5,8103,WL,C,4.0
3,6.433000087738037,learn,53566.99991226196,Tue Jun 16 2026 11:54:47 GMT-0500 (Central Daylight Time),379288.40000003576,A,ca,I,a,216,2,650.9000000357628,378637.5,8103,WL,C,4.0
3,6.631999969482422,learn,53368.00003051758,Tue Jun 16 2026 11:54:47 GMT-0500 (Central Daylight Time),379487.0,A,cam,I,m,180,2,849.5,378637.5,8103,WL,C,4.0
3,6.682000160217285,learn,53317.999839782715,Tue Jun 16 2026 11:54:47 GMT-0500 (Central Daylight Time),379536.8000000119,A,camp,I,p,37,2,899.3000000119209,378637.5,8103,WL,C,4.0
3,7.3480000495910645,learn,52651.999950408936,Tue Jun 16 2026 11:54:47 GMT-0500 (Central Daylight Time),380203.3000000119,A,campenter,I,enter,653,2,1565.800000011921,378637.5,8103,WL,C,4.0
3,8.081000089645386,learn,51918.999910354614,Tue Jun 16 2026 11:54:47 GMT-0500 (Central Daylight Time),380936.3000000119,A,f,I,f,713,2,732.5999999642372,380203.7000000477,8103,WL,C,5.0
3,8.331000089645386,learn,51668.999910354614,Tue Jun 16 2026 11:54:47 GMT-0500 (Central Daylight Time),381186.60000002384,A,fl,I,l,229,2,982.8999999761581,380203.7000000477,8103,WL,C,5.0
3,8.498000144958496,learn,51501.999855041504,Tue Jun 16 2026 11:54:47 GMT-0500 (Central Daylight Time),381352.90000003576,A,fla,I,a,155,2,1149.199999988079,380203.7000000477,8103,WL,C,5.0
3,8.79800009727478,learn,51201.99990272522,Tue Jun 16 2026 11:54:47 GMT-0500 (Central Daylight Time),381652.8000000119,A,flag,I,g,293,2,1449.0999999642372,380203.7000000477,8103,WL,C,5.0
3,9.04800009727478,learn,50951.99990272522,Tue Jun 16 2026 11:54:47 GMT-0500 (Central Daylight Time),381903.0,A,flagenter,I,enter,241,2,1699.2999999523163,380203.7000000477,8103,WL,C,5.0
3,9.513999938964844,learn,50486.000061035156,Tue Jun 16 2026 11:54:47 GMT-0500 (Central Daylight Time),382369.40000003576,A,t,I,t,453,2,466.10000002384186,381903.3000000119,8103,WL,C,6.0
3,9.664000034332275,learn,50335.999965667725,Tue Jun 16 2026 11:54:47 GMT-0500 (Central Daylight Time),382519.3000000119,A,to,I,o,139,2,616.0,381903.3000000119,8103,WL,C,6.0
3,9.797000169754028,learn,50202.99983024597,Tue Jun 16 2026 11:54:47 GMT-0500 (Central Daylight Time),382652.3000000119,A,tow,I,w,125,2,749.0,381903.3000000119,8103,WL,C,6.0
3,10.031000137329102,learn,49968.9998626709,Tue Jun 16 2026 11:54:47 GMT-0500 (Central Daylight Time),382885.90000003576,A,towe,I,e,217,2,982.6000000238419,381903.3000000119,8103,WL,C,6.0
3,10.13100004196167,learn,49868.99995803833,Tue Jun 16 2026 11:54:47 GMT-0500 (Central Daylight Time),382985.90000003576,A,tower,I,r,79,2,1082.6000000238419,381903.3000000119,8103,WL,C,6.0
3,10.414000034332275,learn,49585.999965667725,Tue Jun 16 2026 11:54:47 GMT-0500 (Central Daylight Time),383269.10000002384,A,towerenter,I,enter,268,2,1365.800000011921,381903.3000000119,8103,WL,C,6.0
3,10.697999954223633,learn,49302.00004577637,Tue Jun 16 2026 11:54:47 GMT-0500 (Central Daylight Time),383553.60000002384,A,w,I,w,279,2,284.19999998807907,383269.40000003576,8103,WL,C,7.0
3,10.996999979019165,learn,49003.000020980835,Tue Jun 16 2026 11:54:47 GMT-0500 (Central Daylight Time),383852.3000000119,A,wh,I,h,284,2,582.8999999761581,383269.40000003576,8103,WL,C,7.0
3,11.496999979019165,learn,48503.000020980835,Tue Jun 16 2026 11:54:47 GMT-0500 (Central Daylight Time),384352.2000000477,A,whe,I,e,489,2,1082.800000011921,383269.40000003576,8103,WL,C,7.0
3,11.812999963760376,learn,48187.000036239624,Tue Jun 16 2026 11:54:47 GMT-0500 (Central Daylight Time),384668.60000002384,A,whea,I,a,301,2,1399.199999988079,383269.40000003576,8103,WL,C,7.0
3,12.097000122070312,learn,47902.99987792969,Tue Jun 16 2026 11:54:47 GMT-0500 (Central Daylight Time),384951.8000000119,A,wheat,I,t,273,2,1682.3999999761581,383269.40000003576,8103,WL,C,7.0
3,12.498000144958496,learn,47501.999855041504,Tue Jun 16 2026 11:54:47 GMT-0500 (Central Daylight Time),385352.8000000119,A,wheatenter,I,enter,381,2,2083.399999976158,383269.40000003576,8103,WL,C,7.0
3,12.930000066757202,learn,47069.9999332428,Tue Jun 16 2026 11:54:47 GMT-0500 (Central Daylight Time),385785.0,A,q,I,q,411,2,431.89999997615814,385353.10000002384,8103,WL,C,8.0
3,13.11300015449524,learn,46886.99984550476,Tue Jun 16 2026 11:54:47 GMT-0500 (Central Daylight Time),385968.3000000119,A,qu,I,u,171,2,615.1999999880791,385353.10000002384,8103,WL,C,8.0
3,13.263000011444092,learn,46736.99998855591,Tue Jun 16 2026 11:54:47 GMT-0500 (Central Daylight Time),386118.10000002384,A,que,I,e,132,2,765.0,385353.10000002384,8103,WL,C,8.0
3,13.463000059127808,learn,46536.99994087219,Tue Jun 16 2026 11:54:47 GMT-0500 (Central Daylight Time),386318.40000003576,A,quee,I,e,183,2,965.3000000119209,385353.10000002384,8103,WL,C,8.0
3,13.663000106811523,learn,46336.99989318848,Tue Jun 16 2026 11:54:47 GMT-0500 (Central Daylight Time),386518.3000000119,A,queen,I,n,183,2,1165.199999988079,385353.10000002384,8103,WL,C,8.0
3,14.062999963760376,learn,45937.000036239624,Tue Jun 16 2026 11:54:47 GMT-0500 (Central Daylight Time),386918.2000000477,A,queenenter,I,enter,383,2,1565.1000000238419,385353.10000002384,8103,WL,C,8.0
3,15.312999963760376,learn,44687.000036239624,Tue Jun 16 2026 11:54:47 GMT-0500 (Central Daylight Time),388167.7000000477,A,d,I,d,1231,2,1249.2000000476837,386918.5,8103,WL,C,9.0
3,15.446000099182129,learn,44553.99990081787,Tue Jun 16 2026 11:54:47 GMT-0500 (Central Daylight Time),388301.0,A,do,I,o,116,2,1382.5,386918.5,8103,WL,C,9.0
3,15.59500002861023,learn,44404.99997138977,Tue Jun 16 2026 11:54:47 GMT-0500 (Central Daylight Time),388450.60000002384,A,doc,I,c,143,2,1532.1000000238419,386918.5,8103,WL,C,9.0
3,15.828999996185303,learn,44171.0000038147,Tue Jun 16 2026 11:54:47 GMT-0500 (Central Daylight Time),388684.0,A,doct,I,t,219,2,1765.5,386918.5,8103,WL,C,9.0
3,15.996000051498413,learn,44003.99994850159,Tue Jun 16 2026 11:54:47 GMT-0500 (Central Daylight Time),388850.90000003576,A,docto,I,o,153,2,1932.4000000357628,386918.5,8103,WL,C,9.0
3,16.195000171661377,learn,43804.99982833862,Tue Jun 16 2026 11:54:47 GMT-0500 (Central Daylight Time),389050.3000000119,A,doctor,I,r,194,2,2131.800000011921,386918.5,8103,WL,C,9.0
3,16.479000091552734,learn,43520.999908447266,Tue Jun 16 2026 11:54:47 GMT-0500 (Central Daylight Time),389333.7000000477,A,doctorenter,I,enter,275,2,2415.2000000476837,386918.5,8103,WL,C,9.0
3,18.011000156402588,learn,41988.99984359741,Tue Jun 16 2026 11:54:47 GMT-0500 (Central Daylight Time),390866.60000002384,A,h,I,h,1518,2,1532.5,389334.10000002384,8103,WL,C,10.0
3,18.195000171661377,learn,41804.99982833862,Tue Jun 16 2026 11:54:47 GMT-0500 (Central Daylight Time),391050.3000000119,A,ho,I,o,162,2,1716.199999988079,389334.10000002384,8103,WL,C,10.0
3,18.32800006866455,learn,41671.99993133545,Tue Jun 16 2026 11:54:47 GMT-0500 (Central Daylight Time),391183.10000002384,A,hom,I,m,123,2,1849.0,389334.10000002384,8103,WL,C,10.0
3,18.511000156402588,learn,41488.99984359741,Tue Jun 16 2026 11:54:47 GMT-0500 (Central Daylight Time),391366.60000002384,A,home,I,e,165,2,2032.5,389334.10000002384,8103,WL,C,10.0
3,18.728000164031982,learn,41271.99983596802,Tue Jun 16 2026 11:54:47 GMT-0500 (Central Daylight Time),391582.90000003576,A,homeenter,I,enter,199,2,2248.800000011921,389334.10000002384,8103,WL,C,10.0
3,19.311000108718872,learn,40688.99989128113,Tue Jun 16 2026 11:54:47 GMT-0500 (Central Daylight Time),392166.10000002384,A,b,I,b,567,2,582.8999999761581,391583.2000000477,8103,WL,C,11.0
3,19.528000116348267,learn,40471.99988365173,Tue Jun 16 2026 11:54:47 GMT-0500 (Central Daylight Time),392382.8000000119,A,bo,I,o,206,2,799.5999999642372,391583.2000000477,8103,WL,C,11.0
3,19.778000116348267,learn,40221.99988365173,Tue Jun 16 2026 11:54:47 GMT-0500 (Central Daylight Time),392632.90000003576,A,boy,I,y,229,2,1049.699999988079,391583.2000000477,8103,WL,C,11.0
3,20.094000101089478,learn,39905.99989891052,Tue Jun 16 2026 11:54:47 GMT-0500 (Central Daylight Time),392949.2000000477,A,boyenter,I,enter,301,2,1366.0,391583.2000000477,8103,WL,C,11.0
3,20.427000045776367,learn,39572.99995422363,Tue Jun 16 2026 11:54:47 GMT-0500 (Central Daylight Time),393282.5,A,c,I,c,327,2,333.0,392949.5,8103,WL,C,12.0
3,20.66100001335144,learn,39338.99998664856,Tue Jun 16 2026 11:54:47 GMT-0500 (Central Daylight Time),393515.60000002384,A,ca,I,a,226,2,566.1000000238419,392949.5,8103,WL,C,12.0
3,20.794000148773193,learn,39205.99985122681,Tue Jun 16 2026 11:54:47 GMT-0500 (Central Daylight Time),393649.3000000119,A,cat,I,t,112,2,699.8000000119209,392949.5,8103,WL,C,12.0
3,20.97699999809265,learn,39023.00000190735,Tue Jun 16 2026 11:54:47 GMT-0500 (Central Daylight Time),393832.5,A,catt,I,t,171,2,883.0,392949.5,8103,WL,C,12.0
3,21.14400005340576,learn,38855.99994659424,Tue Jun 16 2026 11:54:47 GMT-0500 (Central Daylight Time),393999.10000002384,A,cattl,I,l,149,2,1049.6000000238419,392949.5,8103,WL,C,12.0
3,21.3270001411438,learn,38672.9998588562,Tue Jun 16 2026 11:54:47 GMT-0500 (Central Daylight Time),394182.3000000119,A,cattle,I,e,165,2,1232.800000011921,392949.5,8103,WL,C,12.0
3,21.861000061035156,learn,38138.999938964844,Tue Jun 16 2026 11:54:47 GMT-0500 (Central Daylight Time),394715.7000000477,A,cattleenter,I,enter,518,2,1766.2000000476837,392949.5,8103,WL,C,12.0
3,28.875,learn,31125.0,Tue Jun 16 2026 11:54:47 GMT-0500 (Central Daylight Time),401730.0,A,s,I,s,7001,2,7014.0,394716.0,8103,WL,C,13.0
3,29.075000047683716,learn,30924.999952316284,Tue Jun 16 2026 11:54:47 GMT-0500 (Central Daylight Time),401930.10000002384,A,sh,I,h,186,2,7214.100000023842,394716.0,8103,WL,C,13.0
3,29.19099998474121,learn,30809.00001525879,Tue Jun 16 2026 11:54:47 GMT-0500 (Central Daylight Time),402046.40000003576,A,sho,I,o,98,2,7330.400000035763,394716.0,8103,WL,C,13.0
3,29.35800004005432,learn,30641.99995994568,Tue Jun 16 2026 11:54:47 GMT-0500 (Central Daylight Time),402213.2000000477,A,shor,I,r,157,2,7497.200000047684,394716.0,8103,WL,C,13.0
3,29.558000087738037,learn,30441.999912261963,Tue Jun 16 2026 11:54:47 GMT-0500 (Central Daylight Time),402412.8000000119,A,shore,I,e,184,2,7696.800000011921,394716.0,8103,WL,C,13.0
3,29.991000175476074,learn,30008.999824523926,Tue Jun 16 2026 11:54:47 GMT-0500 (Central Daylight Time),402846.0,A,shoreenter,I,enter,416,2,8130.0,394716.0,8103,WL,C,13.0
3,35.4060001373291,learn,24593.9998626709,Tue Jun 16 2026 11:54:47 GMT-0500 (Central Daylight Time),408261.3000000119,A,s,I,s,5407,2,5415.0,402846.3000000119,8103,WL,C,14.0
3,35.60599994659424,learn,24394.00005340576,Tue Jun 16 2026 11:54:47 GMT-0500 (Central Daylight Time),408461.3000000119,A,su,I,u,190,2,5615.0,402846.3000000119,8103,WL,C,14.0
3,35.75600004196167,learn,24243.99995803833,Tue Jun 16 2026 11:54:47 GMT-0500 (Central Daylight Time),408610.8000000119,A,sug,I,g,144,2,5764.5,402846.3000000119,8103,WL,C,14.0
3,35.9060001373291,learn,24093.9998626709,Tue Jun 16 2026 11:54:47 GMT-0500 (Central Daylight Time),408761.2000000477,A,suga,I,a,139,2,5914.900000035763,402846.3000000119,8103,WL,C,14.0
3,36.08899998664856,learn,23911.00001335144,Tue Jun 16 2026 11:54:47 GMT-0500 (Central Daylight Time),408944.2000000477,A,sugar,I,r,172,2,6097.900000035763,402846.3000000119,8103,WL,C,14.0
3,36.47200012207031,learn,23527.999877929688,Tue Jun 16 2026 11:54:47 GMT-0500 (Central Daylight Time),409327.60000002384,A,sugarenter,I,enter,373,2,6481.300000011921,402846.3000000119,8103,WL,C,14.0
3,39.32100009918213,learn,20678.99990081787,Tue Jun 16 2026 11:54:47 GMT-0500 (Central Daylight Time),412176.60000002384,A,n,I,n,2827,2,2848.699999988079,409327.90000003576,8103,WL,C,15.0
3,39.47200012207031,learn,20527.999877929688,Tue Jun 16 2026 11:54:47 GMT-0500 (Central Daylight Time),412326.8000000119,A,na,I,a,132,2,2998.899999976158,409327.90000003576,8103,WL,C,15.0
3,39.62100005149841,learn,20378.999948501587,Tue Jun 16 2026 11:54:47 GMT-0500 (Central Daylight Time),412476.40000003576,A,nai,I,i,133,2,3148.5,409327.90000003576,8103,WL,C,15.0
3,39.82200002670288,learn,20177.99997329712,Tue Jun 16 2026 11:54:47 GMT-0500 (Central Daylight Time),412677.60000002384,A,nail,I,l,184,2,3349.699999988079,409327.90000003576,8103,WL,C,15.0
3,40.13800001144409,learn,19861.99998855591,Tue Jun 16 2026 11:54:47 GMT-0500 (Central Daylight Time),412992.8000000119,A,nailenter,I,enter,294,2,3664.899999976158,409327.90000003576,8103,WL,C,15.0
4,0.8669998645782471,learn,59133.00013542175,Tue Jun 16 2026 11:54:47 GMT-0500 (Central Daylight Time),479339.2000000477,A,s,I,s,852,2,866.4000000357628,478472.8000000119,8103,WL,C,1.0
4,1.0160000324249268,learn,58983.99996757507,Tue Jun 16 2026 11:54:47 GMT-0500 (Central Daylight Time),479489.10000002384,A,sh,I,h,128,2,1016.3000000119209,478472.8000000119,8103,WL,C,1.0
4,1.1159999370574951,learn,58884.000062942505,Tue Jun 16 2026 11:54:47 GMT-0500 (Central Daylight Time),479589.0,A,sho,I,o,84,2,1116.199999988079,478472.8000000119,8103,WL,C,1.0
4,1.2660000324249268,learn,58733.99996757507,Tue Jun 16 2026 11:54:47 GMT-0500 (Central Daylight Time),479738.90000003576,A,shor,I,r,136,2,1266.1000000238419,478472.8000000119,8103,WL,C,1.0
4,1.3329999446868896,learn,58667.00005531311,Tue Jun 16 2026 11:54:47 GMT-0500 (Central Daylight Time),479805.5,A,shore,I,e,57,2,1332.699999988079,478472.8000000119,8103,WL,C,1.0
4,1.6159999370574951,learn,58384.000062942505,Tue Jun 16 2026 11:54:47 GMT-0500 (Central Daylight Time),480088.8000000119,A,shoreenter,I,enter,263,2,1616.0,478472.8000000119,8103,WL,C,1.0
4,2.0329999923706055,learn,57967.000007629395,Tue Jun 16 2026 11:54:47 GMT-0500 (Central Daylight Time),480505.3000000119,A,b,I,b,404,2,416.19999998807907,480089.10000002384,8103,WL,C,2.0
4,2.249000072479248,learn,57750.99992752075,Tue Jun 16 2026 11:54:47 GMT-0500 (Central Daylight Time),480721.8000000119,A,bo,I,o,196,2,632.6999999880791,480089.10000002384,8103,WL,C,2.0
4,2.3989999294281006,learn,57601.0000705719,Tue Jun 16 2026 11:54:47 GMT-0500 (Central Daylight Time),480871.7000000477,A,bod,I,d,131,2,782.6000000238419,480089.10000002384,8103,WL,C,2.0
4,2.5490000247955322,learn,57450.99997520447,Tue Jun 16 2026 11:54:47 GMT-0500 (Central Daylight Time),481021.8000000119,A,body,I,y,141,2,932.6999999880791,480089.10000002384,8103,WL,C,2.0
4,2.8320000171661377,learn,57167.99998283386,Tue Jun 16 2026 11:54:47 GMT-0500 (Central Daylight Time),481305.0,A,bodyenter,I,enter,272,2,1215.8999999761581,480089.10000002384,8103,WL,C,2.0
4,3.1489999294281006,learn,56851.0000705719,Tue Jun 16 2026 11:54:47 GMT-0500 (Central Daylight Time),481621.60000002384,A,c,I,c,307,2,316.19999998807907,481305.40000003576,8103,WL,C,3.0
4,3.3320000171661377,learn,56667.99998283386,Tue Jun 16 2026 11:54:47 GMT-0500 (Central Daylight Time),481804.90000003576,A,ca,I,a,175,2,499.5,481305.40000003576,8103,WL,C,3.0
4,3.4819998741149902,learn,56518.00012588501,Tue Jun 16 2026 11:54:47 GMT-0500 (Central Daylight Time),481954.5,A,cat,I,t,143,2,649.0999999642372,481305.40000003576,8103,WL,C,3.0
4,3.6989998817443848,learn,56301.000118255615,Tue Jun 16 2026 11:54:47 GMT-0500 (Central Daylight Time),482171.5,A,catt,I,t,202,2,866.0999999642372,481305.40000003576,8103,WL,C,3.0
4,3.866999864578247,learn,56133.00013542175,Tue Jun 16 2026 11:54:47 GMT-0500 (Central Daylight Time),482339.2000000477,A,cattl,I,l,146,2,1033.800000011921,481305.40000003576,8103,WL,C,3.0
4,4.014999866485596,learn,55985.000133514404,Tue Jun 16 2026 11:54:47 GMT-0500 (Central Daylight Time),482488.0,A,cattle,I,e,130,2,1182.5999999642372,481305.40000003576,8103,WL,C,3.0
4,4.365000009536743,learn,55634.99999046326,Tue Jun 16 2026 11:54:47 GMT-0500 (Central Daylight Time),482837.8000000119,A,cattleenter,I,enter,341,2,1532.3999999761581,481305.40000003576,8103,WL,C,3.0
4,4.797999858856201,learn,55202.0001411438,Tue Jun 16 2026 11:54:47 GMT-0500 (Central Daylight Time),483271.0,A,c,I,c,416,2,432.89999997615814,482838.10000002384,8103,WL,C,4.0
4,4.931999921798706,learn,55068.000078201294,Tue Jun 16 2026 11:54:47 GMT-0500 (Central Daylight Time),483404.5,A,co,I,o,119,2,566.3999999761581,482838.10000002384,8103,WL,C,4.0
4,5.115000009536743,learn,54884.99999046326,Tue Jun 16 2026 11:54:47 GMT-0500 (Central Daylight Time),483587.40000003576,A,cor,I,r,176,2,749.3000000119209,482838.10000002384,8103,WL,C,4.0
4,5.297999858856201,learn,54702.0001411438,Tue Jun 16 2026 11:54:47 GMT-0500 (Central Daylight Time),483771.0,A,corn,I,n,177,2,932.8999999761581,482838.10000002384,8103,WL,C,4.0
4,5.547999858856201,learn,54452.0001411438,Tue Jun 16 2026 11:54:47 GMT-0500 (Central Daylight Time),484020.90000003576,A,cornenter,I,enter,233,2,1182.800000011921,482838.10000002384,8103,WL,C,4.0
4,5.7799999713897705,learn,54220.00002861023,Tue Jun 16 2026 11:54:47 GMT-0500 (Central Daylight Time),484252.60000002384,A,w,I,w,227,2,231.39999997615814,484021.2000000477,8103,WL,C,5.0
4,5.927000045776367,learn,54072.99995422363,Tue Jun 16 2026 11:54:47 GMT-0500 (Central Daylight Time),484400.0,A,wh,I,h,143,2,378.7999999523163,484021.2000000477,8103,WL,C,5.0
4,6.0320000648498535,learn,53967.99993515015,Tue Jun 16 2026 11:54:47 GMT-0500 (Central Daylight Time),484504.2000000477,A,whe,I,e,92,2,483.0,484021.2000000477,8103,WL,C,5.0
4,6.247999906539917,learn,53752.00009346008,Tue Jun 16 2026 11:54:47 GMT-0500 (Central Daylight Time),484720.40000003576,A,whea,I,a,196,2,699.1999999880791,484021.2000000477,8103,WL,C,5.0
4,6.365000009536743,learn,53634.99999046326,Tue Jun 16 2026 11:54:47 GMT-0500 (Central Daylight Time),484837.40000003576,A,wheat,I,t,109,2,816.1999999880791,484021.2000000477,8103,WL,C,5.0
4,6.648000001907349,learn,53351.99999809265,Tue Jun 16 2026 11:54:47 GMT-0500 (Central Daylight Time),485120.7000000477,A,wheatenter,I,enter,272,2,1099.5,484021.2000000477,8103,WL,C,5.0
4,6.930999994277954,learn,53069.000005722046,Tue Jun 16 2026 11:54:47 GMT-0500 (Central Daylight Time),485403.8000000119,A,t,I,t,268,2,282.80000001192093,485121.0,8103,WL,C,6.0
4,7.13100004196167,learn,52868.99995803833,Tue Jun 16 2026 11:54:47 GMT-0500 (Central Daylight Time),485603.7000000477,A,to,I,o,194,2,482.7000000476837,485121.0,8103,WL,C,6.0
4,7.414999961853027,learn,52585.00003814697,Tue Jun 16 2026 11:54:47 GMT-0500 (Central Daylight Time),485887.2000000477,A,tow,I,w,265,2,766.2000000476837,485121.0,8103,WL,C,6.0
4,7.5980000495910645,learn,52401.999950408936,Tue Jun 16 2026 11:54:47 GMT-0500 (Central Daylight Time),486070.40000003576,A,towe,I,e,166,2,949.4000000357628,485121.0,8103,WL,C,6.0
4,7.697000026702881,learn,52302.99997329712,Tue Jun 16 2026 11:54:47 GMT-0500 (Central Daylight Time),486170.10000002384,A,tower,I,r,87,2,1049.1000000238419,485121.0,8103,WL,C,6.0
4,8.46399998664856,learn,51536.00001335144,Tue Jun 16 2026 11:54:47 GMT-0500 (Central Daylight Time),486936.60000002384,A,towerenter,I,enter,754,2,1815.6000000238419,485121.0,8103,WL,C,6.0
4,8.813999891281128,learn,51186.00010871887,Tue Jun 16 2026 11:54:47 GMT-0500 (Central Daylight Time),487286.3000000119,A,q,I,q,333,2,349.39999997615814,486936.90000003576,8103,WL,C,7.0
4,8.996999979019165,learn,51003.000020980835,Tue Jun 16 2026 11:54:47 GMT-0500 (Central Daylight Time),487469.8000000119,A,qu,I,u,175,2,532.8999999761581,486936.90000003576,8103,WL,C,7.0
4,9.113999843597412,learn,50886.00015640259,Tue Jun 16 2026 11:54:47 GMT-0500 (Central Daylight Time),487586.3000000119,A,que,I,e,103,2,649.3999999761581,486936.90000003576,8103,WL,C,7.0
4,9.29699993133545,learn,50703.00006866455,Tue Jun 16 2026 11:54:47 GMT-0500 (Central Daylight Time),487769.60000002384,A,quee,I,e,163,2,832.6999999880791,486936.90000003576,8103,WL,C,7.0
4,9.414000034332275,learn,50585.999965667725,Tue Jun 16 2026 11:54:47 GMT-0500 (Central Daylight Time),487886.40000003576,A,queen,I,n,100,2,949.5,486936.90000003576,8103,WL,C,7.0
4,9.996999979019165,learn,50003.000020980835,Tue Jun 16 2026 11:54:47 GMT-0500 (Central Daylight Time),488469.60000002384,A,queenenter,I,enter,567,2,1532.699999988079,486936.90000003576,8103,WL,C,7.0
4,10.396999835968018,learn,49603.00016403198,Tue Jun 16 2026 11:54:47 GMT-0500 (Central Daylight Time),488869.3000000119,A,f,I,f,392,2,399.39999997615814,488469.90000003576,8103,WL,C,8.0
4,10.645999908447266,learn,49354.000091552734,Tue Jun 16 2026 11:54:47 GMT-0500 (Central Daylight Time),489119.10000002384,A,fl,I,l,232,2,649.1999999880791,488469.90000003576,8103,WL,C,8.0
4,10.796000003814697,learn,49203.9999961853,Tue Jun 16 2026 11:54:47 GMT-0500 (Central Daylight Time),489269.10000002384,A,fla,I,a,141,2,799.1999999880791,488469.90000003576,8103,WL,C,8.0
4,12.02999997138977,learn,47970.00002861023,Tue Jun 16 2026 11:54:47 GMT-0500 (Central Daylight Time),490502.40000003576,A,flag,I,g,1216,2,2032.5,488469.90000003576,8103,WL,C,8.0
4,12.44599986076355,learn,47554.00013923645,Tue Jun 16 2026 11:54:47 GMT-0500 (Central Daylight Time),490918.7000000477,A,flagenter,I,enter,407,2,2448.800000011921,488469.90000003576,8103,WL,C,8.0
4,12.796000003814697,learn,47203.9999961853,Tue Jun 16 2026 11:54:47 GMT-0500 (Central Daylight Time),491268.3000000119,A,l,I,l,343,2,349.30000001192093,490919.0,8103,WL,C,9.0
4,13.013000011444092,learn,46986.99998855591,Tue Jun 16 2026 11:54:47 GMT-0500 (Central Daylight Time),491485.10000002384,A,le,I,e,207,2,566.1000000238419,490919.0,8103,WL,C,9.0
4,13.19599986076355,learn,46804.00013923645,Tue Jun 16 2026 11:54:47 GMT-0500 (Central Daylight Time),491668.5,A,let,I,t,176,2,749.5,490919.0,8103,WL,C,9.0
4,13.412999868392944,learn,46587.000131607056,Tue Jun 16 2026 11:54:47 GMT-0500 (Central Daylight Time),491885.2000000477,A,lett,I,t,201,2,966.2000000476837,490919.0,8103,WL,C,9.0
4,13.562999963760376,learn,46437.000036239624,Tue Jun 16 2026 11:54:47 GMT-0500 (Central Daylight Time),492036.0,A,lette,I,e,136,2,1117.0,490919.0,8103,WL,C,9.0
4,13.69599986076355,learn,46304.00013923645,Tue Jun 16 2026 11:54:47 GMT-0500 (Central Daylight Time),492168.5,A,letter,I,r,112,2,1249.5,490919.0,8103,WL,C,9.0
4,14.328999996185303,learn,45671.0000038147,Tue Jun 16 2026 11:54:47 GMT-0500 (Central Daylight Time),492801.5,A,letterenter,I,enter,612,2,1882.5,490919.0,8103,WL,C,9.0
4,22.710000038146973,learn,37289.99996185303,Tue Jun 16 2026 11:54:47 GMT-0500 (Central Daylight Time),501182.10000002384,A,q,I,q,8364,2,8380.199999988079,492801.90000003576,8103,WL,C,10.0
4,22.95899987220764,learn,37041.00012779236,Tue Jun 16 2026 11:54:47 GMT-0500 (Central Daylight Time),501432.0,A,qu,I,u,230,2,8630.099999964237,492801.90000003576,8103,WL,C,10.0
4,23.092999935150146,learn,36907.00006484985,Tue Jun 16 2026 11:54:47 GMT-0500 (Central Daylight Time),501565.40000003576,A,que,I,e,125,2,8763.5,492801.90000003576,8103,WL,C,10.0
4,23.292999982833862,learn,36707.00001716614,Tue Jun 16 2026 11:54:47 GMT-0500 (Central Daylight Time),501765.40000003576,A,quee,I,e,183,2,8963.5,492801.90000003576,8103,WL,C,10.0
4,23.442999839782715,learn,36557.000160217285,Tue Jun 16 2026 11:54:47 GMT-0500 (Central Daylight Time),501915.2000000477,A,queen,I,n,136,2,9113.300000011921,492801.90000003576,8103,WL,C,10.0
4,23.776000022888184,learn,36223.99997711182,Tue Jun 16 2026 11:54:47 GMT-0500 (Central Daylight Time),502248.60000002384,A,queenenter,I,enter,321,2,9446.699999988079,492801.90000003576,8103,WL,C,10.0
4,25.64199995994568,learn,34358.00004005432,Tue Jun 16 2026 11:54:47 GMT-0500 (Central Daylight Time),504114.3000000119,A,d,I,d,1859,2,1865.5,502248.8000000119,8103,WL,C,11.0
4,25.825000047683716,learn,34174.999952316284,Tue Jun 16 2026 11:54:47 GMT-0500 (Central Daylight Time),504297.5,A,do,I,o,163,2,2048.699999988079,502248.8000000119,8103,WL,C,11.0
4,25.95899987220764,learn,34041.00012779236,Tue Jun 16 2026 11:54:47 GMT-0500 (Central Daylight Time),504431.2000000477,A,doc,I,c,124,2,2182.400000035763,502248.8000000119,8103,WL,C,11.0
4,26.191999912261963,learn,33808.00008773804,Tue Jun 16 2026 11:54:47 GMT-0500 (Central Daylight Time),504664.60000002384,A,doct,I,t,213,2,2415.800000011921,502248.8000000119,8103,WL,C,11.0
4,26.35800004005432,learn,33641.99995994568,Tue Jun 16 2026 11:54:47 GMT-0500 (Central Daylight Time),504830.8000000119,A,docto,I,o,157,2,2582.0,502248.8000000119,8103,WL,C,11.0
4,26.557999849319458,learn,33442.00015068054,Tue Jun 16 2026 11:54:47 GMT-0500 (Central Daylight Time),505030.8000000119,A,doctor,I,r,182,2,2782.0,502248.8000000119,8103,WL,C,11.0
4,26.79200005531311,learn,33207.99994468689,Tue Jun 16 2026 11:54:47 GMT-0500 (Central Daylight Time),505264.2000000477,A,doctorenter,I,enter,222,2,3015.400000035763,502248.8000000119,8103,WL,C,11.0
4,28.223999977111816,learn,31776.000022888184,Tue Jun 16 2026 11:54:47 GMT-0500 (Central Daylight Time),506697.10000002384,A,h,I,h,1421,2,1432.5,505264.60000002384,8103,WL,C,12.0
4,28.45799994468689,learn,31542.00005531311,Tue Jun 16 2026 11:54:47 GMT-0500 (Central Daylight Time),506930.3000000119,A,ho,I,o,220,2,1665.699999988079,505264.60000002384,8103,WL,C,12.0
4,28.557999849319458,learn,31442.000150680542,Tue Jun 16 2026 11:54:47 GMT-0500 (Central Daylight Time),507030.2000000477,A,hom,I,m,91,2,1765.6000000238419,505264.60000002384,8103,WL,C,12.0
4,28.69099998474121,learn,31309.00001525879,Tue Jun 16 2026 11:54:47 GMT-0500 (Central Daylight Time),507163.40000003576,A,home,I,e,126,2,1898.800000011921,505264.60000002384,8103,WL,C,12.0
4,28.85699987411499,learn,31143.00012588501,Tue Jun 16 2026 11:54:47 GMT-0500 (Central Daylight Time),507329.8000000119,A,homeenter,I,enter,160,2,2065.199999988079,505264.60000002384,8103,WL,C,12.0
4,29.19099998474121,learn,30809.00001525879,Tue Jun 16 2026 11:54:47 GMT-0500 (Central Daylight Time),507663.5,A,b,I,b,323,2,333.39999997615814,507330.10000002384,8103,WL,C,13.0
4,29.47099995613098,learn,30529.00004386902,Tue Jun 16 2026 11:54:47 GMT-0500 (Central Daylight Time),507943.8000000119,A,bo,I,o,173,2,613.6999999880791,507330.10000002384,8103,WL,C,13.0
4,29.61899995803833,learn,30381.00004196167,Tue Jun 16 2026 11:54:47 GMT-0500 (Central Daylight Time),508091.90000003576,A,boy,I,y,143,2,761.8000000119209,507330.10000002384,8103,WL,C,13.0
4,29.823999881744385,learn,30176.000118255615,Tue Jun 16 2026 11:54:47 GMT-0500 (Central Daylight Time),508296.5,A,boyenter,I,enter,192,2,966.3999999761581,507330.10000002384,8103,WL,C,13.0
4,39.13699984550476,learn,20863.00015449524,Tue Jun 16 2026 11:54:47 GMT-0500 (Central Daylight Time),517609.90000003576,A,s,I,s,9308,2,9313.0,508296.90000003576,8103,WL,C,14.0
4,39.353999853134155,learn,20646.000146865845,Tue Jun 16 2026 11:54:47 GMT-0500 (Central Daylight Time),517827.0,A,su,I,u,203,2,9530.099999964237,508296.90000003576,8103,WL,C,14.0
4,40.23699998855591,learn,19763.00001144409,Tue Jun 16 2026 11:54:47 GMT-0500 (Central Daylight Time),518709.8000000119,A,sug,I,g,865,2,10412.899999976158,508296.90000003576,8103,WL,C,14.0
4,40.47099995613098,learn,19529.00004386902,Tue Jun 16 2026 11:54:47 GMT-0500 (Central Daylight Time),518943.2000000477,A,suga,I,a,224,2,10646.300000011921,508296.90000003576,8103,WL,C,14.0
4,40.75399994850159,learn,19246.000051498413,Tue Jun 16 2026 11:54:47 GMT-0500 (Central Daylight Time),519226.40000003576,A,sugar,I,r,270,2,10929.5,508296.90000003576,8103,WL,C,14.0
4,40.937000036239624,learn,19062.999963760376,Tue Jun 16 2026 11:54:47 GMT-0500 (Central Daylight Time),519409.7000000477,A,sugarenter,I,enter,163,2,11112.800000011921,508296.90000003576,8103,WL,C,14.0
4,44.28600001335144,learn,15713.99998664856,Tue Jun 16 2026 11:54:47 GMT-0500 (Central Daylight Time),522758.7000000477,A,b,I,b,3340,2,3348.5,519410.2000000477,8103,WL,C,15.0
4,44.503000020980835,learn,15496.999979019165,Tue Jun 16 2026 11:54:47 GMT-0500 (Central Daylight Time),522975.3000000119,A,bo,I,o,198,2,3565.099999964237,519410.2000000477,8103,WL,C,15.0
4,44.63599991798401,learn,15364.000082015991,Tue Jun 16 2026 11:54:47 GMT-0500 (Central Daylight Time),523108.40000003576,A,bod,I,d,126,2,3698.199999988079,519410.2000000477,8103,WL,C,15.0
4,44.80299997329712,learn,15197.00002670288,Tue Jun 16 2026 11:54:47 GMT-0500 (Central Daylight Time),523275.3000000119,A,body,I,y,160,2,3865.099999964237,519410.2000000477,8103,WL,C,15.0
4,45.01900005340576,learn,14980.999946594238,Tue Jun 16 2026 11:54:47 GMT-0500 (Central Daylight Time),523491.7000000477,A,bodyenter,I,enter,210,2,4081.5,519410.2000000477,8103,WL,C,15.0
5,1.1670000553131104,learn,60000.0,Tue Jun 16 2026 11:54:47 GMT-0500 (Central Daylight Time),590237.9000000358,A,c,I,c,1159,2,1166.699999988079,589071.2000000477,8103,WL,C,1.0
5,1.433000087738037,learn,60000.0,Tue Jun 16 2026 11:54:47 GMT-0500 (Central Daylight Time),590504.3000000119,A,ca,I,a,254,2,1433.0999999642372,589071.2000000477,8103,WL,C,1.0
5,1.5329999923706055,learn,60000.0,Tue Jun 16 2026 11:54:47 GMT-0500 (Central Daylight Time),590604.2000000477,A,cam,I,m,91,2,1533.0,589071.2000000477,8103,WL,C,1.0
5,1.683000087738037,learn,60000.0,Tue Jun 16 2026 11:54:47 GMT-0500 (Central Daylight Time),590754.0,A,camp,I,p,129,2,1682.7999999523163,589071.2000000477,8103,WL,C,1.0
5,2.7160000801086426,learn,60000.0,Tue Jun 16 2026 11:54:47 GMT-0500 (Central Daylight Time),591786.9000000358,A,campenter,I,enter,1011,2,2715.699999988079,589071.2000000477,8103,WL,C,1.0
5,3.0329999923706055,learn,60000.0,Tue Jun 16 2026 11:54:47 GMT-0500 (Central Daylight Time),592103.6000000238,A,f,I,f,297,2,316.39999997615814,591787.2000000477,8103,WL,C,2.0
5,3.249000072479248,learn,60000.0,Tue Jun 16 2026 11:54:47 GMT-0500 (Central Daylight Time),592320.0,A,fl,I,l,205,2,532.7999999523163,591787.2000000477,8103,WL,C,2.0
5,3.4660000801086426,learn,60000.0,Tue Jun 16 2026 11:54:47 GMT-0500 (Central Daylight Time),592536.6000000238,A,fla,I,a,204,2,749.3999999761581,591787.2000000477,8103,WL,C,2.0
5,3.7170000076293945,learn,60000.0,Tue Jun 16 2026 11:54:47 GMT-0500 (Central Daylight Time),592788.3000000119,A,flag,I,g,236,2,1001.0999999642372,591787.2000000477,8103,WL,C,2.0
5,3.949000120162964,learn,60000.0,Tue Jun 16 2026 11:54:47 GMT-0500 (Central Daylight Time),593020.0,A,flagenter,I,enter,215,2,1232.7999999523163,591787.2000000477,8103,WL,C,2.0
5,4.266000032424927,learn,60000.0,Tue Jun 16 2026 11:54:47 GMT-0500 (Central Daylight Time),593336.5,A,n,I,n,305,2,316.19999998807907,593020.3000000119,8103,WL,C,3.0
5,4.366000175476074,learn,60000.0,Tue Jun 16 2026 11:54:47 GMT-0500 (Central Daylight Time),593436.5,A,na,I,a,93,2,416.19999998807907,593020.3000000119,8103,WL,C,3.0
5,4.565999984741211,learn,60000.0,Tue Jun 16 2026 11:54:47 GMT-0500 (Central Daylight Time),593636.6000000238,A,nai,I,i,185,2,616.3000000119209,593020.3000000119,8103,WL,C,3.0
5,4.7820000648498535,learn,60000.0,Tue Jun 16 2026 11:54:47 GMT-0500 (Central Daylight Time),593853.1000000238,A,nail,I,l,200,2,832.8000000119209,593020.3000000119,8103,WL,C,3.0
5,5.115000009536743,learn,60000.0,Tue Jun 16 2026 11:54:47 GMT-0500 (Central Daylight Time),594186.3000000119,A,nailenter,I,enter,312,2,1166.0,593020.3000000119,8103,WL,C,3.0
5,5.483000040054321,learn,60000.0,Tue Jun 16 2026 11:54:47 GMT-0500 (Central Daylight Time),594553.8000000119,A,s,I,s,346,2,367.19999998807907,594186.6000000238,8103,WL,C,4.0
5,5.631999969482422,learn,60000.0,Tue Jun 16 2026 11:54:47 GMT-0500 (Central Daylight Time),594702.8000000119,A,sh,I,h,139,2,516.1999999880791,594186.6000000238,8103,WL,C,4.0
5,5.765000104904175,learn,60000.0,Tue Jun 16 2026 11:54:47 GMT-0500 (Central Daylight Time),594835.9000000358,A,sho,I,o,119,2,649.3000000119209,594186.6000000238,8103,WL,C,4.0
5,5.932000160217285,learn,60000.0,Tue Jun 16 2026 11:54:47 GMT-0500 (Central Daylight Time),595002.5,A,shor,I,r,161,2,815.8999999761581,594186.6000000238,8103,WL,C,4.0
5,6.015000104904175,learn,60000.0,Tue Jun 16 2026 11:54:47 GMT-0500 (Central Daylight Time),595086.2000000477,A,shore,I,e,75,2,899.6000000238419,594186.6000000238,8103,WL,C,4.0
5,6.381999969482422,learn,60000.0,Tue Jun 16 2026 11:54:47 GMT-0500 (Central Daylight Time),595452.7000000477,A,shoreenter,I,enter,351,2,1266.1000000238419,594186.6000000238,8103,WL,C,4.0
5,6.731000185012817,learn,60000.0,Tue Jun 16 2026 11:54:47 GMT-0500 (Central Daylight Time),595802.3000000119,A,b,I,b,345,2,349.19999998807907,595453.1000000238,8103,WL,C,5.0
5,6.932000160217285,learn,60000.0,Tue Jun 16 2026 11:54:47 GMT-0500 (Central Daylight Time),596002.5,A,bo,I,o,179,2,549.3999999761581,595453.1000000238,8103,WL,C,5.0
5,7.082000017166138,learn,60000.0,Tue Jun 16 2026 11:54:47 GMT-0500 (Central Daylight Time),596152.4000000358,A,bod,I,d,130,2,699.3000000119209,595453.1000000238,8103,WL,C,5.0
5,7.3480000495910645,learn,60000.0,Tue Jun 16 2026 11:54:47 GMT-0500 (Central Daylight Time),596419.0,A,body,I,y,253,2,965.8999999761581,595453.1000000238,8103,WL,C,5.0
5,7.965000152587891,learn,60000.0,Tue Jun 16 2026 11:54:47 GMT-0500 (Central Daylight Time),597035.4000000358,A,bodyenter,I,enter,601,2,1582.300000011921,595453.1000000238,8103,WL,C,5.0
5,8.615000009536743,learn,60000.0,Tue Jun 16 2026 11:54:47 GMT-0500 (Central Daylight Time),597685.5,A,b,I,b,634,2,649.6999999880791,597035.8000000119,8103,WL,C,6.0
5,8.79800009727478,learn,60000.0,Tue Jun 16 2026 11:54:47 GMT-0500 (Central Daylight Time),597868.5,A,bo,I,o,167,2,832.6999999880791,597035.8000000119,8103,WL,C,6.0
5,8.981000185012817,learn,60000.0,Tue Jun 16 2026 11:54:47 GMT-0500 (Central Daylight Time),598051.6000000238,A,boy,I,y,176,2,1015.8000000119209,597035.8000000119,8103,WL,C,6.0
5,9.38100004196167,learn,60000.0,Tue Jun 16 2026 11:54:47 GMT-0500 (Central Daylight Time),598451.9000000358,A,boyenter,I,enter,386,2,1416.1000000238419,597035.8000000119,8103,WL,C,6.0
5,9.746000051498413,learn,60000.0,Tue Jun 16 2026 11:54:47 GMT-0500 (Central Daylight Time),598818.2000000477,A,d,I,d,353,2,366.0,598452.2000000477,8103,WL,C,7.0
5,9.913000106811523,learn,60000.0,Tue Jun 16 2026 11:54:47 GMT-0500 (Central Daylight Time),598984.9000000358,A,do,I,o,146,2,532.6999999880791,598452.2000000477,8103,WL,C,7.0
5,10.046000003814697,learn,60000.0,Tue Jun 16 2026 11:54:47 GMT-0500 (Central Daylight Time),599118.2000000477,A,doc,I,c,125,2,666.0,598452.2000000477,8103,WL,C,7.0
5,10.296000003814697,learn,60000.0,Tue Jun 16 2026 11:54:47 GMT-0500 (Central Daylight Time),599367.9000000358,A,doct,I,t,239,2,915.6999999880791,598452.2000000477,8103,WL,C,7.0
5,10.479000091552734,learn,60000.0,Tue Jun 16 2026 11:54:47 GMT-0500 (Central Daylight Time),599551.3000000119,A,docto,I,o,172,2,1099.0999999642372,598452.2000000477,8103,WL,C,7.0
5,10.946000099182129,learn,60000.0,Tue Jun 16 2026 11:54:47 GMT-0500 (Central Daylight Time),600017.7000000477,A,doctor,I,r,446,2,1565.5,598452.2000000477,8103,WL,C,7.0
5,11.479000091552734,learn,60000.0,Tue Jun 16 2026 11:54:47 GMT-0500 (Central Daylight Time),600551.1000000238,A,doctorenter,I,enter,524,2,2098.899999976158,598452.2000000477,8103,WL,C,7.0
5,11.861999988555908,learn,60000.0,Tue Jun 16 2026 11:54:47 GMT-0500 (Central Daylight Time),600934.3000000119,A,t,I,t,374,2,382.89999997615814,600551.4000000358,8103,WL,C,8.0
5,11.995000123977661,learn,60000.0,Tue Jun 16 2026 11:54:47 GMT-0500 (Central Daylight Time),601067.6000000238,A,to,I,o,119,2,516.1999999880791,600551.4000000358,8103,WL,C,8.0
5,12.111999988555908,learn,60000.0,Tue Jun 16 2026 11:54:47 GMT-0500 (Central Daylight Time),601184.1000000238,A,tow,I,w,106,2,632.6999999880791,600551.4000000358,8103,WL,C,8.0
5,12.278000116348267,learn,60000.0,Tue Jun 16 2026 11:54:47 GMT-0500 (Central Daylight Time),601350.5,A,towe,I,e,148,2,799.0999999642372,600551.4000000358,8103,WL,C,8.0
5,12.412000179290771,learn,60000.0,Tue Jun 16 2026 11:54:47 GMT-0500 (Central Daylight Time),601484.1000000238,A,tower,I,r,119,2,932.6999999880791,600551.4000000358,8103,WL,C,8.0
5,12.912000179290771,learn,60000.0,Tue Jun 16 2026 11:54:47 GMT-0500 (Central Daylight Time),601983.9000000358,A,towerenter,I,enter,481,2,1432.5,600551.4000000358,8103,WL,C,8.0
5,13.412000179290771,learn,60000.0,Tue Jun 16 2026 11:54:47 GMT-0500 (Central Daylight Time),602483.8000000119,A,q,I,q,485,2,499.5999999642372,601984.2000000477,8103,WL,C,9.0
5,13.59500002861023,learn,60000.0,Tue Jun 16 2026 11:54:47 GMT-0500 (Central Daylight Time),602666.8000000119,A,qu,I,u,178,2,682.5999999642372,601984.2000000477,8103,WL,C,9.0
5,13.710999965667725,learn,60000.0,Tue Jun 16 2026 11:54:47 GMT-0500 (Central Daylight Time),602783.5,A,que,I,e,106,2,799.2999999523163,601984.2000000477,8103,WL,C,9.0
5,13.912000179290771,learn,60000.0,Tue Jun 16 2026 11:54:47 GMT-0500 (Central Daylight Time),602983.7000000477,A,quee,I,e,181,2,999.5,601984.2000000477,8103,WL,C,9.0
5,14.07800006866455,learn,60000.0,Tue Jun 16 2026 11:54:47 GMT-0500 (Central Daylight Time),603150.2000000477,A,queen,I,n,157,2,1166.0,601984.2000000477,8103,WL,C,9.0
5,14.42799997329712,learn,60000.0,Tue Jun 16 2026 11:54:47 GMT-0500 (Central Daylight Time),603500.0,A,queenenter,I,enter,342,2,1515.7999999523163,601984.2000000477,8103,WL,C,9.0
5,14.844000101089478,learn,60000.0,Tue Jun 16 2026 11:54:47 GMT-0500 (Central Daylight Time),603916.5,A,w,I,w,402,2,416.19999998807907,603500.3000000119,8103,WL,C,10.0
5,15.028000116348267,learn,60000.0,Tue Jun 16 2026 11:54:47 GMT-0500 (Central Daylight Time),604099.9000000358,A,wh,I,h,177,2,599.6000000238419,603500.3000000119,8103,WL,C,10.0
5,15.17799997329712,learn,60000.0,Tue Jun 16 2026 11:54:47 GMT-0500 (Central Daylight Time),604249.6000000238,A,whe,I,e,138,2,749.3000000119209,603500.3000000119,8103,WL,C,10.0
5,15.460999965667725,learn,60000.0,Tue Jun 16 2026 11:54:47 GMT-0500 (Central Daylight Time),604533.2000000477,A,whea,I,a,276,2,1032.9000000357628,603500.3000000119,8103,WL,C,10.0
5,15.628000020980835,learn,60000.0,Tue Jun 16 2026 11:54:47 GMT-0500 (Central Daylight Time),604699.7000000477,A,wheat,I,t,151,2,1199.4000000357628,603500.3000000119,8103,WL,C,10.0
5,15.99399995803833,learn,60000.0,Tue Jun 16 2026 11:54:47 GMT-0500 (Central Daylight Time),605066.2000000477,A,wheatenter,I,enter,361,2,1565.9000000357628,603500.3000000119,8103,WL,C,10.0
5,16.294000148773193,learn,60000.0,Tue Jun 16 2026 11:54:47 GMT-0500 (Central Daylight Time),605366.1000000238,A,s,I,s,291,2,299.39999997615814,605066.7000000477,8103,WL,C,11.0
5,16.444000005722046,learn,60000.0,Tue Jun 16 2026 11:54:47 GMT-0500 (Central Daylight Time),605516.1000000238,A,su,I,u,143,2,449.39999997615814,605066.7000000477,8103,WL,C,11.0
5,16.694000005722046,learn,60000.0,Tue Jun 16 2026 11:54:47 GMT-0500 (Central Daylight Time),605765.9000000358,A,sug,I,g,241,2,699.1999999880791,605066.7000000477,8103,WL,C,11.0
5,16.89400005340576,learn,60000.0,Tue Jun 16 2026 11:54:47 GMT-0500 (Central Daylight Time),605965.9000000358,A,suga,I,a,183,2,899.1999999880791,605066.7000000477,8103,WL,C,11.0
5,17.094000101089478,learn,60000.0,Tue Jun 16 2026 11:54:47 GMT-0500 (Central Daylight Time),606165.9000000358,A,sugar,I,r,191,2,1099.199999988079,605066.7000000477,8103,WL,C,11.0
5,17.444000005722046,learn,60000.0,Tue Jun 16 2026 11:54:47 GMT-0500 (Central Daylight Time),606515.8000000119,A,sugarenter,I,enter,343,2,1449.0999999642372,605066.7000000477,8103,WL,C,11.0
5,18.028000116348267,learn,60000.0,Tue Jun 16 2026 11:54:47 GMT-0500 (Central Daylight Time),607099.8000000119,A,c,I,c,570,2,583.6999999880791,606516.1000000238,8103,WL,C,12.0
5,18.243000030517578,learn,60000.0,Tue Jun 16 2026 11:54:47 GMT-0500 (Central Daylight Time),607315.5,A,ca,I,a,201,2,799.3999999761581,606516.1000000238,8103,WL,C,12.0
5,18.3270001411438,learn,60000.0,Tue Jun 16 2026 11:54:47 GMT-0500 (Central Daylight Time),607398.7000000477,A,cat,I,t,74,2,882.6000000238419,606516.1000000238,8103,WL,C,12.0
5,18.527000188827515,learn,60000.0,Tue Jun 16 2026 11:54:47 GMT-0500 (Central Daylight Time),607598.8000000119,A,catt,I,t,183,2,1082.699999988079,606516.1000000238,8103,WL,C,12.0
5,18.693000078201294,learn,60000.0,Tue Jun 16 2026 11:54:47 GMT-0500 (Central Daylight Time),607765.6000000238,A,cattl,I,l,151,2,1249.5,606516.1000000238,8103,WL,C,12.0
5,18.843000173568726,learn,60000.0,Tue Jun 16 2026 11:54:47 GMT-0500 (Central Daylight Time),607915.2000000477,A,cattle,I,e,136,2,1399.1000000238419,606516.1000000238,8103,WL,C,12.0
5,19.194000005722046,learn,60000.0,Tue Jun 16 2026 11:54:47 GMT-0500 (Central Daylight Time),608266.4000000358,A,cattleenter,I,enter,329,2,1750.300000011921,606516.1000000238,8103,WL,C,12.0
5,19.62600016593933,learn,60000.0,Tue Jun 16 2026 11:54:47 GMT-0500 (Central Daylight Time),608698.2000000477,A,l,I,l,419,2,431.5,608266.7000000477,8103,WL,C,13.0
5,19.759999990463257,learn,60000.0,Tue Jun 16 2026 11:54:47 GMT-0500 (Central Daylight Time),608831.7000000477,A,le,I,e,115,2,565.0,608266.7000000477,8103,WL,C,13.0
5,19.993000030517578,learn,60000.0,Tue Jun 16 2026 11:54:47 GMT-0500 (Central Daylight Time),609065.1000000238,A,let,I,t,221,2,798.3999999761581,608266.7000000477,8103,WL,C,13.0
5,20.159000158309937,learn,60000.0,Tue Jun 16 2026 11:54:47 GMT-0500 (Central Daylight Time),609231.5,A,lett,I,t,147,2,964.7999999523163,608266.7000000477,8103,WL,C,13.0
5,20.292999982833862,learn,60000.0,Tue Jun 16 2026 11:54:47 GMT-0500 (Central Daylight Time),609364.9000000358,A,lette,I,e,125,2,1098.199999988079,608266.7000000477,8103,WL,C,13.0
5,20.444000005722046,learn,60000.0,Tue Jun 16 2026 11:54:47 GMT-0500 (Central Daylight Time),609515.9000000358,A,letter,I,r,136,2,1249.199999988079,608266.7000000477,8103,WL,C,13.0
5,21.242000102996826,learn,60000.0,Tue Jun 16 2026 11:54:47 GMT-0500 (Central Daylight Time),610314.3000000119,A,letterenter,I,enter,792,2,2047.5999999642372,608266.7000000477,8103,WL,C,13.0
5,21.79200005531311,learn,60000.0,Tue Jun 16 2026 11:54:47 GMT-0500 (Central Daylight Time),610864.4000000358,A,c,I,c,530,2,549.8000000119209,610314.6000000238,8103,WL,C,14.0
5,21.89199995994568,learn,60000.0,Tue Jun 16 2026 11:54:47 GMT-0500 (Central Daylight Time),610964.5,A,co,I,o,85,2,649.8999999761581,610314.6000000238,8103,WL,C,14.0
5,22.075000047683716,learn,60000.0,Tue Jun 16 2026 11:54:47 GMT-0500 (Central Daylight Time),611147.7000000477,A,cor,I,r,177,2,833.1000000238419,610314.6000000238,8103,WL,C,14.0
5,22.259000062942505,learn,60000.0,Tue Jun 16 2026 11:54:47 GMT-0500 (Central Daylight Time),611330.8000000119,A,corn,I,n,178,2,1016.1999999880791,610314.6000000238,8103,WL,C,14.0
5,22.742000102996826,learn,60000.0,Tue Jun 16 2026 11:54:47 GMT-0500 (Central Daylight Time),611813.9000000358,A,cornenter,I,enter,467,2,1499.300000011921,610314.6000000238,8103,WL,C,14.0
5,49.78400015830994,learn,60000.0,Tue Jun 16 2026 11:54:47 GMT-0500 (Central Daylight Time),638855.8000000119,A,n,I,n,27032,2,27041.69999998808,611814.1000000238,8103,WL,C,15.0
5,49.867000102996826,learn,60000.0,Tue Jun 16 2026 11:54:47 GMT-0500 (Central Daylight Time),638938.7000000477,A,na,I,a,69,2,27124.600000023842,611814.1000000238,8103,WL,C,15.0
5,50.049999952316284,learn,60000.0,Tue Jun 16 2026 11:54:47 GMT-0500 (Central Daylight Time),639122.4000000358,A,nai,I,i,164,2,27308.30000001192,611814.1000000238,8103,WL,C,15.0
5,50.73300004005432,learn,60000.0,Tue Jun 16 2026 11:54:47 GMT-0500 (Central Daylight Time),639805.3000000119,A,nail,I,l,675,2,27991.19999998808,611814.1000000238,8103,WL,C,15.0
5,51.949000120162964,learn,60000.0,Tue Jun 16 2026 11:54:47 GMT-0500 (Central Daylight Time),641021.5,A,nailenter,I,enter,1208,2,29207.399999976158,611814.1000000238,8103,WL,C,15.0
6,1.248999834060669,distr,58751.00016593933,Tue Jun 16 2026 11:54:47 GMT-0500 (Central Daylight Time),711932.8000000119,B,s,I,s,1234,2,1249.3999999761581,710683.4000000358,8103,WL,C,1.0
6,1.4489998817443848,distr,58551.000118255615,Tue Jun 16 2026 11:54:47 GMT-0500 (Central Daylight Time),712132.9000000358,B,sk,I,k,190,2,1449.5,710683.4000000358,8103,WL,C,1.0
6,1.815999984741211,distr,58184.00001525879,Tue Jun 16 2026 11:54:47 GMT-0500 (Central Daylight Time),712499.9000000358,B,sky,I,y,360,2,1816.5,710683.4000000358,8103,WL,C,1.0
6,2.1659998893737793,distr,57834.00011062622,Tue Jun 16 2026 11:54:47 GMT-0500 (Central Daylight Time),712849.2000000477,B,skyenter,I,enter,328,2,2165.800000011921,710683.4000000358,8103,WL,C,1.0
6,2.4819998741149902,distr,57518.00012588501,Tue Jun 16 2026 11:54:47 GMT-0500 (Central Daylight Time),713165.8000000119,B,d,I,d,308,2,316.30000001192093,712849.5,8103,WL,C,2.0
6,2.681999921798706,distr,57318.000078201294,Tue Jun 16 2026 11:54:47 GMT-0500 (Central Daylight Time),713365.5,B,do,I,o,189,2,516.0,712849.5,8103,WL,C,2.0
6,2.9659998416900635,distr,57034.00015830994,Tue Jun 16 2026 11:54:47 GMT-0500 (Central Daylight Time),713649.8000000119,B,dol,I,l,263,2,800.3000000119209,712849.5,8103,WL,C,2.0
6,3.131999969482422,distr,56868.00003051758,Tue Jun 16 2026 11:54:47 GMT-0500 (Central Daylight Time),713815.5,B,doll,I,l,155,2,966.0,712849.5,8103,WL,C,2.0
6,4.264999866485596,distr,55735.000133514404,Tue Jun 16 2026 11:54:47 GMT-0500 (Central Daylight Time),714948.6000000238,B,dolla,I,a,1126,2,2099.100000023842,712849.5,8103,WL,C,2.0
6,4.582000017166138,distr,55417.99998283386,Tue Jun 16 2026 11:54:47 GMT-0500 (Central Daylight Time),715265.2000000477,B,dollar,I,r,305,2,2415.7000000476837,712849.5,8103,WL,C,2.0
6,4.797999858856201,distr,55202.0001411438,Tue Jun 16 2026 11:54:47 GMT-0500 (Central Daylight Time),715481.9000000358,B,dollarenter,I,enter,195,2,2632.400000035763,712849.5,8103,WL,C,2.0
6,5.148000001907349,distr,54851.99999809265,Tue Jun 16 2026 11:54:47 GMT-0500 (Central Daylight Time),715831.5,B,m,I,m,339,2,349.39999997615814,715482.1000000238,8103,WL,C,3.0
6,5.31499981880188,distr,54685.00018119812,Tue Jun 16 2026 11:54:47 GMT-0500 (Central Daylight Time),715998.4000000358,B,mo,I,o,158,2,516.3000000119209,715482.1000000238,8103,WL,C,3.0
6,5.5309998989105225,distr,54469.00010108948,Tue Jun 16 2026 11:54:47 GMT-0500 (Central Daylight Time),716214.5,B,mot,I,t,199,2,732.3999999761581,715482.1000000238,8103,WL,C,3.0
6,5.664999961853027,distr,54335.00003814697,Tue Jun 16 2026 11:54:47 GMT-0500 (Central Daylight Time),716348.0,B,moth,I,h,127,2,865.8999999761581,715482.1000000238,8103,WL,C,3.0
6,5.781999826431274,distr,54218.000173568726,Tue Jun 16 2026 11:54:47 GMT-0500 (Central Daylight Time),716465.7000000477,B,mothe,I,e,112,2,983.6000000238419,715482.1000000238,8103,WL,C,3.0
6,5.914999961853027,distr,54085.00003814697,Tue Jun 16 2026 11:54:47 GMT-0500 (Central Daylight Time),716598.1000000238,B,mother,I,r,116,2,1116.0,715482.1000000238,8103,WL,C,3.0
6,6.263999938964844,distr,53736.000061035156,Tue Jun 16 2026 11:54:47 GMT-0500 (Central Daylight Time),716947.7000000477,B,motherenter,I,enter,342,2,1465.6000000238419,715482.1000000238,8103,WL,C,3.0
6,6.580999851226807,distr,53419.00014877319,Tue Jun 16 2026 11:54:47 GMT-0500 (Central Daylight Time),717264.6000000238,B,h,I,h,305,2,316.69999998807907,716947.9000000358,8103,WL,C,4.0
6,6.747999906539917,distr,53252.00009346008,Tue Jun 16 2026 11:54:47 GMT-0500 (Central Daylight Time),717431.1000000238,B,ha,I,a,148,2,483.19999998807907,716947.9000000358,8103,WL,C,4.0
6,6.914000034332275,distr,53085.999965667725,Tue Jun 16 2026 11:54:47 GMT-0500 (Central Daylight Time),717597.5,B,hal,I,l,150,2,649.5999999642372,716947.9000000358,8103,WL,C,4.0
6,7.063999891281128,distr,52936.00010871887,Tue Jun 16 2026 11:54:47 GMT-0500 (Central Daylight Time),717747.6000000238,B,hall,I,l,136,2,799.6999999880791,716947.9000000358,8103,WL,C,4.0
6,7.396999835968018,distr,52603.00016403198,Tue Jun 16 2026 11:54:47 GMT-0500 (Central Daylight Time),718080.7000000477,B,hallenter,I,enter,313,2,1132.800000011921,716947.9000000358,8103,WL,C,4.0
6,7.896999835968018,distr,52103.00016403198,Tue Jun 16 2026 11:54:47 GMT-0500 (Central Daylight Time),718580.5,B,b,I,b,493,2,499.5,718081.0,8103,WL,C,5.0
6,8.145999908447266,distr,51854.000091552734,Tue Jun 16 2026 11:54:47 GMT-0500 (Central Daylight Time),718830.5,B,bu,I,u,233,2,749.5,718081.0,8103,WL,C,5.0
6,8.428999900817871,distr,51571.00009918213,Tue Jun 16 2026 11:54:47 GMT-0500 (Central Daylight Time),719114.0,B,but,I,t,263,2,1033.0,718081.0,8103,WL,C,5.0
6,8.611999988555908,distr,51388.00001144409,Tue Jun 16 2026 11:54:47 GMT-0500 (Central Daylight Time),719297.1000000238,B,butt,I,t,171,2,1216.1000000238419,718081.0,8103,WL,C,5.0
6,8.779000043869019,distr,51220.99995613098,Tue Jun 16 2026 11:54:47 GMT-0500 (Central Daylight Time),719463.6000000238,B,butte,I,e,147,2,1382.6000000238419,718081.0,8103,WL,C,5.0
6,8.878999948501587,distr,51121.00005149841,Tue Jun 16 2026 11:54:47 GMT-0500 (Central Daylight Time),719563.7000000477,B,butter,I,r,94,2,1482.7000000476837,718081.0,8103,WL,C,5.0
6,9.062000036239624,distr,50937.999963760376,Tue Jun 16 2026 11:54:47 GMT-0500 (Central Daylight Time),719746.9000000358,B,butterenter,I,enter,178,2,1665.9000000357628,718081.0,8103,WL,C,5.0
6,11.044999837875366,distr,48955.000162124634,Tue Jun 16 2026 11:54:47 GMT-0500 (Central Daylight Time),721729.9000000358,B,m,I,m,1963,2,1982.699999988079,719747.2000000477,8103,WL,C,6.0
6,11.227999925613403,distr,48772.0000743866,Tue Jun 16 2026 11:54:47 GMT-0500 (Central Daylight Time),721913.2000000477,B,mo,I,o,162,2,2166.0,719747.2000000477,8103,WL,C,6.0
6,12.26199984550476,distr,47738.00015449524,Tue Jun 16 2026 11:54:47 GMT-0500 (Central Daylight Time),722946.4000000358,B,mon,I,n,1028,2,3199.199999988079,719747.2000000477,8103,WL,C,6.0
6,12.460999965667725,distr,47539.000034332275,Tue Jun 16 2026 11:54:47 GMT-0500 (Central Daylight Time),723146.0,B,mone,I,e,179,2,3398.7999999523163,719747.2000000477,8103,WL,C,6.0
6,12.99399995803833,distr,47006.00004196167,Tue Jun 16 2026 11:54:47 GMT-0500 (Central Daylight Time),723679.0,B,money,I,y,523,2,3931.7999999523163,719747.2000000477,8103,WL,C,6.0
6,13.610999822616577,distr,46389.00017738342,Tue Jun 16 2026 11:54:47 GMT-0500 (Central Daylight Time),724295.5,B,moneyenter,I,enter,607,2,4548.299999952316,719747.2000000477,8103,WL,C,6.0
6,15.927000045776367,distr,44072.99995422363,Tue Jun 16 2026 11:54:47 GMT-0500 (Central Daylight Time),726611.7000000477,B,h,I,h,2302,2,2315.800000011921,724295.9000000358,8103,WL,C,7.0
6,16.07699990272522,distr,43923.00009727478,Tue Jun 16 2026 11:54:47 GMT-0500 (Central Daylight Time),726761.5,B,ha,I,a,137,2,2465.599999964237,724295.9000000358,8103,WL,C,7.0
6,16.24399995803833,distr,43756.00004196167,Tue Jun 16 2026 11:54:47 GMT-0500 (Central Daylight Time),726928.2000000477,B,hal,I,l,156,2,2632.300000011921,724295.9000000358,8103,WL,C,7.0
6,16.40999984741211,distr,43590.00015258789,Tue Jun 16 2026 11:54:47 GMT-0500 (Central Daylight Time),727094.6000000238,B,hall,I,l,149,2,2798.699999988079,724295.9000000358,8103,WL,C,7.0
6,16.710000038146973,distr,43289.99996185303,Tue Jun 16 2026 11:54:47 GMT-0500 (Central Daylight Time),727394.3000000119,B,hallenter,I,enter,294,2,3098.399999976158,724295.9000000358,8103,WL,C,7.0
6,50.13199996948242,distr,9868.000030517578,Tue Jun 16 2026 11:54:47 GMT-0500 (Central Daylight Time),760817.1000000238,B,enter,I,enter,33402,2,33422.5,727394.6000000238,8103,WL,C,8.0
6,51.01600003242493,distr,8983.999967575073,Tue Jun 16 2026 11:54:47 GMT-0500 (Central Daylight Time),761700.5,B,enter,I,enter,875,2,883.0999999642372,760817.4000000358,8103,WL,C,9.0
6,51.61500000953674,distr,8384.999990463257,Tue Jun 16 2026 11:54:47 GMT-0500 (Central Daylight Time),762300.1000000238,B,enter,I,enter,592,2,599.1999999880791,761700.9000000358,8103,WL,C,10.0
6,51.848999977111816,distr,8151.000022888184,Tue Jun 16 2026 11:54:47 GMT-0500 (Central Daylight Time),762533.5,B,enter,I,enter,217,2,233.0999999642372,762300.4000000358,8103,WL,C,11.0
6,52.014999866485596,distr,7985.000133514404,Tue Jun 16 2026 11:54:47 GMT-0500 (Central Daylight Time),762700.1000000238,B,enter,I,enter,160,2,166.10000002384186,762534.0,8103,WL,C,12.0
6,52.21599984169006,distr,7784.0001583099365,Tue Jun 16 2026 11:54:47 GMT-0500 (Central Daylight Time),762900.3000000119,B,enter,I,enter,193,2,199.89999997615814,762700.4000000358,8103,WL,C,13.0
6,52.3989999294281,distr,7601.000070571899,Tue Jun 16 2026 11:54:47 GMT-0500 (Central Daylight Time),763083.3000000119,B,enter,I,enter,169,2,182.69999998807907,762900.6000000238,8103,WL,C,14.0
6,52.56499981880188,distr,7435.00018119812,Tue Jun 16 2026 11:54:47 GMT-0500 (Central Daylight Time),763250.1000000238,B,enter,I,enter,153,2,166.39999997615814,763083.7000000477,8103,WL,C,15.0
7,1.5839998722076416,immed,58416.00012779236,Tue Jun 16 2026 11:54:47 GMT-0500 (Central Daylight Time),772814.9000000358,A,t,I,t,1566,2,1584.0,771230.9000000358,8103,WL,C,1.0
7,1.7990000247955322,immed,58200.99997520447,Tue Jun 16 2026 11:54:47 GMT-0500 (Central Daylight Time),773030.1000000238,A,to,I,o,197,2,1799.199999988079,771230.9000000358,8103,WL,C,1.0
7,2.1489999294281006,immed,57851.0000705719,Tue Jun 16 2026 11:54:47 GMT-0500 (Central Daylight Time),773379.9000000358,A,tow,I,w,343,2,2149.0,771230.9000000358,8103,WL,C,1.0
7,2.315999984741211,immed,57684.00001525879,Tue Jun 16 2026 11:54:47 GMT-0500 (Central Daylight Time),773547.0,A,towe,I,e,154,2,2316.099999964237,771230.9000000358,8103,WL,C,1.0
7,2.3989999294281006,immed,57601.0000705719,Tue Jun 16 2026 11:54:47 GMT-0500 (Central Daylight Time),773630.0,A,tower,I,r,66,2,2399.099999964237,771230.9000000358,8103,WL,C,1.0
7,3.0820000171661377,immed,56917.99998283386,Tue Jun 16 2026 11:54:47 GMT-0500 (Central Daylight Time),774313.1000000238,A,towerenter,I,enter,671,2,3082.199999988079,771230.9000000358,8103,WL,C,1.0
7,3.4159998893737793,immed,56584.00011062622,Tue Jun 16 2026 11:54:47 GMT-0500 (Central Daylight Time),774646.5,A,w,I,w,315,2,333.0,774313.5,8103,WL,C,2.0
7,3.6659998893737793,immed,56334.00011062622,Tue Jun 16 2026 11:54:47 GMT-0500 (Central Daylight Time),774896.4000000358,A,wh,I,h,230,2,582.9000000357628,774313.5,8103,WL,C,2.0
7,3.81499981880188,immed,56185.00018119812,Tue Jun 16 2026 11:54:47 GMT-0500 (Central Daylight Time),775046.1000000238,A,whe,I,e,141,2,732.6000000238419,774313.5,8103,WL,C,2.0
7,4.132999897003174,immed,55867.000102996826,Tue Jun 16 2026 11:54:47 GMT-0500 (Central Daylight Time),775364.1000000238,A,whea,I,a,303,2,1050.6000000238419,774313.5,8103,WL,C,2.0
7,4.415999889373779,immed,55584.00011062622,Tue Jun 16 2026 11:54:47 GMT-0500 (Central Daylight Time),775646.2000000477,A,wheat,I,t,273,2,1332.7000000476837,774313.5,8103,WL,C,2.0
7,5.131999969482422,immed,54868.00003051758,Tue Jun 16 2026 11:54:47 GMT-0500 (Central Daylight Time),776362.7000000477,A,wheatenter,I,enter,695,2,2049.2000000476837,774313.5,8103,WL,C,2.0
7,5.48199987411499,immed,54518.00012588501,Tue Jun 16 2026 11:54:47 GMT-0500 (Central Daylight Time),776712.4000000358,A,q,I,q,338,2,349.4000000357628,776363.0,8103,WL,C,3.0
7,5.664999961853027,immed,54335.00003814697,Tue Jun 16 2026 11:54:47 GMT-0500 (Central Daylight Time),776895.8000000119,A,qu,I,u,165,2,532.8000000119209,776363.0,8103,WL,C,3.0
7,5.8480000495910645,immed,54151.999950408936,Tue Jun 16 2026 11:54:47 GMT-0500 (Central Daylight Time),777078.9000000358,A,que,I,e,165,2,715.9000000357628,776363.0,8103,WL,C,3.0
7,6.049999952316284,immed,53950.000047683716,Tue Jun 16 2026 11:54:47 GMT-0500 (Central Daylight Time),777280.2000000477,A,quee,I,e,191,2,917.2000000476837,776363.0,8103,WL,C,3.0
7,6.248999834060669,immed,53751.00016593933,Tue Jun 16 2026 11:54:47 GMT-0500 (Central Daylight Time),777479.6000000238,A,queen,I,n,189,2,1116.6000000238419,776363.0,8103,WL,C,3.0
7,6.83299994468689,immed,53167.00005531311,Tue Jun 16 2026 11:54:47 GMT-0500 (Central Daylight Time),778063.3000000119,A,queenenter,I,enter,566,2,1700.300000011921,776363.0,8103,WL,C,3.0
7,7.763000011444092,immed,52236.99998855591,Tue Jun 16 2026 11:54:47 GMT-0500 (Central Daylight Time),778995.1000000238,A,h,I,h,917,2,931.6000000238419,778063.5,8103,WL,C,4.0
7,7.980000019073486,immed,52019.999980926514,Tue Jun 16 2026 11:54:47 GMT-0500 (Central Daylight Time),779211.7000000477,A,ho,I,o,202,2,1148.2000000476837,778063.5,8103,WL,C,4.0
7,8.096999883651733,immed,51903.00011634827,Tue Jun 16 2026 11:54:47 GMT-0500 (Central Daylight Time),779328.5,A,hom,I,m,97,2,1265.0,778063.5,8103,WL,C,4.0
7,8.246999979019165,immed,51753.000020980835,Tue Jun 16 2026 11:54:47 GMT-0500 (Central Daylight Time),779478.4000000358,A,home,I,e,141,2,1414.9000000357628,778063.5,8103,WL,C,4.0
7,8.513999938964844,immed,51486.000061035156,Tue Jun 16 2026 11:54:47 GMT-0500 (Central Daylight Time),779745.8000000119,A,homeenter,I,enter,246,2,1682.300000011921,778063.5,8103,WL,C,4.0
7,8.86299991607666,immed,51137.00008392334,Tue Jun 16 2026 11:54:47 GMT-0500 (Central Daylight Time),780094.6000000238,A,b,I,b,339,2,348.60000002384186,779746.0,8103,WL,C,5.0
7,9.11299991607666,immed,50887.00008392334,Tue Jun 16 2026 11:54:47 GMT-0500 (Central Daylight Time),780344.7000000477,A,bo,I,o,230,2,598.7000000476837,779746.0,8103,WL,C,5.0
7,9.345999956130981,immed,50654.00004386902,Tue Jun 16 2026 11:54:47 GMT-0500 (Central Daylight Time),780578.0,A,boy,I,y,213,2,832.0,779746.0,8103,WL,C,5.0
7,9.645999908447266,immed,50354.000091552734,Tue Jun 16 2026 11:54:47 GMT-0500 (Central Daylight Time),780877.8000000119,A,boyenter,I,enter,291,2,1131.800000011921,779746.0,8103,WL,C,5.0
7,10.029000043869019,immed,49970.99995613098,Tue Jun 16 2026 11:54:47 GMT-0500 (Central Daylight Time),781260.8000000119,A,f,I,f,367,2,382.5,780878.3000000119,8103,WL,C,6.0
7,10.228999853134155,immed,49771.000146865845,Tue Jun 16 2026 11:54:47 GMT-0500 (Central Daylight Time),781461.1000000238,A,fl,I,l,183,2,582.8000000119209,780878.3000000119,8103,WL,C,6.0
7,10.412999868392944,immed,49587.000131607056,Tue Jun 16 2026 11:54:47 GMT-0500 (Central Daylight Time),781644.3000000119,A,fla,I,a,176,2,766.0,780878.3000000119,8103,WL,C,6.0
7,10.712999820709229,immed,49287.00017929077,Tue Jun 16 2026 11:54:47 GMT-0500 (Central Daylight Time),781944.5,A,flag,I,g,280,2,1066.199999988079,780878.3000000119,8103,WL,C,6.0
7,11.046000003814697,immed,48953.9999961853,Tue Jun 16 2026 11:54:47 GMT-0500 (Central Daylight Time),782277.5,A,flagenter,I,enter,317,2,1399.199999988079,780878.3000000119,8103,WL,C,6.0
7,11.711999893188477,immed,48288.00010681152,Tue Jun 16 2026 11:54:47 GMT-0500 (Central Daylight Time),782943.8000000119,A,n,I,n,656,2,666.0,782277.8000000119,8103,WL,C,7.0
7,11.828999996185303,immed,48171.0000038147,Tue Jun 16 2026 11:54:47 GMT-0500 (Central Daylight Time),783060.7000000477,A,na,I,a,101,2,782.9000000357628,782277.8000000119,8103,WL,C,7.0
7,11.994999885559082,immed,48005.00011444092,Tue Jun 16 2026 11:54:47 GMT-0500 (Central Daylight Time),783226.9000000358,A,nai,I,i,160,2,949.1000000238419,782277.8000000119,8103,WL,C,7.0
7,12.194999933242798,immed,47805.0000667572,Tue Jun 16 2026 11:54:47 GMT-0500 (Central Daylight Time),783426.8000000119,A,nail,I,l,195,2,1149.0,782277.8000000119,8103,WL,C,7.0
7,12.628000020980835,immed,47371.999979019165,Tue Jun 16 2026 11:54:47 GMT-0500 (Central Daylight Time),783860.3000000119,A,nailenter,I,enter,418,2,1582.5,782277.8000000119,8103,WL,C,7.0
7,13.17799997329712,immed,46822.00002670288,Tue Jun 16 2026 11:54:47 GMT-0500 (Central Daylight Time),784409.8000000119,A,c,I,c,545,2,549.1999999880791,783860.6000000238,8103,WL,C,8.0
7,13.312000036239624,immed,46687.999963760376,Tue Jun 16 2026 11:54:47 GMT-0500 (Central Daylight Time),784543.4000000358,A,co,I,o,124,2,682.8000000119209,783860.6000000238,8103,WL,C,8.0
7,13.510999917984009,immed,46489.00008201599,Tue Jun 16 2026 11:54:47 GMT-0500 (Central Daylight Time),784743.2000000477,A,cor,I,r,181,2,882.6000000238419,783860.6000000238,8103,WL,C,8.0
7,13.711999893188477,immed,46288.00010681152,Tue Jun 16 2026 11:54:47 GMT-0500 (Central Daylight Time),784943.4000000358,A,corn,I,n,190,2,1082.800000011921,783860.6000000238,8103,WL,C,8.0
7,13.994999885559082,immed,46005.00011444092,Tue Jun 16 2026 11:54:47 GMT-0500 (Central Daylight Time),785226.3000000119,A,cornenter,I,enter,270,2,1365.699999988079,783860.6000000238,8103,WL,C,8.0
7,14.360999822616577,immed,45639.00017738342,Tue Jun 16 2026 11:54:47 GMT-0500 (Central Daylight Time),785593.0,A,c,I,c,346,2,366.2999999523163,785226.7000000477,8103,WL,C,9.0
7,14.577999830245972,immed,45422.00016975403,Tue Jun 16 2026 11:54:47 GMT-0500 (Central Daylight Time),785809.6000000238,A,ca,I,a,203,2,582.8999999761581,785226.7000000477,8103,WL,C,9.0
7,14.74399995803833,immed,45256.00004196167,Tue Jun 16 2026 11:54:47 GMT-0500 (Central Daylight Time),785976.1000000238,A,cat,I,t,157,2,749.3999999761581,785226.7000000477,8103,WL,C,9.0
7,14.92799997329712,immed,45072.00002670288,Tue Jun 16 2026 11:54:47 GMT-0500 (Central Daylight Time),786159.4000000358,A,catt,I,t,165,2,932.6999999880791,785226.7000000477,8103,WL,C,9.0
7,15.093999862670898,immed,44906.0001373291,Tue Jun 16 2026 11:54:47 GMT-0500 (Central Daylight Time),786326.2000000477,A,cattl,I,l,150,2,1099.5,785226.7000000477,8103,WL,C,9.0
7,15.227999925613403,immed,44772.0000743866,Tue Jun 16 2026 11:54:47 GMT-0500 (Central Daylight Time),786459.6000000238,A,cattle,I,e,119,2,1232.8999999761581,785226.7000000477,8103,WL,C,9.0
7,15.577999830245972,immed,44422.00016975403,Tue Jun 16 2026 11:54:47 GMT-0500 (Central Daylight Time),786809.4000000358,A,cattleenter,I,enter,329,2,1582.699999988079,785226.7000000477,8103,WL,C,9.0
7,15.976999998092651,immed,44023.00000190735,Tue Jun 16 2026 11:54:47 GMT-0500 (Central Daylight Time),787209.2000000477,A,s,I,s,388,2,399.60000002384186,786809.6000000238,8103,WL,C,10.0
7,16.126999855041504,immed,43873.000144958496,Tue Jun 16 2026 11:54:47 GMT-0500 (Central Daylight Time),787359.2000000477,A,sh,I,h,140,2,549.6000000238419,786809.6000000238,8103,WL,C,10.0
7,16.276999950408936,immed,43723.000049591064,Tue Jun 16 2026 11:54:47 GMT-0500 (Central Daylight Time),787509.2000000477,A,sho,I,o,134,2,699.6000000238419,786809.6000000238,8103,WL,C,10.0
7,16.378000020980835,immed,43621.999979019165,Tue Jun 16 2026 11:54:47 GMT-0500 (Central Daylight Time),787610.3000000119,A,shor,I,r,88,2,800.6999999880791,786809.6000000238,8103,WL,C,10.0
7,16.66100001335144,immed,43338.99998664856,Tue Jun 16 2026 11:54:47 GMT-0500 (Central Daylight Time),787893.0,A,shore,I,e,275,2,1083.3999999761581,786809.6000000238,8103,WL,C,10.0
7,16.927000045776367,immed,43072.99995422363,Tue Jun 16 2026 11:54:47 GMT-0500 (Central Daylight Time),788158.9000000358,A,shoreenter,I,enter,256,2,1349.300000011921,786809.6000000238,8103,WL,C,10.0
7,17.277999877929688,immed,42722.00012207031,Tue Jun 16 2026 11:54:47 GMT-0500 (Central Daylight Time),788509.4000000358,A,b,I,b,335,2,350.19999998807907,788159.2000000477,8103,WL,C,11.0
7,17.460000038146973,immed,42539.99996185303,Tue Jun 16 2026 11:54:47 GMT-0500 (Central Daylight Time),788691.8000000119,A,bo,I,o,176,2,532.5999999642372,788159.2000000477,8103,WL,C,11.0
7,17.677000045776367,immed,42322.99995422363,Tue Jun 16 2026 11:54:47 GMT-0500 (Central Daylight Time),788908.6000000238,A,bod,I,d,209,2,749.3999999761581,788159.2000000477,8103,WL,C,11.0
7,17.893999814987183,immed,42106.00018501282,Tue Jun 16 2026 11:54:47 GMT-0500 (Central Daylight Time),789125.3000000119,A,body,I,y,209,2,966.0999999642372,788159.2000000477,8103,WL,C,11.0
7,18.493000030517578,immed,41506.99996948242,Tue Jun 16 2026 11:54:47 GMT-0500 (Central Daylight Time),789725.1000000238,A,bodyenter,I,enter,584,2,1565.8999999761581,788159.2000000477,8103,WL,C,11.0
7,24.557999849319458,immed,35442.00015068054,Tue Jun 16 2026 11:54:47 GMT-0500 (Central Daylight Time),795789.9000000358,A,c,I,c,6057,2,6064.5,789725.4000000358,8103,WL,C,12.0
7,24.875,immed,35125.0,Tue Jun 16 2026 11:54:47 GMT-0500 (Central Daylight Time),796106.3000000119,A,ca,I,a,295,2,6380.899999976158,789725.4000000358,8103,WL,C,12.0
7,25.075000047683716,immed,34924.999952316284,Tue Jun 16 2026 11:54:47 GMT-0500 (Central Daylight Time),796306.4000000358,A,cam,I,m,179,2,6581.0,789725.4000000358,8103,WL,C,12.0
7,25.174999952316284,immed,34825.000047683716,Tue Jun 16 2026 11:54:47 GMT-0500 (Central Daylight Time),796406.3000000119,A,camp,I,p,91,2,6680.899999976158,789725.4000000358,8103,WL,C,12.0
7,25.557999849319458,immed,34442.00015068054,Tue Jun 16 2026 11:54:47 GMT-0500 (Central Daylight Time),796789.4000000358,A,campenter,I,enter,375,2,7064.0,789725.4000000358,8103,WL,C,12.0
7,25.924000024795532,immed,34075.99997520447,Tue Jun 16 2026 11:54:47 GMT-0500 (Central Daylight Time),797156.1000000238,A,f,I,f,344,2,366.39999997615814,796789.7000000477,8103,WL,C,13.0
7,26.090999841690063,immed,33909.00015830994,Tue Jun 16 2026 11:54:47 GMT-0500 (Central Daylight Time),797322.4000000358,A,fl,I,l,153,2,532.6999999880791,796789.7000000477,8103,WL,C,13.0
7,26.2739999294281,immed,33726.0000705719,Tue Jun 16 2026 11:54:47 GMT-0500 (Central Daylight Time),797505.9000000358,A,fla,I,a,171,2,716.1999999880791,796789.7000000477,8103,WL,C,13.0
7,26.490999937057495,immed,33509.000062942505,Tue Jun 16 2026 11:54:47 GMT-0500 (Central Daylight Time),797722.4000000358,A,flag,I,g,196,2,932.6999999880791,796789.7000000477,8103,WL,C,13.0
7,26.72499990463257,immed,33275.00009536743,Tue Jun 16 2026 11:54:47 GMT-0500 (Central Daylight Time),797957.0,A,flagenter,I,enter,219,2,1167.2999999523163,796789.7000000477,8103,WL,C,13.0
7,31.188999891281128,immed,28811.000108718872,Tue Jun 16 2026 11:54:47 GMT-0500 (Central Daylight Time),802421.2000000477,A,s,I,s,4448,2,4463.900000035763,797957.3000000119,8103,WL,C,14.0
7,31.35599994659424,immed,28644.00005340576,Tue Jun 16 2026 11:54:47 GMT-0500 (Central Daylight Time),802587.6000000238,A,su,I,u,160,2,4630.300000011921,797957.3000000119,8103,WL,C,14.0
7,31.50600004196167,immed,28493.99995803833,Tue Jun 16 2026 11:54:47 GMT-0500 (Central Daylight Time),802737.4000000358,A,sug,I,g,145,2,4780.100000023842,797957.3000000119,8103,WL,C,14.0
7,31.83899998664856,immed,28161.00001335144,Tue Jun 16 2026 11:54:47 GMT-0500 (Central Daylight Time),803070.8000000119,A,sugr,I,r,316,2,5113.5,797957.3000000119,8103,WL,C,14.0
7,32.805999994277954,immed,27194.000005722046,Tue Jun 16 2026 11:54:47 GMT-0500 (Central Daylight Time),804037.5,A,sugra,I,a,951,2,6080.199999988079,797957.3000000119,8103,WL,C,14.0
7,33.25499987602234,immed,26745.00012397766,Tue Jun 16 2026 11:54:47 GMT-0500 (Central Daylight Time),804486.9000000358,A,sugr,I,backspace,439,2,6529.600000023842,797957.3000000119,8103,WL,C,14.0
7,33.454999923706055,immed,26545.000076293945,Tue Jun 16 2026 11:54:47 GMT-0500 (Central Daylight Time),804687.0,A,sug,I,backspace,190,2,6729.699999988079,797957.3000000119,8103,WL,C,14.0
7,33.605000019073486,immed,26394.999980926514,Tue Jun 16 2026 11:54:47 GMT-0500 (Central Daylight Time),804836.9000000358,A,suga,I,a,133,2,6879.600000023842,797957.3000000119,8103,WL,C,14.0
7,33.72199988365173,immed,26278.000116348267,Tue Jun 16 2026 11:54:47 GMT-0500 (Central Daylight Time),804953.7000000477,A,sugar,I,r,104,2,6996.400000035763,797957.3000000119,8103,WL,C,14.0
7,33.93899989128113,immed,26061.000108718872,Tue Jun 16 2026 11:54:47 GMT-0500 (Central Daylight Time),805170.3000000119,A,sugarenter,I,enter,204,2,7213.0,797957.3000000119,8103,WL,C,14.0
7,60.013999938964844,immed,-13.99993896484375,Tue Jun 16 2026 11:54:47 GMT-0500 (Central Daylight Time),831245.8000000119,A,None,I,None,26070,2,26075.19999998808,805170.6000000238,8103,WL,C,15.0
