acc_sum,block,block_c,change,condition,correct,correct_response,datetime,endtime,face,project,response,response_time,row_sel,session_number,start_end,starttime,subject_id,task,task_vers,trial
0,prac,1,,1-Back,,,Wed Jun 24 2026 14:25:25 GMT-0400 (Eastern Daylight Time),,097_m_f_n_a.png,I,space,13021,1,1,,,9090,NNB,B,0
1,prac,1,0.0,1-Back,1.0,m,Wed Jun 24 2026 14:25:25 GMT-0400 (Eastern Daylight Time),177479.5,152_y_f_n_a.png,I,m,978,2,1,1872.6999999284744,175606.80000007153,9090,NNB,B,1
1,prac,1,1.0,1-Back,0.0,z,Wed Jun 24 2026 14:25:25 GMT-0400 (Eastern Daylight Time),180262.40000009537,152_y_f_n_a.png,I,None,2003,3,1,2769.600000023842,177492.80000007153,9090,NNB,B,2
1,prac,1,0.0,1-Back,0.0,m,Wed Jun 24 2026 14:25:25 GMT-0400 (Eastern Daylight Time),183229.10000002384,176_o_m_n_a.png,I,None,2015,4,1,2952.600000023842,180276.5,9090,NNB,B,3
1,prac,1,0.0,1-Back,0.0,m,Wed Jun 24 2026 14:25:25 GMT-0400 (Eastern Daylight Time),185512.60000002384,126_m_m_n_a.png,I,z,1376,5,1,2274.2999999523163,183238.30000007153,9090,NNB,B,4
1,prac,1,1.0,1-Back,0.0,z,Wed Jun 24 2026 14:25:25 GMT-0400 (Eastern Daylight Time),188312.30000007153,126_m_m_n_a.png,I,None,2013,6,1,2780.3000000715256,185532.0,9090,NNB,B,5
2,prac,1,0.0,1-Back,1.0,m,Wed Jun 24 2026 14:25:25 GMT-0400 (Eastern Daylight Time),190462.5,086_o_f_n_a.png,I,m,1227,7,1,2140.0,188322.5,9090,NNB,B,6
3,prac,1,0.0,1-Back,1.0,m,Wed Jun 24 2026 14:25:25 GMT-0400 (Eastern Daylight Time),192279.30000007153,178_m_m_n_a.png,I,m,909,8,1,1808.3000000715256,190471.0,9090,NNB,B,7
4,prac,1,0.0,1-Back,1.0,m,Wed Jun 24 2026 14:25:25 GMT-0400 (Eastern Daylight Time),194029.30000007153,097_m_f_n_a.png,I,m,954,9,1,1737.5,192291.80000007153,9090,NNB,B,8
5,prac,1,1.0,1-Back,1.0,z,Wed Jun 24 2026 14:25:25 GMT-0400 (Eastern Daylight Time),195629.20000004768,097_m_f_n_a.png,I,z,783,10,1,1567.0,194062.20000004768,9090,NNB,B,9
5,prac,1,0.0,1-Back,0.0,m,Wed Jun 24 2026 14:25:25 GMT-0400 (Eastern Daylight Time),197395.80000007153,176_o_m_n_a.png,I,z,982,11,1,1756.3000000715256,195639.5,9090,NNB,B,10
6,prac,1,0.0,1-Back,1.0,m,Wed Jun 24 2026 14:25:25 GMT-0400 (Eastern Daylight Time),199496.0,173_y_f_n_a.png,I,m,1185,12,1,2084.5999999046326,197411.40000009537,9090,NNB,B,11
0,prac,2,0.0,1-Back,,,Wed Jun 24 2026 14:25:25 GMT-0400 (Eastern Daylight Time),199496.0,097_m_f_n_a.png,I,a,7053,1,1,2084.5999999046326,197411.40000009537,9090,NNB,B,0
1,prac,2,0.0,1-Back,1.0,m,Wed Jun 24 2026 14:25:25 GMT-0400 (Eastern Daylight Time),211279.40000009537,152_y_f_n_a.png,I,m,790,2,1,1674.2000000476837,209605.20000004768,9090,NNB,B,1
2,prac,2,1.0,1-Back,1.0,z,Wed Jun 24 2026 14:25:25 GMT-0400 (Eastern Daylight Time),212895.90000009537,152_y_f_n_a.png,I,z,832,3,1,1602.6000000238419,211293.30000007153,9090,NNB,B,2
3,prac,2,0.0,1-Back,1.0,m,Wed Jun 24 2026 14:25:25 GMT-0400 (Eastern Daylight Time),214629.30000007153,176_o_m_n_a.png,I,m,949,4,1,1725.2000000476837,212904.10000002384,9090,NNB,B,3
3,prac,2,0.0,1-Back,0.0,m,Wed Jun 24 2026 14:25:25 GMT-0400 (Eastern Daylight Time),216445.80000007153,126_m_m_n_a.png,I,z,922,5,1,1808.8000000715256,214637.0,9090,NNB,B,4
4,prac,2,1.0,1-Back,1.0,z,Wed Jun 24 2026 14:25:25 GMT-0400 (Eastern Daylight Time),218379.20000004768,126_m_m_n_a.png,I,z,1139,6,1,1921.2000000476837,216458.0,9090,NNB,B,5
4,prac,2,0.0,1-Back,0.0,m,Wed Jun 24 2026 14:25:25 GMT-0400 (Eastern Daylight Time),221312.5,086_o_f_n_a.png,I,None,2015,7,1,2921.5,218391.0,9090,NNB,B,6
5,prac,2,0.0,1-Back,1.0,m,Wed Jun 24 2026 14:25:25 GMT-0400 (Eastern Daylight Time),223195.90000009537,178_m_m_n_a.png,I,m,970,8,1,1871.0,221324.90000009537,9090,NNB,B,7
6,prac,2,0.0,1-Back,1.0,m,Wed Jun 24 2026 14:25:25 GMT-0400 (Eastern Daylight Time),225096.0,097_m_f_n_a.png,I,m,1101,9,1,1880.3999999761581,223215.60000002384,9090,NNB,B,8
7,prac,2,1.0,1-Back,1.0,z,Wed Jun 24 2026 14:25:25 GMT-0400 (Eastern Daylight Time),226795.90000009537,097_m_f_n_a.png,I,z,903,10,1,1685.7000000476837,225110.20000004768,9090,NNB,B,9
8,prac,2,0.0,1-Back,1.0,m,Wed Jun 24 2026 14:25:25 GMT-0400 (Eastern Daylight Time),228695.80000007153,176_o_m_n_a.png,I,m,1053,11,1,1887.3000000715256,226808.5,9090,NNB,B,10
9,prac,2,0.0,1-Back,1.0,m,Wed Jun 24 2026 14:25:25 GMT-0400 (Eastern Daylight Time),230629.30000007153,173_y_f_n_a.png,I,m,1020,12,1,1916.0,228713.30000007153,9090,NNB,B,11
0,test,1,0.0,1-Back,,,Wed Jun 24 2026 14:25:25 GMT-0400 (Eastern Daylight Time),230629.30000007153,152_y_f_n_a.png,I,space,18147,1,1,1916.0,228713.30000007153,9090,NNB,B,0
1,test,1,0.0,1-Back,1.0,m,Wed Jun 24 2026 14:25:25 GMT-0400 (Eastern Daylight Time),257145.90000009537,029_m_f_n_a.png,I,m,671,2,1,1692.9000000953674,255453.0,9090,NNB,B,1
2,test,1,0.0,1-Back,1.0,m,Wed Jun 24 2026 14:25:25 GMT-0400 (Eastern Daylight Time),258912.40000009537,173_y_f_n_a.png,I,m,747,3,1,1757.7000000476837,257154.70000004768,9090,NNB,B,2
3,test,1,1.0,1-Back,1.0,z,Wed Jun 24 2026 14:25:25 GMT-0400 (Eastern Daylight Time),260595.70000004768,173_y_f_n_a.png,I,z,660,4,1,1674.7000000476837,258921.0,9090,NNB,B,3
4,test,1,0.0,1-Back,1.0,m,Wed Jun 24 2026 14:25:25 GMT-0400 (Eastern Daylight Time),262745.8000000715,029_m_f_n_a.png,I,m,1121,5,1,2141.899999976158,260603.90000009537,9090,NNB,B,4
5,test,1,0.0,1-Back,1.0,m,Wed Jun 24 2026 14:25:25 GMT-0400 (Eastern Daylight Time),265112.5,176_o_m_n_a.png,I,m,1339,6,1,2360.0,262752.5,9090,NNB,B,5
6,test,1,1.0,1-Back,1.0,z,Wed Jun 24 2026 14:25:25 GMT-0400 (Eastern Daylight Time),266962.3000000715,176_o_m_n_a.png,I,z,828,7,1,1843.7000000476837,265118.60000002384,9090,NNB,B,6
7,test,1,0.0,1-Back,1.0,m,Wed Jun 24 2026 14:25:25 GMT-0400 (Eastern Daylight Time),269095.7000000477,126_m_m_n_a.png,I,m,1106,8,1,2127.100000023842,266968.60000002384,9090,NNB,B,7
8,test,1,0.0,1-Back,1.0,m,Wed Jun 24 2026 14:25:25 GMT-0400 (Eastern Daylight Time),271062.2000000477,086_o_f_n_a.png,I,m,939,9,1,1959.8999999761581,269102.3000000715,9090,NNB,B,8
8,test,1,0.0,1-Back,0.0,m,Wed Jun 24 2026 14:25:25 GMT-0400 (Eastern Daylight Time),273412.40000009537,126_m_m_n_a.png,I,z,1326,10,1,2346.0,271066.40000009537,9090,NNB,B,9
8,test,1,0.0,1-Back,0.0,m,Wed Jun 24 2026 14:25:25 GMT-0400 (Eastern Daylight Time),276345.8000000715,153_y_m_n_a.png,I,z,1905,11,1,2926.2000000476837,273419.60000002384,9090,NNB,B,10
8,test,1,1.0,1-Back,0.0,z,Wed Jun 24 2026 14:25:25 GMT-0400 (Eastern Daylight Time),278262.5,153_y_m_n_a.png,I,m,891,12,1,1909.5999999046326,276352.90000009537,9090,NNB,B,11
8,test,1,0.0,1-Back,0.0,m,Wed Jun 24 2026 14:25:25 GMT-0400 (Eastern Daylight Time),280679.0,110_o_f_n_a.png,I,z,1390,13,1,2408.0999999046326,278270.90000009537,9090,NNB,B,12
8,test,1,1.0,1-Back,0.0,z,Wed Jun 24 2026 14:25:25 GMT-0400 (Eastern Daylight Time),282478.8000000715,110_o_f_n_a.png,I,m,782,14,1,1789.8000000715256,280689.0,9090,NNB,B,13
8,test,1,0.0,1-Back,0.0,m,Wed Jun 24 2026 14:25:25 GMT-0400 (Eastern Daylight Time),284712.40000009537,013_y_m_n_a.png,I,z,1205,15,1,2226.7000000476837,282485.7000000477,9090,NNB,B,14
8,test,1,0.0,1-Back,0.0,m,Wed Jun 24 2026 14:25:25 GMT-0400 (Eastern Daylight Time),286812.5,097_m_f_n_a.png,I,z,1068,16,1,2090.7999999523163,284721.7000000477,9090,NNB,B,15
8,test,1,0.0,1-Back,0.0,m,Wed Jun 24 2026 14:25:25 GMT-0400 (Eastern Daylight Time),288729.10000002384,065_o_m_n_a.png,I,z,888,17,1,1909.6999999284744,286819.40000009537,9090,NNB,B,16
8,test,1,0.0,1-Back,0.0,m,Wed Jun 24 2026 14:25:25 GMT-0400 (Eastern Daylight Time),291014.7000000477,097_m_f_n_a.png,I,z,1262,18,1,2278.7999999523163,288735.90000009537,9090,NNB,B,17
0,test,2,0.0,1-Back,,,Wed Jun 24 2026 14:25:25 GMT-0400 (Eastern Daylight Time),291014.7000000477,126_m_m_n_a.png,I,space,2246,1,1,2278.7999999523163,288735.90000009537,9090,NNB,B,0
0,test,2,0.0,1-Back,0.0,m,Wed Jun 24 2026 14:25:25 GMT-0400 (Eastern Daylight Time),297995.7000000477,029_m_f_n_a.png,I,z,1686,2,1,2708.399999976158,295287.3000000715,9090,NNB,B,1
0,test,2,1.0,1-Back,0.0,z,Wed Jun 24 2026 14:25:25 GMT-0400 (Eastern Daylight Time),299812.40000009537,029_m_f_n_a.png,I,m,793,3,1,1808.1000000238419,298004.3000000715,9090,NNB,B,2
0,test,2,0.0,1-Back,0.0,m,Wed Jun 24 2026 14:25:25 GMT-0400 (Eastern Daylight Time),301812.40000009537,126_m_m_n_a.png,I,z,976,4,1,1993.0,299819.40000009537,9090,NNB,B,3
0,test,2,0.0,1-Back,0.0,m,Wed Jun 24 2026 14:25:25 GMT-0400 (Eastern Daylight Time),303728.90000009537,153_y_m_n_a.png,I,z,896,5,1,1908.0,301820.90000009537,9090,NNB,B,4
0,test,2,0.0,1-Back,0.0,m,Wed Jun 24 2026 14:25:25 GMT-0400 (Eastern Daylight Time),305862.5,152_y_f_n_a.png,I,z,1108,6,1,2124.6999999284744,303737.8000000715,9090,NNB,B,5
0,test,2,1.0,1-Back,0.0,z,Wed Jun 24 2026 14:25:25 GMT-0400 (Eastern Daylight Time),307695.5,152_y_f_n_a.png,I,m,814,7,1,1824.0,305871.5,9090,NNB,B,6
0,test,2,0.0,1-Back,0.0,m,Wed Jun 24 2026 14:25:25 GMT-0400 (Eastern Daylight Time),309712.2000000477,153_y_m_n_a.png,I,z,997,8,1,2010.0,307702.2000000477,9090,NNB,B,7
0,test,2,0.0,1-Back,0.0,m,Wed Jun 24 2026 14:25:25 GMT-0400 (Eastern Daylight Time),311595.8000000715,110_o_f_n_a.png,I,z,852,9,1,1875.3999999761581,309720.40000009537,9090,NNB,B,8
0,test,2,0.0,1-Back,0.0,m,Wed Jun 24 2026 14:25:25 GMT-0400 (Eastern Daylight Time),313429.10000002384,178_m_m_n_a.png,I,z,809,10,1,1824.0,311605.10000002384,9090,NNB,B,9
0,test,2,1.0,1-Back,0.0,z,Wed Jun 24 2026 14:25:25 GMT-0400 (Eastern Daylight Time),315129.10000002384,178_m_m_n_a.png,I,m,671,11,1,1690.1999999284744,313438.90000009537,9090,NNB,B,10
0,test,2,0.0,1-Back,0.0,m,Wed Jun 24 2026 14:25:25 GMT-0400 (Eastern Daylight Time),316995.8000000715,110_o_f_n_a.png,I,z,843,12,1,1858.3000000715256,315137.5,9090,NNB,B,11
0,test,2,0.0,1-Back,0.0,m,Wed Jun 24 2026 14:25:25 GMT-0400 (Eastern Daylight Time),318945.7000000477,086_o_f_n_a.png,I,z,929,13,1,1941.2000000476837,317004.5,9090,NNB,B,12
0,test,2,0.0,1-Back,0.0,m,Wed Jun 24 2026 14:25:25 GMT-0400 (Eastern Daylight Time),320829.2000000477,176_o_m_n_a.png,I,z,851,14,1,1877.1000000238419,318952.10000002384,9090,NNB,B,13
0,test,2,0.0,1-Back,0.0,m,Wed Jun 24 2026 14:25:25 GMT-0400 (Eastern Daylight Time),322645.8000000715,065_o_m_n_a.png,I,z,791,15,1,1808.6000000238419,320837.2000000477,9090,NNB,B,14
0,test,2,1.0,1-Back,0.0,z,Wed Jun 24 2026 14:25:25 GMT-0400 (Eastern Daylight Time),324462.90000009537,065_o_m_n_a.png,I,m,799,16,1,1809.7000000476837,322653.2000000477,9090,NNB,B,15
0,test,2,0.0,1-Back,0.0,m,Wed Jun 24 2026 14:25:25 GMT-0400 (Eastern Daylight Time),326529.0,013_y_m_n_a.png,I,z,1046,17,1,2058.399999976158,324470.60000002384,9090,NNB,B,16
0,test,2,1.0,1-Back,0.0,z,Wed Jun 24 2026 14:25:25 GMT-0400 (Eastern Daylight Time),328462.8000000715,013_y_m_n_a.png,I,m,916,18,1,1926.3999999761581,326536.40000009537,9090,NNB,B,17
0,test,3,1.0,1-Back,,,Wed Jun 24 2026 14:25:25 GMT-0400 (Eastern Daylight Time),328462.8000000715,173_y_f_n_a.png,I,space,1661,1,1,1926.3999999761581,326536.40000009537,9090,NNB,B,0
0,test,3,0.0,1-Back,0.0,m,Wed Jun 24 2026 14:25:25 GMT-0400 (Eastern Daylight Time),334562.40000009537,065_o_m_n_a.png,I,z,1279,1,1,2293.4000000953674,332269.0,9090,NNB,B,1
0,test,3,1.0,1-Back,0.0,z,Wed Jun 24 2026 14:25:25 GMT-0400 (Eastern Daylight Time),336395.90000009537,065_o_m_n_a.png,I,m,802,1,1,1827.2000000476837,334568.7000000477,9090,NNB,B,2
0,test,3,0.0,1-Back,0.0,m,Wed Jun 24 2026 14:25:25 GMT-0400 (Eastern Daylight Time),338512.2000000477,097_m_f_n_a.png,I,z,1097,1,1,2108.0,336404.2000000477,9090,NNB,B,3
0,test,3,1.0,1-Back,0.0,z,Wed Jun 24 2026 14:25:25 GMT-0400 (Eastern Daylight Time),340295.8000000715,097_m_f_n_a.png,I,m,756,1,1,1778.8000000715256,338517.0,9090,NNB,B,4
0,test,3,0.0,1-Back,0.0,m,Wed Jun 24 2026 14:25:25 GMT-0400 (Eastern Daylight Time),342779.10000002384,110_o_f_n_a.png,I,z,1442,1,1,2476.6999999284744,340302.40000009537,9090,NNB,B,5
0,test,3,0.0,1-Back,0.0,m,Wed Jun 24 2026 14:25:25 GMT-0400 (Eastern Daylight Time),344579.0,153_y_m_n_a.png,I,z,778,1,1,1792.5999999046326,342786.40000009537,9090,NNB,B,6
0,test,3,0.0,1-Back,0.0,m,Wed Jun 24 2026 14:25:25 GMT-0400 (Eastern Daylight Time),346829.0,110_o_f_n_a.png,I,z,1218,1,1,2243.399999976158,344585.60000002384,9090,NNB,B,7
0,test,3,0.0,1-Back,0.0,m,Wed Jun 24 2026 14:25:25 GMT-0400 (Eastern Daylight Time),348862.40000009537,013_y_m_n_a.png,I,z,1000,1,1,2026.3000000715256,346836.10000002384,9090,NNB,B,8
0,test,3,1.0,1-Back,0.0,z,Wed Jun 24 2026 14:25:25 GMT-0400 (Eastern Daylight Time),350662.3000000715,013_y_m_n_a.png,I,m,774,1,1,1790.8000000715256,348871.5,9090,NNB,B,9
0,test,3,0.0,1-Back,0.0,m,Wed Jun 24 2026 14:25:25 GMT-0400 (Eastern Daylight Time),352579.10000002384,029_m_f_n_a.png,I,z,894,1,1,1909.7999999523163,350669.3000000715,9090,NNB,B,10
0,test,3,0.0,1-Back,0.0,m,Wed Jun 24 2026 14:25:25 GMT-0400 (Eastern Daylight Time),354395.8000000715,152_y_f_n_a.png,I,z,785,1,1,1810.3999999761581,352585.40000009537,9090,NNB,B,11
0,test,3,1.0,1-Back,0.0,z,Wed Jun 24 2026 14:25:25 GMT-0400 (Eastern Daylight Time),356162.3000000715,152_y_f_n_a.png,I,m,746,1,1,1759.1000000238419,354403.2000000477,9090,NNB,B,12
0,test,3,0.0,1-Back,0.0,m,Wed Jun 24 2026 14:25:25 GMT-0400 (Eastern Daylight Time),358145.60000002384,029_m_f_n_a.png,I,z,962,1,1,1976.1000000238419,356169.5,9090,NNB,B,13
0,test,3,0.0,1-Back,0.0,m,Wed Jun 24 2026 14:25:25 GMT-0400 (Eastern Daylight Time),360078.90000009537,126_m_m_n_a.png,I,z,915,1,1,1926.6000000238419,358152.3000000715,9090,NNB,B,14
0,test,3,1.0,1-Back,0.0,z,Wed Jun 24 2026 14:25:25 GMT-0400 (Eastern Daylight Time),362062.8000000715,126_m_m_n_a.png,I,m,966,1,1,1976.8000000715256,360086.0,9090,NNB,B,15
0,test,3,0.0,1-Back,0.0,m,Wed Jun 24 2026 14:25:25 GMT-0400 (Eastern Daylight Time),363979.10000002384,086_o_f_n_a.png,I,z,886,1,1,1908.2999999523163,362070.8000000715,9090,NNB,B,16
0,test,3,1.0,1-Back,0.0,z,Wed Jun 24 2026 14:25:25 GMT-0400 (Eastern Daylight Time),365812.40000009537,086_o_f_n_a.png,I,m,810,1,1,1825.0,363987.40000009537,9090,NNB,B,17
0,test,4,1.0,1-Back,,,Wed Jun 24 2026 14:25:25 GMT-0400 (Eastern Daylight Time),365812.40000009537,097_m_f_n_a.png,I,space,3513,1,1,1825.0,363987.40000009537,9090,NNB,B,0
0,test,4,0.0,1-Back,0.0,m,Wed Jun 24 2026 14:25:25 GMT-0400 (Eastern Daylight Time),373262.40000009537,065_o_m_n_a.png,I,z,766,2,1,1791.3000000715256,371471.10000002384,9090,NNB,B,1
0,test,4,0.0,1-Back,0.0,m,Wed Jun 24 2026 14:25:25 GMT-0400 (Eastern Daylight Time),375345.7000000477,097_m_f_n_a.png,I,z,1062,3,1,2077.2000000476837,373268.5,9090,NNB,B,2
0,test,4,0.0,1-Back,0.0,m,Wed Jun 24 2026 14:25:25 GMT-0400 (Eastern Daylight Time),377262.7000000477,110_o_f_n_a.png,I,z,899,4,1,1908.2999999523163,375354.40000009537,9090,NNB,B,3
0,test,4,1.0,1-Back,0.0,z,Wed Jun 24 2026 14:25:25 GMT-0400 (Eastern Daylight Time),379045.7000000477,110_o_f_n_a.png,I,m,758,5,1,1777.1000000238419,377268.60000002384,9090,NNB,B,4
0,test,4,0.0,1-Back,0.0,m,Wed Jun 24 2026 14:25:25 GMT-0400 (Eastern Daylight Time),381079.2000000477,152_y_f_n_a.png,I,z,1008,6,1,2027.1000000238419,379052.10000002384,9090,NNB,B,5
0,test,4,0.0,1-Back,0.0,m,Wed Jun 24 2026 14:25:25 GMT-0400 (Eastern Daylight Time),383329.0,153_y_m_n_a.png,I,z,1229,7,1,2237.7999999523163,381091.2000000477,9090,NNB,B,6
0,test,4,1.0,1-Back,0.0,z,Wed Jun 24 2026 14:25:25 GMT-0400 (Eastern Daylight Time),385178.90000009537,153_y_m_n_a.png,I,m,820,8,1,1842.7000000476837,383336.2000000477,9090,NNB,B,7
0,test,4,0.0,1-Back,0.0,m,Wed Jun 24 2026 14:25:25 GMT-0400 (Eastern Daylight Time),387079.10000002384,152_y_f_n_a.png,I,z,874,9,1,1893.2999999523163,385185.8000000715,9090,NNB,B,8
0,test,4,0.0,1-Back,0.0,m,Wed Jun 24 2026 14:25:25 GMT-0400 (Eastern Daylight Time),388962.5,178_m_m_n_a.png,I,z,862,10,1,1874.5,387088.0,9090,NNB,B,9
0,test,4,1.0,1-Back,0.0,z,Wed Jun 24 2026 14:25:25 GMT-0400 (Eastern Daylight Time),390779.10000002384,178_m_m_n_a.png,I,m,786,11,1,1807.6000000238419,388971.5,9090,NNB,B,10
0,test,4,0.0,1-Back,0.0,m,Wed Jun 24 2026 14:25:25 GMT-0400 (Eastern Daylight Time),392662.3000000715,086_o_f_n_a.png,I,z,859,12,1,1876.0,390786.3000000715,9090,NNB,B,11
0,test,4,0.0,1-Back,0.0,m,Wed Jun 24 2026 14:25:25 GMT-0400 (Eastern Daylight Time),394495.60000002384,176_o_m_n_a.png,I,z,814,13,1,1825.8999999761581,392669.7000000477,9090,NNB,B,12
0,test,4,0.0,1-Back,0.0,m,Wed Jun 24 2026 14:25:25 GMT-0400 (Eastern Daylight Time),396528.90000009537,086_o_f_n_a.png,I,z,1013,14,1,2026.5,394502.40000009537,9090,NNB,B,13
0,test,4,0.0,1-Back,0.0,m,Wed Jun 24 2026 14:25:25 GMT-0400 (Eastern Daylight Time),398478.90000009537,173_y_f_n_a.png,I,z,931,15,1,1938.9000000953674,396540.0,9090,NNB,B,14
0,test,4,1.0,1-Back,0.0,z,Wed Jun 24 2026 14:25:25 GMT-0400 (Eastern Daylight Time),400329.0,173_y_f_n_a.png,I,m,822,16,1,1844.2999999523163,398484.7000000477,9090,NNB,B,15
0,test,4,0.0,1-Back,0.0,m,Wed Jun 24 2026 14:25:25 GMT-0400 (Eastern Daylight Time),402212.5,029_m_f_n_a.png,I,z,860,17,1,1876.5,400336.0,9090,NNB,B,16
0,test,4,1.0,1-Back,0.0,z,Wed Jun 24 2026 14:25:25 GMT-0400 (Eastern Daylight Time),403912.40000009537,029_m_f_n_a.png,I,m,673,18,1,1693.7000000476837,402218.7000000477,9090,NNB,B,17
0,test,5,1.0,1-Back,,,Wed Jun 24 2026 14:25:25 GMT-0400 (Eastern Daylight Time),403912.40000009537,176_o_m_n_a.png,I,space,2948,1,1,1693.7000000476837,402218.7000000477,9090,NNB,B,0
0,test,5,1.0,1-Back,0.0,z,Wed Jun 24 2026 14:25:25 GMT-0400 (Eastern Daylight Time),410862.7000000477,176_o_m_n_a.png,I,m,966,2,1,1977.3999999761581,408885.3000000715,9090,NNB,B,1
0,test,5,0.0,1-Back,0.0,m,Wed Jun 24 2026 14:25:25 GMT-0400 (Eastern Daylight Time),412745.8000000715,152_y_f_n_a.png,I,z,854,3,1,1875.3999999761581,410870.40000009537,9090,NNB,B,2
0,test,5,0.0,1-Back,0.0,m,Wed Jun 24 2026 14:25:25 GMT-0400 (Eastern Daylight Time),414529.0,153_y_m_n_a.png,I,z,764,4,1,1774.5,412754.5,9090,NNB,B,3
0,test,5,0.0,1-Back,0.0,m,Wed Jun 24 2026 14:25:25 GMT-0400 (Eastern Daylight Time),416512.2000000477,152_y_f_n_a.png,I,z,964,5,1,1974.2999999523163,414537.90000009537,9090,NNB,B,4
0,test,5,0.0,1-Back,0.0,m,Wed Jun 24 2026 14:25:25 GMT-0400 (Eastern Daylight Time),418579.2000000477,126_m_m_n_a.png,I,z,1044,6,1,2061.399999976158,416517.8000000715,9090,NNB,B,5
0,test,5,1.0,1-Back,0.0,z,Wed Jun 24 2026 14:25:25 GMT-0400 (Eastern Daylight Time),420312.40000009537,126_m_m_n_a.png,I,m,706,7,1,1726.4000000953674,418586.0,9090,NNB,B,6
0,test,5,0.0,1-Back,0.0,m,Wed Jun 24 2026 14:25:25 GMT-0400 (Eastern Daylight Time),422029.2000000477,173_y_f_n_a.png,I,z,684,8,1,1710.7000000476837,420318.5,9090,NNB,B,7
0,test,5,0.0,1-Back,0.0,m,Wed Jun 24 2026 14:25:25 GMT-0400 (Eastern Daylight Time),424063.10000002384,013_y_m_n_a.png,I,z,1015,9,1,2027.0,422036.10000002384,9090,NNB,B,8
0,test,5,0.0,1-Back,0.0,m,Wed Jun 24 2026 14:25:25 GMT-0400 (Eastern Daylight Time),426062.8000000715,173_y_f_n_a.png,I,z,983,10,1,1991.3000000715256,424071.5,9090,NNB,B,9
0,test,5,0.0,1-Back,0.0,m,Wed Jun 24 2026 14:25:25 GMT-0400 (Eastern Daylight Time),428029.10000002384,086_o_f_n_a.png,I,z,934,11,1,1960.2999999523163,426068.8000000715,9090,NNB,B,10
0,test,5,1.0,1-Back,0.0,z,Wed Jun 24 2026 14:25:25 GMT-0400 (Eastern Daylight Time),429812.40000009537,086_o_f_n_a.png,I,m,760,12,1,1776.3000000715256,428036.10000002384,9090,NNB,B,11
0,test,5,0.0,1-Back,0.0,m,Wed Jun 24 2026 14:25:25 GMT-0400 (Eastern Daylight Time),431612.5,065_o_m_n_a.png,I,z,768,13,1,1791.5,429821.0,9090,NNB,B,12
0,test,5,0.0,1-Back,0.0,m,Wed Jun 24 2026 14:25:25 GMT-0400 (Eastern Daylight Time),433462.40000009537,097_m_f_n_a.png,I,z,824,14,1,1842.5,431619.90000009537,9090,NNB,B,13
0,test,5,1.0,1-Back,0.0,z,Wed Jun 24 2026 14:25:25 GMT-0400 (Eastern Daylight Time),435112.40000009537,097_m_f_n_a.png,I,m,622,15,1,1642.6000000238419,433469.8000000715,9090,NNB,B,14
0,test,5,0.0,1-Back,0.0,m,Wed Jun 24 2026 14:25:25 GMT-0400 (Eastern Daylight Time),436895.5,065_o_m_n_a.png,I,z,765,16,1,1775.1999999284744,435120.3000000715,9090,NNB,B,15
0,test,5,0.0,1-Back,0.0,m,Wed Jun 24 2026 14:25:25 GMT-0400 (Eastern Daylight Time),438895.5,029_m_f_n_a.png,I,z,981,17,1,1994.1999999284744,436901.3000000715,9090,NNB,B,16
0,test,5,0.0,1-Back,0.0,m,Wed Jun 24 2026 14:25:25 GMT-0400 (Eastern Daylight Time),440645.8000000715,178_m_m_n_a.png,I,z,725,18,1,1741.8999999761581,438903.90000009537,9090,NNB,B,17
0,prac,1,0.0,2-Back,,,Wed Jun 24 2026 14:25:25 GMT-0400 (Eastern Daylight Time),440645.8000000715,013_y_m_n_a.png,I,space,22815,1,1,1741.8999999761581,438903.90000009537,9090,NNB,B,0
0,prac,1,0.0,2-Back,,,Wed Jun 24 2026 14:25:25 GMT-0400 (Eastern Daylight Time),440645.8000000715,029_m_f_n_a.png,I,space,22815,2,1,1741.8999999761581,438903.90000009537,9090,NNB,B,0
1,prac,1,1.0,2-Back,1.0,m,Wed Jun 24 2026 14:25:25 GMT-0400 (Eastern Daylight Time),621562.9000000954,065_o_m_n_a.png,I,m,1456,3,1,2358.100000023842,619204.8000000715,9090,NNB,B,1
1,prac,1,0.0,2-Back,0.0,m,Wed Jun 24 2026 14:25:25 GMT-0400 (Eastern Daylight Time),624495.9000000954,086_o_f_n_a.png,I,None,2014,4,1,2924.2000000476837,621571.7000000477,9090,NNB,B,2
1,prac,1,0.0,2-Back,0.0,z,Wed Jun 24 2026 14:25:25 GMT-0400 (Eastern Daylight Time),627212.6000000238,065_o_m_n_a.png,I,m,1919,5,1,2702.7999999523163,624509.8000000715,9090,NNB,B,3
1,prac,1,1.0,2-Back,0.0,z,Wed Jun 24 2026 14:25:25 GMT-0400 (Eastern Daylight Time),629995.8000000715,086_o_f_n_a.png,I,None,2005,6,1,2772.5,627223.3000000715,9090,NNB,B,4
2,prac,1,0.0,2-Back,1.0,m,Wed Jun 24 2026 14:25:25 GMT-0400 (Eastern Daylight Time),632362.7000000477,178_m_m_n_a.png,I,m,1453,7,1,2356.399999976158,630006.3000000715,9090,NNB,B,5
3,prac,1,0.0,2-Back,1.0,m,Wed Jun 24 2026 14:25:25 GMT-0400 (Eastern Daylight Time),634345.9000000954,176_o_m_n_a.png,I,m,1072,8,1,1974.9000000953674,632371.0,9090,NNB,B,6
4,prac,1,0.0,2-Back,1.0,m,Wed Jun 24 2026 14:25:25 GMT-0400 (Eastern Daylight Time),636446.1000000238,173_y_f_n_a.png,I,m,1191,9,1,2090.6999999284744,634355.4000000954,9090,NNB,B,7
5,prac,1,1.0,2-Back,1.0,z,Wed Jun 24 2026 14:25:25 GMT-0400 (Eastern Daylight Time),638546.1000000238,176_o_m_n_a.png,I,z,1310,10,1,2082.2999999523163,636463.8000000715,9090,NNB,B,8
6,prac,1,0.0,2-Back,1.0,m,Wed Jun 24 2026 14:25:25 GMT-0400 (Eastern Daylight Time),641229.3000000715,152_y_f_n_a.png,I,m,1786,11,1,2669.8000000715256,638559.5,9090,NNB,B,9
7,prac,1,0.0,2-Back,1.0,m,Wed Jun 24 2026 14:25:25 GMT-0400 (Eastern Daylight Time),643546.1000000238,178_m_m_n_a.png,I,m,1525,12,1,2305.0,641241.1000000238,9090,NNB,B,10
0,test,1,0.0,2-Back,,,Wed Jun 24 2026 14:25:25 GMT-0400 (Eastern Daylight Time),643546.1000000238,153_y_m_n_a.png,I,space,16064,1,1,2305.0,641241.1000000238,9090,NNB,B,0
0,test,1,0.0,2-Back,,,Wed Jun 24 2026 14:25:25 GMT-0400 (Eastern Daylight Time),643546.1000000238,153_y_m_n_a.png,I,space,16064,2,1,2305.0,641241.1000000238,9090,NNB,B,0
1,test,1,0.0,2-Back,1.0,m,Wed Jun 24 2026 14:25:25 GMT-0400 (Eastern Daylight Time),674495.8000000715,086_o_f_n_a.png,I,m,782,3,1,1791.3999999761581,672704.4000000954,9090,NNB,B,1
1,test,1,0.0,2-Back,0.0,m,Wed Jun 24 2026 14:25:25 GMT-0400 (Eastern Daylight Time),676729.4000000954,126_m_m_n_a.png,I,z,1205,4,1,2226.3000000715256,674503.1000000238,9090,NNB,B,2
1,test,1,1.0,2-Back,0.0,z,Wed Jun 24 2026 14:25:25 GMT-0400 (Eastern Daylight Time),678479.2000000477,086_o_f_n_a.png,I,m,732,5,1,1743.3999999761581,676735.8000000715,9090,NNB,B,3
1,test,1,0.0,2-Back,0.0,m,Wed Jun 24 2026 14:25:25 GMT-0400 (Eastern Daylight Time),680529.3000000715,152_y_f_n_a.png,I,z,1030,6,1,2041.6000000238419,678487.7000000477,9090,NNB,B,4
1,test,1,0.0,2-Back,0.0,m,Wed Jun 24 2026 14:25:25 GMT-0400 (Eastern Daylight Time),682878.9000000954,126_m_m_n_a.png,I,z,1332,7,1,2342.5,680536.4000000954,9090,NNB,B,5
2,test,1,1.0,2-Back,1.0,z,Wed Jun 24 2026 14:25:25 GMT-0400 (Eastern Daylight Time),685095.9000000954,152_y_f_n_a.png,I,z,1190,8,1,2210.9000000953674,682885.0,9090,NNB,B,6
3,test,1,0.0,2-Back,1.0,m,Wed Jun 24 2026 14:25:25 GMT-0400 (Eastern Daylight Time),687079.3000000715,013_y_m_n_a.png,I,m,957,9,1,1972.7000000476837,685106.6000000238,9090,NNB,B,7
3,test,1,0.0,2-Back,0.0,m,Wed Jun 24 2026 14:25:25 GMT-0400 (Eastern Daylight Time),689462.6000000238,110_o_f_n_a.png,I,z,1358,10,1,2376.399999976158,687086.2000000477,9090,NNB,B,8
3,test,1,1.0,2-Back,0.0,z,Wed Jun 24 2026 14:25:25 GMT-0400 (Eastern Daylight Time),691729.1000000238,013_y_m_n_a.png,I,m,1246,11,1,2257.7999999523163,689471.3000000715,9090,NNB,B,9
3,test,1,0.0,2-Back,0.0,m,Wed Jun 24 2026 14:25:25 GMT-0400 (Eastern Daylight Time),694145.8000000715,029_m_f_n_a.png,I,z,1395,12,1,2409.7000000476837,691736.1000000238,9090,NNB,B,10
4,test,1,0.0,2-Back,1.0,m,Wed Jun 24 2026 14:25:25 GMT-0400 (Eastern Daylight Time),696362.7000000477,029_m_f_n_a.png,I,m,1187,13,1,2209.2000000476837,694153.5,9090,NNB,B,11
5,test,1,0.0,2-Back,1.0,m,Wed Jun 24 2026 14:25:25 GMT-0400 (Eastern Daylight Time),699279.3000000715,065_o_m_n_a.png,I,m,1899,14,1,2909.7000000476837,696369.6000000238,9090,NNB,B,12
6,test,1,0.0,2-Back,1.0,m,Wed Jun 24 2026 14:25:25 GMT-0400 (Eastern Daylight Time),701595.9000000954,110_o_f_n_a.png,I,m,1287,15,1,2306.8000000715256,699289.1000000238,9090,NNB,B,13
7,test,1,1.0,2-Back,1.0,z,Wed Jun 24 2026 14:25:25 GMT-0400 (Eastern Daylight Time),704012.5,065_o_m_n_a.png,I,z,1385,16,1,2408.0,701604.5,9090,NNB,B,14
8,test,1,0.0,2-Back,1.0,m,Wed Jun 24 2026 14:25:25 GMT-0400 (Eastern Daylight Time),706479.2000000477,097_m_f_n_a.png,I,m,1449,17,1,2459.7000000476837,704019.5,9090,NNB,B,15
9,test,1,0.0,2-Back,1.0,m,Wed Jun 24 2026 14:25:25 GMT-0400 (Eastern Daylight Time),708995.9000000954,178_m_m_n_a.png,I,m,1494,18,1,2508.7000000476837,706487.2000000477,9090,NNB,B,16
0,test,2,0.0,2-Back,,,Wed Jun 24 2026 14:25:25 GMT-0400 (Eastern Daylight Time),708995.9000000954,178_m_m_n_a.png,I,space,2041,1,1,2508.7000000476837,706487.2000000477,9090,NNB,B,0
0,test,2,0.0,2-Back,,,Wed Jun 24 2026 14:25:25 GMT-0400 (Eastern Daylight Time),708995.9000000954,173_y_f_n_a.png,I,space,2041,2,1,2508.7000000476837,706487.2000000477,9090,NNB,B,0
1,test,2,1.0,2-Back,1.0,z,Wed Jun 24 2026 14:25:25 GMT-0400 (Eastern Daylight Time),718345.8000000715,178_m_m_n_a.png,I,z,1105,3,1,2126.600000023842,716219.2000000477,9090,NNB,B,1
2,test,2,0.0,2-Back,1.0,m,Wed Jun 24 2026 14:25:25 GMT-0400 (Eastern Daylight Time),720145.8000000715,097_m_f_n_a.png,I,m,780,4,1,1792.3000000715256,718353.5,9090,NNB,B,2
2,test,2,0.0,2-Back,0.0,m,Wed Jun 24 2026 14:25:25 GMT-0400 (Eastern Daylight Time),723179.6000000238,173_y_f_n_a.png,I,None,2016,5,1,3026.399999976158,720153.2000000477,9090,NNB,B,3
2,test,2,0.0,2-Back,0.0,m,Wed Jun 24 2026 14:25:25 GMT-0400 (Eastern Daylight Time),726129.1000000238,065_o_m_n_a.png,I,z,1929,6,1,2943.5,723185.6000000238,9090,NNB,B,4
3,test,2,0.0,2-Back,1.0,m,Wed Jun 24 2026 14:25:25 GMT-0400 (Eastern Daylight Time),728812.6000000238,152_y_f_n_a.png,I,m,1652,7,1,2674.5,726138.1000000238,9090,NNB,B,5
4,test,2,1.0,2-Back,1.0,z,Wed Jun 24 2026 14:25:25 GMT-0400 (Eastern Daylight Time),731229.1000000238,065_o_m_n_a.png,I,z,1384,8,1,2407.1999999284744,728821.9000000954,9090,NNB,B,6
5,test,2,0.0,2-Back,1.0,m,Wed Jun 24 2026 14:25:25 GMT-0400 (Eastern Daylight Time),733912.5,013_y_m_n_a.png,I,m,1655,9,1,2674.399999976158,731238.1000000238,9090,NNB,B,7
5,test,2,0.0,2-Back,0.0,m,Wed Jun 24 2026 14:25:25 GMT-0400 (Eastern Daylight Time),736562.5,013_y_m_n_a.png,I,z,1629,10,1,2641.1999999284744,733921.3000000715,9090,NNB,B,8
5,test,2,0.0,2-Back,0.0,m,Wed Jun 24 2026 14:25:25 GMT-0400 (Eastern Daylight Time),739596.0,029_m_f_n_a.png,I,None,2016,11,1,3026.0999999046326,736569.9000000954,9090,NNB,B,9
5,test,2,0.0,2-Back,0.0,m,Wed Jun 24 2026 14:25:25 GMT-0400 (Eastern Daylight Time),742262.6000000238,173_y_f_n_a.png,I,z,1642,12,1,2658.0,739604.6000000238,9090,NNB,B,10
6,test,2,1.0,2-Back,1.0,z,Wed Jun 24 2026 14:25:25 GMT-0400 (Eastern Daylight Time),744462.0,029_m_f_n_a.png,I,z,1166,13,1,2191.899999976158,742270.1000000238,9090,NNB,B,11
7,test,2,0.0,2-Back,1.0,m,Wed Jun 24 2026 14:25:25 GMT-0400 (Eastern Daylight Time),747412.6000000238,176_o_m_n_a.png,I,m,1927,14,1,2947.100000023842,744465.5,9090,NNB,B,12
8,test,2,0.0,2-Back,1.0,m,Wed Jun 24 2026 14:25:25 GMT-0400 (Eastern Daylight Time),750245.9000000954,176_o_m_n_a.png,I,m,1809,15,1,2824.8000000715256,747421.1000000238,9090,NNB,B,13
9,test,2,0.0,2-Back,1.0,m,Wed Jun 24 2026 14:25:25 GMT-0400 (Eastern Daylight Time),752412.3000000715,110_o_f_n_a.png,I,m,1135,16,1,2157.8000000715256,750254.5,9090,NNB,B,14
10,test,2,0.0,2-Back,1.0,m,Wed Jun 24 2026 14:25:25 GMT-0400 (Eastern Daylight Time),754945.8000000715,126_m_m_n_a.png,I,m,1513,17,1,2530.3000000715256,752415.5,9090,NNB,B,15
11,test,2,1.0,2-Back,1.0,z,Wed Jun 24 2026 14:25:25 GMT-0400 (Eastern Daylight Time),757062.6000000238,110_o_f_n_a.png,I,z,1091,18,1,2109.399999976158,754953.2000000477,9090,NNB,B,16
0,test,3,1.0,2-Back,,,Wed Jun 24 2026 14:25:25 GMT-0400 (Eastern Daylight Time),757062.6000000238,153_y_m_n_a.png,I,space,1670,1,1,2109.399999976158,754953.2000000477,9090,NNB,B,0
0,test,3,1.0,2-Back,,,Wed Jun 24 2026 14:25:25 GMT-0400 (Eastern Daylight Time),757062.6000000238,153_y_m_n_a.png,I,space,1670,2,1,2109.399999976158,754953.2000000477,9090,NNB,B,0
1,test,3,0.0,2-Back,1.0,m,Wed Jun 24 2026 14:25:25 GMT-0400 (Eastern Daylight Time),765995.8000000715,110_o_f_n_a.png,I,m,1053,3,1,2076.3000000715256,763919.5,9090,NNB,B,1
2,test,3,0.0,2-Back,1.0,m,Wed Jun 24 2026 14:25:25 GMT-0400 (Eastern Daylight Time),767979.2000000477,178_m_m_n_a.png,I,m,953,4,1,1975.3999999761581,766003.8000000715,9090,NNB,B,2
3,test,3,1.0,2-Back,1.0,z,Wed Jun 24 2026 14:25:25 GMT-0400 (Eastern Daylight Time),769962.4000000954,110_o_f_n_a.png,I,z,954,5,1,1975.0,767987.4000000954,9090,NNB,B,3
4,test,3,0.0,2-Back,1.0,m,Wed Jun 24 2026 14:25:25 GMT-0400 (Eastern Daylight Time),771912.5,013_y_m_n_a.png,I,m,922,6,1,1944.8999999761581,769967.6000000238,9090,NNB,B,4
5,test,3,0.0,2-Back,1.0,m,Wed Jun 24 2026 14:25:25 GMT-0400 (Eastern Daylight Time),774695.9000000954,178_m_m_n_a.png,I,m,1756,7,1,2776.0,771919.9000000954,9090,NNB,B,5
6,test,3,1.0,2-Back,1.0,z,Wed Jun 24 2026 14:25:25 GMT-0400 (Eastern Daylight Time),776695.9000000954,013_y_m_n_a.png,I,z,974,8,1,1993.4000000953674,774702.5,9090,NNB,B,6
7,test,3,0.0,2-Back,1.0,m,Wed Jun 24 2026 14:25:25 GMT-0400 (Eastern Daylight Time),778879.2000000477,173_y_f_n_a.png,I,m,1165,9,1,2176.0,776703.2000000477,9090,NNB,B,7
8,test,3,0.0,2-Back,1.0,m,Wed Jun 24 2026 14:25:25 GMT-0400 (Eastern Daylight Time),781579.8000000715,126_m_m_n_a.png,I,m,1670,10,1,2693.7000000476837,778886.1000000238,9090,NNB,B,8
8,test,3,1.0,2-Back,0.0,z,Wed Jun 24 2026 14:25:25 GMT-0400 (Eastern Daylight Time),783929.3000000715,173_y_f_n_a.png,I,m,1321,11,1,2346.100000023842,781583.2000000477,9090,NNB,B,9
9,test,3,1.0,2-Back,1.0,z,Wed Jun 24 2026 14:25:25 GMT-0400 (Eastern Daylight Time),785779.2000000477,126_m_m_n_a.png,I,z,827,12,1,1842.2999999523163,783936.9000000954,9090,NNB,B,10
10,test,3,0.0,2-Back,1.0,m,Wed Jun 24 2026 14:25:25 GMT-0400 (Eastern Daylight Time),788062.7000000477,110_o_f_n_a.png,I,m,1250,13,1,2274.100000023842,785788.6000000238,9090,NNB,B,11
11,test,3,0.0,2-Back,1.0,m,Wed Jun 24 2026 14:25:25 GMT-0400 (Eastern Daylight Time),790429.3000000715,097_m_f_n_a.png,I,m,1334,14,1,2360.2000000476837,788069.1000000238,9090,NNB,B,12
12,test,3,0.0,2-Back,1.0,m,Wed Jun 24 2026 14:25:25 GMT-0400 (Eastern Daylight Time),792646.0,065_o_m_n_a.png,I,m,1192,15,1,2209.2999999523163,790436.7000000477,9090,NNB,B,13
13,test,3,1.0,2-Back,1.0,z,Wed Jun 24 2026 14:25:25 GMT-0400 (Eastern Daylight Time),794846.0,097_m_f_n_a.png,I,z,1167,16,1,2191.2999999523163,792654.7000000477,9090,NNB,B,14
14,test,3,0.0,2-Back,1.0,m,Wed Jun 24 2026 14:25:25 GMT-0400 (Eastern Daylight Time),796912.4000000954,086_o_f_n_a.png,I,m,1047,17,1,2058.0,794854.4000000954,9090,NNB,B,15
15,test,3,0.0,2-Back,1.0,m,Wed Jun 24 2026 14:25:25 GMT-0400 (Eastern Daylight Time),799029.1000000238,086_o_f_n_a.png,I,m,1093,18,1,2108.0,796921.1000000238,9090,NNB,B,16
0,test,4,0.0,2-Back,,,Wed Jun 24 2026 14:25:25 GMT-0400 (Eastern Daylight Time),799029.1000000238,176_o_m_n_a.png,I,space,1160,1,1,2108.0,796921.1000000238,9090,NNB,B,0
0,test,4,0.0,2-Back,,,Wed Jun 24 2026 14:25:25 GMT-0400 (Eastern Daylight Time),799029.1000000238,152_y_f_n_a.png,I,space,1160,2,1,2108.0,796921.1000000238,9090,NNB,B,0
1,test,4,1.0,2-Back,1.0,z,Wed Jun 24 2026 14:25:25 GMT-0400 (Eastern Daylight Time),807529.2000000477,176_o_m_n_a.png,I,z,1006,3,1,2025.2999999523163,805503.9000000954,9090,NNB,B,1
1,test,4,1.0,2-Back,0.0,z,Wed Jun 24 2026 14:25:25 GMT-0400 (Eastern Daylight Time),809279.3000000715,152_y_f_n_a.png,I,m,732,4,1,1742.8000000715256,807536.5,9090,NNB,B,2
2,test,4,0.0,2-Back,1.0,m,Wed Jun 24 2026 14:25:25 GMT-0400 (Eastern Daylight Time),811379.2000000477,110_o_f_n_a.png,I,m,1077,5,1,2091.0,809288.2000000477,9090,NNB,B,3
3,test,4,0.0,2-Back,1.0,m,Wed Jun 24 2026 14:25:25 GMT-0400 (Eastern Daylight Time),814246.0,110_o_f_n_a.png,I,m,1841,6,1,2858.5,811387.5,9090,NNB,B,4
4,test,4,0.0,2-Back,1.0,m,Wed Jun 24 2026 14:25:25 GMT-0400 (Eastern Daylight Time),816245.9000000954,029_m_f_n_a.png,I,m,975,7,1,1992.6000000238419,814253.3000000715,9090,NNB,B,5
5,test,4,0.0,2-Back,1.0,m,Wed Jun 24 2026 14:25:25 GMT-0400 (Eastern Daylight Time),818312.4000000954,013_y_m_n_a.png,I,m,1038,8,1,2057.0,816255.4000000954,9090,NNB,B,6
6,test,4,1.0,2-Back,1.0,z,Wed Jun 24 2026 14:25:25 GMT-0400 (Eastern Daylight Time),820129.0,029_m_f_n_a.png,I,z,797,9,1,1812.5999999046326,818316.4000000954,9090,NNB,B,7
7,test,4,0.0,2-Back,1.0,m,Wed Jun 24 2026 14:25:25 GMT-0400 (Eastern Daylight Time),822062.5,126_m_m_n_a.png,I,m,900,10,1,1926.5,820136.0,9090,NNB,B,8
7,test,4,0.0,2-Back,0.0,m,Wed Jun 24 2026 14:25:25 GMT-0400 (Eastern Daylight Time),824596.0,013_y_m_n_a.png,I,z,1510,11,1,2527.1999999284744,822068.8000000715,9090,NNB,B,9
8,test,4,0.0,2-Back,1.0,m,Wed Jun 24 2026 14:25:25 GMT-0400 (Eastern Daylight Time),826562.6000000238,086_o_f_n_a.png,I,m,945,12,1,1960.3999999761581,824602.2000000477,9090,NNB,B,10
9,test,4,0.0,2-Back,1.0,m,Wed Jun 24 2026 14:25:25 GMT-0400 (Eastern Daylight Time),828679.1000000238,153_y_m_n_a.png,I,m,1090,13,1,2108.1999999284744,826570.9000000954,9090,NNB,B,11
10,test,4,1.0,2-Back,1.0,z,Wed Jun 24 2026 14:25:25 GMT-0400 (Eastern Daylight Time),830596.0,086_o_f_n_a.png,I,z,894,14,1,1908.3999999761581,828687.6000000238,9090,NNB,B,12
10,test,4,1.0,2-Back,0.0,z,Wed Jun 24 2026 14:25:25 GMT-0400 (Eastern Daylight Time),832362.5,153_y_m_n_a.png,I,m,737,15,1,1760.5999999046326,830601.9000000954,9090,NNB,B,13
11,test,4,0.0,2-Back,1.0,m,Wed Jun 24 2026 14:25:25 GMT-0400 (Eastern Daylight Time),835096.0,178_m_m_n_a.png,I,m,1706,16,1,2724.6999999284744,832371.3000000715,9090,NNB,B,14
12,test,4,0.0,2-Back,1.0,m,Wed Jun 24 2026 14:25:25 GMT-0400 (Eastern Daylight Time),837812.6000000238,097_m_f_n_a.png,I,m,1694,17,1,2710.6999999284744,835101.9000000954,9090,NNB,B,15
13,test,4,1.0,2-Back,1.0,z,Wed Jun 24 2026 14:25:25 GMT-0400 (Eastern Daylight Time),840479.3000000715,178_m_m_n_a.png,I,z,1649,18,1,2660.100000023842,837819.2000000477,9090,NNB,B,16
0,test,5,1.0,2-Back,,,Wed Jun 24 2026 14:25:25 GMT-0400 (Eastern Daylight Time),840479.3000000715,153_y_m_n_a.png,I,space,1583,1,1,2660.100000023842,837819.2000000477,9090,NNB,B,0
0,test,5,1.0,2-Back,,,Wed Jun 24 2026 14:25:25 GMT-0400 (Eastern Daylight Time),840479.3000000715,097_m_f_n_a.png,I,space,1583,2,1,2660.100000023842,837819.2000000477,9090,NNB,B,0
1,test,5,1.0,2-Back,1.0,z,Wed Jun 24 2026 14:25:25 GMT-0400 (Eastern Daylight Time),849012.6000000238,153_y_m_n_a.png,I,z,860,3,1,1875.0,847137.6000000238,9090,NNB,B,1
2,test,5,1.0,2-Back,1.0,z,Wed Jun 24 2026 14:25:25 GMT-0400 (Eastern Daylight Time),851029.3000000715,097_m_f_n_a.png,I,z,993,4,1,2008.0,849021.3000000715,9090,NNB,B,2
3,test,5,0.0,2-Back,1.0,m,Wed Jun 24 2026 14:25:25 GMT-0400 (Eastern Daylight Time),853646.0,086_o_f_n_a.png,I,m,1584,5,1,2609.0,851037.0,9090,NNB,B,3
3,test,5,0.0,2-Back,0.0,m,Wed Jun 24 2026 14:25:25 GMT-0400 (Eastern Daylight Time),856729.6000000238,153_y_m_n_a.png,I,None,2016,6,1,3029.100000023842,853700.5,9090,NNB,B,4
4,test,5,0.0,2-Back,1.0,m,Wed Jun 24 2026 14:25:25 GMT-0400 (Eastern Daylight Time),858745.8000000715,173_y_f_n_a.png,I,m,988,7,1,2009.8000000715256,856736.0,9090,NNB,B,5
4,test,5,0.0,2-Back,0.0,m,Wed Jun 24 2026 14:25:25 GMT-0400 (Eastern Daylight Time),860646.0,086_o_f_n_a.png,I,z,876,8,1,1888.0999999046326,858757.9000000954,9090,NNB,B,6
5,test,5,1.0,2-Back,1.0,z,Wed Jun 24 2026 14:25:25 GMT-0400 (Eastern Daylight Time),863312.4000000954,173_y_f_n_a.png,I,z,1648,9,1,2657.8000000715256,860654.6000000238,9090,NNB,B,7
6,test,5,0.0,2-Back,1.0,m,Wed Jun 24 2026 14:25:25 GMT-0400 (Eastern Daylight Time),865945.9000000954,065_o_m_n_a.png,I,m,1605,10,1,2624.5,863321.4000000954,9090,NNB,B,8
7,test,5,0.0,2-Back,1.0,m,Wed Jun 24 2026 14:25:25 GMT-0400 (Eastern Daylight Time),867996.0,029_m_f_n_a.png,I,m,1020,11,1,2043.5,865952.5,9090,NNB,B,9
8,test,5,0.0,2-Back,1.0,m,Wed Jun 24 2026 14:25:25 GMT-0400 (Eastern Daylight Time),870014.0,126_m_m_n_a.png,I,m,985,12,1,2010.0999999046326,868003.9000000954,9090,NNB,B,10
9,test,5,0.0,2-Back,1.0,m,Wed Jun 24 2026 14:25:25 GMT-0400 (Eastern Daylight Time),872129.0,065_o_m_n_a.png,I,m,1097,13,1,2109.399999976158,870019.6000000238,9090,NNB,B,11
9,test,5,1.0,2-Back,0.0,z,Wed Jun 24 2026 14:25:25 GMT-0400 (Eastern Daylight Time),875162.7000000477,126_m_m_n_a.png,I,None,2016,14,1,3026.600000023842,872136.1000000238,9090,NNB,B,12
10,test,5,0.0,2-Back,1.0,m,Wed Jun 24 2026 14:25:25 GMT-0400 (Eastern Daylight Time),877279.8000000715,152_y_f_n_a.png,I,m,1098,15,1,2106.2000000476837,875173.6000000238,9090,NNB,B,13
11,test,5,0.0,2-Back,1.0,m,Wed Jun 24 2026 14:25:25 GMT-0400 (Eastern Daylight Time),879729.0,176_o_m_n_a.png,I,m,1430,16,1,2443.0999999046326,877285.9000000954,9090,NNB,B,14
12,test,5,0.0,2-Back,1.0,m,Wed Jun 24 2026 14:25:25 GMT-0400 (Eastern Daylight Time),881729.1000000238,029_m_f_n_a.png,I,m,980,17,1,1993.0,879736.1000000238,9090,NNB,B,15
13,test,5,1.0,2-Back,1.0,z,Wed Jun 24 2026 14:25:25 GMT-0400 (Eastern Daylight Time),883879.4000000954,176_o_m_n_a.png,I,z,1124,18,1,2143.2000000476837,881736.2000000477,9090,NNB,B,16
