acc_sum,block_c,block_dur,condition,correct,correct_response,countdown,datetime,endtime,project,response,response_time,response_time_test1_response,response_time_test2_response,row_sel,same,session_number,start_end,starttime,stim1,stim2,subject_id,task,task_vers,time_test1,time_test2,trial
1,1,0.0,prac,1,m,30000.0,Tue Jul 22 2025 14:25:50 GMT-0400 (Eastern Daylight Time),50313.09999990463,I,m,2115,,,3,no,2,3639.0,46674.09999990463,QHZXPC,QHZWPC,9015,LC,C,,,1
2,1,0.0,prac,1,z,30000.0,Tue Jul 22 2025 14:25:50 GMT-0400 (Eastern Daylight Time),52646.0,I,z,799,,,4,yes,2,2320.9000000953674,50325.09999990463,RSM,RSM,9015,LC,C,,,2
3,1,0.0,prac,1,z,30000.0,Tue Jul 22 2025 14:25:50 GMT-0400 (Eastern Daylight Time),56062.59999990463,I,z,1877,,,6,yes,2,3406.5,52656.09999990463,CSDBFPHXZ,CSDBFPHXZ,9015,LC,C,,,3
4,1,0.0,prac,1,z,30000.0,Tue Jul 22 2025 14:25:50 GMT-0400 (Eastern Daylight Time),59379.299999952316,I,z,1791,,,2,yes,2,3307.9000000953674,56071.39999985695,NBGFSM,NBGFSM,9015,LC,C,,,4
5,1,0.0,prac,1,m,30000.0,Tue Jul 22 2025 14:25:50 GMT-0400 (Eastern Daylight Time),61729.09999990463,I,m,809,,,1,no,2,2341.399999856949,59387.700000047684,RNV,FNV,9015,LC,C,,,5
6,1,0.0,prac,1,m,30000.0,Tue Jul 22 2025 14:25:50 GMT-0400 (Eastern Daylight Time),65246.09999990463,I,m,1979,,,5,no,2,3507.7000000476837,61738.39999985695,LNDPRSKQB,LNDPRSJQB,9015,LC,C,,,6
1,1,1.1500000953674316,test,1,m,28849.99990463257,Tue Jul 22 2025 14:25:50 GMT-0400 (Eastern Daylight Time),84146.39999985695,I,m,1128,1128,,1,no,2,1140.3999998569489,83006.0,HCF,RCF,9015,LC,C,79567,,1
2,1,3.700000047683716,test,1,m,26299.999952316284,Tue Jul 22 2025 14:25:50 GMT-0400 (Eastern Daylight Time),86696.0,I,m,2534,2534,,2,no,2,2537.9000000953674,84158.09999990463,QTPRJX,QTPNJX,9015,LC,C,80721,,2
3,1,5.5,test,1,m,24500.0,Tue Jul 22 2025 14:25:50 GMT-0400 (Eastern Daylight Time),88496.09999990463,I,m,1780,1780,,3,no,2,1790.0,86706.09999990463,MZDYGVGKQ,MZDYGLBKQ,9015,LC,C,83267,,3
4,1,6.800000190734863,test,1,m,23199.999809265137,Tue Jul 22 2025 14:25:50 GMT-0400 (Eastern Daylight Time),89796.0,I,m,1278,1278,,4,no,2,1291.9000000953674,88504.09999990463,FQTNMK,JQTNMK,9015,LC,C,85065,,4
5,1,7.666000127792358,test,1,z,22333.99987220764,Tue Jul 22 2025 14:25:50 GMT-0400 (Eastern Daylight Time),90662.39999985695,I,z,838,838,,5,yes,2,855.3999998569489,89807.0,CLJ,CLJ,9015,LC,C,86369,,5
6,1,11.350000143051147,test,1,m,18649.999856948853,Tue Jul 22 2025 14:25:50 GMT-0400 (Eastern Daylight Time),94346.20000004768,I,m,3676,3676,,6,no,2,3679.800000190735,90666.39999985695,JGDMNSVPW,JGZMNSVPW,9015,LC,C,87228,,6
7,1,14.266000032424927,test,1,z,15733.999967575073,Tue Jul 22 2025 14:25:50 GMT-0400 (Eastern Daylight Time),97262.70000004768,I,z,2894,2894,,7,yes,2,2904.300000190735,94358.39999985695,FPTVHKCBJ,FPTVHKCBJ,9015,LC,C,90921,,7
8,1,15.683000087738037,test,1,m,14316.999912261963,Tue Jul 22 2025 14:25:50 GMT-0400 (Eastern Daylight Time),98679.20000004768,I,m,1406,1406,,8,no,2,1408.4000000953674,97270.79999995232,XRPZBS,ZRPBDH,9015,LC,C,93832,,8
9,1,16.64900016784668,test,1,m,13350.99983215332,Tue Jul 22 2025 14:25:50 GMT-0400 (Eastern Daylight Time),99645.79999995232,I,m,953,953,,9,no,2,961.5999999046326,98684.20000004768,ZSQ,ZSP,9015,LC,C,95246,,9
10,1,17.90000009536743,test,1,z,12099.999904632568,Tue Jul 22 2025 14:25:50 GMT-0400 (Eastern Daylight Time),100896.29999995232,I,z,1234,1234,,10,yes,2,1244.7999999523163,99651.5,MPZRXL,MPZRXL,9015,LC,C,96213,,10
11,1,18.966000080108643,test,1,m,11033.999919891357,Tue Jul 22 2025 14:25:50 GMT-0400 (Eastern Daylight Time),101962.29999995232,I,m,1051,1051,,11,no,2,1057.0,100905.29999995232,KJH,KRH,9015,LC,C,97467,,11
12,1,24.31600022315979,test,1,z,5683.99977684021,Tue Jul 22 2025 14:25:50 GMT-0400 (Eastern Daylight Time),107312.59999990463,I,z,5335,5335,,12,yes,2,5346.299999952316,101966.29999995232,SMNHVTFCB,SMNHVTFCB,9015,LC,C,98528,,12
13,1,25.499000072479248,test,1,z,4500.999927520752,Tue Jul 22 2025 14:25:50 GMT-0400 (Eastern Daylight Time),108495.59999990463,I,z,1169,1169,,13,yes,2,1178.8999998569489,107316.70000004768,KJWTQF,KJWTQF,9015,LC,C,103878,,13
14,1,27.499000072479248,test,1,z,2500.999927520752,Tue Jul 22 2025 14:25:50 GMT-0400 (Eastern Daylight Time),110495.89999985695,I,z,1983,1983,,14,yes,2,1995.0,108500.89999985695,CHDKQGLMB,CHDKQGLMB,9015,LC,C,105063,,14
15,1,28.366000175476074,test,1,z,1633.9998245239258,Tue Jul 22 2025 14:25:50 GMT-0400 (Eastern Daylight Time),111362.79999995232,I,z,847,847,,15,yes,2,860.7000000476837,110502.09999990463,GHQ,GHQ,9015,LC,C,107064,,15
16,1,29.56600022315979,test,1,z,433.99977684020996,Tue Jul 22 2025 14:25:50 GMT-0400 (Eastern Daylight Time),112562.70000004768,I,z,1176,1176,,16,yes,2,1189.8000001907349,111372.89999985695,GFVMRH,GFVMRH,9015,LC,C,107935,,16
16,1,30.017000198364258,test,0,z,-17.000198364257812,Tue Jul 22 2025 14:25:50 GMT-0400 (Eastern Daylight Time),113013.09999990463,I,None,438,438,,17,yes,2,438.2999999523163,112574.79999995232,RSM,RSM,9015,LC,C,109136,,17
1,2,2.25,test,1,z,27750.0,Tue Jul 22 2025 14:25:50 GMT-0400 (Eastern Daylight Time),117629.29999995232,I,z,2235,,2235.0,1,yes,2,5054.5,112574.79999995232,PRDBZTYFN,PRDBZTYFN,9015,LC,C,,111948.0,1
2,2,3.9830000400543213,test,1,m,26016.99995994568,Tue Jul 22 2025 14:25:50 GMT-0400 (Eastern Daylight Time),119362.70000004768,I,m,1714,,1714.0,2,no,2,6787.900000095367,112574.79999995232,NCWJDZ,NCMJDZ,9015,LC,C,,114197.0,2
3,2,4.882999897003174,test,1,m,25117.000102996826,Tue Jul 22 2025 14:25:50 GMT-0400 (Eastern Daylight Time),120262.39999985695,I,m,875,,875.0,3,no,2,7687.599999904633,112574.79999995232,KHW,KBW,9015,LC,C,,115933.0,3
4,2,6.384000062942505,test,1,m,23615.999937057495,Tue Jul 22 2025 14:25:50 GMT-0400 (Eastern Daylight Time),121762.89999985695,I,m,1483,,1483.0,4,no,2,9188.099999904633,112574.79999995232,ZRBGMF,ZRBCMF,9015,LC,C,,116828.0,4
5,2,7.516999959945679,test,1,m,22483.00004005432,Tue Jul 22 2025 14:25:50 GMT-0400 (Eastern Daylight Time),122896.20000004768,I,m,1112,,1112.0,5,no,2,10321.400000095367,112574.79999995232,BTH,BYH,9015,LC,C,,118335.0,5
6,2,10.099999904632568,test,1,z,19900.00009536743,Tue Jul 22 2025 14:25:50 GMT-0400 (Eastern Daylight Time),125479.70000004768,I,z,2573,,2573.0,6,yes,2,12904.900000095367,112574.79999995232,XWKQRYCNZ,XWKQRYCNZ,9015,LC,C,,119466.0,6
7,2,11.782999992370605,test,1,z,18217.000007629395,Tue Jul 22 2025 14:25:50 GMT-0400 (Eastern Daylight Time),127162.89999985695,I,z,1672,,1672.0,7,yes,2,14588.099999904633,112574.79999995232,HNPDLK,HNPDLK,9015,LC,C,,122047.0,7
7,2,13.83299994468689,test,0,m,16167.00005531311,Tue Jul 22 2025 14:25:50 GMT-0400 (Eastern Daylight Time),129212.5,I,z,2030,,2030.0,8,no,2,16637.700000047684,112574.79999995232,WMQTRSGLZ,WMQTRZGLZ,9015,LC,C,,123736.0,8
8,2,14.717000007629395,test,1,z,15282.999992370605,Tue Jul 22 2025 14:25:50 GMT-0400 (Eastern Daylight Time),130096.09999990463,I,z,869,,869.0,9,yes,2,17521.299999952316,112574.79999995232,JPN,JPN,9015,LC,C,,125778.0,9
9,2,15.684000015258789,test,1,m,14315.999984741211,Tue Jul 22 2025 14:25:50 GMT-0400 (Eastern Daylight Time),131063.5,I,m,956,,956.0,10,no,2,18488.700000047684,112574.79999995232,QLXSVT,QLNSVT,9015,LC,C,,126668.0,10
9,2,19.467000007629395,test,0,z,10532.999992370605,Tue Jul 22 2025 14:25:50 GMT-0400 (Eastern Daylight Time),134846.20000004768,I,m,3768,,3768.0,11,yes,2,22271.400000095367,112574.79999995232,YXHKZVFPB,YXHKZVFPD,9015,LC,C,,127631.0,11
10,2,20.65000009536743,test,1,z,9349.999904632568,Tue Jul 22 2025 14:25:50 GMT-0400 (Eastern Daylight Time),136029.5,I,z,1166,,1166.0,12,yes,2,23454.700000047684,112574.79999995232,RJZ,RJZ,9015,LC,C,,131418.0,12
11,2,23.816999912261963,test,1,z,6183.000087738037,Tue Jul 22 2025 14:25:50 GMT-0400 (Eastern Daylight Time),139196.20000004768,I,z,3153,,3153.0,13,yes,2,26621.400000095367,112574.79999995232,CLNPZD,CLNPZD,9015,LC,C,,132598.0,13
12,2,26.34999990463257,test,1,m,3650.0000953674316,Tue Jul 22 2025 14:25:50 GMT-0400 (Eastern Daylight Time),141729.39999985695,I,m,2512,,2512.0,14,no,2,29154.599999904633,112574.79999995232,DCBPFHXYJ,DCBPFHLYJ,9015,LC,C,,135768.0,14
13,2,27.316999912261963,test,1,m,2683.000087738037,Tue Jul 22 2025 14:25:50 GMT-0400 (Eastern Daylight Time),142695.89999985695,I,m,956,,956.0,15,no,2,30121.099999904633,112574.79999995232,MWR,ZWR,9015,LC,C,,138299.0,15
14,2,29.532999992370605,test,1,z,467.00000762939453,Tue Jul 22 2025 14:25:50 GMT-0400 (Eastern Daylight Time),144912.29999995232,I,z,2197,,2197.0,16,yes,2,32337.5,112574.79999995232,LPKXZW,LPKXZW,9015,LC,C,,139265.0,16
14,2,30.01699995994568,test,0,m,-16.99995994567871,Tue Jul 22 2025 14:25:50 GMT-0400 (Eastern Daylight Time),145396.20000004768,I,None,479,,479.0,17,no,2,32821.40000009537,112574.79999995232,TZL,TZQ,9015,LC,C,,141478.0,17
